##NAMES=Phlogopite
##RRUFFID=R050068
##IDEAL CHEMISTRY=KMg_3_(Si_3_Al)O_10_(OH)_2_
##LOCALITY=S.W. Jasper County, Georgia, USA
##OWNER=RRUFF
##SOURCE=Rock Currier
##DESCRIPTION=Dark brown micaceous single crystal
##STATUS=The identification of this mineral has been confirmed by X-ray diffraction and chemical analysis
##URL=rruff.info/R050068
##MEASURED CHEMISTRY=(K_0.94_Na_0.05_[box]_0.01_)(Mg_0.94_Fe_0.06_)_3_(Si_3.00_Al_1.00_)O_10_((OH)_0.53_F_0.47_)_2_
131.6260, 1793.708
132.1081, 1895.441
132.5902, 1984.792
133.0723, 2056.522
133.5544, 2120.139
134.0366, 2174.155
134.5187, 2221.070
135.0008, 2265.488
135.4829, 2310.913
135.9650, 2356.779
136.4471, 2388.880
136.9293, 2399.734
137.4114, 2405.993
137.8935, 2412.332
138.3756, 2418.056
138.8577, 2420.548
139.3398, 2417.852
139.8220, 2409.890
140.3041, 2398.695
140.7862, 2383.209
141.2683, 2366.352
141.7504, 2339.673
142.2325, 2309.869
142.7147, 2297.748
143.1968, 2319.670
143.6789, 2377.596
144.1610, 2450.090
144.6431, 2547.031
145.1252, 2648.017
145.6074, 2737.436
146.0895, 2817.310
146.5716, 2905.343
147.0537, 3018.127
147.5358, 3156.378
148.0179, 3284.626
148.5001, 3405.749
148.9822, 3515.044
149.4643, 3602.267
149.9464, 3668.931
150.4285, 3739.828
150.9106, 3847.039
151.3928, 3982.417
151.8749, 4071.375
152.3570, 4102.560
152.8391, 4089.672
153.3212, 4036.738
153.8033, 3943.210
154.2855, 3833.392
154.7676, 3724.365
155.2497, 3613.617
155.7318, 3491.987
156.2139, 3345.880
156.6960, 3194.077
157.1782, 3055.037
157.6603, 2929.220
158.1424, 2819.821
158.6245, 2733.073
159.1066, 2665.663
159.5887, 2614.089
160.0709, 2575.178
160.5530, 2552.695
161.0351, 2558.963
161.5172, 2601.393
161.9993, 2645.627
162.4814, 2659.115
162.9636, 2656.755
163.4457, 2666.593
163.9278, 2707.075
164.4099, 2763.171
164.8920, 2808.629
165.3741, 2842.831
165.8563, 2867.470
166.3384, 2875.493
166.8205, 2875.690
167.3026, 2883.439
167.7847, 2909.708
168.2668, 2946.004
168.7490, 2973.725
169.2311, 2990.572
169.7132, 3003.961
170.1953, 3018.361
170.6774, 3032.245
171.1595, 3042.756
171.6417, 3047.043
172.1238, 3047.759
172.6059, 3052.862
173.0880, 3067.234
173.5701, 3075.767
174.0522, 3069.612
174.5344, 3054.610
175.0165, 3038.491
175.4986, 3023.699
175.9807, 3010.933
176.4628, 3001.734
176.9449, 2995.589
177.4271, 2994.590
177.9092, 2995.748
178.3913, 3002.370
178.8734, 3019.551
179.3555, 3051.116
179.8376, 3093.876
180.3197, 3141.031
180.8019, 3202.195
181.2840, 3249.503
181.7661, 3262.424
182.2482, 3262.439
182.7303, 3276.772
183.2124, 3320.380
183.6946, 3383.812
184.1767, 3438.933
184.6588, 3474.489
185.1409, 3521.550
185.6230, 3594.240
186.1051, 3678.462
186.5873, 3758.502
187.0694, 3826.817
187.5515, 3887.416
188.0336, 3951.721
188.5157, 4017.235
188.9978, 4091.065
189.4800, 4176.938
189.9621, 4268.779
190.4442, 4362.665
190.9263, 4456.623
191.4084, 4548.725
191.8905, 4634.878
192.3727, 4718.355
192.8548, 4788.992
193.3369, 4852.305
193.8190, 4901.645
194.3011, 4930.390
194.7832, 4935.861
195.2654, 4921.261
195.7475, 4895.420
196.2296, 4868.854
196.7117, 4806.864
197.1938, 4692.025
197.6759, 4553.825
198.1581, 4415.547
198.6402, 4285.022
199.1223, 4159.771
199.6044, 4035.280
200.0865, 3910.687
200.5686, 3788.416
201.0508, 3669.050
201.5329, 3551.028
202.0150, 3430.527
202.4971, 3307.053
202.9792, 3190.911
203.4613, 3100.473
203.9435, 3049.105
204.4256, 2994.698
204.9077, 2927.594
205.3898, 2862.238
205.8719, 2809.241
206.3540, 2770.262
206.8362, 2738.577
207.3183, 2704.655
207.8004, 2666.367
208.2825, 2632.129
208.7646, 2606.285
209.2467, 2580.632
209.7289, 2549.410
210.2110, 2512.731
210.6931, 2475.460
211.1752, 2443.515
211.6573, 2418.689
212.1395, 2393.334
212.6216, 2366.552
213.1037, 2340.174
213.5858, 2312.245
214.0679, 2284.722
214.5500, 2263.831
215.0322, 2258.342
215.5143, 2272.499
215.9964, 2273.611
216.4785, 2248.335
216.9606, 2222.586
217.4427, 2205.086
217.9249, 2195.561
218.4070, 2189.590
218.8891, 2183.216
219.3712, 2176.271
219.8533, 2175.081
220.3354, 2192.001
220.8176, 2202.737
221.2997, 2196.476
221.7818, 2178.863
222.2639, 2161.106
222.7460, 2150.444
223.2281, 2146.767
223.7103, 2150.023
224.1924, 2176.601
224.6745, 2191.907
225.1566, 2178.875
225.6387, 2152.055
226.1208, 2134.208
226.6030, 2139.535
227.0851, 2161.238
227.5672, 2170.573
228.0493, 2158.509
228.5314, 2145.206
229.0135, 2130.815
229.4957, 2118.348
229.9778, 2111.735
230.4599, 2112.895
230.9420, 2118.868
231.4241, 2122.408
231.9062, 2122.094
232.3884, 2121.589
232.8705, 2123.217
233.3526, 2123.941
233.8347, 2119.143
234.3168, 2107.664
234.7989, 2095.697
235.2811, 2095.569
235.7632, 2115.626
236.2453, 2127.576
236.7274, 2122.318
237.2095, 2113.974
237.6916, 2113.163
238.1738, 2121.319
238.6559, 2130.727
239.1380, 2130.125
239.6201, 2114.785
240.1022, 2107.100
240.5843, 2114.796
241.0665, 2124.605
241.5486, 2130.698
242.0307, 2132.730
242.5128, 2133.415
242.9949, 2136.197
243.4770, 2141.668
243.9592, 2141.987
244.4413, 2132.781
244.9234, 2122.125
245.4055, 2112.922
245.8876, 2104.728
246.3697, 2095.509
246.8519, 2081.959
247.3340, 2065.379
247.8161, 2058.787
248.2982, 2070.373
248.7803, 2081.458
249.2624, 2085.632
249.7446, 2085.039
250.2267, 2083.129
250.7088, 2081.374
251.1909, 2079.912
251.6730, 2078.948
252.1551, 2077.844
252.6373, 2078.685
253.1194, 2079.997
253.6015, 2084.126
254.0836, 2095.557
254.5657, 2117.440
255.0478, 2141.260
255.5300, 2152.004
256.0121, 2145.757
256.4942, 2141.158
256.9763, 2141.028
257.4584, 2146.098
257.9406, 2157.938
258.4227, 2176.981
258.9048, 2200.795
259.3869, 2230.642
259.8690, 2267.228
260.3511, 2293.529
260.8333, 2296.773
261.3154, 2297.147
261.7975, 2309.357
262.2796, 2333.570
262.7617, 2361.096
263.2438, 2386.853
263.7260, 2411.063
264.2081, 2434.234
264.6902, 2454.659
265.1723, 2476.912
265.6544, 2504.960
266.1365, 2537.561
266.6187, 2570.405
267.1008, 2601.512
267.5829, 2631.502
268.0650, 2661.358
268.5471, 2690.687
269.0292, 2721.095
269.5114, 2754.479
269.9935, 2789.491
270.4756, 2824.046
270.9577, 2854.127
271.4398, 2886.367
271.9219, 2931.256
272.4041, 2989.339
272.8862, 3043.714
273.3683, 3081.125
273.8504, 3111.964
274.3325, 3157.279
274.8146, 3227.720
275.2968, 3295.185
275.7789, 3339.432
276.2610, 3364.368
276.7431, 3387.566
277.2252, 3418.189
277.7073, 3445.228
278.1895, 3448.560
278.6716, 3424.898
279.1537, 3399.834
279.6358, 3391.303
280.1179, 3385.348
280.6000, 3355.454
281.0822, 3293.901
281.5643, 3219.451
282.0464, 3152.741
282.5285, 3094.908
283.0106, 3034.710
283.4927, 2973.900
283.9749, 2908.345
284.4570, 2824.675
284.9391, 2724.984
285.4212, 2640.168
285.9033, 2599.808
286.3854, 2603.564
286.8676, 2590.601
287.3497, 2547.974
287.8318, 2502.832
288.3139, 2466.623
288.7960, 2438.338
289.2781, 2414.234
289.7603, 2392.484
290.2424, 2372.875
290.7245, 2355.052
291.2066, 2342.688
291.6887, 2327.456
292.1708, 2301.952
292.6530, 2275.082
293.1351, 2259.501
293.6172, 2259.472
294.0993, 2266.978
294.5814, 2267.804
295.0635, 2257.021
295.5457, 2248.530
296.0278, 2242.105
296.5099, 2237.969
296.9920, 2237.097
297.4741, 2239.116
297.9562, 2241.838
298.4384, 2242.271
298.9205, 2239.031
299.4026, 2243.542
299.8847, 2263.045
300.3668, 2282.801
300.8489, 2296.939
301.3310, 2307.435
301.8131, 2319.326
302.2953, 2336.134
302.7774, 2356.816
303.2595, 2375.745
303.7416, 2389.319
304.2237, 2406.696
304.7058, 2435.094
305.1880, 2465.519
305.6701, 2485.884
306.1522, 2491.310
306.6343, 2493.537
307.1164, 2515.082
307.5985, 2563.778
308.0807, 2602.207
308.5628, 2608.753
309.0449, 2613.395
309.5270, 2636.672
310.0091, 2679.282
310.4912, 2722.432
310.9734, 2747.093
311.4555, 2755.471
311.9376, 2772.662
312.4197, 2808.149
312.9018, 2841.086
313.3839, 2854.535
313.8661, 2855.317
314.3482, 2861.071
314.8303, 2881.413
315.3124, 2910.847
315.7945, 2941.348
316.2766, 2973.558
316.7588, 3002.612
317.2409, 3021.110
317.7230, 3036.162
318.2051, 3061.236
318.6872, 3106.267
319.1693, 3146.522
319.6515, 3158.970
320.1336, 3149.119
320.6157, 3142.102
321.0978, 3147.081
321.5799, 3157.390
322.0620, 3163.657
322.5442, 3166.708
323.0263, 3163.855
323.5084, 3149.620
323.9905, 3131.039
324.4726, 3117.911
324.9547, 3111.801
325.4369, 3107.054
325.9190, 3099.579
326.4011, 3089.201
326.8832, 3069.916
327.3653, 3033.280
327.8474, 2995.759
328.3296, 2967.133
328.8117, 2945.470
329.2938, 2923.742
329.7759, 2897.677
330.2580, 2868.365
330.7401, 2841.595
331.2223, 2821.544
331.7044, 2798.695
332.1865, 2770.651
332.6686, 2739.899
333.1507, 2707.197
333.6328, 2673.420
334.1150, 2642.750
334.5971, 2623.285
335.0792, 2624.917
335.5613, 2610.576
336.0434, 2565.707
336.5255, 2519.758
337.0077, 2487.483
337.4898, 2468.092
337.9719, 2453.083
338.4540, 2435.993
338.9361, 2417.401
339.4182, 2402.740
339.9004, 2394.525
340.3825, 2386.870
340.8646, 2380.135
341.3467, 2372.125
341.8288, 2359.000
342.3109, 2338.391
342.7931, 2316.455
343.2752, 2302.507
343.7573, 2297.321
344.2394, 2294.726
344.7215, 2295.595
345.2036, 2296.751
345.6858, 2294.693
346.1679, 2289.421
346.6500, 2285.980
347.1321, 2290.307
347.6142, 2298.859
348.0963, 2301.566
348.5785, 2296.647
349.0606, 2288.289
349.5427, 2277.246
350.0248, 2265.049
350.5069, 2256.699
350.9890, 2254.789
351.4712, 2255.653
351.9533, 2256.862
352.4354, 2258.373
352.9175, 2260.435
353.3996, 2263.853
353.8817, 2267.108
354.3639, 2265.341
354.8460, 2255.122
355.3281, 2248.146
355.8102, 2250.692
356.2923, 2256.187
356.7744, 2256.007
357.2566, 2248.574
357.7387, 2239.630
358.2208, 2235.686
358.7029, 2237.842
359.1850, 2239.056
359.6671, 2238.813
360.1493, 2238.292
360.6314, 2237.179
361.1135, 2236.234
361.5956, 2237.452
362.0777, 2242.369
362.5598, 2249.106
363.0420, 2250.212
363.5241, 2238.100
364.0062, 2232.790
364.4883, 2243.269
364.9704, 2256.594
365.4525, 2260.341
365.9347, 2252.563
366.4168, 2243.085
366.8989, 2244.636
367.3810, 2258.242
367.8631, 2265.611
368.3452, 2262.019
368.8274, 2256.688
369.3095, 2254.223
369.7916, 2253.791
370.2737, 2253.506
370.7558, 2254.461
371.2379, 2253.445
371.7201, 2241.407
372.2022, 2216.418
372.6843, 2199.736
373.1664, 2206.815
373.6485, 2223.630
374.1306, 2227.928
374.6128, 2215.833
375.0949, 2202.879
375.5770, 2196.959
376.0591, 2195.927
376.5412, 2195.594
377.0233, 2195.075
377.5055, 2195.638
377.9876, 2199.177
378.4697, 2206.100
378.9518, 2210.757
379.4339, 2213.650
379.9160, 2213.739
380.3982, 2208.990
380.8803, 2200.763
381.3624, 2192.167
381.8445, 2184.591
382.3266, 2178.797
382.8087, 2177.126
383.2909, 2185.644
383.7730, 2190.398
384.2551, 2190.194
384.7372, 2186.769
385.2193, 2180.466
385.7014, 2171.962
386.1836, 2163.290
386.6657, 2156.408
387.1478, 2151.361
387.6299, 2147.889
388.1120, 2148.500
388.5941, 2147.723
389.0763, 2142.181
389.5584, 2134.519
390.0405, 2129.135
390.5226, 2128.204
391.0047, 2129.302
391.4868, 2128.200
391.9690, 2124.509
392.4511, 2122.486
392.9332, 2124.583
393.4153, 2127.611
393.8974, 2128.005
394.3795, 2125.777
394.8617, 2124.690
395.3438, 2130.401
395.8259, 2137.137
396.3080, 2131.662
396.7901, 2111.924
397.2722, 2097.073
397.7544, 2102.790
398.2365, 2125.030
398.7186, 2139.707
399.2007, 2146.891
399.6828, 2146.621
400.1649, 2133.360
400.6471, 2113.912
401.1292, 2100.104
401.6113, 2095.788
402.0934, 2095.272
402.5755, 2089.308
403.0576, 2072.653
403.5398, 2067.353
404.0219, 2086.359
404.5040, 2103.053
404.9861, 2099.776
405.4682, 2082.519
405.9503, 2068.812
406.4325, 2070.385
406.9146, 2082.234
407.3967, 2086.407
407.8788, 2079.298
408.3609, 2071.748
408.8430, 2060.405
409.3252, 2052.961
409.8073, 2059.179
410.2894, 2079.380
410.7715, 2098.426
411.2536, 2100.980
411.7357, 2090.447
412.2179, 2084.940
412.7000, 2087.973
413.1821, 2090.385
413.6642, 2081.691
414.1463, 2068.116
414.6284, 2062.980
415.1106, 2074.284
415.5927, 2087.865
416.0748, 2093.235
416.5569, 2092.415
417.0390, 2091.303
417.5211, 2091.689
418.0033, 2093.242
418.4854, 2095.384
418.9675, 2097.821
419.4496, 2102.154
419.9317, 2115.455
420.4138, 2124.856
420.8960, 2116.190
421.3781, 2094.950
421.8602, 2080.582
422.3423, 2086.662
422.8244, 2107.059
423.3065, 2114.681
423.7887, 2096.571
424.2708, 2085.797
424.7529, 2090.924
425.2350, 2100.579
425.7171, 2107.035
426.1992, 2108.473
426.6814, 2105.433
427.1635, 2095.704
427.6456, 2080.231
428.1277, 2071.490
428.6098, 2071.207
429.0919, 2074.495
429.5741, 2078.939
430.0562, 2085.181
430.5383, 2095.456
431.0204, 2113.405
431.5025, 2128.738
431.9846, 2132.320
432.4668, 2126.100
432.9489, 2115.783
433.4310, 2101.561
433.9131, 2087.927
434.3952, 2080.586
434.8773, 2080.243
435.3595, 2079.957
435.8416, 2078.315
436.3237, 2077.613
436.8058, 2079.372
437.2879, 2083.232
437.7701, 2089.178
438.2522, 2097.585
438.7343, 2105.502
439.2164, 2104.664
439.6985, 2085.575
440.1806, 2074.781
440.6628, 2076.235
441.1449, 2082.129
441.6270, 2090.506
442.1091, 2099.165
442.5912, 2103.357
443.0733, 2098.092
443.5555, 2086.096
444.0376, 2076.971
444.5197, 2069.399
445.0018, 2068.497
445.4839, 2086.530
445.9660, 2106.905
446.4482, 2110.892
446.9303, 2094.136
447.4124, 2077.407
447.8945, 2077.766
448.3766, 2086.287
448.8587, 2082.120
449.3409, 2061.607
449.8230, 2041.140
450.3051, 2034.260
450.7872, 2039.479
451.2693, 2039.794
451.7514, 2031.498
452.2336, 2023.030
452.7157, 2015.777
453.1978, 2010.516
453.6799, 2009.494
454.1620, 2012.977
454.6441, 2017.075
455.1263, 2017.381
455.6084, 2014.475
456.0905, 2004.521
456.5726, 1974.298
457.0547, 1950.644
457.5368, 1948.091
458.0190, 1956.026
458.5011, 1956.191
458.9832, 1939.838
459.4653, 1918.202
459.9474, 1908.110
460.4295, 1909.796
460.9117, 1909.478
461.3938, 1904.111
461.8759, 1896.564
462.3580, 1888.998
462.8401, 1881.432
463.3222, 1873.878
463.8044, 1863.722
464.2865, 1855.589
464.7686, 1857.350
465.2507, 1865.699
465.7328, 1865.761
466.2149, 1849.441
466.6971, 1827.436
467.1792, 1821.684
467.6613, 1847.189
468.1434, 1857.038
468.6255, 1838.021
469.1076, 1815.146
469.5898, 1801.987
470.0719, 1798.708
470.5540, 1801.750
471.0361, 1809.875
471.5182, 1820.000
472.0003, 1822.999
472.4825, 1817.184
472.9646, 1808.753
473.4467, 1794.517
473.9288, 1781.326
474.4109, 1773.965
474.8930, 1772.434
475.3752, 1773.173
475.8573, 1773.448
476.3394, 1774.966
476.8215, 1783.259
477.3036, 1798.500
477.7857, 1807.600
478.2679, 1800.763
478.7500, 1786.320
479.2321, 1785.861
479.7142, 1806.174
480.1963, 1821.148
480.6784, 1818.935
481.1606, 1813.897
481.6427, 1820.236
482.1248, 1837.752
482.6069, 1857.150
483.0890, 1872.091
483.5711, 1882.550
484.0533, 1888.345
484.5354, 1885.832
485.0175, 1884.548
485.4996, 1888.716
485.9817, 1892.526
486.4638, 1887.555
486.9460, 1874.931
487.4281, 1868.837
487.9102, 1885.230
488.3923, 1916.443
488.8744, 1938.954
489.3565, 1951.491
489.8387, 1961.482
490.3208, 1972.454
490.8029, 1983.089
491.2850, 1989.767
491.7671, 1989.067
492.2492, 1994.259
492.7314, 2017.742
493.2135, 2044.965
493.6956, 2057.448
494.1777, 2054.759
494.6598, 2050.380
495.1419, 2054.413
495.6241, 2065.652
496.1062, 2076.543
496.5883, 2089.421
497.0704, 2098.336
497.5525, 2100.074
498.0346, 2099.681
498.5168, 2101.902
498.9989, 2106.843
499.4810, 2110.456
499.9631, 2108.466
500.4452, 2102.512
500.9273, 2098.122
501.4095, 2094.707
501.8916, 2095.478
502.3737, 2103.157
502.8558, 2115.311
503.3379, 2130.227
503.8200, 2151.198
504.3022, 2160.470
504.7843, 2138.707
505.2664, 2108.971
505.7485, 2097.817
506.2306, 2106.559
506.7127, 2124.975
507.1949, 2148.100
507.6770, 2172.931
508.1591, 2186.013
508.6412, 2178.589
509.1233, 2171.691
509.6054, 2163.473
510.0876, 2158.420
510.5697, 2163.407
511.0518, 2175.917
511.5339, 2184.486
512.0161, 2180.349
512.4982, 2166.725
512.9803, 2150.328
513.4624, 2129.957
513.9445, 2115.310
514.4266, 2114.309
514.9088, 2116.808
515.3909, 2106.274
515.8730, 2080.793
516.3551, 2066.627
516.8372, 2085.238
517.3193, 2108.613
517.8015, 2109.464
518.2836, 2090.464
518.7657, 2067.471
519.2478, 2047.974
519.7299, 2033.952
520.2120, 2031.303
520.6942, 2052.032
521.1763, 2061.027
521.6584, 2050.355
522.1405, 2036.845
522.6226, 2029.409
523.1047, 2026.636
523.5869, 2022.895
524.0690, 2014.775
524.5511, 2005.157
525.0332, 1998.355
525.5153, 1994.368
525.9974, 1993.057
526.4796, 1996.048
526.9617, 1999.013
527.4438, 1996.045
527.9259, 1988.007
528.4080, 1982.612
528.8901, 1981.947
529.3723, 1983.205
529.8544, 1986.584
530.3365, 1990.332
530.8186, 1991.383
531.3007, 1988.679
531.7828, 1982.721
532.2650, 1972.806
532.7471, 1956.653
533.2292, 1950.688
533.7113, 1963.585
534.1934, 1977.125
534.6755, 1987.408
535.1577, 1994.408
535.6398, 1998.510
536.1219, 1999.846
536.6040, 1998.171
537.0861, 1991.543
537.5682, 1981.669
538.0504, 1975.037
538.5325, 1973.084
539.0146, 1968.551
539.4967, 1952.188
539.9788, 1929.377
540.4609, 1926.804
540.9431, 1965.888
541.4252, 1993.518
541.9073, 1991.638
542.3894, 1978.317
542.8715, 1969.602
543.3536, 1967.534
543.8358, 1966.372
544.3179, 1961.244
544.8000, 1953.605
545.2821, 1949.603
545.7642, 1949.127
546.2463, 1952.703
546.7285, 1967.122
547.2106, 1980.634
547.6926, 1981.790
548.1747, 1971.513
548.6569, 1964.183
549.1390, 1970.612
549.6211, 1979.911
550.1032, 1977.740
550.5853, 1967.025
551.0674, 1963.072
551.5496, 1973.205
552.0317, 1986.100
552.5138, 1981.785
552.9959, 1949.966
553.4780, 1936.085
553.9601, 1957.370
554.4423, 1975.432
554.9244, 1971.825
555.4065, 1955.769
555.8886, 1942.169
556.3707, 1936.400
556.8528, 1935.395
557.3350, 1938.462
557.8171, 1944.341
558.2992, 1941.129
558.7813, 1924.757
559.2634, 1908.732
559.7455, 1902.126
560.2277, 1902.797
560.7098, 1903.297
561.1919, 1905.908
561.6740, 1904.245
562.1561, 1891.694
562.6382, 1876.693
563.1204, 1870.020
563.6025, 1871.090
564.0846, 1869.651
564.5667, 1857.441
565.0488, 1838.171
565.5309, 1826.525
566.0131, 1824.924
566.4952, 1824.852
566.9773, 1827.487
567.4594, 1829.084
567.9415, 1826.451
568.4236, 1820.359
568.9058, 1814.770
569.3879, 1812.020
569.8700, 1809.867
570.3521, 1805.847
570.8342, 1800.459
571.3163, 1795.342
571.7985, 1790.988
572.2806, 1787.301
572.7627, 1784.922
573.2448, 1784.656
573.7269, 1777.798
574.2090, 1751.918
574.6912, 1734.520
575.1733, 1740.533
575.6554, 1754.371
576.1375, 1757.650
576.6196, 1746.774
577.1017, 1733.337
577.5839, 1728.098
578.0660, 1728.704
578.5481, 1727.126
579.0302, 1722.995
579.5123, 1718.905
579.9944, 1715.735
580.4766, 1713.565
580.9587, 1712.872
581.4408, 1714.039
581.9229, 1714.752
582.4050, 1711.809
582.8871, 1710.927
583.3693, 1718.224
583.8514, 1730.316
584.3335, 1739.721
584.8156, 1742.954
585.2977, 1742.673
585.7798, 1741.943
586.2620, 1740.365
586.7441, 1744.004
587.2262, 1758.125
587.7083, 1769.304
588.1904, 1767.260
588.6725, 1757.984
589.1547, 1750.529
589.6368, 1745.520
590.1189, 1743.827
590.6010, 1747.007
591.0831, 1753.125
591.5652, 1759.799
592.0474, 1766.836
592.5295, 1775.920
593.0116, 1788.836
593.4937, 1802.534
593.9758, 1807.294
594.4579, 1799.706
594.9401, 1791.238
595.4222, 1777.353
595.9043, 1767.904
596.3864, 1768.772
596.8685, 1778.126
597.3506, 1791.601
597.8328, 1810.129
598.3149, 1827.206
598.7970, 1837.643
599.2791, 1842.027
599.7612, 1839.737
600.2433, 1830.611
600.7255, 1823.432
601.2076, 1825.993
601.6897, 1837.104
602.1718, 1847.048
602.6539, 1854.670
603.1360, 1862.664
603.6182, 1871.223
604.1003, 1880.215
604.5824, 1891.049
605.0645, 1902.536
605.5466, 1910.178
606.0287, 1909.505
606.5109, 1906.244
606.9930, 1908.810
607.4751, 1916.790
607.9572, 1927.885
608.4393, 1942.779
608.9214, 1955.982
609.4036, 1961.933
609.8857, 1960.572
610.3678, 1957.101
610.8499, 1940.926
611.3320, 1936.172
611.8141, 1960.072
612.2963, 1990.757
612.7784, 2004.658
613.2605, 2000.653
613.7426, 1994.635
614.2247, 1996.965
614.7068, 2007.132
615.1890, 2027.569
615.6711, 2059.090
616.1532, 2081.350
616.6353, 2084.839
617.1174, 2083.473
617.5995, 2094.536
618.0817, 2118.367
618.5638, 2133.345
619.0459, 2129.362
619.5280, 2127.116
620.0101, 2134.566
620.4922, 2148.266
620.9744, 2165.353
621.4565, 2184.241
621.9386, 2201.407
622.4207, 2212.404
622.9028, 2219.702
623.3849, 2232.549
623.8671, 2251.136
624.3492, 2274.732
624.8313, 2306.174
625.3134, 2339.111
625.7955, 2366.664
626.2776, 2389.184
626.7598, 2405.939
627.2419, 2411.206
627.7240, 2416.658
628.2061, 2429.217
628.6882, 2445.178
629.1703, 2458.022
629.6525, 2466.709
630.1346, 2476.449
630.6167, 2492.965
631.0988, 2514.814
631.5809, 2533.817
632.0630, 2549.253
632.5452, 2565.188
633.0273, 2585.335
633.5094, 2604.129
633.9915, 2612.981
634.4736, 2612.597
634.9557, 2618.426
635.4379, 2639.006
635.9200, 2660.688
636.4021, 2678.440
636.8842, 2691.290
637.3663, 2695.913
637.8484, 2692.689
638.3306, 2689.826
638.8127, 2697.040
639.2948, 2711.459
639.7769, 2712.236
640.2590, 2692.065
640.7411, 2685.109
641.2233, 2711.754
641.7054, 2745.404
642.1875, 2756.229
642.6696, 2746.358
643.1517, 2741.888
643.6339, 2755.902
644.1160, 2768.395
644.5981, 2765.190
645.0802, 2754.623
645.5623, 2748.855
646.0444, 2750.763
646.5266, 2757.016
647.0087, 2764.863
647.4908, 2774.223
647.9729, 2786.419
648.4550, 2804.158
648.9371, 2812.481
649.4193, 2798.294
649.9014, 2783.477
650.3835, 2794.929
650.8656, 2827.724
651.3477, 2846.507
651.8298, 2833.522
652.3120, 2818.852
652.7941, 2815.892
653.2762, 2819.990
653.7583, 2824.077
654.2404, 2827.540
654.7225, 2836.418
655.2047, 2857.852
655.6868, 2885.355
656.1689, 2893.286
656.6510, 2876.425
657.1331, 2872.868
657.6152, 2894.875
658.0974, 2925.993
658.5795, 2953.884
659.0616, 2978.850
659.5437, 3001.355
660.0258, 3015.978
660.5079, 3035.051
660.9901, 3068.986
661.4722, 3105.456
661.9543, 3124.693
662.4364, 3131.329
662.9185, 3155.052
663.4006, 3220.229
663.8828, 3301.197
664.3649, 3335.374
664.8470, 3320.689
665.3291, 3329.002
665.8112, 3377.327
666.2933, 3436.274
666.7755, 3486.410
667.2576, 3529.237
667.7397, 3572.254
668.2218, 3607.316
668.7039, 3655.405
669.1860, 3725.537
669.6682, 3805.938
670.1503, 3891.012
670.6324, 3978.667
671.1145, 4065.981
671.5966, 4151.659
672.0787, 4238.850
672.5609, 4334.589
673.0430, 4437.470
673.5251, 4535.077
674.0072, 4625.752
674.4893, 4716.137
674.9714, 4808.969
675.4536, 4905.332
675.9357, 5008.106
676.4178, 5128.441
676.8999, 5231.544
677.3820, 5307.146
677.8641, 5375.028
678.3463, 5443.939
678.8284, 5512.153
679.3105, 5575.776
679.7926, 5633.456
680.2747, 5685.470
680.7568, 5740.717
681.2390, 5787.853
681.7211, 5796.423
682.2032, 5766.337
682.6853, 5716.737
683.1674, 5652.106
683.6495, 5584.212
684.1317, 5533.779
684.6138, 5509.304
685.0959, 5457.836
685.5780, 5364.658
686.0601, 5260.845
686.5422, 5149.294
687.0244, 5033.277
687.5065, 4917.770
687.9886, 4802.128
688.4707, 4678.342
688.9528, 4533.422
689.4349, 4384.343
689.9171, 4252.901
690.3992, 4133.427
690.8813, 4005.183
691.3634, 3863.015
691.8455, 3728.139
692.3276, 3624.491
692.8098, 3547.717
693.2919, 3460.368
693.7740, 3355.396
694.2561, 3255.244
694.7382, 3164.443
695.2203, 3079.137
695.7025, 2996.742
696.1846, 2917.160
696.6667, 2841.094
697.1488, 2770.366
697.6309, 2700.708
698.1130, 2626.575
698.5952, 2554.460
699.0773, 2495.526
699.5594, 2447.887
700.0415, 2396.766
700.5236, 2331.484
701.0057, 2264.425
701.4879, 2225.447
701.9700, 2216.301
702.4521, 2195.729
702.9342, 2156.686
703.4163, 2114.581
703.8984, 2075.269
704.3806, 2040.453
704.8627, 2014.626
705.3448, 2001.930
705.8269, 1985.602
706.3090, 1954.703
706.7911, 1928.086
707.2733, 1921.782
707.7554, 1925.933
708.2375, 1924.068
708.7196, 1911.059
709.2017, 1892.426
709.6838, 1870.722
710.1660, 1848.003
710.6481, 1826.733
711.1302, 1807.578
711.6123, 1803.855
712.0944, 1823.474
712.5765, 1846.737
713.0587, 1848.631
713.5408, 1828.057
714.0229, 1809.289
714.5050, 1787.874
714.9871, 1774.825
715.4692, 1774.343
715.9514, 1780.703
716.4335, 1794.276
716.9156, 1811.459
717.3977, 1819.188
717.8798, 1806.636
718.3619, 1790.895
718.8441, 1786.591
719.3262, 1787.946
719.8083, 1784.691
720.2904, 1776.005
720.7725, 1766.798
721.2546, 1759.870
721.7368, 1756.807
722.2189, 1764.313
722.7010, 1785.589
723.1831, 1794.391
723.6652, 1783.867
724.1473, 1770.206
724.6295, 1759.266
725.1116, 1752.582
725.5937, 1753.903
726.0758, 1766.638
726.5579, 1775.436
727.0400, 1775.649
727.5222, 1773.107
728.0043, 1767.720
728.4864, 1763.288
728.9685, 1769.001
729.4506, 1785.655
729.9327, 1796.543
730.4149, 1780.274
730.8970, 1750.021
731.3791, 1735.416
731.8612, 1735.401
732.3433, 1740.542
732.8254, 1748.498
733.3076, 1758.788
733.7897, 1772.033
734.2718, 1787.489
734.7539, 1795.825
735.2360, 1794.839
735.7181, 1790.284
736.2003, 1778.560
736.6824, 1767.527
737.1645, 1762.658
737.6466, 1762.355
738.1287, 1761.965
738.6108, 1760.703
739.0930, 1758.039
739.5751, 1752.318
740.0572, 1745.936
740.5393, 1740.347
741.0214, 1736.686
741.5035, 1739.221
741.9857, 1750.019
742.4678, 1760.317
742.9499, 1755.041
743.4320, 1735.706
743.9141, 1723.772
744.3962, 1720.247
744.8784, 1720.522
745.3605, 1725.327
745.8426, 1728.998
746.3247, 1707.057
746.8068, 1723.901
747.2889, 1731.666
747.7711, 1730.839
748.2532, 1695.693
748.7353, 1704.865
749.2174, 1696.276
749.6995, 1686.958
750.1816, 1702.368
750.6638, 1672.212
751.1459, 1682.076
751.6280, 1679.794
752.1101, 1687.433
752.5922, 1698.669
753.0743, 1700.034
753.5565, 1691.316
754.0386, 1682.226
754.5207, 1678.273
755.0028, 1678.581
755.4849, 1684.586
755.9670, 1698.485
756.4492, 1694.613
756.9313, 1664.073
757.4134, 1636.929
757.8955, 1625.847
758.3776, 1625.376
758.8597, 1629.102
759.3419, 1637.667
759.8240, 1643.006
760.3061, 1642.497
760.7882, 1641.030
761.2703, 1638.382
761.7524, 1637.043
762.2346, 1641.254
762.7167, 1649.914
763.1988, 1656.026
763.6809, 1654.519
764.1630, 1650.727
764.6451, 1650.439
765.1273, 1652.739
765.6094, 1656.092
766.0915, 1659.975
766.5736, 1662.163
767.0557, 1661.081
767.5378, 1658.399
768.0200, 1658.304
768.5021, 1661.800
768.9842, 1661.609
769.4663, 1656.446
769.9484, 1649.865
770.4305, 1639.367
770.9127, 1631.061
771.3948, 1636.071
771.8769, 1655.772
772.3590, 1669.295
772.8411, 1668.053
773.3232, 1667.628
773.8054, 1676.592
774.2875, 1687.686
774.7696, 1693.503
775.2517, 1693.403
775.7338, 1689.840
776.2159, 1682.175
776.6981, 1675.826
777.1802, 1678.185
777.6623, 1686.180
778.1444, 1695.604
778.6265, 1704.566
779.1086, 1703.208
779.5908, 1684.922
780.0729, 1661.003
780.5550, 1653.271
781.0371, 1663.522
781.5192, 1673.077
782.0013, 1683.867
782.4835, 1688.657
782.9656, 1682.283
783.4477, 1670.832
783.9298, 1661.191
784.4119, 1653.339
784.8940, 1647.669
785.3762, 1643.350
785.8583, 1642.356
786.3404, 1650.168
786.8225, 1657.616
787.3046, 1654.058
787.7867, 1642.796
788.2689, 1637.416
788.7510, 1645.805
789.2331, 1654.227
789.7152, 1649.067
790.1973, 1637.477
790.6794, 1632.622
791.1616, 1632.875
791.6437, 1625.409
792.1258, 1604.607
792.6079, 1581.806
793.0900, 1574.128
793.5721, 1579.322
794.0543, 1573.101
794.5364, 1552.867
795.0185, 1538.162
795.5006, 1536.946
795.9827, 1537.722
796.4648, 1527.612
796.9470, 1508.331
797.4291, 1498.715
797.9112, 1511.052
798.3933, 1515.482
798.8754, 1506.434
799.3575, 1493.403
799.8397, 1478.047
800.3218, 1463.737
800.8039, 1456.886
801.2860, 1460.140
801.7681, 1462.581
802.2502, 1459.557
802.7324, 1452.588
803.2145, 1440.171
803.6966, 1425.764
804.1787, 1415.424
804.6608, 1410.615
805.1429, 1408.808
805.6251, 1408.316
806.1072, 1408.816
806.5893, 1411.127
807.0714, 1414.438
807.5535, 1410.947
808.0356, 1398.815
808.5178, 1389.007
808.9999, 1389.938
809.4820, 1395.628
809.9641, 1389.795
810.4462, 1366.699
810.9283, 1352.894
811.4105, 1349.268
811.8926, 1353.613
812.3747, 1376.143
812.8568, 1398.933
813.3389, 1398.152
813.8210, 1373.789
814.3032, 1355.020
814.7853, 1348.966
815.2674, 1345.491
815.7495, 1341.137
816.2316, 1337.878
816.7137, 1339.306
817.1959, 1343.502
817.6780, 1344.613
818.1601, 1340.041
818.6422, 1332.554
819.1243, 1321.502
819.6064, 1310.678
820.0886, 1305.985
820.5707, 1307.005
821.0528, 1312.339
821.5349, 1321.191
822.0170, 1328.305
822.4991, 1327.035
822.9813, 1319.713
823.4634, 1316.158
823.9455, 1316.454
824.4276, 1319.513
824.9097, 1326.724
825.3918, 1329.548
825.8740, 1319.040
826.3561, 1301.108
826.8382, 1296.537
827.3203, 1314.663
827.8024, 1324.506
828.2845, 1318.133
828.7667, 1313.166
829.2488, 1318.910
829.7309, 1327.681
830.2130, 1330.074
830.6951, 1325.547
831.1772, 1320.600
831.6594, 1314.129
832.1415, 1310.785
832.6236, 1316.088
833.1057, 1322.906
833.5878, 1324.606
834.0699, 1320.990
834.5521, 1313.286
835.0342, 1300.727
835.5163, 1291.678
835.9984, 1299.125
836.4805, 1312.284
836.9626, 1309.969
837.4448, 1296.500
837.9269, 1293.526
838.4090, 1307.689
838.8911, 1322.116
839.3732, 1317.298
839.8553, 1299.985
840.3375, 1297.390
840.8196, 1309.940
841.3017, 1314.222
841.7838, 1305.083
842.2659, 1291.694
842.7480, 1278.274
843.2302, 1267.375
843.7123, 1265.603
844.1944, 1274.869
844.6765, 1287.515
845.1586, 1311.332
845.6407, 1326.899
846.1229, 1322.151
846.6050, 1309.964
847.0871, 1301.043
847.5692, 1295.701
848.0513, 1294.346
848.5334, 1303.341
849.0156, 1307.767
849.4977, 1297.556
849.9798, 1286.665
850.4619, 1284.696
850.9440, 1290.979
851.4261, 1304.677
851.9083, 1326.510
852.3904, 1341.194
852.8725, 1334.083
853.3546, 1318.847
853.8367, 1305.261
854.3188, 1296.231
854.8010, 1298.602
855.2831, 1311.939
855.7652, 1326.252
856.2473, 1335.036
856.7294, 1338.191
857.2115, 1331.888
857.6937, 1319.365
858.1758, 1317.228
858.6579, 1326.575
859.1400, 1331.797
859.6221, 1325.011
860.1042, 1315.413
860.5864, 1316.805
861.0685, 1328.646
861.5506, 1335.711
862.0327, 1336.879
862.5148, 1337.831
862.9969, 1340.598
863.4791, 1341.711
863.9612, 1336.879
864.4433, 1328.630
864.9254, 1326.264
865.4075, 1332.530
865.8896, 1338.980
866.3718, 1347.862
866.8539, 1354.284
867.3360, 1355.270
867.8181, 1353.731
868.3002, 1352.457
868.7823, 1351.735
869.2645, 1351.758
869.7466, 1355.714
870.2287, 1356.354
870.7108, 1347.695
871.1929, 1337.197
871.6750, 1330.613
872.1572, 1327.969
872.6393, 1328.362
873.1214, 1331.639
873.6035, 1334.394
874.0856, 1333.522
874.5677, 1331.387
875.0499, 1330.064
875.5320, 1329.729
876.0141, 1330.568
876.4962, 1332.595
876.9783, 1335.757
877.4604, 1340.112
877.9426, 1345.171
878.4247, 1352.245
878.9068, 1359.309
879.3889, 1355.931
879.8710, 1342.708
880.3531, 1336.057
880.8353, 1343.122
881.3174, 1350.880
881.7995, 1342.230
882.2816, 1321.152
882.7637, 1314.449
883.2458, 1324.486
883.7280, 1330.986
884.2101, 1329.451
884.6922, 1328.089
885.1743, 1332.439
885.6564, 1340.093
886.1385, 1346.019
886.6207, 1350.250
887.1028, 1352.554
887.5849, 1353.317
888.0670, 1351.459
888.5491, 1344.092
889.0313, 1336.276
889.5134, 1331.019
889.9955, 1328.783
890.4776, 1332.090
890.9597, 1349.233
891.4418, 1357.161
891.9240, 1340.207
892.4061, 1326.978
892.8882, 1340.471
893.3703, 1362.634
893.8524, 1364.873
894.3345, 1345.351
894.8167, 1333.587
895.2988, 1349.783
895.7809, 1366.462
896.2630, 1369.153
896.7451, 1364.879
897.2272, 1359.564
897.7094, 1354.022
898.1915, 1346.610
898.6736, 1336.696
899.1557, 1330.636
899.6378, 1337.104
900.1199, 1347.418
900.6021, 1351.234
901.0842, 1350.415
901.5663, 1349.755
902.0484, 1349.662
902.5305, 1345.787
903.0126, 1334.540
903.4948, 1323.828
903.9769, 1327.111
904.4590, 1340.142
904.9411, 1350.935
905.4232, 1358.676
905.9053, 1362.038
906.3875, 1360.619
906.8696, 1355.971
907.3517, 1348.250
907.8338, 1340.700
908.3159, 1347.481
908.7980, 1368.776
909.2802, 1374.689
909.7623, 1359.741
910.2444, 1348.285
910.7265, 1353.449
911.2086, 1363.738
911.6907, 1361.805
912.1729, 1347.875
912.6550, 1340.374
913.1371, 1340.069
913.6192, 1344.844
914.1013, 1360.217
914.5834, 1368.989
915.0656, 1354.796
915.5477, 1329.404
916.0298, 1320.756
916.5119, 1334.932
916.9940, 1343.006
917.4761, 1339.980
917.9583, 1337.914
918.4404, 1343.487
918.9225, 1347.712
919.4046, 1341.558
919.8867, 1327.952
920.3688, 1317.645
920.8510, 1310.155
921.3331, 1308.770
921.8152, 1320.871
922.2973, 1331.194
922.7794, 1329.202
923.2615, 1323.913
923.7437, 1326.832
924.2258, 1337.777
924.7079, 1347.420
925.1900, 1356.642
925.6721, 1358.096
926.1542, 1338.201
926.6364, 1319.278
927.1185, 1322.741
927.6006, 1338.709
928.0827, 1348.317
928.5648, 1347.709
929.0469, 1346.728
929.5291, 1355.312
930.0112, 1360.367
930.4933, 1346.699
930.9754, 1327.515
931.4575, 1320.607
931.9396, 1323.282
932.4218, 1322.489
932.9039, 1313.523
933.3860, 1303.893
933.8681, 1296.815
934.3502, 1295.327
934.8323, 1308.972
935.3145, 1329.329
935.7966, 1339.663
936.2787, 1338.015
936.7608, 1328.656
937.2429, 1313.370
937.7250, 1298.880
938.2072, 1292.987
938.6893, 1294.105
939.1714, 1301.553
939.6535, 1312.839
940.1356, 1318.072
940.6177, 1315.478
941.0999, 1310.945
941.5820, 1308.306
942.0641, 1307.846
942.5462, 1312.145
943.0283, 1319.393
943.5104, 1318.306
943.9926, 1309.291
944.4747, 1304.127
944.9568, 1306.495
945.4389, 1311.648
945.9210, 1315.893
946.4031, 1318.410
946.8853, 1316.667
947.3674, 1310.667
947.8495, 1301.539
948.3316, 1288.662
948.8137, 1281.645
949.2958, 1285.093
949.7780, 1291.222
950.2601, 1291.131
950.7422, 1286.329
951.2243, 1286.088
951.7064, 1292.293
952.1885, 1289.174
952.6707, 1271.680
953.1528, 1258.791
953.6349, 1260.621
954.1170, 1268.613
954.5991, 1270.879
955.0812, 1267.885
955.5634, 1270.896
956.0455, 1283.271
956.5276, 1290.861
957.0097, 1289.464
957.4918, 1288.746
957.9739, 1296.190
958.4561, 1304.805
958.9382, 1301.880
959.4203, 1286.099
959.9024, 1277.562
960.3845, 1279.189
960.8666, 1282.523
961.3488, 1290.098
961.8309, 1293.778
962.3130, 1284.512
962.7951, 1270.082
963.2772, 1266.236
963.7593, 1275.112
964.2415, 1283.193
964.7236, 1292.528
965.2057, 1298.084
965.6878, 1296.913
966.1699, 1293.771
966.6520, 1290.885
967.1342, 1288.435
967.6163, 1286.924
968.0984, 1286.634
968.5805, 1286.181
969.0626, 1284.689
969.5447, 1284.107
970.0269, 1286.613
970.5090, 1288.668
970.9911, 1286.259
971.4732, 1281.433
971.9553, 1279.904
972.4374, 1283.116
972.9196, 1286.317
973.4017, 1290.464
973.8838, 1292.479
974.3659, 1290.063
974.8480, 1286.074
975.3301, 1281.418
975.8123, 1277.420
976.2944, 1278.599
976.7765, 1289.117
977.2586, 1293.200
977.7407, 1277.521
978.2228, 1266.639
978.7050, 1277.246
979.1871, 1293.191
979.6692, 1297.727
980.1513, 1292.867
980.6334, 1290.300
981.1155, 1292.694
981.5977, 1296.932
982.0798, 1306.364
982.5619, 1312.412
983.0440, 1309.626
983.5261, 1301.976
984.0082, 1289.501
984.4904, 1276.126
984.9725, 1275.537
985.4546, 1298.092
985.9367, 1313.330
986.4188, 1301.297
986.9009, 1289.059
987.3831, 1296.680
987.8652, 1310.008
988.3473, 1311.413
988.8294, 1301.547
989.3115, 1291.920
989.7936, 1285.702
990.2758, 1280.857
990.7579, 1276.940
991.2400, 1273.749
991.7221, 1268.605
992.2042, 1265.799
992.6863, 1274.667
993.1685, 1291.611
993.6506, 1298.038
994.1327, 1282.901
994.6148, 1271.089
995.0969, 1275.515
995.5790, 1285.018
996.0612, 1294.506
996.5433, 1302.938
997.0254, 1310.861
997.5075, 1317.290
997.9896, 1318.087
998.4717, 1309.975
998.9539, 1301.797
999.4360, 1297.098
999.9181, 1294.287
1000.400, 1289.980
1000.882, 1288.410
1001.364, 1298.900
1001.847, 1318.051
1002.329, 1328.699
1002.811, 1322.470
1003.293, 1315.003
1003.775, 1312.760
1004.257, 1312.734
1004.739, 1312.668
1005.221, 1313.760
1005.703, 1319.891
1006.186, 1329.000
1006.668, 1332.270
1007.150, 1325.148
1007.632, 1317.333
1008.114, 1311.554
1008.596, 1308.408
1009.078, 1310.625
1009.560, 1314.124
1010.043, 1315.137
1010.525, 1312.785
1011.007, 1305.122
1011.489, 1288.279
1011.971, 1278.259
1012.453, 1287.989
1012.935, 1299.633
1013.417, 1302.903
1013.899, 1301.747
1014.382, 1301.525
1014.864, 1301.493
1015.346, 1296.349
1015.828, 1282.720
1016.310, 1272.429
1016.792, 1269.286
1017.274, 1271.533
1017.756, 1282.761
1018.239, 1295.301
1018.721, 1300.057
1019.203, 1299.367
1019.685, 1303.103
1020.167, 1315.304
1020.649, 1322.857
1021.131, 1319.271
1021.613, 1312.886
1022.095, 1301.850
1022.578, 1294.614
1023.060, 1300.962
1023.542, 1316.974
1024.024, 1332.722
1024.506, 1347.056
1024.988, 1356.467
1025.470, 1353.637
1025.952, 1354.053
1026.435, 1369.238
1026.917, 1384.574
1027.399, 1384.694
1027.881, 1376.868
1028.363, 1379.296
1028.845, 1396.163
1029.327, 1406.843
1029.809, 1400.052
1030.292, 1397.109
1030.774, 1400.988
1031.256, 1413.279
1031.738, 1447.031
1032.220, 1484.932
1032.702, 1492.026
1033.184, 1462.807
1033.666, 1447.576
1034.148, 1464.641
1034.630, 1476.607
1035.113, 1476.060
1035.595, 1470.460
1036.077, 1461.370
1036.559, 1451.115
1037.041, 1443.167
1037.523, 1437.613
1038.005, 1431.844
1038.487, 1423.697
1038.970, 1418.795
1039.452, 1417.864
1039.934, 1419.834
1040.416, 1428.299
1040.898, 1435.988
1041.380, 1433.153
1041.862, 1420.801
1042.344, 1409.760
1042.826, 1398.396
1043.309, 1392.517
1043.791, 1396.324
1044.273, 1398.047
1044.755, 1392.151
1045.237, 1383.993
1045.719, 1378.065
1046.201, 1374.720
1046.683, 1376.572
1047.166, 1388.041
1047.648, 1387.652
1048.130, 1367.466
1048.612, 1359.893
1049.094, 1379.128
1049.576, 1402.396
1050.058, 1410.546
1050.540, 1408.409
1051.022, 1409.244
1051.505, 1413.756
1051.987, 1413.571
1052.469, 1407.711
1052.951, 1403.334
1053.433, 1402.213
1053.915, 1401.961
1054.397, 1400.559
1054.879, 1400.499
1055.361, 1407.674
1055.844, 1421.014
1056.326, 1427.256
1056.808, 1426.468
1057.290, 1425.717
1057.772, 1426.191
1058.254, 1428.363
1058.736, 1432.523
1059.218, 1438.032
1059.701, 1444.510
1060.183, 1451.239
1060.665, 1456.202
1061.147, 1459.255
1061.629, 1459.461
1062.111, 1456.769
1062.593, 1449.773
1063.075, 1438.343
1063.557, 1431.986
1064.040, 1441.277
1064.522, 1458.531
1065.004, 1471.715
1065.486, 1481.027
1065.968, 1485.198
1066.450, 1485.910
1066.932, 1490.012
1067.414, 1498.350
1067.896, 1502.808
1068.379, 1497.256
1068.861, 1487.814
1069.343, 1477.932
1069.825, 1471.073
1070.307, 1474.337
1070.789, 1483.485
1071.271, 1490.590
1071.753, 1494.297
1072.236, 1495.658
1072.718, 1494.294
1073.200, 1497.038
1073.682, 1514.641
1074.164, 1532.223
1074.646, 1535.887
1075.128, 1533.380
1075.610, 1531.323
1076.093, 1532.569
1076.575, 1542.769
1077.057, 1563.836
1077.539, 1580.016
1078.021, 1583.325
1078.503, 1581.704
1078.985, 1573.775
1079.467, 1567.200
1079.949, 1568.686
1080.432, 1575.157
1080.914, 1580.556
1081.396, 1584.422
1081.878, 1592.269
1082.360, 1610.444
1082.842, 1624.505
1083.324, 1634.771
1083.806, 1637.466
1084.288, 1624.362
1084.771, 1607.644
1085.253, 1600.422
1085.735, 1601.257
1086.217, 1603.146
1086.699, 1607.233
1087.181, 1609.057
1087.663, 1605.992
1088.145, 1606.371
1088.628, 1614.845
1089.110, 1622.452
1089.592, 1621.551
1090.074, 1616.762
1090.556, 1619.343
1091.038, 1629.931
1091.520, 1627.642
1092.002, 1609.311
1092.484, 1599.142
1092.967, 1601.913
1093.449, 1607.266
1093.931, 1610.249
1094.413, 1611.891
1094.895, 1613.580
1095.377, 1614.955
1095.859, 1616.520
1096.341, 1617.149
1096.823, 1604.699
1097.306, 1580.156
1097.788, 1561.839
1098.270, 1555.487
1098.752, 1553.298
1099.234, 1549.572
1099.716, 1544.792
1100.198, 1542.017
1100.680, 1537.479
1101.163, 1519.767
1101.645, 1494.673
1102.127, 1475.771
1102.609, 1465.934
1103.091, 1465.621
1103.573, 1475.831
1104.055, 1482.100
1104.537, 1466.232
1105.020, 1447.696
1105.502, 1448.877
1105.984, 1454.396
1106.466, 1442.982
1106.948, 1420.637
1107.430, 1403.815
1107.912, 1396.128
1108.394, 1392.484
1108.876, 1400.237
1109.359, 1397.338
1109.841, 1365.777
1110.323, 1332.151
1110.805, 1310.354
1111.287, 1297.444
1111.769, 1291.592
1112.251, 1290.870
1112.733, 1287.053
1113.215, 1275.242
1113.698, 1271.110
1114.180, 1286.544
1114.662, 1291.279
1115.144, 1273.377
1115.626, 1249.821
1116.108, 1228.332
1116.590, 1212.507
1117.072, 1211.367
1117.555, 1225.032
1118.037, 1223.763
1118.519, 1203.780
1119.001, 1190.240
1119.483, 1186.521
1119.965, 1187.631
1120.447, 1192.613
1120.929, 1193.284
1121.411, 1179.871
1121.894, 1159.266
1122.376, 1149.624
1122.858, 1149.197
1123.340, 1149.453
1123.822, 1149.932
1124.304, 1152.550
1124.786, 1156.508
1125.268, 1151.779
1125.750, 1132.071
1126.233, 1112.035
1126.715, 1111.477
1127.197, 1117.737
1127.679, 1109.601
1128.161, 1098.365
1128.643, 1107.273
1129.125, 1128.606
1129.607, 1135.410
1130.090, 1122.226
1130.572, 1112.136
1131.054, 1121.990
1131.536, 1128.222
1132.018, 1112.741
1132.500, 1095.929
1132.982, 1089.488
1133.464, 1091.289
1133.947, 1103.637
1134.429, 1121.229
1134.911, 1124.668
1135.393, 1106.634
1135.875, 1091.733
1136.357, 1077.939
1136.839, 1074.016
1137.321, 1091.078
1137.803, 1103.901
1138.286, 1094.693
1138.768, 1077.160
1139.250, 1071.191
1139.732, 1075.827
1140.214, 1082.999
1140.696, 1093.823
1141.178, 1098.901
1141.660, 1097.623
1142.142, 1088.942
1142.625, 1071.910
1143.107, 1057.919
1143.589, 1055.738
1144.071, 1062.302
1144.553, 1076.168
1145.035, 1093.116
1145.517, 1101.488
1145.999, 1101.437
1146.482, 1089.611
1146.964, 1069.981
1147.446, 1058.751
1147.928, 1061.588
1148.410, 1066.927
1148.892, 1066.305
1149.374, 1064.585
1149.856, 1066.635
1150.339, 1069.143
1150.821, 1068.517
1151.303, 1066.274
1151.785, 1063.671
1152.267, 1061.905
1152.749, 1065.376
1153.231, 1078.433
1153.713, 1083.477
1154.195, 1065.927
1154.677, 1054.585
1155.160, 1065.566
1155.642, 1077.060
1156.124, 1075.315
1156.606, 1066.223
1157.088, 1056.769
1157.570, 1047.477
1158.052, 1045.453
1158.534, 1053.283
1159.017, 1056.124
1159.499, 1052.394
1159.981, 1048.283
1160.463, 1045.277
1160.945, 1045.703
1161.427, 1051.807
1161.909, 1059.343
1162.391, 1059.344
1162.874, 1055.620
1163.356, 1063.856
1163.838, 1079.016
1164.320, 1083.889
1164.802, 1078.856
1165.284, 1074.257
1165.766, 1073.333
1166.248, 1071.716
1166.730, 1065.030
1167.213, 1060.500
1167.695, 1069.544
1168.177, 1077.726
1168.659, 1070.934
1169.141, 1056.408
1169.623, 1037.838
1170.105, 1021.312
1170.587, 1022.549
1171.069, 1047.231
1171.552, 1064.669
1172.034, 1066.567
1172.516, 1065.661
1172.998, 1059.985
1173.480, 1057.792
1173.962, 1065.790
1174.444, 1074.310
1174.926, 1072.876
1175.409, 1064.121
1175.891, 1056.860
1176.373, 1051.151
1176.855, 1046.253
1177.337, 1042.165
1177.819, 1037.470
1178.301, 1032.007
1178.783, 1030.491
1179.266, 1035.222
1179.748, 1041.365
1180.230, 1043.969
1180.712, 1044.562
1181.194, 1043.981
1181.676, 1044.170
1182.158, 1051.358
1182.640, 1060.814
1183.122, 1061.300
1183.604, 1053.305
1184.087, 1046.579
1184.569, 1044.634
1185.051, 1044.522
1185.533, 1048.076
1186.015, 1048.843
1186.497, 1040.027
1186.979, 1031.823
1187.461, 1030.642
1187.944, 1034.898
1188.426, 1044.248
1188.908, 1056.972
1189.390, 1061.989
1189.872, 1055.470
1190.354, 1055.857
1190.836, 1065.901
1191.318, 1069.960
1191.801, 1063.779
1192.283, 1057.427
1192.765, 1056.847
1193.247, 1056.601
1193.729, 1048.193
1194.211, 1037.669
1194.693, 1043.728
1195.175, 1058.208
1195.657, 1058.705
1196.140, 1047.976
1196.622, 1036.378
1197.104, 1027.257
1197.586, 1022.889
1198.068, 1024.529
1198.550, 1028.310
1199.032, 1035.744
1199.514, 1039.517
1199.996, 1030.305
1200.479, 1021.132
1200.961, 1022.554
1201.443, 1030.407
1201.925, 1040.854
1202.407, 1051.967
1202.889, 1053.051
1203.371, 1039.843
1203.853, 1029.897
1204.336, 1023.014
1204.818, 1020.506
1205.300, 1023.422
1205.782, 1027.273
1206.264, 1029.782
1206.746, 1031.523
1207.228, 1033.603
1207.710, 1034.557
1208.193, 1027.106
1208.675, 1016.728
1209.157, 1023.318
1209.639, 1040.445
1210.121, 1047.405
1210.603, 1042.113
1211.085, 1033.696
1211.567, 1025.688
1212.049, 1018.320
1212.531, 1008.123
1213.014, 1003.450
1213.496, 1012.314
1213.978, 1024.246
1214.460, 1034.458
1214.942, 1041.718
1215.424, 1045.076
1215.906, 1044.503
1216.388, 1039.220
1216.871, 1027.358
1217.353, 1023.047
1217.835, 1028.490
1218.317, 1032.955
1218.799, 1035.704
1219.281, 1029.194
1219.763, 1008.915
1220.245, 998.2377
1220.728, 1021.551
1221.210, 1054.410
1221.692, 1048.763
1222.174, 1024.216
1222.656, 1020.477
1223.138, 1030.166
1223.620, 1040.076
1224.102, 1046.196
1224.584, 1042.944
1225.067, 1030.003
1225.549, 1020.268
1226.031, 1019.507
1226.513, 1022.318
1226.995, 1031.375
1227.477, 1037.851
1227.959, 1036.518
1228.441, 1032.427
1228.923, 1027.664
1229.406, 1024.319
1229.888, 1026.913
1230.370, 1034.510
1230.852, 1035.706
1231.334, 1030.085
1231.816, 1029.359
1232.298, 1033.952
##END=



