##NAMES=Phoenicochroite
##RRUFFID=R050587
##IDEAL CHEMISTRY=Pb^2+^_2_O(Cr^6+^O_4_)
##LOCALITY=Potter Cramer mine, Maricopa County, Arizona, USA
##OWNER=RRUFF
##SOURCE=Marcus Origlieri
##DESCRIPTION=Thin coating that includes red gemmy crystalline fragments in some places
##STATUS=The identification of this mineral is confirmed by single-crystal X-ray diffraction and chemical analysis.
##URL=rruff.info/R050587
##MEASURED CHEMISTRY=Pb_2.05_O(Cr_0.98_O_4_)
99.200, 113.631
99.682, 129.029
100.164, 146.783
100.647, 166.727
101.129, 189.456
101.611, 205.140
102.093, 210.869
102.575, 213.172
103.057, 211.970
103.539, 208.800
104.021, 207.284
104.504, 211.148
104.986, 221.827
105.468, 232.968
105.950, 244.838
106.432, 256.949
106.914, 269.473
107.396, 282.249
107.878, 294.326
108.360, 304.306
108.843, 311.330
109.325, 318.245
109.807, 321.539
110.289, 326.300
110.771, 337.320
111.253, 355.794
111.735, 381.401
112.217, 414.684
112.700, 456.565
113.182, 501.178
113.664, 543.591
114.146, 588.388
114.628, 645.250
115.110, 720.336
115.592, 804.208
116.074, 881.074
116.557, 951.543
117.039, 1016.164
117.521, 1077.218
118.003, 1133.410
118.485, 1178.591
118.967, 1204.564
119.449, 1222.615
119.931, 1252.879
120.413, 1299.908
120.896, 1349.643
121.378, 1394.181
121.860, 1433.414
122.342, 1465.049
122.824, 1492.083
123.306, 1507.267
123.788, 1501.138
124.270, 1468.336
124.752, 1419.810
125.235, 1365.759
125.717, 1304.568
126.199, 1244.803
126.681, 1187.991
127.163, 1135.167
127.645, 1087.732
128.127, 1045.656
128.609, 1010.094
129.092, 983.863
129.574, 967.954
130.056, 959.684
130.538, 954.326
131.020, 955.635
131.502, 969.281
131.984, 999.244
132.466, 1042.713
132.948, 1088.849
133.430, 1126.314
133.913, 1187.058
134.395, 1279.007
134.877, 1397.933
135.359, 1534.834
135.841, 1680.223
136.323, 1839.128
136.805, 2044.866
137.288, 2310.781
137.770, 2614.772
138.252, 2945.017
138.734, 3305.989
139.216, 3708.104
139.698, 4158.717
140.180, 4659.597
140.662, 5186.103
141.144, 5760.638
141.626, 6346.692
142.109, 6938.605
142.591, 7534.573
143.073, 8129.239
143.555, 8723.185
144.037, 9319.494
144.519, 9874.278
145.001, 10425.760
145.484, 10903.260
145.966, 11357.710
146.448, 11733.640
146.930, 11889.280
147.412, 11681.430
147.894, 11073.160
148.376, 10235.820
148.858, 8993.046
149.340, 7716.500
149.822, 6517.926
150.305, 5438.420
150.787, 4511.533
151.269, 3772.289
151.751, 3260.133
152.233, 2843.002
152.715, 2532.142
153.197, 2288.251
153.679, 2102.100
154.161, 1966.116
154.644, 1861.513
155.126, 1768.019
155.608, 1686.727
156.090, 1615.984
156.572, 1558.118
157.054, 1508.055
157.536, 1463.825
158.018, 1424.644
158.501, 1388.451
158.983, 1352.264
159.465, 1312.963
159.947, 1284.057
160.429, 1272.146
160.911, 1266.444
161.393, 1258.220
161.875, 1245.484
162.357, 1230.591
162.840, 1216.734
163.322, 1204.632
163.804, 1191.731
164.286, 1177.449
164.768, 1162.593
165.250, 1147.317
165.732, 1131.612
166.214, 1117.323
166.697, 1107.847
167.179, 1105.419
167.661, 1100.957
168.143, 1092.052
168.625, 1081.289
169.107, 1071.541
169.589, 1063.548
170.071, 1056.707
170.553, 1050.445
171.036, 1045.217
171.518, 1038.927
172.000, 1029.456
172.482, 1019.349
172.964, 1012.839
173.446, 1011.507
173.928, 1011.176
174.410, 1004.750
174.893, 990.877
175.375, 978.298
175.857, 967.643
176.339, 959.614
176.821, 956.300
177.303, 959.034
177.785, 963.389
178.267, 962.622
178.749, 956.813
179.232, 948.664
179.714, 934.730
180.196, 919.731
180.678, 912.502
181.160, 916.518
181.642, 924.541
182.124, 925.258
182.606, 918.332
183.089, 912.256
183.571, 910.243
184.053, 910.492
184.535, 909.963
185.017, 907.890
185.499, 905.007
185.981, 902.243
186.463, 899.630
186.945, 896.883
187.428, 893.442
187.910, 889.907
188.392, 887.579
188.874, 887.131
189.356, 886.949
189.838, 883.979
190.320, 878.086
190.802, 874.517
191.285, 878.681
191.767, 885.620
192.249, 885.106
192.731, 873.145
193.213, 858.763
193.695, 853.556
194.177, 856.785
194.659, 861.282
195.141, 866.651
195.624, 871.464
196.106, 872.754
196.588, 869.361
197.070, 864.236
197.552, 860.136
198.034, 856.936
198.516, 855.214
198.998, 856.276
199.480, 858.660
199.963, 859.775
200.445, 858.957
200.927, 857.696
201.409, 857.425
201.891, 858.001
202.373, 859.359
202.855, 862.490
203.337, 866.097
203.820, 868.051
204.302, 867.882
204.784, 866.872
205.266, 865.272
205.748, 863.367
206.230, 864.000
206.712, 871.333
207.194, 880.335
207.676, 883.458
208.159, 879.270
208.641, 872.808
209.123, 867.771
209.605, 864.034
210.087, 861.709
210.569, 860.444
211.051, 860.767
211.533, 864.638
212.016, 872.720
212.498, 879.504
212.980, 879.153
213.462, 873.115
213.944, 868.260
214.426, 864.731
214.908, 863.384
215.390, 867.006
215.872, 875.979
216.355, 883.092
216.837, 882.215
217.319, 874.647
217.801, 866.997
218.283, 858.906
218.765, 851.655
219.247, 846.114
219.729, 842.318
220.212, 840.699
220.694, 842.498
221.176, 846.843
221.658, 849.651
222.140, 850.129
222.622, 849.539
223.104, 848.922
223.586, 848.173
224.068, 846.106
224.551, 841.052
225.033, 834.459
225.515, 831.315
225.997, 835.028
226.479, 838.581
226.961, 836.398
227.443, 830.020
227.925, 826.432
228.408, 830.436
228.890, 838.672
229.372, 840.741
229.854, 832.055
230.336, 824.376
230.818, 824.911
231.300, 830.732
231.782, 833.573
232.264, 829.143
232.747, 820.785
233.229, 817.104
233.711, 820.000
234.193, 822.664
234.675, 822.417
235.157, 820.530
235.639, 819.620
236.121, 820.844
236.604, 822.659
237.086, 821.821
237.568, 817.407
238.050, 813.211
238.532, 809.008
239.014, 805.762
239.496, 805.448
239.978, 808.764
240.460, 813.213
240.943, 815.190
241.425, 814.230
241.907, 811.954
242.389, 805.787
242.871, 799.755
243.353, 799.117
243.835, 804.600
244.317, 810.638
244.799, 810.342
245.282, 800.719
245.764, 795.544
246.246, 798.567
246.728, 803.226
247.210, 804.693
247.692, 802.730
248.174, 800.153
248.656, 799.577
249.139, 801.306
249.621, 802.893
250.103, 803.593
250.585, 804.822
251.067, 808.449
251.549, 813.516
252.031, 816.819
252.513, 815.578
252.995, 809.883
253.478, 806.770
253.960, 803.719
254.442, 805.424
254.924, 819.151
255.406, 838.473
255.888, 849.926
256.370, 844.439
256.852, 826.601
257.335, 821.065
257.817, 843.729
258.299, 861.360
258.781, 868.010
259.263, 867.793
259.745, 864.816
260.227, 860.824
260.709, 857.966
261.191, 862.220
261.674, 881.212
262.156, 896.090
262.638, 901.323
263.120, 904.553
263.602, 913.658
264.084, 930.614
264.566, 949.743
265.048, 961.217
265.530, 959.380
266.013, 963.181
266.495, 978.662
266.977, 995.259
267.459, 1005.981
267.941, 1010.351
268.423, 1013.093
268.905, 1018.166
269.387, 1024.876
269.870, 1038.013
270.352, 1062.907
270.834, 1090.274
271.316, 1117.903
271.798, 1145.180
272.280, 1171.490
272.762, 1195.548
273.244, 1217.664
273.727, 1243.250
274.209, 1275.439
274.691, 1306.798
275.173, 1335.612
275.655, 1361.447
276.137, 1383.083
276.619, 1397.506
277.101, 1409.065
277.583, 1430.373
278.065, 1465.562
278.548, 1500.288
279.030, 1532.136
279.512, 1559.021
279.994, 1577.387
280.476, 1584.513
280.958, 1585.988
281.440, 1588.359
281.922, 1591.727
282.405, 1595.058
282.887, 1598.977
283.369, 1602.004
283.851, 1603.582
284.333, 1604.405
284.815, 1600.140
285.297, 1583.309
285.779, 1556.736
286.262, 1537.381
286.744, 1532.121
287.226, 1531.775
287.708, 1526.333
288.190, 1516.012
288.672, 1501.802
289.154, 1481.282
289.636, 1457.773
290.118, 1437.622
290.601, 1422.297
291.083, 1407.956
291.565, 1391.198
292.047, 1372.099
292.529, 1351.754
293.011, 1330.690
293.493, 1308.158
293.975, 1280.692
294.457, 1249.041
294.940, 1222.951
295.422, 1210.526
295.904, 1210.572
296.386, 1206.852
296.868, 1195.939
297.350, 1185.109
297.832, 1177.409
298.314, 1172.248
298.797, 1167.546
299.279, 1161.867
299.761, 1156.774
300.243, 1157.545
300.725, 1168.992
301.207, 1180.061
301.689, 1187.608
302.171, 1194.979
302.654, 1205.930
303.136, 1221.639
303.618, 1240.771
304.100, 1260.941
304.582, 1278.663
305.064, 1305.701
305.546, 1346.399
306.028, 1391.621
306.510, 1434.749
306.992, 1476.048
307.475, 1521.425
307.957, 1576.499
308.439, 1641.982
308.921, 1711.754
309.403, 1776.987
309.885, 1856.638
310.367, 1959.801
310.849, 2082.138
311.332, 2212.247
311.814, 2339.995
312.296, 2474.611
312.778, 2650.477
313.260, 2872.149
313.742, 3130.403
314.224, 3419.444
314.706, 3740.393
315.189, 4092.515
315.671, 4474.928
316.153, 4894.271
316.635, 5363.876
317.117, 5888.377
317.599, 6425.660
318.081, 6964.027
318.563, 7513.203
319.045, 8081.258
319.528, 8668.532
320.010, 9258.875
320.492, 9844.791
320.974, 10423.380
321.456, 10990.080
321.938, 11583.070
322.420, 12085.580
322.902, 12402.310
323.384, 12554.410
323.867, 12559.300
324.349, 12407.240
324.831, 12118.900
325.313, 11691.850
325.795, 11124.330
326.277, 10501.150
326.759, 9841.271
327.241, 9172.553
327.724, 8602.321
328.206, 8141.500
328.688, 7759.839
329.170, 7444.731
329.652, 7196.582
330.134, 7016.212
330.616, 6903.937
331.098, 6859.750
331.581, 6886.427
332.063, 6985.450
332.545, 7156.231
333.027, 7400.578
333.509, 7716.089
333.991, 8095.519
334.473, 8540.235
334.955, 9057.822
335.437, 9660.087
335.919, 10358.720
336.402, 11094.390
336.884, 11894.310
337.366, 12697.750
337.848, 13483.490
338.330, 14251.190
338.812, 15007.490
339.294, 15748.310
339.776, 16484.660
340.259, 17275.240
340.741, 18178.721
341.223, 19044.391
341.705, 20006.920
342.187, 20845.150
342.669, 21390.320
343.151, 21592.250
343.633, 21350.779
344.116, 20442.199
344.598, 18801.711
345.080, 17004.881
345.562, 14919.900
346.044, 12917.030
346.526, 11202.730
347.008, 9795.177
347.490, 8658.577
347.972, 7832.022
348.455, 7264.157
348.937, 6830.624
349.419, 6539.035
349.901, 6328.230
350.383, 6170.917
350.865, 6062.504
351.347, 5999.877
351.829, 6008.592
352.311, 6041.073
352.794, 6066.368
353.276, 6084.136
353.758, 6096.662
354.240, 6112.864
354.722, 6115.318
355.204, 6059.996
355.686, 5973.505
356.168, 5796.631
356.651, 5487.758
357.133, 5093.896
357.615, 4650.539
358.097, 4172.083
358.579, 3690.075
359.061, 3238.703
359.543, 2810.752
360.025, 2460.829
360.508, 2205.020
360.990, 1999.536
361.472, 1834.445
361.954, 1703.833
362.436, 1602.894
362.918, 1529.958
363.400, 1480.572
363.882, 1433.285
364.364, 1380.270
364.846, 1342.671
365.329, 1325.816
365.811, 1322.761
366.293, 1327.933
366.775, 1339.634
367.257, 1357.286
367.739, 1379.309
368.221, 1405.469
368.703, 1440.346
369.186, 1476.308
369.668, 1531.926
370.150, 1613.228
370.632, 1720.929
371.114, 1856.835
371.596, 2016.924
372.078, 2207.000
372.560, 2436.935
373.043, 2706.219
373.525, 3016.788
374.007, 3373.377
374.489, 3773.788
374.971, 4203.410
375.453, 4672.040
375.935, 5153.833
376.417, 5634.250
376.899, 6117.091
377.382, 6606.793
377.864, 7106.188
378.346, 7615.325
378.828, 8141.473
379.310, 8714.111
379.792, 9213.434
380.274, 9711.523
380.756, 10079.670
381.238, 10271.650
381.721, 10260.080
382.203, 9990.464
382.685, 9404.619
383.167, 8524.222
383.649, 7568.852
384.131, 6360.232
384.613, 5285.018
385.095, 4400.230
385.578, 3677.706
386.060, 3095.352
386.542, 2641.783
387.024, 2294.023
387.506, 2031.298
387.988, 1864.430
388.470, 1718.353
388.952, 1589.669
389.435, 1478.306
389.917, 1385.044
390.399, 1309.155
390.881, 1246.214
391.363, 1198.225
391.845, 1160.459
392.327, 1122.920
392.809, 1084.763
393.291, 1051.457
393.773, 1028.047
394.256, 1010.929
394.738, 991.998
395.220, 969.221
395.702, 947.694
396.184, 929.115
396.666, 913.737
397.148, 903.754
397.630, 900.342
398.113, 897.139
398.595, 885.095
399.077, 860.154
399.559, 842.795
400.041, 837.841
400.523, 835.976
401.005, 833.359
401.487, 829.297
401.970, 823.341
402.452, 814.999
402.934, 805.032
403.416, 796.819
403.898, 791.939
404.380, 786.319
404.862, 778.487
405.344, 770.360
405.826, 763.319
406.309, 757.730
406.791, 753.603
407.273, 751.965
407.755, 752.662
408.237, 750.546
408.719, 744.244
409.201, 736.804
409.683, 728.615
410.165, 720.703
410.648, 715.611
411.130, 714.666
411.612, 716.287
412.094, 720.516
412.576, 726.715
413.058, 729.697
413.540, 726.914
414.022, 720.677
414.504, 714.505
414.987, 707.708
415.469, 703.285
415.951, 705.108
416.433, 707.546
416.915, 703.919
417.397, 694.489
417.879, 685.582
418.362, 682.382
418.844, 684.600
419.326, 686.145
419.808, 687.676
420.290, 687.703
420.772, 685.466
421.254, 681.801
421.736, 678.051
422.218, 674.573
422.701, 669.784
423.183, 659.619
423.665, 642.345
424.147, 632.922
424.629, 638.180
425.111, 645.362
425.593, 648.030
426.075, 646.915
426.557, 644.479
427.040, 640.930
427.522, 637.343
428.004, 635.343
428.486, 634.907
428.968, 635.183
429.450, 636.517
429.932, 637.697
430.414, 636.178
430.897, 631.219
431.379, 626.604
431.861, 623.381
432.343, 620.991
432.825, 618.594
433.307, 616.214
433.789, 615.012
434.271, 616.375
434.753, 620.127
435.236, 620.969
435.718, 618.242
436.200, 613.350
436.682, 602.291
437.164, 591.026
437.646, 587.806
438.128, 594.891
438.610, 605.018
439.092, 608.255
439.575, 603.701
440.057, 600.154
440.539, 598.254
441.021, 597.339
441.503, 598.508
441.985, 600.331
442.467, 598.945
442.949, 589.941
443.431, 579.944
443.914, 577.434
444.396, 581.804
444.878, 587.253
445.360, 592.431
445.842, 596.477
446.324, 597.265
446.806, 594.058
447.289, 591.677
447.771, 592.044
448.253, 592.754
448.735, 591.574
449.217, 588.637
449.699, 585.388
450.181, 582.799
450.663, 580.875
451.145, 579.766
451.628, 580.840
452.110, 580.773
452.592, 577.833
453.074, 574.487
453.556, 572.283
454.038, 571.766
454.520, 573.700
455.002, 580.917
455.484, 592.424
455.967, 598.192
456.449, 596.107
456.931, 592.372
457.413, 588.782
457.895, 586.254
458.377, 586.855
458.859, 592.417
459.341, 598.512
459.823, 602.784
460.306, 605.262
460.788, 604.940
461.270, 601.145
461.752, 598.285
462.234, 602.188
462.716, 614.725
463.198, 622.747
463.680, 624.510
464.163, 623.987
464.645, 621.869
465.127, 618.940
465.609, 615.315
466.091, 610.944
466.573, 608.601
467.055, 615.813
467.537, 637.971
468.020, 650.623
468.502, 643.846
468.984, 633.400
469.466, 625.019
469.948, 619.594
470.430, 618.305
470.912, 623.894
471.394, 632.435
471.876, 637.952
472.358, 640.547
472.841, 642.859
473.323, 645.736
473.805, 649.125
474.287, 652.999
474.769, 657.267
475.251, 662.114
475.733, 667.726
476.216, 673.829
476.698, 680.934
477.180, 688.527
477.662, 694.400
478.144, 696.641
478.626, 696.825
479.108, 702.456
479.590, 720.300
480.072, 732.149
480.555, 731.588
481.037, 728.265
481.519, 730.762
482.001, 739.115
482.483, 745.765
482.965, 743.210
483.447, 734.177
483.929, 728.701
484.411, 727.967
484.894, 724.953
485.376, 714.270
485.858, 699.846
486.340, 690.288
486.822, 687.900
487.304, 684.723
487.786, 677.198
488.268, 667.462
488.750, 657.227
489.233, 647.152
489.715, 639.904
490.197, 638.887
490.679, 643.030
491.161, 637.806
491.643, 611.052
492.125, 589.585
492.607, 578.375
493.090, 573.117
493.572, 570.707
494.054, 570.014
494.536, 569.067
495.018, 566.209
495.500, 561.478
495.982, 554.568
496.464, 544.190
496.947, 534.984
497.429, 529.490
497.911, 526.970
498.393, 526.484
498.875, 529.727
499.357, 531.263
499.839, 527.630
500.321, 520.943
500.803, 513.662
501.285, 506.451
501.768, 500.706
502.250, 498.180
502.732, 498.790
503.214, 496.741
503.696, 487.918
504.178, 481.307
504.660, 480.486
505.142, 481.513
505.625, 479.833
506.107, 474.526
506.589, 468.753
507.071, 466.123
507.553, 466.142
508.035, 465.111
508.517, 462.841
508.999, 459.690
509.482, 454.981
509.964, 449.729
510.446, 445.791
510.928, 443.024
511.410, 442.170
511.892, 447.131
512.374, 452.828
512.856, 449.865
513.338, 437.456
513.821, 424.878
514.303, 420.418
514.785, 423.742
515.267, 427.647
515.749, 434.893
516.231, 439.162
516.713, 437.085
517.195, 433.067
517.677, 432.017
518.160, 434.569
518.642, 436.375
519.124, 432.401
519.606, 424.270
520.088, 418.741
520.570, 416.327
521.052, 415.044
521.534, 414.215
522.016, 413.684
522.499, 413.213
522.981, 413.362
523.463, 412.280
523.945, 406.860
524.427, 401.361
524.909, 401.615
525.391, 407.384
525.873, 413.234
526.356, 415.118
526.838, 413.566
527.320, 411.386
527.802, 407.945
528.284, 405.000
528.766, 402.771
529.248, 401.109
529.730, 400.477
530.213, 400.603
530.695, 399.776
531.177, 396.231
531.659, 391.207
532.141, 386.088
532.623, 380.863
533.105, 379.364
533.587, 384.340
534.070, 392.758
534.552, 399.193
535.034, 404.577
535.516, 405.622
535.998, 398.023
536.480, 389.305
536.962, 384.443
537.444, 383.068
537.926, 383.003
538.409, 383.146
538.891, 383.130
539.373, 381.462
539.855, 376.944
540.337, 375.994
540.819, 383.800
541.301, 390.971
541.783, 390.526
542.265, 384.229
542.748, 378.515
543.230, 375.910
543.712, 374.564
544.194, 372.751
544.676, 370.833
545.158, 370.044
545.640, 370.814
546.122, 372.223
546.604, 373.106
547.087, 373.315
547.569, 373.944
548.051, 375.715
548.533, 377.055
549.015, 377.637
549.497, 377.427
549.979, 376.543
550.461, 375.006
550.943, 372.367
551.426, 366.686
551.908, 358.874
552.390, 355.568
552.872, 357.978
553.354, 362.259
553.836, 367.652
554.318, 372.785
554.800, 373.856
555.283, 367.322
555.765, 363.258
556.247, 368.005
556.729, 374.839
557.211, 376.139
557.693, 371.736
558.175, 366.491
558.657, 364.013
559.140, 363.645
559.622, 362.247
560.104, 358.557
560.586, 356.790
561.068, 359.349
561.550, 362.931
562.032, 366.002
562.514, 368.292
562.997, 369.118
563.479, 367.244
563.961, 364.416
564.443, 362.795
564.925, 362.031
565.407, 360.357
565.889, 356.997
566.371, 353.146
566.853, 350.443
567.336, 348.963
567.818, 348.432
568.300, 349.704
568.782, 350.858
569.264, 350.964
569.746, 350.593
570.228, 350.948
570.710, 352.439
571.192, 353.341
571.675, 350.560
572.157, 345.163
572.639, 343.234
573.121, 345.759
573.603, 349.606
574.085, 353.636
574.567, 357.304
575.049, 358.923
575.531, 358.098
576.014, 356.116
576.496, 351.315
576.978, 346.840
577.460, 346.314
577.942, 349.148
578.424, 351.885
578.906, 352.225
579.388, 350.718
579.870, 348.388
580.353, 344.430
580.835, 343.363
581.317, 349.395
581.799, 355.005
582.281, 352.162
582.763, 343.102
583.245, 338.771
583.727, 347.160
584.210, 356.450
584.692, 357.891
585.174, 354.256
585.656, 351.076
586.138, 349.927
586.620, 349.538
587.102, 348.595
587.584, 347.099
588.067, 344.893
588.549, 341.098
589.031, 337.875
589.513, 336.172
589.995, 334.988
590.477, 332.896
590.959, 329.788
591.441, 327.960
591.924, 330.260
592.406, 334.054
592.888, 335.338
593.370, 334.113
593.852, 331.294
594.334, 326.697
594.816, 322.492
595.298, 322.995
595.780, 330.833
596.263, 336.311
596.745, 339.828
597.227, 340.902
597.709, 336.716
598.191, 330.697
598.673, 328.954
599.155, 334.047
599.637, 339.891
600.119, 338.674
600.602, 332.466
601.084, 330.128
601.566, 333.020
602.048, 335.961
602.530, 335.312
603.012, 332.286
603.494, 331.305
603.976, 333.268
604.458, 335.556
604.941, 339.063
605.423, 341.878
605.905, 342.224
606.387, 340.576
606.869, 338.345
607.351, 336.038
607.833, 334.605
608.315, 337.528
608.797, 344.767
609.280, 345.269
609.762, 334.408
610.244, 322.404
610.726, 316.561
611.208, 316.855
611.690, 321.442
612.172, 337.227
612.654, 348.725
613.137, 349.422
613.619, 344.636
614.101, 338.448
614.583, 332.360
615.065, 328.052
615.547, 326.878
616.029, 328.301
616.511, 330.865
616.994, 334.758
617.476, 339.025
617.958, 344.673
618.440, 349.117
618.922, 348.914
619.404, 344.828
619.886, 341.721
620.368, 341.075
620.851, 340.863
621.333, 339.414
621.815, 338.001
622.297, 339.376
622.779, 343.686
623.261, 347.259
623.743, 345.968
624.225, 340.905
624.707, 339.578
625.190, 343.260
625.672, 346.855
626.154, 348.495
626.636, 349.796
627.118, 353.119
627.600, 358.318
628.082, 361.178
628.564, 358.315
629.046, 354.934
629.529, 353.419
630.011, 359.486
630.493, 363.420
630.975, 365.334
631.457, 359.181
631.939, 363.446
632.421, 363.536
632.903, 363.454
633.385, 369.184
633.868, 364.205
634.350, 369.843
634.832, 352.692
635.314, 354.319
635.796, 362.554
636.278, 369.821
636.760, 374.262
637.242, 376.329
637.724, 374.529
638.207, 370.894
638.689, 369.912
639.171, 373.025
639.653, 377.916
640.135, 381.860
640.617, 384.859
641.099, 387.449
641.581, 388.952
642.064, 391.490
642.546, 397.748
643.028, 404.260
643.510, 407.411
643.992, 406.941
644.474, 404.653
644.956, 398.606
645.438, 393.172
645.920, 392.723
646.403, 395.580
646.885, 397.802
647.367, 397.993
647.849, 397.255
648.331, 397.248
648.813, 397.971
649.295, 395.778
649.778, 387.820
650.260, 383.297
650.742, 388.015
651.224, 396.520
651.706, 403.131
652.188, 407.689
652.670, 409.999
653.152, 408.082
653.634, 405.678
654.117, 406.991
654.599, 409.661
655.081, 407.664
655.563, 399.297
656.045, 390.214
656.527, 387.186
657.009, 389.960
657.491, 395.288
657.973, 405.955
658.456, 410.679
658.938, 400.061
659.420, 385.318
659.902, 381.817
660.384, 390.456
660.866, 397.283
661.348, 397.396
661.830, 396.957
662.312, 400.169
662.795, 405.263
663.277, 409.309
663.759, 411.367
664.241, 411.836
664.723, 410.466
665.205, 407.813
665.687, 407.666
666.169, 410.664
666.652, 412.739
667.134, 411.811
667.616, 410.102
668.098, 410.847
668.580, 414.188
669.062, 416.602
669.544, 415.962
670.026, 416.397
670.508, 422.210
670.991, 428.909
671.473, 429.746
671.955, 424.022
672.437, 417.507
672.919, 414.805
673.401, 415.185
673.883, 417.295
674.365, 421.171
674.847, 424.010
675.330, 424.753
675.812, 424.779
676.294, 425.734
676.776, 427.708
677.258, 428.607
677.740, 428.216
678.222, 427.131
678.705, 423.863
679.187, 421.064
679.669, 421.856
680.151, 425.947
680.633, 430.002
681.115, 432.150
681.597, 432.890
682.079, 431.967
682.561, 430.043
683.044, 430.918
683.526, 435.752
684.008, 440.317
684.490, 440.385
684.972, 436.661
685.454, 435.405
685.936, 438.174
686.418, 441.092
686.901, 443.745
687.383, 446.467
687.865, 449.844
688.347, 453.504
688.829, 456.322
689.311, 457.799
689.793, 458.438
690.275, 457.186
690.757, 455.869
691.240, 459.018
691.722, 466.584
692.204, 473.201
692.686, 475.203
693.168, 473.672
693.650, 470.869
694.132, 464.876
694.614, 464.708
695.096, 475.720
695.579, 486.710
696.061, 491.867
696.543, 492.577
697.025, 491.034
697.507, 486.604
697.989, 482.535
698.471, 479.133
698.953, 477.359
699.435, 478.494
699.918, 482.043
700.400, 487.205
700.882, 493.665
701.364, 499.141
701.846, 499.335
702.328, 494.735
702.810, 493.024
703.292, 495.060
703.774, 497.466
704.257, 499.121
704.739, 499.833
705.221, 498.868
705.703, 495.408
706.185, 493.764
706.667, 495.057
707.149, 497.127
707.631, 499.589
708.114, 502.026
708.596, 503.899
709.078, 505.137
709.560, 506.273
710.042, 507.705
710.524, 509.319
711.006, 511.225
711.488, 513.244
711.971, 514.170
712.453, 513.582
712.935, 512.325
713.417, 511.109
713.899, 509.983
714.381, 510.386
714.863, 513.819
715.345, 516.246
715.828, 515.939
716.310, 515.317
716.792, 516.195
717.274, 518.296
717.756, 520.058
718.238, 519.484
718.720, 520.633
719.202, 528.740
719.684, 538.729
720.167, 542.219
720.649, 539.605
721.131, 538.972
721.613, 545.936
722.095, 555.772
722.577, 557.013
723.059, 548.984
723.541, 546.763
724.023, 553.956
724.506, 561.024
724.988, 562.260
725.470, 559.461
725.952, 556.882
726.434, 553.908
726.916, 552.746
727.398, 553.012
727.880, 555.746
728.362, 562.734
728.845, 572.119
729.327, 581.910
729.809, 591.359
730.291, 598.299
730.773, 598.270
731.255, 595.659
731.737, 599.885
732.219, 609.579
732.701, 615.366
733.184, 613.847
733.666, 610.498
734.148, 611.762
734.630, 617.502
735.112, 622.677
735.594, 626.904
736.076, 631.305
736.558, 639.643
737.041, 645.158
737.523, 637.745
738.005, 621.559
738.487, 617.534
738.969, 639.985
739.451, 662.578
739.933, 676.000
740.415, 682.078
740.898, 680.290
741.380, 672.788
741.862, 664.507
742.344, 657.611
742.826, 654.827
743.308, 664.157
743.790, 682.902
744.272, 691.511
744.755, 687.315
745.237, 682.114
745.719, 682.167
746.201, 685.348
746.683, 687.124
747.165, 686.141
747.647, 688.157
748.129, 695.318
748.611, 702.922
749.094, 710.362
749.576, 717.078
750.058, 721.943
750.540, 724.984
751.022, 729.140
751.504, 738.009
751.986, 746.435
752.468, 749.199
752.950, 748.716
753.433, 749.785
753.915, 753.214
754.397, 756.060
754.879, 755.267
755.361, 753.303
755.843, 758.846
756.325, 772.436
756.807, 779.992
757.289, 777.486
757.772, 774.037
758.254, 776.645
758.736, 783.251
759.218, 786.513
759.700, 783.992
760.182, 782.177
760.664, 779.950
761.146, 779.623
761.628, 782.938
762.111, 788.672
762.593, 795.680
763.075, 803.781
763.557, 809.913
764.039, 811.353
764.521, 810.484
765.003, 808.240
765.485, 806.116
765.968, 808.077
766.450, 815.078
766.932, 823.855
767.414, 831.628
767.896, 838.042
768.378, 839.904
768.860, 836.076
769.342, 837.941
769.825, 850.651
770.307, 863.235
770.789, 865.262
771.271, 858.969
771.753, 857.306
772.235, 860.428
772.717, 867.828
773.199, 881.879
773.682, 897.849
774.164, 916.757
774.646, 934.497
775.128, 942.546
775.610, 937.257
776.092, 933.773
776.574, 945.490
777.056, 961.346
777.538, 967.014
778.021, 965.890
778.503, 968.917
778.985, 979.510
779.467, 993.444
779.949, 1007.711
780.431, 1020.959
780.913, 1024.989
781.395, 1018.687
781.877, 1017.073
782.360, 1023.717
782.842, 1036.042
783.324, 1053.902
783.806, 1075.590
784.288, 1090.764
784.770, 1092.132
785.252, 1098.150
785.734, 1110.986
786.216, 1126.663
786.699, 1144.448
787.181, 1163.195
787.663, 1180.580
788.145, 1195.683
788.627, 1212.583
789.109, 1235.230
789.591, 1259.055
790.073, 1280.484
790.555, 1299.590
791.038, 1315.416
791.520, 1328.548
792.002, 1345.654
792.484, 1374.517
792.966, 1410.477
793.448, 1440.181
793.930, 1464.379
794.412, 1494.109
794.895, 1532.858
795.377, 1569.754
795.859, 1595.354
796.341, 1613.282
796.823, 1637.652
797.305, 1672.679
797.787, 1704.357
798.269, 1732.384
798.752, 1756.815
799.234, 1774.010
799.716, 1789.337
800.198, 1810.420
800.680, 1838.231
801.162, 1868.904
801.644, 1907.352
802.126, 1941.752
802.609, 1959.004
803.091, 1971.433
803.573, 1993.870
804.055, 2029.423
804.537, 2075.999
805.019, 2135.881
805.501, 2199.828
805.983, 2253.552
806.465, 2301.488
806.948, 2352.750
807.430, 2409.971
807.912, 2481.934
808.394, 2574.576
808.876, 2680.105
809.358, 2780.061
809.840, 2871.978
810.322, 2984.686
810.804, 3120.251
811.287, 3270.653
811.769, 3425.221
812.251, 3602.649
812.733, 3826.075
813.215, 4097.797
813.697, 4405.954
814.179, 4717.717
814.661, 5107.519
815.143, 5576.178
815.626, 6137.592
816.108, 6786.142
816.590, 7535.303
817.072, 8423.655
817.554, 9453.991
818.036, 10647.150
818.518, 11977.120
819.000, 13498.380
819.482, 15258.320
819.965, 17256.801
820.447, 19477.580
820.929, 21921.699
821.411, 24534.600
821.893, 27351.770
822.375, 30288.400
822.857, 33226.559
823.339, 36132.129
823.822, 38892.391
824.304, 41505.680
824.786, 43623.922
825.268, 45013.301
825.750, 45590.410
826.232, 44977.531
826.714, 43037.109
827.196, 40325.148
827.679, 36500.391
828.161, 32563.711
828.643, 28839.029
829.125, 25442.881
829.607, 22619.119
830.089, 20372.439
830.571, 18609.410
831.053, 17381.830
831.535, 16555.029
832.018, 16159.520
832.500, 16088.520
832.982, 16267.340
833.464, 16669.461
833.946, 17256.051
834.428, 18044.270
834.910, 18950.760
835.392, 19957.539
835.875, 21022.010
836.357, 22157.160
836.839, 23298.180
837.321, 24328.391
837.803, 25196.461
838.285, 25766.471
838.767, 25852.760
839.249, 25517.279
839.731, 24842.961
840.214, 23873.020
840.696, 22928.250
841.178, 22096.850
841.660, 21505.289
842.142, 21270.320
842.624, 21392.840
843.106, 21894.330
843.588, 22810.410
844.070, 23953.869
844.553, 25361.910
845.035, 26895.000
845.517, 28564.730
845.999, 30250.260
846.481, 31746.359
846.963, 33086.969
847.445, 34072.430
847.927, 34919.328
848.409, 35141.078
848.892, 34567.859
849.374, 33319.531
849.856, 31394.490
850.338, 28879.070
850.820, 26139.250
851.302, 23081.539
851.784, 20130.340
852.266, 17383.090
852.748, 14914.730
853.231, 12789.620
853.713, 10992.970
854.195, 9494.188
854.677, 8284.859
855.159, 7286.202
855.641, 6456.918
856.123, 5768.217
856.606, 5196.635
857.088, 4726.760
857.570, 4316.508
858.052, 3954.776
858.534, 3646.258
859.016, 3395.491
859.498, 3193.370
859.980, 3021.544
860.462, 2879.812
860.945, 2747.907
861.427, 2624.915
861.909, 2511.011
862.391, 2406.405
862.873, 2312.712
863.355, 2233.418
863.837, 2169.957
864.319, 2105.909
864.802, 2038.959
865.284, 1975.689
865.766, 1915.983
866.248, 1861.260
866.730, 1813.314
867.212, 1771.188
867.694, 1732.217
868.176, 1697.752
868.658, 1663.247
869.141, 1625.933
869.623, 1590.864
870.105, 1562.452
870.587, 1536.876
871.069, 1508.830
871.551, 1477.740
872.033, 1447.292
872.515, 1419.895
872.997, 1392.745
873.480, 1363.531
873.962, 1333.936
874.444, 1304.553
874.926, 1276.683
875.408, 1253.153
875.890, 1235.734
876.372, 1219.993
876.854, 1201.559
877.336, 1181.768
877.819, 1160.685
878.301, 1140.160
878.783, 1127.797
879.265, 1125.101
879.747, 1123.763
880.229, 1116.890
880.711, 1105.299
881.193, 1089.266
881.675, 1069.400
882.158, 1053.918
882.640, 1043.886
883.122, 1038.064
883.604, 1036.726
884.086, 1036.436
884.568, 1031.887
885.050, 1023.054
885.532, 1009.127
886.015, 985.182
886.497, 971.478
886.979, 977.196
887.461, 987.241
887.943, 989.976
888.425, 986.854
888.907, 983.916
889.389, 981.002
889.872, 978.582
890.354, 979.810
890.836, 977.789
891.318, 964.079
891.800, 949.447
892.282, 948.287
892.764, 960.649
893.246, 969.864
893.729, 971.588
894.211, 970.762
894.693, 966.860
895.175, 962.891
895.657, 961.384
896.139, 961.763
896.621, 963.637
897.103, 967.377
897.585, 965.762
898.068, 950.035
898.550, 931.601
899.032, 919.878
899.514, 912.415
899.996, 904.620
900.478, 896.190
900.960, 890.301
901.442, 889.483
901.924, 889.405
902.407, 884.602
902.889, 877.222
903.371, 871.272
903.853, 866.727
904.335, 862.477
904.817, 858.060
905.299, 853.321
905.781, 848.108
906.263, 842.390
906.746, 835.838
907.228, 828.568
907.710, 822.133
908.192, 816.733
908.674, 809.844
909.156, 799.717
909.638, 789.487
910.120, 785.073
910.602, 786.282
911.085, 784.562
911.567, 779.618
912.049, 773.674
912.531, 767.495
913.013, 759.247
913.495, 745.106
913.977, 729.607
914.459, 729.211
914.942, 751.841
915.424, 766.067
915.906, 768.581
916.388, 768.763
916.870, 770.609
917.352, 771.068
917.834, 764.726
918.316, 752.068
918.799, 746.700
919.281, 757.230
919.763, 762.055
920.245, 755.914
920.727, 747.996
921.209, 743.775
921.691, 740.398
922.173, 731.910
922.656, 717.077
923.138, 707.578
923.620, 707.291
924.102, 710.555
924.584, 718.713
925.066, 726.811
925.548, 729.954
926.030, 729.674
926.512, 730.769
926.995, 734.776
927.477, 738.634
927.959, 744.108
928.441, 745.617
928.923, 734.002
929.405, 719.147
929.887, 716.436
930.369, 724.816
930.851, 729.114
931.334, 720.045
931.816, 711.356
932.298, 716.210
932.780, 725.477
933.262, 729.446
933.744, 728.760
934.226, 725.870
934.708, 721.821
935.190, 718.071
935.673, 715.333
936.155, 713.991
936.637, 717.013
937.119, 720.802
937.601, 716.761
938.083, 706.074
938.565, 695.943
939.047, 689.316
939.529, 686.765
940.012, 692.182
940.494, 699.478
940.976, 690.575
941.458, 670.881
941.940, 664.952
942.422, 674.951
942.904, 681.897
943.386, 674.929
943.869, 662.449
944.351, 656.214
944.833, 655.708
945.315, 660.313
945.797, 669.476
946.279, 670.159
946.761, 658.976
947.243, 649.814
947.726, 653.851
948.208, 663.685
948.690, 660.065
949.172, 642.606
949.654, 639.210
950.136, 652.574
950.618, 659.784
951.100, 652.619
951.583, 640.808
952.065, 632.283
952.547, 627.846
953.029, 632.470
953.511, 649.550
953.993, 655.647
954.475, 645.790
954.957, 638.699
955.439, 643.666
955.922, 650.800
956.404, 647.537
956.886, 635.384
957.368, 629.598
957.850, 632.495
958.332, 635.516
958.814, 639.538
959.296, 640.415
959.778, 635.259
960.261, 626.620
960.743, 616.738
961.225, 605.222
961.707, 603.692
962.189, 623.372
962.671, 631.297
963.153, 612.667
963.635, 595.646
964.117, 599.399
964.600, 613.666
965.082, 619.858
965.564, 616.594
966.046, 613.011
966.528, 606.026
967.010, 603.117
967.492, 595.243
967.974, 590.636
968.456, 595.829
968.939, 597.927
969.421, 597.099
969.903, 584.576
970.385, 587.154
970.867, 583.681
971.349, 579.959
971.831, 584.662
972.313, 573.840
972.796, 578.410
973.278, 576.836
973.760, 578.074
974.242, 573.223
974.724, 570.251
975.206, 573.372
975.688, 573.120
976.170, 560.796
976.653, 553.996
977.135, 550.792
977.617, 549.432
978.099, 550.113
978.581, 554.543
979.063, 556.513
979.545, 552.958
980.027, 548.530
980.510, 544.032
980.992, 540.897
981.474, 541.886
981.956, 545.862
982.438, 547.019
982.920, 542.603
983.402, 538.365
983.884, 535.853
984.366, 534.240
984.849, 534.544
985.331, 534.492
985.813, 530.999
986.295, 524.258
986.777, 517.046
987.259, 508.012
987.741, 503.052
988.223, 509.087
988.705, 515.017
989.188, 510.776
989.670, 503.255
990.152, 503.706
990.634, 512.084
991.116, 517.330
991.598, 515.195
992.080, 509.961
992.562, 499.990
993.044, 491.048
993.527, 487.514
994.009, 487.749
994.491, 490.072
994.973, 493.582
995.455, 494.647
995.937, 489.562
996.419, 485.511
996.901, 488.200
997.383, 490.898
997.866, 487.020
998.348, 480.088
998.830, 476.257
999.312, 476.323
999.794, 476.375
1000.276, 475.852
1000.758, 473.389
1001.240, 466.431
1001.723, 459.078
1002.205, 453.908
1002.687, 451.084
1003.169, 451.228
1003.651, 454.023
1004.133, 455.762
1004.615, 454.152
1005.097, 452.181
1005.580, 451.284
1006.062, 450.583
1006.544, 449.142
1007.026, 447.459
1007.508, 446.505
1007.990, 446.395
1008.472, 446.427
1008.954, 448.682
1009.436, 447.669
1009.919, 435.245
1010.401, 423.891
1010.883, 426.387
1011.365, 435.992
1011.847, 441.500
1012.329, 440.851
1012.811, 436.559
1013.293, 424.788
1013.776, 416.276
1014.258, 418.287
1014.740, 422.665
1015.222, 424.196
1015.704, 423.177
1016.186, 419.730
1016.668, 414.385
1017.150, 411.958
1017.632, 417.218
1018.115, 421.307
1018.597, 418.978
1019.079, 416.149
1019.561, 418.800
1020.043, 422.909
1020.525, 421.097
1021.007, 413.045
1021.489, 406.968
1021.971, 406.084
1022.454, 406.446
1022.936, 408.333
1023.418, 409.479
1023.900, 408.127
1024.382, 405.273
1024.864, 401.840
1025.346, 398.168
1025.828, 396.035
1026.311, 396.582
1026.793, 397.588
1027.275, 398.910
1027.757, 400.106
1028.239, 400.793
1028.721, 401.289
1029.203, 402.523
1029.685, 404.259
1030.167, 403.943
1030.650, 397.515
1031.132, 395.023
1031.614, 402.598
1032.096, 409.230
1032.578, 409.130
1033.060, 405.567
1033.542, 401.924
1034.024, 398.386
1034.507, 394.877
1034.989, 391.775
1035.471, 387.986
1035.953, 379.272
1036.435, 374.956
1036.917, 384.611
1037.399, 395.783
1037.881, 393.329
1038.364, 380.229
1038.846, 374.611
1039.328, 381.221
1039.810, 385.901
1040.292, 387.977
1040.774, 389.049
1041.256, 388.667
1041.738, 388.436
1042.220, 390.143
1042.703, 393.123
1043.185, 394.980
1043.667, 395.991
1044.149, 394.942
1044.631, 390.647
1045.113, 386.683
1045.595, 384.093
1046.077, 381.894
1046.559, 378.925
1047.042, 376.066
1047.524, 375.495
1048.006, 376.923
1048.488, 380.338
1048.970, 383.779
1049.452, 385.551
1049.934, 385.745
1050.416, 379.631
1050.899, 381.661
1051.381, 380.428
1051.863, 379.061
1052.345, 382.239
1052.827, 377.042
1053.309, 380.147
1053.791, 379.939
1054.273, 381.247
1054.755, 379.271
1055.238, 378.308
1055.720, 380.632
1056.202, 381.136
1056.684, 378.782
1057.166, 380.186
1057.648, 374.875
1058.130, 375.457
1058.612, 378.582
1059.094, 376.393
1059.577, 377.856
1060.059, 377.929
1060.541, 371.679
1061.023, 358.715
1061.505, 362.886
1061.987, 373.782
1062.469, 375.977
1062.951, 369.595
1063.434, 367.340
1063.916, 373.509
1064.398, 379.558
1064.880, 377.296
1065.362, 371.889
1065.844, 373.021
1066.326, 377.791
1066.808, 380.214
1067.291, 379.716
1067.773, 375.051
1068.255, 366.743
1068.737, 359.718
1069.219, 357.137
1069.701, 357.266
1070.183, 358.855
1070.665, 361.436
1071.147, 364.552
1071.630, 368.079
1072.112, 373.339
1072.594, 379.073
1073.076, 379.504
1073.558, 371.279
1074.040, 362.415
1074.522, 357.873
1075.004, 356.151
1075.486, 357.223
1075.969, 359.511
1076.451, 362.083
1076.933, 364.030
1077.415, 363.255
1077.897, 358.963
1078.379, 355.256
1078.861, 353.606
1079.343, 353.289
1079.825, 354.697
1080.308, 356.602
1080.790, 357.999
1081.272, 359.182
1081.754, 361.494
1082.236, 365.083
1082.718, 365.470
1083.200, 357.726
1083.682, 352.877
1084.165, 356.106
1084.647, 358.958
1085.129, 355.641
1085.611, 350.651
1086.093, 349.830
1086.575, 352.714
1087.057, 354.999
1087.539, 355.884
1088.021, 358.076
1088.504, 363.719
1088.986, 366.300
1089.468, 362.075
1089.950, 356.998
1090.432, 356.283
1090.914, 358.619
1091.396, 360.224
1091.878, 361.026
1092.360, 361.519
1092.843, 361.445
1093.325, 363.349
1093.807, 368.522
1094.289, 370.265
1094.771, 363.392
1095.253, 355.346
1095.735, 359.928
1096.217, 373.489
1096.700, 374.738
1097.182, 365.264
1097.664, 359.075
1098.146, 357.917
1098.628, 359.480
1099.110, 362.725
1099.592, 365.871
1100.074, 367.222
1100.557, 367.278
1101.039, 366.331
1101.521, 365.027
1102.003, 365.249
1102.485, 366.376
1102.967, 366.345
1103.449, 364.669
1103.931, 361.763
1104.413, 357.209
1104.896, 354.061
1105.378, 355.841
1105.860, 359.635
1106.342, 364.609
1106.824, 368.245
1107.306, 365.473
1107.788, 358.138
1108.270, 353.676
1108.752, 354.651
1109.235, 356.059
1109.717, 354.849
1110.199, 354.748
1110.681, 359.005
1111.163, 363.585
1111.645, 365.282
1112.127, 364.991
1112.609, 364.365
1113.092, 363.550
1113.574, 363.568
1114.056, 366.121
1114.538, 366.916
1115.020, 364.075
1115.502, 361.757
1115.984, 362.520
1116.466, 363.259
1116.948, 360.066
1117.431, 354.397
1117.913, 352.100
1118.395, 353.225
1118.877, 358.378
1119.359, 369.150
1119.841, 376.151
1120.323, 376.923
1120.805, 374.256
1121.287, 369.490
1121.770, 364.334
1122.252, 361.417
1122.734, 360.621
1123.216, 361.722
1123.698, 364.486
1124.180, 367.983
1124.662, 371.730
1125.144, 373.526
1125.627, 372.513
1126.109, 368.824
1126.591, 361.160
1127.073, 354.135
1127.555, 356.380
1128.037, 352.099
1128.519, 360.526
1129.001, 355.458
1129.484, 358.202
1129.966, 368.572
1130.448, 375.740
1130.930, 374.697
1131.412, 370.922
1131.894, 364.887
1132.376, 360.547
1132.858, 361.592
1133.340, 364.616
1133.823, 367.221
1134.305, 368.734
1134.787, 367.644
1135.269, 363.503
1135.751, 362.283
1136.233, 364.501
1136.715, 370.371
1137.197, 388.525
1137.679, 398.870
1138.162, 387.302
1138.644, 370.869
1139.126, 368.308
1139.608, 375.815
1140.090, 376.611
1140.572, 368.040
1141.054, 366.977
1141.536, 374.983
1142.019, 380.945
1142.501, 382.142
1142.983, 382.501
1143.465, 384.657
1143.947, 385.838
1144.429, 380.262
1144.911, 382.992
1145.393, 373.827
1145.875, 383.823
1146.358, 390.606
1146.840, 392.933
1147.322, 390.287
1147.804, 383.304
1148.286, 378.118
1148.768, 379.173
1149.250, 383.238
1149.732, 389.408
1150.214, 394.713
1150.697, 394.922
1151.179, 392.726
1151.661, 391.099
1152.143, 391.091
1152.625, 394.641
1153.107, 402.858
1153.589, 409.001
1154.071, 407.889
1154.554, 408.476
1155.036, 417.670
1155.518, 425.049
1156.000, 422.709
1156.482, 415.545
1156.964, 408.758
1157.446, 403.063
1157.928, 404.597
1158.411, 417.279
1158.893, 424.969
1159.375, 426.561
1159.857, 426.063
1160.339, 424.030
1160.821, 422.342
1161.303, 422.243
1161.785, 423.536
1162.267, 426.197
1162.750, 429.834
1163.232, 433.364
1163.714, 436.354
1164.196, 435.298
1164.678, 431.242
1165.160, 431.953
1165.642, 439.259
1166.124, 444.711
1166.606, 441.418
1167.089, 436.657
1167.571, 437.164
1168.053, 440.503
1168.535, 447.321
1169.017, 453.055
1169.499, 449.760
1169.981, 440.112
1170.463, 433.236
1170.946, 431.212
1171.428, 433.050
1171.910, 443.985
1172.392, 450.649
1172.874, 446.358
1173.356, 440.882
1173.838, 436.967
1174.320, 436.696
1174.802, 444.982
1175.285, 458.229
1175.767, 459.653
1176.249, 446.281
1176.731, 437.572
1177.213, 433.529
1177.695, 435.192
1178.177, 443.262
1178.659, 449.164
1179.141, 448.085
1179.624, 444.216
1180.106, 441.845
1180.588, 441.618
1181.070, 448.544
1181.552, 457.178
1182.034, 451.215
1182.516, 436.298
1182.998, 431.464
1183.481, 438.608
1183.963, 443.817
1184.445, 439.983
1184.927, 436.650
1185.409, 441.135
1185.891, 446.060
1186.373, 446.464
1186.855, 445.869
1187.338, 446.982
1187.820, 449.567
1188.302, 454.421
1188.784, 461.279
1189.266, 460.839
1189.748, 446.189
1190.230, 439.940
1190.712, 445.097
1191.194, 452.717
1191.677, 462.263
1192.159, 466.457
1192.641, 458.964
1193.123, 447.067
1193.605, 442.691
1194.087, 444.825
1194.569, 450.726
1195.051, 458.976
1195.533, 463.277
1196.016, 463.513
1196.498, 461.375
1196.980, 458.042
1197.462, 457.506
1197.944, 463.035
1198.426, 468.470
1198.908, 468.951
1199.390, 466.777
1199.873, 460.681
1200.355, 455.648
1200.837, 458.724
1201.319, 466.477
1201.801, 470.944
1202.283, 471.131
1202.765, 471.360
1203.247, 473.272
1203.729, 473.043
1204.212, 468.481
1204.694, 466.077
1205.176, 468.307
1205.658, 472.361
1206.140, 476.981
1206.622, 479.907
1207.104, 475.869
1207.586, 466.742
1208.068, 463.153
1208.551, 464.603
1209.033, 470.422
1209.515, 478.843
1209.997, 482.027
1210.479, 478.106
1210.961, 471.291
1211.443, 462.918
1211.925, 458.733
1212.408, 467.792
1212.890, 478.535
1213.372, 481.137
1213.854, 480.302
1214.336, 481.133
1214.818, 482.709
1215.300, 481.839
1215.782, 478.302
1216.265, 476.286
1216.747, 474.501
1217.229, 478.223
1217.711, 493.463
1218.193, 499.304
1218.675, 486.425
1219.157, 474.841
1219.639, 478.693
1220.121, 488.189
1220.604, 488.218
1221.086, 481.531
1221.568, 477.802
1222.050, 476.242
1222.532, 473.777
1223.014, 470.617
1223.496, 468.335
1223.978, 467.371
1224.460, 467.735
1224.943, 469.520
1225.425, 471.927
1225.907, 475.667
1226.389, 478.233
1226.871, 477.447
1227.353, 475.547
1227.835, 473.403
1228.317, 471.909
1228.800, 472.665
1229.282, 475.255
1229.764, 477.112
1230.246, 478.603
1230.728, 477.544
1231.210, 473.069
1231.692, 470.070
1232.174, 469.497
1232.656, 470.104
1233.139, 471.407
1233.621, 471.776
1234.103, 469.283
1234.585, 465.460
1235.067, 462.520
1235.549, 460.592
1236.031, 459.813
1236.513, 460.249
1236.995, 463.527
1237.478, 467.942
1237.960, 467.091
1238.442, 459.281
1238.924, 455.912
1239.406, 465.593
1239.888, 473.473
1240.370, 477.290
1240.852, 476.679
1241.335, 467.516
1241.817, 459.711
1242.299, 461.999
1242.781, 469.590
1243.263, 473.297
1243.745, 473.312
1244.227, 470.362
1244.709, 464.894
1245.192, 462.497
1245.674, 463.310
1246.156, 465.041
1246.638, 466.858
1247.120, 467.925
1247.602, 467.637
1248.084, 467.719
1248.566, 470.615
1249.048, 473.308
1249.531, 474.902
1250.013, 473.789
1250.495, 465.040
1250.977, 454.821
1251.459, 453.991
1251.941, 450.019
1252.423, 448.604
1252.905, 452.338
1253.387, 449.843
1253.870, 456.619
1254.352, 458.371
1254.834, 451.943
1255.316, 449.202
1255.798, 455.549
1256.280, 461.573
1256.762, 458.414
1257.244, 451.300
1257.727, 446.664
1258.209, 444.843
1258.691, 448.266
1259.173, 453.678
1259.655, 456.675
1260.137, 456.829
1260.619, 453.312
1261.101, 446.743
1261.583, 444.685
1262.066, 453.391
1262.548, 457.749
1263.030, 451.387
1263.512, 448.335
1263.994, 453.221
1264.476, 458.847
1264.958, 461.842
1265.440, 461.071
1265.922, 453.932
1266.405, 444.158
1266.887, 443.720
##END=



