##NAMES=Phosphosiderite
##RRUFFID=R050459
##IDEAL CHEMISTRY=Fe^3+^PO_4_&#183;2H_2_O
##LOCALITY=Bull Moose mine, Custer, South Dakota, USA
##OWNER=RRUFF
##SOURCE=University of Arizona Mineral Museum
##DESCRIPTION=Pale lavendar tabular crystals
##STATUS=The identification of this mineral is confirmed by single-crystal X-ray diffraction and chemical analysis.
##URL=rruff.info/R050459
##MEASURED CHEMISTRY=(Fe^3+^_0.99_Al_0.01_)_Σ=1_P_1.00_O_4_·2H_2_O
91.00781, 15.05521
91.48993, 15.59490
91.97205, 15.81117
92.45416, 15.38209
92.93628, 14.64354
93.41840, 14.32827
93.90051, 14.57293
94.38263, 15.24214
94.86475, 16.25159
95.34686, 17.59795
95.82898, 18.96603
96.31110, 19.90408
96.79321, 20.49272
97.27533, 21.57925
97.75745, 23.36841
98.23956, 25.77755
98.72168, 28.48821
99.20380, 31.51736
99.68591, 34.70887
100.1680, 37.73418
100.6501, 40.39121
101.1323, 43.74236
101.6144, 48.08900
102.0965, 53.46165
102.5786, 59.46689
103.0607, 66.25634
103.5428, 73.58787
104.0250, 81.17436
104.5071, 88.69799
104.9892, 96.90620
105.4713, 106.1191
105.9534, 116.9253
106.4355, 127.4148
106.9177, 137.6689
107.3998, 147.6083
107.8819, 157.3440
108.3640, 166.8448
108.8461, 176.0550
109.3282, 185.0695
109.8104, 193.8392
110.2925, 202.2695
110.7746, 209.6449
111.2567, 216.2131
111.7388, 224.2486
112.2209, 235.4897
112.7031, 247.3717
113.1852, 258.2515
113.6673, 265.5184
114.1494, 273.8401
114.6315, 284.7942
115.1136, 298.5905
115.5958, 312.7473
116.0779, 325.7469
116.5600, 338.9279
117.0421, 353.7250
117.5242, 371.5450
118.0063, 390.5941
118.4885, 409.9722
118.9706, 429.4288
119.4527, 450.1313
119.9348, 473.6903
120.4169, 498.8207
120.8990, 523.5587
121.3812, 546.9030
121.8633, 569.2608
122.3454, 590.9338
122.8275, 612.4686
123.3096, 632.4824
123.7917, 652.0833
124.2739, 669.9460
124.7560, 681.2070
125.2381, 682.0608
125.7202, 674.3104
126.2023, 660.6472
126.6844, 640.2314
127.1666, 615.9080
127.6487, 590.4794
128.1308, 563.9426
128.6129, 538.1895
129.0950, 514.1996
129.5771, 491.9406
130.0593, 471.1859
130.5414, 451.9188
131.0235, 434.2744
131.5056, 418.2369
131.9877, 402.5103
132.4698, 387.4854
132.9520, 375.9774
133.4341, 367.8358
133.9162, 361.3512
134.3983, 356.0389
134.8804, 351.9093
135.3625, 349.2307
135.8447, 348.1283
136.3268, 348.0625
136.8089, 348.2951
137.2910, 348.7828
137.7731, 349.7946
138.2552, 351.6802
138.7374, 354.6072
139.2195, 356.7517
139.7016, 357.7004
140.1837, 358.2769
140.6658, 360.1639
141.1479, 363.5566
141.6301, 367.7500
142.1122, 372.5526
142.5943, 378.2724
143.0764, 383.8331
143.5585, 389.4400
144.0406, 394.8797
144.5228, 399.4761
145.0049, 402.3663
145.4870, 405.4406
145.9691, 409.6953
146.4512, 415.7303
146.9333, 422.0762
147.4155, 428.9128
147.8976, 436.1994
148.3797, 442.8425
148.8618, 447.8532
149.3439, 453.0067
149.8260, 459.4254
150.3082, 468.0700
150.7903, 476.9627
151.2724, 486.0707
151.7545, 495.3499
152.2366, 504.8465
152.7188, 514.6339
153.2009, 524.6053
153.6830, 534.5636
154.1651, 544.6970
154.6472, 554.6415
155.1293, 563.8424
155.6115, 572.1451
156.0936, 581.3094
156.5757, 592.1873
157.0578, 603.9097
157.5399, 615.3819
158.0220, 627.3882
158.5042, 638.3143
158.9863, 647.5428
159.4684, 655.0719
159.9505, 661.0441
160.4326, 664.8730
160.9147, 667.2543
161.3969, 669.2121
161.8790, 670.9641
162.3611, 672.4984
162.8432, 673.7136
163.3253, 674.4130
163.8074, 675.3203
164.2896, 676.5710
164.7717, 678.2423
165.2538, 680.4985
165.7359, 683.4694
166.2180, 686.9922
166.7001, 690.8822
167.1823, 694.8602
167.6644, 699.6197
168.1465, 705.8657
168.6286, 713.2798
169.1107, 720.9804
169.5928, 728.1961
170.0750, 735.5511
170.5571, 743.8380
171.0392, 753.2605
171.5213, 763.4320
172.0034, 773.3553
172.4855, 783.4974
172.9677, 795.6010
173.4498, 812.8665
173.9319, 832.3978
174.4140, 849.9250
174.8961, 863.4037
175.3782, 875.5394
175.8604, 889.2164
176.3425, 904.4825
176.8246, 921.0832
177.3067, 941.0032
177.7888, 962.2619
178.2709, 980.3988
178.7531, 993.2928
179.2352, 1003.304
179.7173, 1012.939
180.1994, 1022.301
180.6815, 1033.315
181.1636, 1048.450
181.6458, 1066.748
182.1279, 1084.995
182.6100, 1103.750
183.0921, 1121.241
183.5742, 1133.704
184.0563, 1140.789
184.5385, 1145.714
185.0206, 1151.105
185.5027, 1156.858
185.9848, 1162.216
186.4669, 1166.757
186.9490, 1170.732
187.4312, 1175.292
187.9133, 1180.478
188.3954, 1185.396
188.8775, 1187.440
189.3596, 1187.156
189.8417, 1190.126
190.3239, 1199.803
190.8060, 1214.886
191.2881, 1227.959
191.7702, 1238.336
192.2523, 1248.861
192.7344, 1263.423
193.2166, 1281.973
193.6987, 1301.827
194.1808, 1320.985
194.6629, 1339.871
195.1450, 1364.965
195.6271, 1397.241
196.1093, 1433.224
196.5914, 1468.176
197.0735, 1502.006
197.5556, 1535.916
198.0377, 1571.720
198.5198, 1609.771
199.0020, 1642.336
199.4841, 1669.657
199.9662, 1691.117
200.4483, 1708.167
200.9304, 1722.173
201.4125, 1723.583
201.8947, 1708.073
202.3768, 1675.349
202.8589, 1629.299
203.3410, 1568.755
203.8231, 1496.244
204.3052, 1415.408
204.7874, 1323.906
205.2695, 1232.278
205.7516, 1144.333
206.2337, 1059.815
206.7158, 980.3813
207.1979, 905.4474
207.6801, 835.8723
208.1622, 774.9479
208.6443, 723.2041
209.1264, 677.1843
209.6085, 635.3782
210.0906, 597.6252
210.5728, 564.7611
211.0549, 537.5323
211.5370, 514.8734
212.0191, 495.3929
212.5012, 479.4420
212.9833, 465.4041
213.4655, 452.7314
213.9476, 441.3478
214.4297, 431.4188
214.9118, 423.2990
215.3939, 416.4725
215.8760, 409.2110
216.3581, 400.8192
216.8403, 393.5430
217.3224, 388.7990
217.8045, 387.4811
218.2866, 385.8243
218.7687, 383.7132
219.2508, 381.2311
219.7330, 378.5472
220.2151, 375.3009
220.6972, 372.5032
221.1793, 370.8496
221.6614, 371.0343
222.1435, 370.4100
222.6257, 368.7557
223.1078, 366.3155
223.5899, 363.5040
224.0720, 359.4703
224.5541, 356.4327
225.0362, 355.7745
225.5184, 359.3459
226.0005, 360.5887
226.4826, 358.2970
226.9647, 353.9119
227.4468, 351.4965
227.9289, 352.1089
228.4111, 353.1108
228.8932, 353.2224
229.3753, 351.7771
229.8574, 351.0837
230.3395, 351.5198
230.8216, 352.6536
231.3038, 353.1551
231.7859, 352.0898
232.2680, 351.7609
232.7501, 353.2932
233.2322, 357.4510
233.7143, 361.6959
234.1965, 365.7943
234.6786, 370.0411
235.1607, 375.4073
235.6428, 382.5783
236.1249, 389.8593
236.6070, 396.2937
237.0892, 400.5999
237.5713, 406.9307
238.0534, 415.8320
238.5355, 426.6085
239.0176, 437.4709
239.4997, 448.4517
239.9819, 459.6960
240.4640, 471.3075
240.9461, 483.9709
241.4282, 495.4137
241.9103, 504.6660
242.3924, 513.0059
242.8746, 523.6989
243.3567, 538.3358
243.8388, 552.9133
244.3209, 565.7183
244.8030, 575.5771
245.2851, 586.4059
245.7673, 597.9855
246.2494, 610.6306
246.7315, 625.2534
247.2136, 643.1627
247.6957, 660.9616
248.1778, 676.8492
248.6600, 688.7734
249.1421, 704.9152
249.6242, 726.9830
250.1063, 752.4490
250.5884, 776.1407
251.0705, 796.0264
251.5527, 817.7391
252.0348, 843.9034
252.5169, 877.0502
252.9990, 906.2077
253.4811, 930.8483
253.9632, 952.1491
254.4454, 972.1663
254.9275, 992.5086
255.4096, 1008.802
255.8917, 1019.805
256.3738, 1025.485
256.8560, 1025.645
257.3381, 1020.219
257.8202, 1009.374
258.3023, 992.8789
258.7844, 970.0337
259.2665, 943.3973
259.7487, 912.5454
260.2308, 876.6126
260.7129, 843.3699
261.1950, 812.7406
261.6771, 784.9781
262.1592, 760.7015
262.6414, 740.6260
263.1235, 722.6986
263.6056, 706.1744
264.0877, 690.7250
264.5698, 679.6535
265.0519, 673.3958
265.5341, 670.9164
266.0162, 671.2765
266.4983, 674.9008
266.9804, 680.0504
267.4625, 686.2487
267.9446, 693.4545
268.4268, 703.1936
268.9089, 716.2355
269.3910, 730.1071
269.8731, 742.3326
270.3552, 752.4789
270.8373, 762.3541
271.3195, 772.2534
271.8016, 782.1955
272.2837, 792.7874
272.7658, 804.1783
273.2479, 816.1852
273.7300, 829.2192
274.2122, 843.5654
274.6943, 856.7081
275.1764, 867.2785
275.6585, 876.1873
276.1406, 888.6230
276.6227, 905.3309
277.1049, 923.1271
277.5870, 938.9564
278.0691, 952.4784
278.5512, 968.1455
279.0333, 987.0668
279.5154, 1008.416
279.9976, 1029.342
280.4797, 1049.737
280.9618, 1070.552
281.4439, 1093.608
281.9260, 1118.838
282.4081, 1142.375
282.8903, 1163.672
283.3724, 1183.053
283.8545, 1201.015
284.3366, 1217.479
284.8187, 1233.405
285.3008, 1250.839
285.7830, 1269.345
286.2651, 1281.883
286.7472, 1287.696
287.2293, 1287.803
287.7114, 1284.622
288.1935, 1278.125
288.6757, 1265.379
289.1578, 1242.864
289.6399, 1211.974
290.1220, 1180.512
290.6041, 1148.484
291.0862, 1116.781
291.5684, 1086.198
292.0505, 1056.709
292.5326, 1029.421
293.0147, 1003.148
293.4968, 979.3240
293.9789, 961.9467
294.4611, 951.6341
294.9432, 945.6022
295.4253, 940.6431
295.9074, 937.2067
296.3895, 937.2604
296.8716, 942.7900
297.3538, 952.1057
297.8359, 962.2684
298.3180, 973.4070
298.8001, 984.4948
299.2822, 993.3533
299.7643, 1001.431
300.2465, 1012.411
300.7286, 1028.762
301.2107, 1047.878
301.6928, 1066.834
302.1749, 1085.483
302.6570, 1104.144
303.1392, 1122.609
303.6213, 1141.205
304.1034, 1160.211
304.5855, 1180.869
305.0676, 1200.875
305.5497, 1218.348
306.0319, 1233.396
306.5140, 1247.492
306.9961, 1262.254
307.4782, 1276.134
307.9603, 1287.699
308.4424, 1297.139
308.9246, 1302.934
309.4067, 1302.186
309.8888, 1296.518
310.3709, 1290.532
310.8530, 1288.831
311.3351, 1286.745
311.8173, 1279.944
312.2994, 1266.693
312.7815, 1251.715
313.2636, 1237.333
313.7457, 1223.358
314.2278, 1209.335
314.7100, 1196.128
315.1921, 1182.223
315.6742, 1165.873
316.1563, 1146.302
316.6384, 1128.527
317.1205, 1116.365
317.6027, 1107.078
318.0848, 1097.273
318.5669, 1084.202
319.0490, 1071.913
319.5311, 1061.747
320.0132, 1053.776
320.4954, 1047.940
320.9775, 1045.006
321.4596, 1043.851
321.9417, 1043.581
322.4238, 1043.488
322.9059, 1044.798
323.3881, 1048.198
323.8702, 1053.524
324.3523, 1059.098
324.8344, 1065.192
325.3165, 1071.136
325.7986, 1076.596
326.2808, 1081.395
326.7629, 1085.906
327.2450, 1090.382
327.7271, 1094.653
328.2092, 1098.048
328.6913, 1100.170
329.1735, 1101.765
329.6556, 1103.336
330.1377, 1106.367
330.6198, 1106.513
331.1019, 1103.028
331.5840, 1096.869
332.0662, 1089.871
332.5483, 1083.124
333.0304, 1073.789
333.5125, 1060.500
333.9946, 1042.033
334.4767, 1025.351
334.9589, 1011.192
335.4410, 998.2910
335.9231, 985.1031
336.4052, 971.5516
336.8873, 958.1881
337.3694, 945.0155
337.8516, 932.1528
338.3336, 920.8641
338.8158, 911.5363
339.2979, 902.9543
339.7800, 893.4744
340.2621, 882.7791
340.7442, 874.0955
341.2263, 868.5156
341.7085, 865.2018
342.1906, 861.5615
342.6727, 857.4075
343.1548, 853.9108
343.6369, 852.6252
344.1190, 853.3195
344.6012, 851.9966
345.0833, 848.0544
345.5654, 842.2492
346.0475, 835.8078
346.5296, 828.7409
347.0117, 820.7424
347.4939, 810.9639
347.9760, 800.1581
348.4581, 790.9505
348.9402, 783.7772
349.4223, 776.5231
349.9044, 766.3740
350.3866, 753.9282
350.8687, 741.1357
351.3508, 727.7839
351.8329, 714.8929
352.3150, 704.3508
352.7971, 696.0631
353.2793, 688.2733
353.7614, 678.8119
354.2435, 668.9155
354.7256, 660.5756
355.2077, 654.8787
355.6898, 650.3151
356.1720, 645.2972
356.6541, 640.1251
357.1362, 636.0881
357.6183, 634.6166
358.1004, 634.1896
358.5826, 633.4271
359.0647, 631.9115
359.5468, 630.4517
360.0289, 628.8373
360.5110, 627.6196
360.9931, 627.8519
361.4753, 631.0457
361.9574, 634.9105
362.4395, 637.8909
362.9216, 639.4489
363.4037, 642.7294
363.8858, 650.8904
364.3680, 660.3820
364.8501, 667.4957
365.3322, 667.4854
365.8143, 669.0079
366.2964, 675.0348
366.7785, 685.5138
367.2607, 694.7589
367.7428, 701.1281
368.2249, 706.9246
368.7070, 713.5700
369.1891, 721.9993
369.6712, 729.9252
370.1534, 736.0767
370.6355, 741.6596
371.1176, 750.6954
371.5997, 766.0787
372.0818, 781.1724
372.5639, 793.2466
373.0461, 801.2181
373.5282, 809.8273
374.0103, 819.3292
374.4924, 829.3726
374.9745, 839.4559
375.4566, 849.8848
375.9388, 859.5578
376.4209, 867.7482
376.9030, 874.7049
377.3851, 882.4772
377.8672, 891.1056
378.3493, 900.7606
378.8315, 912.6733
379.3136, 927.0602
379.7957, 937.7629
380.2778, 942.7526
380.7599, 944.4307
381.2420, 949.3006
381.7242, 957.2789
382.2063, 964.3475
382.6884, 966.9869
383.1705, 966.3950
383.6526, 966.9175
384.1347, 969.2819
384.6169, 971.4054
385.0990, 970.0883
385.5811, 966.1678
386.0632, 962.4344
386.5453, 961.4587
387.0274, 960.8326
387.5096, 956.9805
387.9917, 949.9147
388.4738, 942.1736
388.9559, 935.2287
389.4380, 929.1182
389.9201, 923.9318
390.4023, 920.6688
390.8844, 917.3168
391.3665, 912.4281
391.8486, 906.2722
392.3307, 899.9905
392.8128, 894.5633
393.2950, 888.9008
393.7771, 882.0145
394.2592, 873.1807
394.7413, 864.6749
395.2234, 857.9157
395.7055, 851.8454
396.1877, 844.8343
396.6698, 836.7271
397.1519, 827.4286
397.6340, 817.0085
398.1161, 805.5486
398.5982, 792.2855
399.0804, 776.0033
399.5625, 758.6227
400.0446, 741.5121
400.5267, 724.5434
401.0088, 708.0477
401.4909, 692.7088
401.9731, 677.9988
402.4552, 661.7573
402.9373, 642.5563
403.4194, 624.1512
403.9015, 608.5546
404.3836, 596.5493
404.8658, 584.0947
405.3479, 570.9689
405.8300, 557.8456
406.3121, 545.2273
406.7942, 532.9034
407.2763, 522.5959
407.7585, 515.5759
408.2406, 511.0802
408.7227, 504.7862
409.2048, 496.5064
409.6869, 488.1823
410.1690, 480.8891
410.6512, 474.8957
411.1333, 471.5052
411.6154, 471.6396
412.0975, 473.2435
412.5796, 473.5956
413.0617, 472.7621
413.5439, 471.1033
414.0260, 467.2582
414.5081, 463.2974
414.9902, 462.6676
415.4723, 465.8521
415.9544, 469.7005
416.4366, 471.8749
416.9187, 473.0062
417.4008, 474.0329
417.8829, 474.4087
418.3650, 475.5644
418.8471, 478.6364
419.3293, 483.3706
419.8114, 488.4195
420.2935, 493.6595
420.7756, 498.7091
421.2577, 502.9563
421.7398, 505.0907
422.2220, 508.9356
422.7041, 516.3327
423.1862, 525.8493
423.6683, 534.9114
424.1504, 542.0255
424.6325, 549.9932
425.1147, 559.7117
425.5968, 571.5466
426.0789, 582.9414
426.5610, 593.6825
427.0431, 604.1859
427.5252, 614.5491
428.0074, 624.2763
428.4895, 634.9757
428.9716, 646.6095
429.4537, 659.2418
429.9358, 672.9269
430.4179, 687.5717
430.9001, 703.4037
431.3822, 720.8284
431.8643, 739.8771
432.3464, 757.9413
432.8285, 774.6198
433.3106, 791.5990
433.7928, 811.4747
434.2749, 833.9064
434.7570, 855.9656
435.2391, 876.3190
435.7212, 896.0921
436.2033, 918.0425
436.6855, 941.7635
437.1676, 965.0454
437.6497, 985.3738
438.1318, 1004.477
438.6139, 1024.814
439.0960, 1046.658
439.5782, 1070.217
440.0603, 1096.777
440.5424, 1125.195
441.0245, 1152.905
441.5066, 1179.071
441.9887, 1204.309
442.4709, 1229.165
442.9530, 1253.610
443.4351, 1276.779
443.9172, 1297.603
444.3993, 1317.285
444.8814, 1336.427
445.3636, 1356.259
445.8457, 1374.252
446.3278, 1389.632
446.8099, 1402.842
447.2920, 1415.426
447.7741, 1428.477
448.2563, 1439.882
448.7384, 1449.299
449.2205, 1457.159
449.7026, 1460.597
450.1847, 1458.880
450.6668, 1453.689
451.1490, 1446.585
451.6311, 1437.773
452.1132, 1426.055
452.5953, 1410.681
453.0774, 1392.667
453.5595, 1373.490
454.0417, 1352.936
454.5238, 1332.474
455.0059, 1313.768
455.4880, 1296.090
455.9701, 1273.909
456.4522, 1246.652
456.9344, 1218.277
457.4165, 1192.849
457.8986, 1169.598
458.3807, 1147.105
458.8628, 1124.180
459.3449, 1102.326
459.8271, 1083.002
460.3092, 1066.046
460.7913, 1050.363
461.2734, 1034.992
461.7555, 1020.869
462.2376, 1008.651
462.7198, 998.6336
463.2019, 990.1416
463.6840, 984.0638
464.1661, 979.0248
464.6482, 973.3599
465.1303, 962.9089
465.6125, 955.6492
466.0946, 955.3358
466.5767, 961.1337
467.0588, 965.1750
467.5409, 964.1451
468.0230, 963.6686
468.5052, 966.2867
468.9873, 973.1448
469.4694, 980.2612
469.9515, 987.4126
470.4336, 994.9958
470.9157, 1003.995
471.3979, 1015.025
471.8800, 1025.028
472.3621, 1032.259
472.8442, 1037.910
473.3263, 1048.952
473.8084, 1066.050
474.2906, 1083.374
474.7727, 1096.087
475.2548, 1105.188
475.7369, 1115.468
476.2190, 1127.479
476.7011, 1140.533
477.1833, 1154.627
477.6654, 1169.307
478.1475, 1183.342
478.6296, 1196.350
479.1117, 1208.379
479.5938, 1219.333
480.0760, 1229.320
480.5581, 1238.670
481.0402, 1248.218
481.5223, 1256.953
482.0044, 1264.169
482.4865, 1269.777
482.9687, 1273.573
483.4508, 1275.221
483.9329, 1275.083
484.4150, 1273.666
484.8971, 1271.994
485.3792, 1268.068
485.8614, 1260.830
486.3435, 1250.495
486.8256, 1239.916
487.3077, 1230.939
487.7898, 1219.709
488.2719, 1203.599
488.7541, 1181.227
489.2362, 1159.550
489.7183, 1138.994
490.2004, 1118.589
490.6825, 1096.670
491.1646, 1073.120
491.6468, 1048.164
492.1289, 1020.996
492.6110, 992.7954
493.0931, 965.3846
493.5752, 938.6481
494.0573, 912.4803
494.5395, 886.2715
495.0216, 860.4813
495.5037, 835.0529
495.9858, 810.2717
496.4679, 786.9186
496.9500, 767.0333
497.4322, 749.1312
497.9143, 731.1088
498.3964, 711.9009
498.8785, 692.5148
499.3606, 673.2261
499.8427, 654.0580
500.3249, 636.4318
500.8070, 621.3055
501.2891, 607.2365
501.7712, 593.5894
502.2533, 580.1512
502.7354, 567.6489
503.2176, 556.5175
503.6997, 546.2238
504.1818, 536.2722
504.6639, 526.7762
505.1460, 517.3740
505.6281, 507.9370
506.1103, 498.5229
506.5924, 489.8395
507.0745, 482.1043
507.5566, 474.3150
508.0387, 465.3377
508.5208, 455.3409
509.0030, 448.0293
509.4851, 443.6552
509.9672, 440.5585
510.4493, 437.3131
510.9314, 433.9363
511.4135, 430.4343
511.8957, 426.7641
512.3778, 423.1407
512.8599, 419.9770
513.3420, 417.1113
513.8242, 414.0716
514.3063, 410.5273
514.7884, 406.7279
515.2705, 402.4218
515.7526, 397.6001
516.2347, 394.1233
516.7169, 393.6380
517.1990, 394.2565
517.6811, 394.5446
518.1632, 393.8217
518.6453, 393.3506
519.1274, 393.6937
519.6096, 394.2749
520.0917, 393.8921
520.5738, 391.1799
521.0559, 389.8060
521.5380, 391.2024
522.0201, 395.1467
522.5023, 397.5884
522.9844, 398.1403
523.4665, 398.3133
523.9486, 399.1669
524.4307, 400.6758
524.9128, 402.1326
525.3950, 403.3530
525.8771, 404.9218
526.3592, 407.8619
526.8413, 411.8491
527.3234, 415.8343
527.8055, 419.4472
528.2877, 422.7903
528.7698, 425.9135
529.2519, 428.8470
529.7340, 431.8492
530.2161, 434.6741
530.6982, 437.8780
531.1804, 442.2101
531.6625, 447.9412
532.1446, 453.2013
532.6267, 456.5287
533.1088, 459.4915
533.5909, 463.4816
534.0731, 470.6489
534.5552, 476.4227
535.0373, 479.4276
535.5194, 480.9839
536.0015, 484.8659
536.4836, 492.5322
536.9658, 499.4626
537.4479, 503.7452
537.9300, 505.5108
538.4121, 508.1986
538.8942, 511.9212
539.3763, 516.0170
539.8585, 520.1947
540.3406, 524.3451
540.8227, 527.7590
541.3048, 530.2703
541.7869, 532.4182
542.2690, 534.8679
542.7512, 537.4944
543.2333, 539.9944
543.7154, 542.6920
544.1975, 544.8381
544.6796, 545.9973
545.1617, 546.1429
545.6439, 545.0890
546.1260, 541.7656
546.6081, 537.9808
547.0902, 534.7196
547.5723, 532.1677
548.0544, 529.9711
548.5366, 528.6853
549.0187, 527.3702
549.5008, 525.2166
549.9829, 522.0620
550.4650, 518.3826
550.9471, 514.2685
551.4293, 509.6368
551.9114, 504.0218
552.3935, 497.2204
552.8756, 490.3798
553.3577, 483.5794
553.8398, 477.0943
554.3220, 472.8034
554.8041, 470.7754
555.2862, 468.3819
555.7683, 462.9931
556.2504, 455.8530
556.7325, 449.1770
557.2147, 443.1800
557.6968, 438.0912
558.1789, 434.5001
558.6610, 431.8284
559.1431, 429.2587
559.6252, 427.7371
560.1074, 424.9971
560.5895, 418.7330
561.0716, 410.2543
561.5537, 404.0668
562.0358, 403.5550
562.5179, 402.9955
563.0001, 400.3139
563.4822, 395.3239
563.9643, 390.3666
564.4464, 385.2800
564.9285, 380.4509
565.4106, 376.1097
565.8928, 372.2602
566.3749, 368.8021
566.8570, 365.6955
567.3391, 362.9721
567.8212, 360.8985
568.3033, 359.3458
568.7855, 357.5397
569.2676, 355.3701
569.7497, 352.6254
570.2318, 348.3750
570.7139, 343.0714
571.1960, 338.3420
571.6782, 335.8587
572.1603, 333.9230
572.6424, 331.2993
573.1245, 327.8437
573.6066, 323.8875
574.0887, 318.8148
574.5709, 313.7013
575.0530, 309.3380
575.5351, 306.1298
576.0172, 303.2133
576.4993, 300.9687
576.9814, 298.8046
577.4636, 295.6465
577.9457, 290.8807
578.4278, 286.8147
578.9099, 284.3217
579.3920, 282.8997
579.8741, 280.5161
580.3563, 277.1051
580.8384, 273.7475
581.3205, 271.2164
581.8026, 269.2084
582.2847, 266.8946
582.7668, 264.2303
583.2490, 261.7260
583.7311, 260.1387
584.2132, 258.8511
584.6953, 256.9308
585.1774, 253.7899
585.6595, 250.9172
586.1416, 249.2748
586.6237, 248.3529
587.1058, 247.3486
587.5880, 246.1688
588.0701, 244.7907
588.5522, 243.2012
589.0343, 241.4096
589.5164, 239.3789
589.9985, 236.8387
590.4807, 234.5064
590.9628, 232.6651
591.4449, 231.3196
591.9270, 230.2107
592.4091, 229.3871
592.8912, 228.5824
593.3734, 227.7772
593.8555, 226.8360
594.3376, 224.9376
594.8197, 221.7468
595.3018, 218.5524
595.7839, 217.0031
596.2661, 216.4608
596.7482, 215.6922
597.2303, 213.7877
597.7124, 211.9724
598.1945, 211.4797
598.6766, 211.7141
599.1588, 210.9334
599.6409, 206.9729
600.1230, 203.4757
600.6051, 202.1819
601.0872, 203.2829
601.5693, 203.6549
602.0515, 203.2642
602.5336, 202.1832
603.0157, 200.1886
603.4978, 196.9807
603.9799, 194.7385
604.4620, 193.6754
604.9442, 193.0881
605.4263, 192.1816
605.9084, 190.9795
606.3905, 189.6709
606.8726, 188.1871
607.3547, 186.7970
607.8369, 186.0160
608.3190, 185.5955
608.8011, 184.8785
609.2832, 183.0131
609.7653, 181.2205
610.2474, 180.4540
610.7296, 180.5712
611.2117, 180.4005
611.6938, 179.2684
612.1759, 178.0602
612.6580, 177.2917
613.1401, 177.1712
613.6223, 176.5606
614.1044, 175.3816
614.5865, 173.8355
615.0686, 171.8789
615.5507, 169.3681
616.0328, 167.9079
616.5150, 167.9182
616.9971, 168.4172
617.4792, 167.9380
617.9613, 166.6448
618.4434, 165.2661
618.9255, 163.9465
619.4077, 162.7904
619.8898, 162.0047
620.3719, 161.4928
620.8540, 160.9329
621.3361, 160.2197
621.8182, 159.3757
622.3004, 158.3119
622.7825, 157.0384
623.2646, 155.9876
623.7467, 155.4577
624.2288, 155.0008
624.7109, 154.3605
625.1931, 153.3923
625.6752, 152.7684
626.1573, 152.6516
626.6394, 152.5957
627.1215, 151.9400
627.6036, 150.6645
628.0858, 150.2207
628.5679, 151.0726
629.0500, 152.2116
629.5321, 151.8555
630.0142, 150.4665
630.4963, 149.5494
630.9785, 150.2800
631.4606, 151.1510
631.9427, 150.6907
632.4248, 149.2577
632.9069, 147.9893
633.3890, 147.2312
633.8712, 146.8734
634.3533, 147.1452
634.8354, 148.1329
635.3175, 148.2676
635.7996, 146.9019
636.2817, 145.3627
636.7639, 144.2371
637.2460, 143.4613
637.7281, 143.6233
638.2102, 144.9833
638.6923, 146.5347
639.1744, 147.2629
639.6566, 147.2153
640.1387, 146.5835
640.6208, 145.2335
641.1029, 143.8714
641.5850, 143.2403
642.0671, 143.2184
642.5493, 143.5479
643.0314, 144.4113
643.5135, 145.3199
643.9956, 146.1798
644.4777, 146.9055
644.9598, 147.2429
645.4420, 146.5622
645.9241, 146.0981
646.4062, 146.4949
646.8883, 147.6764
647.3704, 147.6700
647.8525, 145.8895
648.3347, 144.2092
648.8168, 143.8584
649.2989, 144.7868
649.7810, 145.7275
650.2631, 146.7322
650.7452, 147.2459
651.2274, 146.1001
651.7095, 144.1656
652.1916, 143.3665
652.6737, 144.3182
653.1558, 145.4529
653.6379, 145.5742
654.1201, 145.2090
654.6022, 145.0545
655.0843, 145.3922
655.5664, 145.8715
656.0485, 146.7563
656.5306, 147.6843
657.0128, 147.8204
657.4949, 146.6697
657.9770, 145.6631
658.4591, 145.1822
658.9412, 145.1128
659.4233, 144.8652
659.9055, 144.3932
660.3876, 144.2662
660.8697, 145.1637
661.3518, 146.5676
661.8339, 147.1088
662.3160, 146.8265
662.7982, 146.4266
663.2803, 146.4045
663.7624, 146.5124
664.2445, 146.5836
664.7266, 146.6440
665.2087, 146.3684
665.6909, 145.0404
666.1730, 143.6913
666.6551, 143.2255
667.1372, 144.3212
667.6193, 145.1192
668.1014, 145.4635
668.5836, 145.6516
669.0657, 146.2298
669.5478, 147.2750
670.0299, 147.6983
670.5120, 147.1583
670.9941, 146.1015
671.4763, 145.1722
671.9584, 144.3809
672.4405, 143.7516
672.9226, 143.4403
673.4047, 143.1700
673.8868, 142.4974
674.3690, 141.6205
674.8511, 141.2192
675.3332, 141.7876
675.8153, 142.6739
676.2974, 143.9554
676.7795, 145.6566
677.2617, 146.0147
677.7438, 144.1862
678.2259, 142.2997
678.7080, 141.5002
679.1901, 141.8602
679.6722, 142.1064
680.1544, 142.2507
680.6365, 142.2332
681.1186, 141.7681
681.6007, 141.1155
682.0828, 141.0302
682.5649, 141.7112
683.0471, 142.4192
683.5292, 142.4877
684.0113, 142.2430
684.4934, 142.0882
684.9755, 142.3972
685.4576, 142.3896
685.9398, 141.5903
686.4219, 140.4353
686.9040, 139.6176
687.3861, 139.1075
687.8682, 139.0246
688.3503, 139.4988
688.8325, 140.3318
689.3146, 141.1155
689.7967, 141.8539
690.2788, 142.2328
690.7609, 142.0023
691.2430, 141.4205
691.7252, 140.7985
692.2073, 140.1879
692.6894, 139.8483
693.1715, 139.9636
693.6536, 140.3725
694.1357, 141.2130
694.6179, 142.4374
695.1000, 143.0667
695.5821, 142.4707
696.0642, 141.5546
696.5463, 140.6702
697.0284, 139.7775
697.5106, 139.1869
697.9927, 138.9245
698.4748, 138.9067
698.9569, 139.2108
699.4390, 139.7711
699.9211, 139.9314
700.4033, 139.5976
700.8854, 139.2640
701.3675, 139.6227
701.8496, 140.2560
702.3317, 140.4385
702.8138, 139.7836
703.2960, 139.2399
703.7781, 139.5996
704.2602, 140.2163
704.7423, 140.2985
705.2244, 138.9572
705.7065, 138.0499
706.1887, 137.7376
706.6708, 137.9034
707.1529, 138.4165
707.6350, 139.3528
708.1171, 140.1868
708.5992, 140.8291
709.0814, 141.2316
709.5635, 141.2090
710.0456, 140.8321
710.5277, 140.4411
711.0098, 139.9644
711.4919, 139.7376
711.9741, 140.5782
712.4562, 142.0616
712.9383, 142.5202
713.4204, 139.8040
713.9025, 137.4023
714.3846, 137.0699
714.8668, 138.6891
715.3489, 139.9264
715.8310, 140.7338
716.3131, 141.2757
716.7952, 141.6338
717.2773, 141.8041
717.7595, 141.7745
718.2416, 141.5454
718.7237, 141.0912
719.2058, 140.1611
719.6879, 139.0765
720.1700, 138.3569
720.6522, 138.0536
721.1343, 138.0043
721.6164, 138.0142
722.0985, 138.2973
722.5806, 139.1636
723.0627, 141.3595
723.5449, 142.4166
724.0270, 141.4300
724.5091, 140.0511
724.9912, 140.0200
725.4733, 141.7461
725.9554, 142.2167
726.4376, 140.8710
726.9197, 139.1329
727.4018, 139.0884
727.8839, 140.2775
728.3660, 141.2670
728.8481, 141.6842
729.3303, 141.8258
729.8124, 141.9449
730.2945, 141.9552
730.7766, 141.7235
731.2587, 140.6617
731.7408, 139.9915
732.2230, 140.2180
732.7051, 140.9556
733.1872, 141.5116
733.6693, 141.7871
734.1514, 142.1897
734.6335, 142.9541
735.1157, 143.7754
735.5978, 143.7076
736.0799, 142.8587
736.5620, 142.1293
737.0441, 141.8171
737.5262, 141.9385
738.0084, 142.8945
738.4905, 144.3709
738.9726, 145.2968
739.4547, 144.5488
739.9368, 143.7851
740.4189, 143.9172
740.9011, 144.8821
741.3832, 145.1313
741.8653, 144.0760
742.3474, 143.4045
742.8295, 144.1474
743.3116, 145.9955
743.7938, 146.1734
744.2759, 144.6320
744.7580, 143.0130
745.2401, 142.3634
745.7222, 142.4118
746.2043, 142.9880
746.6865, 144.0376
747.1686, 144.7643
747.6507, 144.3903
748.1328, 143.8127
748.6149, 143.6075
749.0970, 143.8941
749.5792, 144.3556
750.0613, 145.2916
750.5434, 146.0057
751.0255, 146.0006
751.5076, 145.2147
751.9897, 144.3001
752.4719, 143.1655
752.9540, 142.4279
753.4361, 143.1126
753.9182, 144.4927
754.4003, 145.0008
754.8824, 144.3252
755.3646, 143.5846
755.8467, 143.4629
756.3288, 143.6563
756.8109, 143.8931
757.2930, 144.1411
757.7751, 144.4375
758.2573, 145.1149
758.7394, 145.5374
759.2215, 144.8416
759.7036, 142.7215
760.1857, 141.8196
760.6678, 142.6560
761.1500, 143.7856
761.6321, 143.1076
762.1142, 141.2939
762.5963, 140.0202
763.0784, 139.8393
763.5605, 139.8719
764.0427, 139.4067
764.5248, 138.8253
765.0069, 138.6063
765.4890, 139.3602
765.9711, 139.8147
766.4532, 139.8429
766.9354, 139.5676
767.4175, 139.1117
767.8996, 138.4294
768.3817, 137.8603
768.8638, 137.4745
769.3459, 137.1947
769.8281, 137.0710
770.3102, 136.9702
770.7923, 136.4468
771.2744, 134.9776
771.7565, 133.6243
772.2386, 133.3049
772.7208, 133.5506
773.2029, 133.5451
773.6850, 132.9216
774.1671, 132.2386
774.6492, 131.4487
775.1313, 130.7055
775.6135, 130.4527
776.0956, 130.8039
776.5777, 130.8239
777.0598, 130.2066
777.5419, 129.2103
778.0240, 128.1423
778.5062, 127.0612
778.9883, 126.1470
779.4704, 125.4743
779.9525, 125.0129
780.4346, 124.8227
780.9167, 124.8324
781.3989, 124.8594
781.8810, 125.2314
782.3631, 125.1397
782.8452, 124.2443
783.3273, 122.8610
783.8094, 121.8612
784.2916, 121.2499
784.7737, 121.0047
785.2558, 121.3147
785.7379, 121.7665
786.2200, 121.3981
786.7021, 120.4701
787.1843, 119.8794
787.6664, 120.7075
788.1485, 121.3514
788.6306, 120.5146
789.1127, 118.6774
789.5948, 117.7449
790.0770, 118.7063
790.5591, 119.3841
791.0412, 119.2513
791.5233, 118.4750
792.0054, 117.4618
792.4875, 116.2050
792.9697, 115.3797
793.4518, 115.5357
793.9339, 116.0854
794.4160, 116.0478
794.8981, 115.5950
795.3802, 115.3018
795.8624, 115.6284
796.3445, 115.9917
796.8266, 116.1342
797.3087, 116.0758
797.7908, 115.9988
798.2729, 116.0497
798.7551, 115.7745
799.2372, 114.8160
799.7193, 113.5268
800.2014, 113.4322
800.6835, 114.4308
801.1656, 115.0827
801.6478, 114.3973
802.1299, 113.1728
802.6120, 112.1476
803.0941, 111.3464
803.5762, 110.8335
804.0583, 110.9723
804.5405, 111.0654
805.0226, 110.6498
805.5047, 109.9373
805.9868, 109.8198
806.4689, 110.4592
806.9510, 111.2134
807.4332, 111.9593
807.9153, 112.6029
808.3974, 112.9226
808.8795, 112.9018
809.3616, 112.4416
809.8438, 111.0051
810.3259, 109.5280
810.8080, 108.8099
811.2901, 108.6954
811.7722, 108.6327
812.2543, 108.1610
812.7365, 108.1358
813.2186, 109.0578
813.7007, 110.5351
814.1828, 111.0429
814.6649, 110.4641
815.1470, 109.8597
815.6292, 109.6522
816.1113, 109.6243
816.5934, 109.2900
817.0755, 108.7722
817.5576, 108.4849
818.0397, 108.9814
818.5219, 109.4039
819.0040, 109.1127
819.4861, 108.3778
819.9682, 108.1291
820.4503, 108.8414
820.9324, 109.2721
821.4146, 109.0363
821.8967, 108.4507
822.3788, 108.3919
822.8609, 108.8231
823.3430, 109.1583
823.8251, 109.1400
824.3073, 108.9779
824.7894, 108.8536
825.2715, 108.7850
825.7536, 108.8045
826.2357, 109.1295
826.7178, 109.3097
827.2000, 109.0026
827.6821, 108.5199
828.1642, 108.4982
828.6463, 109.1250
829.1284, 109.5105
829.6105, 109.3829
830.0927, 109.0895
830.5748, 109.2914
831.0569, 109.8744
831.5390, 110.4886
832.0211, 111.2702
832.5032, 111.6257
832.9854, 110.5638
833.4675, 108.9672
833.9496, 108.1990
834.4317, 109.4064
834.9138, 110.2712
835.3959, 110.5774
835.8781, 110.5428
836.3602, 110.3629
836.8423, 110.0420
837.3244, 110.1908
837.8065, 111.0505
838.2886, 111.9819
838.7708, 112.2737
839.2529, 112.1140
839.7350, 111.8018
840.2171, 111.3688
840.6992, 110.8910
841.1813, 110.0761
841.6635, 109.4163
842.1456, 109.4995
842.6277, 110.7419
843.1098, 111.3603
843.5919, 111.0832
844.0740, 110.6520
844.5562, 111.1128
845.0383, 112.1406
845.5204, 112.7830
846.0025, 112.8854
846.4846, 112.6563
846.9667, 111.5886
847.4489, 110.6494
847.9310, 110.9389
848.4131, 113.4944
848.8952, 114.7887
849.3773, 114.2180
849.8594, 113.1245
850.3416, 112.3165
850.8237, 111.8040
851.3058, 112.3087
851.7879, 113.9421
852.2700, 115.3219
852.7521, 114.8895
853.2343, 113.8049
853.7164, 113.5471
854.1985, 114.3038
854.6806, 114.7855
855.1627, 114.1818
855.6448, 113.5491
856.1270, 113.4274
856.6091, 113.8255
857.0912, 114.2154
857.5733, 114.5921
858.0554, 114.9639
858.5375, 115.3233
859.0197, 115.6837
859.5018, 116.3132
859.9839, 117.0807
860.4660, 117.2111
860.9481, 115.4029
861.4302, 113.6499
861.9124, 113.1651
862.3945, 113.8879
862.8766, 114.2922
863.3587, 114.1690
863.8408, 114.2158
864.3229, 114.7580
864.8051, 115.5807
865.2872, 116.0406
865.7693, 116.1749
866.2514, 116.1750
866.7335, 116.0618
867.2156, 115.9229
867.6978, 115.7900
868.1799, 115.6861
868.6620, 115.6629
869.1441, 115.5714
869.6262, 115.8068
870.1083, 116.5717
870.5905, 117.5819
871.0726, 118.1790
871.5547, 118.3874
872.0368, 118.9206
872.5189, 120.0512
873.0010, 121.2992
873.4832, 122.4935
873.9653, 123.3297
874.4474, 123.2278
874.9295, 121.0949
875.4116, 119.6465
875.8937, 119.8673
876.3759, 120.8226
876.8580, 121.7057
877.3401, 122.4767
877.8222, 123.4849
878.3043, 124.8513
878.7864, 126.0323
879.2686, 126.1320
879.7507, 125.7481
880.2328, 126.0747
880.7149, 127.3593
881.1970, 128.5515
881.6791, 129.2298
882.1613, 129.5510
882.6434, 129.5424
883.1255, 129.1388
883.6076, 128.9941
884.0897, 129.1006
884.5718, 129.4962
885.0540, 130.4240
885.5361, 131.6488
886.0182, 132.3557
886.5003, 132.5906
886.9824, 132.7159
887.4645, 132.6509
887.9467, 132.8104
888.4288, 133.6187
888.9109, 134.9959
889.3930, 136.0113
889.8751, 136.3624
890.3572, 136.9820
890.8394, 138.4131
891.3215, 140.1105
891.8036, 140.1828
892.2857, 138.9509
892.7678, 138.1635
893.2499, 138.8430
893.7321, 139.9525
894.2142, 140.7964
894.6963, 141.5155
895.1784, 142.3660
895.6605, 143.5944
896.1426, 144.7045
896.6248, 145.7571
897.1069, 146.5700
897.5890, 146.5847
898.0711, 145.9438
898.5532, 146.1438
899.0353, 147.5797
899.5175, 149.2899
899.9996, 150.4567
900.4817, 151.3528
900.9638, 152.3186
901.4459, 153.5666
901.9280, 154.4731
902.4102, 154.9323
902.8923, 155.1159
903.3744, 154.8716
903.8565, 154.1678
904.3386, 154.9733
904.8207, 157.3321
905.3029, 159.6780
905.7850, 160.6966
906.2671, 161.0711
906.7492, 161.4477
907.2313, 161.8769
907.7134, 162.3941
908.1956, 162.8589
908.6777, 163.6157
909.1598, 164.9447
909.6419, 166.6509
910.1240, 167.7400
910.6061, 168.2037
911.0883, 168.4277
911.5704, 168.2270
912.0525, 168.2886
912.5346, 170.0036
913.0167, 172.6166
913.4988, 174.4885
913.9810, 174.1826
914.4631, 174.1684
914.9452, 175.0529
915.4273, 176.4112
915.9094, 177.7304
916.3915, 179.0155
916.8737, 179.9599
917.3558, 180.4211
917.8379, 180.9871
918.3200, 182.4343
918.8021, 184.3736
919.2842, 186.3051
919.7664, 188.1682
920.2485, 189.7697
920.7306, 191.3065
921.2127, 192.2899
921.6948, 192.0122
922.1769, 190.2522
922.6591, 190.9286
923.1412, 194.2560
923.6233, 197.9337
924.1054, 200.6913
924.5875, 202.6519
925.0696, 203.7696
925.5518, 204.1983
926.0339, 204.7155
926.5160, 205.4670
926.9981, 206.5468
927.4802, 207.9656
927.9623, 209.7032
928.4445, 211.9247
928.9266, 214.7216
929.4087, 216.9130
929.8908, 218.0184
930.3729, 218.6805
930.8550, 219.4064
931.3372, 220.4145
931.8193, 222.1003
932.3014, 224.9313
932.7835, 227.8960
933.2656, 231.0323
933.7477, 234.0254
934.2299, 236.6995
934.7120, 239.0787
935.1941, 240.4798
935.6762, 240.7026
936.1583, 241.3672
936.6404, 244.6949
937.1226, 248.9825
937.6047, 251.6246
938.0868, 252.3937
938.5689, 254.0086
939.0510, 257.7974
939.5331, 262.1742
940.0153, 266.9044
940.4974, 271.7614
940.9795, 275.0200
941.4616, 276.6739
941.9437, 278.5828
942.4258, 281.5026
942.9080, 285.1913
943.3901, 289.7930
943.8722, 294.8542
944.3543, 299.4019
944.8364, 301.8568
945.3185, 305.5354
945.8007, 311.2736
946.2828, 317.9929
946.7649, 324.4327
947.2470, 330.6006
947.7291, 336.5820
948.2112, 342.3298
948.6934, 348.3019
949.1755, 355.2964
949.6576, 362.6077
950.1397, 369.2696
950.6218, 374.7977
951.1039, 382.0901
951.5861, 392.9323
952.0682, 403.4326
952.5503, 411.1074
953.0324, 416.6693
953.5145, 425.3127
953.9966, 436.8249
954.4788, 448.9001
954.9609, 460.4617
955.4430, 471.9629
955.9251, 482.9896
956.4072, 494.2595
956.8893, 507.8466
957.3715, 525.6370
957.8536, 542.6296
958.3357, 557.4685
958.8178, 572.0546
959.2999, 589.2534
959.7820, 608.8445
960.2642, 629.4808
960.7463, 651.1884
961.2284, 673.3308
961.7105, 694.8497
962.1926, 717.2336
962.6747, 741.8862
963.1569, 768.9638
963.6390, 798.9066
964.1211, 832.0106
964.6032, 867.8235
965.0853, 904.7576
965.5674, 943.9037
966.0496, 988.1202
966.5317, 1036.711
967.0138, 1088.358
967.4959, 1139.462
967.9780, 1196.111
968.4601, 1261.573
968.9423, 1334.235
969.4244, 1407.328
969.9065, 1480.131
970.3886, 1559.299
970.8707, 1647.347
971.3528, 1740.218
971.8350, 1832.439
972.3171, 1926.844
972.7992, 2031.984
973.2813, 2152.722
973.7634, 2273.026
974.2455, 2382.141
974.7277, 2493.663
975.2098, 2614.900
975.6919, 2745.956
976.1740, 2878.256
976.6561, 3011.710
977.1382, 3147.709
977.6204, 3289.393
978.1025, 3434.182
978.5846, 3581.456
979.0667, 3729.308
979.5488, 3875.631
980.0309, 4021.672
980.5131, 4159.282
980.9952, 4289.207
981.4773, 4407.989
981.9594, 4511.736
982.4415, 4599.524
982.9236, 4668.129
983.4058, 4716.462
983.8879, 4741.114
984.3700, 4733.626
984.8521, 4704.447
985.3342, 4662.576
985.8163, 4608.256
986.2985, 4540.870
986.7806, 4456.274
987.2627, 4367.981
987.7448, 4280.077
988.2269, 4194.246
988.7090, 4115.644
989.1912, 4043.810
989.6733, 3976.648
990.1554, 3911.573
990.6375, 3852.240
991.1196, 3802.182
991.6017, 3759.712
992.0839, 3723.973
992.5660, 3698.143
993.0481, 3663.461
993.5302, 3615.785
994.0123, 3566.340
994.4944, 3527.453
994.9766, 3495.171
995.4587, 3462.300
995.9408, 3427.676
996.4229, 3401.362
996.9050, 3385.450
997.3871, 3380.596
997.8693, 3387.545
998.3514, 3405.760
998.8335, 3430.427
999.3156, 3461.750
999.7977, 3506.507
1000.280, 3569.343
1000.762, 3643.843
1001.244, 3725.917
1001.726, 3815.127
1002.208, 3911.339
1002.690, 4016.842
1003.173, 4125.855
1003.655, 4237.891
1004.137, 4352.568
1004.619, 4471.178
1005.101, 4591.777
1005.583, 4704.569
1006.065, 4809.727
1006.547, 4895.450
1007.029, 4962.151
1007.512, 5001.666
1007.994, 5009.293
1008.476, 4985.780
1008.958, 4926.370
1009.440, 4829.738
1009.922, 4703.456
1010.404, 4545.948
1010.886, 4368.998
1011.369, 4183.037
1011.851, 3989.095
1012.333, 3787.053
1012.815, 3567.394
1013.297, 3356.801
1013.779, 3156.318
1014.261, 2967.440
1014.743, 2791.193
1015.225, 2626.407
1015.708, 2478.193
1016.190, 2346.344
1016.672, 2227.340
1017.154, 2122.779
1017.636, 2028.242
1018.118, 1939.949
1018.600, 1859.903
1019.082, 1792.770
1019.565, 1741.317
1020.047, 1695.550
1020.529, 1653.349
1021.011, 1617.406
1021.493, 1592.054
1021.975, 1574.960
1022.457, 1561.060
1022.939, 1549.279
1023.421, 1542.745
1023.904, 1544.570
1024.386, 1550.577
1024.868, 1557.848
1025.350, 1566.893
1025.832, 1583.414
1026.314, 1607.352
1026.796, 1632.755
1027.278, 1655.328
1027.760, 1680.349
1028.243, 1715.577
1028.725, 1756.226
1029.207, 1794.200
1029.689, 1831.395
1030.171, 1859.852
1030.653, 1878.973
1031.135, 1890.821
1031.617, 1899.404
1032.100, 1902.003
1032.582, 1891.582
1033.064, 1867.638
1033.546, 1830.854
1034.028, 1774.640
1034.510, 1712.286
1034.992, 1650.876
1035.474, 1587.909
1035.957, 1516.719
1036.439, 1435.733
1036.921, 1359.203
1037.403, 1290.246
1037.885, 1225.534
1038.367, 1162.042
1038.849, 1100.583
1039.331, 1043.702
1039.813, 990.6952
1040.296, 944.1746
1040.778, 905.5626
1041.260, 870.3587
1041.742, 837.0031
1042.224, 805.1469
1042.706, 774.1444
1043.188, 744.6603
1043.670, 717.5786
1044.152, 694.8520
1044.635, 673.3287
1045.117, 651.5928
1045.599, 630.7272
1046.081, 612.4283
1046.563, 596.8101
1047.045, 581.0338
1047.527, 564.8011
1048.009, 549.4704
1048.492, 536.9238
1048.974, 525.6851
1049.456, 514.1360
1049.938, 502.2390
1050.420, 491.4692
1050.902, 482.2546
1051.384, 473.0797
1051.866, 463.3565
1052.349, 453.7902
1052.831, 446.0762
1053.313, 439.6052
1053.795, 432.5084
1054.277, 424.0623
1054.759, 416.3765
1055.241, 410.9692
1055.723, 406.2227
1056.205, 401.1680
1056.688, 395.8030
1057.170, 389.9885
1057.652, 383.7018
1058.134, 377.7589
1058.616, 372.6721
1059.098, 367.9441
1059.580, 363.0483
1060.062, 358.1971
1060.544, 353.8005
1061.027, 349.8990
1061.509, 346.5986
1061.991, 344.2556
1062.473, 341.5522
1062.955, 336.3002
1063.437, 330.0434
1063.919, 326.4822
1064.401, 325.5372
1064.884, 324.4578
1065.366, 322.4101
1065.848, 319.5236
1066.330, 315.4396
1066.812, 310.9526
1067.294, 308.2738
1067.776, 307.1590
1068.258, 304.5229
1068.740, 299.4709
1069.223, 294.4157
1069.705, 291.2134
1070.187, 288.8530
1070.669, 286.3940
1071.151, 283.7336
1071.633, 282.0038
1072.115, 281.5120
1072.597, 280.3083
1073.079, 277.1404
1073.562, 273.3126
1074.044, 270.7599
1074.526, 269.0005
1075.008, 267.0416
1075.490, 263.8111
1075.972, 262.0017
1076.454, 262.6432
1076.936, 263.3140
1077.419, 261.6734
1077.901, 258.3760
1078.383, 256.7563
1078.865, 256.5587
1079.347, 255.8360
1079.829, 252.8470
1080.311, 249.8165
1080.793, 247.6746
1081.275, 246.1584
1081.758, 244.9984
1082.240, 244.2090
1082.722, 243.2282
1083.204, 241.9429
1083.686, 240.8567
1084.168, 240.9858
1084.650, 241.0697
1085.132, 239.8170
1085.615, 237.1714
1086.097, 234.4748
1086.579, 231.4064
1087.061, 229.5526
1087.543, 229.7482
1088.025, 230.6068
1088.507, 229.9286
1088.989, 228.3185
1089.471, 226.8127
1089.953, 225.6137
1090.436, 224.6366
1090.918, 223.7670
1091.400, 223.2534
1091.882, 223.4787
1092.364, 224.1188
1092.846, 223.4687
1093.328, 221.7982
1093.810, 220.3819
1094.293, 220.0445
1094.775, 219.7559
1095.257, 218.7004
1095.739, 217.6717
1096.221, 217.6241
1096.703, 218.7270
1097.185, 219.2209
1097.667, 219.0561
1098.150, 219.0086
1098.632, 219.7769
1099.114, 220.8012
1099.596, 222.0522
1100.078, 223.1546
1100.560, 222.8527
1101.042, 220.3692
1101.524, 218.8242
1102.006, 218.7875
1102.489, 219.1503
1102.971, 218.3855
1103.453, 217.3028
1103.935, 217.3081
1104.417, 218.4933
1104.899, 219.4601
1105.381, 219.6241
1105.863, 219.9463
1106.345, 220.8076
1106.828, 221.8156
1107.310, 222.0809
1107.792, 221.7752
1108.274, 221.3667
1108.756, 220.9214
1109.238, 220.5738
1109.720, 220.3918
1110.202, 220.3188
1110.685, 220.1482
1111.167, 220.0187
1111.649, 221.5386
1112.131, 224.4435
1112.613, 226.0800
1113.095, 224.7559
1113.577, 222.7362
1114.059, 220.9681
1114.542, 219.7959
1115.024, 219.8212
1115.506, 221.5430
1115.988, 221.7501
1116.470, 220.3448
1116.952, 218.4046
1117.434, 216.3936
1117.916, 214.4381
1118.398, 212.5259
1118.880, 210.7943
1119.363, 209.6561
1119.845, 209.8783
1120.327, 209.0315
1120.809, 206.7901
1121.291, 204.0366
1121.773, 201.3504
1122.255, 198.9049
1122.737, 197.2729
1123.220, 196.3019
1123.702, 194.8627
1124.184, 191.8730
1124.666, 189.4213
1125.148, 188.1196
1125.630, 187.1588
1126.112, 185.0390
1126.594, 182.1973
1127.077, 180.0053
1127.559, 178.6645
1128.041, 177.5266
1128.523, 177.0512
1129.005, 175.7206
1129.487, 172.3041
1129.969, 167.8969
1130.451, 166.2233
1130.933, 166.8904
1131.416, 166.8211
1131.898, 164.9679
1132.380, 163.2104
1132.862, 162.9173
1133.344, 163.1562
1133.826, 163.3818
1134.308, 163.5389
1134.790, 162.4938
1135.272, 160.1966
1135.755, 158.6301
1136.237, 159.0903
1136.719, 159.6867
1137.201, 158.4177
1137.683, 156.3542
1138.165, 154.8484
1138.647, 154.0364
1139.129, 153.6808
1139.612, 153.8489
1140.094, 154.0424
1140.576, 154.1884
1141.058, 153.9868
1141.540, 152.5867
1142.022, 150.6262
1142.504, 149.4608
1142.986, 149.5454
1143.469, 150.2016
1143.951, 151.6678
1144.433, 152.9442
1144.915, 153.1919
1145.397, 152.6568
1145.879, 151.4982
1146.361, 149.9185
1146.843, 148.6670
1147.325, 148.1267
1147.807, 147.7618
1148.290, 147.6039
1148.772, 147.4176
1149.254, 146.7322
1149.736, 145.8269
1150.218, 145.4913
1150.700, 145.7320
1151.182, 145.9217
1151.664, 145.8699
1152.147, 145.5856
1152.629, 144.9439
1153.111, 144.2302
1153.593, 143.9817
1154.075, 144.1354
1154.557, 144.5278
1155.039, 145.1568
1155.521, 145.5618
1156.004, 145.3006
1156.486, 144.9475
1156.968, 144.7304
1157.450, 144.6550
1157.932, 144.9899
1158.414, 145.5848
1158.896, 145.1770
1159.378, 143.2192
1159.860, 141.4227
1160.343, 141.0710
1160.825, 141.1799
1161.307, 141.0163
1161.789, 140.6404
1162.271, 140.7473
1162.753, 141.3009
1163.235, 141.4180
1163.717, 140.6065
1164.199, 139.7049
1164.682, 139.4321
1165.164, 139.3932
1165.646, 139.2444
1166.128, 138.9811
1166.610, 138.3220
1167.092, 137.2409
1167.574, 136.6250
1168.056, 137.2573
1168.539, 138.0345
1169.021, 137.7240
1169.503, 137.0504
1169.985, 137.1813
1170.467, 138.5929
1170.949, 138.6981
1171.431, 137.3636
1171.913, 135.9412
1172.396, 135.1505
1172.878, 134.8540
1173.360, 135.2132
1173.842, 135.8770
1174.324, 136.1132
1174.806, 135.5113
1175.288, 135.5412
1175.770, 136.3482
1176.252, 137.1761
1176.734, 137.5109
1177.217, 137.4646
1177.699, 137.0257
1178.181, 136.3163
1178.663, 135.6908
1179.145, 135.2547
1179.627, 134.7138
1180.109, 133.9814
1180.591, 133.4125
1181.074, 133.4380
1181.556, 133.7911
1182.038, 134.4716
1182.520, 135.2254
1183.002, 134.8294
1183.484, 132.0148
1183.966, 130.5049
1184.448, 130.9746
1184.931, 132.1614
1185.413, 133.1500
1185.895, 133.6343
1186.377, 132.7673
1186.859, 130.7131
1187.341, 129.1969
1187.823, 128.3711
1188.305, 128.5851
1188.787, 130.3202
1189.270, 132.1282
1189.752, 131.7063
1190.234, 130.0994
1190.716, 129.1638
1191.198, 129.0658
1191.680, 128.5361
1192.162, 126.5542
1192.644, 125.6476
1193.126, 126.7611
1193.609, 128.5437
1194.091, 128.8371
1194.573, 128.2018
1195.055, 127.5083
1195.537, 126.8661
1196.019, 126.7102
1196.501, 127.6097
1196.983, 128.1150
1197.466, 127.6964
1197.948, 126.8163
1198.430, 126.0581
1198.912, 125.5479
1199.394, 125.7204
1199.876, 126.8084
1200.358, 127.2909
1200.840, 126.5590
1201.323, 125.7186
1201.805, 125.0648
1202.287, 124.6799
1202.769, 124.9937
1203.251, 125.6558
1203.733, 125.8459
1204.215, 125.2222
1204.697, 124.9258
1205.179, 125.3477
1205.661, 125.7358
1206.144, 125.7293
1206.626, 125.5173
1207.108, 125.6208
1207.590, 125.8314
1208.072, 125.6119
1208.554, 124.5548
1209.036, 123.9993
1209.518, 124.2465
1210.001, 124.7848
1210.483, 125.5753
1210.965, 126.2809
1211.447, 125.8346
1211.929, 124.6976
1212.411, 123.9069
1212.893, 124.0243
1213.375, 123.7518
1213.858, 122.7590
1214.340, 121.7652
1214.822, 121.0125
1215.304, 120.6564
1215.786, 121.6042
1216.268, 123.1521
1216.750, 123.6347
1217.232, 121.8302
1217.714, 120.4691
1218.197, 119.6367
1218.679, 119.5564
1219.161, 120.8381
1219.643, 122.6300
1220.125, 123.0331
1220.607, 122.5098
1221.089, 122.1471
1221.571, 122.5545
1222.053, 122.5429
1222.536, 121.9054
1223.018, 121.2436
1223.500, 120.8981
1223.982, 120.8377
1224.464, 121.1632
1224.946, 121.7094
1225.428, 122.1037
1225.910, 122.4821
1226.393, 122.1394
1226.875, 120.8175
1227.357, 119.5567
1227.839, 119.0772
1228.321, 119.1755
1228.803, 119.7898
1229.285, 120.6608
1229.767, 121.1922
1230.250, 121.2050
1230.732, 120.8627
1231.214, 120.0519
1231.696, 119.3262
1232.178, 119.3493
1232.660, 119.5435
1233.142, 118.9497
1233.624, 117.9233
1234.106, 117.3244
1234.589, 117.3791
1235.071, 117.6646
1235.553, 118.2672
1236.035, 118.5792
1236.517, 117.5181
1236.999, 116.4120
1237.481, 117.1921
1237.963, 119.0340
1238.445, 120.0414
1238.928, 120.0072
1239.410, 119.3307
1239.892, 117.9269
1240.374, 116.6913
1240.856, 116.2902
1241.338, 116.3790
1241.820, 116.9911
1242.302, 117.7547
1242.785, 117.8701
1243.267, 117.1317
1243.749, 116.8726
1244.231, 117.1754
1244.713, 117.2021
1245.195, 115.6333
1245.677, 114.2773
1246.159, 114.9024
1246.641, 116.5368
1247.124, 117.3810
1247.606, 117.3830
1248.088, 117.0688
1248.570, 116.4708
1249.052, 116.0331
1249.534, 116.1907
1250.016, 116.4444
1250.498, 116.5305
1250.980, 116.5081
1251.463, 116.4643
1251.945, 116.3974
1252.427, 116.2528
1252.909, 116.0258
1253.391, 115.6762
1253.873, 114.6869
1254.355, 114.1854
1254.837, 115.2730
1255.320, 116.5705
1255.802, 116.2607
1256.284, 114.6989
1256.766, 114.1532
1257.248, 114.6221
1257.730, 115.3686
1258.212, 116.6516
1258.694, 117.2419
1259.177, 116.5668
1259.659, 115.5271
1260.141, 114.9583
1260.623, 114.8099
1261.105, 115.1508
1261.587, 115.8134
1262.069, 116.0449
1262.551, 114.7597
1263.033, 114.2619
1263.516, 115.1595
1263.998, 116.1764
1264.480, 116.1398
1264.962, 115.2826
1265.444, 113.5871
1265.926, 111.4595
1266.408, 110.2727
1266.890, 110.7830
1267.372, 111.6441
1267.855, 112.9446
1268.337, 114.0510
1268.819, 114.3000
1269.301, 114.1201
1269.783, 114.0368
1270.265, 114.0234
1270.747, 113.9561
1271.229, 113.7947
1271.712, 113.6902
1272.194, 113.6607
1272.676, 113.5917
1273.158, 113.0454
1273.640, 112.7394
1274.122, 113.9310
1274.604, 115.6240
1275.086, 115.8139
1275.568, 114.1810
1276.051, 112.9009
1276.533, 112.0248
1277.015, 111.6218
1277.497, 112.5337
1277.979, 113.0246
1278.461, 111.1369
1278.943, 108.8054
1279.425, 108.5747
1279.907, 110.3976
1280.390, 111.6221
1280.872, 112.2174
1281.354, 112.3046
1281.836, 111.4495
1282.318, 110.7562
1282.800, 110.7869
1283.282, 110.9445
1283.764, 110.5922
1284.247, 109.9176
1284.729, 110.0519
1285.211, 110.7571
1285.693, 111.1271
1286.175, 110.2670
1286.657, 109.8856
1287.139, 110.3975
1287.621, 110.9253
1288.104, 110.6676
1288.586, 110.0270
1289.068, 109.8488
1289.550, 109.9780
1290.032, 110.0553
1290.514, 109.9862
1290.996, 109.8241
1291.478, 109.5187
1291.960, 109.3389
1292.443, 109.6017
1292.925, 109.9269
1293.407, 109.8133
1293.889, 109.4523
1294.371, 109.2317
1294.853, 109.3425
1295.335, 108.4116
1295.817, 106.3935
1296.299, 104.9094
1296.782, 104.9151
1297.264, 105.5481
1297.746, 106.5896
1298.228, 107.6031
1298.710, 108.2531
1299.192, 108.5282
1299.674, 108.1045
1300.156, 107.0598
1300.639, 105.7836
1301.121, 104.0505
1301.603, 102.9826
1302.085, 103.8382
1302.567, 104.7978
1303.049, 105.0456
1303.531, 104.5607
##END=



