##NAMES=Phosphuranylite
##RRUFFID=R050470
##IDEAL CHEMISTRY=KCa(H_3_O)_3_(U^6+^O_2_)_7_(PO_4_)_4_O_4_&#183;8H_2_O
##LOCALITY=La Faye mine, Grury District, Burgundy Region, France
##OWNER=RRUFF
##SOURCE=University of Arizona Mineral Museum
##DESCRIPTION=Yellow thin flattened bladed crystals
##STATUS=The identification of this mineral is confirmed by single-crystal X-ray diffraction and chemical analysis.
##URL=rruff.info/R050470
##MEASURED CHEMISTRY=(Ca_0.70_Pb_0.30_)_Σ=1_(U_1.00_O_2_)_7_(P_1.00_O_4_)_4_(OH)_4_·15.72H_2_O
91.00781, 39.22004
91.48993, 38.19708
91.97205, 37.78925
92.45416, 38.08589
92.93628, 38.98878
93.41840, 40.29017
93.90051, 41.94890
94.38263, 43.99223
94.86475, 46.48499
95.34686, 49.42704
95.82898, 52.81533
96.31110, 56.62465
96.79321, 60.86380
97.27533, 65.48328
97.75745, 70.24783
98.23956, 75.34978
98.72168, 81.46297
99.20380, 88.54710
99.68591, 96.57009
100.1680, 105.5699
100.6501, 115.5177
101.1323, 126.1546
101.6144, 136.9028
102.0965, 147.5282
102.5786, 161.2817
103.0607, 179.1668
103.5428, 199.3925
104.0250, 219.4234
104.5071, 238.6324
104.9892, 258.4110
105.4713, 279.1452
105.9534, 301.0918
106.4355, 323.3988
106.9177, 346.9691
107.3998, 370.9343
107.8819, 393.3939
108.3640, 414.1073
108.8461, 433.2524
109.3282, 451.1408
109.8104, 464.3745
110.2925, 479.8271
110.7746, 498.0110
111.2567, 518.6821
111.7388, 540.7471
112.2209, 564.1481
112.7031, 588.6307
113.1852, 614.2998
113.6673, 640.5519
114.1494, 668.3488
114.6315, 698.4513
115.1136, 731.1948
115.5958, 764.2425
116.0779, 797.5662
116.5600, 830.6305
117.0421, 862.6969
117.5242, 893.7331
118.0063, 923.8989
118.4885, 953.7601
118.9706, 983.4755
119.4527, 1012.209
119.9348, 1039.578
120.4169, 1065.533
120.8990, 1090.413
121.3812, 1113.892
121.8633, 1136.427
122.3454, 1158.172
122.8275, 1179.328
123.3096, 1199.686
123.7917, 1218.734
124.2739, 1236.715
124.7560, 1254.518
125.2381, 1272.167
125.7202, 1290.177
126.2023, 1309.018
126.6844, 1328.575
127.1666, 1349.515
127.6487, 1373.416
128.1308, 1400.243
128.6129, 1427.452
129.0950, 1452.794
129.5771, 1476.933
130.0593, 1502.434
130.5414, 1530.295
131.0235, 1559.671
131.5056, 1586.855
131.9877, 1605.770
132.4698, 1616.480
132.9520, 1626.884
133.4341, 1637.061
133.9162, 1648.107
134.3983, 1660.990
134.8804, 1675.289
135.3625, 1687.944
135.8447, 1698.994
136.3268, 1708.703
136.8089, 1717.437
137.2910, 1725.192
137.7731, 1732.430
138.2552, 1739.414
138.7374, 1746.123
139.2195, 1752.320
139.7016, 1757.801
140.1837, 1762.975
140.6658, 1768.740
141.1479, 1775.506
141.6301, 1781.881
142.1122, 1787.082
142.5943, 1790.416
143.0764, 1794.460
143.5585, 1799.741
144.0406, 1805.702
144.5228, 1810.623
145.0049, 1814.159
145.4870, 1817.047
145.9691, 1819.686
146.4512, 1822.532
146.9333, 1824.477
147.4155, 1825.058
147.8976, 1824.498
148.3797, 1824.696
148.8618, 1826.512
149.3439, 1828.495
149.8260, 1829.712
150.3082, 1830.170
150.7903, 1829.851
151.2724, 1828.084
151.7545, 1824.787
152.2366, 1822.944
152.7188, 1823.615
153.2009, 1825.223
153.6830, 1826.493
154.1651, 1827.827
154.6472, 1828.244
155.1293, 1827.432
155.6115, 1825.323
156.0936, 1822.503
156.5757, 1818.493
157.0578, 1814.035
157.5399, 1809.998
158.0220, 1806.432
158.5042, 1803.495
158.9863, 1801.550
159.4684, 1800.904
159.9505, 1799.978
160.4326, 1797.644
160.9147, 1794.892
161.3969, 1793.180
161.8790, 1793.703
162.3611, 1794.910
162.8432, 1796.195
163.3253, 1797.745
163.8074, 1798.447
164.2896, 1797.085
164.7717, 1794.468
165.2538, 1792.229
165.7359, 1790.706
166.2180, 1789.995
166.7001, 1790.335
167.1823, 1792.178
167.6644, 1794.047
168.1465, 1795.011
168.6286, 1795.243
169.1107, 1795.258
169.5928, 1795.122
170.0750, 1795.007
170.5571, 1795.209
171.0392, 1796.217
171.5213, 1796.896
172.0034, 1795.871
172.4855, 1793.517
172.9677, 1791.483
173.4498, 1790.964
173.9319, 1791.381
174.4140, 1791.920
174.8961, 1792.385
175.3782, 1792.873
175.8604, 1793.730
176.3425, 1794.871
176.8246, 1795.582
177.3067, 1794.933
177.7888, 1793.482
178.2709, 1792.339
178.7531, 1791.606
179.2352, 1791.501
179.7173, 1792.500
180.1994, 1794.574
180.6815, 1797.118
181.1636, 1800.429
181.6458, 1803.930
182.1279, 1805.677
182.6100, 1803.786
183.0921, 1800.309
183.5742, 1799.639
184.0563, 1801.878
184.5385, 1805.030
185.0206, 1807.104
185.5027, 1808.339
185.9848, 1809.853
186.4669, 1812.587
186.9490, 1815.813
187.4312, 1817.181
187.9133, 1816.469
188.3954, 1815.154
188.8775, 1814.853
189.3596, 1815.486
189.8417, 1816.318
190.3239, 1816.906
190.8060, 1817.427
191.2881, 1818.994
191.7702, 1821.847
192.2523, 1824.817
192.7344, 1826.431
193.2166, 1826.698
193.6987, 1826.465
194.1808, 1825.654
194.6629, 1824.411
195.1450, 1824.219
195.6271, 1825.060
196.1093, 1826.990
196.5914, 1830.946
197.0735, 1837.206
197.5556, 1841.951
198.0377, 1842.633
198.5198, 1839.208
199.0020, 1837.932
199.4841, 1839.265
199.9662, 1841.888
200.4483, 1843.515
200.9304, 1843.869
201.4125, 1844.831
201.8947, 1847.703
202.3768, 1852.740
202.8589, 1856.529
203.3410, 1859.170
203.8231, 1860.433
204.3052, 1859.057
204.7874, 1854.106
205.2695, 1850.459
205.7516, 1850.989
206.2337, 1856.548
206.7158, 1860.411
207.1979, 1862.051
207.6801, 1862.444
208.1622, 1863.739
208.6443, 1866.399
209.1264, 1868.573
209.6085, 1869.177
210.0906, 1867.734
210.5728, 1866.924
211.0549, 1866.884
211.5370, 1867.439
212.0191, 1868.200
212.5012, 1869.161
212.9833, 1870.400
213.4655, 1871.992
213.9476, 1874.053
214.4297, 1876.133
214.9118, 1878.235
215.3939, 1880.363
215.8760, 1882.635
216.3581, 1885.200
216.8403, 1887.549
217.3224, 1889.567
217.8045, 1891.614
218.2866, 1891.988
218.7687, 1889.712
219.2508, 1886.043
219.7330, 1884.576
220.2151, 1886.102
220.6972, 1888.249
221.1793, 1889.688
221.6614, 1889.608
222.1435, 1891.102
222.6257, 1895.208
223.1078, 1900.600
223.5899, 1903.632
224.0720, 1903.465
224.5541, 1902.314
225.0362, 1901.104
225.5184, 1899.751
226.0005, 1898.623
226.4826, 1897.553
226.9647, 1896.806
227.4468, 1897.154
227.9289, 1899.110
228.4111, 1901.466
228.8932, 1903.948
229.3753, 1907.515
229.8574, 1908.894
230.3395, 1907.086
230.8216, 1903.299
231.3038, 1900.692
231.7859, 1899.151
232.2680, 1898.965
232.7501, 1900.443
233.2322, 1904.482
233.7143, 1908.119
234.1965, 1911.381
234.6786, 1914.218
235.1607, 1916.423
235.6428, 1917.253
236.1249, 1918.467
236.6070, 1921.090
237.0892, 1926.657
237.5713, 1929.976
238.0534, 1929.591
238.5355, 1927.308
239.0176, 1928.043
239.4997, 1934.075
239.9819, 1939.862
240.4640, 1942.828
240.9461, 1941.433
241.4282, 1940.977
241.9103, 1941.961
242.3924, 1943.744
242.8746, 1944.765
243.3567, 1944.746
243.8388, 1944.432
244.3209, 1944.035
244.8030, 1943.328
245.2851, 1943.306
245.7673, 1944.488
246.2494, 1946.176
246.7315, 1946.682
247.2136, 1944.894
247.6957, 1943.715
248.1778, 1944.509
248.6600, 1948.275
249.1421, 1950.971
249.6242, 1952.311
250.1063, 1952.749
250.5884, 1953.006
251.0705, 1952.476
251.5527, 1952.785
252.0348, 1954.853
252.5169, 1959.606
252.9990, 1962.697
253.4811, 1963.623
253.9632, 1963.217
254.4454, 1962.866
254.9275, 1962.481
255.4096, 1962.299
255.8917, 1962.516
256.3738, 1963.335
256.8560, 1963.559
257.3381, 1962.917
257.8202, 1961.917
258.3023, 1961.344
258.7844, 1961.396
259.2665, 1961.465
259.7487, 1961.261
260.2308, 1960.654
260.7129, 1960.870
261.1950, 1962.515
261.6771, 1964.314
262.1592, 1964.403
262.6414, 1962.207
263.1235, 1959.712
263.6056, 1957.262
264.0877, 1954.771
264.5698, 1953.436
265.0519, 1953.578
265.5341, 1954.438
266.0162, 1955.321
266.4983, 1956.481
266.9804, 1956.836
267.4625, 1955.819
267.9446, 1953.476
268.4268, 1952.073
268.9089, 1952.036
269.3910, 1952.239
269.8731, 1951.417
270.3552, 1949.279
270.8373, 1947.302
271.3195, 1945.905
271.8016, 1944.987
272.2837, 1943.336
272.7658, 1940.514
273.2479, 1937.874
273.7300, 1936.965
274.2122, 1938.194
274.6943, 1938.646
275.1764, 1937.580
275.6585, 1935.302
276.1406, 1933.232
276.6227, 1931.281
277.1049, 1929.885
277.5870, 1929.823
278.0691, 1931.305
278.5512, 1931.761
279.0333, 1930.642
279.5154, 1928.295
279.9976, 1925.427
280.4797, 1921.741
280.9618, 1919.023
281.4439, 1919.176
281.9260, 1922.229
282.4081, 1923.911
282.8903, 1923.375
283.3724, 1921.473
283.8545, 1919.922
284.3366, 1918.671
284.8187, 1918.295
285.3008, 1919.742
285.7830, 1922.809
286.2651, 1924.896
286.7472, 1925.719
287.2293, 1925.606
287.7114, 1924.652
288.1935, 1922.865
288.6757, 1921.777
289.1578, 1922.780
289.6399, 1925.398
290.1220, 1927.309
290.6041, 1928.450
291.0862, 1928.654
291.5684, 1927.037
292.0505, 1923.822
292.5326, 1921.214
293.0147, 1920.944
293.4968, 1922.126
293.9789, 1921.964
294.4611, 1920.274
294.9432, 1918.010
295.4253, 1916.132
295.9074, 1914.598
296.3895, 1913.231
296.8716, 1911.821
297.3538, 1910.561
297.8359, 1909.905
298.3180, 1909.865
298.8001, 1910.047
299.2822, 1910.051
299.7643, 1909.977
300.2465, 1910.102
300.7286, 1910.733
301.2107, 1911.478
301.6928, 1911.733
302.1749, 1911.527
302.6570, 1911.302
303.1392, 1911.765
303.6213, 1912.401
304.1034, 1912.250
304.5855, 1910.562
305.0676, 1908.552
305.5497, 1907.380
306.0319, 1906.959
306.5140, 1906.778
306.9961, 1906.146
307.4782, 1905.687
307.9603, 1906.286
308.4424, 1908.638
308.9246, 1911.104
309.4067, 1912.563
309.8888, 1913.108
310.3709, 1913.056
310.8530, 1912.347
311.3351, 1911.213
311.8173, 1909.635
312.2994, 1907.244
312.7815, 1905.508
313.2636, 1906.037
313.7457, 1907.792
314.2278, 1908.904
314.7100, 1908.194
315.1921, 1906.904
315.6742, 1905.622
316.1563, 1904.359
316.6384, 1903.567
317.1205, 1903.852
317.6027, 1904.639
318.0848, 1905.195
318.5669, 1904.839
319.0490, 1904.604
319.5311, 1905.103
320.0132, 1906.392
320.4954, 1907.233
320.9775, 1906.655
321.4596, 1905.750
321.9417, 1905.451
322.4238, 1906.804
322.9059, 1907.872
323.3881, 1907.926
323.8702, 1907.078
324.3523, 1906.777
324.8344, 1907.759
325.3165, 1909.020
325.7986, 1909.980
326.2808, 1909.651
326.7629, 1910.167
327.2450, 1912.444
327.7271, 1915.887
328.2092, 1918.125
328.6913, 1918.644
329.1735, 1918.395
329.6556, 1917.656
330.1377, 1915.831
330.6198, 1914.629
331.1019, 1914.293
331.5840, 1914.479
332.0662, 1914.457
332.5483, 1913.398
333.0304, 1913.300
333.5125, 1915.121
333.9946, 1919.468
334.4767, 1922.455
334.9589, 1923.553
335.4410, 1923.760
335.9231, 1924.397
336.4052, 1925.844
336.8873, 1926.689
337.3694, 1926.318
337.8516, 1924.857
338.3336, 1924.474
338.8158, 1925.581
339.2979, 1926.979
339.7800, 1927.608
340.2621, 1927.404
340.7442, 1927.025
341.2263, 1926.509
341.7085, 1925.968
342.1906, 1925.720
342.6727, 1925.750
343.1548, 1926.183
343.6369, 1927.093
344.1190, 1928.460
344.6012, 1930.421
345.0833, 1933.197
345.5654, 1936.087
346.0475, 1937.777
346.5296, 1938.303
347.0117, 1938.524
347.4939, 1938.554
347.9760, 1938.590
348.4581, 1939.316
348.9402, 1940.790
349.4223, 1942.772
349.9044, 1945.589
350.3866, 1948.856
350.8687, 1951.291
351.3508, 1952.249
351.8329, 1952.146
352.3150, 1951.170
352.7971, 1949.359
353.2793, 1948.082
353.7614, 1948.396
354.2435, 1949.942
354.7256, 1952.254
355.2077, 1955.938
355.6898, 1959.384
356.1720, 1961.107
356.6541, 1961.339
357.1362, 1961.106
357.6183, 1959.858
358.1004, 1959.015
358.5826, 1960.289
359.0647, 1965.125
359.5468, 1969.169
360.0289, 1969.031
360.5110, 1966.512
360.9931, 1965.042
361.4753, 1967.544
361.9574, 1970.183
362.4395, 1970.612
362.9216, 1968.148
363.4037, 1966.569
363.8858, 1968.114
364.3680, 1970.694
364.8501, 1972.115
365.3322, 1970.359
365.8143, 1969.030
366.2964, 1968.975
366.7785, 1970.221
367.2607, 1972.136
367.7428, 1976.260
368.2249, 1980.023
368.7070, 1981.823
369.1891, 1978.477
369.6712, 1977.416
370.1534, 1980.115
370.6355, 1985.258
371.1176, 1988.688
371.5997, 1989.094
372.0818, 1989.374
372.5639, 1990.685
373.0461, 1993.355
373.5282, 1995.903
374.0103, 1998.454
374.4924, 2000.751
374.9745, 2002.281
375.4566, 2002.775
375.9388, 2003.399
376.4209, 2004.634
376.9030, 2006.443
377.3851, 2007.609
377.8672, 2008.065
378.3493, 2008.324
378.8315, 2008.689
379.3136, 2009.189
379.7957, 2010.586
380.2778, 2013.453
380.7599, 2016.942
381.2420, 2018.435
381.7242, 2017.906
382.2063, 2018.334
382.6884, 2023.133
383.1705, 2030.643
383.6526, 2034.453
384.1347, 2033.266
384.6169, 2030.924
385.0990, 2032.769
385.5811, 2037.600
386.0632, 2041.525
386.5453, 2042.293
387.0274, 2041.304
387.5096, 2039.722
387.9917, 2037.614
388.4738, 2036.692
388.9559, 2039.502
389.4380, 2043.997
389.9201, 2047.460
390.4023, 2048.341
390.8844, 2048.769
391.3665, 2050.256
391.8486, 2052.534
392.3307, 2054.531
392.8128, 2055.797
393.2950, 2056.539
393.7771, 2056.717
394.2592, 2055.859
394.7413, 2055.593
395.2234, 2056.848
395.7055, 2058.902
396.1877, 2060.653
396.6698, 2062.092
397.1519, 2062.950
397.6340, 2062.883
398.1161, 2061.732
398.5982, 2061.169
399.0804, 2062.403
399.5625, 2063.648
400.0446, 2063.545
400.5267, 2060.093
401.0088, 2058.317
401.4909, 2058.793
401.9731, 2061.319
402.4552, 2065.346
402.9373, 2072.323
403.4194, 2078.480
403.9015, 2081.501
404.3836, 2080.022
404.8658, 2081.127
405.3479, 2085.885
405.8300, 2091.700
406.3121, 2094.004
406.7942, 2092.006
407.2763, 2091.921
407.7585, 2096.642
408.2406, 2105.014
408.7227, 2110.356
409.2048, 2112.389
409.6869, 2113.389
410.1690, 2115.003
410.6512, 2117.203
411.1333, 2120.029
411.6154, 2123.656
412.0975, 2127.636
412.5796, 2131.382
413.0617, 2134.937
413.5439, 2138.547
414.0260, 2142.393
414.5081, 2146.432
414.9902, 2150.741
415.4723, 2155.426
415.9544, 2159.710
416.4366, 2163.152
416.9187, 2165.727
417.4008, 2167.384
417.8829, 2166.362
418.3650, 2165.927
418.8471, 2168.628
419.3293, 2173.924
419.8114, 2178.728
420.2935, 2180.666
420.7756, 2182.307
421.2577, 2185.553
421.7398, 2192.334
422.2220, 2197.687
422.7041, 2199.699
423.1862, 2199.768
423.6683, 2200.419
424.1504, 2202.809
424.6325, 2204.980
425.1147, 2206.311
425.5968, 2206.708
426.0789, 2207.254
426.5610, 2207.549
427.0431, 2208.361
427.5252, 2210.615
428.0074, 2215.755
428.4895, 2218.776
428.9716, 2218.242
429.4537, 2215.468
429.9358, 2215.064
430.4179, 2217.941
430.9001, 2219.927
431.3822, 2218.161
431.8643, 2212.555
432.3464, 2209.190
432.8285, 2208.532
433.3106, 2208.659
433.7928, 2206.988
434.2749, 2203.752
434.7570, 2200.959
435.2391, 2199.712
435.7212, 2198.917
436.2033, 2196.110
436.6855, 2191.505
437.1676, 2186.903
437.6497, 2183.803
438.1318, 2181.496
438.6139, 2178.855
439.0960, 2175.624
439.5782, 2172.355
440.0603, 2169.507
440.5424, 2166.927
441.0245, 2164.376
441.5066, 2161.196
441.9887, 2158.424
442.4709, 2157.333
442.9530, 2157.816
443.4351, 2156.927
443.9172, 2152.236
444.3993, 2146.489
444.8814, 2141.723
445.3636, 2138.673
445.8457, 2135.998
446.3278, 2133.980
446.8099, 2132.222
447.2920, 2129.688
447.7741, 2126.089
448.2563, 2121.997
448.7384, 2117.279
449.2205, 2111.592
449.7026, 2107.985
450.1847, 2107.845
450.6668, 2108.147
451.1490, 2105.757
451.6311, 2099.677
452.1132, 2094.938
452.5953, 2092.671
453.0774, 2091.886
453.5595, 2089.333
454.0417, 2084.712
454.5238, 2080.957
455.0059, 2080.520
455.4880, 2082.552
455.9701, 2082.293
456.4522, 2079.325
456.9344, 2075.832
457.4165, 2074.235
457.8986, 2074.002
458.3807, 2073.732
458.8628, 2073.031
459.3449, 2072.021
459.8271, 2070.749
460.3092, 2069.260
460.7913, 2067.719
461.2734, 2065.640
461.7555, 2063.921
462.2376, 2063.714
462.7198, 2065.671
463.2019, 2066.800
463.6840, 2064.810
464.1661, 2061.484
464.6482, 2058.982
465.1303, 2058.033
465.6125, 2057.743
466.0946, 2058.436
466.5767, 2059.895
467.0588, 2060.213
467.5409, 2057.796
468.0230, 2055.508
468.5052, 2054.706
468.9873, 2056.250
469.4694, 2057.262
469.9515, 2058.007
470.4336, 2058.036
470.9157, 2056.228
471.3979, 2051.649
471.8800, 2048.688
472.3621, 2049.094
472.8442, 2051.964
473.3263, 2052.705
473.8084, 2051.073
474.2906, 2049.189
474.7727, 2048.577
475.2548, 2049.013
475.7369, 2049.527
476.2190, 2050.026
476.7011, 2050.482
477.1833, 2051.183
477.6654, 2051.849
478.1475, 2051.713
478.6296, 2049.727
479.1117, 2047.299
479.5938, 2045.334
480.0760, 2043.976
480.5581, 2044.195
481.0402, 2048.880
481.5223, 2053.975
482.0044, 2055.876
482.4865, 2052.696
482.9687, 2049.688
483.4508, 2048.691
483.9329, 2048.914
484.4150, 2049.231
484.8971, 2049.198
485.3792, 2049.479
485.8614, 2050.301
486.3435, 2051.624
486.8256, 2053.084
487.3077, 2055.417
487.7898, 2057.008
488.2719, 2056.717
488.7541, 2053.626
489.2362, 2051.597
489.7183, 2050.652
490.2004, 2050.768
490.6825, 2052.271
491.1646, 2055.340
491.6468, 2058.018
492.1289, 2059.957
492.6110, 2060.990
493.0931, 2060.372
493.5752, 2058.112
494.0573, 2055.654
494.5395, 2053.635
495.0216, 2052.207
495.5037, 2051.823
495.9858, 2052.677
496.4679, 2053.818
496.9500, 2054.246
497.4322, 2054.404
497.9143, 2055.021
498.3964, 2056.872
498.8785, 2058.848
499.3606, 2060.599
499.8427, 2062.053
500.3249, 2062.737
500.8070, 2061.191
501.2891, 2059.883
501.7712, 2060.449
502.2533, 2064.273
502.7354, 2066.457
503.2176, 2064.970
503.6997, 2062.509
504.1818, 2061.819
504.6639, 2063.794
505.1460, 2065.893
505.6281, 2068.102
506.1103, 2070.087
506.5924, 2070.280
507.0745, 2068.185
507.5566, 2065.946
508.0387, 2064.594
508.5208, 2064.093
509.0030, 2063.948
509.4851, 2064.222
509.9672, 2064.501
510.4493, 2064.074
510.9314, 2063.264
511.4135, 2063.342
511.8957, 2065.299
512.3778, 2067.187
512.8599, 2066.112
513.3420, 2063.016
513.8242, 2060.605
514.3063, 2060.669
514.7884, 2061.702
515.2705, 2062.726
515.7526, 2063.671
516.2347, 2064.397
516.7169, 2063.954
517.1990, 2063.762
517.6811, 2064.938
518.1632, 2069.227
518.6453, 2072.687
519.1274, 2074.382
519.6096, 2075.063
520.0917, 2076.112
520.5738, 2077.927
521.0559, 2079.400
521.5380, 2080.251
522.0201, 2080.499
522.5023, 2080.353
522.9844, 2079.685
523.4665, 2079.032
523.9486, 2078.565
524.4307, 2078.322
524.9128, 2079.234
525.3950, 2081.544
525.8771, 2084.388
526.3592, 2086.663
526.8413, 2088.476
527.3234, 2090.374
527.8055, 2093.037
528.2877, 2095.351
528.7698, 2095.664
529.2519, 2094.359
529.7340, 2093.116
530.2161, 2092.419
530.6982, 2092.466
531.1804, 2093.710
531.6625, 2096.459
532.1446, 2098.804
532.6267, 2099.921
533.1088, 2100.474
533.5909, 2101.058
534.0731, 2101.410
534.5552, 2102.312
535.0373, 2104.303
535.5194, 2106.821
536.0015, 2108.472
536.4836, 2108.878
536.9658, 2109.122
537.4479, 2109.449
537.9300, 2109.853
538.4121, 2110.589
538.8942, 2111.592
539.3763, 2113.081
539.8585, 2115.902
540.3406, 2119.601
540.8227, 2121.260
541.3048, 2120.051
541.7869, 2118.425
542.2690, 2119.697
542.7512, 2122.967
543.2333, 2125.979
543.7154, 2127.212
544.1975, 2128.308
544.6796, 2131.318
545.1617, 2135.637
545.6439, 2138.451
546.1260, 2136.605
546.6081, 2134.318
547.0902, 2134.391
547.5723, 2137.944
548.0544, 2140.417
548.5366, 2140.229
549.0187, 2139.257
549.5008, 2139.165
549.9829, 2140.470
550.4650, 2141.768
550.9471, 2143.103
551.4293, 2144.294
551.9114, 2144.842
552.3935, 2144.630
552.8756, 2144.381
553.3577, 2144.272
553.8398, 2144.359
554.3220, 2144.999
554.8041, 2146.213
555.2862, 2147.498
555.7683, 2148.633
556.2504, 2149.524
556.7325, 2150.028
557.2147, 2150.132
557.6968, 2149.778
558.1789, 2147.457
558.6610, 2144.988
559.1431, 2145.077
559.6252, 2152.059
560.1074, 2158.279
560.5895, 2160.372
561.0716, 2159.211
561.5537, 2157.740
562.0358, 2155.516
562.5179, 2154.047
563.0001, 2154.269
563.4822, 2156.460
563.9643, 2157.285
564.4464, 2156.245
564.9285, 2154.559
565.4106, 2153.065
565.8928, 2151.788
566.3749, 2150.554
566.8570, 2149.299
567.3391, 2148.191
567.8212, 2147.600
568.3033, 2147.447
568.7855, 2147.123
569.2676, 2146.142
569.7497, 2145.149
570.2318, 2145.256
570.7139, 2146.251
571.1960, 2147.228
571.6782, 2148.147
572.1603, 2148.476
572.6424, 2147.552
573.1245, 2145.242
573.6066, 2142.926
574.0887, 2140.786
574.5709, 2139.051
575.0530, 2137.880
575.5351, 2137.628
576.0172, 2137.483
576.4993, 2137.506
576.9814, 2137.596
577.4636, 2137.767
577.9457, 2138.563
578.4278, 2137.893
578.9099, 2134.696
579.3920, 2129.864
579.8741, 2126.788
580.3563, 2125.561
580.8384, 2125.026
581.3205, 2124.598
581.8026, 2124.309
582.2847, 2124.520
582.7668, 2125.249
583.2490, 2125.539
583.7311, 2124.323
584.2132, 2122.287
584.6953, 2120.231
585.1774, 2118.222
585.6595, 2116.544
586.1416, 2115.177
586.6237, 2114.293
587.1058, 2114.119
587.5880, 2116.826
588.0701, 2117.947
588.5522, 2115.007
589.0343, 2109.243
589.5164, 2106.604
589.9985, 2109.121
590.4807, 2111.298
590.9628, 2110.484
591.4449, 2106.578
591.9270, 2104.251
592.4091, 2103.511
592.8912, 2104.225
593.3734, 2107.666
593.8555, 2112.836
594.3376, 2114.640
594.8197, 2111.901
595.3018, 2107.715
595.7839, 2104.917
596.2661, 2103.217
596.7482, 2102.049
597.2303, 2101.295
597.7124, 2100.980
598.1945, 2101.212
598.6766, 2101.940
599.1588, 2102.978
599.6409, 2105.471
600.1230, 2107.163
600.6051, 2106.336
601.0872, 2102.699
601.5693, 2101.967
602.0515, 2105.881
602.5336, 2110.299
603.0157, 2112.730
603.4978, 2112.899
603.9799, 2112.362
604.4620, 2110.827
604.9442, 2109.425
605.4263, 2110.066
605.9084, 2112.330
606.3905, 2113.552
606.8726, 2112.487
607.3547, 2111.369
607.8369, 2113.921
608.3190, 2118.689
608.8011, 2122.040
609.2832, 2121.084
609.7653, 2119.091
610.2474, 2117.691
610.7296, 2116.921
611.2117, 2116.778
611.6938, 2118.276
612.1759, 2119.501
612.6580, 2119.284
613.1401, 2117.081
613.6223, 2115.741
614.1044, 2115.345
614.5865, 2115.717
615.0686, 2117.457
615.5507, 2121.081
616.0328, 2121.226
616.5150, 2116.556
616.9971, 2110.332
617.4792, 2107.252
617.9613, 2106.921
618.4434, 2107.508
618.9255, 2109.044
619.4077, 2110.467
619.8898, 2109.977
620.3719, 2108.263
620.8540, 2107.456
621.3361, 2110.137
621.8182, 2112.737
622.3004, 2112.872
622.7825, 2110.476
623.2646, 2108.724
623.7467, 2108.954
624.2288, 2109.343
624.7109, 2108.806
625.1931, 2106.647
625.6752, 2105.906
626.1573, 2106.865
626.6394, 2108.675
627.1215, 2110.986
627.6036, 2113.812
628.0858, 2114.610
628.5679, 2112.508
629.0500, 2109.422
629.5321, 2107.759
630.0142, 2107.471
630.4963, 2108.518
630.9785, 2112.141
631.4606, 2115.873
631.9427, 2117.516
632.4248, 2117.505
632.9069, 2117.185
633.3890, 2117.417
633.8712, 2117.225
634.3533, 2115.642
634.8354, 2112.455
635.3175, 2111.077
635.7996, 2112.634
636.2817, 2114.797
636.7639, 2116.483
637.2460, 2117.734
637.7281, 2117.902
638.2102, 2116.684
638.6923, 2115.123
639.1744, 2114.449
639.6566, 2114.489
640.1387, 2114.163
640.6208, 2113.137
641.1029, 2112.142
641.5850, 2112.345
642.0671, 2113.199
642.5493, 2113.601
643.0314, 2112.263
643.5135, 2111.219
643.9956, 2112.251
644.4777, 2114.556
644.9598, 2115.577
645.4420, 2113.069
645.9241, 2111.017
646.4062, 2111.001
646.8883, 2112.903
647.3704, 2113.413
647.8525, 2111.744
648.3347, 2110.426
648.8168, 2111.413
649.2989, 2114.597
649.7810, 2116.140
650.2631, 2115.877
650.7452, 2115.084
651.2274, 2114.696
651.7095, 2114.703
652.1916, 2115.161
652.6737, 2116.129
653.1558, 2117.231
653.6379, 2118.209
654.1201, 2119.137
654.6022, 2120.126
655.0843, 2121.208
655.5664, 2122.340
656.0485, 2123.746
656.5306, 2125.153
657.0128, 2125.922
657.4949, 2125.545
657.9770, 2125.556
658.4591, 2126.700
658.9412, 2128.465
659.4233, 2128.167
659.9055, 2125.585
660.3876, 2123.452
660.8697, 2123.527
661.3518, 2125.110
661.8339, 2126.781
662.3160, 2128.500
662.7982, 2129.688
663.2803, 2129.230
663.7624, 2128.470
664.2445, 2128.839
664.7266, 2130.714
665.2087, 2132.510
665.6909, 2133.888
666.1730, 2134.851
666.6551, 2135.374
667.1372, 2135.343
667.6193, 2135.049
668.1014, 2134.308
668.5836, 2133.465
669.0657, 2132.815
669.5478, 2132.293
670.0299, 2132.787
670.5120, 2134.652
670.9941, 2137.315
671.4763, 2140.585
671.9584, 2143.980
672.4405, 2145.679
672.9226, 2143.308
673.4047, 2140.215
673.8868, 2139.036
674.3690, 2139.556
674.8511, 2140.948
675.3332, 2143.610
675.8153, 2146.419
676.2974, 2149.417
676.7795, 2152.627
677.2617, 2153.541
677.7438, 2150.355
678.2259, 2147.603
678.7080, 2147.920
679.1901, 2151.551
679.6722, 2154.213
680.1544, 2155.815
680.6365, 2157.194
681.1186, 2159.158
681.6007, 2161.516
682.0828, 2164.187
682.5649, 2167.385
683.0471, 2169.353
683.5292, 2166.917
684.0113, 2163.039
684.4934, 2161.417
684.9755, 2164.973
685.4576, 2167.805
685.9398, 2167.915
686.4219, 2166.561
686.9040, 2165.754
687.3861, 2164.991
687.8682, 2165.983
688.3503, 2169.727
688.8325, 2174.892
689.3146, 2177.883
689.7967, 2178.690
690.2788, 2179.132
690.7609, 2180.157
691.2430, 2181.127
691.7252, 2180.312
692.2073, 2178.185
692.6894, 2176.911
693.1715, 2178.667
693.6536, 2180.953
694.1357, 2181.714
694.6179, 2180.922
695.1000, 2180.878
695.5821, 2182.159
696.0642, 2184.290
696.5463, 2187.382
697.0284, 2191.831
697.5106, 2194.335
697.9927, 2194.220
698.4748, 2193.801
698.9569, 2195.343
699.4390, 2198.547
699.9211, 2200.575
700.4033, 2201.173
700.8854, 2201.322
701.3675, 2201.410
701.8496, 2201.905
702.3317, 2203.838
702.8138, 2208.284
703.2960, 2211.910
703.7781, 2211.512
704.2602, 2209.905
704.7423, 2210.530
705.2244, 2216.366
705.7065, 2221.249
706.1887, 2224.347
706.6708, 2226.404
707.1529, 2228.864
707.6350, 2231.730
708.1171, 2234.876
708.5992, 2238.509
709.0814, 2242.076
709.5635, 2244.199
710.0456, 2245.184
710.5277, 2246.457
711.0098, 2249.030
711.4919, 2251.980
711.9741, 2254.832
712.4562, 2257.451
712.9383, 2259.376
713.4204, 2259.344
713.9025, 2259.659
714.3846, 2261.501
714.8668, 2264.813
715.3489, 2267.964
715.8310, 2270.859
716.3131, 2273.848
716.7952, 2277.405
717.2773, 2281.389
717.7595, 2283.844
718.2416, 2284.642
718.7237, 2285.862
719.2058, 2290.262
719.6879, 2295.769
720.1700, 2298.616
720.6522, 2298.312
721.1343, 2298.059
721.6164, 2299.497
722.0985, 2301.924
722.5806, 2304.924
723.0627, 2308.954
723.5449, 2312.287
724.0270, 2314.673
724.5091, 2316.558
724.9912, 2318.013
725.4733, 2318.698
725.9554, 2321.470
726.4376, 2327.079
726.9197, 2333.311
727.4018, 2336.873
727.8839, 2338.487
728.3660, 2340.466
728.8481, 2343.648
729.3303, 2346.851
729.8124, 2348.710
730.2945, 2349.996
730.7766, 2351.874
731.2587, 2354.620
731.7408, 2358.089
732.2230, 2363.282
732.7051, 2368.929
733.1872, 2372.359
733.6693, 2372.407
734.1514, 2373.579
734.6335, 2377.282
735.1157, 2382.443
735.5978, 2386.288
736.0799, 2388.973
736.5620, 2391.720
737.0441, 2394.968
737.5262, 2398.698
738.0084, 2402.684
738.4905, 2407.131
738.9726, 2412.721
739.4547, 2422.373
739.9368, 2430.697
740.4189, 2434.511
740.9011, 2434.022
741.3832, 2434.870
741.8653, 2437.414
742.3474, 2440.589
742.8295, 2444.025
743.3116, 2447.681
743.7938, 2451.185
744.2759, 2454.506
744.7580, 2458.188
745.2401, 2463.686
745.7222, 2469.279
746.2043, 2471.653
746.6865, 2470.902
747.1686, 2470.862
747.6507, 2474.035
748.1328, 2478.434
748.6149, 2483.025
749.0970, 2487.801
749.5792, 2491.826
750.0613, 2493.738
750.5434, 2496.633
751.0255, 2503.241
751.5076, 2514.034
751.9897, 2522.103
752.4719, 2527.136
752.9540, 2530.956
753.4361, 2535.604
753.9182, 2540.297
754.4003, 2542.740
754.8824, 2542.097
755.3646, 2543.369
755.8467, 2551.888
756.3288, 2562.761
756.8109, 2571.070
757.2930, 2574.222
757.7751, 2578.894
758.2573, 2586.826
758.7394, 2595.199
759.2215, 2601.274
759.7036, 2604.825
760.1857, 2607.742
760.6678, 2609.789
761.1500, 2612.520
761.6321, 2619.191
762.1142, 2627.951
762.5963, 2634.023
763.0784, 2635.317
763.5605, 2636.209
764.0427, 2639.664
764.5248, 2644.554
765.0069, 2649.477
765.4890, 2654.861
765.9711, 2659.223
766.4532, 2662.355
766.9354, 2664.604
767.4175, 2666.322
767.8996, 2667.399
768.3817, 2669.113
768.8638, 2672.181
769.3459, 2674.928
769.8281, 2673.260
770.3102, 2668.928
770.7923, 2667.252
771.2744, 2671.613
771.7565, 2676.737
772.2386, 2678.769
772.7208, 2679.145
773.2029, 2680.368
773.6850, 2684.114
774.1671, 2687.303
774.6492, 2689.329
775.1313, 2690.592
775.6135, 2691.901
776.0956, 2693.223
776.5777, 2694.705
777.0598, 2696.680
777.5419, 2698.360
778.0240, 2697.702
778.5062, 2695.489
778.9883, 2694.177
779.4704, 2696.077
779.9525, 2698.019
780.4346, 2697.899
780.9167, 2696.355
781.3989, 2694.964
781.8810, 2694.283
782.3631, 2693.434
782.8452, 2691.831
783.3273, 2690.131
783.8094, 2690.853
784.2916, 2694.386
784.7737, 2696.457
785.2558, 2695.023
785.7379, 2691.879
786.2200, 2691.108
786.7021, 2691.644
787.1843, 2689.947
787.6664, 2681.284
788.1485, 2672.827
788.6306, 2668.790
789.1127, 2668.317
789.5948, 2668.219
790.0770, 2668.902
790.5591, 2668.778
791.0412, 2667.555
791.5233, 2665.206
792.0054, 2660.942
792.4875, 2654.707
792.9697, 2649.658
793.4518, 2647.467
793.9339, 2647.042
794.4160, 2648.376
794.8981, 2650.324
795.3802, 2649.098
795.8624, 2639.173
796.3445, 2629.352
796.8266, 2624.637
797.3087, 2623.987
797.7908, 2621.133
798.2729, 2614.557
798.7551, 2608.647
799.2372, 2604.973
799.7193, 2602.752
800.2014, 2598.405
800.6835, 2592.201
801.1656, 2587.452
801.6478, 2588.026
802.1299, 2589.332
802.6120, 2585.372
803.0941, 2577.479
803.5762, 2569.839
804.0583, 2563.431
804.5405, 2558.333
805.0226, 2555.121
805.5047, 2553.283
805.9868, 2550.988
806.4689, 2547.954
806.9510, 2545.313
807.4332, 2543.555
807.9153, 2542.373
808.3974, 2541.880
808.8795, 2541.617
809.3616, 2538.915
809.8438, 2530.040
810.3259, 2520.224
810.8080, 2513.286
811.2901, 2508.953
811.7722, 2505.947
812.2543, 2506.088
812.7365, 2504.972
813.2186, 2500.593
813.7007, 2494.281
814.1828, 2491.277
814.6649, 2491.976
815.1470, 2492.554
815.6292, 2491.507
816.1113, 2489.537
816.5934, 2487.935
817.0755, 2486.525
817.5576, 2484.808
818.0397, 2483.200
818.5219, 2480.559
819.0040, 2475.681
819.4861, 2469.242
819.9682, 2463.440
820.4503, 2457.768
820.9324, 2454.004
821.4146, 2453.482
821.8967, 2454.500
822.3788, 2452.077
822.8609, 2446.512
823.3430, 2442.092
823.8251, 2441.262
824.3073, 2441.149
824.7894, 2437.970
825.2715, 2432.884
825.7536, 2428.264
826.2357, 2426.623
826.7178, 2423.734
827.2000, 2416.921
827.6821, 2408.439
828.1642, 2402.610
828.6463, 2399.875
829.1284, 2398.228
829.6105, 2397.663
830.0927, 2397.213
830.5748, 2395.040
831.0569, 2391.450
831.5390, 2387.413
832.0211, 2382.890
832.5032, 2378.556
832.9854, 2375.492
833.4675, 2372.758
833.9496, 2368.991
834.4317, 2361.098
834.9138, 2356.273
835.3959, 2356.479
835.8781, 2358.549
836.3602, 2357.485
836.8423, 2353.297
837.3244, 2349.192
837.8065, 2345.714
838.2886, 2342.685
838.7708, 2339.763
839.2529, 2337.139
839.7350, 2335.285
840.2171, 2335.271
840.6992, 2334.060
841.1813, 2329.216
841.6635, 2323.496
842.1456, 2319.896
842.6277, 2319.433
843.1098, 2317.993
843.5919, 2315.222
844.0740, 2311.856
844.5562, 2308.616
845.0383, 2305.554
845.5204, 2302.882
846.0025, 2300.696
846.4846, 2298.598
846.9667, 2296.568
847.4489, 2294.337
847.9310, 2291.544
848.4131, 2287.561
848.8952, 2284.618
849.3773, 2283.020
849.8594, 2282.063
850.3416, 2281.456
850.8237, 2281.168
851.3058, 2280.093
851.7879, 2278.132
852.2700, 2276.037
852.7521, 2274.856
853.2343, 2273.612
853.7164, 2270.561
854.1985, 2265.469
854.6806, 2261.845
855.1627, 2262.507
855.6448, 2263.411
856.1270, 2262.320
856.6091, 2259.156
857.0912, 2257.149
857.5733, 2256.455
858.0554, 2256.028
858.5375, 2254.614
859.0197, 2253.165
859.5018, 2254.765
859.9839, 2258.755
860.4660, 2261.146
860.9481, 2258.195
861.4302, 2254.480
861.9124, 2252.891
862.3945, 2253.203
862.8766, 2251.446
863.3587, 2246.605
863.8408, 2242.170
864.3229, 2239.315
864.8051, 2237.790
865.2872, 2237.503
865.7693, 2238.159
866.2514, 2237.984
866.7335, 2235.118
867.2156, 2232.061
867.6978, 2231.107
868.1799, 2231.427
868.6620, 2231.120
869.1441, 2228.978
869.6262, 2227.164
870.1083, 2225.859
870.5905, 2225.090
871.0726, 2225.181
871.5547, 2226.102
872.0368, 2226.371
872.5189, 2225.334
873.0010, 2224.339
873.4832, 2225.166
873.9653, 2227.041
874.4474, 2228.808
874.9295, 2231.212
875.4116, 2231.614
875.8937, 2227.799
876.3759, 2222.714
876.8580, 2218.899
877.3401, 2216.353
877.8222, 2215.248
878.3043, 2215.853
878.7864, 2216.682
879.2686, 2216.243
879.7507, 2214.872
880.2328, 2212.759
880.7149, 2209.753
881.1970, 2208.017
881.6791, 2210.501
882.1613, 2213.221
882.6434, 2212.931
883.1255, 2208.958
883.6076, 2207.605
884.0897, 2209.836
884.5718, 2211.663
885.0540, 2209.420
885.5361, 2204.737
886.0182, 2203.122
886.5003, 2204.269
886.9824, 2205.582
887.4645, 2205.372
887.9467, 2204.894
888.4288, 2204.938
888.9109, 2205.448
889.3930, 2205.653
889.8751, 2205.358
890.3572, 2205.027
890.8394, 2204.708
891.3215, 2204.519
891.8036, 2205.349
892.2857, 2206.843
892.7678, 2207.021
893.2499, 2204.021
893.7321, 2200.636
894.2142, 2198.841
894.6963, 2198.175
895.1784, 2197.759
895.6605, 2197.407
896.1426, 2197.462
896.6248, 2198.266
897.1069, 2199.160
897.5890, 2198.757
898.0711, 2197.274
898.5532, 2197.224
899.0353, 2199.401
899.5175, 2201.313
899.9996, 2199.473
900.4817, 2196.570
900.9638, 2196.087
901.4459, 2200.002
901.9280, 2202.219
902.4102, 2201.216
902.8923, 2199.421
903.3744, 2198.513
903.8565, 2198.496
904.3386, 2197.671
904.8207, 2195.972
905.3029, 2195.444
905.7850, 2199.790
906.2671, 2204.815
906.7492, 2205.161
907.2313, 2200.957
907.7134, 2197.937
908.1956, 2198.688
908.6777, 2199.991
909.1598, 2201.063
909.6419, 2201.831
910.1240, 2201.762
910.6061, 2200.853
911.0883, 2199.976
911.5704, 2199.353
912.0525, 2199.160
912.5346, 2200.374
913.0167, 2202.107
913.4988, 2202.435
913.9810, 2198.673
914.4631, 2196.003
914.9452, 2195.941
915.4273, 2197.172
915.9094, 2197.862
916.3915, 2197.952
916.8737, 2198.244
917.3558, 2198.855
917.8379, 2199.625
918.3200, 2200.756
918.8021, 2201.759
919.2842, 2201.737
919.7664, 2200.233
920.2485, 2199.034
920.7306, 2198.610
921.2127, 2198.744
921.6948, 2199.597
922.1769, 2201.301
922.6591, 2201.230
923.1412, 2199.204
923.6233, 2197.036
924.1054, 2195.978
924.5875, 2195.547
925.0696, 2194.871
925.5518, 2194.104
926.0339, 2194.149
926.5160, 2196.945
926.9981, 2198.788
927.4802, 2197.642
927.9623, 2194.881
928.4445, 2195.488
928.9266, 2199.929
929.4087, 2201.690
929.8908, 2197.799
930.3729, 2192.520
930.8550, 2192.237
931.3372, 2194.590
931.8193, 2195.270
932.3014, 2191.171
932.7835, 2188.345
933.2656, 2189.397
933.7477, 2191.404
934.2299, 2191.653
934.7120, 2189.904
935.1941, 2188.841
935.6762, 2188.635
936.1583, 2188.894
936.6404, 2189.445
937.1226, 2190.140
937.6047, 2190.836
938.0868, 2191.508
938.5689, 2191.913
939.0510, 2191.577
939.5331, 2191.309
940.0153, 2191.403
940.4974, 2191.787
940.9795, 2192.035
941.4616, 2192.121
941.9437, 2192.659
942.4258, 2194.815
942.9080, 2196.558
943.3901, 2194.505
943.8722, 2190.268
944.3543, 2187.285
944.8364, 2186.864
945.3185, 2187.729
945.8007, 2190.765
946.2828, 2193.956
946.7649, 2194.105
947.2470, 2191.334
947.7291, 2190.055
948.2112, 2191.036
948.6934, 2192.172
949.1755, 2190.388
949.6576, 2188.270
950.1397, 2189.063
950.6218, 2193.821
951.1039, 2197.423
951.5861, 2199.268
952.0682, 2199.765
952.5503, 2198.634
953.0324, 2196.242
953.5145, 2195.044
953.9966, 2195.019
954.4788, 2195.685
954.9609, 2197.755
955.4430, 2199.535
955.9251, 2198.927
956.4072, 2196.986
956.8893, 2196.627
957.3715, 2200.090
957.8536, 2201.898
958.3357, 2200.911
958.8178, 2198.629
959.2999, 2196.612
959.7820, 2195.214
960.2642, 2196.915
960.7463, 2202.949
961.2284, 2207.504
961.7105, 2204.430
962.1926, 2199.301
962.6747, 2197.245
963.1569, 2199.550
963.6390, 2200.510
964.1211, 2199.644
964.6032, 2198.750
965.0853, 2198.847
965.5674, 2199.803
966.0496, 2202.262
966.5317, 2205.580
967.0138, 2206.708
967.4959, 2201.187
967.9780, 2196.102
968.4601, 2195.937
968.9423, 2198.534
969.4244, 2198.779
969.9065, 2195.970
970.3886, 2193.811
970.8707, 2192.897
971.3528, 2192.885
971.8350, 2193.427
972.3171, 2194.487
972.7992, 2196.137
973.2813, 2198.577
973.7634, 2200.708
974.2455, 2202.555
974.7277, 2203.478
975.2098, 2202.507
975.6919, 2199.577
976.1740, 2199.872
976.6561, 2203.520
977.1382, 2207.398
977.6204, 2209.849
978.1025, 2211.298
978.5846, 2211.756
979.0667, 2211.619
979.5488, 2212.052
980.0309, 2214.448
980.5131, 2216.006
980.9952, 2216.146
981.4773, 2215.375
981.9594, 2214.018
982.4415, 2212.280
982.9236, 2212.455
983.4058, 2215.357
983.8879, 2217.481
984.3700, 2214.825
984.8521, 2210.665
985.3342, 2207.947
985.8163, 2207.250
986.2985, 2207.378
986.7806, 2208.567
987.2627, 2210.126
987.7448, 2212.545
988.2269, 2214.782
988.7090, 2212.450
989.1912, 2206.710
989.6733, 2202.304
990.1554, 2203.188
990.6375, 2204.307
991.1196, 2202.865
991.6017, 2200.310
992.0839, 2199.097
992.5660, 2199.369
993.0481, 2200.548
993.5302, 2202.792
994.0123, 2204.952
994.4944, 2205.428
994.9766, 2205.054
995.4587, 2204.974
995.9408, 2205.291
996.4229, 2206.086
996.9050, 2208.679
997.3871, 2210.183
997.8693, 2208.681
998.3514, 2204.996
998.8335, 2205.063
999.3156, 2208.597
999.7977, 2210.233
1000.280, 2205.874
1000.762, 2201.025
1001.244, 2201.369
1001.726, 2204.649
1002.208, 2207.032
1002.690, 2207.532
1003.173, 2207.602
1003.655, 2207.035
1004.137, 2206.594
1004.619, 2207.234
1005.101, 2208.635
1005.583, 2209.734
1006.065, 2210.446
1006.547, 2210.820
1007.029, 2210.478
1007.512, 2210.102
1007.994, 2210.250
1008.476, 2210.672
1008.958, 2209.825
1009.440, 2207.058
1009.922, 2207.368
1010.404, 2213.579
1010.886, 2220.643
1011.369, 2221.365
1011.851, 2218.103
1012.333, 2214.678
1012.815, 2211.446
1013.297, 2209.785
1013.779, 2211.538
1014.261, 2213.006
1014.743, 2210.704
1015.225, 2205.024
1015.708, 2204.458
1016.190, 2208.696
1016.672, 2212.415
1017.154, 2211.218
1017.636, 2209.024
1018.118, 2208.073
1018.600, 2208.398
1019.082, 2210.015
1019.565, 2213.853
1020.047, 2216.109
1020.529, 2215.780
1021.011, 2214.527
1021.493, 2214.570
1021.975, 2215.419
1022.457, 2216.110
1022.939, 2216.469
1023.421, 2216.684
1023.904, 2216.401
1024.386, 2216.490
1024.868, 2217.957
1025.350, 2220.403
1025.832, 2219.107
1026.314, 2214.148
1026.796, 2210.970
1027.278, 2213.037
1027.760, 2216.846
1028.243, 2219.899
1028.725, 2222.004
1029.207, 2222.749
1029.689, 2221.174
1030.171, 2219.740
1030.653, 2218.552
1031.135, 2217.369
1031.617, 2215.226
1032.100, 2213.002
1032.582, 2214.276
1033.064, 2218.780
1033.546, 2221.353
1034.028, 2215.475
1034.510, 2210.999
1034.992, 2214.829
1035.474, 2223.218
1035.957, 2224.471
1036.439, 2218.079
1036.921, 2214.117
1037.403, 2215.420
1037.885, 2218.255
1038.367, 2218.444
1038.849, 2217.664
1039.331, 2218.174
1039.813, 2220.930
1040.296, 2222.400
1040.778, 2221.874
1041.260, 2221.059
1041.742, 2220.857
1042.224, 2221.073
1042.706, 2220.656
1043.188, 2219.983
1043.670, 2220.565
1044.152, 2224.531
1044.635, 2228.218
1045.117, 2229.852
1045.599, 2230.457
1046.081, 2231.607
1046.563, 2233.638
1047.045, 2233.147
1047.527, 2229.741
1048.009, 2226.190
1048.492, 2225.177
1048.974, 2225.234
1049.456, 2225.103
1049.938, 2224.679
1050.420, 2223.690
1050.902, 2221.819
1051.384, 2220.028
1051.866, 2218.410
1052.349, 2217.224
1052.831, 2217.369
1053.313, 2218.312
1053.795, 2218.192
1054.277, 2215.845
1054.759, 2215.305
1055.241, 2221.655
1055.723, 2227.434
1056.205, 2226.963
1056.688, 2220.481
1057.170, 2218.799
1057.652, 2221.922
1058.134, 2225.288
1058.616, 2227.395
1059.098, 2227.748
1059.580, 2224.297
1060.062, 2219.154
1060.544, 2216.432
1061.027, 2218.763
1061.509, 2218.991
1061.991, 2216.138
1062.473, 2213.195
1062.955, 2213.289
1063.437, 2215.355
1063.919, 2217.787
1064.401, 2220.226
1064.884, 2220.983
1065.366, 2217.305
1065.848, 2214.223
1066.330, 2213.720
1066.812, 2214.507
1067.294, 2213.896
1067.776, 2211.968
1068.258, 2208.976
1068.740, 2204.593
1069.223, 2201.492
1069.705, 2203.181
1070.187, 2206.054
1070.669, 2206.795
1071.151, 2205.110
1071.633, 2204.427
1072.115, 2205.018
1072.597, 2205.219
1073.079, 2204.068
1073.562, 2202.414
1074.044, 2201.442
1074.526, 2200.936
1075.008, 2200.464
1075.490, 2199.625
1075.972, 2199.385
1076.454, 2199.984
1076.936, 2200.888
1077.419, 2202.152
1077.901, 2203.409
1078.383, 2202.482
1078.865, 2199.676
1079.347, 2197.306
1079.829, 2196.700
1080.311, 2196.726
1080.793, 2197.258
1081.275, 2197.904
1081.758, 2197.998
1082.240, 2197.482
1082.722, 2197.228
1083.204, 2197.358
1083.686, 2197.470
1084.168, 2197.200
1084.650, 2196.767
1085.132, 2196.611
1085.615, 2196.697
1086.097, 2195.772
1086.579, 2193.645
1087.061, 2191.191
1087.543, 2188.625
1088.025, 2186.117
1088.507, 2183.706
1088.989, 2181.686
1089.471, 2180.544
1089.953, 2180.398
1090.436, 2181.232
1090.918, 2184.177
1091.400, 2186.479
1091.882, 2186.336
1092.364, 2184.424
1092.846, 2183.888
1093.328, 2184.490
1093.810, 2185.163
1094.293, 2185.047
1094.775, 2185.354
1095.257, 2187.941
1095.739, 2190.342
1096.221, 2189.160
1096.703, 2183.463
1097.185, 2183.321
1097.667, 2189.063
1098.150, 2194.495
1098.632, 2194.055
1099.114, 2192.085
1099.596, 2191.700
1100.078, 2192.887
1100.560, 2195.578
1101.042, 2201.316
1101.524, 2203.281
1102.006, 2199.846
1102.489, 2195.014
1102.971, 2193.473
1103.453, 2193.420
1103.935, 2191.911
1104.417, 2188.734
1104.899, 2186.286
1105.381, 2185.116
1105.863, 2184.999
1106.345, 2186.514
1106.828, 2188.334
1107.310, 2187.018
1107.792, 2183.600
1108.274, 2181.284
1108.756, 2180.973
1109.238, 2180.973
1109.720, 2180.533
1110.202, 2180.101
1110.685, 2179.813
1111.167, 2179.722
1111.649, 2180.765
1112.131, 2182.729
1112.613, 2183.464
1113.095, 2181.231
1113.577, 2178.878
1114.059, 2178.480
1114.542, 2179.079
1115.024, 2179.508
1115.506, 2179.607
1115.988, 2180.177
1116.470, 2181.272
1116.952, 2182.224
1117.434, 2182.877
1117.916, 2182.917
1118.398, 2181.191
1118.880, 2178.670
1119.363, 2177.804
1119.845, 2179.854
1120.327, 2181.748
1120.809, 2183.662
1121.291, 2184.193
1121.773, 2180.427
1122.255, 2175.010
1122.737, 2173.036
1123.220, 2174.220
1123.702, 2174.804
1124.184, 2172.820
1124.666, 2171.059
1125.148, 2169.938
1125.630, 2169.362
1126.112, 2169.149
1126.594, 2169.369
1127.077, 2170.588
1127.559, 2172.959
1128.041, 2174.485
1128.523, 2172.826
1129.005, 2171.726
1129.487, 2173.282
1129.969, 2176.342
1130.451, 2177.426
1130.933, 2176.660
1131.416, 2174.773
1131.898, 2171.415
1132.380, 2169.063
1132.862, 2170.183
1133.344, 2172.270
1133.826, 2173.048
1134.308, 2172.594
1134.790, 2174.524
1135.272, 2178.926
1135.755, 2181.544
1136.237, 2179.941
1136.719, 2177.212
1137.201, 2175.958
1137.683, 2175.493
1138.165, 2175.066
1138.647, 2174.800
1139.129, 2173.770
1139.612, 2171.903
1140.094, 2169.915
1140.576, 2168.039
1141.058, 2166.515
1141.540, 2165.479
1142.022, 2165.075
1142.504, 2165.691
1142.986, 2169.270
1143.469, 2169.834
1143.951, 2166.339
1144.433, 2162.604
1144.915, 2162.393
1145.397, 2163.954
1145.879, 2164.495
1146.361, 2163.945
1146.843, 2162.442
1147.325, 2158.361
1147.807, 2155.784
1148.290, 2155.469
1148.772, 2156.300
1149.254, 2157.276
1149.736, 2158.226
1150.218, 2158.678
1150.700, 2158.628
1151.182, 2158.505
1151.664, 2157.968
1152.147, 2158.154
1152.629, 2159.919
1153.111, 2161.915
1153.593, 2161.131
1154.075, 2158.314
1154.557, 2156.348
1155.039, 2155.667
1155.521, 2155.972
1156.004, 2158.765
1156.486, 2160.632
1156.968, 2159.583
1157.450, 2156.746
1157.932, 2155.921
1158.414, 2156.731
1158.896, 2156.095
1159.378, 2152.829
1159.860, 2150.246
1160.343, 2151.112
1160.825, 2153.043
1161.307, 2154.610
1161.789, 2155.736
1162.271, 2155.495
1162.753, 2153.979
1163.235, 2153.639
1163.717, 2156.024
1164.199, 2158.083
1164.682, 2156.857
1165.164, 2154.327
1165.646, 2152.184
1166.128, 2150.414
1166.610, 2150.241
1167.092, 2151.712
1167.574, 2153.098
1168.056, 2153.698
1168.539, 2153.616
1169.021, 2152.010
1169.503, 2150.249
1169.985, 2150.616
1170.467, 2154.085
1170.949, 2155.705
1171.431, 2155.469
1171.913, 2153.653
1172.396, 2148.839
1172.878, 2144.034
1173.360, 2142.096
1173.842, 2142.534
1174.324, 2144.698
1174.806, 2149.814
1175.288, 2152.469
1175.770, 2152.218
1176.252, 2150.992
1176.734, 2149.358
1177.217, 2148.259
1177.699, 2150.061
1178.181, 2153.332
1178.663, 2153.594
1179.145, 2147.844
1179.627, 2145.292
1180.109, 2147.154
1180.591, 2149.967
1181.074, 2151.240
1181.556, 2150.915
1182.038, 2147.526
1182.520, 2142.148
1183.002, 2140.042
1183.484, 2144.605
1183.966, 2146.743
1184.448, 2144.978
1184.931, 2141.859
1185.413, 2139.551
1185.895, 2138.177
1186.377, 2138.083
1186.859, 2139.174
1187.341, 2140.787
1187.823, 2143.960
1188.305, 2144.975
1188.787, 2142.546
1189.270, 2139.003
1189.752, 2137.237
1190.234, 2136.729
1190.716, 2136.268
1191.198, 2135.791
1191.680, 2137.486
1192.162, 2144.215
1192.644, 2148.537
1193.126, 2148.327
1193.609, 2145.705
1194.091, 2143.127
1194.573, 2141.006
1195.055, 2140.259
1195.537, 2141.083
1196.019, 2142.230
1196.501, 2144.006
1196.983, 2144.957
1197.466, 2144.358
1197.948, 2143.130
1198.430, 2143.496
1198.912, 2144.319
1199.394, 2142.546
1199.876, 2136.860
1200.358, 2134.705
1200.840, 2139.280
1201.323, 2144.530
1201.805, 2149.101
1202.287, 2151.914
1202.769, 2149.401
1203.251, 2143.685
1203.733, 2139.113
1204.215, 2136.552
1204.697, 2135.761
1205.179, 2137.696
1205.661, 2139.330
1206.144, 2139.266
1206.626, 2138.193
1207.108, 2136.875
1207.590, 2135.896
1208.072, 2136.873
1208.554, 2141.280
1209.036, 2143.931
1209.518, 2143.737
1210.001, 2142.351
1210.483, 2139.998
1210.965, 2137.494
1211.447, 2137.223
1211.929, 2138.337
1212.411, 2138.860
1212.893, 2137.423
1213.375, 2137.728
1213.858, 2141.138
1214.340, 2144.166
1214.822, 2144.637
1215.304, 2143.589
1215.786, 2143.515
1216.268, 2143.921
1216.750, 2143.665
1217.232, 2142.094
1217.714, 2140.445
1218.197, 2138.493
1218.679, 2137.216
1219.161, 2137.611
1219.643, 2138.824
1220.125, 2139.426
1220.607, 2139.295
1221.089, 2138.075
1221.571, 2133.710
1222.053, 2132.271
1222.536, 2135.043
1223.018, 2138.036
1223.500, 2138.283
1223.982, 2137.161
1224.464, 2137.785
1224.946, 2139.140
1225.428, 2138.882
1225.910, 2134.186
1226.393, 2131.607
1226.875, 2131.717
1227.357, 2132.501
1227.839, 2132.641
1228.321, 2132.417
1228.803, 2132.047
1229.285, 2131.717
1229.767, 2131.926
1230.250, 2134.228
1230.732, 2133.685
1231.214, 2129.394
1231.696, 2125.520
1232.178, 2125.811
1232.660, 2128.066
1233.142, 2130.229
1233.624, 2131.841
1234.106, 2131.636
1234.589, 2128.100
1235.071, 2126.758
1235.553, 2128.161
1236.035, 2129.510
1236.517, 2127.885
1236.999, 2125.649
1237.481, 2125.514
1237.963, 2126.869
1238.445, 2128.341
1238.928, 2129.908
1239.410, 2131.268
1239.892, 2132.485
1240.374, 2132.705
1240.856, 2130.107
1241.338, 2127.303
1241.820, 2127.343
1242.302, 2128.736
1242.785, 2128.017
1243.267, 2124.201
1243.749, 2123.752
1244.231, 2127.116
1244.713, 2129.347
1245.195, 2124.852
1245.677, 2119.913
1246.159, 2119.714
1246.641, 2122.203
1247.124, 2123.323
1247.606, 2122.885
1248.088, 2123.161
1248.570, 2124.231
1249.052, 2125.824
1249.534, 2129.214
1250.016, 2131.475
1250.498, 2129.519
1250.980, 2126.132
1251.463, 2125.233
1251.945, 2126.768
1252.427, 2126.946
1252.909, 2125.673
1253.391, 2123.599
1253.873, 2119.319
1254.355, 2116.560
1254.837, 2117.857
1255.320, 2120.747
1255.802, 2123.229
1256.284, 2125.065
1256.766, 2123.403
1257.248, 2118.864
1257.730, 2116.509
1258.212, 2121.705
1258.694, 2125.714
1259.177, 2126.028
1259.659, 2124.686
1260.141, 2123.785
1260.623, 2122.952
1261.105, 2119.953
1261.587, 2115.549
1262.069, 2113.566
1262.551, 2118.790
1263.033, 2121.669
1263.516, 2120.281
1263.998, 2117.927
1264.480, 2117.983
1264.962, 2119.346
1265.444, 2119.567
1265.926, 2119.010
1266.408, 2119.299
1266.890, 2122.360
1267.372, 2123.253
1267.855, 2121.089
1268.337, 2118.987
1268.819, 2120.113
1269.301, 2122.629
1269.783, 2124.431
1270.265, 2125.452
1270.747, 2125.496
1271.229, 2123.930
1271.712, 2123.886
1272.194, 2125.781
1272.676, 2126.948
1273.158, 2124.218
1273.640, 2120.791
1274.122, 2119.615
1274.604, 2119.905
1275.086, 2119.976
1275.568, 2119.629
1276.051, 2120.106
1276.533, 2121.448
1277.015, 2122.393
1277.497, 2121.481
1277.979, 2120.655
1278.461, 2122.302
1278.943, 2123.919
1279.425, 2121.958
1279.907, 2116.519
1280.390, 2113.054
1280.872, 2111.611
1281.354, 2111.663
1281.836, 2114.885
1282.318, 2116.982
1282.800, 2115.326
1283.282, 2113.178
1283.764, 2113.433
1284.247, 2115.597
1284.729, 2117.745
1285.211, 2119.623
1285.693, 2120.343
1286.175, 2118.680
1286.657, 2116.899
1287.139, 2114.629
1287.621, 2113.579
1288.104, 2116.433
1288.586, 2120.644
1289.068, 2120.430
1289.550, 2117.312
1290.032, 2114.816
1290.514, 2114.282
1290.996, 2113.669
1291.478, 2112.936
1291.960, 2112.375
1292.443, 2111.985
1292.925, 2112.084
1293.407, 2113.850
1293.889, 2116.038
1294.371, 2116.461
1294.853, 2114.816
1295.335, 2112.621
1295.817, 2109.810
1296.299, 2108.151
1296.782, 2109.065
1297.264, 2110.562
1297.746, 2111.473
1298.228, 2111.948
1298.710, 2112.422
1299.192, 2112.932
1299.674, 2112.117
1300.156, 2110.239
1300.639, 2108.806
1301.121, 2108.817
1301.603, 2108.621
1302.085, 2106.336
1302.567, 2105.573
1303.049, 2108.092
1303.531, 2113.520
##END=



