##NAMES=Phosgenite
##RRUFFID=R050640
##IDEAL CHEMISTRY=Pb^2+^_2_CO_3_Cl_2_
##LOCALITY=Monte Poni, Sardinia, Italy
##OWNER=RRUFF
##SOURCE=University of Arizona Mineral Museum
##DESCRIPTION=Gray rectangular prismatic crystal
##STATUS=The identification of this mineral has been confirmed by X-ray diffraction and chemical analysis
##URL=rruff.info/R050640
##MEASURED CHEMISTRY=Pb_2.00_(CO_3_)Cl_2.03_ ; C estimated by difference
89.78156, 0.0000000E+00
90.26367, 130.5946
90.74579, 130.5330
91.22791, 130.3742
91.71002, 130.1662
92.19214, 130.3549
92.67426, 131.7760
93.15638, 133.9427
93.63850, 135.4973
94.12061, 135.5340
94.60273, 134.7914
95.08485, 135.1288
95.56696, 136.6573
96.04908, 138.4933
96.53120, 139.6042
97.01331, 140.0004
97.49543, 140.2743
97.97755, 140.5183
98.45966, 140.7538
98.94178, 141.5778
99.42390, 143.2559
99.90602, 145.1424
100.3881, 145.7153
100.8703, 144.4769
101.3524, 143.7168
101.8345, 145.0595
102.3166, 149.3216
102.7987, 152.0244
103.2808, 152.3286
103.7630, 150.8650
104.2451, 150.3570
104.7272, 150.9601
105.2093, 152.3093
105.6914, 154.0890
106.1735, 155.5815
106.6557, 158.7082
107.1378, 163.6667
107.6199, 170.5154
108.1020, 178.8159
108.5841, 186.6201
109.0662, 196.9768
109.5484, 212.7017
110.0305, 236.5762
110.5126, 263.2184
110.9947, 290.7890
111.4768, 318.3714
111.9590, 352.2488
112.4411, 394.1489
112.9232, 442.6828
113.4053, 494.8082
113.8874, 546.4715
114.3695, 604.9250
114.8517, 673.0898
115.3338, 753.2335
115.8159, 837.8652
116.2980, 923.0836
116.7801, 1011.989
117.2622, 1110.354
117.7444, 1217.609
118.2265, 1337.498
118.7086, 1471.906
119.1907, 1622.904
119.6728, 1788.491
120.1549, 1969.118
120.6371, 2164.126
121.1192, 2371.742
121.6013, 2587.952
122.0834, 2815.278
122.5655, 3055.589
123.0476, 3309.806
123.5298, 3576.928
124.0119, 3857.292
124.4940, 4150.670
124.9761, 4455.114
125.4582, 4781.731
125.9404, 5116.184
126.4225, 5427.483
126.9046, 5709.938
127.3867, 5959.938
127.8688, 6169.942
128.3509, 6339.228
128.8331, 6475.507
129.3152, 6579.709
129.7973, 6655.266
130.2794, 6717.236
130.7615, 6768.745
131.2436, 6811.833
131.7258, 6851.383
132.2079, 6886.585
132.6900, 6921.167
133.1721, 6961.367
133.6542, 7007.077
134.1364, 7054.038
134.6185, 7101.853
135.1006, 7150.520
135.5827, 7194.711
136.0648, 7234.339
136.5469, 7269.454
137.0291, 7298.600
137.5112, 7320.036
137.9933, 7341.950
138.4754, 7372.895
138.9575, 7415.801
139.4396, 7446.501
139.9218, 7457.134
140.4039, 7453.513
140.8860, 7463.762
141.3681, 7489.935
141.8502, 7526.392
142.3323, 7566.857
142.8145, 7607.956
143.2966, 7662.764
143.7787, 7731.932
144.2608, 7816.143
144.7429, 7917.130
145.2250, 8038.375
145.7072, 8174.581
146.1893, 8320.588
146.6714, 8469.558
147.1535, 8638.085
147.6356, 8828.596
148.1178, 9040.721
148.5999, 9271.870
149.0820, 9526.325
149.5641, 9797.270
150.0462, 10074.59
150.5283, 10379.43
151.0105, 10666.06
151.4926, 10830.46
151.9747, 10961.70
152.4568, 11046.63
152.9389, 11097.78
153.4210, 11101.93
153.9032, 11039.46
154.3853, 10878.86
154.8674, 10681.30
155.3495, 10461.34
155.8316, 10202.29
156.3137, 9957.731
156.7959, 9731.292
157.2780, 9523.855
157.7601, 9338.512
158.2422, 9171.986
158.7243, 9027.198
159.2065, 8904.287
159.6886, 8808.215
160.1707, 8723.890
160.6528, 8645.078
161.1349, 8573.958
161.6170, 8516.818
162.0992, 8482.306
162.5813, 8458.154
163.0634, 8436.059
163.5455, 8410.800
164.0276, 8391.596
164.5097, 8380.980
164.9919, 8379.181
165.4740, 8387.464
165.9561, 8409.966
166.4382, 8441.120
166.9203, 8476.220
167.4024, 8514.470
167.8846, 8555.784
168.3667, 8599.294
168.8488, 8645.486
169.3309, 8697.600
169.8130, 8759.361
170.2952, 8827.837
170.7773, 8898.515
171.2594, 8971.053
171.7415, 9044.783
172.2236, 9121.958
172.7057, 9202.091
173.1879, 9278.861
173.6700, 9346.062
174.1521, 9406.781
174.6342, 9466.568
175.1163, 9526.531
175.5984, 9587.626
176.0806, 9653.064
176.5627, 9723.202
177.0448, 9788.028
177.5269, 9837.556
178.0090, 9874.720
178.4911, 9907.835
178.9733, 9940.657
179.4554, 9971.188
179.9375, 9992.922
180.4196, 10004.37
180.9017, 10019.95
181.3838, 10062.08
181.8660, 10123.10
182.3481, 10177.03
182.8302, 10210.53
183.3123, 10228.61
183.7944, 10246.20
184.2766, 10266.66
184.7587, 10273.32
185.2408, 10250.69
185.7229, 10198.75
186.2050, 10114.38
186.6871, 9994.559
187.1693, 9839.972
187.6514, 9659.688
188.1335, 9449.984
188.6156, 9220.002
189.0977, 8971.588
189.5798, 8706.531
190.0620, 8443.143
190.5441, 8184.145
191.0262, 7930.565
191.5083, 7692.134
191.9904, 7465.743
192.4725, 7252.846
192.9547, 7054.497
193.4368, 6868.932
193.9189, 6698.666
194.4010, 6546.567
194.8831, 6412.078
195.3652, 6286.696
195.8474, 6170.274
196.3295, 6062.077
196.8116, 5960.487
197.2937, 5865.744
197.7758, 5778.279
198.2579, 5699.707
198.7401, 5630.042
199.2222, 5566.340
199.7043, 5509.704
200.1864, 5458.397
200.6685, 5408.577
201.1507, 5360.536
201.6328, 5313.577
202.1149, 5266.710
202.5970, 5219.591
203.0791, 5175.938
203.5612, 5137.362
204.0434, 5101.938
204.5255, 5064.281
205.0076, 5023.281
205.4897, 4983.982
205.9718, 4949.765
206.4539, 4921.263
206.9361, 4894.490
207.4182, 4869.751
207.9003, 4846.337
208.3824, 4821.012
208.8645, 4793.239
209.3466, 4764.856
209.8288, 4735.803
210.3109, 4704.906
210.7930, 4678.688
211.2751, 4658.610
211.7572, 4643.447
212.2393, 4628.282
212.7215, 4613.519
213.2036, 4598.148
213.6857, 4580.945
214.1678, 4560.458
214.6499, 4542.835
215.1320, 4528.954
215.6142, 4518.097
216.0963, 4508.050
216.5784, 4499.987
217.0605, 4490.565
217.5426, 4476.373
218.0247, 4454.008
218.5069, 4437.665
218.9890, 4430.538
219.4711, 4430.526
219.9532, 4427.440
220.4353, 4420.287
220.9175, 4411.743
221.3996, 4402.942
221.8817, 4392.941
222.3638, 4385.573
222.8459, 4382.205
223.3280, 4381.871
223.8102, 4379.872
224.2923, 4375.575
224.7744, 4370.493
225.2565, 4365.309
225.7386, 4359.201
226.2207, 4355.027
226.7029, 4354.162
227.1850, 4355.562
227.6671, 4353.784
228.1492, 4347.266
228.6313, 4339.778
229.1134, 4333.387
229.5956, 4327.591
230.0777, 4324.049
230.5598, 4323.783
231.0419, 4326.029
231.5240, 4327.002
232.0062, 4326.783
232.4883, 4325.300
232.9704, 4321.893
233.4525, 4313.786
233.9346, 4310.197
234.4167, 4313.696
234.8989, 4322.498
235.3810, 4328.014
235.8631, 4328.391
236.3452, 4327.926
236.8273, 4328.747
237.3094, 4329.993
237.7916, 4334.330
238.2737, 4343.182
238.7558, 4355.260
239.2379, 4365.417
239.7200, 4373.048
240.2021, 4379.495
240.6843, 4385.510
241.1664, 4391.175
241.6485, 4396.086
242.1306, 4399.212
242.6127, 4401.654
243.0948, 4407.571
243.5770, 4418.652
244.0591, 4431.097
244.5412, 4443.153
245.0233, 4455.595
245.5054, 4466.083
245.9876, 4472.788
246.4697, 4477.782
246.9518, 4488.688
247.4339, 4510.819
247.9160, 4531.012
248.3981, 4542.596
248.8803, 4542.936
249.3624, 4541.002
249.8445, 4536.570
250.3266, 4529.969
250.8087, 4522.679
251.2908, 4517.231
251.7730, 4506.909
252.2551, 4488.830
252.7372, 4462.056
253.2193, 4429.188
253.7014, 4389.188
254.1835, 4343.813
254.6657, 4297.302
255.1478, 4249.554
255.6299, 4200.719
256.1120, 4149.571
256.5941, 4094.451
257.0763, 4043.600
257.5584, 3997.251
258.0405, 3954.525
258.5226, 3914.329
259.0047, 3876.197
259.4868, 3840.911
259.9690, 3809.269
260.4511, 3781.797
260.9332, 3755.246
261.4153, 3727.776
261.8974, 3702.497
262.3795, 3686.235
262.8617, 3682.922
263.3438, 3678.697
263.8259, 3667.506
264.3080, 3647.581
264.7901, 3634.016
265.2722, 3628.505
265.7544, 3627.281
266.2365, 3625.318
266.7186, 3622.520
267.2007, 3619.199
267.6828, 3614.841
268.1649, 3609.177
268.6471, 3606.817
269.1292, 3608.291
269.6113, 3612.180
270.0934, 3616.623
270.5755, 3621.357
271.0576, 3627.944
271.5398, 3637.314
272.0219, 3649.447
272.5040, 3660.208
272.9861, 3668.691
273.4682, 3677.469
273.9503, 3689.429
274.4325, 3704.852
274.9146, 3721.623
275.3967, 3739.517
275.8788, 3758.484
276.3610, 3777.556
276.8431, 3797.206
277.3252, 3814.985
277.8073, 3828.307
278.2894, 3836.967
278.7715, 3844.147
279.2537, 3851.692
279.7358, 3858.081
280.2179, 3857.608
280.7000, 3850.474
281.1821, 3835.587
281.6642, 3810.568
282.1464, 3775.388
282.6285, 3737.342
283.1106, 3698.134
283.5927, 3656.333
284.0748, 3607.091
284.5569, 3549.604
285.0391, 3489.686
285.5212, 3428.702
286.0033, 3367.094
286.4854, 3311.272
286.9675, 3263.357
287.4496, 3219.466
287.9318, 3170.654
288.4139, 3116.405
288.8960, 3065.306
289.3781, 3022.969
289.8602, 2987.845
290.3423, 2951.520
290.8245, 2912.524
291.3066, 2874.056
291.7887, 2841.432
292.2708, 2814.312
292.7529, 2790.770
293.2350, 2771.777
293.7172, 2755.756
294.1993, 2738.531
294.6814, 2719.736
295.1635, 2699.967
295.6456, 2678.206
296.1277, 2655.506
296.6099, 2636.764
297.0920, 2627.332
297.5741, 2622.987
298.0562, 2615.216
298.5383, 2603.704
299.0204, 2592.149
299.5026, 2584.797
299.9847, 2580.444
300.4668, 2575.665
300.9489, 2569.571
301.4311, 2562.189
301.9132, 2552.734
302.3953, 2541.267
302.8774, 2531.009
303.3595, 2524.372
303.8416, 2520.687
304.3238, 2518.841
304.8059, 2520.408
305.2880, 2521.863
305.7701, 2518.796
306.2522, 2511.834
306.7343, 2505.023
307.2165, 2500.946
307.6986, 2498.513
308.1807, 2496.412
308.6628, 2494.447
309.1449, 2492.417
309.6270, 2489.771
310.1092, 2486.777
310.5913, 2484.421
311.0734, 2484.604
311.5555, 2484.892
312.0376, 2482.935
312.5197, 2477.620
313.0019, 2471.867
313.4840, 2466.031
313.9661, 2460.901
314.4482, 2458.015
314.9303, 2461.809
315.4124, 2465.383
315.8946, 2463.831
316.3767, 2455.569
316.8588, 2447.453
317.3409, 2441.466
317.8230, 2437.473
318.3051, 2435.296
318.7873, 2437.907
319.2694, 2439.667
319.7515, 2437.794
320.2336, 2431.900
320.7157, 2425.922
321.1978, 2420.320
321.6800, 2415.451
322.1621, 2411.658
322.6442, 2409.550
323.1263, 2407.931
323.6084, 2406.789
324.0905, 2406.058
324.5727, 2404.956
325.0548, 2402.879
325.5369, 2400.743
326.0190, 2399.114
326.5012, 2399.318
326.9833, 2398.577
327.4654, 2396.619
327.9475, 2393.564
328.4296, 2389.836
328.9117, 2383.190
329.3939, 2377.865
329.8760, 2375.742
330.3581, 2379.363
330.8402, 2381.478
331.3223, 2382.169
331.8044, 2381.284
332.2866, 2378.165
332.7687, 2370.073
333.2508, 2363.715
333.7329, 2361.618
334.2150, 2364.890
334.6971, 2367.034
335.1793, 2368.136
335.6614, 2368.058
336.1435, 2366.355
336.6256, 2362.261
337.1077, 2358.660
337.5898, 2356.357
338.0720, 2355.326
338.5541, 2355.288
339.0362, 2357.065
339.5183, 2358.199
340.0004, 2355.843
340.4825, 2349.359
340.9647, 2343.950
341.4468, 2340.396
341.9289, 2338.580
342.4110, 2338.525
342.8931, 2340.453
343.3752, 2342.509
343.8574, 2343.017
344.3395, 2342.096
344.8216, 2342.353
345.3037, 2344.375
345.7858, 2346.866
346.2679, 2347.590
346.7501, 2346.589
347.2322, 2344.909
347.7143, 2342.302
348.1964, 2339.370
348.6785, 2338.073
349.1607, 2338.536
349.6428, 2340.269
350.1249, 2344.278
350.6070, 2349.415
351.0891, 2352.041
351.5713, 2348.765
352.0534, 2343.056
352.5355, 2339.998
353.0176, 2339.579
353.4997, 2339.936
353.9818, 2340.576
354.4640, 2340.859
354.9461, 2339.754
355.4282, 2336.751
355.9103, 2332.572
356.3924, 2326.148
356.8745, 2318.513
357.3567, 2313.842
357.8388, 2317.536
358.3209, 2323.472
358.8030, 2326.147
359.2851, 2323.598
359.7672, 2320.342
360.2494, 2317.802
360.7315, 2316.313
361.2136, 2316.505
361.6957, 2320.673
362.1778, 2324.879
362.6599, 2326.809
363.1421, 2325.927
363.6242, 2325.485
364.1063, 2327.424
364.5884, 2329.860
365.0705, 2330.850
365.5526, 2327.159
366.0348, 2324.913
366.5169, 2326.501
366.9990, 2331.625
367.4811, 2335.074
367.9632, 2334.705
368.4453, 2333.653
368.9275, 2333.711
369.4096, 2336.130
369.8917, 2337.954
370.3738, 2338.823
370.8559, 2339.082
371.3380, 2339.802
371.8202, 2342.241
372.3023, 2343.421
372.7844, 2341.505
373.2665, 2334.866
373.7487, 2332.207
374.2308, 2335.630
374.7129, 2340.937
375.1950, 2341.718
375.6771, 2335.755
376.1592, 2332.589
376.6414, 2336.008
377.1235, 2345.030
377.6056, 2349.216
378.0877, 2347.533
378.5698, 2344.588
379.0519, 2344.736
379.5341, 2348.008
380.0162, 2350.243
380.4983, 2350.601
380.9804, 2349.696
381.4625, 2348.137
381.9446, 2345.943
382.4268, 2345.396
382.9089, 2349.379
383.3910, 2356.229
383.8731, 2360.285
384.3552, 2360.690
384.8373, 2360.183
385.3195, 2361.558
385.8016, 2364.564
386.2837, 2368.530
386.7658, 2374.578
387.2479, 2380.676
387.7300, 2383.686
388.2122, 2383.719
388.6943, 2383.864
389.1764, 2387.366
389.6585, 2391.997
390.1406, 2394.657
390.6227, 2392.812
391.1049, 2391.185
391.5870, 2393.898
392.0691, 2399.538
392.5512, 2403.845
393.0333, 2403.790
393.5154, 2402.532
393.9976, 2401.712
394.4797, 2401.165
394.9618, 2402.459
395.4439, 2408.655
395.9260, 2416.272
396.4081, 2420.666
396.8903, 2417.055
397.3724, 2413.964
397.8545, 2413.675
398.3366, 2416.329
398.8188, 2420.139
399.3009, 2427.652
399.7830, 2434.513
400.2651, 2437.765
400.7472, 2432.562
401.2293, 2431.164
401.7115, 2436.351
402.1936, 2445.517
402.6757, 2450.581
403.1578, 2449.626
403.6399, 2447.823
404.1220, 2447.226
404.6042, 2447.981
405.0863, 2448.966
405.5684, 2450.093
406.0505, 2451.552
406.5326, 2453.800
407.0147, 2457.007
407.4969, 2459.766
407.9790, 2461.473
408.4611, 2462.535
408.9432, 2465.223
409.4253, 2469.806
409.9074, 2473.180
410.3896, 2471.454
410.8717, 2466.046
411.3538, 2463.431
411.8359, 2464.964
412.3180, 2468.624
412.8001, 2472.722
413.2823, 2476.803
413.7644, 2479.354
414.2465, 2477.426
414.7286, 2474.406
415.2107, 2475.948
415.6928, 2482.440
416.1750, 2487.714
416.6571, 2485.483
417.1392, 2479.603
417.6213, 2475.206
418.1034, 2474.449
418.5855, 2475.198
419.0677, 2477.020
419.5498, 2479.569
420.0319, 2481.453
420.5140, 2482.118
420.9961, 2481.973
421.4782, 2481.065
421.9604, 2478.877
422.4425, 2477.377
422.9246, 2477.312
423.4067, 2478.101
423.8889, 2478.949
424.3710, 2479.506
424.8531, 2480.400
425.3352, 2482.282
425.8173, 2485.175
426.2994, 2486.242
426.7816, 2484.531
427.2637, 2481.946
427.7458, 2479.543
428.2279, 2476.841
428.7100, 2475.477
429.1921, 2475.815
429.6743, 2477.383
430.1564, 2479.551
430.6385, 2482.883
431.1206, 2484.575
431.6027, 2482.051
432.0848, 2475.658
432.5670, 2475.203
433.0491, 2481.873
433.5312, 2489.645
434.0133, 2491.790
434.4954, 2489.063
434.9775, 2486.441
435.4597, 2485.095
435.9418, 2484.592
436.4239, 2484.005
436.9060, 2483.479
437.3881, 2483.886
437.8702, 2486.747
438.3524, 2490.516
438.8345, 2492.712
439.3166, 2492.831
439.7987, 2492.898
440.2808, 2494.786
440.7629, 2497.606
441.2451, 2499.969
441.7272, 2502.594
442.2093, 2503.474
442.6914, 2500.778
443.1735, 2494.969
443.6556, 2489.146
444.1378, 2482.953
444.6199, 2478.129
445.1020, 2476.019
445.5841, 2478.253
446.0662, 2480.474
446.5483, 2481.996
447.0305, 2483.242
447.5126, 2484.931
447.9947, 2488.183
448.4768, 2490.527
448.9590, 2491.178
449.4411, 2490.081
449.9232, 2489.140
450.4053, 2488.188
450.8874, 2487.550
451.3695, 2487.523
451.8517, 2488.214
452.3338, 2489.049
452.8159, 2490.324
453.2980, 2491.246
453.7801, 2489.680
454.2622, 2485.434
454.7444, 2481.603
455.2265, 2479.926
455.7086, 2479.869
456.1907, 2479.120
456.6728, 2477.619
457.1549, 2476.272
457.6371, 2476.094
458.1192, 2476.704
458.6013, 2477.252
459.0834, 2477.772
459.5655, 2477.711
460.0476, 2475.938
460.5298, 2472.975
461.0119, 2470.457
461.4940, 2469.409
461.9761, 2468.967
462.4582, 2468.417
462.9403, 2467.663
463.4225, 2467.269
463.9046, 2468.602
464.3867, 2469.917
464.8688, 2469.534
465.3509, 2465.270
465.8330, 2461.337
466.3152, 2458.869
466.7973, 2457.477
467.2794, 2455.727
467.7615, 2452.000
468.2436, 2449.411
468.7257, 2449.543
469.2079, 2453.498
469.6900, 2454.860
470.1721, 2452.084
470.6542, 2448.365
471.1363, 2447.199
471.6184, 2449.233
472.1006, 2451.258
472.5827, 2452.795
473.0648, 2453.917
473.5469, 2455.461
474.0291, 2457.664
474.5112, 2457.664
474.9933, 2451.307
475.4754, 2440.856
475.9575, 2437.229
476.4396, 2441.517
476.9218, 2447.168
477.4039, 2445.842
477.8860, 2440.509
478.3681, 2438.311
478.8502, 2443.331
479.3323, 2450.125
479.8145, 2453.187
480.2966, 2453.389
480.7787, 2453.888
481.2608, 2457.726
481.7429, 2461.454
482.2250, 2462.311
482.7072, 2459.477
483.1893, 2456.709
483.6714, 2456.012
484.1535, 2455.712
484.6356, 2454.136
485.1177, 2448.344
485.5999, 2444.361
486.0820, 2443.474
486.5641, 2445.204
487.0462, 2447.975
487.5283, 2453.045
488.0104, 2457.550
488.4926, 2460.318
488.9747, 2461.068
489.4568, 2461.813
489.9389, 2462.516
490.4210, 2463.278
490.9031, 2464.450
491.3853, 2466.107
491.8674, 2466.449
492.3495, 2464.148
492.8316, 2461.426
493.3137, 2464.106
493.7958, 2471.710
494.2780, 2479.010
494.7601, 2482.982
495.2422, 2484.500
495.7243, 2484.345
496.2064, 2482.451
496.6885, 2481.485
497.1707, 2484.629
497.6528, 2489.684
498.1349, 2493.558
498.6170, 2494.416
499.0992, 2495.347
499.5813, 2498.536
500.0634, 2503.113
500.5455, 2506.966
501.0276, 2509.523
501.5097, 2511.111
501.9919, 2511.890
502.4740, 2511.879
502.9561, 2510.928
503.4382, 2507.466
503.9203, 2504.180
504.4024, 2502.944
504.8846, 2504.605
505.3667, 2506.769
505.8488, 2510.062
506.3309, 2513.314
506.8130, 2513.570
507.2951, 2510.163
507.7773, 2506.792
508.2594, 2504.653
508.7415, 2503.711
509.2236, 2503.901
509.7057, 2505.301
510.1878, 2506.919
510.6700, 2508.501
511.1521, 2509.690
511.6342, 2508.808
512.1163, 2504.854
512.5984, 2501.554
513.0806, 2503.762
513.5627, 2509.513
514.0448, 2514.699
514.5269, 2517.997
515.0090, 2519.703
515.4911, 2519.263
515.9733, 2517.008
516.4554, 2515.166
516.9375, 2513.761
517.4196, 2513.581
517.9017, 2515.611
518.3839, 2521.942
518.8660, 2525.535
519.3481, 2522.893
519.8302, 2518.391
520.3123, 2516.792
520.7944, 2520.030
521.2766, 2522.617
521.7587, 2523.344
522.2408, 2522.911
522.7229, 2524.599
523.2050, 2529.415
523.6871, 2532.813
524.1693, 2530.923
524.6514, 2524.490
525.1335, 2522.866
525.6156, 2526.477
526.0977, 2532.221
526.5798, 2539.014
527.0620, 2545.599
527.5441, 2547.387
528.0262, 2541.175
528.5083, 2534.155
528.9904, 2534.858
529.4725, 2540.842
529.9547, 2546.230
530.4368, 2547.136
530.9189, 2547.186
531.4010, 2549.176
531.8831, 2553.127
532.3652, 2555.432
532.8474, 2552.237
533.3295, 2548.875
533.8116, 2548.948
534.2937, 2556.571
534.7758, 2561.289
535.2579, 2561.482
535.7401, 2559.380
536.2222, 2558.062
536.7043, 2557.565
537.1864, 2557.909
537.6685, 2559.437
538.1506, 2561.832
538.6328, 2563.344
539.1149, 2563.872
539.5970, 2564.421
540.0791, 2566.031
540.5612, 2568.301
541.0433, 2568.652
541.5255, 2566.734
542.0076, 2565.312
542.4897, 2567.923
542.9718, 2572.891
543.4539, 2577.124
543.9360, 2580.426
544.4182, 2581.434
544.9003, 2576.323
545.3824, 2568.039
545.8645, 2563.160
546.3466, 2566.622
546.8287, 2571.991
547.3109, 2577.190
547.7930, 2582.040
548.2751, 2584.899
548.7572, 2585.102
549.2393, 2583.531
549.7214, 2580.276
550.2036, 2572.950
550.6857, 2569.716
551.1678, 2572.446
551.6499, 2577.421
552.1320, 2579.088
552.6141, 2576.803
553.0963, 2575.939
553.5784, 2578.731
554.0605, 2582.937
554.5426, 2581.942
555.0247, 2576.020
555.5068, 2569.918
555.9890, 2565.501
556.4711, 2563.119
556.9532, 2564.537
557.4353, 2569.773
557.9174, 2574.470
558.3995, 2574.647
558.8817, 2572.772
559.3638, 2571.551
559.8459, 2572.013
560.3281, 2572.379
560.8102, 2572.038
561.2923, 2571.133
561.7744, 2569.887
562.2565, 2566.091
562.7386, 2564.527
563.2208, 2567.556
563.7029, 2574.216
564.1850, 2577.783
564.6671, 2577.237
565.1492, 2575.375
565.6313, 2573.044
566.1135, 2570.105
566.5956, 2568.989
567.0777, 2569.902
567.5598, 2571.927
568.0419, 2574.881
568.5240, 2578.338
569.0062, 2580.146
569.4883, 2579.542
569.9704, 2577.896
570.4525, 2576.688
570.9346, 2575.808
571.4167, 2575.017
571.8989, 2573.054
572.3810, 2572.077
572.8631, 2574.787
573.3452, 2580.448
573.8273, 2584.247
574.3094, 2581.949
574.7916, 2579.193
575.2737, 2579.657
575.7558, 2585.858
576.2379, 2588.048
576.7200, 2583.083
577.2021, 2576.451
577.6843, 2572.969
578.1664, 2573.561
578.6485, 2574.483
579.1306, 2575.069
579.6127, 2576.076
580.0948, 2579.891
580.5770, 2586.499
581.0591, 2591.551
581.5412, 2592.433
582.0233, 2591.077
582.5054, 2592.118
582.9875, 2595.184
583.4697, 2597.523
583.9518, 2595.951
584.4339, 2593.371
584.9160, 2593.405
585.3981, 2596.792
585.8802, 2599.544
586.3624, 2599.798
586.8445, 2598.429
587.3266, 2596.214
587.8087, 2590.903
588.2908, 2587.877
588.7729, 2589.535
589.2551, 2593.375
589.7372, 2594.997
590.2193, 2592.492
590.7014, 2591.619
591.1835, 2594.530
591.6656, 2600.157
592.1478, 2602.481
592.6299, 2601.009
593.1120, 2599.583
593.5941, 2601.266
594.0762, 2604.917
594.5583, 2606.166
595.0405, 2604.806
595.5226, 2602.669
596.0047, 2600.236
596.4868, 2598.439
596.9689, 2599.050
597.4510, 2603.690
597.9332, 2607.688
598.4153, 2608.125
598.8974, 2606.331
599.3795, 2604.310
599.8616, 2600.137
600.3438, 2598.512
600.8259, 2602.897
601.3080, 2611.252
601.7901, 2615.263
602.2722, 2612.531
602.7543, 2609.322
603.2365, 2607.553
603.7186, 2607.202
604.2007, 2608.572
604.6828, 2611.881
605.1649, 2615.516
605.6470, 2618.190
606.1292, 2619.997
606.6113, 2622.111
607.0934, 2624.969
607.5755, 2625.895
608.0576, 2619.026
608.5398, 2608.928
609.0219, 2603.749
609.5040, 2609.421
609.9861, 2615.950
610.4683, 2618.267
610.9504, 2617.459
611.4325, 2615.837
611.9146, 2613.844
612.3967, 2611.399
612.8788, 2607.609
613.3610, 2602.844
613.8431, 2601.031
614.3252, 2603.018
614.8073, 2606.637
615.2894, 2611.222
615.7715, 2616.826
616.2537, 2622.470
616.7358, 2628.647
617.2179, 2632.309
617.7000, 2627.689
618.1821, 2617.523
618.6642, 2611.229
619.1464, 2609.998
619.6285, 2613.890
620.1106, 2628.926
620.5927, 2648.060
621.0748, 2659.155
621.5569, 2651.846
622.0391, 2641.401
622.5212, 2633.189
623.0033, 2627.025
623.4854, 2622.231
623.9675, 2618.347
624.4496, 2616.370
624.9318, 2617.304
625.4139, 2621.098
625.8960, 2623.440
626.3781, 2624.182
626.8602, 2623.869
627.3423, 2621.820
627.8245, 2618.178
628.3066, 2618.548
628.7887, 2623.513
629.2708, 2629.478
629.7529, 2632.778
630.2350, 2634.171
630.7172, 2635.630
631.1993, 2637.883
631.6814, 2639.294
632.1635, 2636.896
632.6456, 2633.094
633.1277, 2631.698
633.6099, 2637.010
634.0920, 2641.675
634.5741, 2642.734
635.0562, 2641.190
635.5383, 2641.089
636.0204, 2643.517
636.5026, 2646.060
636.9847, 2648.016
637.4668, 2649.458
637.9489, 2651.539
638.4310, 2654.724
638.9131, 2656.701
639.3953, 2655.016
639.8774, 2650.630
640.3595, 2647.522
640.8416, 2645.792
641.3237, 2646.212
641.8058, 2652.354
642.2880, 2660.093
642.7701, 2662.589
643.2522, 2655.786
643.7343, 2650.731
644.2164, 2654.679
644.6985, 2663.152
645.1807, 2670.154
645.6628, 2672.937
646.1449, 2676.050
646.6270, 2681.241
647.1091, 2686.960
647.5912, 2687.961
648.0734, 2680.676
648.5555, 2678.841
649.0376, 2687.624
649.5197, 2705.285
650.0018, 2720.952
650.4839, 2734.907
650.9661, 2759.602
651.4482, 2802.025
651.9303, 2861.193
652.4124, 2942.863
652.8945, 3046.478
653.3766, 3144.227
653.8588, 3224.947
654.3409, 3287.199
654.8230, 3326.843
655.3051, 3333.107
655.7872, 3345.086
656.2693, 3370.719
656.7515, 3406.409
657.2336, 3448.476
657.7158, 3497.441
658.1979, 3550.165
658.6800, 3601.464
659.1621, 3661.852
659.6442, 3744.473
660.1263, 3848.561
660.6085, 3994.614
661.0906, 4200.474
661.5727, 4436.222
662.0548, 4656.596
662.5369, 4864.615
663.0190, 5071.994
663.5012, 5260.271
663.9833, 5469.708
664.4654, 5712.896
664.9475, 5995.543
665.4296, 6367.580
665.9117, 6887.876
666.3939, 7464.900
666.8760, 8195.888
667.3581, 9220.145
667.8402, 9452.127
668.3223, 8643.934
668.8044, 7439.083
669.2866, 6202.478
669.7687, 4913.017
670.2508, 3983.979
670.7329, 3462.444
671.2150, 3181.783
671.6971, 3007.530
672.1793, 2917.711
672.6614, 2861.894
673.1435, 2834.852
673.6256, 2819.352
674.1077, 2804.512
674.5898, 2791.004
675.0720, 2780.068
675.5541, 2774.023
676.0362, 2768.262
676.5183, 2761.227
677.0004, 2753.693
677.4825, 2747.599
677.9647, 2743.042
678.4468, 2740.000
678.9289, 2738.716
679.4110, 2738.983
679.8931, 2740.265
680.3752, 2742.711
680.8574, 2743.852
681.3395, 2739.877
681.8216, 2734.246
682.3037, 2735.901
682.7858, 2744.299
683.2679, 2751.323
683.7501, 2749.246
684.2322, 2744.969
684.7143, 2744.671
685.1964, 2749.856
685.6785, 2754.122
686.1606, 2754.173
686.6428, 2753.811
687.1249, 2756.052
687.6070, 2763.538
688.0891, 2767.224
688.5712, 2765.748
689.0533, 2762.730
689.5355, 2762.938
690.0176, 2766.224
690.4997, 2768.180
690.9818, 2767.703
691.4639, 2766.621
691.9460, 2768.273
692.4282, 2771.169
692.9103, 2771.897
693.3924, 2767.051
693.8745, 2762.145
694.3566, 2759.650
694.8387, 2759.478
695.3209, 2761.461
695.8030, 2767.157
696.2851, 2773.247
696.7672, 2779.992
697.2493, 2786.691
697.7314, 2788.960
698.2136, 2785.438
698.6957, 2781.942
699.1778, 2781.378
699.6599, 2782.885
700.1420, 2782.043
700.6241, 2779.029
701.1063, 2777.061
701.5884, 2780.110
702.0705, 2784.605
702.5526, 2785.066
703.0347, 2781.161
703.5168, 2779.586
703.9990, 2787.299
704.4811, 2795.971
704.9632, 2799.254
705.4453, 2793.473
705.9274, 2791.103
706.4095, 2794.017
706.8917, 2798.301
707.3738, 2800.279
707.8560, 2799.466
708.3381, 2801.153
708.8202, 2806.438
709.3023, 2811.831
709.7844, 2812.003
710.2665, 2808.693
710.7487, 2806.802
711.2308, 2807.759
711.7129, 2809.961
712.1950, 2814.530
712.6771, 2818.898
713.1592, 2819.176
713.6414, 2807.325
714.1235, 2799.167
714.6056, 2801.382
715.0877, 2809.026
715.5698, 2812.242
716.0519, 2809.061
716.5341, 2806.607
717.0162, 2806.905
717.4983, 2808.819
717.9804, 2808.568
718.4625, 2806.378
718.9446, 2805.621
719.4268, 2810.790
719.9089, 2816.387
720.3910, 2813.955
720.8731, 2805.160
721.3552, 2796.962
721.8373, 2792.770
722.3195, 2790.266
722.8016, 2789.263
723.2837, 2789.739
723.7658, 2787.539
724.2479, 2780.390
724.7300, 2773.581
725.2122, 2769.765
725.6943, 2768.998
726.1764, 2767.642
726.6585, 2765.563
727.1406, 2763.637
727.6227, 2762.591
728.1049, 2762.169
728.5870, 2762.020
729.0691, 2762.128
729.5512, 2761.735
730.0333, 2758.867
730.5154, 2756.055
730.9976, 2756.035
731.4797, 2760.372
731.9618, 2763.959
732.4439, 2766.382
732.9260, 2767.373
733.4081, 2766.473
733.8903, 2763.045
734.3724, 2759.750
734.8545, 2756.515
735.3366, 2754.009
735.8187, 2753.392
736.3008, 2754.349
736.7830, 2755.537
737.2651, 2756.800
737.7472, 2757.797
738.2293, 2757.939
738.7114, 2757.651
739.1935, 2757.577
739.6757, 2758.519
740.1578, 2758.892
740.6399, 2756.669
741.1220, 2754.038
741.6041, 2755.064
742.0862, 2762.651
742.5684, 2767.083
743.0505, 2765.652
743.5326, 2761.403
744.0147, 2761.452
744.4968, 2765.485
744.9789, 2769.576
745.4611, 2772.823
745.9432, 2774.769
746.4253, 2774.257
746.9074, 2771.985
747.3895, 2769.724
747.8716, 2767.692
748.3538, 2766.501
748.8359, 2766.913
749.3180, 2768.606
749.8001, 2769.710
750.2822, 2769.544
750.7643, 2769.950
751.2465, 2771.469
751.7286, 2774.030
752.2107, 2777.731
752.6928, 2782.638
753.1749, 2786.315
753.6570, 2785.617
754.1392, 2783.571
754.6213, 2786.202
755.1034, 2792.605
755.5855, 2797.491
756.0676, 2796.312
756.5498, 2794.187
757.0319, 2794.531
757.5140, 2797.594
757.9962, 2798.487
758.4783, 2795.252
758.9604, 2792.181
759.4425, 2791.215
759.9246, 2792.294
760.4067, 2793.460
760.8889, 2794.722
761.3710, 2795.867
761.8531, 2796.973
762.3352, 2797.797
762.8173, 2797.530
763.2994, 2796.208
763.7816, 2795.405
764.2637, 2796.395
764.7458, 2798.133
765.2279, 2800.389
765.7100, 2803.798
766.1921, 2804.345
766.6743, 2799.593
767.1564, 2794.827
767.6385, 2793.733
768.1206, 2796.832
768.6027, 2798.236
769.0848, 2797.559
769.5670, 2797.264
770.0491, 2801.226
770.5312, 2806.779
771.0133, 2807.319
771.4954, 2801.454
771.9775, 2797.778
772.4597, 2804.989
772.9418, 2814.698
773.4239, 2819.585
773.9060, 2816.041
774.3881, 2814.099
774.8702, 2814.688
775.3524, 2816.370
775.8345, 2818.217
776.3166, 2820.323
776.7987, 2821.731
777.2808, 2822.350
777.7629, 2822.525
778.2451, 2821.363
778.7272, 2820.294
779.2093, 2822.868
779.6914, 2830.699
780.1735, 2837.782
780.6556, 2838.776
781.1378, 2838.115
781.6199, 2840.247
782.1020, 2849.812
782.5841, 2855.157
783.0662, 2854.247
783.5483, 2851.323
784.0305, 2851.089
784.5126, 2853.629
784.9947, 2855.998
785.4768, 2858.030
785.9589, 2859.008
786.4410, 2856.806
786.9232, 2853.265
787.4053, 2851.748
787.8874, 2853.473
788.3695, 2856.249
788.8516, 2858.905
789.3337, 2862.099
789.8159, 2866.786
790.2980, 2875.387
790.7801, 2881.060
791.2622, 2882.775
791.7443, 2882.583
792.2264, 2883.074
792.7086, 2884.182
793.1907, 2884.617
793.6728, 2884.043
794.1549, 2883.278
794.6370, 2882.165
795.1191, 2881.793
795.6013, 2884.297
796.0834, 2892.492
796.5655, 2899.110
797.0476, 2902.446
797.5297, 2902.371
798.0118, 2898.501
798.4940, 2887.540
798.9761, 2880.739
799.4582, 2879.773
799.9403, 2881.547
800.4224, 2882.171
800.9045, 2881.790
801.3867, 2881.217
801.8688, 2880.465
802.3509, 2880.078
802.8330, 2880.649
803.3151, 2881.899
803.7972, 2883.574
804.2794, 2887.065
804.7615, 2888.533
805.2436, 2884.359
805.7258, 2879.369
806.2079, 2878.751
806.6900, 2883.381
807.1721, 2889.940
807.6542, 2899.482
808.1364, 2906.972
808.6185, 2903.104
809.1006, 2891.551
809.5827, 2883.313
810.0648, 2881.355
810.5469, 2881.380
811.0291, 2881.023
811.5112, 2880.490
811.9933, 2879.991
812.4754, 2878.866
812.9575, 2879.053
813.4396, 2882.078
813.9218, 2885.029
814.4039, 2883.632
814.8860, 2877.413
815.3681, 2875.083
815.8502, 2878.135
816.3323, 2882.871
816.8145, 2885.782
817.2966, 2887.110
817.7787, 2887.093
818.2608, 2885.373
818.7429, 2883.783
819.2250, 2880.480
819.7072, 2879.248
820.1893, 2884.624
820.6714, 2902.359
821.1535, 2913.805
821.6356, 2917.422
822.1177, 2917.481
822.5999, 2918.122
823.0820, 2919.191
823.5641, 2919.210
824.0462, 2917.712
824.5283, 2917.523
825.0104, 2923.681
825.4926, 2931.380
825.9747, 2934.470
826.4568, 2930.076
826.9389, 2926.991
827.4210, 2925.418
827.9031, 2927.296
828.3853, 2935.038
828.8674, 2950.518
829.3495, 2961.628
829.8316, 2967.100
830.3137, 2973.107
830.7958, 2987.515
831.2780, 3006.217
831.7601, 3019.910
832.2422, 3027.322
832.7243, 3034.586
833.2064, 3041.477
833.6885, 3052.572
834.1707, 3075.002
834.6528, 3116.462
835.1349, 3138.337
835.6170, 3138.701
836.0991, 3122.842
836.5812, 3088.262
837.0634, 3036.811
837.5455, 2996.141
838.0276, 2965.974
838.5097, 2944.332
838.9918, 2932.026
839.4739, 2925.353
839.9561, 2920.820
840.4382, 2918.055
840.9203, 2916.988
841.4024, 2918.908
841.8845, 2921.273
842.3666, 2923.481
842.8488, 2925.489
843.3309, 2924.469
843.8130, 2920.001
844.2951, 2914.981
844.7772, 2909.447
845.2593, 2905.117
845.7415, 2908.017
846.2236, 2916.698
846.7057, 2923.196
847.1878, 2921.032
847.6699, 2917.374
848.1520, 2916.702
848.6342, 2918.590
849.1163, 2917.538
849.5984, 2909.909
850.0805, 2906.648
850.5626, 2913.017
851.0447, 2925.355
851.5269, 2931.464
852.0090, 2931.915
852.4911, 2931.506
852.9732, 2931.645
853.4553, 2932.804
853.9374, 2936.921
854.4196, 2942.365
854.9017, 2945.150
855.3839, 2939.339
855.8660, 2936.860
856.3481, 2942.899
856.8302, 2952.163
857.3123, 2951.216
857.7944, 2938.953
858.2766, 2931.712
858.7587, 2934.864
859.2408, 2942.057
859.7229, 2944.674
860.2050, 2944.326
860.6871, 2944.207
861.1693, 2945.743
861.6514, 2947.193
862.1335, 2947.491
862.6156, 2947.582
863.0977, 2948.844
863.5798, 2952.120
864.0620, 2953.970
864.5441, 2953.683
865.0262, 2952.941
865.5083, 2953.820
865.9904, 2955.994
866.4725, 2958.668
866.9547, 2961.843
867.4368, 2964.633
867.9189, 2966.280
868.4010, 2967.315
868.8831, 2968.388
869.3652, 2970.221
869.8474, 2969.985
870.3295, 2965.997
870.8116, 2962.684
871.2937, 2964.502
871.7758, 2970.849
872.2579, 2975.250
872.7401, 2977.599
873.2222, 2976.164
873.7043, 2963.515
874.1864, 2950.472
874.6685, 2949.795
875.1506, 2962.568
875.6328, 2971.908
876.1149, 2972.669
876.5970, 2969.981
877.0791, 2964.341
877.5612, 2956.337
878.0433, 2952.151
878.5255, 2951.852
879.0076, 2953.578
879.4897, 2957.635
879.9718, 2962.252
880.4539, 2965.723
880.9360, 2967.722
881.4182, 2967.103
881.9003, 2958.131
882.3824, 2952.285
882.8645, 2955.898
883.3466, 2965.116
883.8287, 2970.158
884.3109, 2970.267
884.7930, 2970.391
885.2751, 2971.690
885.7572, 2973.821
886.2393, 2977.125
886.7214, 2980.760
887.2036, 2982.638
887.6857, 2981.663
888.1678, 2979.429
888.6499, 2976.020
889.1320, 2972.015
889.6141, 2967.851
890.0963, 2962.126
890.5784, 2960.613
891.0605, 2964.641
891.5426, 2970.645
892.0247, 2975.487
892.5068, 2978.988
892.9890, 2979.952
893.4711, 2977.933
893.9532, 2976.421
894.4353, 2977.816
894.9174, 2980.714
895.3995, 2984.345
895.8817, 2989.030
896.3638, 2992.257
896.8459, 2993.653
897.3280, 2994.258
897.8101, 2994.379
898.2922, 2994.156
898.7744, 2994.266
899.2565, 2994.728
899.7386, 2996.037
900.2207, 2998.790
900.7028, 3002.223
901.1849, 3006.187
901.6671, 3010.455
902.1492, 3014.017
902.6313, 3017.309
903.1134, 3018.837
903.5955, 3017.610
904.0776, 3014.830
904.5598, 3013.789
905.0419, 3014.374
905.5240, 3015.478
906.0062, 3016.871
906.4883, 3018.419
906.9704, 3019.495
907.4525, 3020.803
907.9346, 3023.495
908.4167, 3029.047
908.8989, 3034.531
909.3810, 3040.634
909.8631, 3045.543
910.3452, 3045.838
910.8273, 3041.952
911.3094, 3041.325
911.7916, 3045.258
912.2737, 3048.958
912.7558, 3046.266
913.2379, 3041.924
913.7200, 3041.780
914.2021, 3047.906
914.6843, 3051.261
915.1664, 3048.922
915.6485, 3045.546
916.1306, 3043.423
916.6127, 3042.499
917.0948, 3041.198
917.5770, 3039.542
918.0591, 3039.750
918.5412, 3046.270
919.0233, 3053.140
919.5054, 3053.304
919.9875, 3047.989
920.4697, 3043.015
920.9518, 3038.956
921.4339, 3036.821
921.9160, 3037.330
922.3981, 3039.502
922.8802, 3040.938
923.3624, 3041.635
923.8445, 3042.510
924.3266, 3044.031
924.8087, 3045.327
925.2908, 3045.545
925.7729, 3044.910
926.2551, 3043.680
926.7372, 3040.988
927.2193, 3039.537
927.7014, 3040.559
928.1835, 3041.927
928.6656, 3041.647
929.1478, 3039.763
929.6299, 3037.737
930.1120, 3035.627
930.5941, 3034.353
931.0762, 3034.859
931.5583, 3036.548
932.0405, 3038.933
932.5226, 3041.915
933.0047, 3045.195
933.4868, 3049.385
933.9689, 3052.846
934.4510, 3054.490
934.9332, 3054.891
935.4153, 3057.761
935.8974, 3062.892
936.3795, 3066.084
936.8616, 3063.776
937.3438, 3060.458
937.8259, 3060.438
938.3080, 3062.810
938.7901, 3065.784
939.2722, 3071.434
939.7543, 3073.944
940.2365, 3071.666
940.7186, 3067.331
941.2007, 3064.442
941.6828, 3062.959
942.1649, 3062.394
942.6470, 3062.794
943.1292, 3063.307
943.6113, 3063.790
944.0934, 3063.630
944.5755, 3061.665
945.0576, 3057.111
945.5397, 3055.083
946.0219, 3057.680
946.5040, 3059.858
946.9861, 3057.959
947.4682, 3053.308
947.9503, 3055.483
948.4324, 3063.545
948.9146, 3069.428
949.3967, 3066.472
949.8788, 3061.376
950.3609, 3057.829
950.8430, 3056.075
951.3251, 3056.828
951.8073, 3060.705
952.2894, 3065.780
952.7715, 3072.052
953.2536, 3078.990
953.7357, 3088.038
954.2179, 3097.354
954.7000, 3098.210
955.1821, 3087.216
955.6642, 3075.609
956.1464, 3069.739
956.6285, 3067.872
957.1106, 3069.188
957.5927, 3074.673
958.0748, 3077.402
958.5569, 3076.054
959.0391, 3075.431
959.5212, 3080.105
960.0033, 3087.661
960.4854, 3090.428
960.9675, 3089.122
961.4496, 3087.928
961.9318, 3090.116
962.4139, 3091.901
962.8960, 3089.942
963.3781, 3086.295
963.8602, 3087.083
964.3423, 3093.838
964.8245, 3098.708
965.3066, 3100.173
965.7887, 3099.268
966.2708, 3094.505
966.7529, 3089.244
967.2350, 3091.340
967.7172, 3105.674
968.1993, 3116.188
968.6814, 3113.491
969.1635, 3107.554
969.6456, 3105.134
970.1277, 3106.506
970.6099, 3107.579
971.0920, 3108.246
971.5741, 3109.397
972.0562, 3112.141
972.5383, 3115.305
973.0204, 3116.956
973.5026, 3117.579
973.9847, 3119.352
974.4668, 3124.854
974.9489, 3129.204
975.4310, 3131.652
975.9131, 3132.256
976.3953, 3129.563
976.8774, 3124.065
977.3595, 3124.224
977.8416, 3133.247
978.3237, 3142.554
978.8058, 3144.541
979.2880, 3142.494
979.7701, 3139.461
980.2522, 3134.936
980.7343, 3133.200
981.2164, 3135.090
981.6985, 3138.365
982.1807, 3142.070
982.6628, 3145.997
983.1449, 3150.113
983.6270, 3153.989
984.1091, 3155.058
984.5912, 3148.060
985.0734, 3141.662
985.5555, 3140.594
986.0376, 3143.884
986.5197, 3148.455
987.0018, 3154.998
987.4839, 3160.502
987.9661, 3164.579
988.4482, 3167.365
988.9303, 3168.308
989.4124, 3168.318
989.8945, 3169.215
990.3766, 3171.516
990.8588, 3173.651
991.3409, 3175.555
991.8230, 3176.551
992.3051, 3175.509
992.7872, 3172.655
993.2693, 3174.194
993.7515, 3180.262
994.2336, 3186.469
994.7157, 3190.801
995.1978, 3193.575
995.6799, 3194.103
996.1620, 3193.443
996.6442, 3194.108
997.1263, 3198.174
997.6084, 3201.576
998.0905, 3203.859
998.5726, 3205.357
999.0547, 3206.236
999.5369, 3206.656
1000.019, 3207.938
1000.501, 3210.331
1000.983, 3212.006
1001.465, 3210.742
1001.947, 3209.003
1002.430, 3209.128
1002.912, 3211.265
1003.394, 3211.191
1003.876, 3207.797
1004.358, 3205.995
1004.840, 3208.230
1005.322, 3212.508
1005.804, 3214.589
1006.287, 3215.571
1006.769, 3218.344
1007.251, 3226.513
1007.733, 3232.642
1008.215, 3232.430
1008.697, 3230.629
1009.179, 3231.610
1009.661, 3235.672
1010.143, 3238.979
1010.626, 3241.431
1011.108, 3243.020
1011.590, 3242.250
1012.072, 3241.745
1012.554, 3245.241
1013.036, 3252.126
1013.518, 3256.555
1014.000, 3257.133
1014.483, 3256.030
1014.965, 3253.187
1015.447, 3249.634
1015.929, 3246.504
1016.411, 3244.342
1016.893, 3245.425
1017.375, 3251.019
1017.857, 3257.492
1018.339, 3264.264
1018.822, 3269.683
1019.304, 3271.693
1019.786, 3269.499
1020.268, 3270.562
1020.750, 3275.110
1021.232, 3281.233
1021.714, 3288.943
1022.196, 3296.744
1022.679, 3302.274
1023.161, 3305.887
1023.643, 3308.552
1024.125, 3307.611
1024.607, 3310.084
1025.089, 3318.775
1025.571, 3329.387
1026.053, 3334.199
1026.535, 3334.535
1027.018, 3342.450
1027.500, 3359.735
1027.982, 3378.113
1028.464, 3392.062
1028.946, 3403.975
1029.428, 3414.741
1029.910, 3424.669
1030.392, 3436.792
1030.875, 3451.566
1031.357, 3467.259
1031.839, 3483.691
1032.321, 3500.263
1032.803, 3514.442
1033.285, 3528.038
1033.767, 3545.049
1034.249, 3570.192
1034.731, 3591.547
1035.214, 3602.240
1035.696, 3612.073
1036.178, 3629.279
1036.660, 3653.638
1037.142, 3674.406
1037.624, 3691.370
1038.106, 3708.302
1038.588, 3726.613
1039.071, 3746.769
1039.553, 3771.244
1040.035, 3798.116
1040.517, 3821.005
1040.999, 3838.202
1041.481, 3856.136
1041.963, 3876.063
1042.445, 3896.906
1042.927, 3915.219
1043.410, 3934.339
1043.892, 3962.040
1044.374, 4000.501
1044.856, 4038.629
1045.338, 4072.304
1045.820, 4104.275
1046.302, 4129.716
1046.784, 4154.432
1047.266, 4207.573
1047.749, 4289.030
1048.231, 4392.057
1048.713, 4507.509
1049.195, 4652.368
1049.677, 4834.944
1050.159, 5058.695
1050.641, 5333.994
1051.123, 5672.697
1051.606, 6029.744
1052.088, 6415.005
1052.570, 6785.156
1053.052, 7108.857
1053.534, 7401.765
1054.016, 7680.085
1054.498, 7952.895
1054.980, 8257.223
1055.463, 8596.452
1055.945, 8986.504
1056.427, 9412.248
1056.909, 9896.074
1057.391, 10456.24
1057.873, 11099.36
1058.355, 11876.96
1058.837, 12796.14
1059.319, 13866.34
1059.802, 15083.60
1060.284, 16434.45
1060.766, 17949.22
1061.248, 19613.84
1061.730, 21337.56
1062.212, 23256.74
1062.694, 24569.17
1063.176, 25090.93
1063.658, 24646.28
1064.141, 22554.67
1064.623, 19441.85
1065.105, 16300.81
1065.587, 13165.24
1066.069, 10618.18
1066.551, 8744.940
1067.033, 7340.786
1067.515, 6331.444
1067.998, 5666.141
1068.480, 5159.740
1068.962, 4798.666
1069.444, 4519.606
1069.926, 4324.101
1070.408, 4165.951
1070.890, 4036.538
1071.372, 3930.416
1071.854, 3844.415
1072.337, 3780.561
1072.819, 3724.901
1073.301, 3676.985
1073.783, 3633.873
1074.265, 3592.941
1074.747, 3556.190
1075.229, 3526.081
1075.711, 3502.748
1076.193, 3482.978
1076.676, 3468.196
1077.158, 3452.376
1077.640, 3432.987
1078.122, 3413.735
1078.604, 3401.842
1079.086, 3394.818
1079.568, 3387.647
1080.051, 3379.131
1080.533, 3370.411
1081.015, 3361.179
1081.497, 3352.580
1081.979, 3345.370
1082.461, 3339.443
1082.943, 3332.862
1083.425, 3326.033
1083.907, 3322.486
1084.390, 3327.074
1084.872, 3330.951
1085.354, 3327.472
1085.836, 3320.516
1086.318, 3314.755
1086.800, 3309.672
1087.282, 3309.775
1087.764, 3316.051
1088.246, 3319.881
1088.729, 3308.908
1089.211, 3295.730
1089.693, 3297.709
1090.175, 3310.841
1090.657, 3317.944
1091.139, 3312.452
1091.621, 3307.212
1092.103, 3303.433
1092.586, 3301.440
1093.068, 3302.750
1093.550, 3305.948
1094.032, 3308.449
1094.514, 3309.945
1094.996, 3308.353
1095.478, 3298.542
1095.960, 3290.347
1096.443, 3287.477
1096.925, 3288.824
1097.407, 3292.468
1097.889, 3297.802
1098.371, 3299.738
1098.853, 3295.781
1099.335, 3292.375
1099.817, 3296.433
1100.299, 3301.286
1100.781, 3300.149
1101.264, 3292.717
1101.746, 3289.160
1102.228, 3289.677
1102.710, 3291.149
1103.192, 3293.117
1103.674, 3293.866
1104.156, 3289.512
1104.638, 3283.226
1105.121, 3280.321
1105.603, 3284.636
1106.085, 3286.733
1106.567, 3286.471
1107.049, 3284.506
1107.531, 3279.461
1108.013, 3273.958
1108.495, 3273.816
1108.978, 3278.001
1109.460, 3281.972
1109.942, 3282.817
1110.424, 3285.263
1110.906, 3291.544
1111.388, 3297.748
1111.870, 3296.977
1112.352, 3291.451
1112.834, 3292.055
1113.317, 3299.465
1113.799, 3305.043
1114.281, 3299.697
1114.763, 3295.718
1115.245, 3301.073
1115.727, 3311.372
1116.209, 3315.353
1116.691, 3313.246
1117.173, 3310.343
1117.656, 3307.586
1118.138, 3305.568
1118.620, 3304.468
1119.102, 3304.621
1119.584, 3306.820
1120.066, 3310.966
1120.548, 3314.230
1121.030, 3316.389
1121.513, 3319.356
1121.995, 3324.629
1122.477, 3329.352
1122.959, 3329.240
1123.441, 3326.727
1123.923, 3325.271
1124.405, 3326.012
1124.887, 3325.919
1125.370, 3323.717
1125.852, 3324.260
1126.334, 3333.606
1126.816, 3345.375
1127.298, 3343.921
1127.780, 3334.261
1128.262, 3328.343
1128.744, 3333.344
1129.226, 3338.216
1129.709, 3342.324
1130.191, 3345.153
1130.673, 3345.691
1131.155, 3344.593
1131.637, 3344.541
1132.119, 3345.399
1132.601, 3346.136
1133.083, 3345.901
1133.566, 3345.844
1134.048, 3346.822
1134.530, 3347.761
1135.012, 3346.427
1135.494, 3343.276
1135.976, 3343.365
1136.458, 3347.139
1136.940, 3351.961
1137.422, 3359.558
1137.905, 3364.194
1138.387, 3360.325
1138.869, 3351.294
1139.351, 3344.714
1139.833, 3340.575
1140.315, 3338.454
1140.797, 3338.388
1141.279, 3339.542
1141.761, 3342.263
1142.244, 3345.012
1142.726, 3346.308
1143.208, 3346.144
1143.690, 3346.431
1144.172, 3347.476
1144.654, 3346.538
1145.136, 3341.800
1145.618, 3337.577
1146.101, 3340.063
1146.583, 3345.692
1147.065, 3350.531
1147.547, 3353.998
1148.029, 3355.130
1148.511, 3352.895
1148.993, 3351.761
1149.475, 3354.180
1149.958, 3358.079
1150.440, 3360.075
1150.922, 3361.085
1151.404, 3362.957
1151.886, 3367.394
1152.368, 3369.556
1152.850, 3368.606
1153.332, 3366.851
1153.814, 3365.858
1154.297, 3365.078
1154.779, 3361.827
1155.261, 3357.554
1155.743, 3356.404
1156.225, 3362.522
1156.707, 3368.063
1157.189, 3372.198
1157.671, 3375.171
1158.153, 3376.771
1158.636, 3377.357
1159.118, 3377.921
1159.600, 3378.743
1160.082, 3381.187
1160.564, 3389.822
1161.046, 3394.873
1161.528, 3391.742
1162.010, 3386.102
1162.493, 3384.277
1162.975, 3385.817
1163.457, 3387.998
1163.939, 3390.563
1164.421, 3392.426
1164.903, 3392.188
1165.385, 3391.976
1165.867, 3393.350
1166.349, 3394.881
1166.832, 3393.372
1167.314, 3389.206
1167.796, 3388.788
1168.278, 3392.869
1168.760, 3395.377
1169.242, 3389.271
1169.724, 3383.009
1170.206, 3382.031
1170.688, 3384.767
1171.171, 3388.306
1171.653, 3392.635
1172.135, 3393.425
1172.617, 3389.250
1173.099, 3386.747
1173.581, 3394.434
1174.063, 3403.386
1174.545, 3406.147
1175.028, 3403.971
1175.510, 3402.754
1175.992, 3402.512
1176.474, 3402.437
1176.956, 3402.253
1177.438, 3402.408
1177.920, 3403.199
1178.402, 3404.600
1178.885, 3407.512
1179.367, 3411.708
1179.849, 3411.005
1180.331, 3404.683
1180.813, 3401.692
1181.295, 3406.152
1181.777, 3412.522
1182.259, 3415.284
1182.741, 3416.625
1183.224, 3419.354
1183.706, 3424.003
1184.188, 3426.115
1184.670, 3425.367
1185.152, 3424.587
1185.634, 3425.286
1186.116, 3423.937
1186.598, 3424.427
1187.081, 3422.184
1187.563, 3422.080
1188.045, 3421.304
1188.527, 3419.986
1189.009, 3422.135
1189.491, 3419.830
1189.973, 3421.857
1190.455, 3426.010
1190.938, 3431.403
1191.420, 3436.392
1191.902, 3437.895
1192.384, 3433.152
1192.866, 3432.292
1193.348, 3436.218
1193.830, 3439.869
1194.312, 3438.637
1194.794, 3436.419
1195.276, 3439.392
1195.759, 3444.979
1196.241, 3447.671
1196.723, 3444.712
1197.205, 3443.313
1197.687, 3443.569
1198.169, 3445.209
1198.651, 3448.717
1199.133, 3452.939
1199.616, 3456.631
1200.098, 3459.708
1200.580, 3461.974
1201.062, 3463.549
1201.544, 3463.701
1202.026, 3462.022
1202.508, 3460.403
1202.990, 3460.560
1203.473, 3461.699
1203.955, 3463.353
1204.437, 3465.094
1204.919, 3465.572
1205.401, 3463.736
1205.883, 3462.834
1206.365, 3463.164
1206.847, 3464.260
1207.329, 3467.155
1207.812, 3469.547
1208.294, 3466.954
1208.776, 3460.932
1209.258, 3458.811
1209.740, 3463.423
1210.222, 3466.176
1210.704, 3465.786
1211.186, 3465.022
1211.668, 3467.078
1212.151, 3470.181
1212.633, 3472.418
1213.115, 3473.676
1213.597, 3473.574
1214.079, 3470.631
1214.561, 3471.323
1215.043, 3477.315
1215.525, 3483.667
1216.008, 3484.038
1216.490, 3482.481
1216.972, 3483.981
1217.454, 3488.424
1217.936, 3492.425
1218.418, 3495.688
1218.900, 3498.743
1219.382, 3501.868
1219.865, 3503.969
1220.347, 3501.933
1220.829, 3499.565
1221.311, 3501.716
1221.793, 3508.216
1222.275, 3514.185
1222.757, 3519.826
1223.239, 3522.689
1223.721, 3521.518
1224.203, 3521.312
1224.686, 3530.748
1225.168, 3541.667
1225.650, 3544.741
1226.132, 3540.030
1226.614, 3537.871
1227.096, 3538.547
1227.578, 3540.778
1228.061, 3544.451
1228.543, 3548.730
1229.025, 3553.142
1229.507, 3557.325
1229.989, 3560.896
1230.471, 3563.820
1230.953, 3565.910
1231.435, 3566.817
1231.917, 3570.317
1232.400, 3577.930
1232.882, 3584.988
1233.364, 3586.322
1233.846, 3585.684
1234.328, 3586.157
1234.810, 3587.804
1235.292, 3589.171
1235.774, 3590.082
1236.256, 3596.313
1236.739, 3610.649
1237.221, 3623.230
1237.703, 3623.757
1238.185, 3620.858
1238.667, 3622.066
1239.149, 3626.136
1239.631, 3625.111
1240.113, 3619.366
1240.596, 3619.425
1241.078, 3628.798
1241.560, 3638.727
1242.042, 3641.574
1242.524, 3643.613
1243.006, 3649.158
1243.488, 3657.270
1243.970, 3664.745
1244.453, 3671.565
1244.935, 3677.164
1245.417, 3681.290
1245.899, 3685.111
1246.381, 3688.028
1246.863, 3692.494
1247.345, 3700.116
1247.827, 3709.901
1248.309, 3718.365
1248.792, 3725.763
1249.274, 3733.433
1249.756, 3741.825
1250.238, 3749.436
1250.720, 3756.219
1251.202, 3760.842
1251.684, 3760.998
1252.166, 3760.264
1252.648, 3770.185
1253.131, 3786.892
1253.613, 3798.547
1254.095, 3801.827
1254.577, 3805.723
1255.059, 3813.626
1255.541, 3821.649
1256.023, 3827.629
1256.505, 3833.971
1256.988, 3847.599
1257.470, 3864.969
1257.952, 3877.837
1258.434, 3884.064
1258.916, 3892.165
1259.398, 3903.576
1259.880, 3916.757
1260.362, 3931.542
1260.844, 3947.287
1261.327, 3965.198
1261.809, 3982.245
1262.291, 3992.571
1262.773, 3994.385
1263.255, 4001.486
1263.737, 4015.450
1264.219, 4031.326
1264.701, 4047.690
1265.183, 4064.452
1265.666, 4081.636
1266.148, 4099.183
1266.630, 4117.440
1267.112, 4136.431
1267.594, 4152.719
1268.076, 4165.680
1268.558, 4181.617
1269.040, 4203.098
1269.523, 4224.739
1270.005, 4242.347
1270.487, 4257.157
1270.969, 4268.008
1271.451, 4276.583
1271.933, 4292.500
1272.415, 4315.625
1272.897, 4336.977
1273.380, 4353.832
1273.862, 4371.541
1274.344, 4394.758
1274.826, 4419.490
1275.308, 4444.387
1275.790, 4468.492
1276.272, 4488.052
1276.754, 4503.967
1277.236, 4521.133
1277.719, 4540.179
1278.201, 4562.703
1278.683, 4592.979
1279.165, 4622.367
1279.647, 4646.856
1280.129, 4669.279
1280.611, 4697.233
1281.093, 4728.944
1281.576, 4759.830
1282.058, 4789.388
1282.540, 4819.034
1283.022, 4850.266
1283.504, 4879.500
1283.986, 4904.544
1284.468, 4929.815
1284.950, 4962.796
1285.432, 5000.429
1285.915, 5037.353
1286.397, 5073.001
1286.879, 5110.166
1287.361, 5148.219
1287.843, 5189.278
1288.325, 5234.295
1288.807, 5279.360
1289.289, 5317.983
1289.771, 5355.734
1290.254, 5400.299
1290.736, 5440.015
1291.218, 5493.031
1291.700, 5527.514
1292.182, 5568.485
1292.664, 5618.770
1293.146, 5672.155
1293.628, 5726.280
1294.111, 5778.695
1294.593, 5828.464
1295.075, 5875.500
1295.557, 5917.521
1296.039, 5955.356
1296.521, 5997.382
1297.003, 6045.033
1297.485, 6099.903
1297.968, 6164.633
1298.450, 6232.815
1298.932, 6303.028
1299.414, 6373.042
1299.896, 6438.227
1300.378, 6500.305
1300.860, 6561.960
1301.342, 6623.442
1301.824, 6692.338
##END=



