##NAMES=Phosphosiderite
##RRUFFID=R070519
##IDEAL CHEMISTRY=Fe^3+^PO_4_&#183;2H_2_O
##LOCALITY=Stewart mine, Pala, San Diego County, California, USA
##OWNER=RRUFF
##SOURCE=James Shigley
##DESCRIPTION=Bluish-purple fine-grained botryoidal and tabular crystals
##STATUS=The identification of this mineral has been confirmed by X-ray diffraction.
##URL=rruff.info/R070519
150.3270, 4845.931
150.8091, 4916.606
151.2912, 5003.891
151.7733, 5076.146
152.2555, 5118.184
152.7376, 5143.918
153.2197, 5173.416
153.7018, 5219.991
154.1839, 5277.372
154.6660, 5315.053
155.1481, 5319.609
155.6303, 5319.102
156.1124, 5307.931
156.5945, 5298.254
157.0766, 5309.239
157.5587, 5355.999
158.0408, 5432.520
158.5230, 5491.702
159.0051, 5494.571
159.4872, 5521.994
159.9693, 5604.915
160.4514, 5698.316
160.9335, 5768.170
161.4157, 5802.800
161.8978, 5805.311
162.3799, 5810.336
162.8620, 5816.905
163.3441, 5827.745
163.8262, 5842.829
164.3084, 5863.008
164.7905, 5891.889
165.2726, 5934.395
165.7547, 5989.296
166.2368, 6020.227
166.7189, 6015.076
167.2011, 6001.822
167.6832, 5975.088
168.1653, 5945.949
168.6474, 5935.847
169.1295, 5962.980
169.6116, 6026.336
170.0938, 6065.917
170.5759, 6072.042
171.0580, 6068.265
171.5401, 6053.737
172.0222, 6034.461
172.5043, 6019.662
172.9865, 6014.895
173.4686, 6019.910
173.9507, 6044.501
174.4328, 6104.580
174.9149, 6164.244
175.3970, 6205.724
175.8792, 6235.804
176.3613, 6274.286
176.8434, 6337.895
177.3255, 6426.579
177.8076, 6496.812
178.2897, 6541.808
178.7719, 6579.833
179.2540, 6609.587
179.7361, 6636.926
180.2182, 6674.661
180.7003, 6733.132
181.1824, 6812.524
181.6646, 6887.703
182.1467, 6969.936
182.6288, 7038.679
183.1109, 7078.898
183.5930, 7097.865
184.0751, 7116.173
184.5573, 7149.493
185.0394, 7197.137
185.5215, 7230.371
186.0036, 7235.138
186.4857, 7243.298
186.9678, 7268.693
187.4500, 7308.446
187.9321, 7354.294
188.4142, 7403.577
188.8963, 7454.922
189.3784, 7480.278
189.8605, 7455.476
190.3427, 7434.876
190.8248, 7443.857
191.3069, 7475.106
191.7890, 7508.381
192.2711, 7532.675
192.7532, 7547.066
193.2354, 7540.370
193.7175, 7496.191
194.1996, 7452.985
194.6817, 7426.052
195.1638, 7412.038
195.6459, 7401.283
196.1281, 7388.788
196.6102, 7374.436
197.0923, 7356.374
197.5744, 7337.459
198.0565, 7313.242
198.5386, 7280.619
199.0208, 7241.403
199.5029, 7200.548
199.9850, 7160.886
200.4671, 7121.426
200.9492, 7073.705
201.4313, 7021.241
201.9135, 6959.594
202.3956, 6890.387
202.8777, 6811.174
203.3598, 6711.449
203.8419, 6581.659
204.3240, 6433.410
204.8061, 6318.550
205.2883, 6254.878
205.7704, 6195.313
206.2525, 6136.178
206.7346, 6072.313
207.2167, 5990.725
207.6988, 5883.212
208.1810, 5760.333
208.6631, 5659.754
209.1452, 5588.342
209.6273, 5525.962
210.1094, 5466.646
210.5915, 5414.122
211.0737, 5378.053
211.5558, 5364.502
212.0379, 5361.685
212.5200, 5338.875
213.0021, 5280.113
213.4842, 5227.680
213.9664, 5189.340
214.4485, 5160.579
214.9306, 5136.103
215.4127, 5114.351
215.8948, 5093.986
216.3769, 5071.959
216.8591, 5045.366
217.3412, 5022.608
217.8233, 5006.983
218.3054, 4994.744
218.7875, 4980.671
219.2696, 4963.113
219.7518, 4946.298
220.2339, 4937.183
220.7160, 4938.859
221.1981, 4943.088
221.6802, 4961.155
222.1623, 4975.823
222.6445, 4964.605
223.1266, 4923.707
223.6087, 4875.811
224.0908, 4851.560
224.5729, 4863.603
225.0550, 4870.238
225.5372, 4870.428
226.0193, 4866.178
226.5014, 4858.770
226.9835, 4848.513
227.4656, 4835.384
227.9477, 4819.566
228.4299, 4801.244
228.9120, 4777.672
229.3941, 4735.707
229.8762, 4699.006
230.3583, 4686.600
230.8404, 4696.835
231.3225, 4711.294
231.8047, 4711.727
232.2868, 4694.296
232.7689, 4692.101
233.2510, 4715.248
233.7331, 4741.254
234.2152, 4760.000
234.6974, 4771.916
235.1795, 4781.492
235.6616, 4791.901
236.1437, 4803.119
236.6258, 4817.275
237.1079, 4832.216
237.5901, 4851.770
238.0722, 4879.708
238.5543, 4913.342
239.0364, 4947.062
239.5185, 4977.342
240.0006, 5004.741
240.4828, 5034.729
240.9649, 5058.101
241.4470, 5094.528
241.9291, 5161.014
242.4112, 5240.315
242.8933, 5305.729
243.3755, 5343.280
243.8576, 5361.003
244.3397, 5388.106
244.8218, 5432.100
245.3039, 5477.111
245.7860, 5520.817
246.2682, 5565.497
246.7503, 5615.989
247.2324, 5674.115
247.7145, 5733.082
248.1966, 5775.693
248.6787, 5778.602
249.1609, 5805.497
249.6430, 5875.489
250.1251, 5957.882
250.6072, 6029.272
251.0893, 6083.633
251.5714, 6128.569
252.0536, 6175.269
252.5357, 6227.443
253.0178, 6272.289
253.4999, 6310.750
253.9820, 6342.125
254.4641, 6364.709
254.9462, 6378.919
255.4284, 6387.371
255.9105, 6393.294
256.3926, 6397.565
256.8747, 6394.249
257.3568, 6377.572
257.8390, 6357.925
258.3211, 6341.635
258.8032, 6326.258
259.2853, 6303.452
259.7674, 6263.056
260.2495, 6206.271
260.7317, 6162.060
261.2138, 6139.725
261.6959, 6119.485
262.1780, 6096.637
262.6601, 6070.632
263.1422, 6039.633
263.6244, 5998.054
264.1065, 5953.705
264.5886, 5937.201
265.0707, 5968.919
265.5528, 5989.902
266.0349, 5964.709
266.5170, 5923.721
266.9991, 5904.193
267.4813, 5923.685
267.9634, 5963.187
268.4455, 5991.817
268.9276, 6006.966
269.4097, 6021.845
269.8918, 6036.011
270.3740, 6054.512
270.8561, 6084.332
271.3382, 6128.431
271.8203, 6174.707
272.3024, 6209.132
272.7845, 6231.724
273.2667, 6259.941
273.7488, 6300.592
274.2309, 6346.265
274.7130, 6387.421
275.1951, 6423.547
275.6772, 6465.497
276.1594, 6518.669
276.6415, 6582.875
277.1236, 6660.846
277.6057, 6761.554
278.0878, 6860.668
278.5699, 6932.082
279.0521, 6980.058
279.5342, 7026.475
280.0163, 7073.948
280.4984, 7126.453
280.9805, 7190.941
281.4626, 7268.689
281.9448, 7354.448
282.4269, 7453.140
282.9090, 7558.235
283.3911, 7641.664
283.8732, 7678.320
284.3553, 7707.716
284.8375, 7772.623
285.3196, 7867.716
285.8017, 7944.602
286.2838, 7972.950
286.7659, 7960.141
287.2480, 7944.596
287.7302, 7926.146
288.2123, 7905.553
288.6944, 7887.268
289.1765, 7866.948
289.6586, 7836.320
290.1407, 7792.786
290.6229, 7734.530
291.1050, 7654.290
291.5871, 7531.222
292.0692, 7424.672
292.5513, 7345.260
293.0334, 7285.136
293.5156, 7235.840
293.9977, 7195.181
294.4798, 7164.962
294.9619, 7150.688
295.4440, 7166.037
295.9261, 7155.917
296.4083, 7097.616
296.8904, 7034.098
297.3725, 6990.687
297.8546, 6969.019
298.3367, 6958.836
298.8188, 6951.446
299.3010, 6946.503
299.7831, 6949.724
300.2652, 6964.470
300.7473, 6983.420
301.2294, 7011.613
301.7115, 7041.712
302.1937, 7060.018
302.6758, 7057.055
303.1579, 7039.999
303.6400, 7036.763
304.1221, 7052.949
304.6042, 7075.860
305.0864, 7112.107
305.5685, 7149.105
306.0506, 7175.937
306.5327, 7188.790
307.0148, 7189.137
307.4969, 7176.205
307.9791, 7145.599
308.4612, 7118.678
308.9433, 7106.061
309.4254, 7092.369
309.9075, 7068.164
310.3896, 7033.317
310.8718, 6994.846
311.3539, 6955.705
311.8360, 6916.714
312.3181, 6887.250
312.8002, 6873.562
313.2823, 6861.353
313.7645, 6842.362
314.2466, 6818.005
314.7287, 6791.906
315.2108, 6766.404
315.6929, 6739.728
316.1750, 6707.372
316.6571, 6668.058
317.1393, 6629.498
317.6214, 6593.544
318.1035, 6561.752
318.5856, 6537.206
319.0677, 6521.361
319.5498, 6511.324
320.0320, 6504.877
320.5141, 6502.343
320.9962, 6505.924
321.4783, 6517.575
321.9604, 6534.162
322.4425, 6551.761
322.9247, 6572.504
323.4068, 6586.639
323.8889, 6586.754
324.3710, 6580.372
324.8531, 6579.698
325.3352, 6587.224
325.8174, 6591.685
326.2995, 6577.941
326.7816, 6539.690
327.2637, 6521.874
327.7458, 6549.986
328.2279, 6575.820
328.7101, 6565.244
329.1922, 6525.133
329.6743, 6486.039
330.1564, 6469.616
330.6385, 6472.156
331.1206, 6462.847
331.6028, 6441.162
332.0849, 6408.179
332.5670, 6350.641
333.0491, 6286.720
333.5312, 6241.408
334.0133, 6224.333
334.4955, 6218.524
334.9776, 6189.747
335.4597, 6120.957
335.9418, 6067.214
336.4239, 6040.469
336.9060, 6019.957
337.3882, 5993.317
337.8703, 5959.542
338.3524, 5925.021
338.8345, 5896.907
339.3166, 5874.934
339.7987, 5847.488
340.2809, 5810.363
340.7630, 5772.726
341.2451, 5737.510
341.7272, 5704.566
342.2093, 5674.833
342.6914, 5651.467
343.1736, 5628.237
343.6557, 5590.799
344.1378, 5535.557
344.6199, 5487.308
345.1020, 5461.174
345.5841, 5445.068
346.0663, 5425.161
346.5484, 5400.635
347.0305, 5370.737
347.5126, 5332.193
347.9947, 5287.689
348.4768, 5244.313
348.9590, 5201.892
349.4411, 5165.498
349.9232, 5147.486
350.4053, 5148.354
350.8874, 5134.457
351.3695, 5087.704
351.8517, 5031.888
352.3338, 4986.170
352.8159, 4952.151
353.2980, 4925.531
353.7801, 4904.107
354.2622, 4887.544
354.7444, 4872.711
355.2265, 4866.212
355.7086, 4853.558
356.1907, 4822.339
356.6728, 4784.482
357.1549, 4759.840
357.6371, 4756.143
358.1192, 4762.600
358.6013, 4757.143
359.0834, 4724.593
359.5655, 4708.444
360.0476, 4719.882
360.5298, 4736.463
361.0119, 4744.008
361.4940, 4741.974
361.9761, 4738.526
362.4582, 4742.568
362.9403, 4753.463
363.4225, 4752.849
363.9046, 4730.458
364.3867, 4709.913
364.8688, 4694.541
365.3509, 4687.214
365.8330, 4693.757
366.3151, 4719.568
366.7972, 4752.830
367.2794, 4775.685
367.7615, 4787.439
368.2436, 4796.460
368.7257, 4802.780
369.2078, 4809.414
369.6899, 4819.825
370.1721, 4834.328
370.6542, 4849.131
371.1363, 4862.188
371.6184, 4874.147
372.1005, 4886.330
372.5826, 4899.049
373.0648, 4911.195
373.5469, 4920.987
374.0290, 4928.899
374.5111, 4940.243
374.9932, 4953.027
375.4753, 4971.348
375.9575, 5002.904
376.4396, 5042.542
376.9217, 5076.104
377.4038, 5096.257
377.8859, 5107.273
378.3680, 5119.968
378.8502, 5136.737
379.3323, 5151.977
379.8144, 5163.631
380.2965, 5174.917
380.7786, 5188.809
381.2607, 5205.509
381.7429, 5222.645
382.2250, 5237.099
382.7071, 5248.322
383.1892, 5264.310
383.6713, 5291.934
384.1534, 5317.278
384.6356, 5334.172
385.1177, 5346.542
385.5998, 5361.754
386.0819, 5384.279
386.5640, 5408.133
387.0461, 5420.701
387.5283, 5419.297
388.0104, 5420.214
388.4925, 5427.140
388.9746, 5438.569
389.4567, 5455.657
389.9388, 5478.375
390.4210, 5497.343
390.9031, 5498.327
391.3852, 5492.909
391.8673, 5514.509
392.3494, 5572.562
392.8315, 5622.166
393.3137, 5624.394
393.7958, 5585.862
394.2779, 5553.065
394.7600, 5523.914
395.2421, 5504.445
395.7242, 5509.717
396.2064, 5526.920
396.6885, 5524.813
397.1706, 5489.986
397.6527, 5436.251
398.1348, 5389.828
398.6169, 5355.069
399.0991, 5320.098
399.5812, 5289.679
400.0633, 5255.340
400.5454, 5207.175
401.0275, 5148.354
401.5096, 5091.912
401.9918, 5048.521
402.4739, 5017.336
402.9560, 4988.161
403.4381, 4965.237
403.9202, 4938.183
404.4023, 4902.590
404.8845, 4862.838
405.3666, 4821.926
405.8487, 4780.399
406.3308, 4742.790
406.8129, 4713.583
407.2950, 4692.788
407.7772, 4682.903
408.2593, 4696.267
408.7414, 4704.029
409.2235, 4674.065
409.7056, 4615.502
410.1877, 4570.343
410.6699, 4562.236
411.1520, 4569.024
411.6341, 4569.416
412.1162, 4562.777
412.5983, 4547.483
413.0804, 4518.562
413.5626, 4483.910
414.0447, 4468.278
414.5268, 4474.137
415.0089, 4489.693
415.4910, 4525.347
415.9731, 4563.009
416.4552, 4580.981
416.9373, 4576.993
417.4195, 4566.313
417.9016, 4563.696
418.3837, 4569.303
418.8658, 4580.705
419.3479, 4611.188
419.8300, 4633.029
420.3122, 4631.415
420.7943, 4619.270
421.2764, 4614.583
421.7585, 4624.929
422.2406, 4645.120
422.7227, 4667.880
423.2049, 4693.513
423.6870, 4720.083
424.1691, 4749.711
424.6512, 4777.779
425.1333, 4799.440
425.6154, 4815.979
426.0976, 4835.086
426.5797, 4858.266
427.0618, 4887.183
427.5439, 4928.419
428.0260, 4982.197
428.5081, 5030.290
428.9903, 5061.769
429.4724, 5081.634
429.9545, 5103.886
430.4366, 5122.552
430.9187, 5153.678
431.4008, 5214.351
431.8830, 5283.696
432.3651, 5337.112
432.8472, 5370.205
433.3293, 5392.026
433.8114, 5409.038
434.2935, 5419.527
434.7757, 5451.373
435.2578, 5528.631
435.7399, 5600.319
436.2220, 5652.508
436.7041, 5691.898
437.1862, 5726.566
437.6684, 5759.355
438.1505, 5794.718
438.6326, 5841.638
439.1147, 5901.968
439.5968, 5956.670
440.0789, 6003.806
440.5611, 6043.074
441.0432, 6072.570
441.5253, 6094.267
442.0074, 6115.531
442.4895, 6134.141
442.9716, 6156.970
443.4538, 6199.981
443.9359, 6260.577
444.4180, 6306.370
444.9001, 6317.561
445.3822, 6310.356
445.8643, 6322.088
446.3465, 6360.232
446.8286, 6394.153
447.3107, 6421.675
447.7928, 6440.619
448.2749, 6443.780
448.7570, 6433.941
449.2392, 6427.065
449.7213, 6438.271
450.2034, 6464.111
450.6855, 6467.025
451.1676, 6426.864
451.6497, 6390.022
452.1319, 6363.825
452.6140, 6344.335
453.0961, 6328.729
453.5782, 6316.023
454.0603, 6304.175
454.5424, 6292.339
455.0246, 6280.111
455.5067, 6263.890
455.9888, 6243.970
456.4709, 6218.859
456.9530, 6183.461
457.4352, 6142.230
457.9173, 6103.639
458.3994, 6064.868
458.8815, 6035.073
459.3636, 6029.906
459.8457, 6038.560
460.3279, 6028.984
460.8100, 5989.317
461.2921, 5945.779
461.7742, 5935.465
462.2563, 5970.667
462.7384, 5987.909
463.2206, 5977.850
463.7026, 5960.444
464.1848, 5938.464
464.6669, 5917.479
465.1490, 5906.903
465.6311, 5912.183
466.1132, 5926.135
466.5953, 5931.795
467.0775, 5923.864
467.5596, 5926.022
468.0417, 5948.696
468.5238, 5976.650
469.0059, 6005.692
469.4880, 6033.451
469.9702, 6053.279
470.4523, 6054.046
470.9344, 6048.894
471.4165, 6061.681
471.8986, 6091.845
472.3807, 6116.639
472.8629, 6123.766
473.3450, 6122.300
473.8271, 6130.610
474.3092, 6149.702
474.7913, 6172.097
475.2734, 6204.414
475.7556, 6233.961
476.2377, 6246.288
476.7198, 6243.431
477.2019, 6239.776
477.6840, 6245.845
478.1661, 6259.091
478.6483, 6266.785
479.1304, 6264.828
479.6125, 6263.632
480.0946, 6268.466
480.5767, 6271.835
481.0588, 6266.859
481.5410, 6253.292
482.0231, 6237.217
482.5052, 6227.658
482.9873, 6219.654
483.4694, 6192.950
483.9515, 6143.369
484.4337, 6093.983
484.9158, 6058.061
485.3979, 6029.712
485.8800, 5996.015
486.3621, 5956.897
486.8442, 5912.283
487.3264, 5859.950
487.8085, 5803.288
488.2906, 5746.979
488.7727, 5691.468
489.2548, 5632.185
489.7369, 5564.353
490.2191, 5488.813
490.7012, 5418.591
491.1833, 5356.164
491.6654, 5296.063
492.1475, 5244.445
492.6296, 5190.645
493.1118, 5120.542
493.5939, 5032.644
494.0760, 4945.425
494.5581, 4880.303
495.0402, 4833.625
495.5223, 4778.364
496.0045, 4709.757
496.4866, 4645.008
496.9687, 4597.492
497.4508, 4559.980
497.9329, 4519.591
498.4150, 4474.577
498.8972, 4427.706
499.3793, 4379.560
499.8614, 4330.794
500.3435, 4281.098
500.8256, 4230.785
501.3077, 4184.228
501.7899, 4145.821
502.2720, 4115.450
502.7541, 4081.777
503.2362, 4036.605
503.7183, 3997.929
504.2004, 3976.973
504.6826, 3959.259
505.1647, 3927.820
505.6468, 3879.756
506.1289, 3829.461
506.6110, 3791.365
507.0931, 3763.983
507.5753, 3736.437
508.0574, 3709.102
508.5395, 3680.331
509.0216, 3649.688
509.5037, 3616.730
509.9858, 3579.293
510.4680, 3530.340
510.9501, 3493.060
511.4322, 3486.462
511.9143, 3494.499
512.3964, 3496.013
512.8785, 3487.353
513.3607, 3472.445
513.8428, 3454.006
514.3249, 3432.408
514.8070, 3411.963
515.2891, 3398.015
515.7712, 3378.290
516.2534, 3340.210
516.7355, 3302.594
517.2176, 3286.617
517.6997, 3293.571
518.1818, 3301.957
518.6639, 3288.406
519.1461, 3260.197
519.6282, 3248.881
520.1103, 3258.883
520.5924, 3267.029
521.0745, 3261.436
521.5566, 3247.063
522.0388, 3233.752
522.5209, 3220.919
523.0030, 3211.047
523.4851, 3206.919
523.9672, 3204.915
524.4493, 3202.478
524.9315, 3198.656
525.4136, 3190.408
525.8957, 3174.364
526.3778, 3154.271
526.8599, 3146.342
527.3420, 3155.863
527.8242, 3168.761
528.3063, 3193.656
528.7884, 3213.157
529.2705, 3210.160
529.7526, 3187.990
530.2347, 3168.893
530.7169, 3170.796
531.1990, 3182.459
531.6811, 3179.180
532.1632, 3161.183
532.6453, 3154.909
533.1274, 3175.483
533.6096, 3205.890
534.0917, 3215.838
534.5738, 3199.646
535.0559, 3192.833
535.5380, 3208.768
536.0201, 3226.488
536.5023, 3232.798
536.9844, 3229.547
537.4665, 3221.915
537.9485, 3212.049
538.4307, 3204.508
538.9128, 3210.479
539.3949, 3234.763
539.8770, 3252.229
540.3591, 3261.880
540.8412, 3263.067
541.3234, 3249.320
541.8055, 3227.607
542.2876, 3215.075
542.7697, 3220.424
543.2518, 3231.891
543.7339, 3242.620
544.2161, 3251.212
544.6982, 3251.115
545.1803, 3239.991
545.6624, 3230.149
546.1445, 3236.554
546.6266, 3260.914
547.1088, 3271.891
547.5909, 3253.629
548.0730, 3242.312
548.5551, 3257.075
549.0372, 3278.346
549.5193, 3280.129
550.0015, 3257.757
550.4836, 3233.356
550.9657, 3231.133
551.4478, 3247.342
551.9299, 3258.375
552.4120, 3262.667
552.8942, 3266.909
553.3763, 3279.310
553.8584, 3290.997
554.3405, 3284.056
554.8226, 3250.866
555.3047, 3222.830
555.7869, 3215.039
556.2690, 3213.322
556.7511, 3199.544
557.2332, 3177.059
557.7153, 3166.432
558.1974, 3181.750
558.6796, 3213.139
559.1617, 3230.789
559.6438, 3228.671
560.1259, 3227.830
560.6080, 3236.558
561.0901, 3241.705
561.5723, 3233.319
562.0544, 3214.949
562.5365, 3198.546
563.0186, 3188.363
563.5007, 3183.284
563.9828, 3182.845
564.4650, 3186.606
564.9471, 3195.358
565.4292, 3210.577
565.9113, 3221.510
566.3934, 3214.065
566.8755, 3185.721
567.3577, 3167.040
567.8398, 3165.180
568.3219, 3163.069
568.8040, 3152.208
569.2861, 3140.486
569.7682, 3140.904
570.2504, 3154.889
570.7325, 3166.038
571.2146, 3155.060
571.6967, 3126.637
572.1788, 3103.093
572.6609, 3084.608
573.1431, 3070.894
573.6252, 3062.672
574.1073, 3058.617
574.5894, 3056.266
575.0715, 3056.153
575.5536, 3055.602
576.0358, 3056.904
576.5179, 3055.240
577.0000, 3043.693
577.4821, 3025.551
577.9642, 3010.741
578.4464, 3004.641
578.9285, 3003.621
579.4106, 3000.071
579.8927, 2992.961
580.3748, 2988.601
580.8569, 2992.243
581.3391, 2992.769
581.8212, 2983.837
582.3033, 2967.470
582.7854, 2947.105
583.2675, 2917.858
583.7496, 2895.300
584.2318, 2897.873
584.7139, 2912.260
585.1960, 2912.180
585.6781, 2893.902
586.1602, 2874.086
586.6423, 2867.430
587.1245, 2871.827
587.6066, 2870.872
588.0887, 2861.979
588.5708, 2851.536
589.0529, 2838.440
589.5350, 2825.733
590.0172, 2814.551
590.4993, 2805.664
590.9814, 2801.246
591.4635, 2806.664
591.9456, 2813.984
592.4277, 2811.263
592.9099, 2799.692
593.3920, 2785.841
593.8741, 2770.784
594.3562, 2758.199
594.8383, 2753.398
595.3204, 2757.755
595.8026, 2759.362
596.2847, 2761.030
596.7668, 2757.007
597.2489, 2738.341
597.7310, 2716.516
598.2131, 2708.367
598.6953, 2716.285
599.1774, 2722.569
599.6595, 2704.648
600.1416, 2671.379
600.6237, 2657.330
601.1058, 2664.778
601.5880, 2674.633
602.0701, 2681.533
602.5522, 2683.160
603.0343, 2672.267
603.5164, 2643.625
603.9985, 2626.059
604.4807, 2633.904
604.9628, 2642.860
605.4449, 2636.223
605.9270, 2620.329
606.4091, 2609.717
606.8912, 2610.329
607.3734, 2613.399
607.8555, 2603.121
608.3376, 2580.226
608.8197, 2574.630
609.3018, 2595.756
609.7839, 2613.436
610.2661, 2608.510
610.7482, 2589.860
611.2303, 2576.023
611.7124, 2568.042
612.1945, 2562.930
612.6766, 2562.419
613.1588, 2562.468
613.6409, 2561.691
614.1230, 2558.322
614.6051, 2545.925
615.0872, 2519.861
615.5693, 2491.899
616.0515, 2489.073
616.5336, 2516.682
617.0157, 2532.127
617.4978, 2523.555
617.9799, 2514.348
618.4620, 2524.017
618.9442, 2542.485
619.4263, 2548.752
619.9084, 2533.448
620.3905, 2518.649
620.8726, 2517.444
621.3547, 2520.740
621.8369, 2518.242
622.3190, 2508.911
622.8011, 2494.358
623.2832, 2474.421
623.7653, 2454.265
624.2474, 2451.019
624.7296, 2472.533
625.2117, 2483.748
625.6938, 2473.551
626.1759, 2460.168
626.6580, 2456.521
627.1401, 2458.472
627.6223, 2454.369
628.1044, 2436.685
628.5865, 2420.561
629.0686, 2417.037
629.5507, 2419.810
630.0328, 2418.502
630.5150, 2412.243
630.9971, 2407.946
631.4792, 2411.304
631.9613, 2419.731
632.4434, 2423.297
632.9255, 2421.371
633.4077, 2416.068
633.8898, 2403.269
634.3719, 2391.308
634.8540, 2387.126
635.3361, 2388.151
635.8182, 2385.547
636.3003, 2371.930
636.7824, 2361.071
637.2645, 2366.231
637.7466, 2379.151
638.2288, 2386.134
638.7109, 2384.895
639.1930, 2379.281
639.6751, 2370.983
640.1572, 2362.453
640.6393, 2367.189
641.1215, 2396.282
641.6036, 2411.686
642.0857, 2400.075
642.5678, 2379.790
643.0499, 2357.711
643.5320, 2336.011
644.0142, 2320.133
644.4963, 2309.712
644.9784, 2308.289
645.4605, 2328.439
645.9426, 2355.692
646.4247, 2362.844
646.9069, 2346.950
647.3890, 2326.608
647.8711, 2316.265
648.3532, 2314.160
648.8353, 2312.488
649.3174, 2310.251
649.7996, 2311.127
650.2817, 2317.644
650.7638, 2325.621
651.2459, 2333.637
651.7280, 2340.937
652.2101, 2345.533
652.6923, 2347.745
653.1744, 2345.775
653.6565, 2333.599
654.1386, 2318.667
654.6207, 2314.064
655.1028, 2320.399
655.5850, 2326.626
656.0671, 2324.220
656.5492, 2315.949
657.0313, 2310.899
657.5134, 2309.116
657.9955, 2310.695
658.4777, 2318.063
658.9598, 2326.066
659.4419, 2331.526
659.9240, 2334.846
660.4061, 2337.551
660.8882, 2342.458
661.3704, 2342.639
661.8525, 2327.888
662.3346, 2310.359
662.8167, 2307.737
663.2988, 2319.037
663.7809, 2330.115
664.2631, 2332.160
664.7452, 2325.642
665.2273, 2307.233
665.7094, 2272.559
666.1915, 2257.142
666.6736, 2275.229
667.1558, 2296.951
667.6379, 2300.282
668.1200, 2291.722
668.6021, 2287.042
669.0842, 2289.327
669.5663, 2291.839
670.0485, 2291.988
670.5306, 2291.748
671.0127, 2294.116
671.4948, 2297.857
671.9769, 2298.329
672.4590, 2292.743
672.9412, 2285.208
673.4233, 2283.593
673.9054, 2287.692
674.3875, 2287.635
674.8696, 2280.443
675.3517, 2276.259
675.8339, 2284.922
676.3160, 2299.392
676.7981, 2299.525
677.2802, 2277.719
677.7623, 2261.919
678.2444, 2256.984
678.7266, 2258.084
679.2087, 2268.174
679.6908, 2280.647
680.1729, 2282.286
680.6550, 2267.805
681.1371, 2249.823
681.6193, 2241.102
682.1014, 2240.589
682.5835, 2246.502
683.0656, 2259.286
683.5477, 2268.244
684.0298, 2267.620
684.5120, 2261.423
684.9941, 2256.497
685.4762, 2252.443
685.9583, 2251.100
686.4404, 2257.731
686.9225, 2260.800
687.4047, 2252.830
687.8868, 2240.577
688.3689, 2232.921
688.8510, 2231.618
689.3331, 2231.181
689.8152, 2227.470
690.2974, 2222.417
690.7795, 2218.260
691.2616, 2215.345
691.7437, 2214.874
692.2258, 2217.305
692.7079, 2222.524
693.1901, 2231.928
693.6722, 2245.853
694.1543, 2247.137
694.6364, 2223.976
695.1185, 2207.309
695.6006, 2208.452
696.0828, 2215.194
696.5649, 2219.560
697.0470, 2220.678
697.5291, 2217.902
698.0112, 2202.831
698.4933, 2192.043
698.9755, 2204.979
699.4576, 2227.415
699.9397, 2232.926
700.4218, 2218.492
700.9039, 2202.503
701.3860, 2199.955
701.8682, 2206.748
702.3503, 2209.026
702.8324, 2205.527
703.3145, 2204.907
703.7966, 2210.393
704.2787, 2216.128
704.7609, 2218.820
705.2430, 2218.157
705.7251, 2212.781
706.2072, 2196.599
706.6893, 2185.778
707.1714, 2187.624
707.6536, 2193.499
708.1357, 2196.822
708.6178, 2197.901
709.0999, 2200.222
709.5820, 2205.698
710.0641, 2210.278
710.5463, 2208.153
711.0284, 2200.585
711.5105, 2190.712
711.9926, 2178.319
712.4747, 2174.563
712.9568, 2188.126
713.4390, 2208.638
713.9211, 2215.587
714.4032, 2204.115
714.8853, 2194.614
715.3674, 2184.921
715.8495, 2179.606
716.3317, 2185.146
716.8138, 2193.151
717.2959, 2191.189
717.7780, 2177.809
718.2601, 2169.456
718.7422, 2180.502
719.2244, 2197.139
719.7065, 2206.111
720.1886, 2208.262
720.6707, 2205.699
721.1528, 2199.346
721.6349, 2192.372
722.1171, 2187.304
722.5992, 2184.679
723.0813, 2190.498
723.5634, 2210.159
724.0455, 2218.718
724.5276, 2204.995
725.0098, 2185.574
725.4919, 2173.550
725.9740, 2167.781
726.4561, 2164.011
726.9382, 2159.701
727.4203, 2160.292
727.9025, 2173.459
728.3846, 2187.464
728.8667, 2191.739
729.3488, 2187.252
729.8309, 2180.400
730.3130, 2174.344
730.7952, 2167.235
731.2773, 2152.320
731.7594, 2134.113
732.2415, 2131.349
732.7236, 2145.882
733.2057, 2165.017
733.6879, 2183.738
734.1700, 2199.194
734.6521, 2205.579
735.1342, 2200.294
735.6163, 2195.432
736.0984, 2196.190
736.5805, 2190.776
737.0626, 2166.222
737.5447, 2139.534
738.0269, 2131.601
738.5090, 2144.149
738.9911, 2155.868
739.4732, 2158.450
739.9553, 2156.253
740.4374, 2150.059
740.9196, 2142.459
741.4017, 2136.287
741.8838, 2132.971
742.3659, 2136.595
742.8480, 2152.822
743.3301, 2174.963
743.8123, 2183.513
744.2944, 2178.050
744.7765, 2167.074
745.2586, 2149.586
745.7407, 2134.044
746.2228, 2126.721
746.7050, 2126.506
747.1871, 2128.938
747.6692, 2137.951
748.1513, 2143.076
748.6334, 2143.857
749.1155, 2140.780
749.5977, 2128.546
750.0798, 2114.389
750.5619, 2111.753
751.0440, 2124.973
751.5261, 2139.602
752.0082, 2146.481
752.4904, 2148.380
752.9725, 2150.179
753.4546, 2150.462
753.9367, 2140.474
754.4188, 2117.833
754.9009, 2098.628
755.3831, 2104.424
755.8652, 2130.973
756.3473, 2138.967
756.8294, 2122.785
757.3115, 2111.411
757.7936, 2113.182
758.2758, 2120.505
758.7579, 2129.339
759.2400, 2138.564
759.7221, 2139.462
760.2042, 2122.176
760.6863, 2110.058
761.1685, 2111.970
761.6506, 2116.153
762.1327, 2112.744
762.6148, 2104.430
763.0969, 2099.727
763.5790, 2102.329
764.0612, 2106.433
764.5433, 2107.019
765.0254, 2105.608
765.5075, 2105.072
765.9896, 2105.256
766.4717, 2104.797
766.9539, 2103.193
767.4360, 2098.802
767.9181, 2087.521
768.4002, 2069.707
768.8823, 2064.417
769.3644, 2076.475
769.8466, 2086.472
770.3287, 2090.191
770.8108, 2088.254
771.2929, 2078.402
771.7750, 2061.717
772.2571, 2050.740
772.7393, 2046.246
773.2214, 2047.073
773.7035, 2055.579
774.1856, 2067.119
774.6677, 2082.224
775.1498, 2096.728
775.6320, 2101.012
776.1141, 2089.889
776.5962, 2074.281
777.0783, 2060.996
777.5604, 2051.276
778.0425, 2047.360
778.5247, 2049.105
779.0068, 2057.461
779.4889, 2073.139
779.9710, 2085.725
780.4531, 2078.432
780.9352, 2052.713
781.4174, 2040.554
781.8995, 2044.903
782.3816, 2052.039
782.8637, 2061.271
783.3458, 2067.228
783.8279, 2062.927
784.3101, 2049.050
784.7922, 2038.434
785.2743, 2032.258
785.7564, 2027.574
786.2385, 2019.808
786.7206, 2017.064
787.2028, 2032.522
787.6849, 2056.424
788.1670, 2064.537
788.6491, 2045.941
789.1312, 2026.198
789.6133, 2024.489
790.0955, 2031.648
790.5776, 2038.877
791.0597, 2044.336
791.5418, 2044.317
792.0239, 2037.788
792.5060, 2029.682
792.9882, 2025.834
793.4703, 2025.169
793.9524, 2022.151
794.4345, 2016.573
794.9166, 2011.176
795.3987, 2006.076
795.8809, 2003.080
796.3630, 2004.434
796.8451, 2009.235
797.3272, 2012.204
797.8093, 2014.215
798.2914, 2012.808
798.7736, 2003.968
799.2557, 1996.023
799.7378, 1990.301
800.2199, 1989.152
800.7020, 1999.620
801.1841, 2025.649
801.6663, 2041.349
802.1484, 2029.394
802.6305, 2008.982
803.1126, 1989.405
803.5947, 1974.076
804.0768, 1968.676
804.5590, 1973.411
805.0411, 1981.941
805.5232, 1991.790
806.0053, 1998.800
806.4874, 1992.153
806.9695, 1975.076
807.4517, 1962.695
807.9338, 1957.510
808.4159, 1960.460
808.8980, 1973.758
809.3801, 1991.324
809.8622, 1997.468
810.3444, 1988.533
810.8265, 1984.259
811.3086, 1988.510
811.7907, 1989.885
812.2728, 1980.007
812.7549, 1967.580
813.2371, 1965.842
813.7192, 1975.310
814.2013, 1979.353
814.6834, 1971.900
815.1655, 1964.767
815.6476, 1960.101
816.1298, 1958.364
816.6119, 1964.031
817.0940, 1973.052
817.5761, 1971.703
818.0582, 1949.927
818.5403, 1930.724
819.0225, 1934.712
819.5046, 1950.760
819.9867, 1967.077
820.4688, 1981.253
820.9509, 1991.777
821.4330, 1997.893
821.9152, 1996.780
822.3973, 1981.458
822.8794, 1956.931
823.3615, 1945.212
823.8436, 1946.255
824.3257, 1947.332
824.8079, 1944.731
825.2900, 1944.745
825.7721, 1953.969
826.2542, 1969.601
826.7363, 1978.380
827.2184, 1978.033
827.7006, 1976.116
828.1827, 1970.456
828.6648, 1966.416
829.1469, 1968.690
829.6290, 1973.130
830.1111, 1973.646
830.5933, 1969.531
831.0754, 1964.527
831.5575, 1955.566
832.0396, 1950.260
832.5217, 1956.320
833.0038, 1964.900
833.4860, 1963.178
833.9680, 1953.413
834.4501, 1952.495
834.9323, 1974.552
835.4144, 1994.600
835.8965, 1983.779
836.3786, 1960.009
836.8607, 1948.861
837.3428, 1951.736
837.8250, 1966.233
838.3071, 1991.037
838.7892, 2010.185
839.2713, 1998.674
839.7534, 1964.805
840.2355, 1945.599
840.7177, 1940.851
841.1998, 1937.710
841.6819, 1932.839
842.1640, 1927.960
842.6461, 1923.625
843.1282, 1921.292
843.6104, 1928.297
844.0925, 1947.823
844.5746, 1968.324
845.0567, 1997.588
845.5388, 2014.538
846.0209, 1997.858
846.5031, 1967.480
846.9852, 1958.367
847.4673, 1974.866
847.9494, 1982.107
848.4315, 1964.799
848.9136, 1952.947
849.3958, 1963.354
849.8779, 1978.528
850.3600, 1981.521
850.8421, 1973.525
851.3242, 1965.692
851.8063, 1962.354
852.2885, 1959.591
852.7706, 1953.308
853.2527, 1947.541
853.7348, 1947.428
854.2169, 1951.564
854.6990, 1956.921
855.1812, 1962.123
855.6633, 1964.311
856.1454, 1958.810
856.6275, 1949.858
857.1096, 1945.121
857.5917, 1944.556
858.0739, 1949.637
858.5560, 1960.271
859.0381, 1969.580
859.5202, 1972.892
860.0023, 1971.078
860.4844, 1964.273
860.9666, 1951.759
861.4487, 1945.647
861.9308, 1946.816
862.4129, 1952.807
862.8950, 1964.665
863.3771, 1977.262
863.8593, 1984.122
864.3414, 1985.218
864.8235, 1985.741
865.3056, 1986.253
865.7877, 1985.222
866.2698, 1980.453
866.7520, 1976.088
867.2341, 1973.805
867.7162, 1973.787
868.1983, 1977.176
868.6804, 1986.027
869.1625, 1990.880
869.6447, 1984.691
870.1268, 1979.772
870.6089, 1984.154
871.0910, 1992.135
871.5731, 1997.988
872.0552, 2000.397
872.5374, 1998.353
873.0195, 1989.393
873.5016, 1979.452
873.9837, 1971.826
874.4658, 1966.508
874.9479, 1962.116
875.4301, 1960.209
875.9122, 1967.566
876.3943, 1986.151
876.8764, 2002.437
877.3585, 1999.422
877.8406, 1985.833
878.3228, 1978.746
878.8049, 1977.312
879.2870, 1978.761
879.7691, 1982.344
880.2512, 1987.267
880.7333, 1993.523
881.2155, 1998.469
881.6976, 1994.274
882.1797, 1981.052
882.6618, 1976.687
883.1439, 1983.476
883.6260, 1986.338
884.1082, 1977.107
884.5903, 1968.929
885.0724, 1979.257
885.5545, 2006.315
886.0366, 2023.791
886.5187, 2029.062
887.0009, 2031.233
887.4830, 2030.059
887.9651, 2027.752
888.4472, 2023.574
888.9293, 2019.919
889.4114, 2023.729
889.8936, 2039.286
890.3757, 2044.293
890.8578, 2022.574
891.3399, 2009.943
891.8220, 2023.901
892.3041, 2045.439
892.7863, 2060.028
893.2684, 2066.815
893.7505, 2067.477
894.2326, 2059.482
894.7147, 2052.143
895.1968, 2047.642
895.6790, 2046.359
896.1611, 2048.171
896.6432, 2053.546
897.1253, 2066.285
897.6074, 2085.435
898.0895, 2097.994
898.5717, 2092.284
899.0538, 2081.767
899.5359, 2075.954
900.0180, 2074.567
900.5001, 2076.620
900.9822, 2082.661
901.4644, 2097.014
901.9465, 2121.512
902.4286, 2144.024
902.9107, 2150.121
903.3928, 2145.458
903.8749, 2139.251
904.3571, 2132.733
904.8392, 2130.594
905.3213, 2133.503
905.8034, 2136.486
906.2855, 2135.793
906.7676, 2133.957
907.2498, 2136.061
907.7319, 2141.867
908.2140, 2150.167
908.6961, 2161.093
909.1782, 2168.289
909.6603, 2168.920
910.1425, 2168.023
910.6246, 2171.308
911.1067, 2177.836
911.5888, 2181.419
912.0709, 2180.980
912.5530, 2183.201
913.0352, 2189.675
913.5173, 2196.169
913.9994, 2199.332
914.4815, 2202.609
914.9636, 2212.945
915.4457, 2231.962
915.9279, 2242.369
916.4100, 2236.336
916.8921, 2235.885
917.3742, 2250.354
917.8563, 2265.790
918.3384, 2269.142
918.8206, 2266.377
919.3027, 2274.783
919.7848, 2302.300
920.2669, 2318.920
920.7490, 2312.065
921.2311, 2307.481
921.7133, 2314.466
922.1954, 2327.587
922.6775, 2344.995
923.1596, 2364.110
923.6417, 2374.162
924.1238, 2364.042
924.6060, 2361.646
925.0881, 2383.090
925.5702, 2407.437
926.0523, 2420.802
926.5344, 2427.692
927.0165, 2435.796
927.4987, 2446.400
927.9808, 2456.495
928.4629, 2458.965
928.9450, 2467.984
929.4271, 2502.034
929.9092, 2539.775
930.3914, 2555.646
930.8735, 2555.649
931.3556, 2557.450
931.8377, 2567.016
932.3198, 2583.839
932.8019, 2611.698
933.2840, 2642.925
933.7661, 2671.231
934.2482, 2695.762
934.7303, 2713.508
935.2125, 2725.796
935.6946, 2739.355
936.1767, 2757.701
936.6588, 2776.108
937.1409, 2787.991
937.6230, 2797.141
938.1052, 2810.411
938.5873, 2827.375
939.0694, 2846.443
939.5515, 2867.014
940.0336, 2888.351
940.5157, 2909.967
940.9979, 2931.472
941.4800, 2950.794
941.9621, 2969.469
942.4442, 2996.793
942.9263, 3031.178
943.4084, 3054.292
943.8906, 3060.320
944.3727, 3064.596
944.8548, 3081.013
945.3369, 3106.465
945.8190, 3132.376
946.3011, 3159.039
946.7833, 3191.931
947.2654, 3231.928
947.7475, 3268.779
948.2296, 3298.688
948.7117, 3319.236
949.1938, 3324.681
949.6760, 3319.751
950.1581, 3334.034
950.6402, 3369.733
951.1223, 3405.102
951.6044, 3437.588
952.0865, 3468.919
952.5687, 3499.323
953.0508, 3530.603
953.5329, 3566.890
954.0150, 3608.105
954.4971, 3636.827
954.9792, 3642.247
955.4614, 3676.580
955.9435, 3762.795
956.4256, 3845.593
956.9077, 3886.701
957.3898, 3906.664
957.8719, 3949.303
958.3541, 4020.489
958.8362, 4072.260
959.3183, 4092.643
959.8004, 4118.780
960.2825, 4152.204
960.7646, 4202.858
961.2468, 4284.968
961.7289, 4387.650
962.2110, 4481.126
962.6931, 4562.982
963.1752, 4643.402
963.6573, 4715.786
964.1395, 4797.808
964.6216, 4901.767
965.1037, 5009.351
965.5858, 5093.927
966.0679, 5168.495
966.5500, 5283.234
967.0322, 5465.262
967.5143, 5626.991
967.9964, 5737.899
968.4785, 5863.611
968.9606, 6033.158
969.4427, 6219.878
969.9249, 6396.202
970.4070, 6565.750
970.8891, 6753.075
971.3712, 6966.472
971.8533, 7184.789
972.3354, 7413.416
972.8176, 7637.424
973.2997, 7839.016
973.7818, 8040.452
974.2639, 8273.275
974.7460, 8532.403
975.2281, 8776.054
975.7103, 8976.902
976.1924, 9196.415
976.6745, 9477.253
977.1566, 9745.057
977.6387, 9952.318
978.1208, 10127.84
978.6030, 10306.12
979.0851, 10489.84
979.5672, 10664.71
980.0493, 10828.74
980.5314, 10981.40
981.0135, 11114.03
981.4957, 11243.44
981.9778, 11399.24
982.4599, 11548.82
982.9420, 11635.56
983.4241, 11657.61
983.9063, 11686.92
984.3884, 11771.58
984.8705, 11831.23
985.3526, 11832.57
985.8347, 11804.55
986.3168, 11747.06
986.7990, 11684.50
987.2811, 11658.35
987.7632, 11672.41
988.2453, 11676.34
988.7274, 11656.62
989.2095, 11617.01
989.6917, 11542.94
990.1738, 11464.94
990.6559, 11414.75
991.1380, 11375.95
991.6201, 11307.89
992.1022, 11205.67
992.5844, 11131.80
993.0665, 11148.43
993.5486, 11151.40
994.0307, 11080.22
994.5128, 10985.53
994.9949, 10895.05
995.4771, 10820.54
995.9592, 10779.28
996.4413, 10773.91
996.9234, 10769.85
997.4055, 10758.56
997.8876, 10736.91
998.3698, 10685.81
998.8519, 10639.21
999.3340, 10620.97
999.8161, 10632.89
1000.298, 10676.89
1000.780, 10752.62
1001.262, 10835.93
1001.745, 10921.05
1002.227, 11005.49
1002.709, 11098.19
1003.191, 11180.81
1003.673, 11227.39
1004.155, 11253.67
1004.637, 11295.86
1005.119, 11361.31
1005.602, 11408.29
1006.084, 11420.03
1006.566, 11406.99
1007.048, 11362.49
1007.530, 11306.02
1008.012, 11272.23
1008.494, 11234.17
1008.976, 11125.67
1009.458, 10934.77
1009.941, 10758.33
1010.423, 10670.71
1010.905, 10565.02
1011.387, 10381.04
1011.869, 10163.96
1012.351, 9942.736
1012.833, 9721.667
1013.315, 9496.602
1013.797, 9267.507
1014.280, 9057.820
1014.762, 8889.700
1015.244, 8725.687
1015.726, 8548.522
1016.208, 8368.155
1016.690, 8183.864
1017.172, 8006.553
1017.654, 7854.659
1018.137, 7731.352
1018.619, 7625.843
1019.101, 7543.336
1019.583, 7465.875
1020.065, 7375.492
1020.547, 7298.673
1021.029, 7261.409
1021.511, 7248.084
1021.993, 7232.662
1022.476, 7211.467
1022.958, 7193.970
1023.440, 7166.997
1023.922, 7166.445
1024.404, 7222.905
1024.886, 7288.739
1025.368, 7334.287
1025.850, 7368.452
1026.333, 7407.603
1026.815, 7452.831
1027.297, 7492.300
1027.779, 7517.943
1028.261, 7546.222
1028.743, 7584.296
1029.225, 7622.094
1029.707, 7658.017
1030.189, 7687.910
1030.672, 7711.154
1031.154, 7725.762
1031.636, 7714.058
1032.118, 7669.291
1032.600, 7604.654
1033.082, 7516.163
1033.564, 7415.255
1034.046, 7310.874
1034.528, 7194.550
1035.011, 7050.532
1035.493, 6882.437
1035.975, 6716.367
1036.457, 6557.825
1036.939, 6395.690
1037.421, 6229.098
1037.903, 6057.428
1038.385, 5866.077
1038.868, 5680.985
1039.350, 5535.330
1039.832, 5418.493
1040.314, 5278.257
1040.796, 5090.939
1041.278, 4935.479
1041.760, 4830.596
1042.242, 4727.023
1042.724, 4608.608
1043.207, 4489.565
1043.689, 4382.333
1044.171, 4283.136
1044.653, 4178.489
1045.135, 4062.401
1045.617, 3963.726
1046.099, 3885.705
1046.581, 3817.653
1047.063, 3761.797
1047.546, 3704.657
1048.028, 3634.109
1048.510, 3558.125
1048.992, 3495.828
1049.474, 3448.542
1049.956, 3398.943
1050.438, 3346.093
1050.920, 3294.701
1051.403, 3245.448
1051.885, 3199.440
1052.367, 3158.636
1052.849, 3118.382
1053.331, 3067.112
1053.813, 3006.969
1054.295, 2976.657
1054.777, 2978.662
1055.260, 2980.274
1055.742, 2978.200
1056.224, 2954.123
1056.706, 2895.894
1057.188, 2830.298
1057.670, 2792.894
1058.152, 2777.493
1058.634, 2760.929
1059.116, 2742.962
1059.599, 2717.708
1060.081, 2685.542
1060.563, 2663.291
1061.045, 2657.522
1061.527, 2658.144
1062.009, 2656.831
1062.491, 2651.309
1062.973, 2634.748
1063.455, 2609.972
1063.938, 2585.476
1064.420, 2562.529
1064.902, 2544.008
1065.384, 2530.123
1065.866, 2513.711
1066.348, 2488.043
1066.830, 2463.123
1067.312, 2454.318
1067.795, 2454.787
1068.277, 2456.600
1068.759, 2455.961
1069.241, 2441.691
1069.723, 2415.612
1070.205, 2396.313
1070.687, 2394.543
1071.169, 2394.774
1071.651, 2379.882
1072.134, 2362.689
1072.616, 2360.636
1073.098, 2363.309
1073.580, 2351.147
1074.062, 2328.252
1074.544, 2315.859
1075.026, 2321.597
1075.508, 2323.915
1075.990, 2302.173
1076.473, 2282.976
1076.955, 2291.034
1077.437, 2302.740
1077.919, 2293.086
1078.401, 2269.865
1078.883, 2250.613
1079.365, 2238.706
1079.847, 2231.823
1080.330, 2229.981
1080.812, 2232.120
1081.294, 2245.448
1081.776, 2254.415
1082.258, 2248.685
1082.740, 2233.825
1083.222, 2212.040
1083.704, 2186.110
1084.186, 2177.404
1084.669, 2205.308
1085.151, 2219.119
1085.633, 2205.244
1086.115, 2193.146
1086.597, 2195.218
1087.079, 2198.396
1087.561, 2189.416
1088.043, 2173.165
1088.526, 2165.103
1089.008, 2166.525
1089.490, 2171.426
1089.972, 2185.261
1090.454, 2184.045
1090.936, 2156.556
1091.418, 2131.285
1091.900, 2127.162
1092.382, 2135.052
1092.865, 2141.420
1093.347, 2145.480
1093.829, 2133.555
1094.311, 2104.498
1094.793, 2098.322
1095.275, 2120.781
1095.757, 2134.339
1096.239, 2121.841
1096.721, 2108.854
1097.204, 2125.255
1097.686, 2155.365
1098.168, 2158.246
1098.650, 2141.744
1099.132, 2137.612
1099.614, 2143.723
1100.096, 2135.193
1100.578, 2108.499
1101.061, 2093.714
1101.543, 2113.770
1102.025, 2138.256
1102.507, 2125.038
1102.989, 2098.437
1103.471, 2094.567
1103.953, 2103.814
1104.435, 2106.323
1104.917, 2101.240
1105.400, 2098.760
1105.882, 2102.931
1106.364, 2104.915
1106.846, 2093.579
1107.328, 2084.877
1107.810, 2093.678
1108.292, 2106.296
1108.774, 2109.277
1109.256, 2106.000
1109.739, 2103.596
1110.221, 2103.446
1110.703, 2106.742
1111.185, 2120.102
1111.667, 2127.291
1112.149, 2120.930
1112.631, 2112.403
1113.113, 2106.062
1113.596, 2101.039
1114.078, 2092.921
1114.560, 2084.974
1115.042, 2091.675
1115.524, 2120.916
1116.006, 2139.674
1116.488, 2149.176
1116.970, 2143.483
1117.453, 2113.422
1117.935, 2085.867
1118.417, 2078.381
1118.899, 2083.313
1119.381, 2089.180
1119.863, 2095.330
1120.345, 2093.368
1120.827, 2083.040
1121.309, 2075.302
1121.792, 2071.440
1122.274, 2066.709
1122.756, 2059.219
1123.238, 2051.553
1123.720, 2045.870
1124.202, 2042.270
1124.684, 2043.075
1125.166, 2045.415
1125.648, 2041.465
1126.131, 2031.989
1126.613, 2018.253
1127.095, 2002.456
1127.577, 1993.388
1128.059, 1995.995
1128.541, 1999.692
1129.023, 1994.125
1129.505, 1986.412
1129.988, 1983.820
1130.470, 1982.749
1130.952, 1979.040
1131.434, 1972.864
1131.916, 1966.013
1132.398, 1958.737
1132.880, 1949.187
1133.362, 1933.543
1133.844, 1920.181
1134.327, 1907.367
1134.809, 1902.331
1135.291, 1919.390
1135.773, 1938.272
1136.255, 1933.886
1136.737, 1911.221
1137.219, 1895.194
1137.701, 1884.299
1138.183, 1887.485
1138.666, 1919.855
1139.148, 1928.316
1139.630, 1892.463
1140.112, 1856.305
1140.594, 1844.342
1141.076, 1849.082
1141.558, 1862.043
1142.040, 1880.270
1142.523, 1885.111
1143.005, 1877.208
1143.487, 1872.236
1143.969, 1871.085
1144.451, 1865.071
1144.933, 1852.054
1145.415, 1844.450
1145.897, 1852.776
1146.380, 1865.296
1146.862, 1865.309
1147.344, 1858.175
1147.826, 1855.533
1148.308, 1852.211
1148.790, 1830.017
1149.272, 1796.645
1149.754, 1785.144
1150.236, 1805.983
1150.719, 1825.291
1151.201, 1823.384
1151.683, 1813.578
1152.165, 1795.558
1152.647, 1780.353
1153.129, 1778.653
1153.611, 1783.536
1154.093, 1786.330
1154.575, 1786.193
1155.058, 1783.174
1155.540, 1773.144
1156.022, 1770.995
1156.504, 1785.692
1156.986, 1793.126
1157.468, 1782.929
1157.950, 1773.962
1158.432, 1780.064
1158.915, 1790.318
1159.397, 1784.927
1159.879, 1767.648
1160.361, 1775.164
1160.843, 1808.571
1161.325, 1813.448
1161.807, 1786.099
1162.289, 1780.070
1162.771, 1811.405
1163.254, 1835.149
1163.736, 1816.065
1164.218, 1783.846
1164.700, 1786.952
1165.182, 1803.580
1165.664, 1789.421
1166.146, 1760.007
1166.628, 1747.852
1167.110, 1751.958
1167.593, 1753.966
1168.075, 1748.830
1168.557, 1749.614
1169.039, 1771.887
1169.521, 1788.072
1170.003, 1777.110
1170.485, 1763.691
1170.967, 1767.860
1171.450, 1775.999
1171.932, 1768.729
1172.414, 1750.473
1172.896, 1741.897
1173.378, 1745.427
1173.860, 1753.277
1174.342, 1774.554
1174.824, 1777.292
1175.307, 1747.985
1175.789, 1722.767
1176.271, 1719.416
1176.753, 1728.240
1177.235, 1740.394
1177.717, 1751.780
1178.199, 1744.528
1178.681, 1722.568
1179.163, 1720.118
1179.646, 1733.726
1180.128, 1731.568
1180.610, 1710.318
1181.092, 1697.658
1181.574, 1707.887
1182.056, 1721.615
1182.538, 1718.592
1183.020, 1711.788
1183.502, 1714.632
1183.984, 1721.459
1184.467, 1729.159
1184.949, 1734.182
1185.431, 1728.162
1185.913, 1713.334
1186.395, 1708.020
1186.877, 1721.818
1187.359, 1730.679
1187.841, 1726.753
1188.324, 1721.552
1188.806, 1715.432
1189.288, 1712.766
1189.770, 1719.014
1190.252, 1726.751
1190.734, 1723.849
1191.216, 1712.354
1191.698, 1709.290
1192.181, 1715.456
1192.663, 1714.434
1193.145, 1705.382
1193.627, 1701.668
1194.109, 1706.715
1194.591, 1716.036
1195.073, 1727.464
1195.555, 1733.003
1196.037, 1715.939
1196.520, 1692.745
1197.002, 1693.027
1197.484, 1701.880
1197.966, 1691.607
1198.448, 1671.918
1198.930, 1671.562
1199.412, 1691.950
1199.894, 1704.115
1200.376, 1694.188
1200.859, 1686.267
1201.341, 1689.255
1201.823, 1694.333
1202.305, 1702.425
1202.787, 1706.638
1203.269, 1698.381
1203.751, 1686.899
1204.233, 1686.772
1204.716, 1696.714
1205.198, 1705.560
1205.680, 1714.017
1206.162, 1714.098
1206.644, 1704.899
1207.126, 1700.268
1207.608, 1703.730
1208.090, 1704.647
1208.573, 1696.167
1209.055, 1687.949
1209.537, 1696.188
1210.019, 1707.898
1210.501, 1699.015
1210.983, 1680.989
1211.465, 1670.092
1211.947, 1665.718
1212.429, 1662.964
1212.911, 1661.277
1213.394, 1664.831
1213.876, 1679.087
1214.358, 1682.525
1214.840, 1652.624
1215.322, 1632.856
1215.804, 1644.531
1216.286, 1662.607
1216.768, 1677.244
1217.251, 1685.398
1217.733, 1680.137
1218.215, 1666.347
1218.697, 1670.682
1219.179, 1695.321
1219.661, 1699.796
1220.143, 1683.714
1220.625, 1670.438
1221.108, 1664.787
1221.590, 1665.685
1222.072, 1672.503
1222.554, 1678.723
1223.036, 1677.567
1223.518, 1673.669
1224.000, 1671.367
1224.482, 1670.735
1224.964, 1674.883
1225.447, 1678.843
1225.929, 1673.420
1226.411, 1660.883
1226.893, 1650.999
1227.375, 1645.358
1227.857, 1645.279
1228.339, 1655.895
1228.821, 1664.329
1229.303, 1669.934
1229.786, 1671.773
1230.268, 1668.857
1230.750, 1663.176
1231.232, 1655.726
1231.714, 1648.539
1232.196, 1646.459
1232.678, 1648.730
1233.160, 1651.250
1233.643, 1653.678
1234.125, 1640.504
1234.607, 1662.818
1235.089, 1675.229
1235.571, 1678.270
1236.053, 1643.874
1236.535, 1657.819
1237.017, 1652.392
1237.500, 1646.170
1237.982, 1666.919
1238.464, 1637.968
1238.946, 1658.290
1239.428, 1658.943
1239.910, 1668.598
1240.392, 1658.760
1240.874, 1654.943
1241.356, 1670.625
1241.839, 1675.509
1242.321, 1663.428
1242.803, 1673.655
1243.285, 1644.023
1243.767, 1649.368
1244.249, 1669.804
1244.731, 1658.702
1245.213, 1641.114
1245.695, 1649.541
1246.178, 1660.805
1246.660, 1657.091
1247.142, 1646.481
1247.624, 1641.582
1248.106, 1639.114
1248.588, 1628.492
1249.070, 1614.308
1249.552, 1615.178
1250.035, 1636.033
1250.517, 1651.012
1250.999, 1656.140
1251.481, 1650.117
1251.963, 1618.736
1252.445, 1600.457
1252.927, 1612.582
1253.409, 1630.056
1253.891, 1634.357
1254.374, 1632.209
1254.856, 1635.009
1255.338, 1641.525
1255.820, 1648.639
1256.302, 1654.420
1256.784, 1647.087
1257.266, 1631.172
1257.748, 1626.707
1258.230, 1635.101
1258.713, 1639.630
1259.195, 1632.737
1259.677, 1624.757
1260.159, 1620.863
1260.641, 1618.505
1261.123, 1615.853
1261.605, 1615.095
1262.087, 1619.230
1262.570, 1624.634
1263.052, 1628.068
1263.534, 1629.536
1264.016, 1628.851
1264.498, 1625.997
1264.980, 1623.417
1265.462, 1621.101
1265.944, 1619.484
1266.427, 1618.761
1266.909, 1621.833
1267.391, 1628.720
1267.873, 1631.103
1268.355, 1623.198
1268.837, 1614.914
1269.319, 1618.590
1269.801, 1621.468
##END=



