##NAMES=Phosphohedyphane
##RRUFFID=R060733
##IDEAL CHEMISTRY=Ca_2_Pb^2+^_3_(PO_4_)_3_Cl
##LOCALITY=Capitana mine, Copiapo, Chile
##OWNER=RRUFF
##SOURCE=Bob Jenkins
##DESCRIPTION=Colorless prismatic crystals associated with colorless gypsum, co-type sample
##STATUS=The identification of this mineral is confirmed by single-crystal X-ray diffraction and chemical analysis.
##URL=rruff.info/R060733
##MEASURED CHEMISTRY=(Ca_1.75_Pb_0.22_Na_0.03_)_Î£=2_Pb_3.00_(P_1.00_O_4_)_3_Cl_1.00_
233.0681, 15089.42
233.5502, 15082.92
234.0323, 15068.85
234.5144, 15045.85
234.9965, 15003.74
235.4786, 14970.49
235.9608, 14957.99
236.4429, 14973.70
236.9250, 14975.56
237.4071, 14957.21
237.8892, 14928.92
238.3713, 14906.17
238.8535, 14888.41
239.3356, 14877.14
239.8177, 14873.43
240.2998, 14878.60
240.7819, 14886.75
241.2640, 14900.48
241.7462, 14915.79
242.2283, 14925.10
242.7104, 14923.06
243.1925, 14923.99
243.6746, 14935.47
244.1567, 14965.61
244.6389, 14976.78
245.1210, 14958.01
245.6031, 14926.82
246.0852, 14915.72
246.5673, 14936.99
247.0494, 14957.37
247.5316, 14963.21
248.0137, 14946.79
248.4958, 14942.80
248.9779, 14956.92
249.4600, 14980.34
249.9421, 14996.73
250.4243, 15004.87
250.9064, 15008.46
251.3885, 15008.96
251.8706, 15006.88
252.3527, 14998.65
252.8348, 14978.93
253.3170, 14956.38
253.7991, 14949.21
254.2812, 14965.80
254.7633, 14981.82
255.2454, 14987.51
255.7275, 14979.43
256.2097, 14973.11
256.6918, 14967.12
257.1739, 14963.95
257.6560, 14968.64
258.1381, 14983.28
258.6202, 15001.70
259.1024, 15024.36
259.5845, 15055.31
260.0666, 15071.00
260.5487, 15063.18
261.0308, 15046.35
261.5129, 15050.66
261.9951, 15088.58
262.4772, 15117.65
262.9593, 15115.84
263.4414, 15072.42
263.9235, 15049.78
264.4056, 15051.50
264.8878, 15070.54
265.3699, 15097.33
265.8520, 15136.47
266.3341, 15170.94
266.8162, 15194.79
267.2983, 15207.27
267.7805, 15210.80
268.2626, 15200.50
268.7447, 15186.66
269.2268, 15188.36
269.7089, 15209.31
270.1910, 15232.44
270.6732, 15252.09
271.1553, 15268.04
271.6374, 15281.34
272.1195, 15291.34
272.6016, 15299.63
273.0837, 15309.73
273.5659, 15323.08
274.0480, 15331.04
274.5301, 15326.13
275.0122, 15307.49
275.4943, 15304.04
275.9764, 15319.23
276.4586, 15343.14
276.9407, 15360.82
277.4228, 15371.18
277.9049, 15383.00
278.3870, 15400.70
278.8691, 15423.91
279.3513, 15442.96
279.8334, 15456.62
280.3155, 15469.25
280.7976, 15486.42
281.2798, 15508.07
281.7619, 15532.91
282.2440, 15565.84
282.7261, 15603.83
283.2082, 15621.00
283.6903, 15614.31
284.1725, 15598.05
284.6546, 15588.19
285.1367, 15584.65
285.6188, 15583.48
286.1009, 15580.79
286.5830, 15579.11
287.0652, 15593.16
287.5473, 15625.23
288.0294, 15658.68
288.5115, 15673.75
288.9936, 15672.29
289.4757, 15670.39
289.9579, 15682.89
290.4400, 15696.56
290.9221, 15662.97
291.4042, 15578.23
291.8863, 15494.91
292.3684, 15475.17
292.8506, 15505.64
293.3327, 15528.21
293.8148, 15524.97
294.2969, 15502.51
294.7790, 15467.13
295.2611, 15418.67
295.7433, 15375.06
296.2254, 15356.83
296.7075, 15355.91
297.1896, 15349.83
297.6717, 15327.82
298.1538, 15300.81
298.6360, 15286.82
299.1181, 15284.81
299.6002, 15284.05
300.0823, 15272.92
300.5644, 15257.52
301.0465, 15250.61
301.5287, 15262.34
302.0108, 15275.33
302.4929, 15266.94
302.9750, 15240.25
303.4571, 15213.48
303.9392, 15192.37
304.4214, 15180.35
304.9035, 15183.87
305.3856, 15212.63
305.8677, 15244.05
306.3498, 15256.00
306.8319, 15252.98
307.3141, 15251.08
307.7962, 15259.83
308.2783, 15274.25
308.7604, 15289.11
309.2425, 15301.25
309.7246, 15317.75
310.2068, 15350.88
310.6889, 15392.93
311.1710, 15424.31
311.6531, 15433.18
312.1352, 15429.25
312.6173, 15417.04
313.0995, 15393.36
313.5816, 15373.36
314.0637, 15355.87
314.5458, 15347.42
315.0279, 15359.94
315.5100, 15425.68
315.9922, 15492.75
316.4743, 15528.88
316.9564, 15521.19
317.4385, 15520.77
317.9206, 15547.91
318.4027, 15591.64
318.8849, 15636.56
319.3670, 15689.19
319.8491, 15732.98
320.3312, 15756.28
320.8133, 15753.07
321.2954, 15761.88
321.7776, 15801.93
322.2597, 15853.16
322.7418, 15894.21
323.2239, 15915.86
323.7060, 15933.20
324.1881, 15948.40
324.6703, 15961.33
325.1524, 15975.36
325.6345, 15982.73
326.1166, 15995.38
326.5987, 16023.28
327.0808, 16093.41
327.5630, 16146.92
328.0451, 16170.59
328.5272, 16166.08
329.0093, 16169.85
329.4914, 16189.77
329.9735, 16210.75
330.4557, 16221.17
330.9378, 16203.28
331.4199, 16207.36
331.9020, 16250.58
332.3841, 16321.02
332.8662, 16357.93
333.3484, 16343.18
333.8305, 16321.85
334.3126, 16318.34
334.7947, 16337.36
335.2768, 16360.95
335.7589, 16392.63
336.2411, 16425.91
336.7232, 16440.17
337.2053, 16425.08
337.6874, 16420.98
338.1695, 16457.83
338.6516, 16544.16
339.1338, 16590.96
339.6159, 16588.07
340.0980, 16558.41
340.5801, 16532.14
341.0622, 16506.85
341.5443, 16505.79
342.0265, 16548.30
342.5086, 16628.57
342.9907, 16700.74
343.4728, 16767.15
343.9549, 16813.75
344.4370, 16807.67
344.9192, 16755.26
345.4013, 16717.06
345.8834, 16721.54
346.3655, 16753.84
346.8476, 16777.27
347.3297, 16791.69
347.8119, 16799.66
348.2940, 16795.35
348.7761, 16785.29
349.2582, 16790.36
349.7403, 16825.52
350.2225, 16869.34
350.7046, 16884.36
351.1867, 16875.07
351.6688, 16875.28
352.1509, 16922.88
352.6331, 16992.06
353.1152, 17044.57
353.5973, 17071.28
354.0794, 17080.60
354.5615, 17067.61
355.0436, 17040.73
355.5258, 17025.70
356.0079, 17052.36
356.4900, 17088.31
356.9721, 17104.15
357.4542, 17091.20
357.9363, 17072.30
358.4185, 17056.01
358.9006, 17042.86
359.3827, 17033.77
359.8648, 17028.07
360.3469, 17027.35
360.8290, 17035.16
361.3112, 17053.63
361.7933, 17067.03
362.2754, 17068.09
362.7575, 17062.48
363.2396, 17056.30
363.7217, 17044.51
364.2039, 17038.78
364.6860, 17048.99
365.1681, 17075.42
365.6502, 17085.16
366.1323, 17057.97
366.6144, 17023.03
367.0966, 17000.32
367.5787, 16994.54
368.0608, 16996.49
368.5429, 17010.33
369.0250, 17033.02
369.5071, 17048.92
369.9893, 17058.04
370.4714, 17060.39
370.9535, 17053.34
371.4356, 17024.50
371.9177, 17014.01
372.3998, 17021.04
372.8820, 17047.54
373.3641, 17105.99
373.8462, 17216.47
374.3283, 17306.08
374.8104, 17335.01
375.2925, 17295.87
375.7747, 17288.31
376.2568, 17318.97
376.7389, 17367.90
377.2210, 17409.54
377.7031, 17443.45
378.1852, 17476.23
378.6674, 17510.04
379.1495, 17544.39
379.6316, 17574.89
380.1137, 17599.76
380.5958, 17634.55
381.0779, 17697.11
381.5601, 17783.91
382.0422, 17872.80
382.5243, 17961.39
383.0064, 18048.90
383.4885, 18135.81
383.9706, 18222.30
384.4528, 18303.49
384.9349, 18370.55
385.4170, 18432.25
385.8991, 18506.24
386.3812, 18598.92
386.8633, 18694.10
387.3455, 18764.63
387.8276, 18825.30
388.3097, 18911.59
388.7918, 19069.04
389.2739, 19240.76
389.7560, 19375.79
390.2382, 19466.87
390.7203, 19562.40
391.2024, 19699.55
391.6845, 19851.27
392.1666, 19988.16
392.6487, 20094.24
393.1309, 20188.42
393.6130, 20267.97
394.0951, 20335.88
394.5772, 20419.43
395.0593, 20550.87
395.5414, 20684.24
396.0236, 20789.55
396.5057, 20839.75
396.9878, 20889.26
397.4699, 20954.01
397.9520, 21022.75
398.4341, 21059.77
398.9163, 21047.25
399.3984, 21021.45
399.8805, 20997.41
400.3626, 20985.20
400.8447, 20943.96
401.3268, 20865.52
401.8090, 20764.07
402.2911, 20654.73
402.7732, 20532.67
403.2553, 20418.35
403.7374, 20318.94
404.2195, 20233.61
404.7017, 20146.51
405.1838, 20055.89
405.6659, 19967.27
406.1480, 19884.11
406.6301, 19805.96
407.1122, 19738.46
407.5944, 19686.10
408.0765, 19641.18
408.5586, 19580.01
409.0407, 19502.84
409.5228, 19438.99
410.0049, 19410.54
410.4871, 19410.89
410.9692, 19427.00
411.4513, 19462.30
411.9334, 19494.22
412.4155, 19484.56
412.8976, 19448.75
413.3798, 19431.43
413.8619, 19458.94
414.3440, 19511.23
414.8261, 19574.15
415.3082, 19647.29
415.7903, 19715.31
416.2725, 19762.20
416.7546, 19801.19
417.2367, 19847.79
417.7188, 19896.46
418.2009, 19963.98
418.6830, 20066.60
419.1652, 20196.94
419.6473, 20324.03
420.1294, 20435.14
420.6115, 20543.05
421.0937, 20655.72
421.5758, 20770.46
422.0579, 20893.34
422.5400, 21032.96
423.0221, 21179.78
423.5042, 21321.07
423.9864, 21448.40
424.4685, 21577.62
424.9506, 21715.92
425.4327, 21862.71
425.9148, 22005.14
426.3969, 22154.20
426.8791, 22286.43
427.3612, 22372.75
427.8433, 22391.91
428.3254, 22433.55
428.8075, 22519.99
429.2896, 22633.31
429.7718, 22713.79
430.2539, 22761.00
430.7360, 22780.15
431.2181, 22765.42
431.7002, 22719.19
432.1823, 22677.08
432.6645, 22642.23
433.1466, 22606.74
433.6287, 22571.62
434.1108, 22531.59
434.5929, 22457.53
435.0750, 22318.35
435.5572, 22146.39
436.0393, 21991.45
436.5214, 21853.66
437.0035, 21735.19
437.4856, 21665.23
437.9677, 21608.73
438.4499, 21513.87
438.9320, 21349.00
439.4141, 21174.28
439.8962, 21029.07
440.3783, 20907.74
440.8604, 20791.41
441.3426, 20682.50
441.8247, 20569.85
442.3068, 20445.38
442.7889, 20305.29
443.2710, 20167.54
443.7531, 20033.98
444.2353, 19906.68
444.7174, 19785.62
445.1995, 19672.92
445.6816, 19565.99
446.1637, 19457.54
446.6458, 19350.73
447.1280, 19273.34
447.6101, 19249.50
448.0922, 19228.30
448.5743, 19179.32
449.0564, 19084.19
449.5385, 19008.68
450.0207, 18955.98
450.5028, 18922.36
450.9849, 18908.59
451.4670, 18921.50
451.9491, 18919.80
452.4312, 18881.60
452.9134, 18812.55
453.3955, 18753.38
453.8776, 18703.90
454.3597, 18666.60
454.8418, 18651.25
455.3239, 18652.44
455.8061, 18648.75
456.2882, 18635.66
456.7703, 18614.92
457.2524, 18576.71
457.7345, 18528.86
458.2166, 18502.83
458.6988, 18546.59
459.1809, 18607.64
459.6630, 18621.74
460.1451, 18576.02
460.6272, 18531.78
461.1093, 18533.27
461.5915, 18557.25
462.0736, 18574.95
462.5557, 18578.21
463.0378, 18572.22
463.5199, 18552.93
464.0020, 18522.98
464.4842, 18500.66
464.9663, 18497.67
465.4484, 18497.66
465.9305, 18492.04
466.4126, 18478.33
466.8947, 18462.34
467.3769, 18439.28
467.8590, 18416.10
468.3411, 18405.33
468.8232, 18415.26
469.3053, 18420.70
469.7874, 18410.97
470.2696, 18387.76
470.7517, 18381.71
471.2338, 18393.49
471.7159, 18420.18
472.1980, 18466.22
472.6801, 18531.10
473.1623, 18584.70
473.6444, 18624.39
474.1265, 18648.76
474.6086, 18646.12
475.0907, 18621.02
475.5728, 18602.86
476.0550, 18614.14
476.5371, 18639.89
477.0192, 18658.67
477.5013, 18669.91
477.9834, 18670.84
478.4655, 18655.44
478.9477, 18629.57
479.4298, 18601.39
479.9119, 18577.07
480.3940, 18545.87
480.8761, 18498.59
481.3582, 18439.66
481.8404, 18382.41
482.3225, 18321.15
482.8046, 18270.86
483.2867, 18241.60
483.7688, 18242.86
484.2509, 18235.09
484.7331, 18194.93
485.2152, 18154.77
485.6973, 18146.33
486.1794, 18195.50
486.6615, 18232.56
487.1436, 18248.79
487.6258, 18245.72
488.1079, 18224.94
488.5900, 18176.38
489.0721, 18138.41
489.5542, 18137.34
490.0363, 18173.48
490.5185, 18202.13
491.0006, 18221.00
491.4827, 18235.44
491.9648, 18245.01
492.4470, 18253.09
492.9291, 18280.10
493.4112, 18343.66
493.8933, 18420.06
494.3754, 18471.59
494.8575, 18501.13
495.3397, 18523.82
495.8218, 18544.18
496.3039, 18566.04
496.7860, 18593.66
497.2681, 18628.88
497.7502, 18666.54
498.2324, 18703.36
498.7145, 18741.31
499.1966, 18783.82
499.6787, 18836.86
500.1608, 18889.17
500.6429, 18939.59
501.1251, 18987.64
501.6072, 19026.81
502.0893, 19033.54
502.5714, 19052.31
503.0535, 19109.63
503.5356, 19240.22
504.0178, 19322.49
504.4999, 19333.97
504.9820, 19316.80
505.4641, 19343.39
505.9462, 19427.44
506.4283, 19483.05
506.9105, 19480.17
507.3926, 19430.88
507.8747, 19375.50
508.3568, 19312.95
508.8389, 19261.45
509.3210, 19251.27
509.8032, 19261.81
510.2853, 19231.32
510.7674, 19146.05
511.2495, 19045.72
511.7316, 18957.78
512.2137, 18885.26
512.6959, 18835.40
513.1780, 18834.05
513.6601, 18836.52
514.1422, 18815.11
514.6243, 18771.43
515.1064, 18718.89
515.5886, 18638.13
516.0707, 18567.20
516.5528, 18535.27
517.0349, 18579.32
517.5170, 18591.82
517.9991, 18523.59
518.4813, 18433.52
518.9634, 18399.62
519.4455, 18466.78
519.9276, 18512.54
520.4097, 18506.38
520.8918, 18456.92
521.3740, 18417.46
521.8561, 18387.05
522.3382, 18369.81
522.8203, 18371.44
523.3024, 18391.02
523.7845, 18414.58
524.2667, 18442.83
524.7488, 18469.97
525.2309, 18494.17
525.7130, 18512.92
526.1951, 18516.27
526.6772, 18490.43
527.1594, 18457.51
527.6415, 18439.04
528.1236, 18434.96
528.6057, 18444.82
529.0878, 18484.82
529.5699, 18527.94
530.0521, 18550.74
530.5342, 18545.19
531.0163, 18543.38
531.4984, 18561.26
531.9805, 18585.65
532.4626, 18602.63
532.9448, 18604.14
533.4269, 18604.90
533.9090, 18595.34
534.3911, 18584.99
534.8732, 18614.77
535.3553, 18705.79
535.8375, 18798.83
536.3196, 18873.32
536.8017, 18931.04
537.2838, 18945.48
537.7659, 18905.81
538.2480, 18859.05
538.7302, 18852.92
539.2123, 18884.52
539.6944, 18936.65
540.1765, 19011.42
540.6586, 19094.36
541.1407, 19163.22
541.6229, 19223.34
542.1050, 19294.79
542.5871, 19407.50
543.0692, 19523.93
543.5513, 19598.86
544.0334, 19629.96
544.5156, 19679.38
544.9977, 19795.78
545.4798, 19931.24
545.9619, 20045.84
546.4440, 20107.42
546.9261, 20184.77
547.4083, 20296.81
547.8904, 20429.15
548.3725, 20554.04
548.8546, 20669.55
549.3367, 20782.26
549.8188, 20894.46
550.3010, 21005.67
550.7831, 21110.47
551.2652, 21208.84
551.7473, 21301.25
552.2294, 21382.31
552.7115, 21454.32
553.1937, 21540.97
553.6758, 21647.78
554.1579, 21754.01
554.6400, 21852.50
555.1221, 21931.66
555.6042, 21956.13
556.0864, 21895.41
556.5685, 21793.30
557.0506, 21685.42
557.5327, 21570.57
558.0148, 21445.83
558.4969, 21316.48
558.9791, 21171.07
559.4612, 20985.96
559.9433, 20739.51
560.4254, 20558.39
560.9075, 20507.86
561.3896, 20510.19
561.8718, 20495.05
562.3539, 20448.53
562.8360, 20407.99
563.3181, 20376.97
563.8002, 20353.53
564.2823, 20329.17
564.7645, 20299.60
565.2466, 20289.55
565.7287, 20312.92
566.2108, 20364.13
566.6929, 20419.79
567.1750, 20479.82
567.6572, 20535.75
568.1393, 20575.53
568.6214, 20606.06
569.1035, 20639.42
569.5856, 20677.77
570.0677, 20719.21
570.5499, 20761.74
571.0320, 20806.84
571.5141, 20857.06
571.9962, 20922.49
572.4783, 20984.10
572.9604, 21027.25
573.4426, 21056.87
573.9247, 21099.88
574.4068, 21198.65
574.8889, 21275.57
575.3710, 21292.25
575.8531, 21231.28
576.3353, 21202.10
576.8174, 21214.70
577.2995, 21244.72
577.7816, 21269.02
578.2637, 21286.17
578.7458, 21310.65
579.2280, 21342.37
579.7101, 21386.33
580.1922, 21449.92
580.6743, 21533.23
581.1564, 21636.72
581.6385, 21761.88
582.1207, 21906.85
582.6028, 22068.65
583.0849, 22245.95
583.5670, 22439.25
584.0491, 22651.01
584.5313, 22877.13
585.0134, 23122.20
585.4955, 23401.62
585.9776, 23649.12
586.4597, 23820.85
586.9418, 23961.99
587.4240, 24121.01
587.9061, 24299.42
588.3882, 24497.84
588.8703, 24722.58
589.3524, 24965.68
589.8345, 25207.41
590.3167, 25451.60
590.7988, 25681.88
591.2809, 25892.45
591.7630, 26081.72
592.2451, 26240.13
592.7272, 26368.91
593.2094, 26436.66
593.6915, 26421.01
594.1736, 26325.00
594.6557, 26145.58
595.1378, 25877.48
595.6199, 25561.53
596.1021, 25222.56
596.5842, 24857.46
597.0663, 24460.16
597.5485, 23972.80
598.0306, 23517.62
598.5127, 23134.55
598.9948, 22817.13
599.4769, 22530.14
599.9590, 22275.14
600.4412, 22038.74
600.9233, 21814.05
601.4054, 21597.74
601.8875, 21434.24
602.3696, 21339.35
602.8517, 21261.32
603.3339, 21149.78
603.8160, 21008.88
604.2981, 20912.47
604.7802, 20876.65
605.2623, 20861.65
605.7444, 20815.60
606.2266, 20749.35
606.7087, 20694.87
607.1908, 20677.43
607.6729, 20660.88
608.1550, 20606.84
608.6371, 20528.07
609.1193, 20464.14
609.6014, 20438.92
610.0835, 20425.94
610.5656, 20413.96
611.0477, 20401.62
611.5298, 20395.39
612.0120, 20405.09
612.4941, 20411.40
612.9762, 20399.93
613.4583, 20364.58
613.9404, 20333.99
614.4225, 20310.60
614.9047, 20290.12
615.3868, 20263.37
615.8689, 20231.21
616.3510, 20209.38
616.8331, 20207.78
617.3152, 20211.92
617.7974, 20190.89
618.2795, 20153.68
618.7616, 20134.01
619.2437, 20171.71
619.7258, 20218.17
620.2079, 20236.96
620.6901, 20226.03
621.1722, 20208.91
621.6543, 20189.21
622.1364, 20169.09
622.6185, 20148.68
623.1006, 20118.88
623.5828, 20109.20
624.0649, 20126.35
624.5470, 20157.51
625.0291, 20192.55
625.5112, 20236.20
625.9933, 20254.40
626.4755, 20230.63
626.9576, 20191.95
627.4397, 20203.00
627.9218, 20256.85
628.4039, 20300.54
628.8860, 20292.11
629.3682, 20266.87
629.8503, 20281.83
630.3324, 20330.52
630.8145, 20362.75
631.2966, 20323.30
631.7787, 20274.71
632.2609, 20268.09
632.7430, 20326.37
633.2251, 20361.37
633.7072, 20332.45
634.1893, 20287.58
634.6714, 20266.49
635.1536, 20280.27
635.6357, 20291.91
636.1178, 20292.48
636.5999, 20296.13
637.0820, 20347.02
637.5641, 20448.71
638.0463, 20495.68
638.5284, 20422.72
639.0105, 20301.57
639.4926, 20286.21
639.9747, 20360.42
640.4568, 20430.08
640.9390, 20439.30
641.4211, 20417.39
641.9032, 20376.52
642.3853, 20317.94
642.8674, 20293.30
643.3495, 20354.61
643.8317, 20436.26
644.3138, 20493.87
644.7959, 20513.09
645.2780, 20524.06
645.7601, 20519.73
646.2422, 20513.29
646.7244, 20521.89
647.2065, 20548.80
647.6886, 20574.52
648.1707, 20597.93
648.6528, 20614.91
649.1349, 20608.48
649.6171, 20583.36
650.0992, 20572.67
650.5813, 20608.40
651.0634, 20656.72
651.5455, 20672.63
652.0276, 20661.79
652.5098, 20653.82
652.9919, 20664.97
653.4740, 20683.60
653.9561, 20706.99
654.4382, 20738.49
654.9203, 20751.86
655.4025, 20731.26
655.8846, 20701.96
656.3667, 20676.40
656.8488, 20644.06
657.3309, 20653.27
657.8130, 20720.01
658.2952, 20802.51
658.7773, 20839.88
659.2594, 20835.75
659.7415, 20830.28
660.2236, 20835.63
660.7057, 20841.69
661.1879, 20827.77
661.6700, 20801.96
662.1521, 20787.13
662.6342, 20811.48
663.1163, 20835.53
663.5984, 20822.86
664.0806, 20780.27
664.5627, 20766.34
665.0448, 20827.03
665.5269, 20890.81
666.0090, 20924.94
666.4911, 20923.50
666.9733, 20936.66
667.4554, 20973.70
667.9375, 21006.90
668.4196, 21003.79
668.9017, 20966.41
669.3839, 20961.50
669.8660, 20998.94
670.3481, 21050.23
670.8302, 21093.72
671.3123, 21125.11
671.7944, 21133.11
672.2766, 21101.75
672.7587, 21066.26
673.2408, 21047.21
673.7229, 21040.73
674.2050, 21038.79
674.6871, 21038.92
675.1693, 21043.79
675.6514, 21057.99
676.1335, 21078.67
676.6156, 21089.29
677.0977, 21083.38
677.5798, 21082.83
678.0620, 21106.02
678.5441, 21147.31
679.0262, 21138.26
679.5083, 21075.27
679.9904, 21020.00
680.4725, 21033.75
680.9547, 21085.17
681.4368, 21121.09
681.9189, 21134.70
682.4010, 21137.02
682.8831, 21135.41
683.3652, 21126.07
683.8474, 21103.07
684.3295, 21036.83
684.8116, 21002.05
685.2937, 21038.46
685.7758, 21099.14
686.2579, 21123.18
686.7401, 21100.55
687.2222, 21065.51
687.7043, 21013.81
688.1864, 20963.11
688.6685, 20963.17
689.1506, 21011.17
689.6328, 21061.91
690.1149, 21103.22
690.5970, 21130.68
691.0791, 21131.76
691.5612, 21110.71
692.0433, 21089.47
692.5255, 21066.52
693.0076, 21057.40
693.4897, 21078.72
693.9718, 21134.82
694.4539, 21179.56
694.9360, 21206.52
695.4182, 21220.60
695.9003, 21221.30
696.3824, 21202.92
696.8645, 21197.63
697.3466, 21210.24
697.8287, 21223.31
698.3109, 21210.05
698.7930, 21177.89
699.2751, 21168.09
699.7572, 21190.81
700.2393, 21226.19
700.7214, 21271.79
701.2036, 21312.04
701.6857, 21320.41
702.1678, 21254.49
702.6499, 21193.54
703.1320, 21166.46
703.6141, 21166.09
704.0963, 21175.07
704.5784, 21198.95
705.0605, 21220.94
705.5426, 21237.79
706.0247, 21250.06
706.5068, 21262.86
706.9890, 21277.99
707.4711, 21279.24
707.9532, 21250.96
708.4353, 21204.21
708.9174, 21162.62
709.3995, 21126.97
709.8817, 21107.20
710.3638, 21115.97
710.8459, 21140.11
711.3280, 21175.38
711.8101, 21225.00
712.2922, 21252.28
712.7744, 21223.70
713.2565, 21186.47
713.7386, 21171.67
714.2207, 21184.48
714.7028, 21210.37
715.1849, 21259.98
715.6671, 21304.56
716.1492, 21302.67
716.6313, 21259.45
717.1134, 21239.81
717.5955, 21260.23
718.0776, 21290.01
718.5598, 21294.32
719.0419, 21280.19
719.5240, 21260.94
720.0061, 21234.24
720.4882, 21211.97
720.9703, 21191.56
721.4525, 21179.90
721.9346, 21192.86
722.4167, 21264.39
722.8988, 21319.35
723.3809, 21341.94
723.8630, 21337.82
724.3452, 21328.31
724.8273, 21313.29
725.3094, 21293.95
725.7915, 21267.89
726.2736, 21239.07
726.7557, 21212.14
727.2379, 21189.00
727.7200, 21184.55
728.2021, 21223.34
728.6842, 21274.21
729.1663, 21314.69
729.6484, 21342.62
730.1306, 21360.18
730.6127, 21347.30
731.0948, 21341.83
731.5769, 21369.75
732.0590, 21447.91
732.5411, 21487.76
733.0233, 21481.30
733.5054, 21454.45
733.9875, 21423.73
734.4696, 21391.13
734.9517, 21371.40
735.4338, 21365.46
735.9160, 21375.56
736.3981, 21430.26
736.8802, 21494.23
737.3623, 21510.17
737.8444, 21430.71
738.3266, 21363.97
738.8087, 21359.78
739.2908, 21389.65
739.7729, 21412.77
740.2551, 21426.67
740.7372, 21434.50
741.2193, 21435.19
741.7014, 21431.22
742.1835, 21426.66
742.6656, 21421.53
743.1478, 21418.44
743.6299, 21416.37
744.1120, 21419.07
744.5941, 21434.37
745.0762, 21459.70
745.5583, 21487.51
746.0405, 21527.07
746.5226, 21555.71
747.0047, 21547.67
747.4868, 21512.15
747.9689, 21503.86
748.4510, 21563.59
748.9332, 21606.56
749.4153, 21600.25
749.8974, 21549.83
750.3795, 21514.68
750.8616, 21494.86
751.3438, 21489.96
751.8259, 21506.87
752.3080, 21537.11
752.7901, 21567.89
753.2722, 21597.56
753.7543, 21606.95
754.2365, 21544.48
754.7186, 21483.20
755.2007, 21492.96
755.6828, 21597.29
756.1649, 21676.92
756.6470, 21708.12
757.1292, 21713.26
757.6113, 21698.79
758.0934, 21654.46
758.5755, 21637.54
759.0576, 21650.63
759.5397, 21682.13
760.0219, 21730.97
760.5040, 21788.87
760.9861, 21828.87
761.4682, 21846.35
761.9503, 21846.39
762.4324, 21816.79
762.9146, 21778.88
763.3967, 21758.03
763.8788, 21769.51
764.3609, 21783.49
764.8430, 21797.79
765.3251, 21810.70
765.8073, 21817.58
766.2894, 21812.56
766.7715, 21828.58
767.2536, 21879.37
767.7357, 21935.50
768.2178, 21917.60
768.7000, 21854.22
769.1821, 21875.08
769.6642, 22086.51
770.1463, 22292.14
770.6284, 22301.14
771.1105, 22185.19
771.5927, 22082.86
772.0748, 22033.30
772.5569, 22006.15
773.0390, 21997.98
773.5211, 22006.07
774.0032, 22026.69
774.4854, 22062.62
774.9675, 22101.40
775.4496, 22142.03
775.9317, 22180.78
776.4138, 22201.81
776.8959, 22209.50
777.3781, 22228.42
777.8602, 22288.86
778.3423, 22351.92
778.8244, 22374.14
779.3065, 22367.74
779.7886, 22385.46
780.2708, 22476.82
780.7529, 22559.20
781.2350, 22598.33
781.7171, 22601.14
782.1992, 22632.41
782.6813, 22693.98
783.1635, 22775.91
783.6456, 22886.48
784.1277, 23011.17
784.6098, 23098.09
785.0919, 23151.02
785.5740, 23210.39
786.0562, 23346.62
786.5383, 23469.19
787.0204, 23480.49
787.5025, 23376.37
787.9846, 23301.32
788.4667, 23299.34
788.9489, 23326.04
789.4310, 23368.33
789.9131, 23426.87
790.3952, 23483.07
790.8773, 23537.18
791.3594, 23585.78
791.8416, 23619.71
792.3237, 23646.51
792.8058, 23691.39
793.2879, 23755.49
793.7700, 23810.37
794.2521, 23820.81
794.7343, 23824.30
795.2164, 23850.17
795.6985, 23904.26
796.1806, 23974.71
796.6627, 24082.12
797.1448, 24181.14
797.6270, 24241.22
798.1091, 24258.96
798.5912, 24260.65
799.0733, 24243.42
799.5554, 24226.82
800.0375, 24224.54
800.5197, 24237.69
801.0018, 24270.24
801.4839, 24323.47
801.9660, 24388.96
802.4481, 24482.77
802.9302, 24573.51
803.4124, 24633.97
803.8945, 24649.29
804.3766, 24653.60
804.8587, 24628.09
805.3408, 24616.44
805.8229, 24673.17
806.3051, 24797.62
806.7872, 24880.03
807.2693, 24906.92
807.7514, 24918.20
808.2335, 24957.32
808.7156, 25007.59
809.1978, 25039.58
809.6799, 25037.29
810.1620, 25050.09
810.6441, 25115.28
811.1262, 25196.04
811.6083, 25254.29
812.0905, 25272.18
812.5726, 25306.39
813.0547, 25356.79
813.5368, 25425.23
814.0189, 25521.84
814.5010, 25641.24
814.9832, 25746.21
815.4653, 25824.14
815.9474, 25916.90
816.4295, 26087.02
816.9116, 26285.62
817.3937, 26446.37
817.8759, 26504.08
818.3580, 26617.79
818.8401, 26851.70
819.3222, 27133.69
819.8043, 27398.08
820.2864, 27633.98
820.7686, 27906.35
821.2507, 28223.19
821.7328, 28563.74
822.2149, 28895.70
822.6970, 29225.13
823.1791, 29573.35
823.6613, 29942.19
824.1434, 30329.15
824.6255, 30725.22
825.1076, 31138.65
825.5897, 31571.90
826.0718, 32071.91
826.5540, 32531.50
827.0361, 32953.61
827.5182, 33339.49
828.0003, 33698.23
828.4824, 34026.93
828.9645, 34324.49
829.4467, 34591.71
829.9288, 34814.71
830.4109, 34988.73
830.8930, 35104.19
831.3751, 35144.03
831.8572, 35086.64
832.3394, 34990.96
832.8215, 34918.63
833.3036, 34791.15
833.7857, 34526.20
834.2678, 34099.08
834.7499, 33614.98
835.2321, 33077.28
835.7142, 32496.25
836.1963, 31861.04
836.6784, 31187.68
837.1605, 30560.79
837.6426, 30011.13
838.1248, 29467.14
838.6069, 28834.90
839.0890, 28196.92
839.5711, 27654.70
840.0532, 27272.78
840.5353, 26908.35
841.0175, 26535.24
841.4996, 26190.19
841.9817, 25923.91
842.4638, 25738.39
842.9459, 25547.47
843.4280, 25339.97
843.9102, 25142.80
844.3923, 24985.29
844.8744, 24857.50
845.3565, 24749.25
845.8386, 24663.44
846.3207, 24574.85
846.8029, 24463.92
847.2850, 24351.99
847.7671, 24253.32
848.2492, 24151.49
848.7313, 24118.24
849.2134, 24177.52
849.6956, 24244.87
850.1777, 24227.10
850.6598, 24146.61
851.1419, 24077.89
851.6240, 24028.99
852.1061, 23998.30
852.5883, 24000.89
853.0704, 24010.55
853.5525, 24001.83
854.0346, 23963.63
854.5167, 23930.18
854.9988, 23909.80
855.4810, 23886.59
855.9631, 23842.44
856.4452, 23776.51
856.9273, 23741.75
857.4094, 23741.16
857.8915, 23748.41
858.3737, 23737.07
858.8558, 23721.73
859.3379, 23728.85
859.8200, 23764.34
860.3021, 23776.12
860.7842, 23713.61
861.2664, 23648.65
861.7485, 23625.38
862.2306, 23649.43
862.7127, 23654.49
863.1948, 23636.82
863.6769, 23616.80
864.1591, 23607.05
864.6412, 23606.08
865.1233, 23615.63
865.6054, 23634.12
866.0875, 23641.32
866.5696, 23609.94
867.0518, 23576.18
867.5339, 23572.95
868.0160, 23603.90
868.4981, 23590.04
868.9802, 23513.71
869.4623, 23428.62
869.9445, 23351.50
870.4266, 23287.15
870.9087, 23265.18
871.3908, 23282.25
871.8729, 23305.45
872.3550, 23326.66
872.8372, 23335.84
873.3193, 23310.13
873.8014, 23259.11
874.2835, 23237.03
874.7656, 23287.50
875.2477, 23330.83
875.7299, 23342.77
876.2120, 23333.49
876.6941, 23343.21
877.1762, 23371.79
877.6583, 23407.93
878.1404, 23461.58
878.6226, 23504.24
879.1047, 23481.60
879.5869, 23417.27
880.0690, 23371.53
880.5511, 23386.12
881.0332, 23400.60
881.5153, 23390.52
881.9974, 23371.04
882.4796, 23374.91
882.9617, 23406.38
883.4438, 23439.72
883.9259, 23474.01
884.4080, 23496.48
884.8901, 23464.17
885.3723, 23405.48
885.8544, 23389.57
886.3365, 23470.01
886.8186, 23549.18
887.3007, 23584.99
887.7828, 23593.06
888.2650, 23593.26
888.7471, 23575.79
889.2292, 23581.44
889.7113, 23620.87
890.1934, 23667.68
890.6755, 23677.31
891.1577, 23665.99
891.6398, 23692.50
892.1219, 23776.19
892.6040, 23852.81
893.0861, 23862.83
893.5682, 23852.61
894.0504, 23868.17
894.5325, 23935.35
895.0146, 23974.94
895.4967, 23973.82
895.9788, 23969.28
896.4609, 23991.01
896.9431, 24036.68
897.4252, 24098.23
897.9073, 24175.53
898.3894, 24244.36
898.8715, 24282.63
899.3536, 24308.68
899.8358, 24333.05
900.3179, 24355.15
900.8000, 24400.13
901.2821, 24484.00
901.7642, 24569.04
902.2463, 24637.96
902.7285, 24692.61
903.2106, 24756.30
903.6927, 24828.55
904.1748, 24902.36
904.6569, 24964.48
905.1390, 25033.73
905.6212, 25141.20
906.1033, 25275.14
906.5854, 25390.32
907.0675, 25424.59
907.5496, 25499.71
908.0317, 25660.47
908.5139, 25874.29
908.9960, 26037.48
909.4781, 26149.09
909.9602, 26283.53
910.4423, 26471.42
910.9244, 26684.07
911.4066, 26879.68
911.8887, 27074.68
912.3708, 27302.58
912.8529, 27569.54
913.3350, 27877.66
913.8171, 28236.69
914.2993, 28625.25
914.7814, 29003.83
915.2635, 29366.49
915.7456, 29798.98
916.2277, 30315.26
916.7098, 30897.85
917.1920, 31511.64
917.6741, 32177.45
918.1562, 32930.51
918.6383, 33782.61
919.1204, 34678.58
919.6025, 35584.07
920.0847, 36544.71
920.5668, 37590.41
921.0489, 38729.61
921.5310, 39934.54
922.0131, 41203.77
922.4952, 42508.61
922.9774, 43823.21
923.4595, 45155.58
923.9416, 46523.57
924.4237, 47922.21
924.9058, 49338.45
925.3879, 50861.39
925.8701, 52315.97
926.3522, 53656.73
926.8343, 54888.14
927.3164, 56010.38
927.7985, 57032.27
928.2806, 57923.67
928.7628, 58715.84
929.2449, 59314.23
929.7270, 59580.47
930.2091, 59534.21
930.6912, 59235.66
931.1733, 58709.32
931.6555, 57930.05
932.1376, 56830.14
932.6197, 55501.16
933.1018, 54052.04
933.5839, 52452.22
934.0660, 50869.57
934.5482, 49313.30
935.0303, 47802.96
935.5124, 46290.54
935.9945, 44832.38
936.4766, 43545.83
936.9587, 42460.37
937.4409, 41479.34
937.9230, 40596.47
938.4051, 39778.07
938.8872, 39005.98
939.3693, 38281.32
939.8514, 37546.50
940.3336, 36801.21
940.8157, 36095.82
941.2978, 35471.40
941.7799, 34908.70
942.2620, 34368.52
942.7441, 33852.96
943.2263, 33400.93
943.7084, 33069.96
944.1905, 32776.52
944.6726, 32483.10
945.1547, 32196.31
945.6368, 31956.11
946.1190, 31760.59
946.6011, 31612.42
947.0832, 31515.27
947.5653, 31462.81
948.0474, 31443.62
948.5295, 31461.16
949.0117, 31523.50
949.4938, 31661.69
949.9759, 31810.22
950.4580, 31954.79
950.9401, 32104.11
951.4222, 32267.21
951.9044, 32444.54
952.3865, 32637.05
952.8686, 32839.89
953.3507, 33082.05
953.8328, 33422.57
954.3149, 33807.42
954.7971, 34166.21
955.2792, 34463.76
955.7613, 34794.48
956.2434, 35181.49
956.7255, 35593.72
957.2076, 36017.28
957.6898, 36453.54
958.1719, 36877.75
958.6540, 37293.88
959.1361, 37740.24
959.6182, 38267.28
960.1003, 38823.27
960.5825, 39346.50
961.0646, 39852.22
961.5467, 40444.52
962.0288, 41216.35
962.5109, 41955.02
962.9930, 42579.89
963.4752, 43150.23
963.9573, 43812.00
964.4394, 44545.34
964.9215, 45258.28
965.4036, 45903.21
965.8857, 46557.00
966.3679, 47308.74
966.8500, 48094.48
967.3321, 48839.85
967.8142, 49529.32
968.2963, 50179.92
968.7784, 50796.66
969.2606, 51353.98
969.7427, 51822.54
970.2248, 52203.81
970.7069, 52508.11
971.1890, 52735.21
971.6711, 52863.29
972.1533, 52903.89
972.6354, 52815.98
973.1175, 52555.35
973.5996, 52122.81
974.0817, 51605.63
974.5638, 51013.81
975.0460, 50298.02
975.5281, 49388.00
976.0102, 48376.91
976.4923, 47446.73
976.9744, 46577.16
977.4565, 45708.61
977.9387, 44778.15
978.4208, 43887.48
978.9029, 43057.53
979.3850, 42299.85
979.8671, 41627.91
980.3492, 41052.13
980.8314, 40526.75
981.3135, 40050.00
981.7956, 39602.34
982.2777, 39137.33
982.7598, 38691.55
983.2419, 38327.62
983.7241, 38063.36
984.2062, 37805.84
984.6883, 37527.82
985.1704, 37250.11
985.6525, 36975.72
986.1346, 36706.49
986.6168, 36468.87
987.0989, 36261.77
987.5810, 36050.93
988.0631, 35821.13
988.5452, 35573.87
989.0273, 35289.15
989.5095, 34990.49
989.9916, 34743.01
990.4737, 34618.59
990.9558, 34444.67
991.4379, 34174.38
991.9200, 33887.88
992.4022, 33728.95
992.8843, 33668.88
993.3664, 33584.10
993.8485, 33456.50
994.3306, 33279.27
994.8127, 32993.81
995.2949, 32692.64
995.7770, 32463.94
996.2591, 32321.75
996.7412, 32181.99
997.2233, 32054.28
997.7054, 31898.52
998.1876, 31669.21
998.6697, 31404.12
999.1518, 31185.28
999.6339, 31002.89
1000.116, 30814.96
1000.598, 30593.45
1001.080, 30371.43
1001.562, 30148.55
1002.044, 29936.06
1002.527, 29756.61
1003.009, 29614.77
1003.491, 29455.75
1003.973, 29267.64
1004.455, 29081.57
1004.937, 28953.23
1005.419, 28840.11
1005.901, 28682.77
1006.384, 28452.84
1006.866, 28260.00
1007.348, 28134.88
1007.830, 28021.61
1008.312, 27892.74
1008.794, 27749.69
1009.276, 27585.54
1009.758, 27405.54
1010.240, 27247.51
1010.723, 27154.84
1011.205, 27070.08
1011.687, 26954.27
1012.169, 26818.74
1012.651, 26691.77
1013.133, 26559.71
1013.615, 26484.48
1014.097, 26493.26
1014.580, 26513.34
1015.062, 26428.38
1015.544, 26286.58
1016.026, 26186.86
1016.508, 26158.91
1016.990, 26107.09
1017.472, 25933.26
1017.954, 25781.99
1018.436, 25744.04
1018.919, 25813.73
1019.401, 25867.38
1019.883, 25905.01
1020.365, 25916.87
1020.847, 25900.17
1021.329, 25852.63
1021.811, 25750.13
1022.293, 25616.67
1022.776, 25509.08
1023.258, 25443.45
1023.740, 25399.48
1024.222, 25386.89
1024.704, 25375.76
1025.186, 25312.28
1025.668, 25215.29
1026.150, 25153.86
1026.632, 25138.95
1027.115, 25134.99
1027.597, 25116.36
1028.079, 25105.33
1028.561, 25129.03
1029.043, 25184.24
1029.525, 25180.72
1030.007, 25110.02
1030.489, 25051.15
1030.972, 25043.10
1031.454, 25064.00
1031.936, 25089.43
1032.418, 25119.31
1032.900, 25152.95
1033.382, 25227.68
1033.864, 25249.11
1034.346, 25190.13
1034.828, 25102.21
1035.311, 25035.90
1035.793, 24990.82
1036.275, 24965.07
1036.757, 24958.24
1037.239, 24983.15
1037.721, 25095.53
1038.203, 25202.79
1038.685, 25223.00
1039.167, 25165.72
1039.650, 25153.99
1040.132, 25200.55
1040.614, 25237.66
1041.096, 25241.38
1041.578, 25224.97
1042.060, 25188.24
1042.542, 25151.54
1043.024, 25156.50
1043.507, 25248.71
1043.989, 25317.15
1044.471, 25343.91
1044.953, 25340.15
1045.435, 25300.90
1045.917, 25231.21
1046.399, 25195.47
1046.881, 25194.76
1047.364, 25220.24
1047.846, 25280.86
1048.328, 25351.84
1048.810, 25424.79
1049.292, 25494.06
1049.774, 25543.38
1050.256, 25571.90
1050.738, 25577.08
1051.220, 25547.23
1051.703, 25524.17
1052.185, 25586.38
1052.667, 25691.14
1053.149, 25761.11
1053.631, 25769.82
1054.113, 25798.33
1054.595, 25888.60
1055.077, 25980.15
1055.559, 26039.14
1056.042, 26071.87
1056.524, 26120.03
1057.006, 26184.34
1057.488, 26270.73
1057.970, 26405.73
1058.452, 26539.79
1058.934, 26637.58
1059.416, 26715.68
1059.899, 26803.93
1060.381, 26903.15
1060.863, 27011.54
1061.345, 27127.67
1061.827, 27260.16
1062.309, 27432.47
1062.791, 27622.07
1063.273, 27798.09
1063.755, 27958.74
1064.238, 28096.70
1064.720, 28201.32
1065.202, 28295.52
1065.684, 28383.56
1066.166, 28466.03
1066.648, 28536.56
1067.130, 28599.58
1067.612, 28685.18
1068.094, 28818.13
1068.577, 28939.02
1069.059, 29026.13
1069.541, 29074.02
1070.023, 29072.97
1070.505, 29009.34
1070.987, 28986.74
1071.469, 29009.39
1071.951, 29029.08
1072.434, 29032.10
1072.916, 28999.67
1073.398, 28885.92
1073.880, 28714.33
1074.362, 28568.80
1074.844, 28485.08
1075.326, 28397.64
1075.808, 28307.16
1076.291, 28192.78
1076.773, 27996.42
1077.255, 27753.90
1077.737, 27579.13
1078.219, 27492.87
1078.701, 27414.23
1079.183, 27309.04
1079.665, 27196.55
1080.147, 27088.76
1080.630, 26982.44
1081.112, 26844.09
1081.594, 26675.73
1082.076, 26543.12
1082.558, 26489.30
1083.040, 26445.24
1083.522, 26337.70
1084.004, 26207.48
1084.486, 26112.52
1084.969, 26076.13
1085.451, 26022.27
1085.933, 25950.71
1086.415, 25864.50
1086.897, 25744.15
1087.379, 25621.87
1087.861, 25566.94
1088.343, 25564.82
1088.826, 25549.12
1089.308, 25480.19
1089.790, 25417.01
1090.272, 25371.11
1090.754, 25334.67
1091.236, 25292.03
1091.718, 25247.38
1092.200, 25226.33
1092.682, 25235.26
1093.165, 25233.18
1093.647, 25194.66
1094.129, 25135.87
1094.611, 25058.04
1095.093, 24967.02
1095.575, 24896.69
1096.057, 24846.61
1096.539, 24834.46
1097.022, 24891.19
1097.504, 24940.32
1097.986, 24878.62
1098.468, 24770.36
1098.950, 24707.52
1099.432, 24730.43
1099.914, 24724.89
1100.396, 24685.14
1100.879, 24636.19
1101.361, 24594.17
1101.843, 24556.34
1102.325, 24513.69
1102.807, 24469.04
1103.289, 24433.96
1103.771, 24429.02
1104.253, 24409.46
1104.735, 24356.94
1105.218, 24300.22
1105.700, 24286.03
1106.182, 24304.54
1106.664, 24312.49
1107.146, 24305.19
1107.628, 24282.16
1108.110, 24223.25
1108.592, 24168.31
1109.074, 24143.97
1109.557, 24141.96
1110.039, 24130.58
1110.521, 24109.62
1111.003, 24089.34
1111.485, 24072.31
1111.967, 24058.91
1112.449, 24047.46
1112.931, 24041.42
1113.414, 24050.73
1113.896, 24085.91
1114.378, 24072.02
1114.860, 23992.42
1115.342, 23937.55
1115.824, 23982.43
1116.306, 24062.43
1116.788, 24076.44
1117.271, 24044.56
1117.753, 24011.70
1118.235, 23973.16
1118.717, 23967.42
1119.199, 24013.97
1119.681, 24060.01
1120.163, 24048.27
1120.645, 23994.74
1121.127, 23931.92
1121.609, 23866.28
1122.092, 23838.82
1122.574, 23903.26
1123.056, 23971.29
1123.538, 24021.07
1124.020, 24050.90
1124.502, 24051.89
1124.984, 24027.11
1125.466, 24002.03
1125.949, 23981.60
1126.431, 23961.34
1126.913, 23932.49
1127.395, 23907.82
1127.877, 23902.61
1128.359, 23912.51
1128.841, 23895.20
1129.323, 23847.93
1129.806, 23823.39
1130.288, 23847.13
1130.770, 23887.20
1131.252, 23929.87
1131.734, 23960.46
1132.216, 23956.03
1132.698, 23905.06
1133.180, 23849.39
1133.662, 23783.11
1134.145, 23738.82
1134.627, 23745.21
1135.109, 23780.73
1135.591, 23830.31
1136.073, 23880.45
1136.555, 23895.69
1137.037, 23818.63
1137.519, 23780.57
1138.001, 23802.73
1138.484, 23836.39
1138.966, 23823.37
1139.448, 23784.59
1139.930, 23778.38
1140.412, 23802.62
1140.894, 23809.83
1141.376, 23743.82
1141.858, 23708.28
1142.341, 23746.77
1142.823, 23811.11
1143.305, 23799.90
1143.787, 23733.89
1144.269, 23709.81
1144.751, 23746.70
1145.233, 23792.80
1145.715, 23840.09
1146.198, 23865.13
1146.680, 23845.25
1147.162, 23795.56
1147.644, 23795.44
1148.126, 23840.43
1148.608, 23870.51
1149.090, 23866.50
1149.572, 23843.78
1150.054, 23792.38
1150.536, 23743.32
1151.019, 23730.49
1151.501, 23757.77
1151.983, 23762.68
1152.465, 23743.87
1152.947, 23737.38
1153.429, 23778.72
1153.911, 23822.99
1154.393, 23818.25
1154.876, 23789.26
1155.358, 23780.48
1155.840, 23803.72
1156.322, 23818.36
1156.804, 23821.86
1157.286, 23826.64
1157.768, 23856.82
1158.250, 23884.14
1158.733, 23847.92
1159.215, 23774.30
1159.697, 23770.59
1160.179, 23917.95
1160.661, 23982.72
1161.143, 23918.62
1161.625, 23821.48
1162.107, 23790.77
1162.589, 23807.43
1163.072, 23856.16
1163.554, 23931.04
1164.036, 23971.71
1164.518, 23935.15
1165.000, 23909.39
1165.482, 23913.50
1165.964, 23941.23
1166.446, 23995.51
1166.928, 24061.10
1167.411, 24106.19
1167.893, 24125.11
1168.375, 24120.99
1168.857, 24073.28
1169.339, 24029.88
1169.821, 24012.84
1170.303, 24010.29
1170.785, 23977.25
1171.268, 23928.04
1171.750, 23912.21
1172.232, 23960.18
1172.714, 24004.77
1173.196, 24007.44
1173.678, 24010.27
1174.160, 24042.14
1174.642, 24096.69
1175.125, 24132.11
1175.607, 24149.48
1176.089, 24152.62
1176.571, 24127.01
1177.053, 24109.52
1177.535, 24121.00
1178.017, 24145.10
1178.499, 24173.74
1178.981, 24206.72
1179.464, 24199.76
1179.946, 24155.38
1180.428, 24119.65
1180.910, 24133.44
1181.392, 24150.65
1181.874, 24133.74
1182.356, 24111.43
1182.838, 24135.87
1183.320, 24209.84
1183.803, 24252.09
1184.285, 24255.96
1184.767, 24238.72
1185.249, 24175.38
1185.731, 24131.64
1186.213, 24182.59
1186.695, 24285.75
1187.177, 24316.57
1187.660, 24269.62
1188.142, 24232.32
1188.624, 24219.03
1189.106, 24217.03
1189.588, 24221.37
1190.070, 24227.32
1190.552, 24228.76
1191.034, 24227.45
1191.516, 24239.12
1191.999, 24266.23
1192.481, 24284.19
1192.963, 24287.97
1193.445, 24277.20
1193.927, 24234.21
1194.409, 24188.19
1194.891, 24170.78
1195.373, 24184.41
1195.855, 24206.64
1196.338, 24241.92
1196.820, 24244.51
1197.302, 24180.49
1197.784, 24110.22
1198.266, 24102.52
1198.748, 24126.51
1199.230, 24144.34
1199.712, 24149.95
1200.195, 24162.22
1200.677, 24182.60
1201.159, 24199.47
1201.641, 24206.20
1202.123, 24206.68
1202.605, 24209.08
1203.087, 24206.90
1203.569, 24186.04
1204.052, 24128.96
1204.534, 24107.27
1205.016, 24126.26
1205.498, 24147.98
1205.980, 24147.42
1206.462, 24134.55
1206.944, 24109.23
1207.426, 24082.51
1207.908, 24085.15
1208.391, 24144.58
1208.873, 24152.33
1209.355, 24094.34
1209.837, 24036.53
1210.319, 24043.41
1210.801, 24074.67
1211.283, 24086.45
1211.765, 24083.00
1212.247, 24085.33
1212.730, 24101.66
1213.212, 24100.74
1213.694, 24075.52
1214.176, 24051.32
1214.658, 24051.11
1215.140, 24066.26
1215.622, 24094.28
1216.104, 24130.53
1216.587, 24150.29
1217.069, 24147.38
1217.551, 24146.63
1218.033, 24153.16
1218.515, 24157.91
1218.997, 24156.78
1219.479, 24144.27
1219.961, 24097.76
1220.443, 24023.26
1220.926, 24013.18
1221.408, 24094.30
1221.890, 24143.35
1222.372, 24129.54
1222.854, 24082.03
1223.336, 24013.46
1223.818, 23944.86
1224.300, 23898.14
1224.782, 23877.71
1225.265, 23885.83
1225.747, 23932.34
1226.229, 23955.91
1226.711, 23930.23
1227.193, 23894.90
1227.675, 23899.06
1228.157, 23920.30
1228.639, 23935.44
1229.122, 23942.21
1229.604, 23928.12
1230.086, 23889.32
1230.568, 23855.05
1231.050, 23837.09
1231.532, 23827.38
1232.014, 23814.18
1232.496, 23805.24
1232.979, 23814.42
1233.461, 23846.11
1233.943, 23856.56
1234.425, 23843.65
1234.907, 23829.35
1235.389, 23819.89
1235.871, 23820.12
1236.353, 23841.30
1236.835, 23871.54
1237.318, 23902.92
1237.800, 23944.13
1238.282, 23898.81
1238.764, 23761.11
1239.246, 23665.43
1239.728, 23722.06
1240.210, 23807.86
1240.692, 23832.04
1241.175, 23814.96
1241.657, 23780.24
1242.139, 23721.70
1242.621, 23700.83
1243.103, 23717.78
1243.585, 23730.24
1244.067, 23709.83
1244.549, 23678.60
1245.031, 23638.23
1245.514, 23603.85
1245.996, 23591.18
1246.478, 23599.44
1246.960, 23657.52
1247.442, 23762.05
1247.924, 23835.03
1248.406, 23799.05
1248.888, 23746.41
1249.370, 23720.36
1249.853, 23713.01
1250.335, 23717.81
1250.817, 23734.00
1251.299, 23736.25
1251.781, 23724.37
1252.263, 23712.71
1252.745, 23731.14
1253.227, 23725.59
1253.710, 23635.61
1254.192, 23538.05
1254.674, 23541.47
1255.156, 23630.50
1255.638, 23701.95
1256.120, 23748.94
1256.602, 23772.94
1257.084, 23764.05
1257.567, 23744.04
1258.049, 23716.15
1258.531, 23687.25
1259.013, 23662.63
1259.495, 23645.34
1259.977, 23654.43
1260.459, 23687.82
1260.941, 23708.19
1261.423, 23698.72
1261.906, 23669.88
1262.388, 23614.65
1262.870, 23557.91
1263.352, 23537.05
1263.834, 23542.23
1264.316, 23554.47
1264.798, 23571.32
1265.280, 23588.33
1265.762, 23613.25
1266.245, 23621.14
1266.727, 23602.56
1267.209, 23577.07
1267.691, 23582.54
1268.173, 23593.97
1268.655, 23552.23
1269.137, 23458.55
1269.619, 23431.61
1270.102, 23515.10
1270.584, 23570.92
1271.066, 23564.25
1271.548, 23541.69
1272.030, 23555.99
1272.512, 23591.37
1272.994, 23640.24
1273.476, 23697.08
1273.958, 23719.98
1274.441, 23704.75
1274.923, 23669.99
1275.405, 23616.48
1275.887, 23559.90
1276.369, 23500.55
1276.851, 23458.40
1277.333, 23466.53
1277.815, 23514.47
1278.297, 23534.85
1278.780, 23526.64
1279.262, 23504.00
1279.744, 23465.22
1280.226, 23443.75
1280.708, 23474.73
1281.190, 23526.91
1281.672, 23591.81
1282.154, 23656.27
1282.637, 23667.18
1283.119, 23628.97
1283.601, 23577.68
1284.083, 23515.55
1284.565, 23478.30
1285.047, 23510.84
1285.529, 23548.37
1286.011, 23556.71
1286.494, 23548.34
1286.976, 23562.26
1287.458, 23589.39
1287.940, 23597.25
1288.422, 23577.25
1288.904, 23554.45
1289.386, 23538.74
1289.868, 23519.97
1290.350, 23492.40
1290.833, 23463.71
1291.315, 23439.17
1291.797, 23428.46
1292.279, 23459.38
1292.761, 23544.25
1293.243, 23604.41
1293.725, 23631.02
1294.207, 23634.57
1294.689, 23614.73
1295.172, 23582.71
1295.654, 23545.02
1296.136, 23510.64
1296.618, 23492.03
1297.100, 23492.56
1297.582, 23501.63
1298.064, 23522.13
1298.546, 23529.74
1299.029, 23511.06
1299.511, 23495.86
1299.993, 23532.96
1300.475, 23575.86
1300.957, 23568.07
1301.439, 23519.48
1301.921, 23500.63
1302.403, 23510.80
1302.885, 23531.24
1303.368, 23561.57
1303.850, 23580.19
1304.332, 23549.60
1304.814, 23525.95
1305.296, 23547.93
1305.778, 23600.45
1306.260, 23642.96
1306.742, 23669.63
1307.224, 23649.56
1307.707, 23564.16
1308.189, 23495.03
1308.671, 23476.36
1309.153, 23484.25
1309.635, 23523.44
1310.117, 23568.49
1310.599, 23557.71
1311.081, 23513.79
1311.564, 23475.97
1312.046, 23449.00
1312.528, 23464.85
1313.010, 23547.78
1313.492, 23599.35
1313.974, 23575.51
1314.456, 23531.88
1314.938, 23542.19
1315.421, 23578.78
1315.903, 23611.30
##END=



