##NAMES=Phosphophyllite
##RRUFFID=R050224
##IDEAL CHEMISTRY=Zn^2+^_2_Fe^2+^(P^5+^O_4_)_2_&#183;4H_2_O
##LOCALITY=Unificada mine, Cerro Rico, Potosi, Bolivia
##OWNER=RRUFF
##SOURCE=Marcus Origlieri
##DESCRIPTION=Pale blue single crystal fragments
##STATUS=The identification of this mineral has been confirmed by X-ray diffraction and chemical analysis
##URL=rruff.info/R050224
##MEASURED CHEMISTRY=Zn_2.00_Fe^2+^_1.00_(P_1.00_O_4_)_2_Â·4H_2_O
108.2096, 156.8493
108.6917, 163.9724
109.1738, 171.2838
109.6559, 178.6622
110.1381, 187.4558
110.6202, 197.3757
111.1023, 208.9050
111.5844, 222.5463
112.0665, 238.5236
112.5486, 256.5808
113.0308, 276.8534
113.5129, 299.8530
113.9950, 324.0427
114.4771, 349.6894
114.9592, 376.2259
115.4413, 403.1852
115.9235, 432.7464
116.4056, 460.8904
116.8877, 485.6336
117.3698, 507.6257
117.8519, 525.2885
118.3340, 538.0968
118.8162, 546.1951
119.2983, 549.9283
119.7804, 548.0800
120.2625, 542.6476
120.7446, 535.1598
121.2267, 525.6478
121.7089, 514.5600
122.1910, 501.6074
122.6731, 487.0782
123.1552, 472.2616
123.6373, 457.6178
124.1194, 443.2872
124.6016, 429.1421
125.0837, 414.9247
125.5658, 401.4059
126.0479, 389.1422
126.5300, 378.1649
127.0121, 368.9961
127.4943, 362.5163
127.9764, 358.2343
128.4585, 354.8523
128.9406, 351.9310
129.4227, 349.6258
129.9048, 348.3250
130.3869, 348.0610
130.8691, 348.4802
131.3512, 349.4459
131.8333, 350.8738
132.3154, 352.2667
132.7975, 353.3139
133.2796, 354.1186
133.7618, 355.1894
134.2439, 355.8777
134.7260, 354.7933
135.2081, 352.1313
135.6902, 348.7170
136.1723, 345.3781
136.6545, 342.3912
137.1366, 339.7640
137.6187, 337.7576
138.1008, 336.4924
138.5829, 335.6560
139.0650, 334.6529
139.5472, 333.5131
140.0293, 332.0993
140.5114, 330.0971
140.9935, 327.1931
141.4756, 325.2433
141.9577, 324.6216
142.4399, 324.9045
142.9220, 324.5135
143.4041, 323.0952
143.8862, 321.6413
144.3683, 320.9123
144.8504, 321.6618
145.3326, 321.3188
145.8147, 319.3148
146.2968, 315.8568
146.7789, 312.9352
147.2610, 311.0057
147.7431, 309.1186
148.2253, 306.5537
148.7074, 302.9338
149.1895, 299.1942
149.6716, 295.3926
150.1537, 291.5150
150.6358, 287.9521
151.1180, 285.0652
151.6001, 282.3039
152.0822, 279.2486
152.5643, 274.6844
153.0464, 271.0854
153.5285, 269.1158
154.0107, 269.0105
154.4928, 268.7551
154.9749, 268.0275
155.4570, 267.1822
155.9391, 266.5695
156.4212, 266.0147
156.9034, 265.8849
157.3855, 266.4703
157.8676, 267.9731
158.3497, 269.1257
158.8318, 269.4345
159.3139, 269.3358
159.7961, 269.3876
160.2782, 269.9997
160.7603, 270.5629
161.2424, 270.6955
161.7245, 270.1475
162.2066, 269.9829
162.6888, 270.6165
163.1709, 271.8492
163.6530, 273.3621
164.1351, 275.3358
164.6172, 277.3444
165.0993, 279.0464
165.5815, 280.2056
166.0636, 281.6355
166.5457, 283.8621
167.0278, 286.6591
167.5099, 289.5566
167.9920, 292.0742
168.4742, 294.7514
168.9563, 298.0452
169.4384, 302.1619
169.9205, 306.6549
170.4026, 311.2855
170.8847, 316.0750
171.3669, 321.0250
171.8490, 325.9667
172.3311, 331.1431
172.8132, 336.8481
173.2953, 343.2962
173.7774, 350.0541
174.2596, 357.0632
174.7417, 364.1898
175.2238, 370.8302
175.7059, 375.5124
176.1880, 379.6771
176.6701, 385.5070
177.1523, 394.2082
177.6344, 403.7509
178.1165, 411.9211
178.5986, 418.9195
179.0807, 425.4769
179.5628, 432.6461
180.0450, 439.8059
180.5271, 445.6024
181.0092, 449.6932
181.4913, 452.4019
181.9734, 453.9353
182.4555, 454.3389
182.9377, 454.1397
183.4198, 453.9218
183.9019, 453.4614
184.3840, 452.0855
184.8661, 449.4759
185.3482, 445.9801
185.8304, 441.8160
186.3125, 436.9969
186.7946, 432.5057
187.2767, 429.2903
187.7588, 427.1558
188.2409, 425.3964
188.7231, 423.9232
189.2052, 422.6220
189.6873, 420.7788
190.1694, 418.2573
190.6515, 416.6183
191.1336, 417.5951
191.6158, 420.9827
192.0979, 424.9930
192.5800, 429.2060
193.0621, 433.6872
193.5442, 438.6257
194.0263, 444.0270
194.5085, 450.1546
194.9906, 457.5946
195.4727, 466.2909
195.9548, 474.6985
196.4369, 482.3582
196.9190, 489.3364
197.4012, 496.1246
197.8833, 502.8649
198.3654, 508.8324
198.8475, 513.2863
199.3296, 516.2831
199.8117, 517.4115
200.2939, 516.5920
200.7760, 513.8436
201.2581, 509.0143
201.7402, 502.0025
202.2223, 493.2400
202.7044, 482.8898
203.1866, 470.9060
203.6687, 458.4057
204.1508, 445.6144
204.6329, 432.5453
205.1150, 419.1592
205.5971, 405.0530
206.0793, 391.4926
206.5614, 380.0103
207.0435, 370.9496
207.5256, 362.7469
208.0077, 355.0012
208.4898, 347.7158
208.9720, 341.2126
209.4541, 335.4661
209.9362, 330.5350
210.4183, 326.5047
210.9004, 323.4493
211.3825, 321.1230
211.8647, 319.4429
212.3468, 318.4071
212.8289, 318.1550
213.3110, 318.8385
213.7931, 320.0931
214.2752, 321.4100
214.7574, 322.6249
215.2395, 324.4589
215.7216, 327.3414
216.2037, 331.3047
216.6858, 334.7010
217.1679, 337.4524
217.6500, 339.7508
218.1322, 341.7289
218.6143, 343.2639
219.0964, 344.8471
219.5785, 346.6832
220.0606, 348.8287
220.5427, 350.3606
221.0249, 351.1779
221.5070, 351.4732
221.9891, 351.3590
222.4712, 350.5498
222.9533, 349.9971
223.4354, 350.1485
223.9176, 351.0988
224.3997, 351.1165
224.8818, 350.1202
225.3639, 348.2912
225.8460, 345.7306
226.3281, 342.2466
226.8103, 338.4765
227.2924, 334.6529
227.7745, 330.7422
228.2566, 326.4687
228.7387, 321.7699
229.2208, 316.7765
229.7030, 311.6960
230.1851, 306.4545
230.6672, 301.1434
231.1493, 295.6526
231.6314, 289.9548
232.1135, 284.8312
232.5957, 280.4179
233.0778, 276.4320
233.5599, 272.6778
234.0420, 269.2328
234.5241, 265.8597
235.0062, 262.3597
235.4884, 258.7571
235.9705, 256.1165
236.4526, 254.9360
236.9347, 254.1654
237.4168, 252.7770
237.8989, 250.2759
238.3811, 248.1164
238.8632, 246.5079
239.3453, 245.4456
239.8274, 244.9749
240.3095, 245.4110
240.7916, 246.0762
241.2738, 246.3569
241.7559, 245.8985
242.2380, 245.7713
242.7201, 246.2229
243.2022, 247.2213
243.6843, 248.0870
244.1665, 248.5638
244.6486, 249.2230
245.1307, 250.5490
245.6128, 252.8623
246.0949, 255.1880
246.5770, 257.3074
247.0592, 259.2860
247.5413, 261.7950
248.0234, 265.0897
248.5055, 268.5672
248.9876, 271.7718
249.4697, 274.6498
249.9519, 277.3606
250.4340, 279.6005
250.9161, 281.5977
251.3982, 284.8786
251.8803, 290.0461
252.3624, 295.6045
252.8446, 300.4902
253.3267, 304.2652
253.8088, 308.4880
254.2909, 313.3835
254.7730, 318.8368
255.2551, 324.2500
255.7373, 329.5161
256.2194, 334.9052
256.7015, 340.4762
257.1836, 346.2211
257.6657, 352.3028
258.1478, 358.9686
258.6299, 365.9018
259.1121, 372.3183
259.5942, 378.1592
260.0763, 383.6341
260.5584, 388.9722
261.0405, 394.1854
261.5226, 399.0849
262.0048, 403.7350
262.4869, 408.0250
262.9690, 411.7121
263.4511, 414.4789
263.9332, 417.2757
264.4153, 420.7313
264.8975, 425.3932
265.3796, 428.5684
265.8617, 429.8945
266.3438, 430.0750
266.8259, 430.4937
267.3080, 431.3906
267.7902, 431.8603
268.2723, 431.3612
268.7544, 429.6733
269.2365, 428.6830
269.7186, 428.7490
270.2007, 429.0575
270.6829, 428.3425
271.1650, 426.4427
271.6471, 424.1133
272.1292, 421.5822
272.6113, 418.8486
273.0934, 415.9953
273.5756, 412.9362
274.0577, 409.9569
274.5398, 407.4571
275.0219, 405.5638
275.5040, 403.5961
275.9861, 401.4874
276.4683, 399.1974
276.9504, 395.9904
277.4325, 391.5461
277.9146, 387.0167
278.3967, 383.7119
278.8788, 381.7563
279.3610, 379.8715
279.8431, 377.5880
280.3252, 375.1449
280.8073, 373.9072
281.2894, 374.1274
281.7715, 374.5136
282.2537, 373.8310
282.7358, 372.0567
283.2179, 370.3102
283.7000, 368.7519
284.1821, 367.3925
284.6642, 366.1584
285.1464, 364.9865
285.6285, 364.4043
286.1106, 365.1512
286.5927, 367.1101
287.0748, 368.5365
287.5569, 368.9597
288.0391, 369.0212
288.5212, 370.2068
289.0033, 372.5295
289.4854, 375.0420
289.9675, 377.1231
290.4496, 378.8611
290.9318, 380.6233
291.4139, 382.3610
291.8960, 384.3801
292.3781, 387.2958
292.8602, 391.0649
293.3423, 394.9212
293.8245, 398.3671
294.3066, 401.5927
294.7887, 405.2759
295.2708, 409.4725
295.7529, 413.8705
296.2350, 418.0736
296.7172, 422.1107
297.1993, 426.1913
297.6814, 430.3079
298.1635, 434.5955
298.6456, 439.2787
299.1277, 444.3861
299.6099, 449.8471
300.0920, 455.2387
300.5741, 460.8439
301.0562, 467.1889
301.5383, 474.6584
302.0204, 482.9654
302.5026, 491.8389
302.9847, 501.3241
303.4668, 510.6528
303.9489, 518.9244
304.4310, 526.6779
304.9131, 535.2120
305.3953, 544.8091
305.8774, 555.3354
306.3595, 566.6154
306.8416, 578.5712
307.3237, 591.1671
307.8058, 604.0541
308.2880, 617.5587
308.7701, 632.1834
309.2522, 648.7072
309.7343, 665.4196
310.2164, 680.6889
310.6985, 695.1183
311.1807, 709.9736
311.6628, 725.9493
312.1449, 742.7852
312.6270, 759.7357
313.1091, 776.5658
313.5912, 794.2864
314.0734, 814.1920
314.5555, 835.4515
315.0376, 856.7059
315.5197, 876.7347
316.0018, 897.1367
316.4839, 918.8011
316.9661, 942.1298
317.4482, 964.8530
317.9303, 986.2571
318.4124, 1006.338
318.8945, 1025.368
319.3766, 1043.150
319.8588, 1060.006
320.3409, 1076.360
320.8230, 1092.271
321.3051, 1105.858
321.7872, 1117.499
322.2693, 1126.156
322.7515, 1131.016
323.2336, 1130.521
323.7157, 1127.739
324.1978, 1123.782
324.6799, 1118.323
325.1620, 1109.268
325.6442, 1095.662
326.1263, 1078.819
326.6084, 1059.361
327.0905, 1036.620
327.5726, 1012.224
328.0547, 985.8782
328.5369, 958.0236
329.0190, 929.0223
329.5011, 898.2521
329.9832, 867.2702
330.4653, 836.4733
330.9474, 805.4706
331.4296, 775.7104
331.9117, 747.4226
332.3938, 720.2474
332.8759, 693.5630
333.3580, 666.7655
333.8401, 640.9761
334.3223, 616.6588
334.8044, 593.6992
335.2865, 572.1031
335.7686, 552.3673
336.2507, 533.6294
336.7328, 515.2997
337.2150, 496.8927
337.6971, 479.7675
338.1792, 464.0689
338.6613, 449.8205
339.1434, 436.3635
339.6255, 423.7156
340.1077, 411.7423
340.5898, 400.0646
341.0719, 388.8123
341.5540, 378.4220
342.0361, 369.1723
342.5182, 360.7150
343.0003, 352.2679
343.4825, 343.8510
343.9646, 335.8103
344.4467, 328.4450
344.9288, 321.8095
345.4109, 315.3509
345.8930, 309.1097
346.3752, 303.0453
346.8573, 297.2039
347.3394, 291.5432
347.8215, 286.1566
348.3036, 281.1010
348.7857, 276.3391
349.2679, 271.7213
349.7500, 267.2592
350.2321, 263.0827
350.7142, 259.5806
351.1963, 256.5524
351.6784, 253.3286
352.1606, 249.6224
352.6427, 245.7718
353.1248, 242.1875
353.6069, 238.8178
354.0890, 235.5439
354.5711, 232.2912
355.0533, 229.0850
355.5354, 225.9040
356.0175, 222.7308
356.4996, 219.6640
356.9817, 216.7184
357.4638, 213.9123
357.9460, 211.2878
358.4281, 209.1164
358.9102, 206.9737
359.3923, 204.4430
359.8744, 201.4295
360.3565, 198.5585
360.8387, 196.2660
361.3208, 194.3174
361.8029, 192.4367
362.2850, 190.7096
362.7671, 188.8598
363.2492, 186.6786
363.7314, 184.1941
364.2135, 181.7818
364.6956, 179.4661
365.1777, 177.3501
365.6598, 175.5224
366.1419, 174.3793
366.6241, 173.0543
367.1062, 171.3409
367.5883, 169.3328
368.0704, 167.3200
368.5525, 165.0294
369.0346, 163.0058
369.5168, 161.5030
369.9989, 160.8452
370.4810, 159.9559
370.9631, 158.6789
371.4452, 157.2330
371.9273, 155.9149
372.4095, 154.8734
372.8916, 153.7578
373.3737, 152.4538
373.8558, 150.9470
374.3379, 149.5251
374.8200, 148.1583
375.3022, 146.8964
375.7843, 145.7598
376.2664, 144.6705
376.7485, 143.9881
377.2306, 143.9570
377.7127, 144.2789
378.1949, 143.8688
378.6770, 142.5688
379.1591, 141.1909
379.6412, 140.1502
380.1233, 139.4381
380.6054, 139.0683
381.0876, 139.1281
381.5697, 139.3061
382.0518, 139.1430
382.5339, 138.6537
383.0160, 138.0653
383.4981, 137.4138
383.9803, 136.7400
384.4624, 136.1254
384.9445, 135.5648
385.4266, 135.2298
385.9087, 135.3964
386.3908, 135.9118
386.8730, 136.3876
387.3551, 136.7408
387.8372, 137.0029
388.3193, 137.2242
388.8014, 137.3954
389.2835, 137.4740
389.7657, 137.1250
390.2478, 136.8163
390.7299, 137.1216
391.2120, 138.1975
391.6941, 139.4901
392.1762, 140.8253
392.6584, 142.0777
393.1405, 143.0726
393.6226, 143.4039
394.1047, 143.7406
394.5868, 144.4439
395.0689, 145.5172
395.5511, 146.6705
396.0332, 147.8489
396.5153, 149.0370
396.9974, 150.2204
397.4795, 151.0439
397.9616, 152.2727
398.4438, 154.2026
398.9259, 156.6634
399.4080, 159.1218
399.8901, 161.7142
400.3722, 164.1361
400.8543, 166.1623
401.3365, 167.4765
401.8186, 169.3630
402.3007, 172.1374
402.7828, 175.2898
403.2649, 178.2006
403.7470, 180.7693
404.2292, 183.2788
404.7113, 185.6604
405.1934, 187.9669
405.6755, 190.7682
406.1576, 194.1729
406.6397, 197.7663
407.1219, 201.2493
407.6040, 204.6059
408.0861, 207.9989
408.5682, 211.4704
409.0503, 214.9662
409.5324, 218.6214
410.0146, 222.4487
410.4967, 226.0311
410.9788, 228.9245
411.4609, 231.3444
411.9430, 234.6179
412.4251, 238.9133
412.9073, 242.8176
413.3894, 244.7890
413.8715, 245.2810
414.3536, 245.6338
414.8357, 246.4323
415.3178, 247.0494
415.8000, 246.6029
416.2821, 245.2146
416.7642, 243.4859
417.2463, 242.2505
417.7284, 240.6442
418.2105, 237.6843
418.6927, 233.0253
419.1748, 227.7827
419.6569, 222.3027
420.1390, 216.6696
420.6211, 211.1729
421.1032, 205.9257
421.5854, 200.6912
422.0675, 195.3737
422.5496, 189.9302
423.0317, 184.5082
423.5138, 178.6909
423.9959, 173.1571
424.4781, 168.2574
424.9602, 164.5648
425.4423, 160.9721
425.9244, 157.4747
426.4065, 154.0060
426.8886, 150.3937
427.3708, 146.3078
427.8529, 142.4311
428.3350, 138.9541
428.8171, 135.8896
429.2992, 133.1413
429.7813, 130.7384
430.2635, 128.6214
430.7456, 126.7568
431.2277, 125.2219
431.7098, 123.6552
432.1919, 121.9873
432.6740, 120.2499
433.1562, 118.5068
433.6383, 116.7418
434.1204, 115.0972
434.6025, 113.6468
435.0846, 112.3864
435.5667, 111.3630
436.0489, 110.6155
436.5310, 109.8728
437.0131, 108.7725
437.4952, 107.3945
437.9773, 106.0091
438.4594, 104.5526
438.9416, 103.2699
439.4236, 102.6557
439.9058, 102.6164
440.3879, 102.5136
440.8700, 101.7930
441.3521, 100.8522
441.8342, 100.1431
442.3163, 99.83404
442.7985, 99.49790
443.2806, 98.75916
443.7627, 97.85564
444.2448, 97.15232
444.7269, 97.02977
445.2090, 96.90483
445.6912, 96.48134
446.1733, 95.74912
446.6554, 95.17194
447.1375, 94.98779
447.6196, 94.89378
448.1017, 94.70020
448.5839, 94.22897
449.0660, 93.88577
449.5481, 93.76828
450.0302, 93.75849
450.5123, 93.58615
450.9944, 93.11877
451.4766, 92.73843
451.9587, 92.64246
452.4408, 92.85756
452.9229, 92.63271
453.4050, 91.77032
453.8871, 90.92455
454.3693, 90.81419
454.8514, 91.48495
455.3335, 91.89854
455.8156, 91.86714
456.2977, 91.53825
456.7798, 91.11481
457.2620, 90.60915
457.7441, 90.24011
458.2262, 90.17258
458.7083, 90.31308
459.1904, 90.48064
459.6725, 90.67078
460.1547, 90.84877
460.6368, 91.06066
461.1189, 91.22520
461.6010, 91.18851
462.0831, 90.77569
462.5652, 90.33376
463.0474, 90.07774
463.5295, 89.99158
464.0116, 90.03880
464.4937, 90.34047
464.9758, 90.66323
465.4579, 90.87077
465.9401, 90.93495
466.4222, 90.96666
466.9043, 91.02354
467.3864, 91.04479
467.8685, 90.97312
468.3506, 90.47696
468.8328, 90.28363
469.3149, 90.63283
469.7970, 91.35606
470.2791, 91.81172
470.7612, 91.84612
471.2433, 91.84050
471.7255, 91.96136
472.2076, 92.23958
472.6897, 92.43090
473.1718, 92.48769
473.6539, 92.55553
474.1360, 92.88540
474.6182, 93.49786
475.1003, 93.84114
475.5824, 93.66902
476.0645, 93.28055
476.5466, 93.41827
477.0287, 94.04771
477.5109, 94.74089
477.9930, 95.20998
478.4751, 95.56307
478.9572, 96.02179
479.4393, 96.60763
479.9214, 97.21252
480.4036, 97.74739
480.8857, 98.23402
481.3678, 98.69606
481.8499, 99.06628
482.3320, 99.50504
482.8141, 100.1838
483.2963, 101.0233
483.7784, 101.7676
484.2605, 102.2272
484.7426, 102.6368
485.2247, 103.1127
485.7068, 103.6766
486.1890, 104.2483
486.6711, 104.7624
487.1532, 105.3114
487.6353, 105.9786
488.1174, 106.6868
488.5995, 107.6291
489.0817, 108.9921
489.5638, 110.5764
490.0459, 111.6870
490.5280, 112.0838
491.0101, 112.6102
491.4922, 113.7340
491.9744, 115.4774
492.4565, 116.8199
492.9386, 117.6807
493.4207, 118.5233
493.9028, 120.0252
494.3849, 122.0439
494.8671, 123.4932
495.3492, 123.9222
495.8313, 124.0886
496.3134, 125.3642
496.7955, 127.4425
497.2776, 129.1964
497.7598, 129.7245
498.2419, 129.7612
498.7240, 130.0403
499.2061, 130.6030
499.6882, 131.1865
500.1703, 131.6755
500.6525, 132.0957
501.1346, 132.4668
501.6167, 132.7801
502.0988, 133.0731
502.5809, 133.5479
503.0630, 133.9972
503.5452, 133.9796
504.0273, 133.0435
504.5094, 132.0219
504.9915, 130.9896
505.4736, 129.9275
505.9557, 129.4731
506.4379, 130.0365
506.9200, 130.6532
507.4021, 130.6575
507.8842, 129.9640
508.3663, 128.9672
508.8484, 127.5450
509.3306, 126.0709
509.8127, 125.2708
510.2948, 125.1339
510.7769, 124.9275
511.2590, 124.3203
511.7411, 123.4969
512.2233, 122.9274
512.7054, 122.5896
513.1875, 122.2556
513.6696, 121.8166
514.1517, 121.2605
514.6339, 120.5665
515.1160, 119.7233
515.5981, 118.7621
516.0802, 117.4974
516.5623, 116.1760
517.0444, 115.1287
517.5266, 114.6289
518.0087, 114.2514
518.4908, 113.9998
518.9729, 113.7916
519.4550, 113.2688
519.9371, 111.9793
520.4193, 110.7173
520.9014, 109.8270
521.3835, 109.4164
521.8656, 108.8870
522.3477, 108.1606
522.8298, 107.4026
523.3120, 106.7515
523.7941, 106.2110
524.2762, 105.8197
524.7583, 105.6010
525.2404, 105.5168
525.7225, 105.5451
526.2047, 105.6852
526.6868, 105.7123
527.1689, 105.5229
527.6510, 105.1413
528.1331, 104.4873
528.6152, 103.5696
529.0974, 102.8838
529.5795, 103.0251
530.0616, 103.5623
530.5437, 103.8556
531.0258, 103.6806
531.5079, 103.5472
531.9901, 103.8715
532.4722, 104.4215
532.9543, 104.8330
533.4364, 104.9528
533.9185, 104.9573
534.4006, 104.8805
534.8828, 104.7286
535.3649, 104.5381
535.8470, 104.1356
536.3291, 103.8692
536.8112, 103.8927
537.2933, 104.2530
537.7755, 104.7345
538.2576, 105.4086
538.7397, 106.0961
539.2218, 106.5547
539.7039, 106.7487
540.1860, 107.0454
540.6682, 107.5775
541.1503, 108.1524
541.6324, 108.2062
542.1145, 107.8157
542.5966, 107.7390
543.0787, 108.6662
543.5609, 110.0422
544.0430, 110.9723
544.5251, 111.4592
545.0072, 111.7945
545.4893, 112.0115
545.9714, 112.2625
546.4536, 112.7196
546.9357, 113.4724
547.4178, 114.2886
547.8999, 115.1540
548.3820, 116.0026
548.8641, 116.7426
549.3463, 117.0475
549.8284, 117.5886
550.3105, 118.6356
550.7926, 120.0735
551.2747, 121.2507
551.7568, 122.0104
552.2390, 122.7973
552.7211, 123.8110
553.2032, 125.0667
553.6853, 126.3872
554.1674, 127.8035
554.6495, 129.1887
555.1317, 130.3736
555.6138, 131.3757
556.0959, 132.4497
556.5780, 133.6073
557.0601, 134.9354
557.5422, 136.6560
558.0244, 138.6609
558.5065, 140.6399
558.9886, 142.3846
559.4707, 144.0725
559.9528, 145.6785
560.4349, 147.2748
560.9171, 149.2489
561.3992, 152.1667
561.8813, 155.2415
562.3634, 157.9155
562.8455, 159.9849
563.3276, 162.1783
563.8098, 164.3651
564.2919, 166.8499
564.7740, 170.0185
565.2561, 174.5352
565.7382, 178.3565
566.2203, 181.0188
566.7025, 183.0756
567.1846, 185.8404
567.6667, 189.4151
568.1488, 193.1408
568.6309, 196.6988
569.1130, 200.2096
569.5952, 204.1342
570.0773, 208.5130
570.5594, 212.5696
571.0415, 215.5779
571.5236, 218.0382
572.0057, 220.7381
572.4879, 223.8390
572.9700, 226.9526
573.4521, 229.7698
573.9342, 232.4646
574.4163, 235.2099
574.8984, 238.5042
575.3806, 241.3343
575.8627, 243.0956
576.3448, 244.1744
576.8269, 245.6641
577.3090, 247.9985
577.7911, 250.3597
578.2733, 252.4909
578.7554, 254.3783
579.2375, 256.7647
579.7196, 259.8140
580.2017, 262.9520
580.6838, 265.6846
581.1660, 268.0094
581.6481, 270.6452
582.1302, 273.6335
582.6123, 276.8591
583.0944, 280.4222
583.5765, 284.0948
584.0587, 287.1526
584.5408, 289.0175
585.0229, 290.7950
585.5050, 293.9901
585.9871, 297.9928
586.4692, 301.2615
586.9514, 302.5737
587.4335, 303.5189
587.9155, 304.9140
588.3976, 306.7583
588.8798, 308.3917
589.3619, 309.7739
589.8440, 310.8299
590.3261, 311.4902
590.8082, 311.6160
591.2903, 311.8336
591.7725, 312.3547
592.2546, 312.6697
592.7367, 312.1143
593.2188, 310.5860
593.7009, 309.2306
594.1830, 308.3170
594.6652, 307.4690
595.1473, 306.0208
595.6294, 304.0242
596.1115, 301.7389
596.5936, 299.2442
597.0757, 296.5532
597.5579, 293.6357
598.0400, 290.5540
598.5221, 287.3451
599.0042, 284.1844
599.4863, 280.8089
599.9684, 276.8994
600.4506, 272.3403
600.9327, 268.0494
601.4148, 264.4434
601.8969, 261.0463
602.3790, 257.4926
602.8611, 253.7330
603.3433, 249.8328
603.8254, 245.7542
604.3075, 241.5960
604.7896, 237.5271
605.2717, 233.4845
605.7538, 229.8674
606.2360, 227.0434
606.7181, 224.5305
607.2002, 221.1180
607.6823, 216.9305
608.1644, 213.0068
608.6465, 210.1644
609.1287, 207.8464
609.6108, 205.4027
610.0929, 202.8229
610.5750, 200.3105
611.0571, 197.7502
611.5392, 195.4276
612.0214, 193.6464
612.5035, 192.6912
612.9856, 191.5466
613.4677, 189.7650
613.9498, 187.8265
614.4319, 186.1818
614.9141, 184.7814
615.3962, 183.7729
615.8783, 183.2995
616.3604, 183.1238
616.8425, 182.6729
617.3246, 181.8967
617.8068, 181.3501
618.2889, 181.2413
618.7710, 181.5016
619.2531, 182.0635
619.7352, 182.8990
620.2173, 183.7400
620.6995, 184.1963
621.1816, 184.6836
621.6637, 185.7988
622.1458, 187.5999
622.6279, 189.2954
623.1100, 190.1732
623.5922, 190.9640
624.0743, 192.2858
624.5564, 194.6445
625.0385, 196.7478
625.5206, 198.3363
626.0027, 199.6830
626.4849, 201.0615
626.9670, 202.4699
627.4491, 203.9698
627.9312, 205.6081
628.4133, 207.3146
628.8954, 209.0160
629.3776, 210.7068
629.8597, 212.0561
630.3418, 212.8348
630.8239, 213.2506
631.3060, 213.8206
631.7881, 214.4659
632.2703, 214.6781
632.7524, 213.8750
633.2345, 212.6590
633.7166, 211.6084
634.1987, 210.8177
634.6808, 209.6648
635.1630, 207.7510
635.6451, 205.5062
636.1272, 203.2459
636.6093, 201.2574
637.0914, 198.7711
637.5735, 195.6028
638.0557, 192.1198
638.5378, 188.7880
639.0199, 185.5805
639.5020, 182.6230
639.9841, 180.0177
640.4662, 177.5529
640.9484, 174.7262
641.4305, 171.5918
641.9126, 168.4342
642.3947, 165.2661
642.8768, 162.1999
643.3589, 159.3576
643.8411, 156.6970
644.3232, 154.1023
644.8053, 151.3715
645.2874, 148.7736
645.7695, 146.4879
646.2516, 144.5892
646.7338, 142.5172
647.2159, 139.9688
647.6980, 137.4198
648.1801, 135.1499
648.6622, 133.1838
649.1443, 131.3611
649.6265, 129.7292
650.1086, 128.1283
650.5907, 126.3955
651.0728, 124.5254
651.5549, 122.6161
652.0370, 120.6375
652.5192, 118.7598
653.0013, 117.3367
653.4834, 116.2408
653.9655, 115.1692
654.4476, 113.9437
654.9297, 112.7773
655.4119, 111.9151
655.8940, 111.2298
656.3761, 110.3173
656.8582, 108.6835
657.3403, 107.2010
657.8224, 106.2099
658.3046, 105.6869
658.7867, 105.1570
659.2688, 104.7205
659.7509, 104.0813
660.2330, 102.8866
660.7151, 101.1346
661.1973, 100.2265
661.6794, 100.2459
662.1615, 100.4893
662.6436, 100.3784
663.1257, 99.99235
663.6078, 99.40820
664.0900, 98.55007
664.5721, 97.95333
665.0542, 98.41699
665.5363, 99.22594
666.0184, 99.49767
666.5005, 98.49458
666.9827, 97.58196
667.4648, 97.15272
667.9469, 97.00252
668.4290, 96.74605
668.9111, 96.37215
669.3932, 95.87563
669.8754, 95.12817
670.3575, 94.31412
670.8396, 94.19978
671.3217, 94.84135
671.8038, 95.27263
672.2859, 94.84664
672.7681, 93.98308
673.2502, 93.57726
673.7323, 93.59038
674.2144, 93.73559
674.6965, 93.95808
675.1786, 94.14191
675.6608, 94.19525
676.1429, 94.10866
676.6250, 93.90596
677.1071, 93.50303
677.5892, 93.05210
678.0714, 92.63528
678.5535, 92.18065
679.0356, 91.98596
679.5177, 92.20541
679.9998, 92.46984
680.4819, 92.28648
680.9641, 91.63680
681.4462, 91.36045
681.9283, 91.63544
682.4104, 92.09431
682.8925, 92.23589
683.3746, 92.15099
683.8568, 92.08910
684.3389, 92.23038
684.8210, 92.27677
685.3031, 91.92125
685.7852, 91.31776
686.2673, 90.79395
686.7495, 90.38950
687.2316, 90.13614
687.7137, 90.12440
688.1958, 90.28628
688.6779, 90.32262
689.1600, 90.08623
689.6422, 90.06562
690.1243, 90.57866
690.6064, 91.49760
691.0885, 91.88175
691.5706, 91.71911
692.0527, 91.36125
692.5349, 90.83336
693.0170, 90.34453
693.4991, 90.38408
693.9812, 90.96750
694.4633, 91.41810
694.9454, 91.21057
695.4276, 90.74113
695.9097, 90.29514
696.3918, 89.86711
696.8739, 89.61273
697.3560, 89.56114
697.8381, 89.68259
698.3203, 89.99897
698.8024, 90.62416
699.2845, 91.07515
699.7666, 91.32057
700.2487, 91.38499
700.7308, 91.20216
701.2130, 90.82608
701.6951, 90.60866
702.1772, 90.68579
702.6593, 90.84203
703.1414, 90.81072
703.6235, 90.67706
704.1057, 90.60464
704.5878, 90.77444
705.0699, 90.89748
705.5520, 90.70752
706.0341, 90.36613
706.5162, 90.40386
706.9984, 91.30396
707.4805, 91.90231
707.9626, 91.77855
708.4447, 91.12749
708.9268, 91.05092
709.4089, 91.62492
709.8911, 92.15990
710.3732, 92.24361
710.8553, 92.03632
711.3374, 91.95898
711.8195, 91.99739
712.3016, 92.03127
712.7838, 91.97684
713.2659, 91.88499
713.7480, 91.79097
714.2301, 91.69685
714.7122, 91.61803
715.1943, 91.34131
715.6765, 91.26612
716.1586, 91.71843
716.6407, 92.99992
717.1228, 93.59293
717.6049, 93.29300
718.0870, 92.74104
718.5692, 92.42953
719.0513, 92.36771
719.5334, 92.79041
720.0155, 93.82351
720.4976, 94.73487
720.9797, 94.59452
721.4619, 93.86996
721.9440, 93.29019
722.4261, 93.04475
722.9082, 92.98534
723.3903, 93.22845
723.8724, 93.54825
724.3546, 93.65009
724.8367, 93.23515
725.3188, 92.96967
725.8009, 92.90392
726.2830, 93.00666
726.7651, 93.28455
727.2473, 93.77433
727.7294, 94.06285
728.2115, 93.97661
728.6936, 93.72957
729.1757, 93.75938
729.6578, 93.97666
730.1400, 94.06944
730.6221, 93.57299
731.1042, 93.18661
731.5863, 93.57375
732.0684, 94.50022
732.5505, 95.18953
733.0327, 95.43848
733.5148, 95.40349
733.9969, 95.00397
734.4790, 94.32835
734.9611, 93.95937
735.4432, 93.93425
735.9254, 94.10018
736.4075, 94.51713
736.8896, 95.05705
737.3717, 95.13814
737.8538, 94.78927
738.3359, 94.40931
738.8181, 94.25964
739.3002, 94.22298
739.7823, 94.14345
740.2644, 94.01606
740.7465, 94.05486
741.2286, 94.41533
741.7108, 94.90826
742.1929, 95.51456
742.6750, 96.32958
743.1571, 96.64852
743.6392, 96.31010
744.1213, 95.79260
744.6035, 95.36939
745.0856, 95.05107
745.5677, 95.11066
746.0498, 95.59711
746.5319, 96.04874
747.0140, 95.87760
747.4962, 95.45184
747.9783, 95.37765
748.4604, 95.85320
748.9425, 96.21229
749.4246, 96.07494
749.9067, 95.70847
750.3889, 95.34764
750.8710, 94.97987
751.3531, 94.67223
751.8352, 94.36609
752.3173, 94.19009
752.7994, 94.39925
753.2816, 95.00829
753.7637, 95.30552
754.2458, 95.12677
754.7279, 94.85360
755.2100, 95.02975
755.6921, 95.45259
756.1743, 95.71117
756.6564, 95.59473
757.1385, 95.44554
757.6206, 95.49129
758.1027, 95.60102
758.5848, 95.58278
759.0670, 95.30936
759.5491, 95.04469
760.0312, 94.80019
760.5133, 94.58174
760.9954, 94.39089
761.4775, 94.22606
761.9597, 94.12961
762.4418, 94.12921
762.9239, 94.17273
763.4060, 94.13408
763.8881, 94.06795
764.3702, 94.12267
764.8524, 94.73653
765.3345, 95.11008
765.8166, 94.58288
766.2987, 93.49007
766.7808, 92.68559
767.2629, 92.42810
767.7451, 92.32372
768.2272, 92.34741
768.7093, 92.46342
769.1914, 92.61964
769.6735, 92.83999
770.1556, 92.81779
770.6378, 92.34804
771.1199, 91.64439
771.6020, 90.99904
772.0841, 90.44810
772.5662, 90.12356
773.0483, 90.34959
773.5305, 90.58709
774.0126, 90.39763
774.4947, 89.89296
774.9768, 89.70277
775.4589, 90.25495
775.9410, 90.69849
776.4232, 90.82566
776.9053, 90.65103
777.3874, 90.17635
777.8695, 89.37125
778.3516, 88.62358
778.8337, 88.10907
779.3159, 87.79854
779.7980, 87.73425
780.2801, 87.86191
780.7622, 87.89410
781.2443, 87.60384
781.7264, 87.22640
782.2086, 86.81441
782.6907, 86.38864
783.1728, 86.25349
783.6549, 86.70088
784.1370, 87.04056
784.6191, 86.97871
785.1012, 86.56226
785.5833, 86.23292
786.0654, 85.99424
786.5475, 85.77467
787.0297, 85.51433
787.5118, 85.24853
787.9939, 85.12991
788.4760, 85.11819
788.9581, 84.90559
789.4402, 83.82207
789.9224, 82.91365
790.4045, 83.04909
790.8866, 84.35323
791.3687, 84.83174
791.8508, 83.97982
792.3329, 83.07944
792.8151, 82.77083
793.2972, 82.99550
793.7793, 83.08226
794.2614, 83.03059
794.7435, 82.92422
795.2256, 82.85564
795.7078, 82.75204
796.1899, 82.43184
796.6720, 81.91425
797.1541, 81.57365
797.6362, 81.75700
798.1183, 82.01730
798.6005, 82.12462
799.0826, 82.06786
799.5647, 81.89169
800.0468, 81.54218
800.5289, 81.19227
801.0110, 80.93968
801.4932, 80.77310
801.9753, 80.60262
802.4574, 80.42895
802.9395, 80.27548
803.4216, 80.18459
803.9037, 80.10685
804.3859, 79.99238
804.8680, 79.83810
805.3501, 79.66658
805.8322, 79.47362
806.3143, 79.27451
806.7964, 79.08154
807.2786, 78.89864
807.7607, 78.68580
808.2428, 78.44751
808.7249, 78.16560
809.2070, 77.71352
809.6891, 77.21336
810.1713, 77.15582
810.6534, 77.51237
811.1355, 77.84916
811.6176, 77.83702
812.0997, 77.72033
812.5818, 77.70945
813.0640, 77.82199
813.5461, 77.81142
814.0282, 77.47787
814.5103, 77.20065
814.9924, 77.18146
815.4745, 77.40575
815.9567, 77.41245
816.4388, 77.18429
816.9209, 76.92824
817.4030, 76.81255
817.8851, 76.74791
818.3672, 76.55580
818.8494, 76.24978
819.3315, 75.95828
819.8136, 75.68423
820.2957, 75.50275
820.7778, 75.50389
821.2599, 75.69656
821.7421, 75.78975
822.2242, 75.71499
822.7063, 75.68675
823.1884, 75.87038
823.6705, 76.18337
824.1526, 76.10130
824.6348, 75.64922
825.1169, 75.29916
825.5990, 75.46626
826.0811, 75.79636
826.5632, 75.95066
827.0453, 75.93693
827.5275, 75.87830
828.0096, 75.71916
828.4917, 75.62714
828.9738, 75.71732
829.4559, 75.94489
829.9380, 75.96842
830.4202, 75.76288
830.9023, 75.48039
831.3844, 75.11214
831.8665, 74.76107
832.3486, 74.72536
832.8307, 74.93884
833.3129, 75.09991
833.7950, 74.96248
834.2771, 74.80452
834.7592, 74.87011
835.2413, 75.08035
835.7234, 75.01531
836.2056, 74.32263
836.6877, 73.92747
837.1698, 74.18286
837.6519, 74.84253
838.1340, 75.12040
838.6161, 75.03783
839.0983, 74.95168
839.5804, 75.10149
840.0625, 75.22154
840.5446, 74.83733
841.0267, 74.17336
841.5089, 73.79668
841.9910, 74.27419
842.4731, 74.64487
842.9552, 74.53142
843.4373, 74.16000
843.9194, 74.00874
844.4016, 74.14214
844.8837, 74.19662
845.3658, 74.05848
845.8479, 73.85320
846.3300, 73.79843
846.8121, 73.85792
847.2943, 73.92280
847.7764, 73.89870
848.2585, 73.95915
848.7406, 74.32734
849.2227, 74.80797
849.7048, 75.08405
850.1870, 74.97144
850.6691, 74.92288
851.1512, 74.96906
851.6333, 75.09773
852.1154, 75.39971
852.5975, 75.82775
853.0797, 75.86900
853.5618, 75.33878
854.0439, 74.75066
854.5260, 74.57996
855.0081, 74.68628
855.4902, 74.91236
855.9724, 75.37257
856.4545, 75.62376
856.9366, 75.38691
857.4187, 75.06305
857.9008, 75.00751
858.3829, 75.26844
858.8651, 75.46144
859.3472, 75.55116
859.8293, 75.64851
860.3114, 75.96536
860.7935, 76.34216
861.2756, 76.42387
861.7578, 76.13022
862.2399, 75.91330
862.7220, 75.94526
863.2041, 76.18022
863.6862, 76.69070
864.1683, 77.57697
864.6505, 78.02269
865.1326, 77.94061
865.6147, 77.64634
866.0968, 77.23483
866.5789, 76.78706
867.0610, 76.70390
867.5432, 76.97412
868.0253, 77.27084
868.5074, 77.43813
868.9895, 77.49681
869.4716, 77.37677
869.9537, 77.08570
870.4359, 77.02432
870.9180, 77.31916
871.4001, 77.69081
871.8822, 78.06477
872.3643, 78.42815
872.8464, 78.68285
873.3286, 78.83784
873.8107, 79.04161
874.2928, 79.47266
874.7749, 79.92097
875.2570, 80.08023
875.7391, 80.05909
876.2213, 80.17715
876.7034, 80.78260
877.1855, 81.23914
877.6676, 81.29744
878.1497, 81.15062
878.6318, 81.35539
879.1140, 81.97060
879.5961, 82.31886
880.0782, 82.11079
880.5603, 81.78277
881.0424, 81.98516
881.5245, 82.54338
882.0067, 83.10567
882.4888, 83.58152
882.9709, 84.00009
883.4530, 84.37986
883.9351, 84.70504
884.4172, 84.92529
884.8994, 84.94148
885.3815, 85.22124
885.8636, 85.84707
886.3457, 86.59229
886.8278, 87.26160
887.3099, 87.82000
887.7921, 88.11460
888.2742, 88.05537
888.7563, 88.18394
889.2384, 88.98885
889.7205, 90.00803
890.2026, 90.88216
890.6848, 91.57260
891.1669, 92.14074
891.6490, 92.55870
892.1311, 92.91021
892.6132, 93.22877
893.0953, 93.52650
893.5775, 93.84300
894.0596, 94.18700
894.5417, 94.62440
895.0238, 95.35916
895.5059, 96.08209
895.9880, 96.41869
896.4702, 96.40849
896.9523, 96.87843
897.4344, 98.07666
897.9165, 99.41814
898.3986, 100.8472
898.8807, 102.1890
899.3629, 102.5232
899.8450, 101.9982
900.3271, 101.7216
900.8092, 102.2450
901.2913, 103.1868
901.7734, 104.4923
902.2556, 105.9335
902.7377, 107.0486
903.2198, 107.2411
903.7019, 107.7645
904.1840, 108.9516
904.6661, 110.3406
905.1483, 111.0279
905.6304, 111.0812
906.1125, 111.5820
906.5946, 112.8089
907.0767, 114.2219
907.5588, 115.2199
908.0410, 116.0812
908.5231, 117.2050
909.0052, 118.8740
909.4873, 120.2457
909.9694, 120.9822
910.4515, 121.6572
910.9337, 122.6784
911.4158, 124.0501
911.8979, 125.6111
912.3800, 127.3674
912.8621, 129.1530
913.3442, 130.7572
913.8264, 132.3439
914.3085, 134.1555
914.7906, 136.1774
915.2727, 137.9747
915.7548, 138.7193
916.2369, 140.0069
916.7191, 142.5528
917.2012, 146.1059
917.6833, 149.4470
918.1654, 152.5761
918.6475, 155.4973
919.1296, 157.9105
919.6118, 160.4526
920.0939, 164.0328
920.5760, 168.4100
921.0581, 172.9527
921.5402, 177.4978
922.0223, 182.1741
922.5045, 186.9337
922.9866, 191.9191
923.4687, 197.2977
923.9508, 203.0541
924.4329, 209.4859
924.9150, 216.5486
925.3972, 224.1451
925.8793, 232.0905
926.3614, 240.5023
926.8435, 249.4482
927.3256, 259.0099
927.8077, 269.0518
928.2899, 279.2700
928.7720, 290.0991
929.2541, 301.9951
929.7362, 315.0733
930.2183, 327.6899
930.7004, 339.8058
931.1826, 352.8729
931.6647, 368.1060
932.1468, 384.6864
932.6289, 401.6206
933.1110, 419.0257
933.5931, 436.8524
934.0753, 454.9478
934.5574, 473.9971
935.0395, 494.2230
935.5216, 515.5128
936.0037, 536.8525
936.4858, 558.5612
936.9680, 578.5370
937.4501, 596.4617
937.9322, 611.6668
938.4143, 623.4623
938.8964, 631.6769
939.3785, 635.9178
939.8607, 637.6244
940.3428, 632.4001
940.8249, 618.1802
941.3070, 598.4608
941.7891, 575.4979
942.2712, 549.2839
942.7534, 522.0997
943.2355, 493.6880
943.7176, 464.9989
944.1997, 435.5050
944.6818, 406.6510
945.1639, 379.3879
945.6461, 353.9647
946.1282, 331.0686
946.6103, 311.4897
947.0924, 293.8046
947.5745, 277.6535
948.0566, 263.0153
948.5388, 249.8291
949.0209, 238.0834
949.5030, 227.5650
949.9851, 218.2984
950.4672, 210.0401
950.9493, 202.7200
951.4315, 196.2714
951.9136, 190.6319
952.3957, 186.3755
952.8778, 182.1217
953.3599, 177.5981
953.8420, 173.2242
954.3242, 169.5637
954.8063, 166.6014
955.2884, 163.9958
955.7705, 161.7010
956.2526, 159.7571
956.7347, 158.2551
957.2169, 157.0819
957.6990, 156.1718
958.1811, 155.5526
958.6632, 154.9860
959.1453, 154.4525
959.6274, 153.9580
960.1096, 153.4387
960.5917, 152.9669
961.0738, 152.9073
961.5559, 153.2162
962.0380, 153.6386
962.5201, 153.9453
963.0023, 154.4137
963.4844, 155.3141
963.9665, 156.5042
964.4486, 157.5610
964.9307, 158.3019
965.4128, 159.3367
965.8950, 160.7446
966.3771, 162.4779
966.8592, 164.6275
967.3413, 167.0430
967.8234, 169.3760
968.3055, 171.5135
968.7877, 173.7078
969.2698, 175.7329
969.7519, 178.1386
970.2340, 181.4108
970.7161, 185.6518
971.1982, 189.8031
971.6804, 193.8422
972.1625, 198.0832
972.6446, 202.8812
973.1267, 207.9962
973.6088, 212.7173
974.0909, 217.3253
974.5731, 222.8396
975.0552, 230.2980
975.5373, 238.0779
976.0194, 245.6060
976.5015, 253.2295
976.9836, 261.5086
977.4658, 270.2819
977.9479, 280.7847
978.4300, 293.3339
978.9121, 306.9995
979.3942, 320.6808
979.8763, 335.0401
980.3585, 350.8762
980.8406, 367.9225
981.3227, 387.6079
981.8048, 410.6411
982.2869, 435.8275
982.7690, 462.5551
983.2511, 490.8916
983.7332, 521.1410
984.2153, 553.5162
984.6974, 588.7941
985.1796, 628.6532
985.6617, 670.9352
986.1438, 712.3782
986.6259, 754.5292
987.1080, 802.3573
987.5901, 856.8439
988.0723, 915.3815
988.5544, 976.8115
989.0365, 1042.448
989.5186, 1113.018
990.0007, 1189.483
990.4828, 1273.495
990.9650, 1365.986
991.4471, 1464.745
991.9292, 1570.185
992.4113, 1680.063
992.8934, 1795.179
993.3755, 1915.770
993.8577, 2035.610
994.3398, 2155.601
994.8219, 2264.446
995.3040, 2361.568
995.7861, 2439.198
996.2682, 2489.543
996.7504, 2510.568
997.2325, 2497.853
997.7146, 2441.919
998.1967, 2359.688
998.6788, 2250.923
999.1609, 2122.939
999.6431, 1980.187
1000.125, 1825.087
1000.607, 1674.388
1001.089, 1531.170
1001.572, 1397.152
1002.054, 1274.320
1002.536, 1162.104
1003.018, 1057.590
1003.500, 962.3988
1003.982, 877.1793
1004.464, 803.7927
1004.946, 737.0371
1005.428, 675.6418
1005.911, 619.3799
1006.393, 569.8097
1006.875, 526.0441
1007.357, 487.4490
1007.839, 454.2245
1008.321, 424.1630
1008.803, 395.7405
1009.285, 369.8337
1009.768, 347.2880
1010.250, 328.4156
1010.732, 311.0236
1011.214, 295.2360
1011.696, 280.6949
1012.178, 267.3420
1012.660, 255.2253
1013.142, 244.4749
1013.624, 235.1042
1014.107, 226.0951
1014.589, 216.9299
1015.071, 208.4640
1015.553, 201.1383
1016.035, 194.7225
1016.517, 188.4040
1016.999, 182.2450
1017.481, 176.6477
1017.964, 171.8157
1018.446, 167.5203
1018.928, 163.6921
1019.410, 160.1559
1019.892, 156.7050
1020.374, 153.2975
1020.856, 149.9813
1021.338, 146.7276
1021.820, 143.6284
1022.303, 140.7175
1022.785, 138.0507
1023.267, 135.9634
1023.749, 134.3528
1024.231, 132.6142
1024.713, 130.2049
1025.195, 127.8840
1025.677, 125.9601
1026.160, 124.3235
1026.642, 122.7314
1027.124, 121.1804
1027.606, 119.7364
1028.088, 118.4116
1028.570, 117.1796
1029.052, 115.8992
1029.534, 114.7417
1030.016, 113.9267
1030.499, 113.5503
1030.981, 113.1761
1031.463, 112.8419
1031.945, 112.3509
1032.427, 111.4984
1032.909, 110.4600
1033.391, 109.8604
1033.873, 109.6115
1034.355, 109.3290
1034.838, 108.7253
1035.320, 108.1676
1035.802, 107.8461
1036.284, 107.6603
1036.766, 107.4929
1037.248, 107.3646
1037.730, 107.0495
1038.212, 106.4795
1038.695, 106.1452
1039.177, 106.8953
1039.659, 107.9033
1040.141, 107.9765
1040.623, 107.1360
1041.105, 106.7270
1041.587, 107.2287
1042.069, 107.8536
1042.552, 108.4113
1043.034, 108.9677
1043.516, 109.7503
1043.998, 110.6896
1044.480, 111.4048
1044.962, 111.6772
1045.444, 112.1273
1045.926, 113.4715
1046.408, 114.9008
1046.891, 115.5967
1047.373, 115.4042
1047.855, 115.8593
1048.337, 117.0036
1048.819, 118.4255
1049.301, 120.0941
1049.783, 121.7239
1050.265, 122.5838
1050.747, 123.1231
1051.230, 124.5515
1051.712, 128.2139
1052.194, 131.3602
1052.676, 133.6000
1053.158, 135.4862
1053.640, 137.4607
1054.122, 139.6396
1054.604, 142.6504
1055.087, 146.5746
1055.569, 150.4232
1056.051, 153.1004
1056.533, 156.0518
1057.015, 160.2607
1057.497, 165.4810
1057.979, 170.6382
1058.461, 175.7041
1058.943, 180.9948
1059.426, 186.4521
1059.908, 192.5821
1060.390, 200.4776
1060.872, 209.2854
1061.354, 217.8008
1061.836, 225.1827
1062.318, 233.8191
1062.800, 244.2266
1063.282, 254.9758
1063.765, 264.8607
1064.247, 274.5455
1064.729, 286.1011
1065.211, 299.3236
1065.693, 313.1974
1066.175, 327.1716
1066.657, 341.8092
1067.139, 358.1043
1067.622, 374.9865
1068.104, 391.0282
1068.586, 406.0622
1069.068, 421.8776
1069.550, 438.7691
1070.032, 455.6185
1070.514, 471.8314
1070.996, 487.2771
1071.479, 502.8319
1071.961, 518.1696
1072.443, 529.0668
1072.925, 535.1721
1073.407, 538.0735
1073.889, 538.3138
1074.371, 535.4566
1074.853, 528.3822
1075.335, 517.8126
1075.818, 504.8153
1076.300, 489.5241
1076.782, 472.5743
1077.264, 453.6818
1077.746, 433.7265
1078.228, 413.1710
1078.710, 392.2332
1079.192, 372.0969
1079.674, 352.8336
1080.157, 334.4463
1080.639, 316.4197
1081.121, 299.4855
1081.603, 284.2074
1082.085, 270.3969
1082.567, 257.9345
1083.049, 246.9828
1083.531, 236.6367
1084.013, 226.7620
1084.496, 217.4994
1084.978, 208.7645
1085.460, 200.8234
1085.942, 194.2071
1086.424, 188.6707
1086.906, 182.9022
1087.388, 176.2336
1087.870, 170.2014
1088.353, 165.1346
1088.835, 160.7724
1089.317, 156.9421
1089.799, 153.4816
1090.281, 150.0551
1090.763, 146.5968
1091.245, 143.2180
1091.727, 139.6590
1092.209, 136.5379
1092.692, 134.2815
1093.174, 132.7002
1093.656, 130.8699
1094.138, 128.8328
1094.620, 126.9628
1095.102, 125.3965
1095.584, 124.0587
1096.066, 123.0885
1096.548, 122.2114
1097.031, 121.0368
1097.513, 119.4344
1097.995, 118.2038
1098.477, 117.3777
1098.959, 116.6765
1099.441, 115.9290
1099.923, 115.1835
1100.405, 114.4099
1100.888, 113.6703
1101.370, 113.1416
1101.852, 112.9869
1102.334, 112.8483
1102.816, 112.7284
1103.298, 112.5450
1103.780, 112.1428
1104.262, 111.6163
1104.745, 111.1339
1105.227, 110.7159
1105.709, 110.5039
1106.191, 110.5829
1106.673, 110.8652
1107.155, 111.3436
1107.637, 111.9686
1108.119, 112.6446
1108.601, 113.3696
1109.083, 114.1150
1109.566, 114.9072
1110.048, 115.5833
1110.530, 115.7741
1111.012, 116.0348
1111.494, 116.8593
1111.976, 118.2020
1112.458, 119.3181
1112.940, 120.1939
1113.423, 121.3433
1113.905, 123.1682
1114.387, 125.0755
1114.869, 126.0566
1115.351, 126.8702
1115.833, 128.6593
1116.315, 132.0964
1116.797, 134.9518
1117.280, 137.1450
1117.762, 139.1393
1118.244, 140.9522
1118.726, 142.9545
1119.208, 146.0182
1119.690, 149.8649
1120.172, 153.6886
1120.654, 156.8181
1121.136, 160.5631
1121.619, 165.1995
1122.101, 170.2046
1122.583, 174.7635
1123.065, 179.2327
1123.547, 184.9178
1124.029, 191.8047
1124.511, 198.7480
1124.993, 205.0653
1125.475, 211.4843
1125.958, 218.1364
1126.440, 225.0685
1126.922, 232.4674
1127.404, 240.2622
1127.886, 247.6519
1128.368, 254.3877
1128.850, 261.7608
1129.332, 271.0600
1129.815, 281.0312
1130.297, 291.2704
1130.779, 301.6057
1131.261, 310.9879
1131.743, 319.3696
1132.225, 328.0562
1132.707, 337.8137
1133.189, 347.2159
1133.672, 355.0899
1134.154, 361.9641
1134.636, 368.5917
1135.118, 375.2598
1135.600, 380.1157
1136.082, 383.1923
1136.564, 384.2918
1137.046, 383.0400
1137.528, 380.0794
1138.010, 376.3671
1138.493, 371.6552
1138.975, 365.4714
1139.457, 357.3528
1139.939, 348.1824
1140.421, 337.6598
1140.903, 326.7327
1141.385, 315.8098
1141.867, 304.9351
1142.350, 293.8723
1142.832, 282.7655
1143.314, 271.7613
1143.796, 260.8989
1144.278, 250.3120
1144.760, 239.8887
1145.242, 229.9363
1145.724, 221.0506
1146.207, 213.0975
1146.689, 205.4458
1147.171, 198.1175
1147.653, 191.1227
1148.135, 184.4191
1148.617, 178.4055
1149.099, 173.3150
1149.581, 168.7828
1150.063, 163.9308
1150.546, 158.8984
1151.028, 154.6274
1151.510, 151.3845
1151.992, 148.2210
1152.474, 144.4190
1152.956, 140.5906
1153.438, 137.0321
1153.920, 133.7915
1154.402, 131.1993
1154.885, 129.2484
1155.367, 127.2596
1155.849, 125.0509
1156.331, 122.8557
1156.813, 120.9584
1157.295, 119.1158
1157.777, 117.0607
1158.259, 114.7926
1158.742, 112.6057
1159.224, 110.5065
1159.706, 108.6516
1160.188, 107.1405
1160.670, 105.8485
1161.152, 104.7314
1161.634, 103.7107
1162.116, 102.6679
1162.599, 101.5305
1163.081, 100.6460
1163.563, 100.0772
1164.045, 99.38084
1164.527, 98.15986
1165.009, 96.77332
1165.491, 95.63633
1165.973, 94.68454
1166.455, 93.80775
1166.938, 92.90990
1167.420, 92.26186
1167.902, 91.94946
1168.384, 91.59558
1168.866, 90.83276
1169.348, 89.85945
1169.830, 88.97826
1170.312, 88.17198
1170.794, 87.36302
1171.277, 86.24205
1171.759, 85.69341
1172.241, 86.02364
1172.723, 86.39789
1173.205, 85.76678
1173.687, 84.59282
1174.169, 83.78133
1174.651, 83.33123
1175.134, 82.84666
1175.616, 81.97372
1176.098, 81.39482
1176.580, 81.35403
1177.062, 81.42809
1177.544, 80.82997
1178.026, 79.90056
1178.508, 79.53896
1178.990, 79.83631
1179.473, 80.07475
1179.955, 80.05418
1180.437, 79.80461
1180.919, 79.25348
1181.401, 78.57576
1181.883, 78.13996
1182.365, 77.85539
1182.847, 77.38361
1183.329, 76.62041
1183.812, 76.13466
1184.294, 76.56834
1184.776, 76.89687
1185.258, 76.69444
1185.740, 76.11183
1186.222, 75.43487
1186.704, 74.75699
1187.186, 74.50298
1187.669, 74.90318
1188.151, 75.23305
1188.633, 75.14137
1189.115, 74.85451
1189.597, 74.40645
1190.079, 73.88709
1190.561, 73.78908
1191.043, 74.01963
1191.526, 74.11971
1192.008, 73.87731
1192.490, 73.59628
1192.972, 73.45113
1193.454, 73.28924
1193.936, 72.94991
1194.418, 72.47963
1194.900, 72.42648
1195.382, 72.70986
1195.865, 72.80408
1196.347, 72.34252
1196.829, 71.85517
1197.311, 71.61530
1197.793, 71.44969
1198.275, 71.17589
1198.757, 70.80253
1199.239, 70.74672
1199.721, 70.97337
1200.204, 71.14682
1200.686, 71.10053
1201.168, 70.93788
1201.650, 70.62189
1202.132, 70.27014
1202.614, 70.01337
1203.096, 69.85124
1203.578, 69.64471
1204.061, 69.40444
1204.543, 69.28434
1205.025, 69.51430
1205.507, 69.73894
1205.989, 69.76112
1206.471, 69.66879
1206.953, 69.54946
1207.435, 69.40366
1207.917, 69.39571
1208.400, 69.52308
1208.882, 69.53342
1209.364, 68.99856
1209.846, 68.57609
1210.328, 68.81160
1210.810, 69.31038
1211.292, 69.51380
1211.774, 69.42857
1212.256, 69.18713
1212.739, 68.80236
1213.221, 68.51939
1213.703, 68.62876
1214.185, 68.75634
1214.667, 68.66168
1215.149, 68.45421
1215.631, 68.34428
1216.113, 68.32283
1216.596, 68.19447
1217.078, 67.93033
1217.560, 67.72955
1218.042, 67.80354
1218.524, 67.89583
1219.006, 67.85467
1219.488, 67.73062
1219.970, 67.59505
1220.453, 67.46105
1220.935, 67.53777
1221.417, 67.87822
1221.899, 68.10174
1222.381, 67.79667
1222.863, 67.47511
1223.345, 67.46969
1223.827, 67.63979
1224.309, 67.55238
1224.792, 67.25513
1225.274, 67.15601
1225.756, 67.35040
1226.238, 67.57072
1226.720, 67.59233
1227.202, 67.67242
1227.684, 68.07289
1228.166, 68.56884
1228.648, 68.28214
1229.131, 67.39109
1229.613, 66.90845
1230.095, 67.12876
1230.577, 67.36992
1231.059, 67.19447
1231.541, 67.00906
1232.023, 67.06996
1232.505, 67.25407
1232.988, 67.09624
1233.470, 66.68925
1233.952, 66.41744
1234.434, 66.39112
1234.916, 66.45461
1235.398, 66.60807
1235.880, 66.76108
1236.362, 66.91331
1236.844, 67.01125
1237.327, 66.82777
1237.809, 66.43473
1238.291, 66.03377
1238.773, 65.62475
1239.255, 65.44248
1239.737, 65.69792
1240.219, 66.07402
1240.701, 66.50941
1241.183, 66.91695
1241.666, 67.03718
1242.148, 66.92389
1242.630, 66.69003
1243.112, 66.25937
1243.594, 66.08341
1244.076, 66.47978
1244.558, 66.76494
1245.040, 66.53325
1245.523, 66.02856
1246.005, 65.84326
1246.487, 65.87947
1246.969, 65.89778
1247.451, 65.79561
1247.933, 65.79278
1248.415, 65.93760
1248.897, 66.12021
1249.380, 66.30128
1249.862, 66.46394
1250.344, 66.55104
1250.826, 66.59336
1251.308, 66.65832
1251.790, 66.81258
1252.272, 66.81400
1252.754, 66.57177
1253.236, 66.44701
1253.719, 66.72997
1254.201, 67.14876
1254.683, 67.30456
1255.165, 67.27809
1255.647, 67.17779
1256.129, 66.91121
1256.611, 66.96434
1257.093, 67.40544
1257.575, 67.84224
1258.058, 68.12639
1258.540, 68.19508
1259.022, 67.72118
1259.504, 67.08380
1259.986, 66.95705
1260.468, 67.57157
1260.950, 67.60439
1261.432, 66.98806
1261.915, 66.64011
1262.397, 67.32596
1262.879, 68.16724
1263.361, 68.42949
1263.843, 68.32883
1264.325, 68.13432
1264.807, 67.84447
1265.289, 67.60350
1265.771, 67.41191
1266.254, 67.32735
1266.736, 67.38696
1267.218, 67.55721
1267.700, 68.01299
1268.182, 68.41891
1268.664, 68.35416
1269.146, 67.83281
1269.628, 67.69856
1270.110, 67.91365
1270.593, 68.17464
1271.075, 68.37363
1271.557, 68.52731
1272.039, 68.59962
1272.521, 68.66743
##END=



