##NAMES=Phosphophyllite
##RRUFFID=R050224
##IDEAL CHEMISTRY=Zn^2+^_2_Fe^2+^(P^5+^O_4_)_2_&#183;4H_2_O
##LOCALITY=Unificada mine, Cerro Rico, Potosi, Bolivia
##OWNER=RRUFF
##SOURCE=Marcus Origlieri
##DESCRIPTION=Pale blue single crystal fragments
##STATUS=The identification of this mineral has been confirmed by X-ray diffraction and chemical analysis
##URL=rruff.info/R050224
##MEASURED CHEMISTRY=Zn_2.00_Fe^2+^_1.00_(P_1.00_O_4_)_2_Â·4H_2_O
107.7813, 450.0640
108.2634, 463.4702
108.7455, 477.7465
109.2276, 492.6667
109.7097, 508.2526
110.1918, 524.2865
110.6740, 540.7839
111.1561, 557.7441
111.6382, 574.2969
112.1203, 590.4504
112.6024, 606.0706
113.0845, 619.8387
113.5666, 632.5238
114.0488, 641.9299
114.5309, 647.0245
115.0130, 647.6462
115.4951, 643.9372
115.9772, 635.8024
116.4593, 622.6490
116.9415, 606.2549
117.4236, 586.1331
117.9057, 563.9373
118.3878, 540.1014
118.8699, 514.9819
119.3520, 489.2437
119.8342, 465.0039
120.3163, 442.1009
120.7984, 421.0902
121.2805, 402.1901
121.7626, 385.0916
122.2447, 369.6582
122.7269, 355.8509
123.2090, 343.5457
123.6911, 331.8839
124.1732, 320.6127
124.6553, 310.0052
125.1374, 300.2772
125.6196, 291.3482
126.1017, 282.8934
126.5838, 274.8079
127.0659, 267.0978
127.5480, 259.4662
128.0302, 251.6703
128.5123, 244.1259
128.9944, 237.4503
129.4765, 231.7745
129.9586, 226.2612
130.4407, 220.0208
130.9229, 213.4017
131.4050, 207.1352
131.8871, 201.5477
132.3692, 196.5243
132.8513, 191.8295
133.3334, 187.6488
133.8155, 183.5283
134.2977, 179.0919
134.7798, 174.4856
135.2619, 170.0939
135.7440, 166.2731
136.2261, 163.0601
136.7082, 159.9091
137.1904, 156.6675
137.6725, 153.6098
138.1546, 150.9398
138.6367, 148.6085
139.1188, 146.4179
139.6009, 144.1121
140.0831, 141.5207
140.5652, 139.2410
141.0473, 137.4220
141.5294, 135.7572
142.0115, 134.0679
142.4936, 132.3055
142.9758, 130.5152
143.4579, 128.7852
143.9400, 127.0787
144.4221, 125.5191
144.9042, 124.2340
145.3863, 123.0752
145.8685, 121.8231
146.3506, 120.3754
146.8327, 118.8802
147.3148, 117.7030
147.7969, 116.9260
148.2790, 116.1531
148.7612, 115.1795
149.2433, 114.0712
149.7254, 113.0514
150.2075, 112.1464
150.6896, 111.4548
151.1717, 111.0805
151.6539, 111.1082
152.1360, 111.2438
152.6181, 111.2221
153.1002, 111.0238
153.5823, 110.8748
154.0644, 110.9674
154.5466, 111.1067
155.0287, 111.0907
155.5108, 110.8172
155.9929, 110.5123
156.4750, 110.6276
156.9571, 111.4339
157.4393, 112.0621
157.9214, 112.1188
158.4035, 111.9844
158.8856, 112.0362
159.3677, 112.4633
159.8498, 113.1761
160.3320, 113.8485
160.8141, 114.5005
161.2962, 115.0814
161.7783, 115.5851
162.2604, 116.0167
162.7425, 116.3274
163.2247, 116.4610
163.7068, 116.4647
164.1889, 116.9645
164.6710, 118.4401
165.1531, 119.8675
165.6352, 120.9875
166.1174, 121.8381
166.5995, 122.5098
167.0816, 123.0315
167.5637, 123.4138
168.0458, 124.1032
168.5279, 125.3507
169.0101, 126.6339
169.4922, 127.6162
169.9743, 128.3171
170.4564, 129.0636
170.9385, 130.1889
171.4206, 131.6408
171.9028, 132.7975
172.3849, 133.3791
172.8670, 133.7929
173.3491, 134.4087
173.8312, 135.2563
174.3133, 136.2552
174.7955, 137.4833
175.2776, 138.8334
175.7597, 140.0512
176.2418, 141.1064
176.7239, 141.9677
177.2060, 142.5259
177.6882, 142.6685
178.1703, 142.7197
178.6524, 142.9360
179.1345, 143.2270
179.6166, 143.4012
180.0987, 143.3934
180.5809, 143.1910
181.0630, 142.6990
181.5451, 141.6379
182.0272, 140.6048
182.5093, 139.9538
182.9914, 139.5395
183.4736, 139.0316
183.9557, 138.1821
184.4378, 136.9848
184.9199, 135.6347
185.4020, 133.7282
185.8841, 132.0234
186.3663, 130.8097
186.8484, 130.0311
187.3305, 129.4672
187.8126, 128.9169
188.2947, 128.3679
188.7768, 127.9256
189.2590, 127.5925
189.7411, 127.3502
190.2232, 127.1648
190.7053, 127.0544
191.1874, 127.0772
191.6695, 127.2903
192.1517, 127.7057
192.6338, 128.3463
193.1159, 129.3199
193.5980, 130.3980
194.0801, 131.4387
194.5622, 132.4215
195.0444, 133.4337
195.5265, 134.5926
196.0086, 135.9773
196.4907, 137.1322
196.9728, 138.0888
197.4549, 138.8035
197.9371, 139.2155
198.4192, 139.3133
198.9013, 139.1870
199.3834, 138.9316
199.8655, 138.5506
200.3476, 137.9296
200.8298, 136.8221
201.3119, 135.5371
201.7940, 134.5281
202.2761, 133.9056
202.7582, 133.3933
203.2403, 132.6339
203.7225, 131.6944
204.2046, 130.9480
204.6867, 130.5451
205.1688, 130.4236
205.6509, 130.4511
206.1330, 130.6464
206.6152, 130.9364
207.0973, 131.2487
207.5794, 131.5931
208.0615, 132.0082
208.5436, 132.3933
209.0257, 132.8274
209.5079, 133.7149
209.9900, 135.2503
210.4721, 137.0608
210.9542, 138.9556
211.4363, 140.9139
211.9184, 142.8971
212.4006, 144.9203
212.8827, 146.9743
213.3648, 148.8324
213.8469, 150.1590
214.3290, 151.6291
214.8111, 153.5911
215.2933, 155.9336
215.7754, 158.3384
216.2575, 160.5407
216.7396, 162.5218
217.2217, 164.5902
217.7038, 167.1296
218.1859, 169.4114
218.6681, 171.1707
219.1502, 172.4725
219.6323, 173.5526
220.1144, 174.5867
220.5965, 175.5639
221.0786, 176.6212
221.5608, 178.3705
222.0429, 179.6431
222.5250, 179.8340
223.0071, 179.1216
223.4892, 178.1326
223.9713, 177.4472
224.4535, 177.1689
224.9356, 176.1209
225.4177, 174.0273
225.8998, 171.5873
226.3819, 169.0768
226.8640, 166.4893
227.3462, 163.6794
227.8283, 160.4877
228.3104, 156.8643
228.7925, 153.4396
229.2746, 150.0998
229.7567, 147.0115
230.2389, 144.4790
230.7210, 142.3695
231.2031, 140.1649
231.6852, 137.3959
232.1673, 134.0799
232.6494, 131.1578
233.1316, 128.8588
233.6137, 126.7368
234.0958, 124.4027
234.5779, 121.9293
235.0600, 119.8398
235.5421, 118.5846
236.0243, 118.1173
236.5064, 117.5025
236.9885, 116.7115
237.4706, 115.8075
237.9527, 114.6908
238.4348, 113.4010
238.9170, 112.3403
239.3991, 111.8045
239.8812, 111.7195
240.3633, 111.6800
240.8454, 111.7502
241.3275, 111.7943
241.8097, 111.6076
242.2918, 111.2029
242.7739, 110.9858
243.2560, 111.2443
243.7381, 111.8288
244.2202, 112.4246
244.7024, 113.0128
245.1845, 113.5924
245.6666, 114.1307
246.1487, 114.6224
246.6308, 115.2100
247.1129, 115.9789
247.5951, 116.8768
248.0772, 117.8653
248.5593, 118.9858
249.0414, 120.0792
249.5235, 120.8904
250.0056, 121.3827
250.4878, 122.1049
250.9699, 123.3901
251.4520, 124.9221
251.9341, 126.4470
252.4162, 127.9362
252.8983, 129.3746
253.3805, 130.7153
253.8626, 131.9482
254.3447, 133.2027
254.8268, 134.4852
255.3089, 135.8165
255.7910, 137.2534
256.2732, 138.7954
256.7553, 140.2911
257.2374, 141.5396
257.7195, 142.4946
258.2016, 143.5073
258.6837, 144.9450
259.1659, 146.2173
259.6480, 146.9038
260.1301, 147.0134
260.6122, 146.9900
261.0943, 147.4329
261.5764, 148.5010
262.0586, 148.9502
262.5407, 148.1433
263.0228, 147.1094
263.5049, 146.2449
263.9870, 145.5644
264.4691, 144.9016
264.9513, 144.1337
265.4334, 143.2702
265.9155, 142.1837
266.3976, 140.6916
266.8797, 139.1197
267.3618, 137.5005
267.8440, 135.8885
268.3261, 134.3912
268.8082, 133.1354
269.2903, 132.1337
269.7724, 131.0299
270.2545, 129.7824
270.7367, 128.4635
271.2188, 126.9847
271.7009, 125.4428
272.1830, 124.0335
272.6651, 122.9058
273.1472, 122.0439
273.6294, 121.1420
274.1115, 120.1976
274.5936, 119.2107
275.0757, 118.0727
275.5578, 116.9080
276.0399, 115.9252
276.5221, 115.2628
277.0042, 114.8664
277.4863, 114.4203
277.9684, 113.9580
278.4505, 113.3959
278.9326, 112.6091
279.4148, 111.7426
279.8969, 110.9612
280.3790, 110.3408
280.8611, 109.8851
281.3432, 109.6010
281.8253, 109.5524
282.3075, 109.6253
282.7896, 109.9065
283.2717, 110.2663
283.7538, 110.5347
284.2359, 110.6515
284.7180, 110.7379
285.2002, 111.0512
285.6823, 111.7796
286.1644, 112.4977
286.6465, 113.1385
287.1286, 113.8053
287.6107, 114.5770
288.0929, 115.4801
288.5750, 116.5086
289.0571, 117.6791
289.5392, 119.1119
290.0213, 120.3979
290.5034, 121.2456
290.9856, 122.1490
291.4677, 123.5249
291.9498, 125.3889
292.4319, 127.4243
292.9140, 129.2403
293.3961, 130.7384
293.8783, 132.4587
294.3604, 134.4516
294.8425, 136.5892
295.3246, 138.7840
295.8067, 141.0350
296.2888, 143.3817
296.7710, 145.8570
297.2531, 148.4462
297.7352, 151.2220
298.2173, 154.2066
298.6994, 157.3020
299.1815, 160.4455
299.6637, 163.6547
300.1458, 167.0098
300.6279, 170.5825
301.1100, 174.3475
301.5921, 178.3031
302.0742, 182.4797
302.5564, 186.7512
303.0385, 191.1281
303.5206, 195.5629
304.0027, 199.9955
304.4848, 204.3660
304.9669, 208.7450
305.4491, 213.3958
305.9312, 218.4990
306.4133, 223.6303
306.8954, 228.7282
307.3775, 233.8288
307.8596, 238.9380
308.3418, 244.0460
308.8239, 249.2694
309.3060, 254.7700
309.7881, 260.6302
310.2702, 266.6637
310.7523, 273.0070
311.2345, 279.4657
311.7166, 285.8482
312.1987, 292.0887
312.6808, 298.2543
313.1629, 304.4138
313.6451, 310.5223
314.1272, 316.6535
314.6093, 322.8084
315.0914, 328.9233
315.5735, 335.1398
316.0556, 341.3656
316.5378, 347.1920
317.0199, 352.3002
317.5020, 356.6375
317.9841, 360.9567
318.4662, 365.4559
318.9483, 369.7398
319.4305, 374.1986
319.9126, 378.3754
320.3947, 381.0987
320.8768, 381.5864
321.3589, 380.1542
321.8410, 378.3449
322.3232, 376.5516
322.8053, 373.9981
323.2874, 370.6288
323.7695, 366.3658
324.2516, 360.9770
324.7337, 354.3760
325.2159, 346.8616
325.6980, 339.1369
326.1801, 331.2035
326.6622, 323.0851
327.1443, 314.8355
327.6264, 306.3503
328.1086, 297.4224
328.5907, 288.0410
329.0728, 278.4712
329.5549, 269.0404
330.0370, 259.7079
330.5191, 250.6434
331.0013, 241.8822
331.4834, 233.3822
331.9655, 225.1362
332.4476, 217.1320
332.9297, 209.3255
333.4118, 201.5975
333.8940, 193.9368
334.3761, 186.9385
334.8582, 180.9390
335.3403, 175.1044
335.8224, 168.9007
336.3045, 162.5889
336.7867, 156.7039
337.2688, 151.6080
337.7509, 147.1846
338.2330, 142.9567
338.7151, 139.0559
339.1972, 135.1746
339.6793, 131.1260
340.1614, 127.1058
340.6436, 123.3739
341.1257, 119.9935
341.6078, 116.8840
342.0899, 113.8629
342.5720, 110.8816
343.0541, 108.1112
343.5363, 105.6190
344.0184, 103.2719
344.5005, 100.9507
344.9826, 98.64308
345.4647, 96.43150
345.9468, 94.42515
346.4290, 92.67006
346.9111, 90.86299
347.3932, 88.91796
347.8753, 87.02110
348.3574, 85.19907
348.8395, 83.49390
349.3217, 82.00007
349.8038, 80.81709
350.2859, 79.90325
350.7680, 78.85496
351.2501, 77.54916
351.7322, 76.23499
352.2144, 74.93935
352.6965, 73.66609
353.1786, 72.42662
353.6607, 71.22501
354.1428, 70.05547
354.6249, 68.88356
355.1071, 67.59648
355.5892, 66.51760
356.0713, 65.81873
356.5534, 65.20934
357.0355, 64.47198
357.5176, 63.56445
357.9998, 62.57415
358.4819, 61.57809
358.9640, 60.52125
359.4461, 59.69506
359.9282, 59.30394
360.4103, 58.93050
360.8925, 58.42426
361.3746, 57.78712
361.8567, 57.07613
362.3388, 56.31456
362.8209, 55.51500
363.3030, 54.79798
363.7852, 54.25169
364.2673, 53.68199
364.7494, 53.01159
365.2315, 52.30748
365.7136, 51.65442
366.1957, 51.08923
366.6779, 50.59016
367.1600, 50.11486
367.6421, 49.64497
368.1242, 49.25016
368.6063, 49.01035
369.0884, 48.79417
369.5706, 48.52471
370.0527, 48.18662
370.5348, 47.79916
371.0169, 47.33307
371.4990, 46.77499
371.9811, 46.38691
372.4633, 46.43151
372.9454, 46.37169
373.4275, 45.84813
373.9096, 45.02992
374.3917, 44.32679
374.8738, 44.01251
375.3560, 43.97886
375.8381, 43.92154
376.3202, 43.87614
376.8023, 43.71861
377.2844, 43.26243
377.7665, 42.73274
378.2487, 42.39046
378.7308, 42.33007
379.2129, 42.36671
379.6950, 42.29865
380.1771, 42.12367
380.6592, 41.89016
381.1414, 41.54391
381.6235, 41.20149
382.1056, 40.95298
382.5877, 40.79950
383.0698, 40.70652
383.5519, 40.66138
384.0341, 40.66003
384.5162, 40.70691
384.9983, 40.83382
385.4804, 40.92826
385.9625, 40.85351
386.4446, 40.68301
386.9268, 40.57033
387.4089, 40.58823
387.8910, 40.65698
388.3731, 40.68172
388.8552, 40.66514
389.3373, 40.68079
389.8195, 40.74547
390.3016, 40.88221
390.7837, 41.12765
391.2658, 41.51857
391.7479, 41.90606
392.2300, 42.26213
392.7122, 42.55761
393.1943, 42.69739
393.6764, 42.63178
394.1585, 42.52011
394.6406, 42.55826
395.1227, 42.74909
395.6049, 42.93044
396.0870, 42.97963
396.5691, 43.08202
397.0512, 43.41462
397.5333, 43.97135
398.0154, 44.63668
398.4976, 45.39172
398.9797, 46.17877
399.4618, 46.66506
399.9439, 46.64673
400.4260, 46.62061
400.9081, 46.64556
401.3903, 46.77894
401.8724, 47.17161
402.3545, 47.88206
402.8366, 48.69104
403.3187, 49.21227
403.8008, 49.23595
404.2830, 49.42812
404.7651, 49.84541
405.2472, 50.38020
405.7293, 51.00148
406.2114, 51.67738
406.6935, 52.35449
407.1757, 52.99888
407.6578, 53.60521
408.1399, 54.07801
408.6220, 54.15582
409.1041, 54.39557
409.5862, 55.13964
410.0684, 56.04184
410.5505, 56.62844
411.0326, 56.69176
411.5147, 56.44942
411.9968, 56.32921
412.4789, 56.40173
412.9611, 56.44244
413.4432, 56.55303
413.9253, 56.54479
414.4074, 56.29739
414.8895, 55.81183
415.3716, 55.16018
415.8538, 54.35612
416.3359, 53.41538
416.8180, 52.61443
417.3001, 52.06892
417.7822, 51.50336
418.2643, 50.91156
418.7465, 50.21933
419.2286, 49.29155
419.7107, 48.03772
420.1928, 46.66876
420.6749, 45.49955
421.1570, 44.55540
421.6392, 43.62635
422.1213, 42.67586
422.6034, 41.71627
423.0855, 40.75598
423.5676, 39.79073
424.0497, 38.85201
424.5319, 37.95929
425.0140, 37.10608
425.4961, 36.27745
425.9782, 35.47832
426.4603, 34.68957
426.9424, 33.86165
427.4246, 33.04609
427.9067, 32.35997
428.3888, 31.86468
428.8709, 31.45703
429.3530, 31.09192
429.8351, 30.75772
430.3173, 30.38958
430.7994, 29.94620
431.2815, 29.49377
431.7636, 29.15847
432.2457, 28.95327
432.7278, 28.73752
433.2100, 28.48508
433.6921, 28.20467
434.1742, 27.88343
434.6563, 27.52818
435.1384, 27.21319
435.6205, 27.01124
436.1027, 26.91340
436.5848, 26.75283
437.0669, 26.48884
437.5490, 26.22047
438.0311, 25.90921
438.5132, 25.63192
438.9954, 25.54378
439.4775, 25.69979
439.9596, 25.94248
440.4417, 25.99575
440.9238, 25.77699
441.4059, 25.54618
441.8881, 25.29541
442.3702, 25.04036
442.8523, 24.75778
443.3344, 24.47557
443.8165, 24.26819
444.2986, 24.20382
444.7808, 24.25318
445.2629, 24.23252
445.7450, 24.07845
446.2271, 23.94751
446.7092, 23.88107
447.1913, 23.84260
447.6735, 23.80219
448.1556, 23.75084
448.6377, 23.68795
449.1198, 23.61402
449.6019, 23.52967
450.0840, 23.42291
450.5662, 23.25414
451.0483, 23.11067
451.5304, 23.05043
452.0125, 23.04987
452.4946, 23.05290
452.9767, 23.04852
453.4589, 23.02130
453.9410, 22.91217
454.4231, 22.70945
454.9052, 22.60051
455.3873, 22.72480
455.8694, 22.93146
456.3516, 23.00657
456.8337, 22.93152
457.3158, 22.83123
457.7979, 22.76967
458.2800, 22.72001
458.7621, 22.61860
459.2443, 22.45173
459.7264, 22.30949
460.2085, 22.27189
460.6906, 22.33375
461.1727, 22.38666
461.6548, 22.40885
462.1370, 22.44427
462.6191, 22.51113
463.1012, 22.60569
463.5833, 22.74424
464.0654, 22.93800
464.5475, 23.10480
465.0297, 23.09334
465.5118, 22.77499
465.9939, 22.60082
466.4760, 22.65040
466.9581, 22.76339
467.4402, 22.90178
467.9224, 23.02441
468.4045, 23.03620
468.8866, 22.85279
469.3687, 22.54585
469.8508, 22.45881
470.3329, 22.79414
470.8151, 23.02740
471.2972, 23.01711
471.7793, 22.93614
472.2614, 22.91982
472.7435, 22.99491
473.2256, 23.11318
473.7078, 23.24109
474.1899, 23.37822
474.6720, 23.48544
475.1541, 23.56458
475.6362, 23.60774
476.1183, 23.57001
476.6005, 23.50828
477.0826, 23.51506
477.5647, 23.63236
478.0468, 23.79643
478.5289, 23.94187
479.0110, 24.07083
479.4932, 24.22358
479.9753, 24.43753
480.4574, 24.63319
480.9395, 24.69687
481.4216, 24.64317
481.9037, 24.60148
482.3859, 24.54520
482.8680, 24.55773
483.3501, 24.76193
483.8322, 25.13297
484.3143, 25.50734
484.7964, 25.80992
485.2786, 26.03968
485.7607, 26.18883
486.2428, 26.24633
486.7249, 26.25287
487.2070, 26.13065
487.6891, 26.01026
488.1713, 25.99540
488.6534, 26.10827
489.1355, 26.35672
489.6176, 26.77138
490.0997, 27.34682
490.5818, 27.76156
491.0640, 27.83994
491.5461, 27.94736
492.0282, 28.13361
492.5103, 28.38191
492.9924, 28.71097
493.4745, 29.11437
493.9567, 29.46674
494.4388, 29.56413
494.9209, 29.37362
495.4030, 29.29790
495.8851, 29.38886
496.3672, 29.56186
496.8494, 29.82914
497.3315, 30.13243
497.8136, 30.36384
498.2957, 30.48050
498.7778, 30.50851
499.2599, 30.41731
499.7421, 30.21952
500.2242, 30.18279
500.7063, 30.47362
501.1884, 30.83035
501.6705, 30.92505
502.1526, 30.77480
502.6348, 30.56711
503.1169, 30.25684
503.5990, 29.97447
504.0811, 29.90372
504.5632, 30.00432
505.0453, 30.01112
505.5274, 29.75620
506.0096, 29.34916
506.4917, 29.12109
506.9738, 29.26023
507.4559, 29.26832
507.9380, 28.95523
508.4201, 28.61068
508.9023, 28.51763
509.3844, 28.66023
509.8665, 28.80341
510.3486, 28.75769
510.8307, 28.53949
511.3128, 28.28683
511.7950, 27.92682
512.2771, 27.64427
512.7592, 27.55358
513.2413, 27.49625
513.7234, 27.28506
514.2056, 26.90043
514.6877, 26.55303
515.1698, 26.51024
515.6519, 26.72504
516.1340, 26.76493
516.6161, 26.56153
517.0983, 26.30009
517.5804, 26.06606
518.0625, 25.84697
518.5446, 25.61696
519.0267, 25.35710
519.5089, 25.12386
519.9910, 24.92877
520.4731, 24.79243
520.9552, 24.81056
521.4373, 25.03078
521.9194, 25.25128
522.4016, 25.26584
522.8837, 25.06184
523.3658, 24.87449
523.8479, 24.64927
524.3300, 24.49766
524.8121, 24.53891
525.2943, 24.67335
525.7764, 24.70502
526.2585, 24.56580
526.7406, 24.39026
527.2227, 24.41257
527.7048, 24.75174
528.1870, 24.85918
528.6691, 24.46820
529.1512, 24.13194
529.6333, 24.10653
530.1154, 24.28041
530.5975, 24.43082
531.0797, 24.44979
531.5618, 24.41924
532.0439, 24.50192
532.5260, 24.72355
533.0081, 24.84108
533.4902, 24.68308
533.9724, 24.56467
534.4545, 24.78322
534.9366, 25.24329
535.4187, 25.58089
535.9008, 25.59396
536.3829, 25.47036
536.8651, 25.36561
537.3472, 25.29129
537.8293, 25.35037
538.3114, 25.61423
538.7935, 25.95605
539.2756, 26.16951
539.7578, 26.23087
540.2399, 26.30344
540.7220, 26.40488
541.2041, 26.51947
541.6862, 26.60586
542.1683, 26.69500
542.6505, 26.89185
543.1326, 27.26146
543.6147, 27.70263
544.0968, 27.95278
544.5789, 27.85476
545.0610, 27.88677
545.5432, 28.16303
546.0253, 28.46546
546.5074, 28.61395
546.9895, 28.68017
547.4716, 28.89965
547.9537, 29.46628
548.4359, 30.18176
548.9180, 30.57841
549.4001, 30.60455
549.8822, 30.67515
550.3643, 30.88729
550.8464, 31.20516
551.3286, 31.58314
551.8107, 32.01918
552.2928, 32.51396
552.7749, 33.14507
553.2570, 33.77902
553.7391, 34.23507
554.2213, 34.54137
554.7034, 34.89072
555.1855, 35.38401
555.6676, 35.94220
556.1497, 36.39487
556.6318, 36.61010
557.1140, 37.03393
557.5961, 37.79272
558.0782, 38.66195
558.5603, 39.54736
559.0424, 40.41852
559.5245, 41.24384
560.0067, 42.01123
560.4888, 42.70926
560.9709, 43.25509
561.4530, 43.47624
561.9351, 44.02794
562.4172, 45.28901
562.8994, 46.64605
563.3815, 47.82371
563.8636, 48.83103
564.3457, 49.74681
564.8278, 50.55627
565.3099, 51.35762
565.7921, 52.28520
566.2742, 53.33708
566.7563, 54.47420
567.2384, 55.69646
567.7205, 56.98032
568.2026, 58.33485
568.6848, 59.76218
569.1669, 61.08900
569.6490, 62.29387
570.1311, 63.38357
570.6132, 64.31303
571.0953, 65.13911
571.5775, 65.98547
572.0596, 66.89790
572.5417, 67.91830
573.0238, 69.14221
573.5059, 70.72366
573.9880, 72.04245
574.4702, 73.04472
574.9523, 73.85429
575.4344, 74.32188
575.9165, 74.67531
576.3986, 75.31013
576.8807, 76.42006
577.3629, 77.69311
577.8450, 78.68105
578.3271, 79.38750
578.8092, 80.11879
579.2913, 80.93929
579.7734, 81.75256
580.2556, 82.41724
580.7377, 83.01260
581.2198, 83.76655
581.7019, 84.80029
582.1840, 85.89524
582.6661, 86.93515
583.1483, 87.93758
583.6304, 88.97449
584.1125, 90.06360
584.5946, 91.08965
585.0767, 91.95040
585.5588, 92.64433
586.0409, 93.14671
586.5230, 93.40849
587.0051, 93.55704
587.4872, 93.51771
587.9694, 93.43285
588.4515, 93.47487
588.9336, 93.66854
589.4157, 93.87570
589.8978, 93.97348
590.3799, 93.96288
590.8621, 93.86661
591.3442, 93.71183
591.8263, 93.40256
592.3084, 92.92161
592.7905, 92.24340
593.2726, 91.25900
593.7548, 89.91314
594.2369, 88.63137
594.7190, 87.81396
595.2011, 87.09793
595.6832, 85.91635
596.1653, 84.27952
596.6475, 82.62249
597.1296, 81.20972
597.6117, 79.97683
598.0938, 78.74624
598.5759, 77.65853
599.0580, 76.33681
599.5402, 74.56608
600.0223, 72.75304
600.5044, 71.13658
600.9865, 69.71248
601.4686, 68.39507
601.9507, 67.15785
602.4329, 65.93134
602.9150, 64.54173
603.3971, 62.94310
603.8792, 61.46484
604.3613, 60.23328
604.8434, 59.05267
605.3256, 57.72842
605.8077, 56.32737
606.2898, 55.06765
606.7719, 54.08271
607.2540, 53.15943
607.7361, 52.09178
608.2183, 50.95023
608.7004, 49.94278
609.1825, 49.12870
609.6646, 48.37317
610.1467, 47.52991
610.6288, 46.59132
611.1110, 45.75047
611.5931, 45.07170
612.0752, 44.40231
612.5573, 43.71754
613.0394, 43.02308
613.5215, 42.30440
614.0037, 41.57016
614.4858, 40.88625
614.9679, 40.28978
615.4500, 39.78892
615.9321, 39.46899
616.4142, 39.40880
616.8964, 39.25675
617.3785, 38.78028
617.8606, 38.20463
618.3427, 37.80031
618.8248, 37.58182
619.3069, 37.39500
619.7891, 37.18672
620.2712, 36.97992
620.7533, 36.81788
621.2354, 36.68235
621.7175, 36.48152
622.1996, 36.16504
622.6818, 35.81799
623.1639, 35.60830
623.6460, 35.59948
624.1281, 35.54481
624.6102, 35.38424
625.0923, 35.24578
625.5745, 35.22911
626.0566, 35.25415
626.5387, 35.15556
627.0208, 34.86671
627.5029, 34.60196
627.9850, 34.67010
628.4672, 35.01355
628.9493, 35.23327
629.4314, 35.28568
629.9135, 35.24663
630.3956, 35.12413
630.8777, 34.95199
631.3599, 34.83426
631.8420, 34.82081
632.3241, 34.75079
632.8062, 34.56389
633.2883, 34.30373
633.7704, 34.01374
634.2526, 33.69484
634.7347, 33.31341
635.2168, 32.83760
635.6989, 32.31785
636.1810, 31.89560
636.6631, 31.58650
637.1453, 31.34019
637.6274, 31.20955
638.1095, 31.08910
638.5916, 30.97409
639.0737, 30.82608
639.5558, 30.55749
640.0380, 30.10798
640.5201, 29.58805
641.0022, 29.03753
641.4843, 28.50227
641.9664, 28.17660
642.4485, 28.11618
642.9307, 28.09014
643.4128, 27.91235
643.8949, 27.59607
644.3770, 27.25753
644.8591, 26.86799
645.3412, 26.49726
645.8234, 26.15118
646.3055, 25.83267
646.7876, 25.56426
647.2697, 25.33162
647.7518, 25.08338
648.2339, 24.78284
648.7161, 24.44516
649.1982, 24.10079
649.6803, 23.74804
650.1624, 23.40188
650.6445, 23.02488
651.1266, 22.70708
651.6088, 22.56751
652.0909, 22.55940
652.5730, 22.49931
653.0551, 22.32016
653.5372, 22.10825
654.0193, 21.91010
654.5015, 21.71491
654.9836, 21.48981
655.4657, 21.23356
655.9478, 21.00408
656.4299, 20.86678
656.9120, 20.80616
657.3942, 20.65616
657.8763, 20.27256
658.3584, 20.04621
658.8405, 20.11349
659.3226, 20.27619
659.8047, 20.44769
660.2869, 20.58908
660.7690, 20.60788
661.2511, 20.37115
661.7332, 20.07560
662.2153, 20.02990
662.6974, 20.18282
663.1796, 20.24097
663.6617, 20.12162
664.1438, 19.89924
664.6259, 19.62323
665.1080, 19.29292
665.5901, 19.07343
666.0723, 19.02431
666.5544, 18.99665
667.0365, 18.96436
667.5186, 18.93099
668.0007, 18.91280
668.4828, 18.90342
668.9650, 18.86510
669.4471, 18.75791
669.9292, 18.61138
670.4113, 18.50716
670.8934, 18.44654
671.3755, 18.41923
671.8577, 18.44231
672.3398, 18.47239
672.8219, 18.43687
673.3040, 18.35550
673.7861, 18.35746
674.2682, 18.58165
674.7504, 18.76037
675.2325, 18.73285
675.7146, 18.58951
676.1967, 18.44053
676.6788, 18.31830
677.1609, 18.23045
677.6431, 18.18249
678.1252, 18.17670
678.6073, 18.25444
679.0894, 18.52114
679.5715, 18.60715
680.0536, 18.23005
680.5358, 17.81980
681.0179, 17.66825
681.5000, 17.74315
681.9821, 17.85379
682.4642, 18.00490
682.9464, 18.08249
683.4285, 17.92648
683.9106, 17.63757
684.3927, 17.43625
684.8748, 17.37242
685.3569, 17.38378
685.8391, 17.41932
686.3212, 17.47894
686.8033, 17.56498
687.2854, 17.74214
687.7675, 17.83950
688.2496, 17.79135
688.7318, 17.70720
689.2139, 17.64122
689.6960, 17.60445
690.1781, 17.60578
690.6602, 17.65736
691.1423, 17.73378
691.6245, 17.82658
692.1066, 17.92132
692.5887, 17.94946
693.0708, 17.89171
693.5529, 17.83351
694.0350, 17.84914
694.5172, 17.92372
694.9993, 17.96388
695.4814, 17.99426
695.9635, 17.95520
696.4456, 17.79168
696.9277, 17.60122
697.4099, 17.38434
697.8920, 17.20150
698.3741, 17.20596
698.8562, 17.51060
699.3383, 17.89190
699.8204, 18.01463
700.3026, 17.91241
700.7847, 17.84511
701.2668, 17.86064
701.7489, 17.84957
702.2310, 17.70243
702.7131, 17.47848
703.1953, 17.40091
703.6774, 17.54524
704.1595, 17.66870
704.6416, 17.74234
705.1237, 17.78201
705.6058, 17.77930
706.0880, 17.75416
706.5701, 17.74928
707.0522, 17.78545
707.5343, 17.83063
708.0164, 17.81811
708.4985, 17.75638
708.9807, 17.79668
709.4628, 17.99417
709.9449, 18.13744
710.4270, 18.08347
710.9091, 17.91381
711.3912, 17.79829
711.8734, 17.74315
712.3555, 17.71010
712.8376, 17.65161
713.3197, 17.64987
713.8018, 17.81766
714.2839, 18.07269
714.7661, 18.23961
715.2482, 18.25818
715.7303, 18.24298
716.2124, 18.37690
716.6945, 18.63864
717.1766, 18.66526
717.6588, 18.36116
718.1409, 18.14266
718.6230, 18.26329
719.1051, 18.47903
719.5872, 18.43708
720.0693, 18.12919
720.5515, 17.89084
721.0336, 17.82244
721.5157, 17.80918
721.9978, 17.77534
722.4799, 17.75409
722.9620, 17.84346
723.4442, 18.04542
723.9263, 18.19353
724.4084, 18.10534
724.8905, 17.83962
725.3726, 17.69986
725.8547, 17.70590
726.3369, 17.76310
726.8190, 17.88288
727.3011, 18.00741
727.7832, 18.07906
728.2653, 18.10765
728.7474, 18.13580
729.2296, 18.20743
729.7117, 18.23707
730.1938, 18.14987
730.6759, 18.02064
731.1580, 17.91641
731.6401, 17.86005
732.1223, 17.89150
732.6044, 18.05184
733.0865, 18.26897
733.5686, 18.35791
734.0507, 18.30306
734.5328, 18.21991
735.0150, 18.07780
735.4971, 17.98175
735.9792, 18.06416
736.4613, 18.22933
736.9434, 18.27450
737.4255, 18.12421
737.9077, 18.00974
738.3898, 18.03922
738.8719, 18.11193
739.3540, 18.15169
739.8361, 18.15487
740.3182, 18.13331
740.8004, 18.09246
741.2825, 18.04743
741.7646, 18.02117
742.2467, 18.01375
742.7288, 18.00277
743.2109, 17.98014
743.6931, 17.98012
744.1752, 18.04702
744.6573, 18.12174
745.1394, 18.10620
745.6215, 17.99273
746.1036, 17.92309
746.5858, 17.98444
747.0679, 18.03370
747.5500, 17.91728
748.0321, 17.76748
748.5142, 17.84587
748.9963, 18.16782
749.4785, 18.42023
749.9606, 18.28590
750.4427, 17.90845
750.9248, 17.80615
751.4069, 18.01695
751.8890, 18.15638
752.3712, 18.12119
752.8533, 18.01947
753.3354, 17.91981
753.8175, 17.83056
754.2996, 17.79444
754.7817, 17.87092
755.2639, 17.91766
755.7460, 17.88006
756.2281, 17.81532
756.7102, 17.74662
757.1923, 17.69583
757.6744, 17.71363
758.1566, 17.83089
758.6387, 17.96893
759.1208, 18.00024
759.6029, 17.94149
760.0850, 17.91852
760.5671, 17.94084
761.0493, 18.00219
761.5314, 18.12869
762.0135, 18.26159
762.4956, 18.27388
762.9777, 18.11366
763.4598, 18.01754
763.9420, 18.05357
764.4241, 18.08375
764.9062, 18.00338
765.3883, 17.90795
765.8704, 17.95563
766.3525, 18.15408
766.8347, 18.31939
767.3168, 18.30132
767.7989, 18.16275
768.2810, 17.97494
768.7631, 17.75549
769.2452, 17.66340
769.7274, 17.75250
770.2095, 17.88909
770.6916, 17.95810
771.1737, 17.96219
771.6558, 17.92025
772.1379, 17.73605
772.6201, 17.65023
773.1022, 17.76052
773.5843, 17.89025
774.0664, 17.94559
774.5485, 17.93398
775.0306, 17.88728
775.5128, 17.81209
775.9949, 17.72590
776.4770, 17.61123
776.9591, 17.50864
777.4412, 17.52223
777.9233, 17.63536
778.4055, 17.69457
778.8876, 17.62478
779.3697, 17.50957
779.8518, 17.49317
780.3339, 17.59926
780.8160, 17.57206
781.2982, 17.25466
781.7803, 17.06159
782.2624, 17.21905
782.7445, 17.47181
783.2266, 17.61345
783.7087, 17.63759
784.1909, 17.61724
784.6730, 17.53609
785.1551, 17.46109
785.6372, 17.44864
786.1193, 17.46380
786.6014, 17.45890
787.0836, 17.42578
787.5657, 17.36605
788.0478, 17.27395
788.5299, 17.18608
789.0120, 17.20078
789.4941, 17.32897
789.9763, 17.44164
790.4584, 17.56227
790.9405, 17.57705
791.4226, 17.33489
791.9047, 16.98583
792.3868, 16.85834
792.8690, 17.01703
793.3511, 17.11605
793.8332, 17.03859
794.3153, 16.96026
794.7974, 16.99150
795.2795, 17.07431
795.7617, 17.13903
796.2438, 17.16012
796.7259, 17.10648
797.2080, 16.89475
797.6901, 16.64202
798.1722, 16.62315
798.6544, 16.80941
799.1365, 16.96513
799.6186, 17.04457
800.1007, 17.01762
800.5828, 16.81376
801.0649, 16.50254
801.5471, 16.43684
802.0292, 16.87272
802.5113, 17.11836
802.9934, 17.00675
803.4755, 16.87453
803.9576, 16.91812
804.4398, 17.04010
804.9219, 17.05268
805.4040, 16.90275
805.8861, 16.76414
806.3682, 16.74553
806.8503, 16.79250
807.3325, 16.86100
807.8146, 16.93953
808.2967, 17.01817
808.7788, 17.09061
809.2609, 17.11180
809.7430, 17.01647
810.2252, 16.83690
810.7073, 16.78681
811.1894, 16.90707
811.6715, 16.99522
812.1536, 17.01504
812.6357, 16.98999
813.1179, 16.91057
813.6000, 16.80100
814.0821, 16.73821
814.5642, 16.76201
815.0463, 16.75849
815.5284, 16.61849
816.0106, 16.51873
816.4927, 16.66473
816.9748, 16.92635
817.4569, 17.02523
817.9390, 16.87643
818.4211, 16.67833
818.9033, 16.60141
819.3854, 16.62350
819.8675, 16.75228
820.3496, 16.96433
820.8317, 16.97227
821.3138, 16.65862
821.7960, 16.36053
822.2781, 16.45063
822.7602, 16.86342
823.2423, 17.01617
823.7244, 16.75144
824.2065, 16.51385
824.6887, 16.26072
825.1708, 16.12313
825.6529, 16.25878
826.1350, 16.53787
826.6171, 16.70907
827.0992, 16.70764
827.5814, 16.67023
828.0635, 16.58950
828.5456, 16.56503
829.0277, 16.74928
829.5098, 17.05490
829.9919, 17.30059
830.4741, 17.42441
830.9562, 17.42749
831.4383, 17.27205
831.9204, 17.02812
832.4025, 16.95986
832.8846, 17.07873
833.3668, 17.16948
833.8489, 17.18319
834.3310, 17.17872
834.8131, 17.21986
835.2952, 17.27497
835.7773, 17.21217
836.2595, 16.86515
836.7416, 16.69611
837.2237, 16.85232
837.7058, 17.03278
838.1879, 17.10240
838.6700, 17.10588
839.1522, 17.11425
839.6343, 17.14244
840.1164, 17.17051
840.5985, 17.19555
841.0806, 17.20731
841.5627, 17.18478
842.0449, 17.14268
842.5270, 17.10138
843.0091, 17.07150
843.4912, 17.09302
843.9733, 17.20504
844.4554, 17.36194
844.9376, 17.44013
845.4197, 17.43180
845.9018, 17.42356
846.3839, 17.42306
846.8660, 17.42002
847.3481, 17.40101
847.8303, 17.38194
848.3124, 17.39407
848.7945, 17.44239
849.2766, 17.49405
849.7587, 17.61002
850.2408, 17.65289
850.7230, 17.51770
851.2051, 17.32903
851.6872, 17.19172
852.1693, 17.12275
852.6514, 17.11021
853.1335, 17.15633
853.6157, 17.23911
854.0978, 17.35612
854.5799, 17.48780
855.0620, 17.61542
855.5441, 17.72597
856.0262, 17.76918
856.5084, 17.71899
856.9905, 17.62653
857.4726, 17.55924
857.9547, 17.51754
858.4368, 17.54569
858.9189, 17.67644
859.4011, 17.73941
859.8832, 17.63999
860.3653, 17.52228
860.8474, 17.53544
861.3295, 17.66422
861.8116, 17.76342
862.2938, 17.83030
862.7759, 17.87198
863.2580, 17.83607
863.7401, 17.82725
864.2222, 17.96129
864.7043, 18.15274
865.1865, 18.23459
865.6686, 18.16274
866.1507, 18.07644
866.6328, 18.04989
867.1149, 18.07350
867.5970, 18.18009
868.0792, 18.32039
868.5613, 18.34393
869.0434, 18.23519
869.5255, 18.16633
870.0076, 18.28389
870.4897, 18.51010
870.9719, 18.63924
871.4540, 18.66638
871.9361, 18.70793
872.4182, 18.77697
872.9003, 18.85256
873.3824, 18.93045
873.8646, 19.00042
874.3467, 19.03608
874.8288, 19.01932
875.3109, 19.06652
875.7930, 19.24778
876.2751, 19.39657
876.7573, 19.50818
877.2394, 19.54687
877.7215, 19.38930
878.2036, 19.12980
878.6857, 19.07902
879.1678, 19.40619
879.6500, 19.78570
880.1321, 20.04007
880.6142, 20.22779
881.0963, 20.44572
881.5784, 20.65267
882.0605, 20.69125
882.5427, 20.52402
883.0248, 20.36361
883.5069, 20.42854
883.9890, 20.66475
884.4711, 20.94692
884.9532, 21.26928
885.4354, 21.52813
885.9175, 21.70555
886.3996, 21.78287
886.8817, 21.71249
887.3638, 21.57788
887.8459, 21.62430
888.3281, 21.91710
888.8102, 22.19148
889.2923, 22.45993
889.7744, 22.69174
890.2565, 22.85461
890.7386, 22.99113
891.2208, 23.12811
891.7029, 23.27079
892.1850, 23.46063
892.6671, 23.75598
893.1492, 24.03491
893.6313, 24.18399
894.1135, 24.35576
894.5956, 24.79423
895.0777, 25.35838
895.5598, 25.66143
896.0419, 25.55600
896.5240, 25.39146
897.0062, 25.46247
897.4883, 25.68621
897.9704, 25.97406
898.4525, 26.29441
898.9346, 26.56015
899.4167, 26.74800
899.8989, 26.87588
900.3810, 26.93868
900.8631, 27.00753
901.3452, 27.33252
901.8273, 27.94804
902.3094, 28.36394
902.7916, 28.46442
903.2737, 28.64927
903.7558, 29.16507
904.2379, 29.79699
904.7200, 30.21395
905.2021, 30.38976
905.6843, 30.61036
906.1664, 30.91585
906.6485, 31.21397
907.1306, 31.37928
907.6127, 31.63489
908.0948, 32.21870
908.5770, 33.00106
909.0591, 33.66026
909.5412, 34.10208
910.0233, 34.51236
910.5054, 34.91748
910.9875, 35.37158
911.4697, 35.90824
911.9518, 36.52753
912.4339, 37.22738
912.9160, 38.00510
913.3981, 38.87147
913.8802, 39.85978
914.3624, 40.87086
914.8445, 41.69115
915.3265, 42.43010
915.8087, 43.40527
916.2908, 44.64002
916.7729, 46.04039
917.2550, 47.57561
917.7371, 49.10524
918.2192, 50.37424
918.7014, 51.44180
919.1835, 53.01437
919.6656, 55.18951
920.1477, 57.38860
920.6298, 59.52494
921.1119, 61.62020
921.5941, 63.61692
922.0762, 65.62751
922.5583, 67.96616
923.0404, 70.71806
923.5225, 73.61282
924.0046, 76.80385
924.4868, 79.94386
924.9689, 82.79781
925.4510, 85.64823
925.9331, 88.73593
926.4152, 92.07669
926.8973, 95.58939
927.3795, 99.34884
927.8616, 103.1369
928.3437, 106.7207
928.8258, 110.3748
929.3079, 114.3668
929.7900, 118.5928
930.2722, 122.8491
930.7543, 127.0691
931.2364, 131.4800
931.7185, 136.5105
932.2006, 141.6181
932.6827, 146.0345
933.1649, 149.9794
933.6470, 153.9913
934.1291, 158.1550
934.6112, 162.4168
935.0933, 166.7918
935.5754, 170.6749
936.0576, 173.2116
936.5397, 174.4030
937.0218, 174.1822
937.5039, 172.5285
937.9860, 169.8225
938.4681, 166.1228
938.9503, 161.7009
939.4324, 156.8860
939.9145, 151.5146
940.3966, 144.8503
940.8787, 136.2451
941.3608, 128.0768
941.8430, 120.3724
942.3251, 113.0708
942.8072, 106.0381
943.2893, 99.44180
943.7714, 93.49673
944.2535, 88.19365
944.7357, 83.13486
945.2178, 78.05379
945.6999, 73.53175
946.1820, 69.89046
946.6641, 66.66467
947.1462, 63.59400
947.6284, 60.70406
948.1105, 58.08187
948.5926, 55.75648
949.0747, 53.76679
949.5568, 52.33471
950.0389, 51.03112
950.5211, 49.48981
951.0032, 47.91658
951.4853, 46.55029
951.9674, 45.42754
952.4495, 44.54191
952.9316, 43.89940
953.4138, 43.39482
953.8959, 42.91789
954.3780, 42.50607
954.8601, 42.25879
955.3422, 42.14211
955.8243, 41.99996
956.3065, 41.80553
956.7886, 41.72252
957.2707, 41.89605
957.7528, 42.16767
958.2349, 42.14400
958.7170, 41.85023
959.1992, 41.76826
959.6813, 41.92638
960.1634, 42.25048
960.6455, 42.74896
961.1276, 43.25570
961.6097, 43.56683
962.0919, 43.73035
962.5740, 44.04063
963.0561, 44.46759
963.5382, 45.15290
964.0203, 46.27599
964.5024, 47.36087
964.9846, 48.10572
965.4667, 48.73698
965.9488, 49.57241
966.4309, 50.62168
966.9130, 51.74868
967.3951, 53.00657
967.8773, 54.26298
968.3594, 55.36117
968.8415, 56.59303
969.3236, 58.14167
969.8057, 59.95256
970.2878, 61.93280
970.7700, 64.05988
971.2521, 66.36703
971.7342, 68.86155
972.2163, 71.54627
972.6984, 74.45731
973.1805, 77.51767
973.6627, 80.51733
974.1448, 83.62357
974.6269, 87.28496
975.1090, 91.67988
975.5911, 96.48093
976.0732, 101.3602
976.5554, 106.6058
977.0375, 112.4140
977.5196, 118.8349
978.0017, 125.9751
978.4838, 133.7870
978.9659, 142.1811
979.4481, 151.0754
979.9302, 160.5711
980.4123, 170.9517
980.8944, 182.0637
981.3765, 193.3979
981.8586, 205.0753
982.3408, 217.3705
982.8229, 230.3364
983.3050, 243.7984
983.7871, 257.5305
984.2692, 271.6508
984.7513, 286.2878
985.2335, 301.4397
985.7156, 316.8972
986.1977, 332.6626
986.6798, 349.5479
987.1619, 367.8168
987.6440, 387.6000
988.1262, 409.1918
988.6083, 432.2464
989.0904, 455.3217
989.5725, 478.0737
990.0546, 501.8940
990.5367, 527.2650
991.0189, 552.8602
991.5010, 579.1656
991.9831, 604.3786
992.4652, 626.7545
992.9473, 646.1906
993.4294, 662.1315
993.9116, 676.5808
994.3937, 683.8947
994.8758, 684.2852
995.3579, 676.6979
995.8400, 659.1131
996.3221, 634.1209
996.8043, 604.3404
997.2864, 569.7768
997.7685, 533.4839
998.2506, 493.5757
998.7327, 454.6998
999.2148, 417.2645
999.6970, 381.8732
1000.179, 348.7554
1000.661, 318.0475
1001.143, 289.9523
1001.625, 264.6096
1002.108, 241.3878
1002.590, 220.4610
1003.072, 201.2932
1003.554, 183.7392
1004.036, 168.0129
1004.518, 154.5526
1005.000, 142.9707
1005.482, 132.3781
1005.964, 122.5615
1006.447, 113.6360
1006.929, 105.7743
1007.411, 98.72944
1007.893, 92.35605
1008.375, 86.61229
1008.857, 81.55626
1009.339, 77.06581
1009.821, 72.73247
1010.304, 68.38276
1010.786, 64.50227
1011.268, 61.65638
1011.750, 59.35205
1012.232, 57.02695
1012.714, 54.71446
1013.196, 52.49328
1013.678, 50.37025
1014.160, 48.27421
1014.643, 46.16140
1015.125, 44.18846
1015.607, 42.55762
1016.089, 41.17126
1016.571, 39.84027
1017.053, 38.55646
1017.535, 37.27360
1018.017, 35.99160
1018.500, 34.80459
1018.982, 33.76280
1019.464, 32.84453
1019.946, 32.03955
1020.428, 31.32010
1020.910, 30.57467
1021.392, 29.80946
1021.874, 29.11624
1022.356, 28.51144
1022.839, 27.97122
1023.321, 27.48785
1023.803, 27.01081
1024.285, 26.43374
1024.767, 25.76903
1025.249, 25.18673
1025.731, 24.68710
1026.213, 24.30204
1026.696, 24.05045
1027.178, 23.84097
1027.660, 23.62408
1028.142, 23.37432
1028.624, 23.02288
1029.106, 22.56133
1029.588, 22.21262
1030.070, 22.01080
1030.552, 21.74453
1031.035, 21.34130
1031.517, 20.94468
1031.999, 20.64577
1032.481, 20.43230
1032.963, 20.28903
1033.445, 20.22838
1033.927, 20.12600
1034.409, 19.95342
1034.891, 19.81633
1035.374, 19.76425
1035.856, 19.70290
1036.338, 19.54970
1036.820, 19.35504
1037.302, 19.23184
1037.784, 19.18631
1038.266, 19.18263
1038.748, 19.28351
1039.231, 19.31014
1039.713, 19.18131
1040.195, 19.02776
1040.677, 18.94506
1041.159, 18.89553
1041.641, 18.77465
1042.123, 18.53281
1042.605, 18.45617
1043.088, 18.71578
1043.570, 18.89686
1044.052, 18.82022
1044.534, 18.76103
1045.016, 18.94911
1045.498, 19.25547
1045.980, 19.41529
1046.462, 19.39292
1046.944, 19.40866
1047.427, 19.43987
1047.909, 19.56409
1048.391, 19.90729
1048.873, 20.23836
1049.355, 20.37394
1049.837, 20.40399
1050.319, 20.48390
1050.801, 20.62321
1051.283, 20.86094
1051.766, 21.27117
1052.248, 21.68615
1052.730, 22.05322
1053.212, 22.42188
1053.694, 22.83334
1054.176, 23.27057
1054.658, 23.70930
1055.140, 24.14816
1055.623, 24.56431
1056.105, 24.81505
1056.587, 25.23631
1057.069, 26.07065
1057.551, 26.96702
1058.033, 27.68213
1058.515, 28.29540
1058.997, 28.89565
1059.479, 29.50896
1059.962, 30.33698
1060.444, 31.64985
1060.926, 32.89295
1061.408, 33.72748
1061.890, 34.57195
1062.372, 35.74294
1062.854, 37.09766
1063.336, 38.41015
1063.818, 39.65364
1064.301, 40.90485
1064.783, 42.20044
1065.265, 43.48564
1065.747, 44.68586
1066.229, 45.94054
1066.711, 47.44190
1067.193, 49.00966
1067.675, 50.40681
1068.158, 51.61200
1068.640, 52.70694
1069.122, 53.73175
1069.604, 54.61232
1070.086, 55.34959
1070.568, 55.89667
1071.050, 56.29051
1071.532, 56.42267
1072.015, 56.12629
1072.497, 55.42632
1072.979, 54.51705
1073.461, 53.47229
1073.943, 52.17738
1074.425, 50.37344
1074.907, 48.53183
1075.389, 47.07586
1075.871, 45.69695
1076.354, 43.97571
1076.836, 41.97682
1077.318, 40.02707
1077.800, 38.21449
1078.282, 36.54827
1078.764, 35.12029
1079.246, 33.74050
1079.728, 32.20538
1080.210, 30.71882
1080.693, 29.50763
1081.175, 28.52474
1081.657, 27.61176
1082.139, 26.72196
1082.621, 25.85995
1083.103, 24.93892
1083.585, 24.14880
1084.067, 23.65875
1084.549, 23.28642
1085.032, 22.94764
1085.514, 22.55886
1085.996, 21.94643
1086.478, 21.08059
1086.960, 20.30442
1087.442, 19.78238
1087.924, 19.36195
1088.406, 18.99325
1088.889, 18.67834
1089.371, 18.42314
1089.853, 18.22072
1090.335, 18.10188
1090.817, 18.04843
1091.299, 17.87155
1091.781, 17.39695
1092.263, 16.96670
1092.745, 16.70908
1093.228, 16.55790
1093.710, 16.54511
1094.192, 16.56393
1094.674, 16.47435
1095.156, 16.27809
1095.638, 16.07904
1096.120, 15.90147
1096.602, 15.73834
1097.084, 15.54963
1097.567, 15.42043
1098.049, 15.46822
1098.531, 15.54792
1099.013, 15.49591
1099.495, 15.33604
1099.977, 15.18095
1100.459, 15.03639
1100.941, 14.98075
1101.424, 15.14999
1101.906, 15.26590
1102.388, 15.18042
1102.870, 15.02283
1103.352, 14.84865
1103.834, 14.70600
1104.316, 14.68331
1104.798, 14.79896
1105.281, 14.95394
1105.763, 15.23246
1106.245, 15.40017
1106.727, 15.27403
1107.209, 15.14129
1107.691, 15.18074
1108.173, 15.33510
1108.655, 15.54134
1109.137, 15.78832
1109.620, 15.94246
1110.102, 15.89987
1110.584, 15.89653
1111.066, 15.93427
1111.548, 16.04968
1112.030, 16.31095
1112.512, 16.62033
1112.994, 16.87697
1113.476, 17.08579
1113.959, 17.29795
1114.441, 17.50950
1114.923, 17.73804
1115.405, 18.00462
1115.887, 18.26133
1116.369, 18.46602
1116.851, 18.68686
1117.333, 18.98984
1117.816, 19.34551
1118.298, 19.66107
1118.780, 19.90275
1119.262, 20.27391
1119.744, 20.85460
1120.226, 21.41204
1120.708, 21.91399
1121.190, 22.37378
1121.672, 22.78585
1122.155, 23.16630
1122.637, 23.50147
1123.119, 23.79592
1123.601, 24.40554
1124.083, 25.50513
1124.565, 26.35902
1125.047, 26.80462
1125.529, 27.29082
1126.011, 28.03778
1126.494, 28.82667
1126.976, 29.39768
1127.458, 29.83065
1127.940, 30.47847
1128.422, 31.38967
1128.904, 32.18931
1129.386, 32.83969
1129.868, 33.54497
1130.351, 34.38689
1130.833, 35.17066
1131.315, 35.75522
1131.797, 36.18430
1132.279, 36.52667
1132.761, 36.78789
1133.243, 37.10354
1133.725, 37.47404
1134.208, 37.73459
1134.690, 37.85886
1135.172, 37.89401
1135.654, 37.87063
1136.136, 37.68851
1136.618, 37.20352
1137.100, 36.49260
1137.582, 35.80981
1138.064, 35.12899
1138.547, 34.24314
1139.029, 33.17773
1139.511, 32.26478
1139.993, 31.60321
1140.475, 31.00680
1140.957, 30.35678
1141.439, 29.57593
1141.921, 28.39016
1142.403, 27.04431
1142.886, 26.18685
1143.368, 25.68436
1143.850, 25.07992
1144.332, 24.31547
1144.814, 23.60064
1145.296, 23.03567
1145.778, 22.53715
1146.260, 22.02613
1146.743, 21.52562
1147.225, 21.10996
1147.707, 20.69774
1148.189, 20.07491
1148.671, 19.35232
1149.153, 18.84696
1149.635, 18.63158
1150.117, 18.50832
1150.599, 18.40660
1151.082, 18.26202
1151.564, 17.96620
1152.046, 17.66417
1152.528, 17.54310
1153.010, 17.47578
1153.492, 17.26608
1153.974, 16.91693
1154.456, 16.54264
1154.938, 16.16057
1155.421, 15.84523
1155.903, 15.66490
1156.385, 15.51289
1156.867, 15.34120
1157.349, 15.17251
1157.831, 15.01053
1158.313, 14.87322
1158.795, 14.81753
1159.278, 14.84970
1159.760, 14.77851
1160.242, 14.48544
1160.724, 14.22348
1161.206, 13.99920
1161.688, 13.84956
1162.170, 13.85505
1162.652, 13.89250
1163.135, 13.82914
1163.617, 13.69283
1164.099, 13.60163
1164.581, 13.59113
1165.063, 13.49180
1165.545, 13.21076
1166.027, 13.07055
1166.509, 13.22334
1166.991, 13.34546
1167.474, 13.22822
1167.956, 12.97303
1168.438, 12.71997
1168.920, 12.48177
1169.402, 12.42480
1169.884, 12.58178
1170.366, 12.58691
1170.848, 12.39016
1171.330, 12.23649
1171.813, 12.22019
1172.295, 12.20017
1172.777, 12.03916
1173.259, 11.83503
1173.741, 11.84791
1174.223, 12.00734
1174.705, 11.88277
1175.187, 11.54696
1175.670, 11.50303
1176.152, 11.79398
1176.634, 12.01694
1177.116, 11.97861
1177.598, 11.84813
1178.080, 11.78423
1178.562, 11.75186
1179.044, 11.71524
1179.526, 11.66110
1180.009, 11.54395
1180.491, 11.39352
1180.973, 11.27621
1181.455, 11.21109
1181.937, 11.21192
1182.419, 11.30482
1182.901, 11.37543
1183.383, 11.34169
1183.865, 11.25119
1184.348, 11.10272
1184.830, 10.95012
1185.312, 10.83104
1185.794, 10.76318
1186.276, 10.79624
1186.758, 10.93766
1187.240, 11.02070
1187.722, 10.98430
1188.205, 10.89943
1188.687, 10.69497
1189.169, 10.55169
1189.651, 10.59876
1190.133, 10.72839
1190.615, 10.83701
1191.097, 10.92302
1191.579, 11.00474
1192.062, 11.10429
1192.544, 11.11495
1193.026, 11.00510
1193.508, 10.86751
1193.990, 10.68367
1194.472, 10.55640
1194.954, 10.55916
1195.436, 10.61574
1195.918, 10.63241
1196.401, 10.60541
1196.883, 10.48631
1197.365, 10.26696
1197.847, 10.19129
1198.329, 10.27620
1198.811, 10.33025
1199.293, 10.30055
1199.775, 10.26516
1200.257, 10.27616
1200.740, 10.31267
1201.222, 10.35982
1201.704, 10.39902
1202.186, 10.36633
1202.668, 10.29049
1203.150, 10.25039
1203.632, 10.24678
1204.114, 10.24412
1204.597, 10.23289
1205.079, 10.23311
1205.561, 10.26004
1206.043, 10.29516
1206.525, 10.36967
1207.007, 10.39713
1207.489, 10.24582
1207.971, 10.02677
1208.453, 9.874579
1208.936, 9.794864
1209.418, 9.743581
1209.900, 9.710569
1210.382, 9.741433
1210.864, 9.962744
1211.346, 10.08481
1211.828, 9.952611
1212.310, 9.790160
1212.792, 9.693783
1213.275, 9.647744
1213.757, 9.636957
1214.239, 9.657471
1214.721, 9.704003
1215.203, 9.790449
1215.685, 9.834796
1216.167, 9.821483
1216.649, 9.808293
1217.132, 9.799841
1217.614, 9.810242
1218.096, 9.850158
1218.578, 9.904021
1219.060, 9.964099
1219.542, 10.00701
1220.024, 9.932894
1220.506, 9.760798
1220.989, 9.672006
1221.471, 9.661496
1221.953, 9.622355
1222.435, 9.540854
1222.917, 9.520466
1223.399, 9.614847
1223.881, 9.685847
1224.363, 9.539564
1224.845, 9.357264
1225.328, 9.393882
1225.810, 9.549359
1226.292, 9.722665
1226.774, 9.873380
1227.256, 9.945709
1227.738, 9.942859
1228.220, 9.926145
1228.702, 9.923552
1229.184, 9.878234
1229.667, 9.717978
1230.149, 9.571321
1230.631, 9.497935
1231.113, 9.459352
1231.595, 9.425248
1232.077, 9.406729
1232.559, 9.420271
1233.041, 9.467834
1233.524, 9.556695
1234.006, 9.741577
1234.488, 9.820470
1234.970, 9.739625
1235.452, 9.696210
1235.934, 9.752467
1236.416, 9.804664
1236.898, 9.789889
1237.380, 9.738168
1237.863, 9.688692
1238.345, 9.643664
1238.827, 9.606122
1239.309, 9.580144
1239.791, 9.615020
1240.273, 9.697587
1240.755, 9.706674
1241.237, 9.630633
1241.719, 9.622118
1242.202, 9.768704
1242.684, 9.912708
1243.166, 9.858979
1243.648, 9.753956
1244.130, 9.772465
1244.612, 9.831976
1245.094, 9.817318
1245.576, 9.768741
1246.059, 9.795053
1246.541, 9.886096
1247.023, 9.899770
1247.505, 9.757000
1247.987, 9.686817
1248.469, 9.852090
1248.951, 9.961467
1249.433, 9.820212
1249.916, 9.710552
1250.398, 9.866710
1250.880, 10.09414
1251.362, 10.15096
1251.844, 10.06457
1252.326, 9.982991
1252.808, 9.899943
1253.290, 9.860745
1253.772, 9.871813
1254.255, 9.863772
1254.737, 9.817554
1255.219, 9.840222
1255.701, 9.989274
1256.183, 10.18845
1256.665, 10.37631
1257.147, 10.50357
1257.629, 10.42227
1258.111, 10.23573
1258.594, 10.16352
1259.076, 10.18011
1259.558, 10.20577
1260.040, 10.22203
1260.522, 10.22593
1261.004, 10.21672
1261.486, 10.22006
1261.968, 10.25371
1262.451, 10.29935
1262.933, 10.38811
1263.415, 10.44016
1263.897, 10.32629
1264.379, 10.20863
1264.861, 10.34131
1265.343, 10.61338
1265.825, 10.61391
1266.307, 10.28606
1266.790, 10.17100
1267.272, 10.36590
1267.754, 10.47598
1268.236, 10.44279
1268.718, 10.40506
1269.200, 10.41892
1269.682, 10.40416
1270.164, 10.28691
1270.646, 10.13211
1271.129, 10.03304
1271.611, 10.00348
1272.093, 10.15372
##END=



