##NAMES=Phosphoferrite
##RRUFFID=R090065
##IDEAL CHEMISTRY=Fe^2+^_3_(PO_4_)_2_&#183;3H_2_O
##LOCALITY=Germany
##OWNER=RRUFF
##SOURCE=Royal Ontario Museum 
##DESCRIPTION=Dark brown pseudo-octahedral crystals on matrix
##STATUS=The identification of this mineral is confirmed by single-crystal X-ray diffraction and chemical analysis.
##URL=rruff.info/R090065
##MEASURED CHEMISTRY=(Fe^+2^_2.376_Mn^+2^_0.758_Ca_0.03_)_Σ=3.164_(P_0.967_O_4_)_2_·3H_2_O
91.82715, 259.2720
92.30927, 259.0366
92.79138, 259.3504
93.27350, 257.9041
93.75562, 255.2195
94.23773, 252.0199
94.71985, 248.7838
95.20197, 245.6869
95.68408, 243.2724
96.16620, 240.8428
96.64832, 237.8098
97.13043, 234.0043
97.61255, 230.2033
98.09467, 227.5372
98.57678, 226.4722
99.05890, 224.6773
99.54102, 222.0168
100.0231, 219.1521
100.5052, 216.5577
100.9874, 214.4031
101.4695, 212.6406
101.9516, 211.2483
102.4337, 210.3731
102.9158, 209.6963
103.3979, 209.2502
103.8801, 208.9455
104.3622, 208.6620
104.8443, 208.3133
105.3264, 207.8891
105.8085, 207.3426
106.2906, 206.5427
106.7728, 205.6894
107.2549, 204.9408
107.7370, 204.2979
108.2191, 203.5624
108.7012, 202.3871
109.1833, 200.7121
109.6655, 199.5351
110.1476, 199.4341
110.6297, 199.7908
111.1118, 199.5442
111.5939, 198.2035
112.0760, 196.8265
112.5582, 196.6975
113.0403, 197.6978
113.5224, 198.6902
114.0045, 198.9716
114.4866, 198.5694
114.9688, 198.0212
115.4509, 197.1919
115.9330, 196.4256
116.4151, 195.9634
116.8972, 195.8365
117.3793, 195.8420
117.8615, 195.7412
118.3436, 195.5585
118.8257, 195.1818
119.3078, 194.3331
119.7899, 193.4586
120.2720, 192.8551
120.7542, 192.6454
121.2363, 192.8156
121.7184, 193.3363
122.2005, 195.3397
122.6826, 196.4200
123.1647, 195.7381
123.6468, 194.1411
124.1290, 192.8659
124.6111, 192.6491
125.0932, 193.3288
125.5753, 193.5282
126.0574, 193.2056
126.5395, 192.5926
127.0217, 191.5257
127.5038, 190.1317
127.9859, 189.0170
128.4680, 188.7449
128.9501, 189.1718
129.4323, 189.2568
129.9144, 188.7360
130.3965, 187.9779
130.8786, 187.3317
131.3607, 186.8127
131.8428, 186.3904
132.3250, 186.1408
132.8071, 185.9709
133.2892, 185.7108
133.7713, 185.1259
134.2534, 184.3699
134.7355, 184.0465
135.2177, 184.6654
135.6998, 185.0052
136.1819, 184.2461
136.6640, 182.7231
137.1461, 181.2876
137.6282, 180.7355
138.1104, 181.1901
138.5925, 181.1519
139.0746, 180.0876
139.5567, 178.9535
140.0388, 178.0768
140.5209, 177.4830
141.0031, 177.0218
141.4852, 176.5357
141.9673, 176.0588
142.4494, 175.4463
142.9315, 174.4750
143.4136, 173.5477
143.8958, 172.9705
144.3779, 172.8062
144.8600, 172.8294
145.3421, 172.6720
145.8242, 172.1422
146.3063, 171.7967
146.7885, 171.8859
147.2706, 172.0975
147.7527, 172.0451
148.2348, 171.5842
148.7169, 170.8470
149.1990, 169.9728
149.6812, 168.7672
150.1633, 167.9754
150.6454, 168.2828
151.1275, 169.3101
151.6096, 169.7875
152.0917, 168.9689
152.5739, 167.6201
153.0560, 166.9678
153.5381, 167.1591
154.0202, 167.5882
154.5023, 167.8236
154.9844, 167.8602
155.4665, 167.8074
155.9487, 167.5927
156.4308, 167.3589
156.9129, 167.2830
157.3950, 167.4500
157.8771, 167.5847
158.3592, 167.1797
158.8414, 165.9108
159.3235, 164.9309
159.8056, 164.5610
160.2877, 164.5389
160.7698, 164.7368
161.2519, 165.1229
161.7341, 165.5474
162.2162, 165.5360
162.6983, 164.5281
163.1804, 163.8305
163.6625, 163.7505
164.1446, 164.0323
164.6268, 164.4245
165.1089, 164.8063
165.5910, 165.1242
166.0731, 165.0169
166.5552, 163.7509
167.0373, 162.8570
167.5195, 162.9400
168.0016, 163.6226
168.4837, 164.1685
168.9658, 164.1021
169.4479, 163.4469
169.9300, 162.6888
170.4122, 161.2988
170.8943, 160.3154
171.3764, 160.5718
171.8585, 161.8098
172.3406, 162.8247
172.8227, 162.6409
173.3049, 161.3814
173.7870, 160.6243
174.2691, 160.7082
174.7512, 161.0498
175.2333, 161.1792
175.7154, 161.0737
176.1976, 160.9826
176.6797, 161.2133
177.1618, 161.5939
177.6439, 161.6921
178.1260, 161.1058
178.6081, 160.3004
179.0903, 160.0217
179.5724, 160.4355
180.0545, 160.8948
180.5366, 160.8535
181.0187, 160.5939
181.5008, 160.5971
181.9830, 161.3386
182.4651, 162.4702
182.9472, 162.8489
183.4293, 162.0102
183.9114, 161.0913
184.3935, 160.4389
184.8757, 160.0686
185.3578, 160.0481
185.8399, 160.6097
186.3220, 161.6393
186.8041, 161.8722
187.2862, 160.2243
187.7684, 158.8881
188.2505, 158.6354
188.7326, 159.1805
189.2147, 159.9193
189.6968, 160.4372
190.1789, 160.7436
190.6611, 160.5870
191.1432, 159.3090
191.6253, 158.2011
192.1074, 157.7858
192.5895, 157.9238
193.0716, 158.1421
193.5538, 158.0054
194.0359, 157.4269
194.5180, 157.2351
195.0001, 157.7599
195.4822, 158.2774
195.9643, 158.4532
196.4465, 158.2933
196.9286, 157.9835
197.4107, 157.6838
197.8928, 157.3972
198.3749, 157.0883
198.8570, 156.6497
199.3392, 156.2712
199.8213, 156.1409
200.3034, 156.2509
200.7855, 156.3594
201.2676, 156.2318
201.7497, 155.8498
202.2319, 155.5185
202.7140, 155.1885
203.1961, 154.9489
203.6782, 154.9653
204.1603, 155.2697
204.6424, 155.5237
205.1246, 155.2744
205.6067, 154.6626
206.0888, 154.3707
206.5709, 154.8844
207.0530, 155.6572
207.5351, 155.8511
208.0173, 155.2659
208.4994, 154.6550
208.9815, 154.7566
209.4636, 155.2844
209.9457, 155.6595
210.4278, 155.5755
210.9100, 155.2066
211.3921, 154.9209
211.8742, 154.7134
212.3563, 154.6187
212.8384, 154.8543
213.3205, 155.2000
213.8027, 155.2134
214.2848, 154.4256
214.7669, 153.1404
215.2490, 152.5154
215.7311, 152.9475
216.2132, 153.4587
216.6954, 153.7442
217.1775, 153.8006
217.6596, 153.6102
218.1417, 153.0993
218.6238, 152.3344
219.1059, 151.7039
219.5881, 151.1828
220.0702, 150.8645
220.5523, 150.7587
221.0344, 150.8585
221.5165, 151.2053
221.9986, 151.9014
222.4808, 152.8648
222.9629, 153.3168
223.4450, 152.8873
223.9271, 152.2729
224.4092, 151.2656
224.8913, 150.2042
225.3735, 149.6929
225.8556, 150.2124
226.3377, 151.6151
226.8198, 152.2261
227.3019, 151.1882
227.7840, 150.2226
228.2662, 149.6141
228.7483, 149.3373
229.2304, 149.3428
229.7125, 149.6316
230.1946, 150.1511
230.6767, 150.3131
231.1589, 149.6776
231.6410, 149.1943
232.1231, 149.3079
232.6052, 149.7379
233.0873, 149.8618
233.5694, 149.2444
234.0516, 148.0569
234.5337, 147.5771
235.0158, 148.3636
235.4979, 149.0909
235.9800, 149.4297
236.4621, 149.4199
236.9443, 149.1136
237.4264, 148.4615
237.9085, 147.6163
238.3906, 147.2922
238.8727, 148.0387
239.3548, 148.5864
239.8370, 148.3838
240.3191, 147.6478
240.8012, 146.8240
241.2833, 146.0024
241.7654, 145.3965
242.2475, 145.6732
242.7297, 147.5770
243.2118, 149.0250
243.6939, 148.6247
244.1760, 146.9668
244.6581, 145.8814
245.1402, 146.2755
245.6224, 147.4866
246.1045, 148.1236
246.5866, 147.9962
247.0687, 147.8874
247.5508, 148.3649
248.0329, 149.2251
248.5151, 149.7240
248.9972, 149.5306
249.4793, 148.9439
249.9614, 148.3470
250.4435, 147.6850
250.9256, 147.2947
251.4078, 147.5355
251.8899, 148.2595
252.3720, 148.7822
252.8541, 148.7604
253.3362, 148.7017
253.8183, 149.2637
254.3005, 150.4417
254.7826, 151.4473
255.2647, 151.6538
255.7468, 151.2187
256.2289, 150.9322
256.7110, 150.9140
257.1931, 151.1129
257.6753, 151.5323
258.1574, 152.1338
258.6395, 152.6717
259.1216, 152.9125
259.6037, 152.9251
260.0858, 153.1311
260.5680, 153.7713
261.0501, 154.3250
261.5322, 154.3140
262.0143, 153.9309
262.4964, 153.7594
262.9785, 154.2727
263.4607, 155.3550
263.9428, 156.3640
264.4249, 157.3768
264.9070, 158.1701
265.3891, 158.6062
265.8712, 158.7814
266.3534, 158.8742
266.8355, 158.9360
267.3176, 159.0035
267.7997, 159.2319
268.2818, 159.6105
268.7639, 160.1987
269.2461, 161.2133
269.7282, 162.3763
270.2103, 163.2788
270.6924, 163.6843
271.1745, 163.7087
271.6566, 163.6935
272.1388, 163.5324
272.6209, 163.5258
273.1030, 163.7666
273.5851, 164.1702
274.0672, 164.6954
274.5493, 165.3520
275.0315, 165.9963
275.5136, 166.2224
275.9957, 165.7078
276.4778, 165.3785
276.9599, 165.6074
277.4420, 165.9603
277.9242, 166.0217
278.4063, 165.6460
278.8884, 165.0300
279.3705, 164.5109
279.8526, 164.0587
280.3347, 163.7945
280.8169, 163.7853
281.2990, 163.8967
281.7811, 164.0618
282.2632, 164.2534
282.7453, 164.4429
283.2274, 164.6692
283.7096, 165.2132
284.1917, 165.0439
284.6738, 163.2953
285.1559, 161.5739
285.6380, 161.0897
286.1201, 161.8149
286.6023, 162.6273
287.0844, 162.1005
287.5665, 159.6778
288.0486, 158.1549
288.5307, 158.3012
289.0128, 158.5812
289.4950, 158.2022
289.9771, 157.2728
290.4592, 156.4679
290.9413, 156.4879
291.4234, 157.4472
291.9055, 157.7015
292.3877, 156.6805
292.8698, 155.5376
293.3519, 154.6092
293.8340, 153.8501
294.3161, 153.0628
294.7982, 152.0922
295.2804, 150.9646
295.7625, 150.0714
296.2446, 149.6211
296.7267, 149.1942
297.2088, 148.7574
297.6909, 148.2877
298.1731, 147.7514
298.6552, 147.1274
299.1373, 146.4527
299.6194, 145.8725
300.1015, 145.4995
300.5836, 145.0938
301.0658, 144.6637
301.5479, 144.1842
302.0300, 143.6105
302.5121, 142.9290
302.9942, 142.1921
303.4763, 141.4829
303.9585, 140.6239
304.4406, 140.1053
304.9227, 140.2120
305.4048, 140.4588
305.8869, 140.4565
306.3690, 140.1177
306.8512, 139.6200
307.3333, 139.2175
307.8154, 139.0120
308.2975, 138.6208
308.7796, 137.9160
309.2617, 137.1599
309.7439, 136.5029
310.2260, 135.9556
310.7081, 135.4350
311.1902, 134.8277
311.6723, 134.0583
312.1544, 133.7579
312.6366, 134.4895
313.1187, 135.0677
313.6008, 134.9554
314.0829, 134.2937
314.5650, 133.4715
315.0471, 132.7345
315.5293, 132.1034
316.0114, 131.8691
316.4935, 132.5957
316.9756, 133.0887
317.4577, 132.9045
317.9398, 132.3712
318.4220, 132.0155
318.9041, 132.1132
319.3862, 132.4930
319.8683, 132.6115
320.3504, 132.2119
320.8326, 131.8502
321.3147, 131.5165
321.7968, 131.2511
322.2789, 131.1890
322.7610, 131.3475
323.2431, 131.4593
323.7253, 131.0053
324.2074, 129.3202
324.6895, 128.4042
325.1716, 128.7875
325.6537, 129.4274
326.1358, 129.6616
326.6180, 129.3930
327.1001, 128.8849
327.5822, 128.4047
328.0643, 127.9520
328.5464, 127.5271
329.0285, 126.9449
329.5107, 126.5581
329.9928, 126.6726
330.4749, 127.1265
330.9570, 127.4988
331.4391, 127.4595
331.9212, 127.0436
332.4034, 126.7699
332.8855, 126.8569
333.3676, 126.8519
333.8497, 126.5882
334.3318, 126.2010
334.8139, 125.9049
335.2961, 125.8126
335.7782, 125.8237
336.2603, 125.6431
336.7424, 125.1062
337.2245, 124.6115
337.7066, 124.1547
338.1888, 123.7655
338.6709, 123.5065
339.1530, 123.3798
339.6351, 123.2856
340.1172, 123.0489
340.5993, 122.5402
341.0815, 122.2271
341.5636, 122.3065
342.0457, 122.3919
342.5278, 122.2395
343.0099, 121.8703
343.4920, 121.4870
343.9742, 121.3053
344.4563, 121.3472
344.9384, 121.1796
345.4205, 120.4006
345.9026, 119.8018
346.3847, 119.7809
346.8669, 120.0724
347.3490, 120.1662
347.8311, 119.7226
348.3132, 118.9103
348.7953, 118.4321
349.2774, 118.5901
349.7596, 118.6116
350.2417, 118.1948
350.7238, 117.6649
351.2059, 117.3649
351.6880, 117.4092
352.1701, 117.6208
352.6523, 117.7531
353.1344, 117.8647
353.6165, 117.7064
354.0986, 116.8445
354.5807, 116.0261
355.0628, 115.7358
355.5450, 115.9745
356.0271, 116.3726
356.5092, 116.6156
356.9913, 116.7005
357.4734, 116.6938
357.9555, 116.5309
358.4377, 116.3416
358.9198, 116.2343
359.4019, 116.1414
359.8840, 115.9094
360.3661, 115.3954
360.8482, 114.7200
361.3304, 114.2495
361.8125, 114.0509
362.2946, 113.9216
362.7767, 113.8392
363.2588, 113.7624
363.7409, 113.6323
364.2231, 113.4210
364.7052, 113.2127
365.1873, 113.1311
365.6694, 113.1912
366.1515, 113.2408
366.6336, 113.3427
367.1158, 113.3322
367.5979, 112.9905
368.0800, 112.3428
368.5621, 111.7902
369.0442, 111.6204
369.5263, 111.7911
370.0085, 112.1870
370.4906, 113.0461
370.9727, 113.6666
371.4548, 113.4499
371.9369, 112.6622
372.4190, 111.8573
372.9012, 111.1055
373.3833, 110.5420
373.8654, 110.4877
374.3475, 111.0121
374.8296, 111.4485
375.3117, 111.3422
375.7939, 111.0138
376.2760, 111.0081
376.7581, 111.5600
377.2402, 111.9439
377.7223, 111.3036
378.2044, 109.9500
378.6866, 109.3500
379.1687, 110.2039
379.6508, 111.4480
380.1329, 111.6575
380.6150, 110.8765
381.0971, 110.1683
381.5793, 109.8803
382.0614, 109.8551
382.5435, 109.9209
383.0256, 110.0646
383.5077, 110.1732
383.9898, 110.1048
384.4720, 109.9077
384.9541, 109.9095
385.4362, 110.4003
385.9183, 110.8377
386.4004, 110.7142
386.8825, 110.2216
387.3647, 110.1085
387.8468, 110.8559
388.3289, 111.9867
388.8110, 112.1676
389.2931, 110.8519
389.7752, 109.9616
390.2574, 110.2577
390.7395, 111.0244
391.2216, 111.4053
391.7037, 111.2130
392.1858, 110.7783
392.6679, 110.4292
393.1501, 110.1293
393.6322, 110.2290
394.1143, 111.2587
394.5964, 112.1747
395.0785, 112.1270
395.5606, 111.4213
396.0428, 111.0975
396.5249, 111.8930
397.0070, 113.5112
397.4891, 114.3701
397.9712, 113.8951
398.4533, 113.3184
398.9355, 112.5386
399.4176, 111.8251
399.8997, 111.4677
400.3818, 111.5517
400.8639, 111.9321
401.3460, 112.4414
401.8282, 113.2511
402.3103, 113.6928
402.7924, 113.5940
403.2745, 113.3396
403.7566, 112.9631
404.2387, 112.5810
404.7209, 112.4626
405.2030, 112.8955
405.6851, 113.7529
406.1672, 113.9831
406.6493, 112.7958
407.1314, 112.1280
407.6136, 112.7895
408.0957, 113.9858
408.5778, 114.8973
409.0599, 115.2331
409.5420, 115.1520
410.0241, 114.7164
410.5063, 113.7664
410.9884, 113.3422
411.4705, 114.1778
411.9526, 115.1067
412.4347, 115.4936
412.9168, 115.3626
413.3990, 115.0544
413.8811, 114.8247
414.3632, 114.6067
414.8453, 114.0422
415.3274, 112.8658
415.8095, 112.0036
416.2917, 112.3308
416.7738, 113.1634
417.2559, 113.5748
417.7380, 113.1950
418.2201, 112.6541
418.7022, 112.6463
419.1844, 113.1006
419.6665, 113.3025
420.1486, 112.9074
420.6307, 112.3520
421.1128, 112.2079
421.5949, 112.4648
422.0771, 112.7317
422.5592, 112.9714
423.0413, 113.0943
423.5234, 112.9235
424.0055, 112.4395
424.4876, 111.8789
424.9698, 111.3274
425.4519, 110.8536
425.9340, 110.7525
426.4161, 111.5074
426.8982, 112.1127
427.3803, 111.9607
427.8625, 111.3447
428.3446, 110.8690
428.8267, 110.7580
429.3088, 110.8785
429.7909, 111.0214
430.2730, 111.2542
430.7552, 111.3382
431.2373, 111.1189
431.7194, 110.8658
432.2015, 110.7738
432.6836, 110.8447
433.1657, 110.9905
433.6479, 111.1643
434.1300, 111.3494
434.6121, 111.3159
435.0942, 110.8188
435.5763, 110.3799
436.0584, 110.0181
436.5406, 109.7835
437.0227, 109.8021
437.5048, 110.0980
437.9869, 110.4314
438.4690, 110.3496
438.9511, 109.5934
439.4333, 109.2686
439.9154, 109.7211
440.3975, 110.3197
440.8796, 110.9210
441.3617, 111.4436
441.8438, 111.7500
442.3260, 111.6915
442.8081, 111.3904
443.2902, 111.2791
443.7723, 111.4669
444.2544, 111.5689
444.7365, 111.3421
445.2187, 111.0273
445.7008, 110.8232
446.1829, 110.7679
446.6650, 110.8299
447.1471, 111.0515
447.6292, 111.3916
448.1114, 111.6211
448.5935, 111.6835
449.0756, 111.6717
449.5577, 111.6880
450.0398, 111.7012
450.5219, 111.5959
451.0041, 111.0252
451.4862, 110.5520
451.9683, 110.9321
452.4504, 112.0233
452.9325, 112.8306
453.4146, 112.8589
453.8968, 112.4072
454.3789, 112.0953
454.8610, 111.9299
455.3431, 111.8379
455.8252, 111.8735
456.3073, 111.9369
456.7895, 111.8828
457.2716, 111.7082
457.7537, 111.5766
458.2358, 111.6364
458.7179, 111.8883
459.2000, 112.1328
459.6822, 112.5417
460.1643, 112.7503
460.6464, 112.4482
461.1285, 111.9522
461.6106, 111.7539
462.0927, 112.0265
462.5748, 112.4691
463.0569, 112.5584
463.5391, 112.1137
464.0212, 111.8019
464.5033, 111.6611
464.9854, 111.6078
465.4675, 111.6903
465.9496, 111.8311
466.4318, 111.8472
466.9139, 111.5816
467.3960, 111.1571
467.8781, 111.0255
468.3602, 111.4134
468.8423, 111.4975
469.3245, 110.6246
469.8066, 109.6118
470.2887, 109.1209
470.7708, 109.2442
471.2529, 109.5765
471.7350, 109.8851
472.2172, 110.1583
472.6993, 110.3185
473.1814, 110.3101
473.6635, 110.3348
474.1456, 110.7369
474.6277, 111.2618
475.1099, 111.2775
475.5920, 110.2481
476.0741, 109.2499
476.5562, 109.1056
477.0383, 109.6012
477.5204, 110.1988
478.0026, 110.7944
478.4847, 111.1405
478.9668, 110.7548
479.4489, 109.3867
479.9310, 108.5435
480.4131, 108.7595
480.8953, 109.1437
481.3774, 109.0150
481.8595, 108.5070
482.3416, 108.1884
482.8237, 108.4099
483.3058, 109.0126
483.7880, 109.4577
484.2701, 109.7757
484.7522, 109.8649
485.2343, 109.6842
485.7164, 109.3144
486.1985, 108.6444
486.6807, 107.7786
487.1628, 107.1418
487.6449, 107.1648
488.1270, 107.7968
488.6091, 108.3126
489.0912, 108.7520
489.5734, 108.9968
490.0555, 108.8930
490.5376, 108.6621
491.0197, 108.6089
491.5018, 108.8329
491.9839, 108.9811
492.4661, 108.5827
492.9482, 107.7118
493.4303, 107.0226
493.9124, 106.5684
494.3945, 106.3774
494.8766, 106.5525
495.3588, 107.0083
495.8409, 107.5662
496.3230, 108.5656
496.8051, 109.2963
497.2872, 108.8094
497.7693, 107.4713
498.2515, 106.7240
498.7336, 107.2101
499.2157, 108.2041
499.6978, 108.5010
500.1799, 107.7947
500.6620, 107.5813
501.1442, 108.4874
501.6263, 109.4713
502.1084, 109.7597
502.5905, 109.4646
503.0726, 109.1314
503.5547, 109.0921
504.0369, 109.2569
504.5190, 109.3057
505.0011, 109.0761
505.4832, 108.9917
505.9653, 109.1474
506.4474, 109.3857
506.9296, 109.5759
507.4117, 109.7235
507.8938, 109.9478
508.3759, 110.4124
508.8580, 111.0369
509.3401, 111.2861
509.8223, 110.9359
510.3044, 110.7023
510.7865, 111.0208
511.2686, 111.4865
511.7507, 111.6769
512.2328, 111.4997
512.7150, 111.3060
513.1971, 111.3486
513.6792, 111.5797
514.1613, 111.9155
514.6434, 112.3931
515.1255, 112.7450
515.6077, 112.6777
516.0898, 112.3089
516.5719, 112.1742
517.0540, 112.5157
517.5361, 112.8228
518.0182, 112.6766
518.5004, 112.3933
518.9825, 112.5972
519.4646, 113.4510
519.9467, 114.4483
520.4288, 114.9713
520.9109, 114.9268
521.3931, 115.0288
521.8752, 115.4361
522.3573, 115.7926
522.8394, 115.9110
523.3215, 115.9164
523.8036, 115.9915
524.2858, 116.2097
524.7679, 116.5372
525.2500, 116.9721
525.7321, 117.5823
526.2142, 117.9421
526.6964, 117.7211
527.1785, 117.5689
527.6606, 117.7987
528.1427, 118.3235
528.6248, 118.9548
529.1069, 119.6846
529.5891, 120.3621
530.0712, 120.7727
530.5533, 120.9256
531.0354, 120.9477
531.5175, 120.7924
531.9996, 120.6460
532.4818, 120.7926
532.9639, 121.2043
533.4460, 121.5254
533.9281, 121.5956
534.4102, 121.6237
534.8923, 121.9667
535.3745, 122.4380
535.8566, 122.2608
536.3387, 120.9774
536.8208, 119.3639
537.3029, 119.0821
537.7850, 121.2095
538.2672, 122.4469
538.7493, 122.2825
539.2314, 121.7650
539.7135, 121.2991
540.1956, 120.9923
540.6777, 120.9312
541.1599, 121.1924
541.6420, 121.6380
542.1241, 121.9822
542.6062, 122.3333
543.0883, 122.2290
543.5704, 121.0961
544.0526, 119.8722
544.5347, 119.1230
545.0168, 118.8146
545.4989, 118.6376
545.9810, 118.4657
546.4631, 118.3048
546.9453, 118.1603
547.4274, 118.0320
547.9095, 117.9305
548.3916, 117.8478
548.8737, 117.8092
549.3558, 117.9240
549.8380, 118.2526
550.3201, 118.3479
550.8022, 118.0623
551.2843, 117.5595
551.7664, 116.7354
552.2485, 115.7757
552.7307, 115.3117
553.2128, 115.7548
553.6949, 116.6948
554.1770, 116.9568
554.6591, 116.0205
555.1412, 115.3212
555.6234, 114.9527
556.1055, 114.7405
556.5876, 114.7185
557.0697, 114.7679
557.5518, 114.5700
558.0339, 113.8238
558.5161, 112.8758
558.9982, 112.6021
559.4803, 113.1272
559.9624, 113.5920
560.4445, 113.8278
560.9266, 113.8511
561.4088, 113.6362
561.8909, 113.2063
562.3730, 112.8164
562.8551, 112.4880
563.3372, 112.2955
563.8193, 112.4690
564.3015, 112.9080
564.7836, 113.0345
565.2657, 112.5194
565.7478, 111.7910
566.2299, 111.6583
566.7120, 112.4502
567.1942, 113.0689
567.6763, 113.4576
568.1584, 113.7219
568.6405, 113.7876
569.1226, 113.7874
569.6047, 114.0509
570.0869, 114.7681
570.5690, 115.6177
571.0511, 115.8483
571.5332, 115.2230
572.0153, 114.8974
572.4974, 115.0760
572.9796, 115.5031
573.4617, 116.1821
573.9438, 116.9991
574.4259, 117.6808
574.9080, 118.1048
575.3901, 118.3679
575.8723, 118.5325
576.3544, 118.6176
576.8365, 118.7517
577.3186, 119.0005
577.8007, 119.2084
578.2828, 119.1265
578.7650, 118.7325
579.2471, 118.6570
579.7292, 119.0007
580.2113, 119.5772
580.6934, 120.4502
581.1755, 121.4507
581.6577, 122.4440
582.1398, 123.3481
582.6219, 123.8857
583.1040, 123.5337
583.5861, 122.0858
584.0682, 121.3979
584.5504, 122.1908
585.0325, 122.8959
585.5146, 123.0215
585.9967, 122.8004
586.4788, 122.4597
586.9609, 122.0457
587.4431, 121.8157
587.9252, 122.2485
588.4073, 123.0998
588.8894, 123.3252
589.3715, 122.7013
589.8536, 122.0378
590.3358, 121.9374
590.8179, 122.1961
591.3000, 122.0984
591.7821, 121.5272
592.2642, 120.8197
592.7463, 119.8418
593.2285, 118.9184
593.7106, 118.5034
594.1927, 118.5812
594.6748, 118.7367
595.1569, 118.6515
595.6390, 118.3655
596.1212, 118.1119
596.6033, 118.0976
597.0854, 117.7370
597.5675, 116.6145
598.0496, 115.4415
598.5317, 114.8243
599.0139, 114.6854
599.4960, 114.4201
599.9781, 113.4800
600.4602, 112.3051
600.9423, 111.8765
601.4244, 112.2062
601.9066, 112.1920
602.3887, 111.3764
602.8708, 110.1897
603.3529, 109.1257
603.8350, 108.1631
604.3171, 107.4623
604.7993, 107.4228
605.2814, 107.2861
605.7635, 106.2919
606.2456, 104.8684
606.7277, 103.9817
607.2098, 103.9943
607.6920, 104.4497
608.1741, 104.6927
608.6562, 104.7019
609.1383, 104.6221
609.6204, 104.6697
610.1025, 104.3561
610.5847, 103.2579
611.0668, 101.8246
611.5489, 100.6212
612.0310, 99.79873
612.5131, 99.26577
612.9952, 99.04361
613.4774, 99.05089
613.9595, 99.07314
614.4416, 99.11638
614.9237, 98.96464
615.4058, 98.38862
615.8879, 97.55048
616.3701, 96.98090
616.8522, 96.82461
617.3343, 96.60334
617.8164, 96.21099
618.2985, 95.71899
618.7806, 95.07419
619.2628, 94.37041
619.7449, 93.90342
620.2270, 93.88146
620.7091, 94.14689
621.1912, 94.29623
621.6733, 94.39126
622.1555, 94.17730
622.6376, 93.21509
623.1197, 92.31414
623.6018, 92.03975
624.0839, 92.19378
624.5660, 92.19243
625.0482, 91.74419
625.5303, 91.17119
626.0124, 90.87031
626.4945, 90.72474
626.9766, 90.21583
627.4587, 89.15945
627.9409, 88.27624
628.4230, 88.35755
628.9051, 89.38010
629.3872, 89.86263
629.8693, 89.64683
630.3514, 89.18296
630.8336, 88.43732
631.3157, 87.56328
631.7978, 86.55351
632.2799, 85.51189
632.7620, 84.83272
633.2441, 84.95770
633.7263, 85.64860
634.2084, 85.95482
634.6905, 85.79219
635.1726, 85.58037
635.6547, 85.49584
636.1368, 85.35692
636.6190, 84.88847
637.1011, 84.12980
637.5832, 83.61300
638.0653, 83.70644
638.5474, 83.92834
639.0295, 83.92324
639.5117, 83.72629
639.9938, 83.45317
640.4759, 83.14461
640.9580, 82.73853
641.4401, 82.09209
641.9222, 81.12092
642.4044, 80.70291
642.8865, 81.38309
643.3686, 81.99609
643.8507, 82.40305
644.3328, 82.56428
644.8149, 82.33290
645.2971, 81.72855
645.7792, 81.18124
646.2613, 81.07420
646.7434, 81.27683
647.2255, 81.53359
647.7076, 81.84653
648.1898, 81.98855
648.6719, 81.81680
649.1540, 81.48233
649.6361, 81.23386
650.1182, 81.08379
650.6003, 80.94295
651.0825, 80.57777
651.5646, 80.44350
652.0467, 81.09961
652.5288, 82.09742
653.0109, 82.62527
653.4930, 82.39545
653.9752, 81.76365
654.4573, 81.12802
654.9394, 80.48489
655.4215, 80.01662
655.9036, 79.83744
656.3857, 79.60897
656.8679, 78.89660
657.3500, 78.19398
657.8321, 78.15480
658.3142, 78.91383
658.7963, 78.82513
659.2784, 79.81064
659.7606, 80.34843
660.2427, 80.46261
660.7248, 78.88432
661.2069, 79.49149
661.6890, 79.22284
662.1711, 78.91827
662.6533, 79.83303
663.1354, 78.50091
663.6175, 79.39634
664.0996, 79.40257
664.5817, 79.81577
665.0638, 79.34773
665.5460, 79.15186
666.0281, 79.83753
666.5102, 80.03510
666.9923, 79.46560
667.4744, 79.90467
667.9565, 78.54176
668.4387, 78.76010
668.9208, 79.66070
669.4029, 79.13552
669.8850, 79.59070
670.3671, 79.67250
670.8492, 78.05747
671.3314, 79.39339
671.8135, 79.45314
672.2956, 78.20250
672.7777, 79.43732
673.2598, 78.36733
673.7419, 78.12003
674.2241, 78.49182
674.7062, 78.21822
675.1883, 78.96218
675.6704, 78.72585
676.1525, 78.40194
676.6346, 78.46025
677.1168, 78.16605
677.5989, 78.42003
678.0810, 78.03203
678.5631, 78.32631
679.0452, 78.77524
679.5273, 78.04005
680.0095, 78.59940
680.4916, 78.49917
680.9737, 78.10958
681.4558, 77.38949
681.9379, 76.63146
682.4200, 76.57149
682.9022, 77.48967
683.3843, 78.61211
683.8664, 78.72108
684.3485, 77.71158
684.8306, 77.27991
685.3127, 77.79456
685.7949, 78.23474
686.2770, 78.05464
686.7591, 77.65320
687.2412, 77.47334
687.7233, 77.57426
688.2054, 77.62002
688.6876, 77.39427
689.1697, 77.09340
689.6518, 76.86529
690.1339, 76.74028
690.6160, 76.84350
691.0981, 77.23273
691.5803, 77.62306
692.0624, 77.57537
692.5445, 77.01360
693.0266, 76.65401
693.5087, 76.58489
693.9908, 76.60937
694.4730, 76.88005
694.9551, 77.08939
695.4372, 76.79654
695.9193, 75.98766
696.4014, 75.35035
696.8835, 75.37966
697.3657, 75.74496
697.8478, 76.13603
698.3299, 76.49549
698.8120, 76.51519
699.2941, 76.05015
699.7762, 75.55288
700.2584, 75.64236
700.7405, 76.38918
701.2226, 76.83214
701.7047, 76.80778
702.1868, 76.66843
702.6689, 76.44572
703.1511, 76.15205
703.6332, 75.65608
704.1153, 75.03806
704.5974, 74.73714
705.0795, 75.20358
705.5616, 76.01563
706.0438, 76.61285
706.5259, 76.98298
707.0080, 76.97617
707.4901, 76.48690
707.9722, 75.93478
708.4543, 75.75464
708.9365, 75.93880
709.4186, 76.10352
709.9007, 76.43745
710.3828, 76.50338
710.8649, 75.95553
711.3470, 75.32268
711.8292, 75.07213
712.3113, 75.17452
712.7934, 75.30921
713.2755, 75.27966
713.7576, 75.20210
714.2397, 75.29663
714.7219, 75.52666
715.2040, 75.62974
715.6861, 75.54795
716.1682, 75.34745
716.6503, 74.96712
717.1324, 74.51440
717.6146, 74.61794
718.0967, 76.16425
718.5788, 76.96287
719.0609, 76.14788
719.5430, 75.12270
720.0251, 74.86450
720.5073, 75.24020
720.9894, 75.71352
721.4715, 76.06185
721.9536, 76.20523
722.4357, 75.89762
722.9178, 75.24375
723.4000, 74.90749
723.8821, 74.99184
724.3642, 75.14068
724.8463, 75.15368
725.3284, 75.08023
725.8105, 75.03860
726.2927, 75.01073
726.7748, 75.05762
727.2569, 75.31207
727.7390, 75.51140
728.2211, 75.47079
728.7032, 75.28700
729.1854, 75.16129
729.6675, 75.15279
730.1496, 75.07899
730.6317, 74.55498
731.1138, 73.80422
731.5959, 73.78883
732.0781, 74.58334
732.5602, 75.24371
733.0423, 75.37671
733.5244, 75.22044
734.0065, 75.08222
734.4886, 74.95027
734.9708, 74.93103
735.4529, 75.02852
735.9350, 75.23160
736.4171, 75.72887
736.8992, 76.21718
737.3813, 76.38087
737.8635, 76.16901
738.3456, 75.68127
738.8277, 74.76090
739.3098, 73.84277
739.7919, 74.10513
740.2740, 75.43587
740.7562, 75.98714
741.2383, 75.12593
741.7204, 74.08424
742.2025, 74.04171
742.6846, 74.87889
743.1667, 75.32166
743.6489, 75.17155
744.1310, 74.93827
744.6131, 74.55967
745.0952, 74.21529
745.5773, 73.96432
746.0594, 73.86771
746.5416, 74.10070
747.0237, 74.81738
747.5058, 75.52808
747.9879, 75.48459
748.4700, 74.92086
748.9521, 74.75402
749.4343, 75.09624
749.9164, 75.45467
750.3985, 75.56003
750.8806, 75.48045
751.3627, 75.36830
751.8448, 75.22893
752.3270, 75.03869
752.8091, 74.80228
753.2912, 74.51279
753.7733, 73.95377
754.2554, 73.44038
754.7375, 73.45313
755.2197, 74.07346
755.7018, 74.79012
756.1839, 75.37728
756.6660, 75.74175
757.1481, 75.58346
757.6302, 75.00600
758.1124, 74.63712
758.5945, 74.70394
759.0766, 74.78947
759.5587, 74.34637
760.0408, 73.40068
760.5229, 73.12517
761.0051, 74.21116
761.4872, 74.92937
761.9693, 74.89026
762.4514, 74.56496
762.9335, 74.18815
763.4156, 73.81493
763.8978, 73.49655
764.3799, 73.19064
764.8620, 73.06986
765.3441, 73.50742
765.8262, 74.14523
766.3083, 74.17944
766.7905, 73.61266
767.2726, 73.28799
767.7547, 73.75136
768.2368, 74.61731
768.7189, 74.97475
769.2010, 74.68531
769.6832, 74.39287
770.1653, 74.00654
770.6474, 73.75320
771.1295, 73.73833
771.6116, 73.89890
772.0938, 74.23161
772.5759, 74.75765
773.0580, 75.10941
773.5401, 75.03767
774.0222, 74.83614
774.5043, 74.73122
774.9865, 74.67837
775.4686, 74.55220
775.9507, 74.32823
776.4328, 74.10463
776.9149, 73.96303
777.3970, 73.91131
777.8792, 74.02885
778.3613, 74.37492
778.8434, 74.55848
779.3255, 74.40907
779.8076, 74.20789
780.2897, 74.17671
780.7719, 74.29445
781.2540, 74.48563
781.7361, 75.04918
782.2182, 75.19888
782.7003, 74.26827
783.1824, 73.25150
783.6646, 72.97399
784.1467, 73.29705
784.6288, 73.71988
785.1109, 74.03168
785.5930, 74.26892
786.0751, 74.45226
786.5573, 74.59766
787.0394, 74.79820
787.5215, 75.06259
788.0036, 75.23661
788.4857, 75.26493
788.9678, 75.13509
789.4500, 74.75332
789.9321, 74.02346
790.4142, 73.81104
790.8963, 74.77056
791.3784, 75.37849
791.8605, 75.02498
792.3427, 74.41413
792.8248, 74.11450
793.3069, 74.16196
793.7890, 74.34841
794.2711, 74.61093
794.7532, 74.91005
795.2354, 75.26089
795.7175, 75.60738
796.1996, 75.86061
796.6817, 75.99490
797.1638, 75.91487
797.6459, 75.54624
798.1281, 74.16697
798.6102, 75.21027
799.0923, 75.80588
799.5744, 75.97786
800.0565, 74.45737
800.5386, 75.12235
801.0208, 74.91150
801.5029, 74.66473
801.9850, 75.63730
802.4671, 74.36298
802.9492, 75.31622
803.4313, 75.38026
803.9135, 75.85126
804.3956, 75.44102
804.8777, 75.30296
805.3598, 76.04644
805.8419, 76.30180
806.3240, 75.79011
806.8062, 76.28699
807.2883, 74.98188
807.7704, 75.25803
808.2525, 76.21643
808.7346, 75.74905
809.2167, 76.26203
809.6989, 76.40165
810.1810, 75.95273
810.6631, 76.48563
811.1452, 76.52945
811.6273, 75.61301
812.1094, 75.29784
812.5916, 76.33055
813.0737, 77.11125
813.5558, 76.73693
814.0379, 75.85462
814.5200, 75.32352
815.0021, 75.28393
815.4843, 75.27771
815.9664, 74.91793
816.4485, 74.53365
816.9306, 74.49406
817.4127, 74.73690
817.8948, 75.22911
818.3770, 75.91700
818.8591, 76.33560
819.3412, 76.06905
819.8233, 75.35117
820.3054, 74.92229
820.7875, 74.81953
821.2697, 74.83501
821.7518, 74.96830
822.2339, 75.19205
822.7160, 75.60019
823.1981, 76.04501
823.6802, 76.22849
824.1624, 76.07462
824.6445, 75.99479
825.1266, 76.25996
825.6087, 76.41613
826.0908, 76.10148
826.5729, 75.57693
827.0551, 75.15836
827.5372, 74.93470
828.0193, 74.92172
828.5014, 75.22128
828.9835, 75.61663
829.4656, 75.74900
829.9478, 75.65047
830.4299, 75.39976
830.9120, 75.00256
831.3941, 74.81747
831.8762, 75.16167
832.3583, 75.75629
832.8404, 75.81153
833.3225, 75.03627
833.8046, 74.55642
834.2867, 74.58388
834.7689, 74.63635
835.2510, 74.51464
835.7331, 74.33916
836.2152, 74.25658
836.6973, 74.27789
837.1794, 74.28681
837.6616, 74.18763
838.1437, 74.12901
838.6258, 74.25033
839.1079, 74.44161
839.5900, 74.52379
840.0721, 74.50657
840.5543, 74.57719
841.0364, 74.87710
841.5185, 75.22109
842.0006, 75.29727
842.4827, 75.13261
842.9648, 74.87244
843.4470, 74.52246
843.9291, 74.18481
844.4112, 73.91569
844.8933, 73.67110
845.3754, 73.32626
845.8575, 72.78244
846.3397, 72.77673
846.8218, 73.99055
847.3039, 74.81352
847.7860, 74.64760
848.2681, 74.21690
848.7502, 74.08976
849.2324, 74.24625
849.7145, 74.41637
850.1966, 74.52879
850.6787, 74.61973
851.1608, 74.72400
851.6429, 74.80786
852.1251, 74.87363
852.6072, 74.88354
853.0893, 74.68080
853.5714, 74.20690
854.0535, 73.77391
854.5356, 73.87234
855.0178, 73.69018
855.4999, 73.72611
855.9820, 74.09633
856.4641, 74.14965
856.9462, 74.96521
857.4283, 75.71025
857.9105, 75.49680
858.3926, 74.46145
858.8747, 73.70080
859.3568, 73.32822
859.8389, 73.03700
860.3210, 72.77935
860.8032, 72.62785
861.2853, 72.64100
861.7674, 72.77579
862.2495, 73.02530
862.7316, 73.42654
863.2137, 73.58401
863.6959, 73.10327
864.1780, 72.54103
864.6601, 72.26437
865.1422, 72.22983
865.6243, 72.44845
866.1064, 72.84360
866.5886, 73.07900
867.0707, 72.87610
867.5528, 72.45805
868.0349, 72.15145
868.5170, 71.97813
868.9991, 72.17750
869.4813, 72.80035
869.9634, 73.20924
870.4455, 73.01585
870.9276, 72.52199
871.4097, 72.27634
871.8918, 72.31231
872.3740, 72.37871
872.8561, 72.61496
873.3382, 72.65704
873.8203, 72.10985
874.3024, 71.57340
874.7845, 71.58350
875.2667, 72.03857
875.7488, 72.43123
876.2309, 72.71080
876.7130, 72.84117
877.1951, 72.69722
877.6772, 72.49362
878.1594, 72.46455
878.6415, 72.50870
879.1236, 72.33898
879.6057, 71.87740
880.0878, 71.44376
880.5699, 71.31426
881.0521, 71.41694
881.5342, 71.72093
882.0163, 72.15324
882.4984, 72.40655
882.9805, 72.41270
883.4626, 72.33778
883.9448, 72.31967
884.4269, 72.29856
884.9090, 72.02477
885.3911, 71.38147
885.8732, 71.21445
886.3553, 71.81823
886.8375, 72.30167
887.3196, 72.14784
887.8017, 71.74496
888.2838, 71.71846
888.7659, 72.11974
889.2480, 72.24361
889.7302, 71.83416
890.2123, 71.46142
890.6944, 71.16918
891.1765, 71.04719
891.6586, 71.30185
892.1407, 71.77573
892.6229, 72.03829
893.1050, 71.91103
893.5871, 71.73677
894.0692, 71.75697
894.5513, 71.84081
895.0334, 71.85729
895.5156, 71.80775
895.9977, 71.62603
896.4798, 71.34238
896.9619, 71.34048
897.4440, 72.10554
897.9261, 71.85389
898.4083, 73.15280
898.8904, 72.19714
899.3725, 71.81128
899.8546, 72.27270
900.3367, 72.66872
900.8188, 72.46044
901.3010, 71.87016
901.7831, 71.30331
902.2652, 70.74361
902.7473, 70.29179
903.2294, 69.90923
903.7115, 69.70218
904.1937, 69.68253
904.6758, 69.86877
905.1579, 70.44694
905.6400, 71.27010
906.1221, 71.71214
906.6042, 71.46201
907.0864, 71.26614
907.5685, 71.25828
908.0506, 71.41087
908.5327, 71.93256
909.0148, 72.50596
909.4969, 72.59999
909.9791, 72.12049
910.4612, 71.54090
910.9433, 71.06579
911.4254, 70.74522
911.9075, 70.51146
912.3896, 70.51093
912.8718, 71.25790
913.3539, 72.63103
913.8360, 73.74039
914.3181, 74.08253
914.8002, 73.93611
915.2823, 73.59467
915.7645, 73.11533
916.2466, 72.94067
916.7287, 73.08659
917.2108, 73.38158
917.6929, 73.84531
918.1750, 74.10945
918.6572, 73.73180
919.1393, 72.86766
919.6214, 72.41495
920.1035, 72.45795
920.5856, 72.72339
921.0677, 73.41482
921.5499, 74.02702
922.0320, 74.29285
922.5141, 74.35425
922.9962, 74.34045
923.4783, 74.24299
923.9604, 74.29935
924.4426, 74.43721
924.9247, 74.86904
925.4068, 76.24216
925.8889, 77.46340
926.3710, 77.24485
926.8531, 76.09705
927.3353, 75.52860
927.8174, 76.09406
928.2995, 76.86829
928.7816, 77.35207
929.2637, 77.62229
929.7458, 77.63686
930.2280, 77.54341
930.7101, 77.62898
931.1922, 77.94849
931.6743, 78.38497
932.1564, 78.87646
932.6385, 79.36097
933.1207, 79.66502
933.6028, 80.19933
934.0849, 80.33004
934.5670, 81.08629
935.0491, 81.72493
935.5313, 82.06221
936.0134, 82.28609
936.4955, 82.62105
936.9776, 83.06240
937.4597, 83.55952
937.9418, 84.11912
938.4240, 84.72621
938.9061, 85.43037
939.3882, 86.07401
939.8703, 86.47503
940.3524, 86.80920
940.8345, 87.50760
941.3167, 88.75570
941.7988, 89.66999
942.2809, 89.85432
942.7630, 90.23629
943.2451, 91.23302
943.7272, 92.34131
944.2094, 93.02834
944.6915, 93.45985
945.1736, 94.29205
945.6557, 95.86338
946.1378, 97.29512
946.6199, 98.10103
947.1021, 98.83114
947.5842, 99.82971
948.0663, 101.0243
948.5484, 102.1911
949.0305, 103.3537
949.5126, 104.9396
949.9948, 107.4581
950.4769, 110.0027
950.9590, 111.6594
951.4411, 112.7919
951.9232, 113.8434
952.4053, 114.9516
952.8875, 116.3878
953.3696, 118.2348
953.8517, 120.1571
954.3338, 121.7634
954.8159, 123.1952
955.2980, 124.8696
955.7802, 126.7351
956.2623, 128.5347
956.7444, 130.2220
957.2265, 131.4607
957.7086, 131.9996
958.1907, 132.2383
958.6729, 132.8486
959.1550, 133.8315
959.6371, 135.3878
960.1192, 137.8436
960.6013, 139.4881
961.0834, 139.6916
961.5656, 139.4225
962.0477, 139.4614
962.5298, 139.6566
963.0119, 139.4720
963.4940, 138.7533
963.9761, 138.0459
964.4583, 137.5795
964.9404, 136.8174
965.4225, 135.3293
965.9046, 133.6888
966.3867, 132.4238
966.8688, 131.5035
967.3510, 130.6788
967.8331, 130.3320
968.3152, 129.3565
968.7973, 126.9466
969.2794, 124.4434
969.7615, 122.8272
970.2437, 121.5517
970.7258, 119.5726
971.2079, 116.8776
971.6900, 114.8348
972.1721, 114.6724
972.6542, 114.5214
973.1364, 112.9744
973.6185, 110.9858
974.1006, 109.6789
974.5827, 108.8393
975.0648, 107.5827
975.5469, 105.6612
976.0291, 103.9507
976.5112, 103.5359
976.9933, 103.4036
977.4754, 101.9592
977.9575, 99.78569
978.4396, 98.03139
978.9218, 96.89184
979.4039, 96.39499
979.8860, 96.55835
980.3681, 96.85058
980.8502, 96.57675
981.3323, 95.85497
981.8145, 95.03244
982.2966, 94.13650
982.7787, 93.33973
983.2608, 92.68385
983.7429, 92.26773
984.2250, 92.18318
984.7072, 92.27629
985.1893, 92.23265
985.6714, 92.04675
986.1535, 91.92278
986.6356, 91.89270
987.1177, 91.73821
987.5999, 91.40556
988.0820, 90.86699
988.5641, 89.96957
989.0462, 88.95744
989.5283, 88.74821
990.0104, 89.75416
990.4926, 90.22415
990.9747, 89.88407
991.4568, 89.53542
991.9389, 89.57335
992.4210, 89.56425
992.9031, 88.96026
993.3853, 87.88219
993.8674, 87.14754
994.3495, 86.93092
994.8316, 86.76385
995.3137, 86.62486
995.7958, 86.55422
996.2780, 86.68804
996.7601, 86.81827
997.2422, 86.66082
997.7243, 86.24757
998.2064, 85.95486
998.6885, 86.02458
999.1707, 85.94983
999.6528, 85.33643
1000.135, 84.81643
1000.617, 85.04041
1001.099, 85.48966
1001.581, 85.27235
1002.063, 84.34964
1002.545, 83.67834
1003.028, 83.89696
1003.510, 84.10709
1003.992, 83.69303
1004.474, 83.15481
1004.956, 82.95841
1005.438, 83.01809
1005.920, 83.13924
1006.402, 83.24510
1006.885, 83.18668
1007.367, 82.78417
1007.849, 82.28709
1008.331, 81.80338
1008.813, 81.45349
1009.295, 81.59621
1009.777, 82.01808
1010.259, 82.05075
1010.741, 81.47696
1011.224, 80.71389
1011.706, 79.92268
1012.188, 79.38072
1012.670, 79.72945
1013.152, 80.58532
1013.634, 81.09692
1014.116, 81.18796
1014.598, 81.07216
1015.081, 80.84750
1015.563, 80.58015
1016.045, 80.35405
1016.527, 80.13176
1017.009, 79.68252
1017.491, 79.13059
1017.973, 79.19568
1018.455, 79.91318
1018.937, 80.46616
1019.420, 80.43437
1019.902, 80.14208
1020.384, 80.02554
1020.866, 80.03113
1021.348, 79.87695
1021.830, 79.57024
1022.312, 79.30323
1022.794, 79.10232
1023.276, 79.03448
1023.759, 79.13390
1024.241, 79.41426
1024.723, 79.96504
1025.205, 80.74447
1025.687, 81.06554
1026.169, 80.86058
1026.651, 80.77266
1027.133, 80.94386
1027.616, 81.12480
1028.098, 81.18833
1028.580, 81.10957
1029.062, 80.78504
1029.544, 80.19564
1030.026, 80.11131
1030.508, 80.77439
1030.990, 81.02225
1031.473, 80.40609
1031.955, 79.94542
1032.437, 80.47187
1032.919, 81.31921
1033.401, 81.07592
1033.883, 79.52357
1034.365, 79.16513
1034.847, 80.73318
1035.329, 81.87151
1035.812, 82.11768
1036.294, 81.92586
1036.776, 81.35538
1037.258, 80.68040
1037.740, 80.46169
1038.222, 80.76781
1038.704, 81.07290
1039.186, 81.39934
1039.668, 81.68440
1040.151, 81.88427
1040.633, 82.07704
1041.115, 82.44793
1041.597, 82.27841
1042.079, 82.64363
1042.561, 81.90202
1043.043, 81.36433
1043.525, 80.98756
1044.008, 80.90398
1044.490, 81.46902
1044.972, 81.99194
1045.454, 82.00352
1045.936, 81.70464
1046.418, 81.42229
1046.900, 81.15984
1047.382, 81.09580
1047.865, 81.49152
1048.347, 81.74621
1048.829, 81.77511
1049.311, 81.57159
1049.793, 80.98258
1050.275, 80.22366
1050.757, 79.62784
1051.239, 79.23261
1051.721, 78.99155
1052.203, 78.83582
1052.686, 78.91872
1053.168, 79.55247
1053.650, 80.17050
1054.132, 80.31342
1054.614, 80.20939
1055.096, 80.34927
1055.578, 80.78487
1056.060, 80.83977
1056.543, 79.98353
1057.025, 79.21268
1057.507, 78.85863
1057.989, 78.67952
1058.471, 78.55218
1058.953, 78.45712
1059.435, 78.38438
1059.917, 78.33320
1060.400, 78.31709
1060.882, 78.37534
1061.364, 78.42097
1061.846, 78.47852
1062.328, 78.45708
1062.810, 78.25546
1063.292, 77.94973
1063.774, 77.51669
1064.256, 77.03374
1064.739, 77.05533
1065.221, 78.20830
1065.703, 79.16045
1066.185, 79.41582
1066.667, 79.22654
1067.149, 78.36465
1067.631, 77.40598
1068.113, 77.31081
1068.595, 78.00520
1069.078, 78.26731
1069.560, 77.42867
1070.042, 76.63111
1070.524, 76.38597
1071.006, 76.35749
1071.488, 76.42261
1071.970, 76.48530
1072.452, 76.36018
1072.935, 76.11360
1073.417, 76.12181
1073.899, 76.59213
1074.381, 77.08463
1074.863, 77.64048
1075.345, 77.87747
1075.827, 77.33044
1076.309, 76.45505
1076.792, 75.64664
1077.274, 75.05180
1077.756, 74.93554
1078.238, 75.49062
1078.720, 75.99205
1079.202, 76.07689
1079.684, 76.02972
1080.166, 75.92978
1080.648, 75.86980
1081.130, 75.97195
1081.613, 76.19115
1082.095, 76.38391
1082.577, 76.50941
1083.059, 76.61385
1083.541, 76.82015
1084.023, 76.88847
1084.505, 76.59045
1084.987, 76.16654
1085.469, 75.70650
1085.952, 75.35721
1086.434, 75.45612
1086.916, 76.08961
1087.398, 76.60375
1087.880, 76.86028
1088.362, 76.76360
1088.844, 75.88705
1089.326, 74.98837
1089.809, 74.62632
1090.291, 74.76088
1090.773, 75.39668
1091.255, 76.47490
1091.737, 77.21870
1092.219, 77.27726
1092.701, 77.04992
1093.183, 76.37473
1093.666, 75.79169
1094.148, 75.97994
1094.630, 76.35298
1095.112, 75.82458
1095.594, 74.46995
1096.076, 73.74668
1096.558, 74.39017
1097.040, 75.07921
1097.522, 75.61208
1098.005, 75.81416
1098.487, 75.42585
1098.969, 74.76317
1099.451, 73.96504
1099.933, 73.21819
1100.415, 73.17379
1100.897, 74.38280
1101.379, 75.06834
1101.861, 74.19114
1102.344, 73.43174
1102.826, 73.66806
1103.308, 74.20594
1103.790, 74.47755
1104.272, 74.48465
1104.754, 74.33647
1105.236, 74.00589
1105.718, 73.73466
1106.201, 73.75713
1106.683, 73.58126
1107.165, 72.61977
1107.647, 71.85569
1108.129, 72.24311
1108.611, 73.20786
1109.093, 73.67490
1109.575, 73.55002
1110.057, 73.33836
1110.540, 73.00281
1111.022, 72.70509
1111.504, 72.34339
1111.986, 72.16789
1112.468, 72.64072
1112.950, 73.16167
1113.432, 72.77200
1113.914, 71.54658
1114.396, 70.82524
1114.879, 70.96241
1115.361, 70.99443
1115.843, 70.81731
1116.325, 70.66189
1116.807, 70.45803
1117.289, 70.47762
1117.771, 71.23141
1118.253, 72.38712
1118.736, 72.60852
1119.218, 71.54235
1119.700, 70.67977
1120.182, 69.93111
1120.664, 69.60738
1121.146, 69.99419
1121.628, 70.44661
1122.110, 70.47681
1122.593, 70.29629
1123.075, 70.38633
1123.557, 70.78721
1124.039, 70.75961
1124.521, 70.17044
1125.003, 69.60550
1125.485, 69.10307
1125.967, 68.81596
1126.449, 68.88633
1126.932, 69.04465
1127.414, 68.88909
1127.896, 68.50488
1128.378, 68.57336
1128.860, 69.20161
1129.342, 69.08054
1129.824, 67.97260
1130.306, 67.36664
1130.788, 67.88146
1131.271, 68.52882
1131.753, 68.39957
1132.235, 67.71361
1132.717, 66.85784
1133.199, 65.88914
1133.681, 65.75914
1134.163, 66.44881
1134.645, 66.94499
1135.128, 67.01130
1135.610, 66.91153
1136.092, 66.81235
1136.574, 65.91734
1137.056, 66.79126
1137.538, 67.22094
1138.020, 67.23035
1138.502, 65.55072
1138.984, 66.05994
1139.467, 65.69645
1139.949, 65.30075
1140.431, 66.12776
1140.913, 64.71132
1141.395, 65.52579
1141.877, 65.45451
1142.359, 65.79355
1142.841, 65.25478
1143.323, 64.99157
1143.806, 65.61309
1144.288, 65.75013
1144.770, 65.12350
1145.252, 65.50885
1145.734, 64.09560
1146.216, 64.26704
1146.698, 65.12409
1147.180, 64.55877
1147.663, 64.97709
1148.145, 65.02557
1148.627, 63.38062
1149.109, 64.69003
1149.591, 64.72665
1150.073, 63.45630
1150.555, 64.67480
1151.037, 63.59190
1151.520, 63.33497
1152.002, 63.70068
1152.484, 63.42436
1152.966, 63.35445
1153.448, 63.24405
1153.930, 63.04047
1154.412, 62.79705
1154.894, 62.62427
1155.376, 62.42035
1155.859, 62.44574
1156.341, 63.13898
1156.823, 63.64885
1157.305, 63.25134
1157.787, 62.69301
1158.269, 62.90457
1158.751, 63.61448
1159.233, 63.75373
1159.715, 63.00724
1160.198, 62.59002
1160.680, 62.60649
1161.162, 62.92319
1161.644, 63.99657
1162.126, 64.75489
1162.608, 64.30979
1163.090, 63.44563
1163.572, 63.38398
1164.055, 64.07138
1164.537, 64.34565
1165.019, 64.09414
1165.501, 63.75925
1165.983, 63.30622
1166.465, 62.96039
1166.947, 62.80048
1167.429, 62.79567
1167.911, 62.95968
1168.394, 63.18477
1168.876, 63.19314
1169.358, 62.98462
1169.840, 62.68184
1170.322, 62.28254
1170.804, 62.06097
1171.286, 62.06966
1171.768, 62.21869
1172.250, 62.47625
1172.733, 62.57380
1173.215, 62.05597
1173.697, 61.32330
1174.179, 61.66178
1174.661, 61.34529
1175.143, 61.21479
1175.625, 61.59191
1176.107, 61.13705
1176.590, 61.48375
1177.072, 61.63591
1177.554, 60.86760
1178.036, 60.13360
1178.518, 60.75566
1179.000, 61.83073
1179.482, 62.17867
1179.964, 62.12561
1180.447, 62.27020
1180.929, 62.60277
1181.411, 62.88737
1181.893, 63.03722
1182.375, 62.83178
1182.857, 61.65178
1183.339, 60.73966
1183.821, 61.08643
1184.303, 61.68309
1184.786, 61.81515
1185.268, 61.62710
1185.750, 61.25173
1186.232, 60.80495
1186.714, 60.68633
1187.196, 61.05415
1187.678, 61.49797
1188.160, 62.13610
1188.642, 62.58170
1189.125, 62.69944
1189.607, 62.59883
1190.089, 62.22893
1190.571, 61.76833
1191.053, 61.48594
1191.535, 61.38271
1192.017, 61.63094
1192.499, 62.54436
1192.982, 62.80159
1193.464, 62.07233
1193.946, 61.42749
1194.428, 61.17712
1194.910, 61.45201
1195.392, 62.55269
1195.874, 63.82536
1196.356, 63.49632
1196.839, 61.73415
1197.321, 60.85882
1197.803, 60.85344
1198.285, 61.69391
1198.767, 63.25292
1199.249, 64.05952
1199.731, 63.46343
1200.213, 62.51912
1200.695, 62.26274
1201.177, 62.31987
1201.660, 61.96737
1202.142, 61.52672
1202.624, 61.80858
1203.106, 62.49159
1203.588, 62.68921
1204.070, 62.32774
1204.552, 61.89774
1205.034, 61.59859
1205.517, 61.49981
1205.999, 62.03640
1206.481, 62.32932
1206.963, 61.27544
1207.445, 60.10491
1207.927, 60.17302
1208.409, 60.92221
1208.891, 61.25761
1209.374, 61.07339
1209.856, 60.93068
1210.338, 60.95966
1210.820, 61.01178
1211.302, 61.08590
1211.784, 61.14930
1212.266, 61.16701
1212.748, 61.18906
1213.230, 61.16657
1213.713, 61.23714
1214.195, 61.76960
1214.677, 62.77325
1215.159, 63.06831
1215.641, 62.43848
1216.123, 62.06347
1216.605, 62.09408
1217.087, 62.16751
1217.569, 62.18895
1218.052, 61.91875
1218.534, 61.08633
1219.016, 60.08564
1219.498, 59.55252
1219.980, 59.56453
1220.462, 61.11043
1220.944, 60.61340
1221.426, 63.58404
1221.909, 61.42289
1222.391, 60.37775
1222.873, 61.60723
1223.355, 62.91989
1223.837, 62.54979
1224.319, 61.74297
1224.801, 61.82522
1225.283, 62.11663
1225.766, 61.78788
1226.248, 61.18221
1226.730, 60.85048
1227.212, 60.78967
1227.694, 60.71333
1228.176, 60.53774
1228.658, 60.49266
1229.140, 60.75441
1229.622, 61.01040
1230.104, 61.09792
1230.587, 61.23478
1231.069, 61.56406
1231.551, 61.99336
1232.033, 62.52083
1232.515, 63.04594
1232.997, 63.18160
1233.479, 62.88031
1233.961, 62.37538
1234.444, 61.50515
1234.926, 61.10734
1235.408, 61.40051
1235.890, 61.83523
1236.372, 62.16972
1236.854, 62.36469
1237.336, 62.38105
1237.818, 62.21323
1238.301, 61.69960
1238.783, 61.01016
1239.265, 60.80924
1239.747, 61.04000
1240.229, 61.53984
1240.711, 62.13119
1241.193, 62.16095
1241.675, 61.35432
1242.157, 60.59066
1242.640, 60.68270
1243.122, 60.97234
1243.604, 60.92317
1244.086, 60.76167
1244.568, 60.60823
1245.050, 60.55841
1245.532, 60.85652
1246.014, 61.36833
1246.496, 61.49144
1246.979, 60.97499
1247.461, 60.70538
1247.943, 60.95196
1248.425, 61.27888
1248.907, 61.88514
1249.389, 62.13743
1249.871, 61.48343
1250.353, 60.70797
1250.836, 60.73042
1251.318, 60.47626
1251.800, 60.55851
1252.282, 60.89688
1252.764, 61.07054
1253.246, 61.90518
1253.728, 62.22126
1254.210, 61.82714
1254.693, 61.24447
1255.175, 60.71847
1255.657, 60.62893
1256.139, 61.51538
1256.621, 62.56297
1257.103, 62.45452
1257.585, 61.74966
1258.067, 61.11044
1258.549, 60.69856
1259.031, 60.87143
1259.514, 61.43983
1259.996, 61.78330
1260.478, 61.71777
1260.960, 61.36107
1261.442, 60.39227
1261.924, 59.69182
1262.406, 59.71045
1262.888, 59.89515
1263.371, 60.02217
1263.853, 60.11112
1264.335, 60.13301
1264.817, 60.16358
1265.299, 60.38952
1265.781, 60.81827
1266.263, 61.36017
1266.745, 62.09918
1267.228, 62.48565
1267.710, 62.42637
1268.192, 62.36772
1268.674, 62.47649
1269.156, 62.41303
1269.638, 61.87938
1270.120, 61.20650
1270.602, 60.89156
1271.084, 60.84866
1271.567, 60.98499
1272.049, 61.19615
1272.531, 61.32025
1273.013, 61.30257
1273.495, 60.92435
1273.977, 60.25912
1274.459, 60.02290
1274.941, 60.64259
1275.423, 61.32975
1275.906, 61.98318
1276.388, 62.26460
1276.870, 61.82956
1277.352, 61.15023
1277.834, 60.18172
1278.316, 59.46979
1278.798, 60.06960
1279.280, 61.69846
1279.763, 62.37308
1280.245, 61.84028
1280.727, 61.33864
1281.209, 60.85032
1281.691, 60.55723
1282.173, 60.48945
1282.655, 60.74895
1283.137, 61.40430
1283.620, 62.13589
1284.102, 62.68174
1284.584, 62.85171
1285.066, 62.36693
##END=



