##NAMES=Phurcalite
##RRUFFID=R060698
##IDEAL CHEMISTRY=Ca_2_(U^6+^O_2_)_3_O_2_(PO_4_)_2_&#183;7H_2_O
##LOCALITY=Los Azules, Copiapo, Chile
##OWNER=RRUFF
##SOURCE=Bob Jenkins
##DESCRIPTION=Divergent sprays of bright yellow acicular crystals
##STATUS=The identification of this mineral has been confirmed by single-crystal X-ray diffraction.
##URL=rruff.info/R060698
170.698, 236688.297
171.180, 236812.094
171.662, 236998.094
172.144, 237195.500
172.626, 237360.297
173.108, 237517.000
173.590, 237703.094
174.072, 237922.094
174.555, 238183.797
175.037, 238515.500
175.519, 238920.797
176.001, 239345.000
176.483, 239757.797
176.965, 240148.906
177.447, 240485.094
177.929, 240686.094
178.412, 240837.203
178.894, 241090.000
179.376, 241469.797
179.858, 241866.203
180.340, 242129.406
180.822, 242286.703
181.304, 242470.500
181.786, 242773.797
182.268, 243154.203
182.751, 243511.406
183.233, 243824.000
183.715, 244126.000
184.197, 244487.703
184.679, 244900.203
185.161, 245254.203
185.643, 245417.797
186.125, 245448.094
186.607, 245587.094
187.090, 245907.703
187.572, 246295.094
188.054, 246512.406
188.536, 246555.500
189.018, 246603.797
189.500, 246864.094
189.982, 247284.906
190.464, 247538.297
190.947, 247506.594
191.429, 247301.297
191.911, 247218.703
192.393, 247268.406
192.875, 247372.203
193.357, 247489.594
193.839, 247620.500
194.321, 247702.797
194.803, 247716.500
195.286, 247676.406
195.768, 247634.000
196.250, 247590.797
196.732, 247553.000
197.214, 247514.000
197.696, 247474.094
198.178, 247492.094
198.661, 247602.906
199.143, 247796.094
199.625, 247970.500
200.107, 248123.906
200.589, 248278.000
201.071, 248467.703
201.553, 248701.203
202.035, 248914.594
202.517, 249055.797
202.999, 249126.094
203.482, 249303.594
203.964, 249593.406
204.446, 249962.594
204.928, 250385.406
205.410, 250872.500
205.892, 251327.594
206.374, 251711.094
206.857, 252018.406
207.339, 252248.297
207.821, 252384.594
208.303, 252452.906
208.785, 252501.906
209.267, 252542.594
209.749, 252538.000
210.231, 252466.297
210.713, 252319.297
211.195, 252198.000
211.678, 252111.000
212.160, 252064.500
212.642, 252075.797
213.124, 252178.906
213.606, 252286.000
214.088, 252350.906
214.570, 252349.797
215.052, 252415.000
215.535, 252562.906
216.017, 252769.094
216.499, 252964.703
216.981, 253123.203
217.463, 253306.000
217.945, 253561.594
218.427, 253944.703
218.909, 254174.000
219.391, 254141.797
219.874, 253961.406
220.356, 254028.500
220.838, 254482.500
221.320, 254932.703
221.802, 255151.594
222.284, 255042.594
222.766, 254972.797
223.248, 254987.094
223.730, 255063.000
224.213, 255094.906
224.695, 255067.594
225.177, 255039.797
225.659, 255029.797
226.141, 254983.500
226.623, 255115.797
227.105, 255546.500
227.587, 256180.094
228.070, 256534.797
228.552, 256444.703
229.034, 256289.594
229.516, 256308.000
229.998, 256571.703
230.480, 256838.094
230.962, 257106.406
231.444, 257358.094
231.926, 257483.203
232.409, 257416.094
232.891, 257300.297
233.373, 257223.000
233.855, 257172.000
234.337, 257195.797
234.819, 257339.906
235.301, 257584.203
235.783, 257728.203
236.266, 257733.906
236.748, 257691.703
237.230, 257661.203
237.712, 257632.000
238.194, 257643.703
238.676, 257711.500
239.158, 257832.500
239.640, 257965.906
240.122, 258132.703
240.605, 258292.797
241.087, 258407.000
241.569, 258421.594
242.051, 258507.000
242.533, 258718.500
243.015, 259041.797
243.497, 259277.906
243.980, 259320.797
244.462, 259390.406
244.944, 259684.094
245.426, 260372.000
245.908, 260922.594
246.390, 261219.906
246.872, 261270.094
247.354, 261328.203
247.836, 261373.906
248.318, 261430.297
248.801, 261523.094
249.283, 261686.203
249.765, 261802.906
250.247, 261863.594
250.729, 261869.094
251.211, 261796.594
251.693, 261625.203
252.176, 261424.203
252.658, 261262.500
253.140, 261198.906
253.622, 261078.203
254.104, 260853.297
254.586, 260543.203
255.068, 260365.297
255.550, 260387.406
256.032, 260468.203
256.514, 260481.906
256.997, 260375.797
257.479, 260337.203
257.961, 260406.000
258.443, 260573.500
258.925, 260728.000
259.407, 260839.203
259.889, 260962.703
260.371, 261151.094
260.853, 261427.297
261.336, 261669.406
261.818, 261806.203
262.300, 261859.297
262.782, 262161.906
263.264, 262863.906
263.746, 263542.688
264.228, 263767.312
264.711, 263328.094
265.193, 263111.594
265.675, 263346.000
266.157, 263947.906
266.639, 264287.312
267.121, 264295.906
267.603, 264169.688
268.085, 264049.312
268.567, 263935.406
269.050, 263849.406
269.532, 263800.688
270.014, 263790.000
270.496, 263826.406
270.978, 263952.312
271.460, 264041.000
271.942, 263968.312
272.424, 263697.812
272.906, 263491.000
273.389, 263402.500
273.871, 263410.094
274.353, 263384.906
274.835, 263299.688
275.317, 263270.094
275.799, 263419.688
276.281, 263774.812
276.763, 264058.188
277.246, 264208.688
277.728, 264262.094
278.210, 264348.188
278.692, 264469.688
279.174, 264594.500
279.656, 264696.500
280.138, 264772.312
280.620, 264824.688
281.103, 264820.688
281.585, 264812.094
282.067, 264993.594
282.549, 265393.500
283.031, 265757.312
283.513, 265826.500
283.995, 265623.312
284.477, 265643.688
284.959, 266050.000
285.441, 266589.000
285.924, 266635.094
286.406, 266168.188
286.888, 265661.688
287.370, 265469.000
287.852, 265544.812
288.334, 265505.094
288.816, 265271.812
289.298, 264973.906
289.781, 264841.594
290.263, 264871.500
290.745, 264951.312
291.227, 265037.688
291.709, 265119.406
292.191, 265154.812
292.673, 265135.812
293.155, 265073.406
293.638, 264978.500
294.120, 264853.094
294.602, 264708.906
295.084, 264552.594
295.566, 264384.500
296.048, 264202.094
296.530, 264000.406
297.012, 263820.906
297.494, 263734.188
297.977, 263729.312
298.459, 263743.688
298.941, 263730.812
299.423, 263728.812
299.905, 263804.406
300.387, 263969.906
300.869, 264186.312
301.351, 264424.812
301.833, 264680.000
302.316, 264937.312
302.798, 265122.000
303.280, 265318.500
303.762, 265670.594
304.244, 266185.000
304.726, 266696.594
305.208, 267075.312
305.690, 267330.406
306.172, 267492.688
306.655, 267464.000
307.137, 267400.812
307.619, 267483.594
308.101, 267715.812
308.583, 267932.688
309.065, 268007.500
309.547, 268005.906
310.030, 268016.906
310.512, 268194.812
310.994, 268323.594
311.476, 268211.594
311.958, 267877.406
312.440, 267543.312
312.922, 267298.906
313.404, 267128.500
313.886, 267013.812
314.369, 266979.500
314.851, 266972.312
315.333, 267011.812
315.815, 267079.812
316.297, 267058.406
316.779, 266792.312
317.261, 266477.000
317.743, 266260.500
318.225, 266245.000
318.708, 266261.812
319.190, 266294.000
319.672, 266328.812
320.154, 266309.812
320.636, 266079.406
321.118, 265892.094
321.600, 265903.500
322.082, 266300.500
322.565, 266647.188
323.047, 266835.906
323.529, 266908.000
324.011, 266973.094
324.493, 267015.812
324.975, 267071.000
325.457, 267142.312
325.939, 267181.406
326.422, 267321.906
326.904, 267709.312
327.386, 268186.594
327.868, 268449.500
328.350, 268302.000
328.832, 268133.500
329.314, 268055.812
329.796, 268108.688
330.278, 268121.406
330.760, 268062.812
331.243, 267983.188
331.725, 267947.812
332.207, 267966.094
332.689, 268026.312
333.171, 268150.812
333.653, 268356.312
334.135, 268472.000
334.617, 268471.688
335.100, 268415.406
335.582, 268365.906
336.064, 268341.188
336.546, 268287.406
337.028, 268174.688
337.510, 268015.312
337.992, 267931.406
338.474, 267935.406
338.957, 267977.406
339.439, 268008.188
339.921, 268013.406
340.403, 268067.594
340.885, 268210.906
341.367, 268388.000
341.849, 268395.094
342.331, 268205.500
342.813, 267991.906
343.296, 267894.094
343.778, 267908.188
344.260, 267845.500
344.742, 267669.812
345.224, 267456.312
345.706, 267336.094
346.188, 267314.500
346.670, 267374.500
347.152, 267556.000
347.635, 267826.812
348.117, 268036.094
348.599, 268165.406
349.081, 268264.688
349.563, 268387.812
350.045, 268523.406
350.527, 268648.906
351.009, 268700.906
351.491, 268734.594
351.974, 268880.312
352.456, 269144.500
352.938, 269371.500
353.420, 269370.094
353.902, 269230.594
354.384, 269129.406
354.866, 269215.312
355.349, 269326.688
355.831, 269317.688
356.313, 269198.812
356.795, 269020.688
357.277, 268780.594
357.759, 268525.094
358.241, 268307.094
358.723, 268138.188
359.205, 268028.312
359.688, 268034.000
360.170, 268121.312
360.652, 268152.312
361.134, 268031.906
361.616, 267852.188
362.098, 267652.188
362.580, 267346.500
363.062, 267190.312
363.544, 267382.312
364.027, 267770.688
364.509, 268040.188
364.991, 268052.500
365.473, 267976.688
365.955, 267865.906
366.437, 267705.188
366.919, 267571.500
367.401, 267492.406
367.884, 267444.812
368.366, 267396.812
368.848, 267346.312
369.330, 267307.594
369.812, 267267.500
370.294, 267218.312
370.776, 267279.000
371.258, 267542.688
371.741, 267839.594
372.223, 268011.812
372.705, 267969.188
373.187, 267979.500
373.669, 268082.812
374.151, 268264.688
374.633, 268454.688
375.115, 268666.406
375.597, 268841.406
376.079, 268935.500
376.562, 268939.406
377.044, 268886.500
377.526, 268760.906
378.008, 268595.000
378.490, 268460.312
378.972, 268357.688
379.454, 268288.188
379.936, 268284.812
380.419, 268339.094
380.901, 268324.094
381.383, 268237.500
381.865, 268112.406
382.347, 267949.812
382.829, 267771.500
383.311, 267702.000
383.793, 267881.094
384.276, 268176.906
384.758, 268265.094
385.240, 268143.406
385.722, 268052.312
386.204, 268255.906
386.686, 268627.094
387.168, 268904.188
387.650, 268945.406
388.132, 268931.188
388.615, 269061.000
389.097, 269296.812
389.579, 269494.094
390.061, 269535.094
390.543, 269501.812
391.025, 269466.812
391.507, 269436.594
391.989, 269425.406
392.471, 269510.188
392.954, 269623.000
393.436, 269632.500
393.918, 269409.594
394.400, 269154.906
394.882, 268982.406
395.364, 268925.906
395.846, 268843.312
396.328, 268668.906
396.810, 268469.812
397.293, 268313.094
397.775, 268248.406
398.257, 268181.812
398.739, 268051.188
399.221, 267858.500
399.703, 267798.812
400.185, 268007.812
400.668, 268223.500
401.150, 268284.312
401.632, 268038.500
402.114, 267910.000
402.596, 267965.906
403.078, 268139.000
403.560, 268261.812
404.042, 268369.312
404.524, 268355.594
405.007, 268110.812
405.489, 267577.594
405.971, 267330.094
406.453, 267460.812
406.935, 267710.812
407.417, 267675.094
407.899, 267328.406
408.381, 267093.406
408.863, 267150.906
409.346, 267410.406
409.828, 267514.188
410.310, 267452.594
410.792, 267377.312
411.274, 267436.406
411.756, 267596.094
412.238, 267742.812
412.720, 267863.688
413.203, 267948.500
413.685, 267959.500
414.167, 267913.094
414.649, 267882.000
415.131, 267936.000
415.613, 268014.594
416.095, 268023.312
416.577, 267932.312
417.060, 267868.812
417.542, 267959.594
418.024, 268123.906
418.506, 268239.594
418.988, 268240.188
419.470, 268187.188
419.952, 268113.312
420.434, 268017.000
420.916, 267876.906
421.398, 267626.812
421.881, 267369.500
422.363, 267178.812
422.845, 267187.312
423.327, 267142.312
423.809, 266977.094
424.291, 266735.906
424.773, 266549.312
425.255, 266524.594
425.738, 266463.688
426.220, 266272.000
426.702, 265856.906
427.184, 265613.500
427.666, 265616.812
428.148, 265729.594
428.630, 265769.406
429.112, 265706.812
429.595, 265638.188
430.077, 265572.000
430.559, 265510.312
431.041, 265514.688
431.523, 265606.312
432.005, 265675.594
432.487, 265608.094
432.969, 265410.812
433.451, 265272.594
433.934, 265247.094
434.416, 265245.094
434.898, 265092.188
435.380, 264803.000
435.862, 264506.500
436.344, 264236.906
436.826, 264024.406
437.308, 263977.594
437.790, 264119.406
438.273, 264232.906
438.755, 264045.812
439.237, 263705.000
439.719, 263470.094
440.201, 263509.812
440.683, 263616.312
441.165, 263663.500
441.647, 263650.594
442.129, 263586.594
442.612, 263438.188
443.094, 263258.000
443.576, 263080.406
444.058, 262911.094
444.540, 262743.812
445.022, 262558.812
445.504, 262376.812
445.987, 262236.688
446.469, 262263.312
446.951, 262219.312
447.433, 262003.406
447.915, 261598.000
448.397, 261286.406
448.879, 261116.594
449.361, 261003.906
449.843, 260888.594
450.326, 260786.000
450.808, 260634.297
451.290, 260384.500
451.772, 260095.797
452.254, 259989.906
452.736, 260105.203
453.218, 260225.906
453.700, 260234.406
454.182, 260132.406
454.665, 260009.797
455.147, 259862.203
455.629, 259711.797
456.111, 259593.500
456.593, 259501.703
457.075, 259410.000
457.557, 259335.094
458.039, 259239.594
458.522, 259033.594
459.004, 258731.297
459.486, 258458.500
459.968, 258362.297
460.450, 258319.297
460.932, 258156.906
461.414, 257785.000
461.896, 257463.406
462.379, 257431.594
462.861, 257555.703
463.343, 257601.094
463.825, 257364.797
464.307, 257132.297
464.789, 257049.000
465.271, 257127.500
465.753, 257181.000
466.235, 257165.703
466.717, 257113.094
467.200, 257044.000
467.682, 256914.094
468.164, 256827.797
468.646, 256808.203
469.128, 256830.000
469.610, 256822.297
470.092, 256757.797
470.574, 256703.594
471.057, 256686.406
471.539, 256707.203
472.021, 256719.203
472.503, 256732.000
472.985, 256700.703
473.467, 256550.406
473.949, 256280.094
474.431, 256035.094
474.914, 255861.000
475.396, 255721.297
475.878, 255560.203
476.360, 255377.703
476.842, 255144.203
477.324, 254799.500
477.806, 254413.094
478.288, 254104.297
478.770, 253895.906
479.253, 253742.203
479.735, 253600.906
480.217, 253497.406
480.699, 253468.500
481.181, 253618.797
481.663, 253768.000
482.145, 253764.906
482.627, 253643.406
483.109, 253624.500
483.592, 253858.000
484.074, 254147.906
484.556, 254382.406
485.038, 254562.906
485.520, 254629.000
486.002, 254434.094
486.484, 254150.406
486.966, 254024.406
487.448, 254183.906
487.931, 254294.000
488.413, 254297.797
488.895, 254198.594
489.377, 253972.594
489.859, 253584.797
490.341, 253189.703
490.823, 252927.703
491.306, 252815.000
491.788, 252623.797
492.270, 252317.094
492.752, 251989.500
493.234, 251812.000
493.716, 251768.297
494.198, 251712.094
494.680, 251550.406
495.162, 251342.594
495.645, 251195.000
496.127, 251099.203
496.609, 251003.203
497.091, 250859.406
497.573, 250690.500
498.055, 250518.000
498.537, 250335.500
499.019, 250173.797
499.501, 250055.297
499.984, 249972.703
500.466, 249909.906
500.948, 249893.906
501.430, 249876.000
501.912, 249859.594
502.394, 249853.406
502.876, 249766.594
503.358, 249467.297
503.841, 249184.297
504.323, 249070.594
504.805, 249246.703
505.287, 249334.594
505.769, 249263.906
506.251, 249117.797
506.733, 249082.906
507.215, 249176.406
507.697, 249289.500
508.180, 249409.297
508.662, 249518.594
509.144, 249471.906
509.626, 249253.500
510.108, 249055.703
510.590, 249155.203
511.072, 249432.500
511.554, 249478.500
512.036, 249155.797
512.519, 248751.594
513.001, 248594.000
513.483, 248611.203
513.965, 248619.406
514.447, 248460.500
514.929, 248314.500
515.411, 248340.594
515.893, 248537.500
516.375, 248691.000
516.858, 248667.703
517.340, 248589.906
517.822, 248544.594
518.304, 248554.297
518.786, 248574.094
519.268, 248640.500
519.750, 248701.406
520.232, 248649.500
520.715, 248339.797
521.197, 248154.797
521.679, 248244.703
522.161, 248598.906
522.643, 248811.500
523.125, 248867.594
523.607, 248833.797
524.089, 248754.594
524.571, 248632.797
525.054, 248451.000
525.536, 248182.594
526.018, 247924.906
526.500, 247863.406
526.982, 247950.703
527.464, 247999.797
527.946, 247900.094
528.429, 247730.906
528.911, 247563.703
529.393, 247402.297
529.875, 247274.906
530.357, 247282.797
530.839, 247283.797
531.321, 247132.203
531.803, 246720.094
532.285, 246377.297
532.768, 246296.000
533.250, 246325.000
533.732, 246258.094
534.214, 245993.906
534.696, 245719.500
535.178, 245455.797
535.660, 245209.594
536.142, 245017.297
536.625, 244892.594
537.107, 244805.203
537.589, 244753.500
538.071, 244750.500
538.553, 244697.797
539.035, 244583.906
539.517, 244453.297
539.999, 244332.500
540.481, 244228.797
540.964, 244228.406
541.446, 244398.203
541.928, 244625.203
542.410, 244717.297
542.892, 244694.203
543.374, 244655.000
543.856, 244615.203
544.338, 244605.594
544.820, 244689.094
545.303, 244880.594
545.785, 244998.797
546.267, 244901.094
546.749, 244713.500
547.231, 244554.500
547.713, 244501.906
548.195, 244420.703
548.677, 244258.797
549.159, 244060.094
549.642, 243937.000
550.124, 243971.500
550.606, 243965.297
551.088, 243847.297
551.570, 243617.703
552.052, 243416.594
552.534, 243250.297
553.016, 243096.797
553.499, 242937.406
553.981, 242774.203
554.463, 242612.594
554.945, 242453.500
555.427, 242297.500
555.909, 242134.906
556.391, 241974.703
556.873, 241846.094
557.356, 241809.500
557.838, 241780.406
558.320, 241658.297
558.802, 241463.297
559.284, 241293.000
559.766, 241210.297
560.248, 241164.594
560.730, 241128.297
561.213, 241108.000
561.695, 241067.000
562.177, 240934.406
562.659, 240805.500
563.141, 240786.094
563.623, 240958.500
564.105, 241099.406
564.587, 241185.094
565.069, 241213.000
565.552, 241156.906
566.034, 240982.406
566.516, 240843.703
566.998, 240838.406
567.480, 240939.797
567.962, 240948.594
568.444, 240857.203
568.926, 240759.203
569.408, 240766.703
569.891, 240831.703
570.373, 240856.094
570.855, 240831.500
571.337, 240735.000
571.819, 240455.203
572.301, 240101.203
572.783, 239866.203
573.265, 239987.297
573.747, 240096.406
574.230, 240004.297
574.712, 239728.406
575.194, 239484.203
575.676, 239319.000
576.158, 239183.406
576.640, 239067.500
577.122, 238995.500
577.604, 238877.797
578.086, 238726.906
578.569, 238527.703
579.051, 238229.094
579.533, 237816.406
580.015, 237494.906
580.497, 237309.000
580.979, 237230.906
581.461, 237225.297
581.943, 237287.203
582.426, 237376.297
582.908, 237540.297
583.390, 237684.203
583.872, 237623.203
584.354, 237367.906
584.836, 237163.406
585.318, 237206.500
585.800, 237334.594
586.282, 237416.406
586.765, 237425.500
587.247, 237380.906
587.729, 237229.797
588.211, 237044.094
588.693, 236925.094
589.175, 236939.594
589.657, 236927.094
590.140, 236855.797
590.622, 236744.094
591.104, 236675.094
591.586, 236673.297
592.068, 236630.297
592.550, 236467.203
593.032, 236204.094
593.514, 236008.203
593.996, 235883.094
594.479, 235807.406
594.961, 235855.703
595.443, 235926.703
595.925, 235776.406
596.407, 235276.297
596.889, 234786.906
597.371, 234605.594
597.853, 234624.000
598.335, 234670.406
598.818, 234789.203
599.300, 234820.000
599.782, 234615.594
600.264, 234230.594
600.746, 234038.500
601.228, 234263.297
601.710, 234452.703
602.192, 234408.297
602.674, 234083.297
603.157, 233909.703
603.639, 233927.703
604.121, 234006.203
604.603, 234028.500
605.085, 233996.703
605.567, 233961.297
606.049, 233923.406
606.531, 233896.297
607.013, 233944.297
607.496, 234023.094
607.978, 234007.406
608.460, 233709.203
608.942, 233402.500
609.424, 233346.703
609.906, 233487.000
610.388, 233599.703
610.870, 233610.594
611.353, 233552.297
611.835, 233415.594
612.317, 233168.297
612.799, 233000.500
613.281, 233003.500
613.763, 233014.094
614.245, 232905.594
614.727, 232643.906
615.209, 232399.000
615.692, 232184.703
616.174, 232001.406
616.656, 231844.203
617.138, 231715.906
617.620, 231633.000
618.102, 231627.297
618.584, 231644.406
619.067, 231569.406
619.549, 231425.703
620.031, 231320.406
620.513, 231330.797
620.995, 231390.797
621.477, 231473.297
621.959, 231575.797
622.441, 231598.703
622.923, 231394.000
623.406, 231163.906
623.888, 231056.703
624.370, 231185.203
624.852, 231246.297
625.334, 231223.594
625.816, 231144.094
626.298, 231057.500
626.780, 230982.406
627.263, 230787.000
627.745, 230388.797
628.227, 229914.094
628.709, 229708.594
629.191, 229743.906
629.673, 229731.797
630.155, 229466.906
630.637, 229095.500
631.119, 228789.703
631.602, 228556.500
632.084, 228409.203
632.566, 228522.000
633.048, 228619.000
633.530, 228454.000
634.012, 227872.297
634.494, 227414.797
634.976, 227269.000
635.458, 227248.094
635.941, 227168.203
636.423, 226966.406
636.905, 226845.406
637.387, 226870.203
637.869, 226939.297
638.351, 226791.406
638.833, 226410.500
639.315, 226128.500
639.797, 226121.094
640.280, 226252.500
640.762, 226216.297
641.244, 226034.594
641.726, 225858.000
642.208, 225817.703
642.690, 225808.500
643.172, 225727.406
643.654, 225565.297
644.137, 225400.906
644.619, 225238.203
645.101, 225113.703
645.583, 225061.000
646.065, 225203.094
646.547, 225215.703
647.029, 224988.906
647.511, 224713.297
647.994, 224671.500
648.476, 224912.203
648.958, 225106.906
649.440, 225162.797
649.922, 225149.000
650.404, 225237.797
650.886, 225407.906
651.368, 225541.703
651.851, 225591.094
652.333, 225555.797
652.815, 225399.906
653.297, 225141.203
653.779, 224900.906
654.261, 224811.094
654.743, 224719.797
655.225, 224505.000
655.707, 224108.500
656.190, 223814.797
656.672, 223722.406
657.154, 223698.797
657.636, 223662.500
658.118, 223637.203
658.600, 223519.500
659.082, 223270.703
659.564, 222977.094
660.046, 222776.594
660.529, 222661.203
661.011, 222583.703
661.493, 222566.297
661.975, 222527.000
662.457, 222311.406
662.939, 221970.797
663.421, 221660.094
663.903, 221481.797
664.385, 221355.000
664.868, 221241.406
665.350, 221143.203
665.832, 221062.906
666.314, 221015.000
666.796, 220978.500
667.278, 220950.703
667.760, 220940.406
668.242, 220851.594
668.724, 220621.094
669.207, 220409.406
669.689, 220382.906
670.171, 220526.297
670.653, 220605.500
671.135, 220582.797
671.617, 220496.000
672.099, 220387.906
672.581, 220252.297
673.064, 220079.203
673.546, 219864.094
674.028, 219627.703
674.510, 219415.594
674.992, 219202.203
675.474, 218929.297
675.956, 218500.297
676.438, 218115.094
676.920, 217866.000
677.403, 217736.000
677.885, 217584.500
678.367, 217406.906
678.849, 217233.906
679.331, 217057.406
679.813, 216884.500
680.295, 216846.500
680.778, 216945.594
681.260, 217052.406
681.742, 217020.094
682.224, 216915.094
682.706, 216873.094
683.188, 216911.500
683.670, 216961.797
684.152, 216992.703
684.634, 216998.797
685.117, 216974.906
685.599, 216908.297
686.081, 216830.297
686.563, 216800.297
687.045, 216746.203
687.527, 216546.500
688.009, 216123.703
688.491, 215774.297
688.973, 215562.000
689.456, 215461.797
689.938, 215442.094
690.420, 215499.297
690.902, 215518.797
691.384, 215403.094
691.866, 215237.203
692.348, 215143.094
692.830, 215111.594
693.312, 215107.000
693.795, 215167.500
694.277, 215195.203
694.759, 215103.500
695.241, 214867.000
695.723, 214657.000
696.205, 214526.297
696.687, 214396.500
697.169, 214221.297
697.652, 213985.000
698.134, 213771.797
698.616, 213592.703
699.098, 213422.406
699.580, 213254.000
700.062, 213080.203
700.544, 212823.797
701.026, 212448.703
701.508, 212074.797
701.991, 211838.203
702.473, 211693.906
702.955, 211558.094
703.437, 211361.797
703.919, 211208.500
704.401, 211168.297
704.883, 211197.797
705.365, 211184.500
705.847, 211125.094
706.330, 211004.703
706.812, 210784.797
707.294, 210497.203
707.776, 210328.500
708.258, 210295.000
708.740, 210257.797
709.222, 210142.594
709.705, 209969.203
710.187, 209781.797
710.669, 209584.500
711.151, 209422.000
711.633, 209392.094
712.115, 209371.797
712.597, 209220.500
713.079, 208895.594
713.561, 208646.406
714.044, 208564.594
714.526, 208573.094
715.008, 208623.906
715.490, 208763.203
715.972, 208819.703
716.454, 208771.906
716.936, 208669.406
717.418, 208551.594
717.901, 208419.000
718.383, 208341.000
718.865, 208341.703
719.347, 208356.000
719.829, 208312.094
720.311, 208221.797
720.793, 208107.500
721.275, 207964.703
721.757, 207819.094
722.240, 207645.703
722.722, 207479.703
723.204, 207403.703
723.686, 207531.594
724.168, 207623.203
724.650, 207639.797
725.132, 207583.094
725.614, 207442.703
726.096, 207200.906
726.579, 206981.094
727.061, 206871.594
727.543, 206817.203
728.025, 206652.500
728.507, 206390.000
728.989, 206143.797
729.471, 206000.906
729.953, 205904.297
730.435, 205815.203
730.918, 205731.797
731.400, 205653.406
731.882, 205633.703
732.364, 205578.406
732.846, 205417.297
733.328, 205094.000
733.810, 204890.797
734.292, 204847.906
734.775, 204827.594
735.257, 204665.000
735.739, 204386.406
736.221, 204220.594
736.703, 204212.703
737.185, 204213.703
737.667, 204051.000
738.149, 203801.906
738.631, 203582.703
739.114, 203431.094
739.596, 203309.594
740.078, 203227.203
740.560, 203166.203
741.042, 203098.703
741.524, 203012.297
742.006, 202953.594
742.489, 202937.094
742.971, 202949.297
743.453, 202953.094
743.935, 202946.000
744.417, 202963.406
744.899, 203022.797
745.381, 203090.500
745.863, 203111.297
746.345, 203088.594
746.828, 203049.906
747.310, 202974.797
747.792, 202905.594
748.274, 202880.500
748.756, 202887.203
749.238, 202850.297
749.720, 202815.703
750.202, 202671.500
750.684, 202332.797
751.167, 201833.406
751.649, 201569.703
752.131, 201591.594
752.613, 201585.203
753.095, 201287.203
753.577, 200833.297
754.059, 200525.203
754.541, 200372.000
755.023, 200297.000
755.506, 200276.297
755.988, 200285.797
756.470, 200315.500
756.952, 200369.500
757.434, 200370.594
757.916, 200292.703
758.398, 200153.094
758.880, 199946.500
759.362, 199648.500
759.845, 199383.094
760.327, 199157.203
760.809, 198945.594
761.291, 198730.406
761.773, 198512.500
762.255, 198274.297
762.737, 198007.297
763.219, 197797.703
763.702, 197763.797
764.184, 197820.797
764.666, 197867.703
765.148, 197915.500
765.630, 197900.297
766.112, 197729.500
766.594, 197529.797
767.076, 197449.000
767.558, 197501.703
768.041, 197601.500
768.523, 197750.000
769.005, 197892.203
769.487, 197897.094
769.969, 197799.906
770.451, 197769.594
770.933, 197885.594
771.416, 198044.594
771.898, 198236.500
772.380, 198395.594
772.862, 198392.906
773.344, 198012.000
773.826, 197672.594
774.308, 197525.797
774.790, 197495.297
775.272, 197359.297
775.755, 197090.500
776.237, 196851.594
776.719, 196693.297
777.201, 196607.797
777.683, 196622.797
778.165, 196713.500
778.647, 196723.500
779.129, 196436.203
779.612, 196136.797
780.094, 196120.297
780.576, 196321.797
781.058, 196443.000
781.540, 196268.797
782.022, 196121.500
782.504, 196128.000
782.986, 196266.297
783.468, 196314.906
783.951, 196247.906
784.433, 196178.297
784.915, 196149.594
785.397, 196164.594
785.879, 196283.594
786.361, 196491.906
786.843, 196615.797
787.325, 196414.297
787.807, 196177.906
788.290, 196186.703
788.772, 196461.906
789.254, 196692.000
789.736, 196771.000
790.218, 196821.406
790.700, 196883.703
791.182, 196953.203
791.664, 197072.703
792.146, 197235.000
792.629, 197469.203
793.111, 197847.094
793.593, 198304.406
794.075, 198677.297
794.557, 198953.297
795.039, 199120.594
795.521, 199010.000
796.003, 198893.797
796.485, 199024.797
796.968, 199498.500
797.450, 199951.094
797.932, 200407.906
798.414, 200773.594
798.896, 200935.094
799.378, 200851.000
799.860, 200965.797
800.343, 201316.594
800.825, 201711.906
801.307, 201934.797
801.789, 202075.500
802.271, 202322.594
802.753, 202710.500
803.235, 203127.797
803.717, 203528.500
804.199, 203909.797
804.682, 204279.594
805.164, 204673.906
805.646, 204961.000
806.128, 205113.297
806.610, 205191.703
807.092, 205253.797
807.574, 205299.500
808.056, 205309.500
808.539, 205292.297
809.021, 205183.703
809.503, 204884.406
809.985, 204460.406
810.467, 204005.000
810.949, 203537.406
811.431, 203043.000
811.913, 202591.000
812.395, 202064.797
812.878, 201326.500
813.360, 200184.297
813.842, 199260.406
814.324, 198619.500
814.806, 198116.703
815.288, 197618.906
815.770, 197114.906
816.252, 196511.906
816.734, 195763.203
817.217, 195046.703
817.699, 194561.094
818.181, 194194.906
818.663, 193812.594
819.145, 193367.000
819.627, 192935.500
820.109, 192516.406
820.591, 192130.000
821.073, 191802.094
821.556, 191540.000
822.038, 191329.000
822.520, 191183.906
823.002, 191053.094
823.484, 190846.703
823.966, 190602.500
824.448, 190416.203
824.930, 190317.703
825.412, 190256.703
825.895, 190248.203
826.377, 190232.297
826.859, 190140.797
827.341, 189829.703
827.823, 189615.500
828.305, 189500.406
828.787, 189477.500
829.269, 189622.406
829.752, 189928.406
830.234, 189917.297
830.716, 189454.000
831.198, 188924.906
831.680, 188853.500
832.162, 189005.203
832.644, 188991.000
833.127, 188615.203
833.609, 188281.000
834.091, 188153.203
834.573, 188128.703
835.055, 188092.797
835.537, 188067.000
836.019, 187950.094
836.501, 187684.594
836.983, 187442.797
837.466, 187538.594
837.948, 187853.797
838.430, 187891.094
838.912, 187476.406
839.394, 187089.297
839.876, 187221.406
840.358, 187542.406
840.840, 187660.094
841.322, 187341.297
841.805, 187090.594
842.287, 186950.594
842.769, 186878.797
843.251, 186844.000
843.733, 186847.906
844.215, 186825.000
844.697, 186757.797
845.179, 186708.297
845.661, 186798.406
846.144, 186933.703
846.626, 186950.297
847.108, 186778.500
847.590, 186606.094
848.072, 186520.000
848.554, 186459.906
849.036, 186368.594
849.518, 186226.594
850.000, 186102.500
850.483, 185997.203
850.965, 185914.203
851.447, 185896.000
851.929, 185910.000
852.411, 185817.094
852.893, 185593.797
853.375, 185363.297
853.857, 185203.406
854.340, 185099.094
854.822, 185055.203
855.304, 185126.297
855.786, 185091.797
856.268, 184864.703
856.750, 184628.297
857.232, 184531.406
857.714, 184574.203
858.196, 184564.406
858.679, 184483.406
859.161, 184467.406
859.643, 184706.094
860.125, 185043.594
860.607, 185308.500
861.089, 185478.906
861.571, 185506.094
862.054, 185216.906
862.536, 184900.297
863.018, 184728.000
863.500, 184712.094
863.982, 184738.297
864.464, 184820.094
864.946, 184886.906
865.428, 184902.297
865.910, 184862.500
866.393, 184732.094
866.875, 184516.906
867.357, 184319.594
867.839, 184234.594
868.321, 184159.203
868.803, 184027.094
869.285, 183831.203
869.767, 183641.703
870.250, 183448.094
870.732, 183293.594
871.214, 183202.703
871.696, 183173.500
872.178, 183227.906
872.660, 183356.203
873.142, 183431.703
873.624, 183305.297
874.106, 183146.406
874.589, 183108.000
875.071, 183173.297
875.553, 183213.094
876.035, 183164.703
876.517, 183113.297
876.999, 183063.297
877.481, 183023.797
877.963, 183063.906
878.445, 183184.906
878.928, 183281.094
879.410, 183299.797
879.892, 183276.297
880.374, 183262.203
880.856, 183246.703
881.338, 183198.094
881.820, 183066.703
882.302, 182949.297
882.784, 182884.703
883.267, 182854.000
883.749, 182813.406
884.231, 182758.797
884.713, 182708.703
885.195, 182650.000
885.677, 182627.297
886.159, 182793.203
886.641, 183048.094
887.123, 183147.797
887.606, 182871.906
888.088, 182631.406
888.570, 182677.203
889.052, 182843.000
889.534, 182868.000
890.016, 182662.594
890.498, 182544.797
890.981, 182539.703
891.463, 182638.906
891.945, 182881.406
892.427, 183219.094
892.909, 183503.094
893.391, 183705.906
893.873, 183815.406
894.355, 183751.500
894.837, 183623.000
895.320, 183539.203
895.802, 183547.797
896.284, 183491.906
896.766, 183312.094
897.248, 183158.703
897.730, 183240.297
898.212, 183493.094
898.694, 183460.297
899.177, 183114.906
899.659, 182754.406
900.141, 182646.203
900.623, 182621.297
901.105, 182549.406
901.587, 182423.906
902.069, 182230.594
902.551, 181906.500
903.033, 181626.297
903.516, 181507.500
903.998, 181521.797
904.480, 181357.594
904.962, 181019.297
905.444, 180775.094
905.926, 180879.797
906.408, 181084.703
906.890, 181142.797
907.372, 181071.094
907.855, 180987.094
908.337, 180880.500
908.819, 180820.406
909.301, 180859.500
909.783, 180944.703
910.265, 180858.203
910.747, 180600.000
911.229, 180424.703
911.711, 180463.297
912.194, 180574.797
912.676, 180628.703
913.158, 180617.797
913.640, 180527.500
914.122, 180247.297
914.604, 180015.797
915.086, 179874.297
915.568, 179802.203
916.050, 179795.703
916.533, 179865.000
917.015, 179872.406
917.497, 179787.703
917.979, 179686.000
918.461, 179683.094
918.943, 179716.594
919.425, 179667.500
919.907, 179452.906
920.390, 179349.094
920.872, 179544.406
921.354, 179801.203
921.836, 179950.000
922.318, 179963.203
922.800, 180018.594
923.282, 180114.000
923.764, 180241.406
924.247, 180448.500
924.729, 180648.094
925.211, 180656.500
925.693, 180470.797
926.175, 180368.203
926.657, 180579.500
927.139, 180779.203
927.621, 180788.203
928.104, 180635.406
928.586, 180635.297
929.068, 180816.203
929.550, 180932.500
930.032, 180843.500
930.514, 180644.000
930.996, 180441.906
931.478, 180260.797
931.960, 180152.094
932.443, 180227.500
932.925, 180283.906
933.407, 180292.906
933.889, 180230.906
934.371, 180002.094
934.853, 179555.594
935.335, 179281.203
935.817, 179283.906
936.299, 179379.203
936.782, 179298.594
937.264, 179139.500
937.746, 179082.500
938.228, 179222.797
938.710, 179347.594
939.192, 179393.594
939.674, 179387.000
940.156, 179341.594
940.638, 179248.094
941.121, 179164.500
941.603, 179091.406
942.085, 179037.094
942.567, 179056.500
943.049, 179078.594
943.531, 178985.703
944.013, 178771.000
944.495, 178547.000
944.978, 178313.406
945.460, 178126.000
945.942, 178004.297
946.424, 177947.500
946.906, 177978.797
947.388, 178108.594
947.870, 178182.594
948.352, 178080.094
948.834, 177928.906
949.317, 177973.297
949.799, 178113.594
950.281, 178093.203
950.763, 177551.297
951.245, 177188.000
951.727, 177239.906
952.209, 177475.797
952.692, 177489.797
953.174, 177269.094
953.656, 177166.594
954.138, 177259.906
954.620, 177412.906
955.102, 177515.000
955.584, 177567.297
956.066, 177555.797
956.548, 177434.297
957.031, 177397.203
957.513, 177575.094
957.995, 177733.906
958.477, 177707.297
958.959, 177497.703
959.441, 177315.000
959.923, 177162.000
960.405, 177099.906
960.888, 177280.000
961.370, 177493.500
961.852, 177517.094
962.334, 177368.203
962.816, 177245.297
963.298, 177155.094
963.780, 177136.203
964.262, 177214.703
964.744, 177358.094
965.227, 177538.594
965.709, 177729.000
966.191, 177731.297
966.673, 177395.500
967.155, 176994.094
967.637, 176687.500
968.119, 176474.500
968.601, 176351.406
969.083, 176351.797
969.566, 176402.203
970.048, 176532.297
970.530, 176655.406
971.012, 176673.094
971.494, 176603.000
971.976, 176498.297
972.458, 176361.906
972.940, 176240.703
973.422, 176171.000
973.905, 176123.203
974.387, 176076.000
974.869, 176028.703
975.351, 176001.297
975.833, 175984.203
976.315, 176024.797
976.797, 176187.203
977.279, 176388.094
977.761, 176434.000
978.244, 176353.000
978.726, 176240.203
979.208, 176111.094
979.690, 175985.906
980.172, 175823.703
980.654, 175685.797
981.136, 175707.297
981.619, 175941.797
982.101, 175987.906
982.583, 175752.203
983.065, 175486.594
983.547, 175538.594
984.029, 175739.094
984.511, 175846.094
984.993, 175823.094
985.475, 175704.297
985.958, 175366.297
986.440, 175071.703
986.922, 174979.703
987.404, 175079.094
987.886, 175059.906
988.368, 174923.703
988.850, 174822.906
989.332, 174907.406
989.815, 175021.797
990.297, 175000.594
990.779, 174881.000
991.261, 174787.594
991.743, 174733.406
992.225, 174738.797
992.707, 174842.906
993.189, 174965.500
993.671, 174961.703
994.154, 174851.500
994.636, 174704.500
995.118, 174511.203
995.600, 174401.297
996.082, 174561.703
996.564, 174787.594
997.046, 174865.594
997.528, 174738.406
998.010, 174705.906
998.493, 174791.797
998.975, 174891.406
999.457, 174934.906
999.939, 174938.500
1000.421, 174919.203
1000.903, 174887.797
1001.385, 174900.594
1001.867, 175080.297
1002.349, 175200.094
1002.832, 175136.703
1003.314, 174964.500
1003.796, 174824.500
1004.278, 174717.406
1004.760, 174639.703
1005.242, 174598.500
1005.724, 174563.297
1006.206, 174522.000
1006.689, 174456.406
1007.171, 174331.406
1007.653, 174108.203
1008.135, 173940.094
1008.617, 173895.297
1009.099, 173840.500
1009.581, 173666.000
1010.063, 173395.000
1010.545, 173241.594
1011.028, 173196.703
1011.510, 173158.406
1011.992, 173018.297
1012.474, 172903.203
1012.956, 172952.000
1013.438, 173098.406
1013.920, 173095.703
1014.402, 172864.297
1014.885, 172694.000
1015.367, 172650.797
1015.849, 172656.906
1016.331, 172619.594
1016.813, 172538.406
1017.295, 172396.203
1017.777, 172167.203
1018.259, 171983.406
1018.741, 171914.500
1019.224, 171903.000
1019.706, 171931.906
1020.188, 172004.906
1020.670, 171975.203
1021.152, 171840.297
1021.634, 171714.703
1022.116, 171683.094
1022.598, 171684.594
1023.081, 171631.594
1023.563, 171555.000
1024.045, 171558.297
1024.527, 171737.594
1025.009, 171872.297
1025.491, 171921.906
1025.973, 171920.297
1026.455, 171917.406
1026.938, 171906.594
1027.420, 171863.406
1027.902, 171775.797
1028.384, 171698.203
1028.866, 171722.203
1029.348, 171724.406
1029.830, 171572.703
1030.312, 171258.406
1030.794, 171164.594
1031.276, 171334.297
1031.759, 171469.797
1032.241, 171389.406
1032.723, 171206.000
1033.205, 171074.500
1033.687, 170980.906
1034.169, 170886.000
1034.651, 170715.906
1035.133, 170635.406
1035.616, 170685.000
1036.098, 170803.203
1036.580, 170935.094
1037.062, 171066.406
1037.544, 171087.594
1038.026, 170973.297
1038.508, 170892.094
1038.990, 171046.000
1039.473, 171216.406
1039.955, 171225.203
1040.437, 171061.500
1040.919, 170879.297
1041.401, 170669.500
1041.883, 170473.297
1042.365, 170298.500
1042.847, 170166.406
1043.329, 170185.297
1043.812, 170272.906
1044.294, 170246.203
1044.776, 169981.703
1045.258, 169700.500
1045.740, 169406.000
1046.222, 169153.203
1046.704, 168996.797
1047.186, 168932.906
1047.668, 168935.500
1048.151, 169000.406
1048.633, 169020.797
1049.115, 168832.297
1049.597, 168639.797
1050.079, 168592.500
1050.561, 168689.594
1051.043, 168842.203
1051.525, 169087.406
1052.008, 169249.000
1052.490, 169263.594
1052.972, 169210.094
1053.454, 169209.297
1053.936, 169232.406
1054.418, 169213.797
1054.900, 169098.906
1055.382, 169048.500
1055.865, 169140.297
1056.347, 169263.406
1056.829, 169379.703
1057.311, 169477.797
1057.793, 169393.297
1058.275, 169137.406
1058.757, 168897.594
1059.239, 168811.906
1059.721, 168756.500
1060.203, 168649.203
1060.686, 168513.500
1061.168, 168416.297
1061.650, 168401.906
1062.132, 168304.406
1062.614, 168097.906
1063.096, 167845.500
1063.578, 167593.000
1064.060, 167361.594
1064.543, 167188.094
1065.025, 167078.297
1065.507, 166998.906
1065.989, 166969.406
1066.471, 166933.406
1066.953, 166874.297
1067.435, 166791.297
1067.917, 166661.500
1068.400, 166496.000
1068.882, 166365.500
1069.364, 166310.203
1069.846, 166273.203
1070.328, 166201.500
1070.810, 166135.906
1071.292, 166131.000
1071.774, 166210.594
1072.256, 166231.797
1072.739, 166177.594
1073.221, 166144.594
1073.703, 166263.797
1074.185, 166409.094
1074.667, 166422.094
1075.149, 166311.906
1075.631, 166166.797
1076.113, 165952.000
1076.595, 165798.797
1077.078, 165753.406
1077.560, 165751.797
1078.042, 165700.703
1078.524, 165603.906
1079.006, 165455.906
1079.488, 165249.297
1079.970, 165057.703
1080.453, 164903.000
1080.935, 164802.406
1081.417, 164787.203
1081.899, 164845.906
1082.381, 164771.906
1082.863, 164563.906
1083.345, 164436.703
1083.827, 164541.703
1084.309, 164701.406
1084.792, 164731.797
1085.274, 164700.297
1085.756, 164723.000
1086.238, 164855.203
1086.720, 164935.094
1087.202, 164955.594
1087.684, 164922.094
1088.166, 164803.703
1088.648, 164651.500
1089.131, 164572.500
1089.613, 164561.297
1090.095, 164529.000
1090.577, 164427.000
1091.059, 164323.594
1091.541, 164221.703
1092.023, 164148.703
1092.505, 164194.000
1092.988, 164328.297
1093.470, 164372.406
1093.952, 164268.203
1094.434, 164192.797
1094.916, 164340.094
1095.398, 164495.797
1095.880, 164463.594
1096.362, 164248.703
1096.844, 164141.000
1097.327, 164144.406
1097.809, 164169.406
1098.291, 164196.297
1098.773, 164193.703
1099.255, 164096.406
1099.737, 163955.703
1100.219, 163860.297
1100.701, 163875.094
1101.183, 163857.906
1101.666, 163812.594
1102.148, 163730.094
1102.630, 163574.406
1103.112, 163385.406
1103.594, 163246.094
1104.076, 163153.203
1104.558, 163073.297
1105.040, 162968.703
1105.523, 162902.203
1106.005, 162895.703
1106.487, 162921.703
1106.969, 162941.297
1107.451, 162950.406
1107.933, 162934.906
1108.415, 162894.203
1108.897, 162811.500
1109.380, 162645.000
1109.862, 162462.297
1110.344, 162319.797
1110.826, 162213.797
1111.308, 162040.500
1111.790, 161797.203
1112.272, 161618.094
1112.754, 161594.906
1113.236, 161588.906
1113.719, 161429.500
1114.201, 161210.594
1114.683, 161054.594
1115.165, 160977.594
1115.647, 160979.703
1116.129, 161092.797
1116.611, 161159.000
1117.093, 160993.297
1117.575, 160735.203
1118.058, 160650.203
1118.540, 160692.500
1119.022, 160708.297
1119.504, 160640.703
1119.986, 160548.406
1120.468, 160440.797
1120.950, 160316.297
1121.432, 160162.000
1121.915, 159992.203
1122.397, 159839.906
1122.879, 159711.703
1123.361, 159638.594
1123.843, 159707.906
1124.325, 159764.797
1124.807, 159735.000
1125.289, 159649.297
1125.771, 159583.797
1126.254, 159540.203
1126.736, 159539.594
1127.218, 159592.094
1127.700, 159661.797
1128.182, 159748.000
1128.664, 159810.500
1129.146, 159770.594
1129.628, 159615.594
1130.110, 159687.297
1130.593, 160007.406
1131.075, 160247.000
1131.557, 160203.594
1132.039, 160038.594
1132.521, 159885.703
1133.003, 159751.594
1133.485, 159654.500
1133.967, 159644.000
1134.450, 159573.594
1134.932, 159430.094
1135.414, 159288.094
1135.896, 159267.594
1136.378, 159264.797
1136.860, 159040.000
1137.342, 158658.500
1137.824, 158397.500
1138.307, 158446.797
1138.789, 158502.797
1139.271, 158543.797
1139.753, 158544.406
1140.235, 158433.594
1140.717, 158254.000
1141.199, 158112.594
1141.681, 158019.297
1142.163, 157981.703
1142.646, 158100.906
1143.128, 158151.906
1143.610, 158036.094
1144.092, 157804.797
1144.574, 157566.203
1145.056, 157332.906
1145.538, 157164.703
1146.020, 157100.000
1146.502, 157042.297
1146.985, 156949.797
1147.467, 156838.000
1147.949, 156711.406
1148.431, 156576.406
1148.913, 156503.297
1149.395, 156492.000
1149.877, 156480.797
1150.359, 156412.703
1150.842, 156372.406
1151.324, 156454.094
1151.806, 156580.500
1152.288, 156643.500
1152.770, 156611.797
1153.252, 156602.594
1153.734, 156615.500
1154.216, 156602.406
1154.698, 156463.797
1155.181, 156330.906
1155.663, 156391.594
1156.145, 156570.594
1156.627, 156638.297
1157.109, 156550.594
1157.591, 156443.203
1158.073, 156329.297
1158.555, 156206.906
1159.037, 156050.906
1159.520, 155899.297
1160.002, 155820.406
1160.484, 155808.203
1160.966, 155763.203
1161.448, 155649.703
1161.930, 155534.000
1162.412, 155430.703
1162.894, 155325.500
1163.377, 155208.094
1163.859, 155071.797
1164.341, 154907.906
1164.823, 154716.406
1165.305, 154486.703
1165.787, 154128.906
1166.269, 153885.203
1166.751, 153896.000
1167.234, 154032.203
1167.716, 153941.500
1168.198, 153699.500
1168.680, 153514.000
1169.162, 153466.703
1169.644, 153424.094
1170.126, 153311.500
1170.608, 153218.797
1171.090, 153192.406
1171.573, 153224.203
1172.055, 153306.500
1172.537, 153422.594
1173.019, 153505.203
1173.501, 153463.406
1173.983, 153456.297
1174.465, 153628.797
1174.947, 153791.906
1175.429, 153741.500
1175.912, 153488.500
1176.394, 153425.094
1176.876, 153540.000
1177.358, 153603.094
1177.840, 153416.094
1178.322, 153209.297
1178.804, 153106.797
1179.286, 153059.703
1179.769, 152982.406
1180.251, 152873.703
1180.733, 152855.000
1181.215, 152937.406
1181.697, 153006.000
1182.179, 152931.797
1182.661, 152851.500
1183.143, 152890.094
1183.625, 152991.500
1184.108, 152976.500
1184.590, 152832.703
1185.072, 152748.297
1185.554, 152763.906
1186.036, 152773.797
1186.518, 152683.906
1187.000, 152546.094
1187.482, 152403.203
1187.965, 152256.594
1188.447, 152066.703
1188.929, 151825.703
1189.411, 151648.797
1189.893, 151594.094
1190.375, 151541.500
1190.857, 151330.094
1191.339, 151081.203
1191.822, 150939.203
1192.304, 150927.297
1192.786, 150845.094
1193.268, 150680.203
1193.750, 150532.297
1194.232, 150443.000
1194.714, 150387.594
1195.196, 150354.906
1195.678, 150329.094
1196.161, 150290.906
1196.643, 150239.000
1197.125, 150160.297
1197.607, 150049.000
1198.089, 149932.703
1198.571, 149821.000
1199.053, 149720.594
1199.535, 149660.000
1200.017, 149611.797
1200.500, 149519.906
1200.982, 149343.797
1201.464, 149212.406
1201.946, 149136.297
1202.428, 149063.500
1202.910, 148911.703
1203.392, 148769.797
1203.874, 148822.406
1204.357, 148980.406
1204.839, 148957.594
1205.321, 148588.797
1205.803, 148350.000
1206.285, 148283.203
1206.767, 148315.406
1207.249, 148457.000
1207.731, 148602.203
1208.214, 148566.000
1208.696, 148385.000
1209.178, 148308.906
1209.660, 148425.203
1210.142, 148488.000
1210.624, 148458.094
1211.106, 148383.203
1211.588, 148283.297
1212.070, 148193.094
1212.552, 148178.500
1213.035, 148236.500
1213.517, 148246.000
1213.999, 148193.000
1214.481, 148103.797
1214.963, 147982.906
1215.445, 147831.703
1215.927, 147614.594
1216.409, 147390.797
1216.892, 147250.594
1217.374, 147211.703
1217.856, 147193.406
1218.338, 147234.203
1218.820, 147157.203
1219.302, 146860.000
1219.784, 146527.406
1220.266, 146463.297
1220.749, 146534.000
1221.231, 146554.094
1221.713, 146491.594
1222.195, 146353.703
1222.677, 146092.406
1223.159, 145921.406
1223.641, 145965.500
1224.123, 146083.406
1224.605, 146052.594
1225.088, 145949.203
1225.570, 145894.203
1226.052, 145933.500
1226.534, 145942.703
1227.016, 145916.500
1227.498, 145868.203
1227.980, 145781.703
1228.462, 145704.906
1228.944, 145728.906
1229.427, 145806.500
1229.909, 145863.203
1230.391, 145920.500
1230.873, 145837.297
1231.355, 145576.203
1231.837, 145345.000
1232.319, 145313.297
1232.801, 145355.500
1233.284, 145295.203
1233.766, 145186.500
1234.248, 145140.203
1234.730, 145214.406
1235.212, 145241.500
1235.694, 145219.703
1236.176, 145142.000
1236.658, 144919.094
1237.141, 144700.703
1237.623, 144711.297
1238.105, 144853.906
1238.587, 144887.703
1239.069, 144769.203
1239.551, 144630.406
1240.033, 144476.297
1240.515, 144327.500
1240.997, 144201.797
1241.479, 144096.094
1241.962, 144031.594
1242.444, 143986.094
1242.926, 143877.094
1243.408, 143678.297
1243.890, 143564.297
1244.372, 143555.594
1244.854, 143595.703
1245.336, 143696.094
1245.819, 143766.406
1246.301, 143683.906
1246.783, 143502.406
1247.265, 143412.703
1247.747, 143422.094
1248.229, 143421.000
1248.711, 143394.203
1249.193, 143336.000
1249.676, 143264.406
1250.158, 143140.797
1250.640, 142877.703
1251.122, 142552.797
1251.604, 142397.594
1252.086, 142419.297
1252.568, 142435.797
1253.050, 142428.406
1253.532, 142352.594
1254.015, 142101.406
1254.497, 141846.594
1254.979, 141704.906
1255.461, 141647.203
1255.943, 141606.000
1256.425, 141577.406
1256.907, 141553.797
1257.389, 141533.094
1257.871, 141475.203
1258.354, 141270.500
1258.836, 141105.797
1259.318, 141103.797
1259.800, 141190.906
1260.282, 141160.094
1260.764, 141029.797
1261.246, 140894.203
1261.728, 140776.000
##END=



