##NAMES=Phurcalite
##RRUFFID=R060698
##IDEAL CHEMISTRY=Ca_2_(U^6+^O_2_)_3_O_2_(PO_4_)_2_&#183;7H_2_O
##LOCALITY=Los Azules, Copiapo, Chile
##OWNER=RRUFF
##SOURCE=Bob Jenkins
##DESCRIPTION=Divergent sprays of bright yellow acicular crystals
##STATUS=The identification of this mineral has been confirmed by single-crystal X-ray diffraction.
##URL=rruff.info/R060698
136.474, 2128.337
136.956, 2118.818
137.438, 2182.438
137.920, 2266.535
138.402, 2345.659
138.884, 2420.075
139.366, 2475.688
139.848, 2555.582
140.331, 2625.758
140.813, 2695.522
141.295, 2773.476
141.777, 2805.301
142.259, 2890.312
142.741, 2994.960
143.223, 3092.846
143.705, 3181.543
144.188, 3266.128
144.670, 3354.029
145.152, 3443.353
145.634, 3518.631
146.116, 3576.825
146.598, 3620.335
147.080, 3650.159
147.562, 3665.705
148.044, 3672.796
148.527, 3678.348
149.009, 3681.124
149.491, 3670.301
149.973, 3635.023
150.455, 3586.605
150.937, 3543.967
151.419, 3510.490
151.901, 3477.884
152.383, 3440.257
152.866, 3398.041
153.348, 3349.729
153.830, 3288.894
154.312, 3222.223
154.794, 3165.115
155.276, 3122.236
155.758, 3083.409
156.240, 3037.959
156.723, 2988.406
157.205, 2945.170
157.687, 2915.096
158.169, 2895.789
158.651, 2878.893
159.133, 2862.681
159.615, 2850.873
160.097, 2843.438
160.579, 2840.903
161.062, 2846.590
161.544, 2866.065
162.026, 2896.819
162.508, 2925.262
162.990, 2948.017
163.472, 2971.106
163.954, 3000.917
164.436, 3035.349
164.919, 3065.752
165.401, 3082.207
165.883, 3086.486
166.365, 3097.781
166.847, 3117.926
167.329, 3145.711
167.811, 3185.573
168.293, 3233.833
168.775, 3276.448
169.258, 3300.223
169.740, 3305.571
170.222, 3310.784
170.704, 3314.568
171.186, 3320.844
171.668, 3333.297
172.150, 3350.699
172.632, 3367.679
173.115, 3379.903
173.597, 3387.316
174.079, 3392.860
174.561, 3392.320
175.043, 3394.100
175.525, 3401.760
176.007, 3415.242
176.489, 3432.704
176.971, 3453.645
177.454, 3478.412
177.936, 3502.588
178.418, 3526.758
178.900, 3549.495
179.382, 3568.428
179.864, 3584.763
180.346, 3602.678
180.828, 3624.633
181.311, 3650.050
181.793, 3684.179
182.275, 3734.475
182.757, 3787.961
183.239, 3842.385
183.721, 3896.263
184.203, 3946.485
184.685, 3988.742
185.167, 4021.530
185.650, 4059.443
186.132, 4103.177
186.614, 4151.903
187.096, 4208.661
187.578, 4271.439
188.060, 4333.510
188.542, 4387.337
189.024, 4430.556
189.507, 4485.855
189.989, 4569.375
190.471, 4651.294
190.953, 4719.519
191.435, 4776.261
191.917, 4830.938
192.399, 4888.496
192.881, 4947.313
193.363, 5028.944
193.846, 5164.513
194.328, 5296.878
194.810, 5406.960
195.292, 5497.427
195.774, 5579.716
196.256, 5659.563
196.738, 5736.331
197.220, 5832.455
197.702, 5982.389
198.185, 6120.945
198.667, 6223.945
199.149, 6299.488
199.631, 6369.030
200.113, 6451.261
200.595, 6546.456
201.077, 6626.891
201.559, 6689.302
202.042, 6738.360
202.524, 6773.958
203.006, 6796.575
203.488, 6800.848
203.970, 6772.018
204.452, 6715.251
204.934, 6626.911
205.416, 6581.331
205.898, 6525.370
206.380, 6459.590
206.863, 6354.552
207.345, 6300.200
207.827, 6225.542
208.309, 6160.936
208.791, 6064.931
209.273, 5955.833
209.755, 5849.230
210.238, 5741.685
210.720, 5640.560
211.202, 5558.796
211.684, 5507.061
212.166, 5478.350
212.648, 5435.943
213.130, 5367.730
213.612, 5300.314
214.094, 5235.410
214.577, 5175.900
215.059, 5125.734
215.541, 5088.468
216.023, 5059.797
216.505, 5024.008
216.987, 4977.104
217.469, 4928.584
217.951, 4881.075
218.434, 4832.721
218.916, 4779.993
219.398, 4720.900
219.880, 4659.629
220.362, 4607.575
220.844, 4571.037
221.326, 4533.013
221.808, 4491.056
222.290, 4446.469
222.773, 4401.213
223.255, 4355.674
223.737, 4308.384
224.219, 4254.640
224.701, 4185.155
225.183, 4129.233
225.665, 4091.762
226.147, 4066.011
226.629, 4044.108
227.112, 4043.433
227.594, 4037.607
228.076, 4026.904
228.558, 3996.720
229.040, 3991.693
229.522, 3976.584
230.004, 3961.059
230.486, 3959.572
230.969, 3932.222
231.451, 3930.512
231.933, 3918.568
232.415, 3911.307
232.897, 3893.900
233.379, 3879.629
233.861, 3866.920
234.343, 3860.250
234.825, 3864.500
235.307, 3873.451
235.790, 3883.555
236.272, 3895.651
236.754, 3899.755
237.236, 3884.755
237.718, 3871.171
238.200, 3866.049
238.682, 3870.142
239.165, 3882.905
239.647, 3908.075
240.129, 3944.832
240.611, 3973.404
241.093, 3988.341
241.575, 4001.284
242.057, 4020.340
242.539, 4042.072
243.021, 4057.466
243.503, 4056.029
243.986, 4043.655
244.468, 4046.471
244.950, 4071.964
245.432, 4100.482
245.914, 4123.294
246.396, 4142.630
246.878, 4162.676
247.361, 4187.271
247.843, 4212.316
248.325, 4226.814
248.807, 4225.614
249.289, 4228.085
249.771, 4252.914
250.253, 4282.880
250.735, 4294.736
251.217, 4272.310
251.699, 4243.943
252.182, 4254.666
252.664, 4311.719
253.146, 4358.793
253.628, 4365.551
254.110, 4354.217
254.592, 4347.008
255.074, 4348.173
255.556, 4350.989
256.039, 4347.395
256.521, 4337.794
257.003, 4331.443
257.485, 4318.829
257.967, 4323.746
258.449, 4321.396
258.931, 4339.017
259.413, 4351.792
259.896, 4359.978
260.378, 4349.836
260.860, 4363.360
261.342, 4367.400
261.824, 4371.052
262.306, 4387.909
262.788, 4380.433
263.270, 4397.079
263.752, 4404.096
264.234, 4415.520
264.717, 4417.401
265.199, 4422.231
265.681, 4436.605
266.163, 4435.077
266.645, 4439.676
267.127, 4442.407
267.609, 4444.574
268.091, 4441.151
268.574, 4427.668
269.056, 4403.819
269.538, 4368.374
270.020, 4317.609
270.502, 4252.269
270.984, 4191.051
271.466, 4141.458
271.948, 4089.701
272.431, 4018.195
272.913, 3933.160
273.395, 3861.896
273.877, 3817.146
274.359, 3800.368
274.841, 3773.260
275.323, 3769.109
275.805, 3759.387
276.287, 3744.390
276.770, 3708.323
277.252, 3699.463
277.734, 3679.702
278.216, 3659.493
278.698, 3648.460
279.180, 3653.613
279.662, 3633.867
280.144, 3564.078
280.626, 3475.729
281.109, 3398.919
281.591, 3342.541
282.073, 3303.353
282.555, 3278.282
283.037, 3275.760
283.519, 3267.216
284.001, 3253.711
284.483, 3234.104
284.966, 3204.359
285.448, 3166.396
285.930, 3128.313
286.412, 3099.993
286.894, 3084.311
287.376, 3053.987
287.858, 2992.305
288.340, 2933.679
288.823, 2891.516
289.305, 2862.612
289.787, 2837.734
290.269, 2810.775
290.751, 2782.512
291.233, 2757.174
291.715, 2729.548
292.197, 2712.924
292.679, 2718.831
293.161, 2733.344
293.644, 2740.076
294.126, 2731.677
294.608, 2713.213
295.090, 2694.295
295.572, 2673.243
296.054, 2655.960
296.536, 2644.874
297.018, 2636.712
297.501, 2629.631
297.983, 2623.127
298.465, 2616.992
298.947, 2610.735
299.429, 2604.197
299.911, 2599.189
300.393, 2597.262
300.875, 2595.597
301.358, 2592.294
301.840, 2587.508
302.322, 2582.607
302.804, 2579.320
303.286, 2576.728
303.768, 2572.259
304.250, 2567.208
304.732, 2556.977
305.214, 2533.296
305.697, 2502.270
306.179, 2477.345
306.661, 2466.524
307.143, 2461.298
307.625, 2450.483
308.107, 2433.889
308.589, 2418.723
309.071, 2411.447
309.553, 2406.984
310.036, 2393.315
310.518, 2361.953
311.000, 2334.324
311.482, 2327.689
311.964, 2335.223
312.446, 2336.216
312.928, 2322.078
313.410, 2300.853
313.892, 2287.372
314.375, 2283.372
314.857, 2278.881
315.339, 2268.191
315.821, 2257.748
316.303, 2258.890
316.785, 2273.016
317.267, 2284.786
317.750, 2276.437
318.232, 2242.666
318.714, 2216.777
319.196, 2199.352
319.678, 2188.676
320.160, 2186.337
320.642, 2190.387
321.124, 2195.721
321.606, 2198.768
322.089, 2199.907
322.571, 2202.593
323.053, 2212.133
323.535, 2217.021
324.017, 2209.830
324.499, 2198.750
324.981, 2194.886
325.463, 2202.696
325.945, 2216.457
326.428, 2224.510
326.910, 2224.697
327.392, 2223.459
327.874, 2217.681
328.356, 2213.386
328.838, 2217.182
329.320, 2228.421
329.802, 2238.296
330.284, 2235.474
330.767, 2219.171
331.249, 2210.914
331.731, 2220.440
332.213, 2226.676
332.695, 2215.554
333.177, 2193.906
333.659, 2177.574
334.141, 2177.660
334.624, 2186.849
335.106, 2189.053
335.588, 2182.644
336.070, 2176.018
336.552, 2171.816
337.034, 2170.308
337.516, 2173.328
337.998, 2184.392
338.480, 2192.454
338.963, 2183.775
339.445, 2162.737
339.927, 2151.703
340.409, 2159.836
340.891, 2176.414
341.373, 2186.347
341.855, 2189.420
342.337, 2191.875
342.819, 2197.910
343.302, 2202.998
343.784, 2198.236
344.266, 2182.923
344.748, 2171.305
345.230, 2177.594
345.712, 2202.739
346.194, 2219.331
346.677, 2217.068
347.159, 2217.198
347.641, 2234.191
348.123, 2261.153
348.605, 2280.984
349.087, 2284.032
349.569, 2276.335
350.051, 2277.328
350.533, 2297.293
351.016, 2312.807
351.498, 2320.790
351.980, 2325.291
352.462, 2329.722
352.944, 2334.891
353.426, 2339.426
353.908, 2339.377
354.390, 2331.102
354.872, 2336.158
355.355, 2374.468
355.837, 2408.583
356.319, 2421.339
356.801, 2418.405
357.283, 2415.355
357.765, 2422.423
358.247, 2435.917
358.729, 2443.298
359.211, 2440.144
359.694, 2442.627
360.176, 2460.864
360.658, 2486.632
361.140, 2513.215
361.622, 2540.055
362.104, 2564.087
362.586, 2579.173
363.069, 2587.525
363.551, 2603.509
364.033, 2633.224
364.515, 2667.219
364.997, 2688.714
365.479, 2697.924
365.961, 2725.855
366.443, 2801.456
366.925, 2888.675
367.408, 2946.680
367.890, 2973.237
368.372, 2986.859
368.854, 2997.315
369.336, 3005.880
369.818, 3025.171
370.300, 3061.328
370.782, 3099.368
371.264, 3134.720
371.747, 3168.776
372.229, 3203.426
372.711, 3239.404
373.193, 3277.801
373.675, 3321.687
374.157, 3377.777
374.639, 3425.630
375.121, 3459.494
375.603, 3490.928
376.086, 3524.706
376.568, 3562.475
377.050, 3606.121
377.532, 3657.800
378.014, 3716.958
378.496, 3776.151
378.978, 3832.727
379.460, 3893.739
379.943, 3963.970
380.425, 4038.309
380.907, 4109.596
381.389, 4175.958
381.871, 4239.194
382.353, 4299.010
382.835, 4355.498
383.317, 4421.051
383.799, 4504.314
384.282, 4591.853
384.764, 4668.073
385.246, 4733.208
385.728, 4800.225
386.210, 4874.751
386.692, 4954.238
387.174, 5036.270
387.656, 5120.672
388.138, 5202.128
388.621, 5275.964
389.103, 5343.158
389.585, 5412.616
390.067, 5486.742
390.549, 5560.241
391.031, 5630.438
391.513, 5699.091
391.996, 5769.779
392.478, 5843.517
392.960, 5917.984
393.442, 5986.806
393.924, 6036.152
394.406, 6112.666
394.888, 6239.332
395.370, 6369.310
395.852, 6469.169
396.335, 6545.816
396.817, 6631.012
397.299, 6750.869
397.781, 6898.970
398.263, 7035.932
398.745, 7154.587
399.227, 7275.197
399.709, 7410.965
400.191, 7548.471
400.674, 7671.073
401.156, 7772.353
401.638, 7873.038
402.120, 8003.298
402.602, 8157.413
403.084, 8282.792
403.566, 8362.440
404.048, 8423.510
404.530, 8496.968
405.013, 8577.792
405.495, 8631.283
405.977, 8634.475
406.459, 8616.244
406.941, 8606.685
407.423, 8603.033
407.905, 8580.945
408.387, 8524.603
408.870, 8444.022
409.352, 8371.029
409.834, 8319.623
410.316, 8254.610
410.798, 8162.345
411.280, 8060.143
411.762, 7961.929
412.244, 7871.604
412.727, 7789.390
413.209, 7714.644
413.691, 7646.444
414.173, 7594.476
414.655, 7563.392
415.137, 7544.938
415.619, 7532.417
416.101, 7532.356
416.583, 7552.760
417.065, 7596.248
417.548, 7665.949
418.030, 7784.826
418.512, 7965.847
418.994, 8091.428
419.476, 8089.238
419.958, 8068.201
420.440, 8118.893
420.922, 8238.688
421.405, 8378.337
421.887, 8520.971
422.369, 8667.853
422.851, 8824.532
423.333, 8990.193
423.815, 9150.843
424.297, 9293.805
424.779, 9425.360
425.262, 9573.716
425.744, 9757.419
426.226, 9930.357
426.708, 10086.550
427.190, 10222.730
427.672, 10335.940
428.154, 10425.140
428.636, 10492.470
429.118, 10542.360
429.601, 10578.100
430.083, 10574.280
430.565, 10505.630
431.047, 10424.570
431.529, 10352.640
432.011, 10277.820
432.493, 10178.230
432.975, 10043.100
433.457, 9882.110
433.940, 9706.785
434.422, 9514.697
434.904, 9324.601
435.386, 9135.135
435.868, 8955.841
436.350, 8797.578
436.832, 8659.080
437.314, 8517.227
437.797, 8358.799
438.279, 8192.424
438.761, 8027.929
439.243, 7864.851
439.725, 7716.016
440.207, 7592.032
440.689, 7485.397
441.171, 7372.191
441.654, 7250.654
442.136, 7125.801
442.618, 6998.304
443.100, 6868.124
443.582, 6731.958
444.064, 6591.055
444.546, 6453.503
445.028, 6327.336
445.510, 6212.288
445.992, 6113.775
446.475, 6086.313
446.957, 6013.084
447.439, 5841.500
447.921, 5617.530
448.403, 5391.853
448.885, 5179.243
449.367, 5002.609
449.849, 4900.058
450.332, 4872.757
450.814, 4855.755
451.296, 4871.709
451.778, 4848.825
452.260, 4702.324
452.742, 4462.697
453.224, 4251.298
453.706, 4109.355
454.189, 4005.877
454.671, 3921.419
455.153, 3852.890
455.635, 3789.615
456.117, 3728.260
456.599, 3666.153
457.081, 3597.351
457.563, 3512.717
458.045, 3438.869
458.528, 3378.377
459.010, 3327.389
459.492, 3288.296
459.974, 3257.146
460.456, 3222.929
460.938, 3177.093
461.420, 3123.106
461.902, 3077.535
462.384, 3044.746
462.867, 3011.144
463.349, 2970.965
463.831, 2930.656
464.313, 2895.967
464.795, 2867.634
465.277, 2841.367
465.759, 2816.568
466.241, 2791.436
466.724, 2759.251
467.206, 2718.175
467.688, 2679.746
468.170, 2651.097
468.652, 2631.157
469.134, 2613.839
469.616, 2606.256
470.098, 2591.354
470.580, 2556.634
471.063, 2513.921
471.545, 2477.501
472.027, 2450.994
472.509, 2431.775
472.991, 2417.882
473.473, 2409.590
473.955, 2401.292
474.437, 2398.357
474.919, 2389.151
475.402, 2363.709
475.884, 2333.162
476.366, 2304.445
476.848, 2288.168
477.330, 2284.435
477.812, 2277.658
478.294, 2267.999
478.776, 2246.831
479.259, 2240.525
479.741, 2228.262
480.223, 2215.755
480.705, 2211.542
481.187, 2192.047
481.669, 2186.889
482.151, 2174.814
482.633, 2169.342
483.116, 2167.875
483.598, 2163.469
484.080, 2153.578
484.562, 2143.054
485.044, 2139.978
485.526, 2149.313
486.008, 2147.671
486.490, 2123.345
486.972, 2101.504
487.454, 2095.418
487.937, 2099.308
488.419, 2100.452
488.901, 2092.083
489.383, 2082.267
489.865, 2068.187
490.347, 2059.197
490.829, 2064.200
491.311, 2065.807
491.794, 2064.199
492.276, 2049.749
492.758, 2051.882
493.240, 2047.370
493.722, 2042.585
494.204, 2047.051
494.686, 2034.470
495.168, 2038.790
495.651, 2036.363
496.133, 2037.025
496.615, 2030.999
497.097, 2027.039
497.579, 2029.767
498.061, 2028.792
498.543, 2021.997
499.025, 2022.855
499.507, 2010.040
499.990, 2009.222
500.472, 2007.578
500.954, 2003.013
501.436, 2007.280
501.918, 2009.905
502.400, 2010.608
502.882, 2007.534
503.364, 2007.669
503.846, 2022.208
504.329, 2033.250
504.811, 2040.984
505.293, 2035.499
505.775, 2047.085
506.257, 2051.829
506.739, 2056.292
507.221, 2070.279
507.703, 2066.717
508.185, 2079.618
508.668, 2086.802
509.150, 2089.467
509.632, 2084.091
510.114, 2083.349
510.596, 2090.841
511.078, 2099.214
511.560, 2105.610
512.042, 2109.749
512.525, 2111.531
513.007, 2110.636
513.489, 2108.685
513.971, 2108.496
514.453, 2110.060
514.935, 2113.269
515.417, 2117.159
515.899, 2123.939
516.381, 2136.515
516.864, 2153.592
517.346, 2169.659
517.828, 2184.106
518.310, 2195.860
518.792, 2201.514
519.274, 2203.472
519.756, 2208.792
520.239, 2220.101
520.721, 2235.467
521.203, 2252.623
521.685, 2273.711
522.167, 2288.580
522.649, 2290.555
523.131, 2294.112
523.613, 2306.572
524.095, 2324.289
524.578, 2341.045
525.060, 2354.218
525.542, 2364.962
526.024, 2372.279
526.506, 2376.440
526.988, 2390.120
527.470, 2419.551
527.952, 2450.815
528.434, 2474.084
528.917, 2490.418
529.399, 2502.243
529.881, 2503.976
530.363, 2507.580
530.845, 2518.208
531.327, 2535.285
531.809, 2562.298
532.291, 2599.095
532.773, 2630.437
533.256, 2635.701
533.738, 2611.753
534.220, 2608.122
534.702, 2648.618
535.184, 2680.814
535.666, 2681.552
536.148, 2672.505
536.630, 2679.923
537.112, 2710.570
537.595, 2748.416
538.077, 2782.199
538.559, 2811.888
539.041, 2838.187
539.523, 2861.820
540.005, 2876.953
540.487, 2877.261
540.969, 2866.858
541.452, 2861.366
541.934, 2860.534
542.416, 2864.349
542.898, 2873.564
543.380, 2886.981
543.862, 2907.788
544.344, 2933.068
544.826, 2951.830
545.308, 2955.433
545.791, 2946.230
546.273, 2932.429
546.755, 2910.947
547.237, 2893.500
547.719, 2887.939
548.201, 2883.780
548.683, 2872.560
549.166, 2854.377
549.648, 2835.502
550.130, 2820.960
550.612, 2805.448
551.094, 2783.962
551.576, 2756.436
552.058, 2721.065
552.540, 2675.981
553.022, 2628.847
553.505, 2593.156
553.987, 2571.847
554.469, 2554.564
554.951, 2551.029
555.433, 2540.911
555.915, 2510.560
556.397, 2468.426
556.879, 2430.224
557.362, 2402.763
557.844, 2378.267
558.326, 2330.875
558.808, 2268.358
559.290, 2221.958
559.772, 2223.573
560.254, 2213.524
560.736, 2192.454
561.218, 2127.329
561.701, 2119.092
562.183, 2088.056
562.665, 2056.088
563.147, 2043.299
563.629, 2006.095
564.111, 1987.263
564.593, 1949.509
565.075, 1908.917
565.557, 1880.119
566.040, 1860.689
566.522, 1835.431
567.004, 1801.952
567.486, 1767.833
567.968, 1728.816
568.450, 1694.418
568.932, 1675.015
569.414, 1670.681
569.896, 1667.896
570.379, 1661.421
570.861, 1653.030
571.343, 1642.874
571.825, 1632.197
572.307, 1627.141
572.789, 1631.279
573.271, 1636.523
573.753, 1628.146
574.235, 1600.647
574.718, 1576.909
575.200, 1555.851
575.682, 1539.635
576.164, 1529.719
576.646, 1524.924
577.128, 1524.519
577.610, 1528.927
578.093, 1532.298
578.575, 1526.380
579.057, 1514.061
579.539, 1507.741
580.021, 1509.805
580.503, 1511.173
580.985, 1504.943
581.467, 1492.889
581.949, 1484.006
582.432, 1477.632
582.914, 1474.784
583.396, 1481.990
583.878, 1488.089
584.360, 1479.285
584.842, 1459.000
585.324, 1445.077
585.806, 1451.944
586.289, 1468.747
586.771, 1466.819
587.253, 1443.355
587.735, 1424.266
588.217, 1417.317
588.699, 1414.203
589.181, 1405.019
589.663, 1391.238
590.145, 1384.188
590.628, 1394.254
591.110, 1402.424
591.592, 1394.374
592.074, 1379.082
592.556, 1373.698
593.038, 1381.715
593.520, 1388.917
594.002, 1378.066
594.484, 1350.160
594.967, 1333.120
595.449, 1329.220
595.931, 1331.643
596.413, 1347.023
596.895, 1362.406
597.377, 1363.911
597.859, 1349.940
598.341, 1335.236
598.823, 1325.356
599.306, 1318.470
599.788, 1314.891
600.270, 1312.944
600.752, 1306.243
601.234, 1291.660
601.716, 1274.391
602.198, 1263.110
602.680, 1258.779
603.162, 1257.004
603.645, 1262.297
604.127, 1265.139
604.609, 1260.973
605.091, 1252.936
605.573, 1240.584
606.055, 1220.505
606.537, 1205.130
607.019, 1214.257
607.502, 1217.436
607.984, 1214.988
608.466, 1190.057
608.948, 1194.159
609.430, 1186.624
609.912, 1178.613
610.394, 1180.394
610.876, 1180.959
611.359, 1178.688
611.841, 1170.138
612.323, 1162.291
612.805, 1161.206
613.287, 1163.489
613.769, 1160.959
614.251, 1149.190
614.733, 1134.927
615.216, 1124.283
615.698, 1117.409
616.180, 1115.784
616.662, 1119.964
617.144, 1125.893
617.626, 1130.708
618.108, 1134.617
618.590, 1138.885
619.072, 1143.629
619.555, 1148.574
620.037, 1156.707
620.519, 1162.630
621.001, 1163.116
621.483, 1157.778
621.965, 1145.794
622.447, 1123.615
622.929, 1100.846
623.411, 1093.342
623.894, 1099.741
624.376, 1109.895
624.858, 1123.560
625.340, 1133.494
625.822, 1132.588
626.304, 1121.443
626.786, 1110.442
627.268, 1097.470
627.750, 1087.386
628.233, 1079.464
628.715, 1075.977
629.197, 1082.196
629.679, 1095.831
630.161, 1106.813
630.643, 1108.783
631.125, 1103.071
631.607, 1088.065
632.089, 1064.343
632.572, 1051.403
633.054, 1056.457
633.536, 1067.786
634.018, 1074.229
634.500, 1060.093
634.982, 1077.554
635.464, 1087.346
635.946, 1089.879
636.429, 1063.417
636.911, 1074.397
637.393, 1070.371
637.875, 1065.731
638.357, 1081.980
638.839, 1059.735
639.321, 1075.654
639.803, 1076.338
640.286, 1083.994
640.768, 1076.553
641.250, 1073.775
641.732, 1086.099
642.214, 1090.062
642.696, 1080.882
643.178, 1088.982
643.660, 1066.210
644.143, 1070.528
644.625, 1086.535
645.107, 1078.115
645.589, 1086.490
646.071, 1072.810
646.553, 1070.397
647.035, 1078.562
647.517, 1091.622
647.999, 1096.151
648.482, 1092.162
648.964, 1086.138
649.446, 1078.874
649.928, 1072.869
650.410, 1072.015
650.892, 1076.826
651.374, 1076.623
651.856, 1063.575
652.338, 1055.499
652.821, 1063.668
653.303, 1075.219
653.785, 1076.053
654.267, 1065.197
654.749, 1051.824
655.231, 1040.743
655.713, 1033.141
656.195, 1031.114
656.677, 1034.673
657.160, 1045.383
657.642, 1065.573
658.124, 1087.047
658.606, 1102.606
659.088, 1112.402
659.570, 1110.098
660.052, 1083.787
660.534, 1061.770
661.016, 1047.944
661.499, 1042.120
661.981, 1047.875
662.463, 1062.673
662.945, 1075.085
663.427, 1078.876
663.909, 1075.302
664.391, 1061.952
664.873, 1041.654
665.356, 1029.328
665.838, 1029.146
666.320, 1036.141
666.802, 1047.209
667.284, 1061.803
667.766, 1068.834
668.248, 1063.378
668.730, 1056.647
669.213, 1045.815
669.695, 1037.328
670.177, 1036.128
670.659, 1041.890
671.141, 1047.745
671.623, 1037.021
672.105, 1055.752
672.587, 1067.333
673.070, 1072.148
673.552, 1049.933
674.034, 1062.622
674.516, 1061.323
674.998, 1059.450
675.480, 1077.051
675.962, 1058.768
676.444, 1076.061
676.926, 1079.152
677.409, 1088.743
677.891, 1084.259
678.373, 1084.123
678.855, 1098.066
679.337, 1104.213
679.819, 1090.954
680.301, 1078.862
680.783, 1070.442
681.265, 1067.144
681.748, 1076.174
682.230, 1095.071
682.712, 1105.396
683.194, 1093.333
683.676, 1069.771
684.158, 1065.516
684.640, 1086.434
685.122, 1100.682
685.604, 1106.883
686.087, 1103.998
686.569, 1082.756
687.051, 1053.668
687.533, 1037.936
688.015, 1040.577
688.497, 1049.850
688.979, 1068.949
689.461, 1087.246
689.943, 1092.771
690.426, 1088.804
690.908, 1087.203
691.390, 1093.775
691.872, 1101.993
692.354, 1100.118
692.836, 1089.112
693.318, 1085.894
693.800, 1093.220
694.283, 1100.717
694.765, 1103.589
695.247, 1102.878
695.729, 1097.579
696.211, 1078.602
696.693, 1084.620
697.175, 1071.565
697.657, 1086.162
698.140, 1094.046
698.622, 1095.579
699.104, 1071.737
699.586, 1080.661
700.068, 1076.455
700.550, 1078.749
701.032, 1066.911
701.514, 1068.963
701.997, 1083.488
702.479, 1096.992
702.961, 1105.078
703.443, 1107.970
703.925, 1105.473
704.407, 1097.127
704.889, 1088.991
705.371, 1074.761
705.853, 1069.571
706.336, 1089.077
706.818, 1109.276
707.300, 1104.261
707.782, 1076.455
708.264, 1055.614
708.746, 1059.300
709.228, 1070.829
709.710, 1078.500
710.192, 1083.595
710.675, 1088.563
711.157, 1093.812
711.639, 1098.074
712.121, 1100.297
712.603, 1100.745
713.085, 1100.548
713.567, 1100.040
714.049, 1097.115
714.531, 1090.635
715.014, 1082.809
715.496, 1071.704
715.978, 1060.470
716.460, 1059.652
716.942, 1078.294
717.424, 1092.714
717.906, 1091.759
718.388, 1088.997
718.870, 1097.652
719.353, 1113.826
719.835, 1126.126
720.317, 1129.646
720.799, 1126.080
721.281, 1112.815
721.763, 1094.027
722.245, 1086.711
722.727, 1092.203
723.210, 1099.383
723.692, 1103.330
724.174, 1104.663
724.656, 1104.181
725.138, 1101.037
725.620, 1099.471
726.102, 1101.643
726.584, 1102.889
727.067, 1100.862
727.549, 1097.959
728.031, 1096.947
728.513, 1098.121
728.995, 1099.453
729.477, 1096.267
729.959, 1096.182
730.441, 1095.676
730.924, 1107.683
731.406, 1116.651
731.888, 1122.746
732.370, 1117.361
732.852, 1126.800
733.334, 1130.298
733.816, 1133.553
734.298, 1145.078
734.780, 1141.363
735.263, 1151.946
735.745, 1154.498
736.227, 1159.663
736.709, 1166.011
737.191, 1166.080
737.673, 1155.220
738.155, 1145.214
738.637, 1136.886
739.119, 1130.704
739.602, 1125.695
740.084, 1123.357
740.566, 1127.860
741.048, 1141.566
741.530, 1156.407
742.012, 1167.375
742.494, 1173.177
742.976, 1166.531
743.458, 1149.760
743.941, 1137.406
744.423, 1139.720
744.905, 1159.114
745.387, 1174.364
745.869, 1185.688
746.351, 1181.339
746.833, 1197.229
747.315, 1205.009
747.797, 1212.454
748.280, 1231.196
748.762, 1236.653
749.244, 1237.953
749.726, 1241.640
750.208, 1245.563
750.690, 1249.940
751.172, 1255.710
751.654, 1261.449
752.137, 1264.407
752.619, 1265.383
753.101, 1268.685
753.583, 1277.298
754.065, 1288.745
754.547, 1301.680
755.029, 1314.538
755.511, 1317.746
755.994, 1309.628
756.476, 1306.014
756.958, 1317.767
757.440, 1338.451
757.922, 1351.871
758.404, 1354.850
758.886, 1359.731
759.368, 1364.370
759.851, 1373.871
760.333, 1395.679
760.815, 1420.314
761.297, 1434.124
761.779, 1434.970
762.261, 1438.619
762.743, 1452.317
763.225, 1468.296
763.707, 1478.672
764.190, 1489.052
764.672, 1511.094
765.154, 1545.141
765.636, 1577.030
766.118, 1595.505
766.600, 1605.087
767.082, 1613.167
767.564, 1620.180
768.046, 1629.464
768.529, 1641.357
769.011, 1658.439
769.493, 1682.947
769.975, 1713.880
770.457, 1749.078
770.939, 1792.815
771.421, 1830.924
771.903, 1857.811
772.385, 1884.927
772.868, 1918.352
773.350, 1954.581
773.832, 1985.636
774.314, 2008.064
774.796, 2042.831
775.278, 2094.518
775.760, 2163.938
776.242, 2276.593
776.724, 2397.982
777.207, 2463.373
777.689, 2464.083
778.171, 2459.218
778.653, 2496.014
779.135, 2562.220
779.617, 2636.835
780.099, 2718.930
780.581, 2801.377
781.064, 2882.232
781.546, 2966.858
782.028, 3059.563
782.510, 3159.982
782.992, 3265.258
783.474, 3372.556
783.956, 3492.470
784.438, 3630.064
784.920, 3774.541
785.403, 3920.477
785.885, 4068.437
786.367, 4219.044
786.849, 4370.246
787.331, 4533.674
787.813, 4716.070
788.295, 4907.094
788.778, 5101.218
789.260, 5298.646
789.742, 5494.009
790.224, 5690.187
790.706, 5907.733
791.188, 6174.762
791.670, 6458.478
792.152, 6693.040
792.634, 6903.598
793.117, 7197.511
793.599, 7587.670
794.081, 7945.636
794.563, 8172.575
795.045, 8315.772
795.527, 8499.481
796.009, 8729.628
796.491, 8969.851
796.973, 9220.955
797.456, 9476.550
797.938, 9730.506
798.420, 9988.759
798.902, 10258.790
799.384, 10533.690
799.866, 10845.760
800.348, 11203.500
800.830, 11589.910
801.312, 12023.490
801.795, 12467.520
802.277, 12874.330
802.759, 13250.820
803.241, 13659.040
803.723, 14142.270
804.205, 14648.400
804.687, 15166.250
805.169, 15661.100
805.652, 16086.670
806.134, 16433.520
806.616, 16698.820
807.098, 16880.910
807.580, 16979.859
808.062, 17005.391
808.544, 16951.961
809.026, 16763.250
809.508, 16435.260
809.991, 15986.420
810.473, 15412.550
810.955, 14746.190
811.437, 14023.980
811.919, 13242.250
812.401, 12468.060
812.883, 11688.790
813.365, 10942.320
813.847, 10241.280
814.330, 9573.719
814.812, 8917.007
815.294, 8283.406
815.776, 7706.348
816.258, 7207.755
816.740, 6733.101
817.222, 6242.649
817.705, 5784.926
818.187, 5402.392
818.669, 5082.134
819.151, 4794.029
819.633, 4528.605
820.115, 4274.828
820.597, 4013.184
821.079, 3764.355
821.561, 3573.843
822.044, 3426.595
822.526, 3273.867
823.008, 3103.976
823.490, 2944.297
823.972, 2817.515
824.454, 2715.821
824.936, 2618.024
825.418, 2524.499
825.901, 2427.738
826.383, 2322.104
826.865, 2230.683
827.347, 2172.020
827.829, 2130.924
828.311, 2076.303
828.793, 2002.915
829.275, 1935.630
829.757, 1878.108
830.240, 1822.197
830.722, 1760.127
831.204, 1703.205
831.686, 1664.643
832.168, 1642.780
832.650, 1621.892
833.132, 1601.386
833.614, 1575.587
834.096, 1537.231
834.578, 1495.702
835.061, 1456.893
835.543, 1423.524
836.025, 1399.801
836.507, 1387.658
836.989, 1380.620
837.471, 1378.520
837.953, 1374.174
838.435, 1348.936
838.917, 1308.728
839.400, 1278.103
839.882, 1264.337
840.364, 1259.886
840.846, 1258.772
841.328, 1259.644
841.810, 1258.056
842.292, 1254.069
842.774, 1244.331
843.257, 1224.594
843.739, 1208.973
844.221, 1218.646
844.703, 1222.180
845.185, 1219.903
845.667, 1194.413
846.149, 1198.898
846.631, 1191.371
847.114, 1183.351
847.596, 1192.055
848.078, 1169.941
848.560, 1176.739
849.042, 1177.286
849.524, 1182.297
850.006, 1190.383
850.488, 1194.739
850.971, 1189.091
851.453, 1182.321
851.935, 1186.292
852.417, 1194.610
852.899, 1188.270
853.381, 1159.298
853.863, 1147.335
854.345, 1163.688
854.827, 1173.167
855.310, 1176.143
855.792, 1153.133
856.274, 1163.678
856.756, 1160.776
857.238, 1157.322
857.720, 1172.589
858.202, 1153.359
858.684, 1166.493
859.166, 1155.311
859.649, 1150.846
860.131, 1146.467
860.613, 1141.631
861.095, 1135.785
861.577, 1130.299
862.059, 1128.174
862.541, 1129.857
863.023, 1125.942
863.505, 1112.881
863.988, 1105.685
864.470, 1113.025
864.952, 1120.510
865.434, 1112.259
865.916, 1091.233
866.398, 1079.821
866.880, 1083.536
867.362, 1088.730
867.844, 1101.742
868.327, 1109.123
868.809, 1100.233
869.291, 1083.559
869.773, 1071.473
870.255, 1065.670
870.737, 1061.555
871.219, 1063.187
871.701, 1059.840
872.184, 1040.217
872.666, 1016.755
873.148, 1003.120
873.630, 999.137
874.112, 998.045
874.594, 998.292
875.076, 994.747
875.558, 981.237
876.041, 962.435
876.523, 943.379
877.005, 924.908
877.487, 906.893
877.969, 889.630
878.451, 876.862
878.933, 874.724
879.415, 876.696
879.898, 865.860
880.380, 845.083
880.862, 830.509
881.344, 824.577
881.826, 819.729
882.308, 811.572
882.790, 800.809
883.272, 786.573
883.754, 775.891
884.237, 779.300
884.719, 779.289
885.201, 776.042
885.683, 759.862
886.165, 760.381
886.647, 754.208
887.129, 747.761
887.611, 750.630
888.093, 736.332
888.576, 739.052
889.058, 733.736
889.540, 722.612
890.022, 707.142
890.504, 693.719
890.986, 694.244
891.468, 711.257
891.950, 721.531
892.432, 717.769
892.915, 713.415
893.397, 716.237
893.879, 716.852
894.361, 700.562
894.843, 675.683
895.325, 667.823
895.807, 658.591
896.289, 671.165
896.771, 678.446
897.254, 680.718
897.736, 662.980
898.218, 671.081
898.700, 668.827
899.182, 666.148
899.664, 677.885
900.146, 663.058
900.628, 674.567
901.111, 675.563
901.593, 681.370
902.075, 676.759
902.557, 675.365
903.039, 675.576
903.521, 684.491
904.003, 697.136
904.485, 692.522
904.968, 678.779
905.450, 677.510
905.932, 685.808
906.414, 688.807
906.896, 683.916
907.378, 681.680
907.860, 690.349
908.342, 701.887
908.825, 696.590
909.307, 675.649
909.789, 668.627
910.271, 677.616
910.753, 687.518
911.235, 693.864
911.717, 695.685
912.199, 690.648
912.681, 680.741
913.164, 678.099
913.646, 684.190
914.128, 692.404
914.610, 703.799
915.092, 714.089
915.574, 723.422
916.056, 727.923
916.538, 719.276
917.020, 694.876
917.503, 680.184
917.985, 679.775
918.467, 681.832
918.949, 685.992
919.431, 690.495
919.913, 694.617
920.395, 698.128
920.877, 700.559
921.359, 702.152
921.842, 701.854
922.324, 693.830
922.806, 690.825
923.288, 702.885
923.770, 718.602
924.252, 726.545
924.734, 726.921
925.216, 726.002
925.698, 723.865
926.181, 723.735
926.663, 727.790
927.145, 733.300
927.627, 742.477
928.109, 749.800
928.591, 743.037
929.073, 722.056
929.555, 708.800
930.038, 720.774
930.520, 737.054
931.002, 744.696
931.484, 747.154
931.966, 743.895
932.448, 739.681
932.930, 748.031
933.412, 773.539
933.894, 794.672
934.377, 786.281
934.859, 769.896
935.341, 772.884
935.823, 787.750
936.305, 801.975
936.787, 812.094
937.269, 815.151
937.752, 808.974
938.234, 800.306
938.716, 797.526
939.198, 798.277
939.680, 794.110
940.162, 788.472
940.644, 799.042
941.126, 828.256
941.608, 853.530
942.091, 855.428
942.573, 848.907
943.055, 867.903
943.537, 904.858
944.019, 919.032
944.501, 909.667
944.983, 899.144
945.465, 895.393
945.947, 903.782
946.430, 933.031
946.912, 974.911
947.394, 999.492
947.876, 1006.961
948.358, 1014.456
948.840, 1023.565
949.322, 1036.744
949.804, 1055.246
950.286, 1078.263
950.769, 1106.279
951.251, 1138.222
951.733, 1157.523
952.215, 1159.582
952.697, 1180.651
953.179, 1231.078
953.661, 1285.874
954.143, 1329.829
954.625, 1367.557
955.108, 1407.521
955.590, 1449.757
956.072, 1494.356
956.554, 1542.917
957.036, 1589.224
957.518, 1634.192
958.000, 1672.398
958.482, 1699.637
958.965, 1716.999
959.447, 1728.149
959.929, 1736.779
960.411, 1724.939
960.893, 1679.688
961.375, 1638.558
961.857, 1617.942
962.339, 1598.561
962.821, 1560.481
963.304, 1508.421
963.786, 1465.135
964.268, 1428.749
964.750, 1405.466
965.232, 1407.450
965.714, 1406.392
966.196, 1389.208
966.679, 1366.683
967.161, 1347.720
967.643, 1332.615
968.125, 1325.815
968.607, 1340.358
969.089, 1343.176
969.571, 1322.741
970.053, 1301.685
970.535, 1290.206
971.018, 1283.616
971.500, 1276.788
971.982, 1269.409
972.464, 1259.858
972.946, 1241.047
973.428, 1230.268
973.910, 1238.803
974.392, 1247.115
974.875, 1244.395
975.357, 1234.224
975.839, 1216.688
976.321, 1191.455
976.803, 1190.971
977.285, 1255.997
977.767, 1298.599
978.249, 1270.778
978.731, 1235.626
979.214, 1237.408
979.696, 1263.640
980.178, 1291.441
980.660, 1318.364
981.142, 1329.270
981.624, 1291.968
982.106, 1274.809
982.588, 1320.178
983.070, 1381.072
983.553, 1421.008
984.035, 1445.466
984.517, 1471.608
984.999, 1502.803
985.481, 1537.210
985.963, 1572.835
986.445, 1613.438
986.927, 1648.905
987.409, 1705.951
987.892, 1779.023
988.374, 1848.207
988.856, 1913.704
989.338, 1964.527
989.820, 2034.314
990.302, 2096.486
990.784, 2158.355
991.266, 2226.626
991.748, 2251.675
992.231, 2287.447
992.713, 2326.827
993.195, 2358.865
993.677, 2380.970
994.159, 2394.236
994.641, 2403.782
995.123, 2399.525
995.606, 2370.074
996.088, 2327.329
996.570, 2288.294
997.052, 2248.895
997.534, 2184.499
998.016, 2076.702
998.498, 1992.808
998.980, 1984.417
999.462, 1986.332
999.945, 1954.015
1000.427, 1909.946
1000.909, 1886.473
1001.391, 1879.029
1001.873, 1856.015
1002.355, 1802.323
1002.837, 1750.985
1003.319, 1721.036
1003.801, 1694.531
1004.284, 1667.806
1004.766, 1632.133
1005.248, 1567.321
1005.730, 1482.921
1006.212, 1421.167
1006.694, 1401.673
1007.176, 1386.253
1007.658, 1355.545
1008.141, 1325.337
1008.623, 1315.309
1009.105, 1306.139
1009.587, 1264.080
1010.069, 1198.224
1010.551, 1157.266
1011.033, 1165.620
1011.515, 1172.811
1011.997, 1156.573
1012.480, 1132.373
1012.962, 1103.305
1013.444, 1076.366
1013.926, 1059.187
1014.408, 1051.609
1014.890, 1050.218
1015.372, 1057.372
1015.854, 1060.222
1016.336, 1047.598
1016.819, 1035.811
1017.301, 1034.422
1017.783, 1039.629
1018.265, 1053.512
1018.747, 1069.897
1019.229, 1066.250
1019.711, 1028.049
1020.193, 994.807
1020.676, 978.859
1021.158, 973.334
1021.640, 980.071
1022.122, 991.115
1022.604, 1000.067
1023.086, 1005.674
1023.568, 1006.891
1024.050, 1003.194
1024.532, 996.051
1025.015, 980.744
1025.497, 968.290
1025.979, 963.621
1026.461, 964.761
1026.943, 972.549
1027.425, 984.271
1027.907, 991.170
1028.389, 990.459
1028.872, 988.696
1029.354, 983.826
1029.836, 982.375
1030.318, 990.977
1030.800, 1000.876
1031.282, 1002.076
1031.764, 997.634
1032.246, 999.801
1032.729, 1014.586
1033.211, 1021.380
1033.693, 1009.066
1034.175, 999.592
1034.657, 999.748
1035.139, 1005.625
1035.621, 1018.566
1036.103, 1034.074
1036.585, 1038.981
1037.068, 1028.938
1037.550, 1021.049
1038.032, 1010.769
1038.514, 1009.875
1038.996, 1025.558
1039.478, 1047.172
1039.960, 1071.920
1040.442, 1095.840
1040.924, 1106.947
1041.407, 1098.597
1041.889, 1107.203
1042.371, 1118.533
1042.853, 1124.865
1043.335, 1144.871
1043.817, 1161.560
1044.299, 1175.104
1044.781, 1176.101
1045.264, 1193.110
1045.746, 1196.380
1046.228, 1201.105
1046.710, 1208.359
1047.192, 1213.119
1047.674, 1209.005
1048.156, 1215.357
1048.638, 1247.457
1049.120, 1290.502
1049.603, 1320.836
1050.085, 1338.579
1050.567, 1347.387
1051.049, 1341.536
1051.531, 1355.155
1052.013, 1397.662
1052.495, 1440.067
1052.977, 1468.260
1053.459, 1488.394
1053.942, 1508.809
1054.424, 1528.352
1054.906, 1536.749
1055.388, 1532.584
1055.870, 1544.031
1056.352, 1575.266
1056.834, 1605.497
1057.316, 1626.418
1057.799, 1639.226
1058.281, 1645.261
1058.763, 1644.235
1059.245, 1635.208
1059.727, 1618.254
1060.209, 1590.619
1060.691, 1553.294
1061.173, 1524.177
1061.656, 1509.125
1062.138, 1498.704
1062.620, 1485.422
1063.102, 1469.827
1063.584, 1451.351
1064.066, 1431.926
1064.548, 1418.105
1065.030, 1409.183
1065.512, 1401.586
1065.995, 1394.024
1066.477, 1384.430
1066.959, 1370.606
1067.441, 1358.755
1067.923, 1363.542
1068.405, 1371.716
1068.887, 1353.362
1069.369, 1321.160
1069.851, 1307.535
1070.334, 1314.600
1070.816, 1308.780
1071.298, 1267.604
1071.780, 1283.937
1072.262, 1265.582
1072.744, 1287.356
1073.226, 1299.389
1073.708, 1302.204
1074.191, 1268.193
1074.673, 1281.735
1075.155, 1276.221
1075.637, 1269.925
1076.119, 1279.667
1076.601, 1294.369
1077.083, 1313.499
1077.565, 1324.674
1078.047, 1330.354
1078.530, 1333.404
1079.012, 1332.820
1079.494, 1322.100
1079.976, 1301.010
1080.458, 1292.956
1080.940, 1318.822
1081.422, 1339.000
1081.904, 1336.564
1082.386, 1330.951
1082.869, 1331.072
1083.351, 1336.759
1083.833, 1348.057
1084.315, 1364.516
1084.797, 1381.427
1085.279, 1384.431
1085.761, 1374.139
1086.243, 1398.278
1086.725, 1414.059
1087.208, 1421.942
1087.690, 1398.218
1088.172, 1415.295
1088.654, 1416.021
1089.136, 1416.075
1089.618, 1438.895
1090.100, 1419.766
1090.582, 1442.224
1091.065, 1445.051
1091.547, 1463.583
1092.029, 1491.191
1092.511, 1518.849
1092.993, 1542.469
1093.475, 1552.269
1093.957, 1549.222
1094.439, 1555.902
1094.922, 1572.599
1095.404, 1588.745
1095.886, 1602.508
1096.368, 1624.946
1096.850, 1662.645
1097.332, 1697.716
1097.814, 1706.476
1098.296, 1699.257
1098.778, 1701.504
1099.260, 1712.995
1099.743, 1735.813
1100.225, 1767.552
1100.707, 1793.650
1101.189, 1811.253
1101.671, 1840.907
1102.153, 1823.740
1102.635, 1881.262
1103.117, 1920.651
1103.600, 1942.923
1104.082, 1896.628
1104.564, 1938.826
1105.046, 1945.562
1105.528, 1950.841
1106.010, 1985.972
1106.492, 2021.000
1106.974, 2057.065
1107.457, 2078.796
1107.939, 2092.929
1108.421, 2103.195
1108.903, 2109.452
1109.385, 2109.698
1109.867, 2106.030
1110.349, 2101.500
1110.831, 2096.185
1111.313, 2099.674
1111.796, 2121.119
1112.278, 2142.297
1112.760, 2167.820
1113.242, 2181.148
1113.724, 2151.750
1114.206, 2116.079
1114.688, 2135.709
1115.170, 2205.058
1115.652, 2247.132
1116.135, 2255.356
1116.617, 2247.899
1117.099, 2204.276
1117.581, 2193.450
1118.063, 2251.323
1118.545, 2318.899
1119.027, 2341.422
1119.509, 2342.415
1119.992, 2330.851
1120.474, 2385.398
1120.956, 2423.889
1121.438, 2447.184
1121.920, 2409.788
1122.402, 2450.762
1122.884, 2460.332
1123.366, 2485.449
1123.849, 2497.078
1124.331, 2525.378
1124.813, 2560.740
1125.295, 2573.250
1125.777, 2572.675
1126.259, 2588.375
1126.741, 2620.240
1127.223, 2657.318
1127.705, 2694.792
1128.188, 2726.424
1128.670, 2746.467
1129.152, 2762.424
1129.634, 2784.254
1130.116, 2803.532
1130.598, 2805.862
1131.080, 2802.268
1131.562, 2808.821
1132.044, 2827.094
1132.527, 2854.007
1133.009, 2891.080
1133.491, 2922.366
1133.973, 2940.026
1134.455, 2952.771
1134.937, 2952.266
1135.419, 2959.989
1135.901, 3003.070
1136.384, 3061.004
1136.866, 3094.143
1137.348, 3099.791
1137.830, 3112.260
1138.312, 3134.093
1138.794, 3157.784
1139.276, 3185.737
1139.758, 3209.625
1140.240, 3227.458
1140.723, 3236.506
1141.205, 3229.451
1141.687, 3218.209
1142.169, 3241.830
1142.651, 3301.158
1143.133, 3345.630
1143.615, 3374.816
1144.097, 3372.198
1144.579, 3336.518
1145.062, 3329.460
1145.544, 3385.527
1146.026, 3455.969
1146.508, 3485.282
1146.990, 3487.102
1147.472, 3478.544
1147.954, 3466.554
1148.436, 3470.064
1148.919, 3482.812
1149.401, 3478.582
1149.883, 3455.302
1150.365, 3446.529
1150.847, 3475.703
1151.329, 3508.518
1151.811, 3527.660
1152.293, 3535.646
1152.776, 3527.146
1153.258, 3514.136
1153.740, 3508.686
1154.222, 3510.372
1154.704, 3517.015
1155.186, 3531.259
1155.668, 3529.732
1156.150, 3496.880
1156.632, 3467.112
1157.115, 3444.460
1157.597, 3426.887
1158.079, 3413.134
1158.561, 3404.738
1159.043, 3405.915
1159.525, 3413.086
1160.007, 3407.345
1160.489, 3386.372
1160.971, 3376.013
1161.454, 3377.794
1161.936, 3378.401
1162.418, 3374.666
1162.900, 3362.377
1163.382, 3338.237
1163.864, 3310.127
1164.346, 3259.703
1164.828, 3228.258
1165.311, 3244.126
1165.793, 3248.528
1166.275, 3242.054
1166.757, 3192.146
1167.239, 3198.326
1167.721, 3182.029
1168.203, 3164.809
1168.685, 3166.505
1169.167, 3147.550
1169.650, 3114.658
1170.132, 3086.651
1170.614, 3082.792
1171.096, 3086.766
1171.578, 3079.329
1172.060, 3063.842
1172.542, 3055.185
1173.024, 3057.543
1173.506, 3051.580
1173.989, 3032.709
1174.471, 3011.641
1174.953, 2986.507
1175.435, 2964.729
1175.917, 2949.014
1176.399, 2939.745
1176.881, 2938.540
1177.363, 2942.583
1177.846, 2942.491
1178.328, 2938.367
1178.810, 2927.963
1179.292, 2913.591
1179.774, 2871.047
1180.256, 2897.911
1180.738, 2907.926
1181.220, 2902.000
1181.703, 2855.485
1182.185, 2838.757
1182.667, 2854.809
1183.149, 2852.980
1183.631, 2841.839
1184.113, 2827.869
1184.595, 2816.646
1185.077, 2823.475
1185.559, 2843.831
1186.042, 2841.102
1186.524, 2790.418
1187.006, 2758.225
1187.488, 2787.085
1187.970, 2809.656
1188.452, 2793.799
1188.934, 2769.662
1189.416, 2754.091
1189.898, 2748.240
1190.381, 2757.738
1190.863, 2780.596
1191.345, 2783.268
1191.827, 2759.396
1192.309, 2751.934
1192.791, 2765.239
1193.273, 2777.122
1193.755, 2780.846
1194.238, 2785.855
1194.720, 2799.185
1195.202, 2814.854
1195.684, 2823.429
1196.166, 2828.110
1196.648, 2838.615
1197.130, 2849.577
1197.612, 2846.668
1198.094, 2834.259
1198.577, 2827.712
1199.059, 2830.585
1199.541, 2835.533
1200.023, 2838.108
1200.505, 2844.319
1200.987, 2865.236
1201.469, 2880.477
1201.951, 2875.400
1202.433, 2862.511
1202.916, 2847.422
1203.398, 2835.753
1203.880, 2839.153
1204.362, 2858.021
1204.844, 2878.004
1205.326, 2901.763
1205.808, 2916.149
1206.290, 2918.972
1206.773, 2916.450
1207.255, 2908.930
1207.737, 2914.948
1208.219, 2951.949
1208.701, 2995.915
1209.183, 3001.827
1209.665, 2985.245
1210.147, 2974.660
1210.630, 2978.278
1211.112, 2964.225
1211.594, 3015.920
1212.076, 3051.659
1212.558, 3072.290
1213.040, 3032.587
1213.522, 3070.794
1214.004, 3077.781
1214.486, 3083.483
1214.969, 3115.498
1215.451, 3130.352
1215.933, 3158.859
1216.415, 3207.140
1216.897, 3256.682
1217.379, 3266.289
1217.861, 3235.819
1218.343, 3224.611
1218.825, 3237.659
1219.308, 3244.727
1219.790, 3241.199
1220.272, 3254.708
1220.754, 3294.825
1221.236, 3336.337
1221.718, 3361.473
1222.200, 3373.460
1222.682, 3370.007
1223.165, 3361.615
1223.647, 3367.032
1224.129, 3383.584
1224.611, 3409.994
1225.093, 3441.960
1225.575, 3470.940
1226.057, 3495.433
1226.539, 3521.061
1227.021, 3552.827
1227.504, 3577.838
1227.986, 3580.919
1228.468, 3590.933
1228.950, 3626.218
1229.432, 3663.878
1229.914, 3688.094
1230.396, 3706.350
1230.878, 3723.626
1231.360, 3745.989
1231.843, 3799.889
##END=



