##NAMES=Piemontite
##RRUFFID=R060905
##IDEAL CHEMISTRY=Ca_2_Mn^3+^Al_2_(Si_2_O_7_)(SiO_4_)O(OH)
##LOCALITY=Praborna mine, Aosta Valley, St. Marcel, Italy
##OWNER=RRUFF
##SOURCE=Michael Scott
##DESCRIPTION=Elongated purple single crystals associated with albite and romeite, R060323
##STATUS=The identification of this mineral has been confirmed by X-ray diffraction and chemical analysis
##URL=rruff.info/R060905
##MEASURED CHEMISTRY=(Ca_1.82_Mn^2+^_0.12_)_Σ=2_(Al_1.95_Mn^3+^_0.97_Fe^3+^_0.08_)_Σ=3_[Si_2.00_O_7_][Si_1.00_O_4_]O(OH) ; = lighter phase, and the darker phase is albite.
226.1423, 702.3179
226.6244, 706.0297
227.1065, 709.7590
227.5886, 713.4720
228.0707, 717.4509
228.5528, 722.3627
229.0350, 727.3332
229.5171, 730.0022
229.9992, 728.8998
230.4813, 727.8062
230.9634, 728.2131
231.4455, 730.1238
231.9276, 733.7977
232.4098, 740.7890
232.8919, 749.3280
233.3740, 753.6605
233.8561, 752.0234
234.3382, 748.8477
234.8203, 745.8781
235.3025, 742.2149
235.7846, 740.9738
236.2667, 743.7422
236.7488, 748.9476
237.2309, 750.8973
237.7130, 748.5648
238.1952, 744.3909
238.6773, 739.5795
239.1594, 734.2791
239.6415, 727.7281
240.1236, 717.3892
240.6057, 705.5589
241.0879, 702.7278
241.5700, 715.6754
242.0521, 728.6647
242.5342, 732.3317
243.0163, 720.3356
243.4984, 712.3091
243.9806, 710.9652
244.4627, 714.6992
244.9448, 715.9369
245.4269, 714.0473
245.9090, 710.3872
246.3911, 705.1459
246.8732, 695.7557
247.3554, 690.3304
247.8375, 690.9728
248.3196, 696.3677
248.8017, 699.3168
249.2838, 698.7089
249.7659, 697.1000
250.2481, 695.9992
250.7302, 695.6175
251.2123, 695.4480
251.6944, 696.0974
252.1765, 697.1033
252.6586, 695.5263
253.1408, 689.8018
253.6229, 683.7214
254.1050, 679.5567
254.5871, 677.4691
255.0692, 677.1744
255.5513, 679.4319
256.0334, 683.6495
256.5156, 686.7360
256.9977, 689.8636
257.4798, 690.1213
257.9619, 684.0022
258.4440, 666.0805
258.9261, 655.9188
259.4083, 657.5231
259.8904, 668.9056
260.3725, 678.2728
260.8546, 685.5424
261.3367, 691.0189
261.8188, 694.5925
262.3010, 695.4745
262.7831, 697.0781
263.2652, 701.2873
263.7473, 706.6951
264.2294, 704.4261
264.7115, 690.3091
265.1937, 676.1432
265.6758, 671.3123
266.1579, 678.7761
266.6400, 685.2347
267.1221, 689.6800
267.6042, 691.8989
268.0864, 689.4091
268.5685, 679.3721
269.0506, 670.7048
269.5327, 671.1433
270.0148, 683.4935
270.4969, 692.3464
270.9791, 694.8484
271.4612, 692.6700
271.9433, 693.5152
272.4254, 699.0000
272.9075, 703.1247
273.3896, 700.1584
273.8718, 688.4891
274.3539, 680.7046
274.8360, 679.6978
275.3181, 683.0458
275.8002, 681.0031
276.2823, 671.8237
276.7645, 663.4400
277.2466, 661.8658
277.7287, 667.8334
278.2108, 673.8538
278.6929, 679.0749
279.1750, 683.7776
279.6572, 689.5034
280.1393, 696.8131
280.6214, 702.1646
281.1035, 702.2432
281.5856, 696.9524
282.0677, 692.4070
282.5499, 689.6517
283.0320, 687.7248
283.5141, 683.7430
283.9962, 677.4067
284.4783, 671.7795
284.9604, 668.7194
285.4425, 668.1876
285.9247, 669.6894
286.4068, 673.6682
286.8889, 678.8798
287.3710, 683.5963
287.8531, 687.8633
288.3352, 689.8207
288.8174, 685.7283
289.2995, 677.1355
289.7816, 674.3251
290.2637, 679.3757
290.7458, 688.6513
291.2279, 697.4869
291.7101, 705.7662
292.1922, 711.6552
292.6743, 712.1793
293.1564, 709.0828
293.6385, 708.6064
294.1206, 711.7291
294.6028, 716.5675
295.0849, 721.5251
295.5670, 726.3662
296.0491, 729.5209
296.5312, 728.8960
297.0133, 726.0222
297.4955, 724.0413
297.9776, 723.0256
298.4597, 723.9068
298.9418, 729.5158
299.4239, 738.5469
299.9060, 746.1014
300.3882, 746.2641
300.8703, 744.0736
301.3524, 749.4728
301.8345, 764.3123
302.3166, 779.3526
302.7987, 784.0000
303.2809, 781.5385
303.7630, 780.4816
304.2451, 787.0081
304.7272, 796.2370
305.2093, 802.4970
305.6914, 805.4714
306.1736, 806.1142
306.6557, 804.5507
307.1378, 801.3081
307.6199, 797.3902
308.1020, 790.2852
308.5841, 784.5123
309.0663, 785.2427
309.5484, 792.8440
310.0305, 800.7579
310.5126, 809.0292
310.9947, 814.0645
311.4768, 810.8363
311.9590, 785.6905
312.4411, 760.7359
312.9232, 752.6760
313.4053, 761.1413
313.8874, 769.1842
314.3695, 766.5691
314.8517, 759.8043
315.3337, 755.6318
315.8159, 762.5392
316.2980, 766.7302
316.7801, 760.1059
317.2622, 743.8604
317.7443, 728.9537
318.2264, 717.9193
318.7086, 711.0285
319.1907, 708.5479
319.6728, 712.5824
320.1549, 718.9432
320.6370, 729.7932
321.1191, 743.3630
321.6013, 750.7681
322.0834, 745.1503
322.5655, 735.6658
323.0476, 727.5396
323.5297, 723.2609
324.0118, 718.1508
324.4940, 708.6942
324.9761, 697.3185
325.4582, 692.1249
325.9403, 701.7417
326.4224, 711.7128
326.9045, 715.5941
327.3867, 706.7679
327.8688, 701.7200
328.3509, 703.9898
328.8330, 710.0936
329.3151, 712.2818
329.7972, 706.2431
330.2794, 700.7853
330.7615, 699.3503
331.2436, 705.0734
331.7257, 706.2141
332.2078, 698.8329
332.6899, 688.7493
333.1721, 686.2155
333.6542, 697.7963
334.1363, 706.0541
334.6184, 704.2276
335.1005, 690.0173
335.5826, 682.8898
336.0648, 685.8910
336.5469, 692.6546
337.0290, 694.4365
337.5111, 688.0461
337.9932, 686.4276
338.4753, 695.7640
338.9575, 714.8990
339.4396, 721.5468
339.9217, 711.8449
340.4038, 698.3894
340.8859, 693.5978
341.3680, 698.3625
341.8502, 704.6084
342.3323, 712.5140
342.8144, 720.0336
343.2965, 716.2851
343.7786, 699.4493
344.2607, 682.8915
344.7429, 677.8058
345.2250, 683.4965
345.7071, 691.7026
346.1892, 702.5390
346.6713, 713.3516
347.1534, 718.3179
347.6355, 717.5994
348.1176, 716.3267
348.5998, 719.2154
349.0819, 724.3372
349.5640, 725.2944
350.0461, 720.2265
350.5282, 713.5376
351.0103, 709.2643
351.4925, 707.7612
351.9746, 710.4907
352.4567, 724.3593
352.9388, 740.9766
353.4209, 744.9990
353.9030, 733.0352
354.3852, 722.2010
354.8673, 732.8434
355.3494, 755.6592
355.8315, 772.0214
356.3136, 765.8623
356.7957, 754.6827
357.2779, 754.6922
357.7600, 766.7161
358.2421, 778.3014
358.7242, 779.1479
359.2063, 776.2916
359.6884, 777.9794
360.1706, 795.2020
360.6527, 810.4091
361.1348, 811.5648
361.6169, 800.4860
362.0990, 794.6578
362.5811, 806.5129
363.0633, 822.7834
363.5454, 833.7308
364.0275, 830.9081
364.5096, 830.0704
364.9917, 839.2072
365.4738, 854.2646
365.9560, 860.5816
366.4381, 843.9691
366.9202, 826.8616
367.4023, 819.9365
367.8844, 833.4100
368.3665, 840.9565
368.8487, 836.8571
369.3308, 826.7756
369.8129, 821.4100
370.2950, 823.9754
370.7771, 827.5486
371.2592, 831.3363
371.7414, 836.9706
372.2235, 834.8483
372.7056, 819.1977
373.1877, 800.3379
373.6698, 792.3016
374.1519, 800.9465
374.6341, 806.2999
375.1162, 802.5906
375.5983, 790.3795
376.0804, 781.4785
376.5625, 776.6699
377.0446, 773.6029
377.5267, 770.6619
378.0089, 767.9327
378.4910, 764.1385
378.9731, 758.3331
379.4552, 751.8430
379.9373, 749.3403
380.4194, 751.1476
380.9016, 753.3719
381.3837, 753.1482
381.8658, 750.9197
382.3479, 749.7411
382.8300, 750.5114
383.3121, 750.9850
383.7943, 745.9329
384.2764, 736.6298
384.7585, 730.0029
385.2406, 731.8996
385.7227, 738.5376
386.2048, 742.2804
386.6870, 742.4139
387.1691, 743.0653
387.6512, 751.6299
388.1333, 763.2324
388.6154, 768.5986
389.0975, 757.6188
389.5797, 742.7593
390.0618, 734.3483
390.5439, 732.0300
391.0260, 732.7222
391.5081, 739.9664
391.9902, 746.9091
392.4724, 746.5085
392.9545, 730.1989
393.4366, 714.6284
393.9187, 706.8714
394.4008, 705.6953
394.8829, 706.6712
395.3651, 710.8346
395.8472, 715.0233
396.3293, 717.5952
396.8114, 718.1442
397.2935, 717.4913
397.7756, 714.6440
398.2578, 710.8442
398.7399, 708.1567
399.2220, 706.0391
399.7041, 705.7585
400.1862, 709.0991
400.6683, 717.5767
401.1505, 719.5175
401.6326, 707.9827
402.1147, 695.5711
402.5968, 695.6575
403.0789, 717.4479
403.5610, 731.3546
404.0432, 729.9874
404.5253, 716.2825
405.0074, 708.8192
405.4895, 708.9731
405.9716, 712.0558
406.4537, 715.7988
406.9359, 720.4390
407.4180, 722.5752
407.9001, 720.8967
408.3822, 718.0436
408.8643, 719.6136
409.3464, 725.6539
409.8285, 732.0579
410.3106, 737.8831
410.7928, 742.4784
411.2749, 742.2528
411.7570, 736.4117
412.2391, 730.4941
412.7212, 732.6735
413.2033, 739.9735
413.6855, 743.0076
414.1676, 729.6230
414.6497, 716.3670
415.1318, 729.9438
415.6139, 767.1335
416.0960, 800.3027
416.5782, 808.4956
417.0603, 803.7639
417.5424, 799.5959
418.0245, 799.5302
418.5066, 799.9200
418.9887, 797.4081
419.4709, 793.6996
419.9530, 792.8239
420.4351, 800.8181
420.9172, 808.6550
421.3993, 809.8913
421.8814, 800.9614
422.3636, 797.8726
422.8457, 807.3727
423.3278, 823.3475
423.8099, 838.8216
424.2920, 863.5296
424.7741, 876.4755
425.2563, 866.8531
425.7384, 835.2894
426.2205, 819.6548
426.7026, 828.0529
427.1847, 843.6918
427.6668, 856.6257
428.1490, 867.1025
428.6311, 873.9742
429.1132, 876.0997
429.5953, 875.1537
430.0774, 875.7840
430.5595, 878.7200
431.0417, 880.4175
431.5238, 877.3218
432.0059, 869.5032
432.4880, 869.8757
432.9701, 879.9258
433.4522, 893.1366
433.9344, 900.5536
434.4165, 903.0463
434.8986, 909.7686
435.3807, 926.9023
435.8628, 947.6912
436.3449, 957.8955
436.8271, 958.0981
437.3092, 955.6673
437.7913, 957.0004
438.2734, 959.0958
438.7555, 956.4736
439.2376, 946.4763
439.7197, 935.9136
440.2018, 931.5432
440.6840, 930.9360
441.1661, 928.7303
441.6482, 921.8097
442.1303, 912.9339
442.6124, 902.5873
443.0945, 890.4149
443.5767, 881.5305
444.0588, 881.5448
444.5409, 883.8968
445.0230, 882.4541
445.5051, 870.7010
445.9872, 860.8106
446.4694, 855.6575
446.9515, 854.5866
447.4336, 853.7343
447.9157, 853.0435
448.3978, 852.5280
448.8799, 852.5156
449.3621, 854.5123
449.8442, 853.0306
450.3263, 846.2296
450.8084, 837.4712
451.2905, 831.9617
451.7726, 830.2386
452.2548, 829.9913
452.7369, 830.0589
453.2190, 830.8244
453.7011, 837.0063
454.1832, 849.8301
454.6653, 861.9959
455.1475, 866.2925
455.6296, 863.7253
456.1117, 861.4809
456.5938, 860.5550
457.0759, 860.9466
457.5580, 862.8412
458.0402, 866.1453
458.5223, 870.3631
459.0044, 877.0013
459.4865, 883.6544
459.9686, 886.6692
460.4507, 885.5636
460.9329, 884.0712
461.4150, 883.3414
461.8971, 884.3661
462.3792, 888.4403
462.8613, 895.6219
463.3434, 906.3207
463.8256, 924.8667
464.3077, 948.4492
464.7898, 964.9496
465.2719, 965.9086
465.7540, 962.0906
466.2361, 958.5616
466.7183, 954.1583
467.2004, 953.5189
467.6825, 959.1765
468.1646, 967.8920
468.6467, 975.9025
469.1288, 985.9931
469.6110, 990.5876
470.0930, 985.4265
470.5752, 971.4210
471.0573, 966.7186
471.5394, 975.5798
472.0215, 984.7910
472.5036, 983.0255
472.9857, 969.2127
473.4679, 958.8997
473.9500, 954.5698
474.4321, 953.0113
474.9142, 948.2709
475.3963, 940.6437
475.8784, 933.6631
476.3606, 930.5659
476.8427, 929.0378
477.3248, 924.0876
477.8069, 915.6895
478.2890, 905.1303
478.7711, 890.3167
479.2533, 874.8452
479.7354, 864.5493
480.2175, 863.8168
480.6996, 864.5118
481.1817, 862.6438
481.6638, 857.9221
482.1460, 849.5262
482.6281, 831.5569
483.1102, 814.2579
483.5923, 803.0798
484.0744, 799.2361
484.5565, 798.0034
485.0387, 800.3098
485.5208, 803.9382
486.0029, 806.7344
486.4850, 808.8647
486.9671, 809.8265
487.4492, 809.3240
487.9314, 807.5872
488.4135, 805.2559
488.8956, 801.1644
489.3777, 798.8400
489.8598, 801.8546
490.3419, 811.8599
490.8241, 813.0883
491.3062, 803.3414
491.7883, 790.0868
492.2704, 782.7839
492.7525, 781.1711
493.2346, 780.2628
493.7168, 778.0258
494.1989, 776.0610
494.6810, 778.8824
495.1631, 785.8352
495.6452, 791.5636
496.1273, 787.3630
496.6095, 781.4495
497.0916, 788.4263
497.5737, 813.7883
498.0558, 834.8015
498.5379, 831.4225
499.0201, 814.5212
499.5022, 800.0696
499.9843, 793.5479
500.4664, 790.6089
500.9485, 790.8190
501.4306, 793.7624
501.9127, 796.0614
502.3948, 799.3544
502.8770, 800.1100
503.3591, 795.6236
503.8412, 779.7590
504.3233, 771.2627
504.8054, 773.0139
505.2875, 780.4345
505.7697, 787.6017
506.2518, 795.8895
506.7339, 799.8217
507.2160, 796.1990
507.6981, 786.8661
508.1802, 783.0314
508.6624, 785.2327
509.1445, 789.5046
509.6266, 794.5618
510.1087, 799.6159
510.5908, 800.6371
511.0729, 796.8575
511.5551, 790.2945
512.0372, 781.3775
512.5193, 771.4202
513.0014, 764.0184
513.4835, 761.9133
513.9656, 762.0773
514.4478, 761.1329
514.9299, 759.5778
515.4120, 761.1386
515.8941, 771.3372
516.3762, 783.0747
516.8583, 791.5065
517.3405, 796.6364
517.8226, 796.7982
518.3047, 784.2473
518.7868, 768.3702
519.2689, 763.7878
519.7510, 784.5971
520.2332, 799.4595
520.7153, 800.2469
521.1974, 788.6229
521.6795, 781.7977
522.1616, 780.9714
522.6437, 782.5501
523.1259, 784.9771
523.6080, 788.4430
524.0901, 790.2683
524.5722, 790.0762
525.0543, 788.8699
525.5364, 787.5663
526.0186, 786.2896
526.5007, 785.9286
526.9828, 787.3173
527.4649, 789.3782
527.9470, 790.0495
528.4291, 789.6057
528.9113, 789.8807
529.3934, 795.9601
529.8755, 801.2114
530.3576, 796.8478
530.8397, 778.5694
531.3218, 764.6219
531.8040, 769.9034
532.2861, 782.3563
532.7682, 787.2460
533.2503, 773.6867
533.7324, 760.7847
534.2145, 750.9421
534.6967, 744.6597
535.1788, 744.3308
535.6609, 756.0162
536.1430, 765.9510
536.6251, 767.7072
537.1072, 759.7932
537.5894, 750.9844
538.0715, 739.2979
538.5536, 730.6885
539.0357, 734.7343
539.5178, 751.2921
539.9999, 765.1456
540.4821, 773.0805
540.9642, 775.7668
541.4463, 769.6862
541.9284, 757.0735
542.4105, 751.5015
542.8926, 768.6773
543.3748, 793.5944
543.8569, 807.2365
544.3390, 808.1613
544.8211, 804.1899
545.3032, 794.2438
545.7853, 784.5018
546.2675, 781.1961
546.7495, 788.6677
547.2316, 798.9792
547.7137, 814.7178
548.1959, 831.6060
548.6780, 840.1585
549.1601, 830.5093
549.6422, 822.4481
550.1243, 821.0102
550.6064, 826.3369
551.0886, 832.5063
551.5707, 839.7457
552.0528, 847.4413
552.5349, 855.0425
553.0170, 862.5602
553.4991, 870.8611
553.9813, 880.7291
554.4634, 889.6400
554.9455, 892.3240
555.4276, 889.9562
555.9097, 889.0183
556.3918, 892.0916
556.8740, 897.9446
557.3561, 906.4589
557.8382, 916.9744
558.3203, 925.7512
558.8024, 928.2451
559.2845, 929.4786
559.7667, 933.7794
560.2488, 942.3149
560.7309, 951.4014
561.2130, 965.1642
561.6951, 976.5616
562.1772, 978.1890
562.6594, 955.5061
563.1415, 939.5143
563.6236, 936.8415
564.1057, 942.9181
564.5878, 941.8698
565.0699, 930.0176
565.5521, 919.6805
566.0342, 917.5842
566.5163, 923.2709
566.9984, 920.8185
567.4805, 908.8328
567.9626, 896.1594
568.4448, 892.7048
568.9269, 895.6694
569.4090, 893.4209
569.8911, 881.3867
570.3732, 870.6786
570.8553, 878.6256
571.3375, 897.5020
571.8196, 909.6852
572.3017, 899.0828
572.7838, 886.9556
573.2659, 888.7407
573.7480, 902.5811
574.2302, 910.9062
574.7123, 900.8130
575.1944, 889.4188
575.6765, 886.2440
576.1586, 895.1208
576.6407, 903.8031
577.1229, 913.9125
577.6050, 922.5700
578.0871, 926.4185
578.5692, 924.5691
579.0513, 920.7034
579.5334, 913.5526
580.0156, 906.4567
580.4977, 911.0675
580.9798, 927.1013
581.4619, 938.7939
581.9440, 934.6444
582.4261, 921.2932
582.9083, 911.2931
583.3904, 904.8929
583.8725, 902.8965
584.3546, 910.7922
584.8367, 921.1191
585.3188, 925.9289
585.8010, 922.9023
586.2831, 915.6473
586.7652, 900.6577
587.2473, 883.7711
587.7294, 873.1991
588.2115, 877.2521
588.6937, 880.0081
589.1758, 878.8363
589.6579, 874.1720
590.1400, 867.9532
590.6221, 859.1674
591.1042, 850.8131
591.5864, 843.7206
592.0685, 837.8312
592.5506, 837.2434
593.0327, 843.0988
593.5148, 848.7441
593.9969, 844.6624
594.4791, 834.3585
594.9612, 831.6085
595.4433, 842.1484
595.9254, 852.5506
596.4075, 844.9614
596.8896, 826.7169
597.3718, 813.4900
597.8539, 821.0569
598.3360, 827.0675
598.8181, 813.7516
599.3002, 784.6245
599.7823, 768.2919
600.2645, 784.7568
600.7466, 803.7393
601.2287, 810.3568
601.7108, 800.1182
602.1929, 795.2358
602.6750, 797.4507
603.1572, 802.8248
603.6393, 807.8552
604.1214, 812.4637
604.6035, 817.8848
605.0856, 825.9711
605.5677, 831.9215
606.0499, 824.5953
606.5320, 806.1783
607.0141, 789.1934
607.4962, 777.1265
607.9783, 770.8772
608.4604, 775.8315
608.9425, 789.8105
609.4246, 799.5068
609.9067, 791.8328
610.3889, 781.3004
610.8710, 778.7764
611.3531, 787.6898
611.8352, 795.6685
612.3173, 799.2084
612.7994, 801.5109
613.2816, 806.0598
613.7637, 818.3030
614.2458, 821.0867
614.7279, 808.0853
615.2100, 789.1895
615.6921, 787.5131
616.1743, 805.5929
616.6564, 816.7357
617.1385, 807.0808
617.6206, 786.3333
618.1027, 780.5952
618.5848, 788.8805
619.0670, 799.4329
619.5491, 805.9487
620.0312, 809.5625
620.5133, 811.4642
620.9954, 811.7090
621.4775, 810.5809
621.9597, 806.6817
622.4418, 802.2786
622.9239, 799.4218
623.4060, 800.2355
623.8881, 800.1619
624.3702, 797.7019
624.8524, 794.4617
625.3345, 792.6888
625.8166, 791.4905
626.2987, 794.3820
626.7808, 804.4841
627.2629, 818.5717
627.7451, 822.7465
628.2272, 816.4979
628.7093, 809.7823
629.1914, 808.9791
629.6735, 812.0161
630.1556, 813.7777
630.6378, 814.1598
631.1199, 814.8060
631.6020, 817.8544
632.0841, 821.4147
632.5662, 822.5999
633.0483, 818.1766
633.5305, 818.2377
634.0126, 831.9373
634.4947, 850.3461
634.9768, 861.8637
635.4589, 861.5211
635.9410, 859.1783
636.4232, 854.4771
636.9053, 848.7793
637.3874, 846.8635
637.8695, 849.8561
638.3516, 852.1395
638.8337, 850.6534
639.3159, 846.6539
639.7980, 845.6446
640.2801, 847.6238
640.7622, 850.7505
641.2443, 856.0306
641.7264, 860.7173
642.2086, 859.8769
642.6907, 852.3491
643.1728, 844.2979
643.6549, 836.8329
644.1370, 831.9815
644.6191, 831.7971
645.1013, 843.5884
645.5834, 851.3802
646.0655, 853.1454
646.5476, 849.5175
647.0297, 839.6691
647.5118, 816.6494
647.9940, 803.2130
648.4761, 808.0522
648.9582, 825.4201
649.4403, 831.6321
649.9224, 826.0617
650.4045, 819.3155
650.8867, 816.9813
651.3688, 817.8647
651.8509, 819.7485
652.3330, 822.5670
652.8151, 825.4241
653.2972, 828.6778
653.7794, 831.0997
654.2615, 831.0817
654.7436, 827.3995
655.2257, 824.3102
655.7078, 826.3817
656.1899, 828.2277
656.6721, 823.2807
657.1542, 804.1031
657.6363, 790.4987
658.1184, 784.5259
658.6005, 784.5144
659.0826, 788.7162
659.5648, 798.0509
660.0469, 803.7652
660.5290, 801.9691
661.0111, 795.1627
661.4932, 789.7363
661.9753, 785.2645
662.4575, 778.9486
662.9396, 761.9791
663.4217, 746.7211
663.9038, 749.7694
664.3859, 772.1506
664.8680, 789.1726
665.3502, 784.1304
665.8323, 774.3506
666.3144, 772.1164
666.7965, 785.4390
667.2786, 792.2037
667.7607, 788.9984
668.2429, 782.2245
668.7250, 779.2748
669.2071, 781.2155
669.6892, 780.3884
670.1713, 774.6023
670.6534, 767.3764
671.1355, 763.7038
671.6176, 763.8057
672.0997, 769.3069
672.5818, 789.4277
673.0640, 807.4360
673.5461, 798.7147
674.0282, 771.0148
674.5103, 752.3067
674.9924, 764.1898
675.4745, 780.5109
675.9567, 788.7247
676.4388, 787.7100
676.9209, 784.0733
677.4030, 773.9430
677.8851, 766.4337
678.3672, 768.7422
678.8494, 784.5276
679.3315, 787.0314
679.8136, 772.5654
680.2957, 756.3790
680.7778, 758.5759
681.2599, 774.0108
681.7421, 781.6854
682.2242, 776.1829
682.7063, 767.4738
683.1884, 764.2994
683.6705, 765.0018
684.1526, 766.7380
684.6348, 769.0779
685.1169, 771.6249
685.5990, 774.8737
686.0811, 778.2584
686.5632, 780.2766
687.0453, 782.9876
687.5275, 781.0353
688.0096, 769.9481
688.4917, 752.5758
688.9738, 747.7133
689.4559, 757.3452
689.9380, 767.9588
690.4202, 771.0618
690.9023, 768.9005
691.3844, 768.2888
691.8665, 769.3204
692.3486, 770.6863
692.8307, 772.9011
693.3129, 774.1290
693.7950, 771.1616
694.2771, 761.5448
694.7592, 756.1882
695.2413, 762.7268
695.7234, 773.1062
696.2056, 779.5894
696.6877, 782.2913
697.1698, 780.0812
697.6519, 770.2233
698.1340, 758.2672
698.6161, 754.0638
699.0983, 758.0022
699.5804, 759.9456
700.0625, 756.3052
700.5446, 751.0392
701.0267, 750.6808
701.5089, 754.3302
701.9910, 758.9903
702.4731, 765.6475
702.9552, 770.6920
703.4373, 771.1039
703.9194, 767.4211
704.4016, 762.7802
704.8837, 754.0986
705.3658, 748.5088
705.8479, 750.1047
706.3300, 759.2748
706.8121, 764.2016
707.2943, 764.0596
707.7764, 761.5707
708.2585, 758.0889
708.7406, 753.6713
709.2227, 748.8613
709.7048, 743.5838
710.1870, 738.7930
710.6691, 732.8835
711.1512, 728.9252
711.6333, 733.0862
712.1154, 749.8635
712.5975, 763.6854
713.0797, 762.3011
713.5618, 755.5609
714.0439, 754.6902
714.5260, 770.1230
715.0081, 780.0294
715.4902, 781.5864
715.9724, 777.9875
716.4545, 774.7033
716.9366, 771.9819
717.4187, 766.9971
717.9008, 756.6298
718.3829, 746.5358
718.8651, 752.3721
719.3472, 770.1105
719.8293, 782.3839
720.3114, 774.1605
720.7935, 761.4234
721.2756, 757.4853
721.7578, 761.0750
722.2399, 765.2382
722.7220, 771.5357
723.2041, 774.1750
723.6862, 768.2023
724.1683, 753.2474
724.6505, 746.8030
725.1326, 752.1993
725.6147, 758.9242
726.0968, 760.1472
726.5789, 756.3110
727.0610, 754.2549
727.5432, 754.1833
728.0253, 754.3959
728.5074, 753.9650
728.9895, 752.6259
729.4716, 750.0073
729.9537, 746.0464
730.4359, 740.7873
730.9180, 728.6011
731.4001, 718.0972
731.8822, 717.2473
732.3643, 737.2368
732.8464, 753.7819
733.3285, 767.8688
733.8106, 777.5922
734.2927, 778.9393
734.7748, 770.9996
735.2570, 763.8481
735.7391, 759.4869
736.2212, 756.6303
736.7033, 751.6156
737.1854, 746.1816
737.6675, 745.7948
738.1497, 759.7748
738.6318, 772.2004
739.1139, 769.7849
739.5960, 757.2473
740.0781, 747.1582
740.5602, 743.7132
741.0424, 742.2202
741.5245, 741.3510
742.0066, 741.3130
742.4887, 743.4512
742.9708, 748.1566
743.4529, 753.4924
743.9351, 758.8120
744.4172, 763.9962
744.8993, 769.8687
745.3814, 776.0603
745.8635, 778.4389
746.3456, 769.9023
746.8278, 758.8725
747.3099, 754.1709
747.7920, 756.4233
748.2741, 751.2628
748.7562, 761.4033
749.2383, 767.0377
749.7205, 768.4082
750.2026, 752.7442
750.6847, 759.0768
751.1668, 756.5942
751.6489, 753.7501
752.1310, 763.1786
752.6132, 749.9922
753.0953, 759.2262
753.5774, 759.5103
754.0595, 763.8906
754.5416, 759.4011
755.0237, 757.6512
755.5059, 764.7739
755.9880, 759.9929
756.4701, 764.6207
756.9522, 771.7006
757.4343, 778.0917
757.9164, 779.6961
758.3986, 773.1355
758.8807, 768.0908
759.3628, 764.8157
759.8449, 763.8359
760.3270, 768.0472
760.8091, 777.1042
761.2913, 781.1561
761.7734, 776.1920
762.2555, 768.2076
762.7376, 763.8687
763.2197, 762.5912
763.7018, 762.9598
764.1840, 768.8773
764.6661, 771.6385
765.1482, 762.5792
765.6303, 747.2585
766.1124, 742.3384
766.5945, 757.2889
767.0767, 767.7633
767.5588, 766.8193
768.0409, 757.8268
768.5230, 752.6288
769.0051, 751.2670
769.4872, 752.2567
769.9694, 756.2015
770.4515, 761.2610
770.9336, 765.4473
771.4157, 768.3862
771.8978, 768.4172
772.3799, 757.3383
772.8621, 749.6831
773.3442, 757.4286
773.8263, 780.3939
774.3084, 792.1387
774.7905, 785.1801
775.2726, 777.1393
775.7548, 776.5801
776.2369, 782.6733
776.7190, 780.5424
777.2011, 769.6058
777.6832, 759.9308
778.1653, 761.4152
778.6475, 767.6204
779.1296, 767.2805
779.6117, 759.9481
780.0938, 753.1287
780.5759, 752.6024
781.0580, 753.0066
781.5402, 749.4034
782.0223, 738.2613
782.5044, 737.2171
782.9865, 751.9607
783.4686, 768.6453
783.9507, 777.9918
784.4329, 779.8440
784.9150, 778.7079
785.3971, 774.6014
785.8792, 768.2997
786.3613, 753.9947
786.8434, 740.1757
787.3256, 743.8511
787.8077, 771.2928
788.2898, 794.6898
788.7719, 798.6848
789.2540, 793.3521
789.7361, 786.5469
790.2183, 774.5473
790.7004, 771.6652
791.1825, 783.3065
791.6646, 796.0341
792.1467, 791.4552
792.6288, 771.3692
793.1110, 765.4238
793.5930, 779.5401
794.0751, 798.0355
794.5573, 805.0797
795.0394, 804.7300
795.5215, 803.0966
796.0036, 802.2469
796.4857, 799.1887
796.9678, 788.0196
797.4500, 776.4765
797.9321, 774.3248
798.4142, 788.7117
798.8963, 795.5386
799.3784, 790.3048
799.8605, 781.5251
800.3427, 783.6416
800.8248, 794.4080
801.3069, 799.4806
801.7890, 794.0009
802.2711, 785.7477
802.7532, 780.0176
803.2354, 777.5280
803.7175, 779.2452
804.1996, 790.6908
804.6817, 800.1066
805.1638, 805.4383
805.6459, 807.0820
806.1281, 804.5146
806.6102, 795.8416
807.0923, 789.9977
807.5744, 789.2795
808.0565, 790.4221
808.5386, 786.4153
809.0208, 779.0892
809.5029, 775.7758
809.9850, 781.9468
810.4671, 788.1420
810.9492, 782.2471
811.4313, 772.2111
811.9135, 772.0952
812.3956, 797.1740
812.8777, 817.6165
813.3598, 829.8883
813.8419, 834.9338
814.3240, 833.2189
814.8062, 823.9994
815.2883, 815.4954
815.7704, 810.6089
816.2525, 806.3386
816.7346, 794.3302
817.2167, 778.9222
817.6989, 771.4699
818.1810, 781.4343
818.6631, 795.7656
819.1452, 813.7178
819.6273, 831.2747
820.1094, 837.9109
820.5916, 826.2974
821.0737, 816.5867
821.5558, 811.8638
822.0379, 811.3895
822.5200, 815.5637
823.0021, 823.8096
823.4843, 828.2673
823.9664, 824.4368
824.4485, 817.9623
824.9306, 814.3997
825.4127, 813.4060
825.8948, 814.1489
826.3770, 815.7806
826.8591, 819.6653
827.3412, 828.9294
827.8233, 840.2128
828.3054, 845.9544
828.7875, 844.6725
829.2697, 842.9701
829.7518, 842.2927
830.2339, 842.2563
830.7160, 842.4604
831.1981, 842.6919
831.6802, 842.0516
832.1624, 839.1429
832.6445, 836.4517
833.1266, 836.7059
833.6087, 838.3865
834.0908, 838.2411
834.5729, 834.5503
835.0551, 830.0981
835.5372, 824.1797
836.0193, 818.3788
836.5014, 816.7501
836.9835, 819.3802
837.4656, 822.9733
837.9478, 827.4966
838.4299, 830.7930
838.9120, 828.2120
839.3941, 822.1776
839.8762, 818.1009
840.3583, 821.3540
840.8405, 823.3519
841.3226, 818.3724
841.8047, 810.7217
842.2868, 809.0735
842.7689, 815.2175
843.2510, 823.2441
843.7332, 833.9222
844.2153, 843.2211
844.6974, 840.6748
845.1795, 829.1048
845.6616, 821.2787
846.1437, 823.1765
846.6259, 826.9899
847.1080, 825.2678
847.5901, 821.6064
848.0722, 821.9234
848.5543, 834.9953
849.0364, 841.9911
849.5186, 838.4564
850.0007, 830.2994
850.4828, 827.5558
850.9649, 830.3984
851.4470, 833.0218
851.9291, 834.6112
852.4113, 834.3912
852.8934, 828.8271
853.3755, 821.3253
853.8576, 818.3177
854.3397, 826.4471
854.8218, 831.8881
855.3040, 826.4016
855.7860, 817.3975
856.2681, 815.3346
856.7502, 824.3277
857.2324, 826.1777
857.7145, 817.0761
858.1966, 805.4460
858.6787, 802.5278
859.1608, 806.6368
859.6429, 813.4097
860.1251, 823.0248
860.6072, 830.5081
861.0893, 831.1909
861.5714, 828.4028
862.0535, 825.5310
862.5356, 819.4423
863.0178, 820.6787
863.4999, 834.1312
863.9820, 848.3766
864.4641, 850.1429
864.9462, 840.3717
865.4283, 831.3334
865.9105, 823.9605
866.3926, 820.0050
866.8747, 823.4091
867.3568, 830.2189
867.8389, 835.6437
868.3210, 838.6702
868.8032, 841.2518
869.2853, 845.4743
869.7674, 847.9984
870.2495, 845.8538
870.7316, 837.6698
871.2137, 833.0208
871.6959, 831.8944
872.1780, 834.4174
872.6601, 844.1384
873.1422, 856.3155
873.6243, 862.2668
874.1064, 861.1211
874.5886, 858.6764
875.0707, 856.0208
875.5528, 854.5283
876.0349, 855.5234
876.5170, 859.1888
876.9991, 861.9716
877.4813, 863.5417
877.9634, 865.1484
878.4455, 867.1530
878.9276, 869.8347
879.4097, 875.9249
879.8918, 884.7099
880.3740, 889.6479
880.8561, 882.3193
881.3382, 873.3746
881.8203, 868.7480
882.3024, 868.9275
882.7845, 875.2128
883.2667, 894.3864
883.7488, 906.6075
884.2309, 901.6849
884.7130, 885.5396
885.1951, 883.3116
885.6772, 893.7100
886.1594, 903.7938
886.6415, 906.0977
887.1236, 905.4737
887.6057, 903.0428
888.0878, 901.0019
888.5699, 905.6473
889.0521, 930.7273
889.5342, 947.1771
890.0163, 946.0536
890.4984, 934.8943
890.9805, 931.2375
891.4626, 935.1295
891.9448, 940.7053
892.4269, 947.4102
892.9090, 952.5094
893.3911, 950.7297
893.8732, 945.1288
894.3553, 941.3495
894.8375, 939.0509
895.3196, 941.6561
895.8017, 956.8474
896.2838, 973.1115
896.7659, 974.9433
897.2480, 959.1041
897.7302, 951.1139
898.2123, 955.5552
898.6944, 963.0641
899.1765, 961.0338
899.6586, 954.5099
900.1407, 952.5927
900.6229, 957.8286
901.1050, 964.8983
901.5871, 975.4924
902.0692, 984.1807
902.5513, 986.2436
903.0334, 979.0831
903.5156, 975.7090
903.9977, 976.7087
904.4798, 979.1112
904.9619, 982.5290
905.4440, 984.8816
905.9261, 978.1232
906.4083, 962.2891
906.8904, 952.8829
907.3725, 966.1293
907.8546, 982.6801
908.3367, 988.9842
908.8188, 984.5052
909.3010, 986.3860
909.7831, 997.2983
910.2652, 1006.365
910.7473, 1006.437
911.2294, 1001.424
911.7115, 1004.492
912.1937, 1013.639
912.6758, 1018.454
913.1579, 1006.189
913.6400, 994.6677
914.1221, 993.6399
914.6042, 1001.854
915.0864, 1013.779
915.5685, 1034.293
916.0506, 1045.510
916.5327, 1039.623
917.0148, 1027.110
917.4969, 1031.059
917.9790, 1047.580
918.4611, 1061.982
918.9432, 1070.497
919.4254, 1073.313
919.9075, 1066.238
920.3896, 1055.041
920.8717, 1048.147
921.3538, 1045.504
921.8359, 1050.056
922.3181, 1066.138
922.8002, 1081.755
923.2823, 1079.430
923.7644, 1063.299
924.2465, 1055.286
924.7286, 1059.163
925.2108, 1059.684
925.6929, 1037.982
926.1750, 1012.546
926.6571, 1000.984
927.1392, 1010.719
927.6213, 1011.224
928.1035, 998.6399
928.5856, 983.6016
929.0677, 969.9727
929.5498, 959.0782
930.0319, 961.3377
930.5140, 975.3405
930.9962, 986.0306
931.4783, 984.7335
931.9604, 975.6388
932.4425, 958.3807
932.9246, 934.7830
933.4067, 914.8344
933.8889, 896.6925
934.3710, 887.7103
934.8531, 893.1542
935.3352, 906.3350
935.8173, 909.5706
936.2994, 904.3539
936.7816, 897.3432
937.2637, 888.4966
937.7458, 882.5660
938.2279, 884.8070
938.7100, 891.6393
939.1921, 897.5850
939.6743, 903.9646
940.1564, 905.3323
940.6385, 900.4430
941.1206, 892.1161
941.6027, 881.5695
942.0848, 870.1970
942.5670, 864.9082
943.0491, 867.2697
943.5312, 869.9408
944.0133, 866.4041
944.4954, 861.6202
944.9775, 860.2910
945.4597, 864.2638
945.9418, 864.7726
946.4239, 860.4597
946.9060, 855.6893
947.3881, 852.2117
947.8702, 850.3870
948.3524, 852.4828
948.8345, 858.0112
949.3166, 863.5712
949.7987, 867.2681
950.2808, 870.3784
950.7629, 874.3442
951.2451, 878.4593
951.7272, 879.7259
952.2093, 877.4557
952.6914, 873.7523
953.1735, 868.2833
953.6556, 862.8734
954.1378, 862.9285
954.6199, 866.1142
955.1020, 864.9974
955.5841, 853.6158
956.0662, 845.0854
956.5483, 847.6537
957.0305, 856.1592
957.5126, 865.1343
957.9947, 876.3494
958.4768, 882.0832
958.9589, 882.0963
959.4410, 877.1752
959.9232, 863.5043
960.4053, 846.7239
960.8874, 840.1181
961.3695, 844.6920
961.8516, 848.7775
962.3337, 844.4148
962.8159, 839.7354
963.2980, 838.3403
963.7801, 840.2727
964.2622, 848.5292
964.7443, 865.1094
965.2264, 875.2861
965.7086, 868.2919
966.1907, 855.0176
966.6728, 853.2341
967.1549, 859.6540
967.6370, 865.6999
968.1191, 868.0402
968.6013, 869.6264
969.0834, 871.0427
969.5655, 872.2856
970.0476, 873.8547
970.5297, 875.9349
971.0118, 874.3935
971.4940, 867.7200
971.9761, 862.1154
972.4582, 864.2750
972.9403, 871.3584
973.4224, 881.1801
973.9045, 894.8259
974.3867, 903.0287
974.8688, 901.2629
975.3509, 897.2175
975.8330, 894.1498
976.3151, 892.1002
976.7972, 893.1812
977.2794, 897.1002
977.7615, 898.8109
978.2436, 894.3804
978.7257, 886.9611
979.2078, 875.2712
979.6899, 862.4197
980.1720, 859.4947
980.6541, 877.7919
981.1362, 887.8516
981.6183, 881.4194
982.1005, 869.1295
982.5826, 872.5068
983.0647, 887.2824
983.5468, 895.2177
984.0289, 890.6116
984.5110, 883.7029
984.9932, 883.0311
985.4753, 882.4293
985.9574, 874.0809
986.4395, 853.1588
986.9216, 844.2944
987.4037, 850.1951
987.8859, 859.2734
988.3680, 862.9630
988.8501, 863.5048
989.3322, 867.2839
989.8143, 873.4104
990.2964, 875.4535
990.7786, 861.8396
991.2607, 852.4797
991.7428, 860.5754
992.2249, 878.2672
992.7070, 883.8256
993.1891, 876.0352
993.6713, 866.7137
994.1534, 857.7554
994.6355, 851.3212
995.1176, 851.2874
995.5997, 855.3080
996.0818, 860.0663
996.5640, 866.5349
997.0461, 869.4240
997.5282, 866.9435
998.0103, 862.0381
998.4924, 855.4655
998.9745, 847.5047
999.4567, 844.8605
999.9388, 847.5182
1000.421, 852.3762
1000.903, 860.0696
1001.385, 866.7625
1001.867, 868.0930
1002.349, 864.9472
1002.831, 864.1932
1003.314, 867.6852
1003.796, 870.1571
1004.278, 869.7592
1004.760, 868.5402
1005.242, 872.6149
1005.724, 879.2982
1006.206, 879.2207
1006.688, 864.4017
1007.171, 855.8638
1007.653, 870.3806
1008.135, 891.7267
1008.617, 905.5778
1009.099, 911.8054
1009.581, 907.7999
1010.063, 891.5135
1010.545, 877.8887
1011.027, 882.3073
1011.510, 893.9804
1011.992, 897.9959
1012.474, 894.7598
1012.956, 890.5062
1013.438, 886.7645
1013.920, 882.7711
1014.402, 878.5075
1014.884, 873.8211
1015.367, 865.7520
1015.849, 855.4805
1016.331, 855.5816
1016.813, 872.7140
1017.295, 890.2922
1017.777, 894.7419
1018.259, 891.6381
1018.741, 885.9999
1019.223, 876.6359
1019.706, 870.8018
1020.188, 868.5002
1020.670, 869.8920
1021.152, 877.7009
1021.634, 888.7341
1022.116, 893.2773
1022.598, 892.4611
1023.080, 892.7191
1023.563, 901.2461
1024.045, 906.8089
1024.527, 899.8194
1025.009, 888.9016
1025.491, 894.8326
1025.973, 919.0300
1026.455, 934.1754
1026.937, 933.8987
1027.419, 926.9362
1027.901, 919.9950
1028.384, 913.4857
1028.866, 907.1558
1029.348, 899.3880
1029.830, 899.7900
1030.312, 914.5822
1030.794, 927.0313
1031.276, 927.0890
1031.758, 917.2224
1032.241, 903.3591
1032.723, 887.8948
1033.205, 882.8604
1033.687, 905.1526
1034.169, 928.3169
1034.651, 940.5133
1035.133, 944.0244
1035.615, 943.4755
1036.098, 938.5516
1036.580, 929.4885
1037.062, 914.9825
1037.544, 902.7174
1038.026, 905.6273
1038.508, 913.8518
1038.990, 910.8301
1039.472, 892.8678
1039.954, 886.9091
1040.437, 910.3616
1040.919, 930.4839
1041.401, 934.4696
1041.883, 926.0017
1042.365, 916.9968
1042.847, 907.9175
1043.329, 901.0657
1043.811, 897.6937
1044.293, 896.4673
1044.776, 898.8652
1045.258, 901.8915
1045.740, 900.8184
1046.222, 893.0241
1046.704, 890.6019
1047.186, 894.6823
1047.668, 900.8688
1048.150, 905.3735
1048.633, 909.4188
1049.115, 916.9404
1049.597, 927.0964
1050.079, 930.3695
1050.561, 916.6071
1051.043, 904.0123
1051.525, 896.7427
1052.007, 893.9966
1052.490, 893.8107
1052.972, 896.4020
1053.454, 904.3702
1053.936, 921.2543
1054.418, 934.3416
1054.900, 929.7966
1055.382, 920.2331
1055.864, 919.2260
1056.346, 929.9209
1056.828, 929.6908
1057.311, 916.6624
1057.793, 903.5176
1058.275, 899.1479
1058.757, 899.3806
1059.239, 897.5255
1059.721, 894.9094
1060.203, 895.6490
1060.685, 907.3145
1061.168, 913.8145
1061.650, 912.2580
1062.132, 905.6032
1062.614, 895.3238
1063.096, 883.1530
1063.578, 878.8718
1064.060, 884.2386
1064.542, 889.0364
1065.025, 882.4672
1065.507, 876.5865
1065.989, 882.3302
1066.471, 897.5282
1066.953, 904.8882
1067.435, 903.5893
1067.917, 901.8099
1068.399, 903.4456
1068.881, 904.6610
1069.364, 895.6782
1069.846, 884.5106
1070.328, 884.5865
1070.810, 911.1113
1071.292, 925.6360
1071.774, 923.3618
1072.256, 915.7392
1072.738, 911.2850
1073.220, 909.2074
1073.703, 906.3137
1074.185, 902.9262
1074.667, 901.9553
1075.149, 907.3852
1075.631, 912.7927
1076.113, 914.8745
1076.595, 915.4810
1077.077, 918.6464
1077.559, 924.4962
1078.042, 927.3871
1078.524, 925.9910
1079.006, 924.0815
1079.488, 927.7009
1079.970, 930.9218
1080.452, 926.1319
1080.934, 910.9743
1081.416, 904.7209
1081.899, 909.9047
1082.381, 916.4358
1082.863, 920.8052
1083.345, 922.8973
1083.827, 920.0131
1084.309, 914.9956
1084.791, 914.3419
1085.273, 925.4988
1085.755, 932.0784
1086.238, 928.4424
1086.720, 922.8185
1087.202, 921.7850
1087.684, 924.9903
1088.166, 930.9567
1088.648, 939.1694
1089.130, 944.3154
1089.612, 944.5204
1090.094, 939.2048
1090.577, 923.0162
1091.059, 901.9266
1091.541, 890.8046
1092.023, 890.9781
1092.505, 892.3312
1092.987, 893.3448
1093.469, 894.5673
1093.951, 897.3654
1094.434, 900.1971
1094.916, 901.1556
1095.398, 899.8273
1095.880, 897.9073
1096.362, 893.3972
1096.844, 893.8055
1097.326, 904.8121
1097.808, 919.2917
1098.291, 919.2338
1098.773, 910.3811
1099.255, 907.8449
1099.737, 921.5693
1100.219, 931.5596
1100.701, 932.5242
1101.183, 928.0928
1101.665, 918.4293
1102.147, 904.1426
1102.630, 896.8870
1103.112, 896.3309
1103.594, 898.6672
1104.076, 904.0639
1104.558, 909.0615
1105.040, 911.7096
1105.522, 912.3860
1106.004, 911.5038
1106.486, 908.4246
1106.969, 908.8946
1107.451, 914.2761
1107.933, 918.2402
1108.415, 911.1566
1108.897, 901.6478
1109.379, 899.6814
1109.861, 905.9777
1110.343, 911.1743
1110.826, 916.6133
1111.308, 914.9327
1111.790, 900.4082
1112.272, 883.8588
1112.754, 886.5751
1113.236, 900.6631
1113.718, 910.5847
1114.200, 912.3165
1114.682, 910.2490
1115.165, 900.3792
1115.647, 893.9163
1116.129, 899.5866
1116.611, 913.7738
1117.093, 917.9490
1117.575, 913.8628
1118.057, 910.1284
1118.539, 912.0274
1119.021, 913.9611
1119.504, 912.7366
1119.986, 910.8905
1120.468, 912.0983
1120.950, 916.8582
1121.432, 914.7823
1121.914, 905.2730
1122.396, 899.0528
1122.878, 909.7284
1123.361, 922.0411
1123.843, 924.0905
1124.325, 917.2209
1124.807, 909.5167
1125.289, 899.8832
1125.771, 894.8022
1126.253, 895.3669
1126.735, 900.7875
1127.218, 916.0554
1127.700, 932.3021
1128.182, 937.1823
1128.664, 928.3929
1129.146, 919.5914
1129.628, 911.0444
1130.110, 905.1687
1130.592, 903.0978
1131.074, 903.7824
1131.557, 907.0066
1132.039, 911.0513
1132.521, 910.9520
1133.003, 901.2927
1133.485, 899.4788
1133.967, 916.6777
1134.449, 932.8853
1134.931, 934.9666
1135.413, 926.1201
1135.896, 922.4807
1136.378, 923.2077
1136.860, 924.2846
1137.342, 926.8751
1137.824, 925.6808
1138.306, 911.3054
1138.788, 897.1819
1139.270, 901.1609
1139.752, 923.3254
1140.235, 926.7298
1140.717, 910.2040
1141.199, 893.7863
1141.681, 891.6769
1142.163, 894.6172
1142.645, 897.6104
1143.127, 900.7810
1143.609, 905.5670
1144.092, 912.7327
1144.574, 915.3664
1145.056, 911.8661
1145.538, 907.5711
1146.020, 908.9537
1146.502, 911.4296
1146.984, 908.8760
1147.466, 901.2165
1147.948, 901.1354
1148.431, 911.9436
1148.913, 917.9205
1149.395, 912.6877
1149.877, 904.3762
1150.359, 904.8667
1150.841, 909.8653
1151.323, 912.7004
1151.805, 910.7342
1152.287, 912.9562
1152.770, 922.6494
1153.252, 929.6369
1153.734, 927.2083
1154.216, 920.0701
1154.698, 918.5128
1155.180, 921.0910
1155.662, 924.5997
1156.144, 930.1541
1156.627, 932.4236
1157.109, 929.2914
1157.591, 925.5704
1158.073, 925.8992
1158.555, 928.7583
1159.037, 927.1147
1159.519, 922.0118
1160.001, 918.7296
1160.484, 921.2701
1160.966, 924.2742
1161.448, 928.4515
1161.930, 930.1419
1162.412, 922.3395
1162.894, 907.0917
1163.376, 898.6066
1163.858, 897.7834
1164.340, 900.8105
1164.823, 909.9676
1165.305, 917.2632
1165.787, 915.8100
1166.269, 911.4960
1166.751, 919.4378
1167.233, 938.4462
1167.715, 945.3899
1168.197, 935.0015
1168.679, 926.4203
1169.162, 943.7619
1169.644, 959.7718
1170.126, 946.1531
1170.608, 912.5871
1171.090, 909.6147
1171.572, 938.0004
1172.054, 959.6622
1172.536, 963.1461
1173.019, 957.5064
1173.501, 944.2520
1173.983, 930.3505
1174.465, 921.5633
1174.947, 917.8013
1175.429, 928.7361
1175.911, 956.6880
1176.393, 972.6621
1176.875, 956.4595
1177.358, 934.1303
1177.840, 935.0461
1178.322, 946.7184
1178.804, 950.9868
1179.286, 942.8176
1179.768, 939.7766
1180.250, 942.3279
1180.732, 947.2820
1181.214, 956.5974
1181.697, 963.9172
1182.179, 957.3447
1182.661, 943.5565
1183.143, 937.4034
1183.625, 944.5081
1184.107, 951.5764
1184.589, 958.6739
1185.071, 963.7896
1185.554, 964.7113
1186.036, 962.9309
1186.518, 959.7314
1187.000, 955.5845
1187.482, 952.0645
1187.964, 949.5309
1188.446, 947.3448
1188.928, 945.3124
1189.411, 944.0001
1189.893, 943.7529
1190.375, 944.8087
1190.857, 948.7562
1191.339, 955.0897
1191.821, 958.0899
1192.303, 952.3464
1192.785, 952.2090
1193.267, 962.2607
1193.750, 974.6940
1194.232, 978.9326
1194.714, 977.1984
1195.196, 972.0302
1195.678, 963.6260
1196.160, 958.7669
1196.642, 959.7411
1197.124, 962.8846
1197.606, 967.7515
1198.089, 973.3473
1198.571, 979.2016
1199.053, 983.9342
1199.535, 984.2003
1200.017, 978.6185
1200.499, 972.7651
1200.981, 966.2933
1201.463, 962.2427
1201.945, 961.8747
1202.428, 964.8091
1202.910, 974.4184
1203.392, 985.9958
1203.874, 987.6054
1204.356, 971.0581
1204.838, 959.3786
1205.320, 957.5411
1205.802, 959.7935
1206.285, 963.9852
1206.767, 969.4002
1207.249, 974.9479
1207.731, 979.8615
1208.213, 981.8961
1208.695, 978.7080
1209.177, 975.2902
1209.659, 972.0441
1210.141, 969.4456
1210.624, 966.4614
1211.106, 964.7531
1211.588, 971.1472
1212.070, 983.7584
1212.552, 996.5521
1213.034, 1017.825
1213.516, 1020.632
1213.998, 991.8900
1214.480, 961.7415
1214.963, 960.6109
1215.445, 979.1738
1215.927, 989.0305
1216.409, 990.6827
1216.891, 989.8493
1217.373, 986.4043
1217.855, 984.1461
1218.337, 983.3335
1218.820, 984.4026
1219.302, 989.5729
1219.784, 996.6733
1220.266, 998.5607
1220.748, 995.7776
1221.230, 994.0815
1221.712, 997.5914
1222.194, 1000.139
1222.677, 1001.315
1223.159, 999.8656
1223.641, 990.6070
1224.123, 978.3193
1224.605, 975.7660
1225.087, 983.2047
1225.569, 990.3142
1226.051, 992.6063
1226.533, 995.0656
1227.016, 999.0054
1227.498, 1003.031
1227.980, 1004.995
1228.462, 1005.415
1228.944, 1005.401
1229.426, 1005.082
1229.908, 1003.719
1230.390, 998.0366
1230.872, 996.3680
1231.355, 1001.532
1231.837, 1010.526
1232.319, 1021.304
1232.801, 1030.972
1233.283, 1031.911
1233.765, 1022.155
1234.247, 1017.449
1234.729, 1024.709
1235.212, 1029.309
1235.694, 1025.871
1236.176, 1018.982
1236.658, 1017.227
1237.140, 1017.719
1237.622, 1013.815
1238.104, 1002.628
1238.586, 1001.424
1239.068, 1016.097
1239.551, 1029.034
1240.033, 1033.712
1240.515, 1033.038
1240.997, 1026.887
1241.479, 1020.914
1241.961, 1027.030
1242.443, 1053.048
1242.925, 1062.494
1243.407, 1049.782
1243.890, 1033.965
1244.372, 1021.861
1244.854, 1013.585
1245.336, 1009.316
1245.818, 1009.269
1246.300, 1014.854
1246.782, 1029.059
1247.264, 1039.243
1247.747, 1045.912
1248.229, 1045.324
1248.711, 1030.785
1249.193, 1015.007
1249.675, 1016.172
1250.157, 1025.473
1250.639, 1028.579
1251.121, 1020.799
1251.604, 1023.998
1252.086, 1039.948
1252.568, 1053.370
1253.050, 1054.265
1253.532, 1050.766
1254.014, 1048.791
1254.496, 1048.746
1254.978, 1052.553
1255.460, 1062.556
1255.943, 1059.526
1256.425, 1042.656
1256.907, 1031.194
1257.389, 1042.625
1257.871, 1056.111
1258.353, 1054.439
1258.835, 1045.237
1259.317, 1038.592
1259.799, 1034.523
1260.281, 1035.185
1260.764, 1040.331
1261.246, 1044.044
1261.728, 1039.760
1262.210, 1036.524
1262.692, 1041.245
1263.174, 1048.700
1263.656, 1053.669
1264.138, 1056.206
##END=



