##NAMES=Piemontite
##RRUFFID=R061119
##IDEAL CHEMISTRY=Ca_2_Mn^3+^Al_2_(Si_2_O_7_)(SiO_4_)O(OH)
##LOCALITY=Muramatsu mine, Kinkai, Nagasaki, Japan
##OWNER=RRUFF
##SOURCE=Michael Scott
##DESCRIPTION=Red elongated prismatic crystals
##STATUS=The identification of this mineral is confirmed by single-crystal X-ray diffraction and chemical analysis.
##URL=rruff.info/R061119
##MEASURED CHEMISTRY=(Ca_1.96_Mn^2+^_0.04_)_Σ=2_(Mn^3+^_0.64_Fe^3+^_0.36_)_Σ=1_Al_2.00_(Si_2.00_O_7_)(Si_1.00_O_4_)O(OH); OH assumed by stoichiometry; Mn^2+^ and  Mn^3+^ splitted by charge balance
193.9469, 1458.578
194.4290, 1460.738
194.9111, 1461.274
195.3932, 1456.531
195.8753, 1445.679
196.3574, 1433.902
196.8396, 1429.995
197.3217, 1440.404
197.8038, 1446.936
198.2859, 1444.936
198.7680, 1441.132
199.2501, 1441.913
199.7323, 1448.880
200.2144, 1459.779
200.6965, 1472.117
201.1786, 1490.263
201.6607, 1498.901
202.1428, 1491.472
202.6250, 1478.167
203.1071, 1468.633
203.5892, 1464.651
204.0713, 1460.881
204.5534, 1450.594
205.0355, 1431.394
205.5177, 1410.826
205.9998, 1380.561
206.4819, 1354.083
206.9640, 1347.750
207.4461, 1362.208
207.9282, 1377.852
208.4104, 1371.696
208.8925, 1335.256
209.3746, 1309.545
209.8567, 1300.573
210.3388, 1297.613
210.8209, 1295.352
211.3030, 1292.309
211.7852, 1285.951
212.2673, 1272.809
212.7494, 1251.161
213.2315, 1234.893
213.7136, 1226.750
214.1957, 1221.348
214.6779, 1215.161
215.1600, 1208.322
215.6421, 1203.185
216.1242, 1201.688
216.6063, 1204.077
217.0884, 1209.454
217.5706, 1219.243
218.0527, 1230.315
218.5348, 1243.666
219.0169, 1257.615
219.4990, 1266.413
219.9811, 1264.709
220.4633, 1252.860
220.9454, 1247.942
221.4275, 1256.477
221.9096, 1263.942
222.3917, 1263.300
222.8738, 1256.614
223.3560, 1249.210
223.8381, 1243.700
224.3202, 1240.639
224.8023, 1245.581
225.2844, 1272.637
225.7665, 1290.793
226.2487, 1284.760
226.7308, 1263.684
227.2129, 1244.930
227.6950, 1237.958
228.1771, 1239.855
228.6592, 1238.630
229.1414, 1229.603
229.6235, 1223.186
230.1056, 1224.702
230.5877, 1228.992
231.0698, 1228.130
231.5519, 1218.481
232.0341, 1203.501
232.5162, 1192.130
232.9983, 1180.717
233.4804, 1177.935
233.9625, 1191.063
234.4446, 1210.077
234.9268, 1223.726
235.4089, 1228.219
235.8910, 1228.339
236.3731, 1232.709
236.8552, 1244.986
237.3373, 1256.064
237.8195, 1265.521
238.3016, 1274.060
238.7837, 1280.525
239.2658, 1285.325
239.7479, 1292.753
240.2300, 1309.506
240.7122, 1341.812
241.1943, 1367.535
241.6764, 1391.585
242.1585, 1406.563
242.6406, 1403.119
243.1227, 1383.182
243.6049, 1359.911
244.0870, 1348.031
244.5691, 1351.813
245.0512, 1345.428
245.5333, 1323.238
246.0154, 1297.789
246.4975, 1273.257
246.9797, 1250.369
247.4618, 1229.003
247.9439, 1209.169
248.4260, 1190.888
248.9081, 1172.860
249.3902, 1154.152
249.8724, 1136.723
250.3545, 1121.543
250.8366, 1108.071
251.3187, 1094.476
251.8008, 1079.088
252.2829, 1063.234
252.7651, 1055.445
253.2472, 1067.009
253.7293, 1073.503
254.2114, 1066.953
254.6935, 1054.312
255.1756, 1044.736
255.6578, 1042.838
256.1399, 1045.393
256.6220, 1043.066
257.1041, 1029.519
257.5862, 1022.361
258.0684, 1030.545
258.5505, 1041.622
259.0326, 1042.476
259.5147, 1029.192
259.9968, 1011.856
260.4789, 1007.379
260.9611, 1020.620
261.4432, 1032.769
261.9253, 1040.183
262.4074, 1047.138
262.8895, 1056.463
263.3716, 1068.502
263.8537, 1081.398
264.3358, 1093.893
264.8180, 1106.234
265.3001, 1115.741
265.7822, 1115.742
266.2643, 1118.839
266.7464, 1134.446
267.2285, 1159.829
267.7107, 1183.235
268.1928, 1192.288
268.6749, 1189.266
269.1570, 1195.929
269.6391, 1215.579
270.1212, 1241.179
270.6034, 1274.278
271.0855, 1309.647
271.5676, 1335.901
272.0497, 1340.330
272.5318, 1334.448
273.0139, 1350.423
273.4961, 1399.976
273.9782, 1438.636
274.4603, 1437.422
274.9424, 1414.854
275.4245, 1391.744
275.9066, 1372.118
276.3888, 1356.883
276.8709, 1351.236
277.3530, 1356.321
277.8351, 1351.976
278.3172, 1322.842
278.7993, 1284.497
279.2815, 1257.352
279.7636, 1244.992
280.2457, 1236.189
280.7278, 1222.412
281.2099, 1205.028
281.6920, 1190.894
282.1742, 1182.927
282.6563, 1177.463
283.1384, 1168.639
283.6205, 1155.916
284.1026, 1147.161
284.5847, 1146.531
285.0669, 1151.527
285.5490, 1157.568
286.0311, 1163.536
286.5132, 1172.224
286.9953, 1188.203
287.4774, 1211.130
287.9596, 1231.267
288.4417, 1242.388
288.9238, 1253.324
289.4059, 1261.511
289.8880, 1293.338
290.3701, 1319.303
290.8523, 1339.724
291.3344, 1337.979
291.8165, 1364.852
292.2986, 1380.257
292.7807, 1395.191
293.2628, 1411.068
293.7450, 1440.880
294.2271, 1467.853
294.7092, 1480.482
295.1913, 1482.050
295.6734, 1483.054
296.1555, 1486.631
296.6377, 1485.775
297.1198, 1477.579
297.6019, 1465.296
298.0840, 1453.227
298.5661, 1442.656
299.0482, 1430.929
299.5304, 1413.798
300.0125, 1389.880
300.4946, 1362.560
300.9767, 1326.788
301.4588, 1291.711
301.9409, 1263.743
302.4231, 1243.078
302.9052, 1225.694
303.3873, 1207.755
303.8694, 1188.964
304.3515, 1171.913
304.8336, 1156.311
305.3158, 1142.754
305.7979, 1134.563
306.2800, 1128.437
306.7621, 1117.184
307.2442, 1094.800
307.7263, 1065.685
308.2085, 1049.362
308.6906, 1056.205
309.1727, 1059.494
309.6548, 1051.852
310.1369, 1038.760
310.6190, 1024.499
311.1012, 1010.166
311.5833, 999.1699
312.0654, 998.9050
312.5475, 1012.647
313.0296, 1021.162
313.5117, 1015.620
313.9939, 1006.879
314.4760, 1003.756
314.9581, 1006.345
315.4402, 1004.187
315.9223, 982.9020
316.4044, 947.0644
316.8866, 926.1334
317.3687, 928.9809
317.8508, 937.0865
318.3329, 937.6584
318.8150, 932.4302
319.2971, 926.1988
319.7793, 925.6100
320.2614, 914.7883
320.7435, 922.0178
321.2256, 923.3109
321.7077, 918.9863
322.1898, 892.2202
322.6720, 894.4316
323.1541, 885.0308
323.6362, 875.1541
324.1183, 881.4458
324.6004, 867.6475
325.0826, 868.6682
325.5647, 865.8483
326.0468, 854.9858
326.5289, 840.1320
327.0110, 828.9108
327.4931, 821.8310
327.9753, 815.9579
328.4574, 810.9126
328.9395, 796.1550
329.4216, 807.8109
329.9037, 813.6040
330.3858, 813.8492
330.8680, 791.9299
331.3501, 798.6314
331.8322, 793.8631
332.3143, 788.6246
332.7964, 799.3543
333.2785, 780.6591
333.7606, 791.1356
334.2427, 789.9672
334.7249, 794.1281
335.2070, 786.7487
335.6891, 782.9340
336.1712, 790.6633
336.6533, 792.0007
337.1354, 783.2928
337.6176, 787.7924
338.0997, 768.6942
338.5818, 770.3038
339.0639, 780.8478
339.5460, 772.7203
340.0281, 770.7606
340.5103, 771.9315
340.9924, 770.9901
341.4745, 769.4708
341.9566, 766.5885
342.4387, 763.3257
342.9208, 763.1132
343.4030, 770.6632
343.8851, 784.1903
344.3672, 793.2521
344.8493, 798.0004
345.3314, 797.6591
345.8135, 787.6992
346.2957, 773.6768
346.7778, 764.2232
347.2599, 762.9211
347.7420, 766.1641
348.2241, 770.6815
348.7062, 776.4332
349.1884, 782.2751
349.6705, 789.8239
350.1526, 795.2184
350.6347, 791.8640
351.1168, 777.3250
351.5989, 765.2111
352.0811, 762.0057
352.5632, 764.8898
353.0453, 770.3069
353.5274, 777.9224
354.0095, 784.2715
354.4916, 785.2518
354.9738, 779.9343
355.4559, 777.0691
355.9380, 778.4196
356.4201, 780.7261
356.9022, 782.9558
357.3843, 784.5632
357.8665, 775.9752
358.3486, 789.9684
358.8307, 798.0252
359.3128, 800.4648
359.7949, 780.4625
360.2770, 789.4392
360.7592, 786.8026
361.2413, 783.6896
361.7234, 796.7450
362.2055, 780.0069
362.6876, 790.0107
363.1697, 792.8835
363.6519, 801.2463
364.1340, 805.8218
364.6161, 800.6098
365.0982, 797.0779
365.5803, 801.9046
366.0624, 812.6154
366.5446, 822.1407
367.0267, 826.3546
367.5088, 825.7796
367.9909, 820.3181
368.4730, 805.2167
368.9551, 797.1245
369.4373, 809.8109
369.9194, 829.2919
370.4015, 841.5928
370.8836, 842.7715
371.3657, 840.1154
371.8478, 840.4521
372.3300, 842.9327
372.8121, 841.8238
373.2942, 834.4033
373.7763, 825.5078
374.2584, 819.4884
374.7405, 816.1013
375.2227, 816.8571
375.7048, 826.3532
376.1869, 837.5593
376.6690, 842.0299
377.1511, 839.9412
377.6332, 838.5483
378.1154, 842.7062
378.5975, 851.5857
379.0796, 859.5114
379.5617, 865.6641
380.0438, 872.0397
380.5259, 880.1686
381.0081, 888.4766
381.4902, 893.6602
381.9723, 894.8976
382.4544, 896.3981
382.9365, 905.8551
383.4186, 930.5812
383.9008, 942.0901
384.3829, 925.9221
384.8650, 911.6582
385.3471, 914.2937
385.8292, 931.7476
386.3113, 955.4056
386.7935, 981.4211
387.2756, 1007.104
387.7577, 1019.956
388.2398, 1014.778
388.7219, 1006.988
389.2040, 997.3911
389.6862, 989.5765
390.1683, 988.7291
390.6504, 996.6142
391.1325, 1004.585
391.6146, 1003.410
392.0967, 994.3340
392.5789, 985.5489
393.0610, 976.3098
393.5431, 971.4679
394.0252, 981.4370
394.5073, 1002.159
394.9894, 1012.231
395.4716, 992.8845
395.9537, 969.9756
396.4358, 972.5652
396.9179, 997.3282
397.4000, 1015.284
397.8821, 1006.640
398.3643, 984.7455
398.8464, 994.4065
399.3285, 1059.390
399.8106, 1115.122
400.2927, 1146.541
400.7748, 1166.795
401.2570, 1187.203
401.7391, 1210.954
402.2212, 1238.239
402.7033, 1269.426
403.1854, 1304.535
403.6675, 1342.413
404.1497, 1388.826
404.6317, 1431.828
405.1139, 1466.829
405.5960, 1495.933
406.0781, 1522.221
406.5602, 1546.922
407.0423, 1571.260
407.5244, 1598.187
408.0066, 1628.362
408.4887, 1658.232
408.9708, 1694.568
409.4529, 1723.786
409.9350, 1732.333
410.4171, 1721.215
410.8993, 1710.165
411.3814, 1716.273
411.8635, 1729.028
412.3456, 1724.530
412.8277, 1699.531
413.3098, 1673.274
413.7920, 1656.794
414.2741, 1649.320
414.7562, 1644.513
415.2383, 1639.543
415.7204, 1640.824
416.2025, 1657.874
416.6847, 1681.438
417.1668, 1692.196
417.6489, 1684.448
418.1310, 1675.377
418.6131, 1689.295
419.0952, 1734.220
419.5774, 1773.242
420.0595, 1802.215
420.5416, 1830.215
421.0237, 1863.683
421.5058, 1899.370
421.9879, 1929.296
422.4701, 1948.379
422.9522, 1960.290
423.4343, 1976.601
423.9164, 2003.036
424.3985, 2019.627
424.8806, 2019.186
425.3628, 2010.107
425.8449, 1996.871
426.3270, 1980.134
426.8091, 1959.715
427.2912, 1937.359
427.7733, 1911.120
428.2555, 1871.190
428.7376, 1811.931
429.2197, 1759.047
429.7018, 1734.115
430.1839, 1727.205
430.6660, 1710.396
431.1482, 1674.266
431.6303, 1638.604
432.1124, 1611.960
432.5945, 1593.319
433.0766, 1581.789
433.5587, 1577.249
434.0409, 1575.853
434.5230, 1572.610
435.0051, 1566.620
435.4872, 1562.712
435.9693, 1562.448
436.4514, 1562.425
436.9336, 1562.253
437.4157, 1560.984
437.8978, 1557.092
438.3799, 1549.719
438.8620, 1539.502
439.3441, 1527.097
439.8263, 1509.837
440.3084, 1497.606
440.7905, 1492.861
441.2726, 1492.995
441.7547, 1500.580
442.2368, 1513.610
442.7190, 1521.455
443.2011, 1510.370
443.6832, 1490.638
444.1653, 1487.909
444.6474, 1504.866
445.1295, 1522.535
445.6117, 1531.097
446.0938, 1533.424
446.5759, 1537.081
447.0580, 1541.701
447.5401, 1548.317
448.0222, 1556.804
448.5044, 1567.716
448.9865, 1582.819
449.4686, 1602.174
449.9507, 1622.587
450.4328, 1641.012
450.9149, 1657.382
451.3971, 1672.184
451.8792, 1679.172
452.3613, 1691.794
452.8434, 1718.780
453.3255, 1751.626
453.8076, 1776.156
454.2898, 1787.575
454.7719, 1799.329
455.2540, 1835.129
455.7361, 1899.166
456.2182, 1950.623
456.7003, 1979.862
457.1825, 2003.372
457.6646, 2029.811
458.1467, 2058.684
458.6288, 2088.041
459.1109, 2115.408
459.5930, 2144.855
460.0752, 2183.972
460.5573, 2230.823
461.0394, 2270.689
461.5215, 2296.963
462.0036, 2316.445
462.4857, 2340.249
462.9679, 2370.386
463.4500, 2397.065
463.9321, 2424.653
464.4142, 2444.228
464.8963, 2443.619
465.3784, 2428.374
465.8606, 2417.134
466.3427, 2422.147
466.8248, 2437.737
467.3069, 2444.403
467.7890, 2440.002
468.2711, 2430.171
468.7533, 2411.903
469.2354, 2391.796
469.7175, 2375.848
470.1996, 2363.492
470.6817, 2348.430
471.1638, 2324.451
471.6460, 2294.276
472.1281, 2266.726
472.6102, 2242.446
473.0923, 2216.545
473.5744, 2183.913
474.0565, 2149.629
474.5387, 2125.176
475.0208, 2116.322
475.5029, 2101.797
475.9850, 2067.403
476.4671, 2025.558
476.9492, 1994.839
477.4313, 1976.625
477.9135, 1955.306
478.3956, 1916.574
478.8777, 1861.858
479.3598, 1815.475
479.8419, 1785.327
480.3240, 1754.671
480.8062, 1720.945
481.2883, 1685.916
481.7704, 1650.761
482.2525, 1615.975
482.7346, 1583.709
483.2167, 1556.470
483.6989, 1534.112
484.1810, 1512.289
484.6631, 1492.066
485.1452, 1470.254
485.6273, 1438.972
486.1094, 1406.364
486.5916, 1386.860
487.0737, 1388.174
487.5558, 1391.237
488.0379, 1384.564
488.5200, 1371.058
489.0021, 1355.657
489.4843, 1339.379
489.9664, 1323.720
490.4485, 1309.842
490.9306, 1297.576
491.4127, 1289.432
491.8948, 1290.557
492.3770, 1289.182
492.8591, 1279.042
493.3412, 1265.745
493.8233, 1257.557
494.3054, 1256.792
494.7875, 1257.017
495.2697, 1248.408
495.7518, 1230.283
496.2339, 1218.717
496.7160, 1218.250
497.1981, 1218.176
497.6802, 1212.253
498.1624, 1202.893
498.6445, 1194.115
499.1266, 1186.828
499.6087, 1180.381
500.0908, 1171.656
500.5729, 1163.502
501.0551, 1165.430
501.5372, 1180.486
502.0193, 1196.801
502.5014, 1202.340
502.9835, 1196.353
503.4656, 1188.199
503.9478, 1174.292
504.4299, 1162.622
504.9120, 1155.107
505.3941, 1151.628
505.8762, 1152.709
506.3583, 1158.264
506.8405, 1165.377
507.3226, 1169.517
507.8047, 1170.340
508.2868, 1175.436
508.7689, 1188.751
509.2510, 1200.380
509.7332, 1203.635
510.2153, 1202.160
510.6974, 1202.250
511.1795, 1206.294
511.6616, 1210.099
512.1437, 1210.231
512.6259, 1207.912
513.1080, 1205.111
513.5901, 1202.168
514.0722, 1201.610
514.5543, 1206.744
515.0364, 1217.858
515.5186, 1224.334
516.0007, 1220.592
516.4828, 1219.495
516.9649, 1220.708
517.4470, 1227.967
517.9291, 1249.319
518.4113, 1285.302
518.8934, 1321.355
519.3755, 1336.741
519.8576, 1332.859
520.3397, 1346.949
520.8218, 1386.774
521.3040, 1428.461
521.7861, 1461.261
522.2682, 1487.785
522.7503, 1510.440
523.2324, 1527.797
523.7145, 1546.074
524.1967, 1576.530
524.6788, 1607.019
525.1609, 1616.918
525.6430, 1603.945
526.1251, 1581.681
526.6072, 1560.283
527.0894, 1539.333
527.5715, 1516.215
528.0536, 1489.572
528.5357, 1462.201
529.0178, 1438.422
529.4999, 1411.501
529.9821, 1371.149
530.4642, 1318.993
530.9463, 1271.533
531.4284, 1245.750
531.9105, 1234.549
532.3926, 1211.125
532.8748, 1172.076
533.3569, 1140.650
533.8390, 1129.629
534.3211, 1129.898
534.8032, 1126.154
535.2853, 1117.928
535.7675, 1108.251
536.2496, 1094.796
536.7317, 1082.538
537.2138, 1077.552
537.6959, 1078.386
538.1780, 1077.861
538.6602, 1071.497
539.1423, 1062.118
539.6244, 1057.347
540.1065, 1058.443
540.5886, 1061.345
541.0707, 1070.838
541.5529, 1077.505
542.0350, 1073.378
542.5171, 1061.724
542.9992, 1053.116
543.4813, 1052.349
543.9634, 1057.308
544.4456, 1067.710
544.9277, 1082.399
545.4098, 1093.680
545.8919, 1098.487
546.3740, 1101.599
546.8561, 1108.556
547.3383, 1119.816
547.8204, 1132.168
548.3025, 1148.271
548.7846, 1162.508
549.2667, 1170.214
549.7488, 1175.313
550.2310, 1181.176
550.7131, 1189.504
551.1952, 1205.986
551.6773, 1242.066
552.1594, 1297.920
552.6415, 1343.215
553.1237, 1370.296
553.6058, 1400.701
554.0879, 1451.895
554.5700, 1512.065
555.0521, 1562.708
555.5342, 1596.314
556.0164, 1635.987
556.4985, 1695.905
556.9806, 1767.487
557.4627, 1839.635
557.9448, 1910.849
558.4269, 1985.525
558.9091, 2067.935
559.3912, 2154.637
559.8733, 2227.683
560.3554, 2280.126
560.8375, 2330.343
561.3196, 2390.370
561.8018, 2440.318
562.2839, 2468.543
562.7660, 2473.968
563.2481, 2458.155
563.7302, 2420.962
564.2123, 2364.173
564.6945, 2285.445
565.1766, 2186.921
565.6587, 2086.913
566.1408, 1990.298
566.6229, 1898.640
567.1050, 1812.623
567.5872, 1731.579
568.0693, 1665.673
568.5514, 1624.703
569.0335, 1588.690
569.5156, 1544.835
569.9977, 1501.724
570.4799, 1474.180
570.9620, 1466.708
571.4441, 1467.073
571.9262, 1457.945
572.4083, 1439.918
572.8904, 1436.885
573.3726, 1456.378
573.8547, 1474.045
574.3368, 1470.487
574.8189, 1459.677
575.3010, 1466.154
575.7831, 1497.564
576.2653, 1527.931
576.7474, 1543.093
577.2295, 1554.642
577.7116, 1577.516
578.1937, 1610.300
578.6758, 1638.608
579.1580, 1651.925
579.6401, 1658.696
580.1222, 1686.996
580.6042, 1753.123
581.0864, 1800.209
581.5685, 1804.279
582.0506, 1803.935
582.5327, 1819.567
583.0148, 1846.989
583.4969, 1871.870
583.9791, 1888.424
584.4612, 1900.414
584.9433, 1910.912
585.4254, 1919.656
585.9075, 1925.116
586.3896, 1926.854
586.8718, 1927.700
587.3539, 1930.187
587.8360, 1934.323
588.3181, 1940.483
588.8002, 1955.447
589.2823, 1964.013
589.7645, 1957.179
590.2466, 1947.262
590.7287, 1945.616
591.2108, 1953.596
591.6929, 1965.422
592.1750, 1980.549
592.6572, 1995.080
593.1393, 1999.702
593.6214, 1994.439
594.1035, 1984.435
594.5856, 1969.135
595.0677, 1954.401
595.5499, 1950.050
596.0320, 1959.906
596.5141, 1963.405
596.9962, 1964.858
597.4783, 1954.975
597.9604, 1917.285
598.4426, 1869.395
598.9247, 1840.689
599.4068, 1840.427
599.8889, 1846.730
600.3710, 1830.670
600.8531, 1795.343
601.3353, 1773.831
601.8174, 1770.800
602.2995, 1768.406
602.7816, 1756.061
603.2637, 1739.382
603.7458, 1730.333
604.2280, 1731.711
604.7101, 1731.510
605.1922, 1726.628
605.6743, 1719.260
606.1564, 1708.781
606.6385, 1697.332
607.1207, 1689.639
607.6028, 1686.637
608.0849, 1696.990
608.5670, 1701.406
609.0491, 1700.205
609.5313, 1676.562
610.0134, 1681.898
610.4955, 1675.621
610.9776, 1668.868
611.4597, 1678.283
611.9418, 1657.906
612.4240, 1653.604
612.9061, 1651.525
613.3882, 1648.143
613.8703, 1644.264
614.3524, 1640.954
614.8345, 1638.217
615.3167, 1635.303
615.7988, 1631.635
616.2809, 1627.607
616.7630, 1624.464
617.2451, 1622.457
617.7272, 1620.282
618.2094, 1613.383
618.6915, 1611.076
619.1736, 1622.587
619.6557, 1643.118
620.1378, 1658.352
620.6199, 1661.715
621.1021, 1663.130
621.5842, 1665.414
622.0663, 1671.434
622.5484, 1690.231
623.0305, 1721.401
623.5126, 1748.373
623.9948, 1756.644
624.4769, 1750.304
624.9590, 1751.216
625.4411, 1762.086
625.9232, 1774.593
626.4053, 1785.449
626.8875, 1799.456
627.3696, 1822.773
627.8517, 1852.666
628.3338, 1877.767
628.8159, 1890.806
629.2980, 1900.845
629.7802, 1915.536
630.2623, 1932.790
630.7444, 1946.222
631.2265, 1954.805
631.7086, 1968.148
632.1907, 1997.054
632.6729, 2039.036
633.1550, 2068.378
633.6371, 2075.731
634.1192, 2086.496
634.6013, 2110.027
635.0834, 2134.506
635.5656, 2148.664
636.0477, 2154.509
636.5298, 2165.632
637.0119, 2193.740
637.4940, 2224.262
637.9761, 2241.293
638.4583, 2250.186
638.9404, 2265.631
639.4225, 2291.292
639.9046, 2318.144
640.3867, 2336.833
640.8688, 2347.801
641.3510, 2360.954
641.8331, 2381.700
642.3152, 2395.303
642.7973, 2394.470
643.2794, 2389.336
643.7615, 2388.727
644.2437, 2391.974
644.7258, 2390.706
645.2079, 2377.373
645.6900, 2361.033
646.1721, 2351.757
646.6542, 2346.162
647.1364, 2338.089
647.6185, 2325.589
648.1006, 2301.728
648.5827, 2256.881
649.0648, 2193.026
649.5469, 2140.028
650.0291, 2102.556
650.5112, 2068.607
650.9933, 2042.416
651.4754, 2013.827
651.9575, 1970.963
652.4396, 1916.183
652.9218, 1868.566
653.4039, 1843.100
653.8860, 1821.508
654.3681, 1786.095
654.8502, 1743.042
655.3323, 1707.446
655.8145, 1682.582
656.2966, 1657.566
656.7787, 1620.814
657.2608, 1573.984
657.7429, 1536.340
658.2250, 1513.835
658.7072, 1487.417
659.1893, 1443.187
659.6714, 1401.448
660.1535, 1383.590
660.6356, 1384.681
661.1177, 1373.112
661.5999, 1324.792
662.0820, 1274.637
662.5641, 1249.681
663.0462, 1237.929
663.5283, 1217.702
664.0104, 1185.219
664.4926, 1152.252
664.9747, 1129.073
665.4568, 1113.822
665.9389, 1097.047
666.4210, 1077.703
666.9031, 1060.388
667.3853, 1046.896
667.8674, 1034.751
668.3495, 1021.797
668.8316, 1008.328
669.3137, 995.6738
669.7958, 987.8173
670.2780, 976.5005
670.7601, 954.3511
671.2422, 928.5499
671.7243, 906.4496
672.2064, 889.7250
672.6885, 879.3866
673.1707, 877.2346
673.6528, 879.3893
674.1349, 876.0490
674.6170, 867.1340
675.0991, 853.3408
675.5812, 832.5397
676.0634, 810.9053
676.5455, 790.2197
677.0276, 772.5495
677.5097, 766.2819
677.9918, 782.3824
678.4739, 794.7600
678.9561, 797.1392
679.4382, 793.2318
679.9203, 784.3434
680.4024, 772.0674
680.8845, 759.1456
681.3666, 746.6785
681.8488, 735.8254
682.3309, 728.3689
682.8130, 724.1955
683.2951, 723.5050
683.7772, 727.0031
684.2593, 730.5731
684.7415, 732.2126
685.2236, 731.5516
685.7057, 727.1473
686.1878, 714.4879
686.6699, 705.8069
687.1520, 705.8747
687.6342, 705.6406
688.1163, 696.6019
688.5984, 684.2161
689.0805, 680.1176
689.5626, 689.0670
690.0447, 701.2162
690.5269, 713.3478
691.0090, 720.2639
691.4911, 702.7183
691.9732, 662.1992
692.4553, 635.4691
692.9374, 643.2608
693.4196, 667.6179
693.9017, 673.8965
694.3838, 656.6400
694.8659, 641.3441
695.3480, 623.9536
695.8301, 613.7629
696.3123, 619.9979
696.7944, 631.7454
697.2765, 634.7714
697.7586, 626.4934
698.2407, 619.4036
698.7228, 624.4797
699.2050, 629.9196
699.6871, 620.8342
700.1692, 602.3248
700.6513, 589.6814
701.1334, 587.8014
701.6155, 588.1619
702.0977, 580.0237
702.5798, 564.3322
703.0619, 554.6116
703.5440, 551.4548
704.0261, 553.0010
704.5082, 562.6556
704.9904, 573.0074
705.4725, 574.9821
705.9546, 569.3002
706.4367, 565.1047
706.9188, 564.4373
707.4009, 564.5530
707.8831, 564.4659
708.3652, 564.4846
708.8473, 566.5751
709.3294, 569.7095
709.8115, 568.5443
710.2936, 558.0095
710.7758, 543.4272
711.2579, 535.1628
711.7400, 532.6358
712.2221, 528.4749
712.7042, 520.0838
713.1863, 517.2748
713.6685, 530.7102
714.1506, 555.1907
714.6327, 565.1176
715.1148, 548.3221
715.5969, 535.1233
716.0790, 524.3641
716.5612, 518.8873
717.0433, 525.0460
717.5254, 536.7187
718.0075, 540.6120
718.4896, 530.8598
718.9717, 520.7546
719.4539, 523.3398
719.9360, 530.1341
720.4181, 525.6838
720.9002, 511.8122
721.3823, 503.3662
721.8644, 507.6686
722.3465, 517.3002
722.8286, 520.2434
723.3107, 515.8632
723.7928, 510.5294
724.2750, 502.3656
724.7571, 497.2324
725.2392, 497.3109
725.7213, 501.8529
726.2034, 511.5089
726.6855, 527.0315
727.1677, 536.9070
727.6498, 535.3283
728.1319, 531.8451
728.6140, 530.3619
729.0961, 530.4053
729.5782, 533.2242
730.0604, 537.6152
730.5425, 536.3806
731.0246, 520.5785
731.5067, 499.4199
731.9888, 493.4818
732.4709, 500.5775
732.9531, 500.8051
733.4352, 488.5629
733.9173, 478.3831
734.3994, 483.9096
734.8815, 501.6853
735.3636, 511.3457
735.8458, 508.9336
736.3279, 505.1893
736.8100, 499.2810
737.2921, 476.1391
737.7742, 496.7788
738.2563, 508.5140
738.7385, 511.8233
739.2206, 481.4697
739.7027, 494.5847
740.1848, 490.2794
740.6669, 485.2598
741.1490, 504.4928
741.6312, 479.0355
742.1133, 497.8838
742.5954, 499.0461
743.0775, 508.3028
743.5596, 500.0318
744.0417, 497.1745
744.5239, 511.8507
745.0060, 516.8185
745.4881, 506.5297
745.9702, 516.3010
746.4523, 490.2313
746.9344, 495.6125
747.4166, 514.5635
747.8987, 515.5066
748.3808, 509.3193
748.8629, 502.7501
749.3450, 501.3827
749.8271, 501.3153
750.3093, 499.6885
750.7914, 495.9314
751.2735, 489.3140
751.7556, 476.0449
752.2377, 465.5490
752.7198, 470.2267
753.2020, 483.0164
753.6841, 490.3839
754.1662, 490.8453
754.6483, 489.3513
755.1304, 488.7334
755.6125, 489.3503
756.0947, 492.5860
756.5768, 498.9110
757.0589, 503.9009
757.5410, 508.9922
758.0231, 508.2521
758.5052, 493.0953
758.9874, 473.5994
759.4695, 470.5200
759.9516, 487.9893
760.4337, 499.9323
760.9158, 499.8940
761.3979, 498.8734
761.8801, 504.2820
762.3622, 509.8449
762.8443, 505.4892
763.3264, 491.1126
763.8085, 478.9880
764.2906, 479.7674
764.7728, 484.2560
765.2549, 478.8641
765.7370, 468.1085
766.2191, 465.8533
766.7012, 474.1475
767.1833, 481.7564
767.6655, 479.1715
768.1476, 471.2348
768.6297, 474.8047
769.1118, 493.2031
769.5939, 504.5805
770.0760, 504.5110
770.5582, 501.8730
771.0403, 500.8592
771.5224, 501.2718
772.0045, 503.2026
772.4866, 508.6137
772.9688, 509.5848
773.4509, 501.8593
773.9330, 493.1745
774.4151, 485.1993
774.8972, 479.6460
775.3793, 480.4836
775.8615, 487.6065
776.3436, 491.8413
776.8257, 481.2082
777.3078, 468.6253
777.7899, 473.1748
778.2720, 488.8300
778.7542, 499.1720
779.2363, 500.7054
779.7184, 499.5277
780.2005, 500.8711
780.6826, 502.9833
781.1647, 498.1227
781.6469, 484.0538
782.1290, 480.7073
782.6111, 495.5990
783.0932, 509.4452
783.5753, 507.7538
784.0574, 497.3090
784.5396, 496.8166
785.0217, 513.0568
785.5038, 521.5327
785.9859, 516.2812
786.4680, 508.5594
786.9501, 501.0200
787.4323, 495.0759
787.9144, 493.2010
788.3965, 495.4331
788.8786, 496.2805
789.3607, 490.3863
789.8428, 483.7516
790.3250, 481.3570
790.8071, 482.7664
791.2892, 488.8723
791.7713, 498.6459
792.2534, 505.5349
792.7355, 503.9177
793.2177, 498.0572
793.6998, 499.2226
794.1819, 507.1840
794.6640, 509.3361
795.1461, 496.2861
795.6282, 506.4654
796.1104, 512.1924
796.5925, 513.7065
797.0746, 498.3891
797.5567, 504.8061
798.0388, 502.5128
798.5209, 499.8625
799.0031, 509.3384
799.4852, 496.4692
799.9673, 505.7528
800.4494, 506.1934
800.9315, 510.6812
801.4136, 506.4052
801.8958, 504.8360
802.3779, 512.0336
802.8600, 505.5157
803.3421, 506.2285
803.8242, 504.8164
804.3063, 502.3280
804.7885, 502.1471
805.2706, 506.1613
805.7527, 513.3236
806.2348, 526.2308
806.7169, 540.8185
807.1990, 540.2667
807.6812, 524.6705
808.1633, 516.9186
808.6454, 528.6307
809.1275, 546.9874
809.6096, 552.0642
810.0917, 543.2006
810.5739, 539.8597
811.0560, 545.2933
811.5381, 547.2768
812.0202, 537.4534
812.5023, 528.5922
812.9844, 536.7882
813.4666, 559.1498
813.9487, 571.8471
814.4308, 567.0793
814.9129, 562.7505
815.3950, 560.7441
815.8771, 561.0871
816.3593, 564.0167
816.8414, 569.2464
817.3235, 577.7344
817.8056, 590.6850
818.2877, 598.7126
818.7698, 589.3173
819.2520, 576.8026
819.7341, 579.1104
820.2162, 591.1865
820.6983, 598.7985
821.1804, 598.4437
821.6625, 597.8664
822.1447, 604.7021
822.6268, 615.7226
823.1089, 621.9843
823.5910, 623.9738
824.0731, 629.1431
824.5552, 639.5206
825.0374, 645.3742
825.5195, 638.2872
826.0016, 624.6660
826.4837, 622.4116
826.9658, 636.4097
827.4479, 645.8864
827.9301, 647.4229
828.4122, 649.9158
828.8943, 660.6343
829.3764, 671.7585
829.8585, 671.6374
830.3406, 659.7100
830.8228, 653.5831
831.3049, 659.5875
831.7870, 666.3472
832.2691, 671.5627
832.7512, 674.7975
833.2333, 674.2946
833.7155, 671.5521
834.1976, 671.3811
834.6797, 676.6564
835.1618, 681.5637
835.6439, 680.6829
836.1260, 677.4832
836.6082, 674.8669
837.0903, 674.1234
837.5724, 679.8473
838.0545, 693.0240
838.5366, 703.4630
839.0187, 697.0706
839.5009, 681.0314
839.9830, 680.0515
840.4651, 692.8090
840.9472, 702.1423
841.4293, 704.2454
841.9114, 701.7665
842.3936, 696.0804
842.8757, 688.4675
843.3578, 676.3720
843.8399, 686.0397
844.3220, 691.2552
844.8041, 692.2577
845.2863, 676.4286
845.7684, 682.3340
846.2505, 679.5293
846.7326, 676.3674
847.2147, 685.3317
847.6968, 671.9510
848.1790, 680.7229
848.6611, 680.6520
849.1432, 684.6283
849.6253, 679.8407
850.1074, 677.7599
850.5895, 675.6637
851.0717, 674.2444
851.5538, 671.0695
852.0359, 668.3252
852.5180, 667.6636
853.0001, 667.6638
853.4822, 666.1868
853.9644, 664.3813
854.4465, 665.9281
854.9286, 671.5193
855.4107, 675.6970
855.8928, 672.2982
856.3749, 665.4246
856.8571, 662.5430
857.3392, 662.5164
857.8213, 661.2603
858.3034, 658.0811
858.7855, 654.6843
859.2676, 651.8970
859.7498, 651.0870
860.2319, 658.1329
860.7140, 673.3957
861.1961, 673.5212
861.6782, 653.7385
862.1603, 640.5220
862.6425, 647.0794
863.1245, 659.9725
863.6066, 661.5846
864.0887, 651.8019
864.5709, 642.5127
865.0530, 630.7128
865.5351, 625.1177
866.0172, 634.7353
866.4993, 642.9481
866.9814, 633.9688
867.4636, 616.4766
867.9457, 612.1993
868.4278, 628.5178
868.9099, 641.0176
869.3920, 643.1607
869.8741, 643.2262
870.3563, 646.2515
870.8384, 648.8981
871.3205, 645.0616
871.8026, 635.2543
872.2847, 628.7256
872.7668, 630.6422
873.2490, 635.7732
873.7311, 642.3710
874.2132, 648.9473
874.6953, 653.5074
875.1774, 656.3704
875.6595, 659.0861
876.1417, 662.3115
876.6238, 664.9141
877.1059, 666.4596
877.5880, 666.1979
878.0701, 661.3806
878.5522, 653.3532
879.0344, 646.6857
879.5165, 642.6525
879.9986, 641.2385
880.4807, 642.2242
880.9628, 646.4042
881.4449, 658.7953
881.9271, 678.6840
882.4092, 686.1836
882.8913, 678.2464
883.3734, 671.2055
883.8555, 672.9987
884.3376, 678.8539
884.8198, 682.1903
885.3019, 683.0267
885.7840, 680.8364
886.2661, 672.5697
886.7482, 669.8954
887.2303, 678.4713
887.7125, 688.2418
888.1946, 691.5969
888.6767, 690.2145
889.1588, 689.8561
889.6409, 692.4888
890.1230, 691.8815
890.6052, 680.7615
891.0873, 675.0769
891.5694, 685.3660
892.0515, 700.6915
892.5336, 708.4342
893.0157, 708.5574
893.4979, 711.5192
893.9800, 723.2768
894.4621, 733.7030
894.9442, 739.4003
895.4263, 742.3328
895.9084, 741.3125
896.3906, 739.5474
896.8727, 744.4474
897.3548, 758.4045
897.8369, 769.5684
898.3190, 766.7939
898.8011, 761.6434
899.2833, 762.9542
899.7654, 769.9223
900.2475, 784.3132
900.7296, 803.2765
901.2117, 814.8754
901.6938, 810.7695
902.1760, 803.5854
902.6581, 808.2563
903.1402, 821.0328
903.6223, 836.1942
904.1044, 852.3044
904.5865, 866.5042
905.0687, 877.7117
905.5508, 883.9020
906.0329, 880.3467
906.5150, 874.1002
906.9971, 888.7852
907.4792, 916.6428
907.9614, 939.5238
908.4435, 956.5385
908.9256, 968.0065
909.4077, 957.3105
909.8898, 975.2336
910.3719, 981.6882
910.8541, 987.6750
911.3362, 1009.626
911.8183, 1002.154
912.3004, 1023.854
912.7825, 1033.907
913.2646, 1035.468
913.7468, 1059.838
914.2289, 1092.444
914.7110, 1109.728
915.1931, 1105.417
915.6752, 1102.529
916.1573, 1101.679
916.6395, 1101.279
917.1216, 1101.435
917.6037, 1101.210
918.0858, 1100.754
918.5679, 1099.893
919.0500, 1092.475
919.5322, 1074.620
920.0143, 1056.028
920.4964, 1038.361
920.9785, 1019.338
921.4606, 995.4072
921.9427, 970.1224
922.4249, 950.5701
922.9070, 938.2527
923.3891, 921.9454
923.8712, 897.5630
924.3533, 870.7722
924.8354, 842.9590
925.3176, 814.4313
925.7997, 780.0958
926.2818, 745.7434
926.7639, 729.4265
927.2460, 740.8719
927.7281, 749.4733
928.2103, 739.1389
928.6924, 721.5625
929.1745, 697.3128
929.6566, 676.0284
930.1387, 676.2575
930.6208, 694.9957
931.1030, 705.0394
931.5851, 690.2115
932.0672, 667.2817
932.5493, 642.7856
933.0314, 623.8984
933.5135, 625.4312
933.9957, 639.2880
934.4778, 644.5061
934.9599, 635.3755
935.4420, 622.5496
935.9241, 612.6644
936.4063, 606.2036
936.8884, 608.6138
937.3705, 613.4177
937.8526, 600.9416
938.3347, 574.8991
938.8168, 563.0760
939.2990, 578.1633
939.7811, 599.3038
940.2632, 601.9645
940.7453, 591.8568
941.2274, 582.0964
941.7095, 573.0469
942.1917, 567.1203
942.6738, 564.5060
943.1559, 560.7562
943.6380, 552.5436
944.1201, 544.9650
944.6022, 549.6055
945.0844, 563.8563
945.5665, 567.7303
946.0486, 561.1951
946.5307, 557.5778
947.0128, 560.9056
947.4949, 563.4916
947.9771, 557.7661
948.4592, 548.8190
948.9413, 555.1964
949.4234, 578.2087
949.9055, 580.7288
950.3876, 557.5230
950.8698, 537.4630
951.3519, 531.5927
951.8340, 532.9067
952.3161, 533.4734
952.7982, 534.2639
953.2803, 543.0089
953.7625, 562.8840
954.2446, 575.2426
954.7267, 576.5993
955.2088, 575.8085
955.6909, 577.3899
956.1730, 578.5500
956.6552, 574.0408
957.1373, 563.7775
957.6194, 562.4547
958.1015, 575.4259
958.5836, 583.2438
959.0657, 579.3853
959.5479, 576.7344
960.0300, 585.2513
960.5121, 598.3094
960.9942, 601.9539
961.4763, 593.4659
961.9584, 591.8299
962.4406, 601.8992
962.9227, 610.5950
963.4048, 616.3319
963.8869, 618.8607
964.3690, 616.2658
964.8511, 610.6191
965.3333, 608.2188
965.8154, 611.6452
966.2975, 610.9318
966.7796, 597.8511
967.2617, 591.4327
967.7438, 597.8489
968.2260, 611.6048
968.7081, 632.9152
969.1902, 658.0828
969.6723, 672.6829
970.1544, 667.9263
970.6365, 670.1073
971.1187, 687.6853
971.6008, 704.7590
972.0829, 716.7021
972.5650, 724.3624
973.0471, 727.1908
973.5292, 726.2530
974.0114, 727.0115
974.4935, 728.3081
974.9756, 734.7216
975.4577, 752.5930
975.9398, 769.4583
976.4219, 779.6799
976.9041, 784.8759
977.3862, 784.2173
977.8683, 779.1194
978.3504, 781.5565
978.8325, 807.2344
979.3146, 821.5880
979.7968, 805.5298
980.2789, 786.4599
980.7610, 785.8103
981.2431, 791.0986
981.7252, 780.4706
982.2073, 752.1010
982.6895, 728.5372
983.1716, 717.9564
983.6537, 710.7966
984.1358, 713.8543
984.6179, 709.5228
985.1000, 672.6862
985.5822, 624.2188
986.0643, 604.0255
986.5464, 618.9983
987.0285, 627.2840
987.5106, 604.5123
987.9927, 584.5972
988.4749, 587.4001
988.9570, 594.1375
989.4391, 589.4496
989.9212, 575.9657
990.4033, 559.5731
990.8854, 541.2222
991.3676, 530.2471
991.8497, 534.0419
992.3318, 541.5721
992.8139, 553.1035
993.2960, 560.9814
993.7781, 554.2670
994.2603, 538.9931
994.7424, 528.8998
995.2245, 527.3544
995.7066, 532.1091
996.1887, 551.4644
996.6708, 565.7820
997.1530, 558.6734
997.6351, 545.4997
998.1172, 543.7781
998.5993, 549.1317
999.0814, 543.9645
999.5635, 521.5789
1000.046, 506.8458
1000.528, 518.2729
1001.010, 531.9780
1001.492, 535.5541
1001.974, 532.8170
1002.456, 524.6422
1002.938, 514.6522
1003.420, 511.0630
1003.903, 516.7454
1004.385, 525.1296
1004.867, 541.3644
1005.349, 549.9571
1005.831, 533.2372
1006.313, 509.8195
1006.795, 498.5921
1007.277, 499.6404
1007.759, 507.2884
1008.242, 521.7070
1008.724, 532.1478
1009.206, 527.9747
1009.688, 525.1004
1010.170, 537.8102
1010.652, 553.4345
1011.134, 557.2091
1011.616, 550.7180
1012.099, 543.2972
1012.581, 536.5752
1013.063, 533.8288
1013.545, 537.3062
1014.027, 544.1527
1014.509, 558.7390
1014.991, 571.3314
1015.473, 567.5790
1015.955, 552.5681
1016.438, 545.8130
1016.920, 554.7722
1017.402, 562.2706
1017.884, 564.1877
1018.366, 560.0626
1018.848, 542.2921
1019.330, 524.0828
1019.812, 521.6185
1020.294, 530.6685
1020.777, 532.8273
1021.259, 520.6636
1021.741, 514.3510
1022.223, 523.7015
1022.705, 536.3347
1023.187, 548.1061
1023.669, 558.8447
1024.151, 568.6744
1024.634, 577.6760
1025.116, 586.5330
1025.598, 596.6044
1026.080, 601.8282
1026.562, 595.0288
1027.044, 590.2689
1027.526, 594.7265
1028.008, 602.7261
1028.490, 611.0435
1028.973, 618.2050
1029.455, 620.9214
1029.937, 617.7236
1030.419, 613.9415
1030.901, 605.7133
1031.383, 603.2661
1031.865, 615.2274
1032.347, 629.7787
1032.830, 637.8247
1033.312, 640.4384
1033.794, 642.5789
1034.276, 646.6375
1034.758, 642.3942
1035.240, 615.5865
1035.722, 598.5299
1036.204, 609.4419
1036.687, 623.2729
1037.169, 619.1934
1037.651, 604.4404
1038.133, 597.2249
1038.615, 599.1476
1039.097, 603.2981
1039.579, 613.4474
1040.061, 620.1154
1040.543, 621.3171
1041.026, 618.8391
1041.508, 611.1035
1041.990, 601.8387
1042.472, 599.3737
1042.954, 605.1517
1043.436, 607.8977
1043.918, 605.4031
1044.400, 605.0460
1044.882, 613.4415
1045.365, 614.0212
1045.847, 589.3911
1046.329, 558.5189
1046.811, 557.8353
1047.293, 589.4734
1047.775, 601.2267
1048.257, 584.3297
1048.739, 576.5001
1049.222, 587.6675
1049.704, 595.2543
1050.186, 584.8930
1050.668, 568.9781
1051.150, 566.9774
1051.632, 577.5905
1052.114, 581.1385
1052.596, 576.2875
1053.078, 572.9336
1053.561, 571.7324
1054.043, 576.2960
1054.525, 589.7653
1055.007, 603.3721
1055.489, 605.4842
1055.971, 598.8592
1056.453, 597.5619
1056.935, 601.5015
1057.417, 598.3151
1057.900, 586.6073
1058.382, 584.6361
1058.864, 600.2991
1059.346, 615.9969
1059.828, 612.8238
1060.310, 598.4084
1060.792, 592.6470
1061.274, 594.0209
1061.757, 594.4272
1062.239, 593.5029
1062.721, 594.2751
1063.203, 597.4114
1063.685, 597.0613
1064.167, 586.7751
1064.649, 576.3282
1065.131, 587.0225
1065.614, 608.7397
1066.096, 615.0944
1066.578, 609.2800
1067.060, 606.2353
1067.542, 609.2452
1068.024, 612.7144
1068.506, 613.0233
1068.988, 613.3811
1069.470, 618.7696
1069.953, 625.4436
1070.435, 625.6066
1070.917, 621.3611
1071.399, 638.7896
1071.881, 651.7640
1072.363, 660.5273
1072.845, 652.4573
1073.327, 666.1235
1073.809, 671.0777
1074.292, 675.6913
1074.774, 692.4165
1075.256, 686.7947
1075.738, 703.3276
1076.220, 704.7714
1076.702, 713.9979
1077.184, 725.1599
1077.666, 735.9099
1078.148, 740.1956
1078.631, 750.2317
1079.113, 778.5085
1079.595, 809.2278
1080.077, 826.5051
1080.559, 837.0562
1081.041, 857.8901
1081.523, 891.5392
1082.005, 913.9589
1082.488, 906.1392
1082.970, 907.1489
1083.452, 934.3939
1083.934, 962.2986
1084.416, 977.0685
1084.898, 984.0738
1085.380, 992.9930
1085.862, 1003.070
1086.344, 998.2762
1086.827, 969.8544
1087.309, 943.2396
1087.791, 915.9271
1088.273, 897.0915
1088.755, 898.1187
1089.237, 896.5490
1089.719, 867.9830
1090.201, 820.6711
1090.683, 784.9794
1091.166, 762.8718
1091.648, 744.7472
1092.130, 732.8828
1092.612, 712.5854
1093.094, 677.4292
1093.576, 645.3054
1094.058, 629.3905
1094.540, 623.0439
1095.023, 613.6351
1095.505, 601.6252
1095.987, 591.4850
1096.469, 583.2063
1096.951, 575.8739
1097.433, 569.5017
1097.915, 567.4492
1098.397, 571.6400
1098.880, 575.7731
1099.362, 570.5453
1099.844, 561.7520
1100.326, 564.8991
1100.808, 573.9943
1101.290, 571.9774
1101.772, 560.2717
1102.254, 550.6985
1102.736, 547.1476
1103.219, 546.1453
1103.701, 547.9039
1104.183, 545.3813
1104.665, 522.6198
1105.147, 498.5429
1105.629, 498.1747
1106.111, 513.0203
1106.593, 529.1639
1107.075, 541.9706
1107.558, 545.9440
1108.040, 535.6266
1108.522, 526.9459
1109.004, 530.4688
1109.486, 534.6147
1109.968, 533.2819
1110.450, 528.3264
1110.932, 519.6221
1111.415, 509.5511
1111.897, 503.9554
1112.379, 504.0481
1112.861, 506.6961
1113.343, 519.4818
1113.825, 523.3364
1114.307, 502.9493
1114.789, 485.2521
1115.271, 486.3034
1115.754, 497.7722
1116.236, 508.9045
1116.718, 519.4813
1117.200, 521.7841
1117.682, 511.8316
1118.164, 508.5421
1118.646, 516.5602
1119.128, 518.4683
1119.610, 505.7335
1120.093, 491.7850
1120.575, 490.1858
1121.057, 496.3370
1121.539, 495.1119
1122.021, 487.8711
1122.503, 497.0863
1122.985, 520.8710
1123.467, 528.4665
1123.950, 513.8535
1124.432, 498.4468
1124.914, 495.3136
1125.396, 497.8127
1125.878, 497.6748
1126.360, 496.9899
1126.842, 499.3629
1127.324, 504.4063
1127.807, 515.5462
1128.289, 528.3638
1128.771, 525.9155
1129.253, 504.1144
1129.735, 488.1811
1130.217, 500.7126
1130.699, 515.4595
1131.181, 515.2212
1131.663, 506.9395
1132.146, 490.2305
1132.628, 473.5714
1133.110, 471.3547
1133.592, 482.1468
1134.074, 487.7589
1134.556, 479.7109
1135.038, 476.7466
1135.520, 489.4184
1136.002, 498.9394
1136.485, 494.4320
1136.967, 488.3511
1137.449, 492.1436
1137.931, 500.5760
1138.413, 501.7994
1138.895, 494.9396
1139.377, 489.7891
1139.859, 485.6555
1140.342, 486.5739
1140.824, 495.3608
1141.306, 499.7530
1141.788, 493.1399
1142.270, 483.2765
1142.752, 478.9562
1143.234, 478.9452
1143.716, 479.4971
1144.198, 480.7251
1144.681, 483.9124
1145.163, 488.7240
1145.645, 491.8370
1146.127, 492.8745
1146.609, 496.9431
1147.091, 507.8444
1147.573, 518.0131
1148.055, 519.2287
1148.537, 514.0421
1149.020, 502.8687
1149.502, 489.5214
1149.984, 477.4229
1150.466, 469.1479
1150.948, 471.2072
1151.430, 484.9105
1151.912, 495.6948
1152.394, 496.8853
1152.877, 493.1866
1153.359, 478.5120
1153.841, 468.3880
1154.323, 480.6273
1154.805, 497.9822
1155.287, 495.7200
1155.769, 477.0815
1156.251, 469.5494
1156.734, 479.6696
1157.216, 466.8895
1157.698, 487.5815
1158.180, 499.3690
1158.662, 502.7305
1159.144, 472.4292
1159.626, 485.5963
1160.108, 481.3434
1160.590, 476.3760
1161.073, 495.6620
1161.555, 470.2569
1162.037, 489.1574
1162.519, 490.3720
1163.001, 499.6810
1163.483, 491.4622
1163.965, 488.6572
1164.447, 503.3857
1164.929, 508.4056
1165.412, 498.1699
1165.894, 507.9935
1166.376, 481.9760
1166.858, 487.4096
1167.340, 506.4127
1167.822, 497.0576
1168.304, 507.2015
1168.786, 509.9192
1169.269, 478.8878
1169.751, 506.5498
1170.233, 508.8286
1170.715, 514.9713
1171.197, 510.6726
1171.679, 498.7657
1172.161, 484.9335
1172.643, 474.7291
1173.125, 478.2493
1173.608, 492.5587
1174.090, 497.3406
1174.572, 485.8956
1175.054, 486.4360
1175.536, 507.5967
1176.018, 511.2158
1176.500, 482.8055
1176.982, 458.0638
1177.464, 460.7061
1177.947, 475.3751
1178.429, 479.3816
1178.911, 475.1787
1179.393, 469.4558
1179.875, 464.1748
1180.357, 471.9134
1180.839, 489.5573
1181.321, 497.9541
1181.804, 492.4241
1182.286, 483.6931
1182.768, 477.1482
1183.250, 475.5601
1183.732, 487.8167
1184.214, 499.5793
1184.696, 496.2041
1185.178, 485.5044
1185.661, 471.9744
1186.143, 461.3044
1186.625, 466.9057
1187.107, 492.2721
1187.589, 508.7164
1188.071, 510.2247
1188.553, 503.4190
1189.035, 475.7221
1189.517, 460.3775
1190.000, 477.3793
1190.482, 499.8576
1190.964, 501.1099
1191.446, 489.6143
1191.928, 491.8735
1192.410, 508.2804
1192.892, 505.9888
1193.374, 485.4841
1193.856, 473.7331
1194.339, 474.6284
1194.821, 475.6854
1195.303, 471.4445
1195.785, 470.6003
1196.267, 482.9940
1196.749, 499.9503
1197.231, 513.1039
1197.713, 520.9305
1198.196, 518.8776
1198.678, 511.2136
1199.160, 505.5757
1199.642, 501.9849
1200.124, 494.2803
1200.606, 478.9565
1201.088, 470.5470
1201.570, 480.0486
1202.052, 488.0303
1202.535, 485.6805
1203.017, 483.7778
1203.499, 492.1640
1203.981, 500.0799
1204.463, 492.0798
1204.945, 473.1230
1205.427, 469.7953
1205.909, 484.9378
1206.391, 489.2338
1206.874, 481.7442
1207.356, 473.9955
1207.838, 468.5901
1208.320, 470.2658
1208.802, 481.7484
1209.284, 493.2536
1209.766, 492.9056
1210.248, 486.9766
1210.731, 483.8641
1211.213, 482.5795
1211.695, 480.0323
1212.177, 478.8349
1212.659, 486.1733
1213.141, 500.7295
1213.623, 512.0093
1214.105, 516.3197
1214.588, 518.6409
1215.070, 524.2672
1215.552, 522.8574
1216.034, 504.2550
1216.516, 485.4381
1216.998, 472.9489
1217.480, 469.1040
1217.962, 480.4482
1218.444, 501.9208
1218.927, 503.0182
1219.409, 481.5355
1219.891, 479.0422
1220.373, 496.3586
1220.855, 507.4738
1221.337, 506.7638
1221.819, 498.2105
1222.301, 483.7986
1222.783, 474.0241
1223.266, 483.8087
1223.748, 498.9614
1224.230, 502.7910
1224.712, 500.3591
1225.194, 476.5390
1225.676, 496.8947
1226.158, 508.3459
1226.640, 511.3711
1227.122, 480.7335
1227.605, 493.5645
1228.087, 488.9752
1228.569, 483.6716
1229.051, 502.6205
1229.533, 476.8791
1230.015, 495.4435
1230.497, 496.3217
1230.979, 505.2945
1231.462, 496.7395
1231.944, 493.5983
1232.426, 507.9904
1232.908, 512.6742
1233.390, 502.1014
1233.872, 511.5887
1234.354, 485.2350
1234.836, 490.3323
1235.318, 508.9992
1235.801, 499.3078
1236.283, 509.1156
1236.765, 511.4970
1237.247, 480.1285
1237.729, 483.0836
1238.211, 473.9617
1238.693, 473.8044
1239.175, 478.8071
1239.657, 485.5564
1240.140, 492.7212
1240.622, 497.5137
1241.104, 499.8641
1241.586, 499.9178
1242.068, 495.4257
1242.550, 496.6296
1243.032, 505.7733
1243.514, 514.6636
1243.997, 520.5134
1244.479, 523.1830
1244.961, 522.4459
1245.443, 519.2253
1245.925, 513.1353
1246.407, 506.8471
1246.889, 506.6906
1247.371, 509.8589
1247.854, 510.3035
1248.336, 509.4359
1248.818, 514.3810
1249.300, 525.1889
1249.782, 529.0043
1250.264, 516.7280
1250.746, 508.2487
1251.228, 509.9219
1251.710, 514.8955
1252.193, 526.0330
1252.675, 532.3068
1253.157, 524.1018
1253.639, 512.1074
1254.121, 512.5297
1254.603, 521.6161
1255.085, 520.0638
1255.567, 509.8897
1256.049, 514.9896
1256.532, 532.3973
1257.014, 538.6761
1257.496, 531.0818
1257.978, 523.9738
1258.460, 523.7431
1258.942, 524.2552
##END=



