##NAMES=Pinakiolite
##RRUFFID=R050636
##IDEAL CHEMISTRY=(Mg,Mn^2+^)_2_(Mn^3+^,Sb^5+^)O_2_(BO_3_)
##LOCALITY=Langban, Filipstad, Varmland, Sweden
##OWNER=RRUFF
##SOURCE=University of Arizona Mineral Museum
##DESCRIPTION=Dark-grey crystals embedded into matrix of calcite, dolomite and tephroite
##STATUS=The identification of this mineral has been confirmed by single-crystal X-ray diffraction.
##URL=rruff.info/R050636
92.02539, 126.6911
92.50751, 128.3937
92.98962, 130.1166
93.47174, 129.7398
93.95386, 128.6432
94.43597, 127.1184
94.91809, 125.3815
95.40021, 123.6330
95.88232, 122.1202
96.36444, 121.2742
96.84656, 120.0683
97.32867, 118.1206
97.81078, 115.7578
98.29290, 113.5177
98.77502, 111.7875
99.25713, 110.4855
99.73925, 108.8574
100.2214, 106.3214
100.7035, 104.0647
101.1856, 102.7086
101.6677, 102.2246
102.1498, 102.1020
102.6320, 101.7241
103.1141, 100.8736
103.5962, 100.3013
104.0783, 100.1741
104.5604, 100.2373
105.0425, 100.2312
105.5247, 100.0814
106.0068, 99.81478
106.4889, 99.47100
106.9710, 99.08467
107.4531, 98.52839
107.9352, 97.62634
108.4173, 96.44603
108.8995, 95.34386
109.3816, 94.32736
109.8637, 93.55594
110.3458, 93.24612
110.8279, 93.50651
111.3100, 93.89806
111.7922, 93.86132
112.2743, 93.25414
112.7564, 92.66928
113.2385, 92.41811
113.7206, 92.20647
114.2027, 91.70248
114.6849, 90.71659
115.1670, 89.47060
115.6491, 88.76469
116.1312, 88.92445
116.6133, 89.32117
117.0954, 90.33561
117.5776, 91.45482
118.0597, 91.84069
118.5418, 90.81062
119.0239, 88.32686
119.5060, 86.97771
119.9881, 87.48425
120.4703, 88.18984
120.9524, 88.61441
121.4345, 88.67143
121.9166, 88.33892
122.3987, 87.54469
122.8808, 86.19310
123.3630, 84.86115
123.8451, 83.32419
124.3272, 81.91550
124.8093, 80.98864
125.2914, 80.61295
125.7735, 80.60188
126.2557, 81.07066
126.7378, 81.89332
127.2199, 82.28056
127.7020, 81.57629
128.1841, 80.14267
128.6662, 79.18092
129.1483, 79.13719
129.6305, 79.31372
130.1126, 79.22637
130.5947, 78.87085
131.0768, 78.30268
131.5589, 77.42741
132.0410, 76.16503
132.5232, 75.25774
133.0053, 75.23877
133.4874, 75.30351
133.9695, 74.94286
134.4516, 74.09467
134.9337, 73.18215
135.4159, 72.91637
135.8980, 73.88282
136.3801, 74.39145
136.8622, 73.91588
137.3443, 73.25400
137.8264, 73.20328
138.3086, 74.04846
138.7907, 75.33614
139.2728, 75.79887
139.7549, 74.76170
140.2370, 73.62438
140.7191, 72.18113
141.2013, 70.74329
141.6834, 69.85899
142.1655, 69.90252
142.6476, 70.58335
143.1297, 70.59715
143.6118, 69.33479
144.0939, 68.19051
144.5761, 67.87104
145.0582, 68.22067
145.5403, 68.51424
146.0224, 68.29845
146.5045, 67.70399
146.9866, 67.20671
147.4688, 66.83160
147.9509, 66.55423
148.4330, 66.39589
148.9151, 66.38168
149.3972, 66.32669
149.8793, 66.05637
150.3615, 65.68653
150.8436, 65.35021
151.3257, 65.09658
151.8078, 64.90520
152.2899, 64.74819
152.7720, 64.67500
153.2542, 64.53973
153.7363, 64.11555
154.2184, 63.62050
154.7005, 63.43935
155.1826, 63.97551
155.6647, 65.09731
156.1469, 65.39976
156.6290, 63.68353
157.1111, 62.27745
157.5932, 62.04827
158.0753, 62.63819
158.5574, 63.20156
159.0396, 62.98255
159.5217, 61.84903
160.0038, 61.15167
160.4859, 61.23740
160.9680, 61.38027
161.4501, 61.17363
161.9323, 60.68242
162.4144, 60.32265
162.8965, 60.56604
163.3786, 61.64362
163.8607, 62.32701
164.3428, 62.45160
164.8250, 62.33706
165.3071, 62.17735
165.7892, 62.00999
166.2713, 61.81207
166.7534, 61.54317
167.2355, 61.19101
167.7177, 60.86284
168.1998, 60.69355
168.6819, 60.50999
169.1640, 59.95732
169.6461, 58.84605
170.1282, 57.80548
170.6104, 57.86616
171.0925, 58.88654
171.5746, 59.65079
172.0567, 59.43861
172.5388, 58.57702
173.0209, 58.03635
173.5031, 58.09021
173.9852, 58.38975
174.4673, 58.69548
174.9494, 58.99105
175.4315, 59.10900
175.9136, 58.83215
176.3958, 58.17656
176.8779, 57.64476
177.3600, 57.45913
177.8421, 57.28813
178.3242, 56.89555
178.8063, 56.29234
179.2885, 55.70328
179.7706, 55.33632
180.2527, 55.19824
180.7348, 55.26758
181.2169, 55.70815
181.6990, 56.22773
182.1812, 56.74221
182.6633, 57.20977
183.1454, 57.55843
183.6275, 57.66151
184.1096, 57.35822
184.5917, 57.14088
185.0738, 56.93653
185.5560, 56.84713
186.0381, 57.02802
186.5202, 57.48675
187.0023, 58.01336
187.4844, 58.24097
187.9665, 57.88089
188.4487, 57.66282
188.9308, 57.62919
189.4129, 57.70954
189.8950, 57.94954
190.3771, 58.35481
190.8592, 58.68048
191.3414, 58.38820
191.8235, 56.95253
192.3056, 55.89778
192.7877, 55.52129
193.2698, 55.57891
193.7519, 55.75237
194.2341, 55.93040
194.7162, 56.18638
195.1983, 56.81475
195.6804, 58.07322
196.1625, 58.83601
196.6446, 58.24836
197.1268, 56.91383
197.6089, 56.31598
198.0910, 57.22031
198.5731, 58.64302
199.0552, 58.94961
199.5373, 57.98771
200.0195, 56.98240
200.5016, 56.64341
200.9837, 56.84978
201.4658, 56.95235
201.9479, 56.57813
202.4300, 56.22811
202.9122, 56.58454
203.3943, 57.74742
203.8764, 58.75486
204.3585, 58.73738
204.8406, 57.70240
205.3227, 56.65727
205.8048, 55.64004
206.2870, 54.86947
206.7691, 54.54694
207.2512, 54.69177
207.7333, 55.07371
208.2154, 55.53521
208.6975, 56.12266
209.1797, 56.51085
209.6618, 56.60859
210.1439, 56.50704
210.6260, 56.17792
211.1081, 55.63733
211.5902, 55.01960
212.0724, 54.40197
212.5545, 53.60205
213.0366, 53.40443
213.5187, 54.64305
214.0008, 55.89478
214.4829, 56.13028
214.9651, 55.22125
215.4472, 53.94780
215.9293, 53.49065
216.4114, 54.39968
216.8935, 55.01499
217.3756, 55.30823
217.8578, 55.38273
218.3399, 55.20575
218.8220, 54.81631
219.3041, 54.41211
219.7862, 54.30762
220.2683, 54.70440
220.7505, 55.03392
221.2326, 55.35913
221.7147, 55.59001
222.1968, 55.68905
222.6789, 55.63710
223.1610, 55.37443
223.6432, 54.76265
224.1253, 53.32428
224.6074, 52.59819
225.0895, 53.28214
225.5716, 54.28135
226.0537, 54.42419
226.5358, 53.46748
227.0180, 52.34493
227.5001, 52.47439
227.9822, 54.47199
228.4643, 55.75967
228.9464, 55.59909
229.4285, 54.92547
229.9107, 54.76575
230.3928, 55.35888
230.8749, 56.17845
231.3570, 56.60674
231.8391, 56.64799
232.3212, 56.36102
232.8034, 55.40356
233.2855, 54.25376
233.7676, 53.45952
234.2497, 53.10643
234.7318, 53.18272
235.2139, 54.02247
235.6961, 55.50867
236.1782, 56.50090
236.6603, 56.42878
237.1424, 55.77576
237.6245, 55.20662
238.1066, 54.75821
238.5888, 54.54008
239.0709, 54.84983
239.5530, 55.52028
240.0351, 56.03011
240.5172, 55.99519
240.9993, 55.72603
241.4815, 55.93150
241.9636, 56.89986
242.4457, 57.69027
242.9278, 57.32113
243.4099, 56.26484
243.8920, 55.49255
244.3742, 55.63205
244.8563, 56.29967
245.3384, 56.57737
245.8205, 56.28489
246.3026, 56.00490
246.7847, 56.16740
247.2668, 56.54618
247.7490, 56.75391
248.2311, 56.45735
248.7132, 55.95433
249.1953, 56.08337
249.6774, 57.28077
250.1595, 58.21564
250.6417, 58.29973
251.1238, 57.84005
251.6059, 57.12274
252.0880, 56.13164
252.5701, 55.14330
253.0522, 54.95525
253.5344, 56.11834
254.0165, 57.00462
254.4986, 56.95570
254.9807, 56.48018
255.4628, 56.14899
255.9449, 56.23385
256.4271, 56.50289
256.9092, 56.32092
257.3913, 55.14421
257.8734, 54.59060
258.3555, 55.42192
258.8376, 56.69459
259.3198, 57.53992
259.8019, 57.61502
260.2840, 57.19582
260.7661, 56.83004
261.2482, 56.49813
261.7303, 56.26972
262.2125, 56.13795
262.6946, 56.09535
263.1767, 56.11600
263.6588, 56.19636
264.1409, 56.38561
264.6230, 56.81838
265.1052, 57.78228
265.5873, 58.41132
266.0694, 58.61111
266.5515, 58.56287
267.0336, 58.34296
267.5157, 57.99279
267.9979, 57.57326
268.4800, 57.11557
268.9621, 56.31924
269.4442, 56.20845
269.9263, 57.50219
270.4084, 58.81794
270.8906, 59.04747
271.3727, 58.16666
271.8548, 57.14228
272.3369, 57.22814
272.8190, 58.98120
273.3011, 59.97974
273.7833, 60.13553
274.2654, 59.78356
274.7475, 58.74157
275.2296, 57.23663
275.7117, 56.00243
276.1938, 55.83536
276.6760, 56.98652
277.1581, 57.66969
277.6402, 57.70164
278.1223, 57.55744
278.6044, 57.39879
279.0865, 57.25268
279.5686, 57.10289
280.0508, 56.92762
280.5329, 56.72419
281.0150, 56.63276
281.4971, 56.61084
281.9792, 56.71519
282.4613, 57.08698
282.9435, 57.61016
283.4256, 58.06336
283.9077, 58.33116
284.3898, 58.38880
284.8719, 57.97598
285.3540, 56.44137
285.8362, 55.23705
286.3183, 54.94241
286.8004, 55.22211
287.2825, 55.40335
287.7646, 55.10637
288.2467, 54.57876
288.7289, 54.71568
289.2110, 56.65891
289.6931, 57.81599
290.1752, 57.13385
290.6573, 55.59561
291.1394, 54.60109
291.6216, 54.70205
292.1037, 55.44064
292.5858, 55.90536
293.0679, 56.01638
293.5500, 56.00218
294.0321, 55.81106
294.5143, 55.53644
294.9964, 55.21651
295.4785, 54.86272
295.9606, 54.63798
296.4427, 54.82516
296.9248, 55.66531
297.4070, 56.17491
297.8891, 55.96216
298.3712, 55.61927
298.8533, 55.75319
299.3354, 56.42786
299.8175, 57.16630
300.2997, 57.49053
300.7818, 57.32174
301.2639, 57.11124
301.7460, 56.84336
302.2281, 56.54887
302.7102, 56.19979
303.1924, 55.81860
303.6745, 55.49082
304.1566, 55.22046
304.6387, 55.05426
305.1208, 55.40522
305.6029, 56.91365
306.0851, 58.27253
306.5672, 58.72374
307.0493, 58.45363
307.5314, 58.13932
308.0135, 58.19852
308.4956, 58.47238
308.9778, 58.24899
309.4599, 56.87962
309.9420, 55.89837
310.4241, 56.17210
310.9062, 57.14662
311.3883, 57.70831
311.8705, 57.35774
312.3526, 56.49770
312.8347, 56.00450
313.3168, 55.91632
313.7989, 56.00957
314.2810, 56.48865
314.7632, 57.04124
315.2453, 57.19352
315.7274, 56.80221
316.2095, 56.21621
316.6916, 55.87619
317.1737, 55.79865
317.6559, 55.93382
318.1380, 56.66578
318.6201, 57.37996
319.1022, 57.37104
319.5843, 56.58591
320.0664, 55.73227
320.5485, 55.56965
321.0306, 56.16633
321.5128, 56.00851
321.9949, 53.99268
322.4770, 52.16863
322.9591, 52.11868
323.4412, 53.59420
323.9233, 55.12510
324.4055, 55.76096
324.8876, 55.60160
325.3697, 55.44231
325.8518, 55.35291
326.3339, 55.18991
326.8160, 54.84085
327.2982, 54.37951
327.7803, 53.95043
328.2624, 53.61178
328.7445, 53.36700
329.2266, 53.24931
329.7087, 53.40406
330.1909, 53.40987
330.6730, 53.02313
331.1551, 52.50254
331.6372, 52.20913
332.1193, 52.25010
332.6014, 52.43341
333.0836, 52.50838
333.5657, 52.48929
334.0478, 52.26617
334.5299, 51.57217
335.0120, 50.84547
335.4941, 50.48816
335.9763, 50.52750
336.4584, 50.68035
336.9405, 50.72511
337.4226, 50.66111
337.9047, 50.28629
338.3868, 49.07931
338.8690, 48.07861
339.3511, 47.99498
339.8332, 48.60570
340.3153, 49.15899
340.7974, 49.15866
341.2795, 48.71976
341.7617, 48.58435
342.2438, 48.98931
342.7259, 49.36913
343.2080, 49.71945
343.6901, 49.93845
344.1722, 49.85898
344.6544, 49.41046
345.1365, 48.68727
345.6186, 47.86930
346.1007, 46.59978
346.5828, 45.81809
347.0649, 45.84778
347.5471, 46.18801
348.0292, 46.46438
348.5113, 46.57994
348.9934, 46.55455
349.4755, 46.35402
349.9576, 45.80458
350.4398, 45.86952
350.9219, 47.41590
351.4040, 48.69948
351.8861, 48.62052
352.3682, 47.41565
352.8503, 45.97595
353.3325, 44.92238
353.8146, 44.26207
354.2967, 44.13391
354.7788, 45.13354
355.2609, 45.98115
355.7430, 46.52954
356.2252, 46.73173
356.7073, 46.44385
357.1894, 45.58701
357.6715, 44.45691
358.1536, 43.79128
358.6357, 43.85185
359.1179, 44.02724
359.5999, 44.57784
360.0821, 45.04801
360.5642, 45.00403
361.0463, 44.39474
361.5284, 43.54568
362.0105, 42.78255
362.4926, 41.96828
362.9748, 41.80558
363.4569, 42.91394
363.9390, 44.04951
364.4211, 44.77853
364.9032, 45.08336
365.3853, 45.05665
365.8675, 44.72940
366.3496, 44.13763
366.8317, 43.62264
367.3138, 43.16298
367.7959, 42.82305
368.2780, 42.62385
368.7602, 42.54293
369.2423, 42.59160
369.7244, 42.78182
370.2065, 43.00169
370.6886, 42.96857
371.1707, 42.45324
371.6529, 42.27782
372.1350, 43.00773
372.6171, 43.77036
373.0992, 44.01324
373.5813, 43.65492
374.0634, 42.95181
374.5456, 41.95485
375.0277, 40.62317
375.5098, 39.94722
375.9919, 40.55571
376.4740, 41.18258
376.9561, 40.99700
377.4383, 40.37033
377.9204, 40.23224
378.4025, 41.40303
378.8846, 43.26314
379.3667, 43.98310
379.8488, 43.13858
380.3310, 42.24345
380.8131, 41.90790
381.2952, 41.83441
381.7773, 41.79647
382.2594, 41.77714
382.7415, 41.59645
383.2237, 40.81260
383.7058, 39.43084
384.1879, 38.72985
384.6700, 39.46085
385.1521, 40.53932
385.6342, 40.98415
386.1164, 40.81841
386.5985, 40.53804
387.0806, 40.45222
387.5627, 40.44485
388.0448, 40.11071
388.5269, 39.24331
389.0091, 38.64580
389.4912, 39.30687
389.9733, 40.68333
390.4554, 41.57653
390.9375, 41.60146
391.4196, 41.18899
391.9018, 40.54611
392.3839, 39.71573
392.8660, 39.14207
393.3481, 39.11271
393.8302, 39.36954
394.3123, 39.39043
394.7945, 39.11725
395.2766, 38.82847
395.7587, 38.63383
396.2408, 38.49412
396.7229, 38.35648
397.2050, 38.21104
397.6872, 38.02489
398.1693, 37.65973
398.6514, 37.08182
399.1335, 37.03755
399.6156, 38.23162
400.0977, 39.42807
400.5798, 39.59223
401.0620, 38.89119
401.5441, 38.25312
402.0262, 38.26508
402.5083, 38.78496
402.9904, 39.10145
403.4725, 39.11375
403.9547, 39.08237
404.4368, 39.04609
404.9189, 38.99632
405.4010, 38.91269
405.8831, 38.79103
406.3652, 38.66256
406.8474, 38.58142
407.3295, 38.59901
407.8116, 38.50777
408.2937, 38.08764
408.7758, 37.76429
409.2579, 37.87073
409.7401, 38.30790
410.2222, 38.68610
410.7043, 38.68420
411.1864, 38.38619
411.6685, 38.54240
412.1506, 39.84338
412.6328, 40.75136
413.1149, 40.90699
413.5970, 40.62365
414.0791, 40.15135
414.5612, 39.59671
415.0433, 39.12898
415.5255, 39.09413
416.0076, 39.70830
416.4897, 40.00464
416.9718, 39.47410
417.4539, 38.99649
417.9360, 39.09223
418.4182, 39.64230
418.9003, 40.13092
419.3824, 40.12313
419.8645, 39.76230
420.3466, 39.70017
420.8287, 40.02556
421.3109, 40.47366
421.7930, 41.17665
422.2751, 41.83693
422.7572, 42.10557
423.2393, 41.87701
423.7214, 41.29909
424.2036, 40.24467
424.6857, 38.75855
425.1678, 38.04839
425.6499, 38.92656
426.1320, 39.97839
426.6141, 39.56518
427.0963, 37.92350
427.5784, 36.94947
428.0605, 38.17460
428.5426, 40.25223
429.0247, 40.96440
429.5068, 40.13135
429.9890, 39.17530
430.4711, 38.95757
430.9532, 39.30642
431.4353, 39.55033
431.9174, 39.62183
432.3995, 39.68575
432.8817, 39.95421
433.3638, 40.26187
433.8459, 40.17443
434.3280, 39.51363
434.8101, 38.70310
435.2922, 38.30512
435.7744, 38.37854
436.2565, 38.73283
436.7386, 39.76613
437.2207, 40.75616
437.7028, 41.12892
438.1849, 40.95942
438.6671, 40.72469
439.1492, 40.77131
439.6313, 40.99225
440.1134, 40.75256
440.5955, 39.23351
441.0776, 38.26632
441.5598, 38.43311
442.0418, 39.05347
442.5240, 39.40501
443.0061, 39.31370
443.4882, 39.15398
443.9703, 39.47989
444.4524, 40.50183
444.9345, 41.02254
445.4167, 40.48496
445.8988, 39.98943
446.3809, 40.03624
446.8630, 40.40490
447.3451, 40.59537
447.8272, 40.28332
448.3094, 39.71891
448.7915, 39.57118
449.2736, 40.01017
449.7557, 40.37970
450.2378, 40.33651
450.7199, 40.28979
451.2021, 40.64745
451.6842, 41.41756
452.1663, 42.06248
452.6484, 41.99093
453.1305, 41.39870
453.6126, 41.19407
454.0948, 41.56544
454.5769, 42.00808
455.0590, 42.12909
455.5411, 42.09185
456.0232, 42.19927
456.5053, 42.65336
456.9875, 43.08195
457.4696, 43.06301
457.9517, 42.71081
458.4338, 42.55302
458.9159, 42.77794
459.3980, 43.24501
459.8802, 43.85812
460.3623, 44.67464
460.8444, 45.14663
461.3265, 45.02397
461.8086, 44.61680
462.2907, 44.01147
462.7729, 43.31390
463.2550, 42.97573
463.7371, 43.38116
464.2192, 44.35451
464.7013, 44.88728
465.1834, 44.95886
465.6656, 44.65426
466.1477, 43.45024
466.6298, 42.14002
467.1119, 41.62782
467.5940, 42.09321
468.0761, 43.04122
468.5583, 43.95521
469.0404, 44.91066
469.5225, 45.37733
470.0046, 45.10505
470.4867, 44.58879
470.9688, 43.72294
471.4510, 42.76213
471.9331, 42.13371
472.4152, 42.06672
472.8973, 42.24625
473.3794, 41.98791
473.8615, 41.10002
474.3437, 40.59723
474.8258, 41.07533
475.3079, 41.67128
475.7900, 41.83463
476.2721, 41.59794
476.7542, 41.33357
477.2364, 41.55719
477.7185, 41.85452
478.2006, 40.93509
478.6827, 38.48825
479.1648, 36.72701
479.6469, 37.25029
480.1291, 38.99697
480.6112, 40.02705
481.0933, 40.12516
481.5754, 39.88664
482.0575, 39.39088
482.5396, 38.81133
483.0217, 38.51629
483.5038, 38.58920
483.9860, 38.72451
484.4681, 38.61462
484.9502, 38.24801
485.4323, 38.02567
485.9144, 37.86119
486.3965, 37.91989
486.8787, 38.47027
487.3608, 39.25785
487.8429, 39.86638
488.3250, 40.13080
488.8071, 40.07914
489.2892, 39.74467
489.7714, 39.02080
490.2535, 38.25421
490.7356, 37.15307
491.2177, 36.28579
491.6998, 36.06518
492.1819, 36.32516
492.6641, 36.61119
493.1462, 36.61698
493.6283, 36.49905
494.1104, 36.79825
494.5925, 37.79444
495.0746, 38.44387
495.5568, 38.02739
496.0389, 37.50521
496.5210, 37.71595
497.0031, 38.64513
497.4852, 39.36453
497.9673, 38.91279
498.4495, 37.77439
498.9316, 37.45032
499.4137, 38.21016
499.8958, 38.71560
500.3779, 37.75658
500.8600, 36.18273
501.3422, 35.83247
501.8243, 37.39753
502.3064, 38.87355
502.7885, 39.10803
503.2706, 38.62312
503.7527, 38.35099
504.2349, 38.49392
504.7170, 38.76406
505.1991, 38.88831
505.6812, 38.85765
506.1633, 38.84437
506.6454, 38.83453
507.1276, 38.85507
507.6097, 38.85783
508.0918, 38.91398
508.5739, 39.10990
509.0560, 39.48077
509.5381, 40.05331
510.0203, 40.96740
510.5024, 42.53276
510.9845, 43.37727
511.4666, 43.01109
511.9487, 42.40376
512.4308, 41.63198
512.9130, 40.93026
513.3951, 40.71524
513.8772, 41.26676
514.3593, 42.20125
514.8414, 42.90007
515.3235, 43.38153
515.8057, 43.44597
516.2878, 42.44415
516.7699, 41.63061
517.2520, 42.43050
517.7341, 44.56607
518.2162, 46.01935
518.6984, 45.41068
519.1805, 43.96679
519.6626, 43.07200
520.1447, 42.76035
520.6268, 43.12724
521.1089, 44.48568
521.5911, 46.23902
522.0732, 46.90307
522.5553, 46.15538
523.0374, 45.51743
523.5195, 45.17035
524.0016, 45.08472
524.4838, 45.27324
524.9659, 45.71237
525.4480, 46.38824
525.9301, 47.34947
526.4122, 48.45272
526.8943, 48.94498
527.3765, 48.18194
527.8586, 47.70962
528.3407, 47.85698
528.8228, 48.19132
529.3049, 48.32246
529.7870, 48.23665
530.2692, 48.23739
530.7513, 48.67009
531.2334, 49.42831
531.7155, 49.82425
532.1976, 49.63785
532.6797, 49.60133
533.1619, 50.31765
533.6440, 51.19645
534.1261, 51.57738
534.6082, 51.30404
535.0903, 51.01630
535.5724, 51.23602
536.0546, 51.71688
536.5367, 51.82892
537.0188, 51.45735
537.5009, 51.28817
537.9830, 52.00967
538.4651, 53.35970
538.9473, 53.87263
539.4294, 52.64965
539.9115, 51.80139
540.3936, 52.23914
540.8757, 53.21928
541.3578, 53.93401
541.8400, 54.17884
542.3221, 53.98759
542.8042, 53.26378
543.2863, 51.98371
543.7684, 51.65201
544.2505, 53.26054
544.7326, 54.66299
545.2147, 55.51606
545.6968, 55.93033
546.1790, 55.91338
546.6611, 55.50814
547.1432, 55.09300
547.6253, 55.25730
548.1074, 55.90731
548.5895, 55.84341
549.0717, 54.66012
549.5538, 53.53788
550.0359, 53.17231
550.5180, 53.32472
551.0001, 53.75201
551.4822, 54.57087
551.9644, 55.27752
552.4465, 55.57079
552.9286, 55.52592
553.4107, 55.15620
553.8928, 54.45169
554.3749, 53.95730
554.8571, 54.25774
555.3392, 55.32113
555.8213, 55.87846
556.3034, 55.61404
556.7855, 55.30998
557.2676, 55.20775
557.7498, 55.15501
558.2319, 54.86836
558.7140, 54.33046
559.1961, 53.91977
559.6782, 54.10972
560.1603, 54.90815
560.6425, 55.47544
561.1246, 55.59143
561.6067, 55.79132
562.0888, 56.47361
562.5709, 57.20580
563.0530, 57.40577
563.5352, 56.91618
564.0173, 56.39729
564.4994, 56.47565
564.9815, 56.98011
565.4636, 57.36709
565.9457, 57.58808
566.4279, 57.67208
566.9100, 57.54335
567.3921, 57.30750
567.8742, 57.32783
568.3563, 57.74234
568.8384, 58.17947
569.3206, 58.65382
569.8027, 59.01139
570.2848, 58.91021
570.7669, 58.38618
571.2490, 58.00618
571.7311, 58.29744
572.2133, 59.18813
572.6954, 59.86611
573.1775, 59.92587
573.6596, 60.34481
574.1417, 61.76374
574.6238, 63.23437
575.1060, 63.86632
575.5881, 63.60895
576.0702, 63.10852
576.5523, 62.78552
577.0344, 62.65848
577.5165, 62.84918
577.9987, 63.42757
578.4808, 64.01017
578.9629, 64.35361
579.4450, 64.67011
579.9271, 65.31067
580.4092, 66.34898
580.8914, 67.21978
581.3735, 67.85426
581.8556, 68.12315
582.3377, 67.63728
582.8198, 66.54306
583.3019, 65.58916
583.7841, 65.14346
584.2662, 65.29343
584.7483, 66.32792
585.2304, 69.50166
585.7125, 71.47685
586.1946, 71.54778
586.6768, 71.13281
587.1589, 70.85918
587.6410, 70.85818
588.1231, 71.19704
588.6052, 71.96095
589.0873, 72.94135
589.5695, 73.69933
590.0516, 74.21214
590.5337, 74.66248
591.0158, 75.00752
591.4979, 75.39602
591.9800, 76.10082
592.4622, 76.98849
592.9443, 77.49031
593.4264, 77.09864
593.9085, 76.55896
594.3906, 76.35468
594.8727, 76.49010
595.3549, 77.10347
595.8370, 78.27237
596.3191, 79.49794
596.8012, 80.17099
597.2833, 80.22598
597.7654, 80.17479
598.2476, 79.74914
598.7297, 79.54195
599.2118, 79.65193
599.6939, 80.12212
600.1760, 81.29815
600.6581, 83.16965
601.1403, 84.71033
601.6224, 84.26353
602.1045, 81.97093
602.5866, 81.41734
603.0687, 83.44794
603.5508, 85.35783
604.0330, 85.41831
604.5151, 84.76244
604.9972, 84.85334
605.4793, 86.01122
605.9614, 87.10120
606.4435, 87.40352
606.9257, 87.37843
607.4078, 87.79187
607.8899, 88.63340
608.3720, 89.17186
608.8541, 88.89400
609.3362, 88.06689
609.8184, 87.53101
610.3005, 87.35677
610.7826, 87.40268
611.2647, 87.57349
611.7468, 88.03699
612.2289, 89.24812
612.7111, 90.84830
613.1932, 91.91190
613.6753, 91.85287
614.1574, 91.17420
614.6395, 90.72483
615.1216, 90.49754
615.6038, 90.64112
616.0859, 91.50330
616.5680, 92.28064
617.0501, 92.04932
617.5322, 91.13775
618.0143, 90.67039
618.4965, 91.06104
618.9786, 91.74075
619.4607, 92.52544
619.9428, 93.32419
620.4249, 94.02022
620.9070, 94.57408
621.3892, 94.84605
621.8713, 94.61846
622.3534, 93.90398
622.8355, 93.68920
623.3176, 94.20544
623.7997, 94.96207
624.2819, 96.18635
624.7640, 97.41755
625.2461, 98.32263
625.7282, 98.81641
626.2103, 98.86449
626.6924, 98.09908
627.1745, 96.98943
627.6566, 96.84916
628.1387, 97.75689
628.6208, 98.51757
629.1030, 98.59309
629.5851, 98.42004
630.0672, 98.73664
630.5493, 99.58298
631.0314, 100.1110
631.5135, 99.97402
631.9957, 99.69670
632.4778, 99.39306
632.9599, 99.23939
633.4420, 99.69226
633.9241, 100.8927
634.4063, 102.1907
634.8884, 102.6067
635.3705, 102.0114
635.8526, 101.6303
636.3347, 101.6554
636.8168, 101.6296
637.2990, 101.2780
637.7811, 100.8496
638.2632, 100.6602
638.7453, 100.7827
639.2274, 100.9818
639.7095, 101.3129
640.1917, 101.5339
640.6738, 100.9954
641.1559, 99.70833
641.6380, 98.71120
642.1201, 98.61040
642.6022, 99.06132
643.0844, 99.26664
643.5665, 98.90305
644.0486, 98.98815
644.5307, 100.3060
645.0128, 101.3139
645.4949, 100.9450
645.9771, 99.65569
646.4592, 98.30820
646.9413, 97.26909
647.4234, 96.72111
647.9055, 97.35438
648.3876, 99.12196
648.8698, 99.47964
649.3519, 97.64485
649.8340, 95.72562
650.3161, 95.15902
650.7982, 95.36311
651.2803, 95.18096
651.7625, 94.38335
652.2446, 93.59359
652.7267, 92.96162
653.2088, 92.51981
653.6909, 92.34722
654.1730, 92.41692
654.6552, 92.68846
655.1373, 93.18790
655.6194, 93.62993
656.1015, 93.14146
656.5836, 91.07523
657.0657, 89.75868
657.5479, 89.97380
658.0300, 90.34178
658.5121, 90.40859
658.9942, 90.17922
659.4763, 89.65105
659.9584, 88.68937
660.4406, 87.87429
660.9227, 87.92831
661.4048, 88.51077
661.8869, 88.76228
662.3690, 88.55573
662.8511, 88.04882
663.3333, 87.27158
663.8154, 86.32602
664.2975, 85.64793
664.7796, 85.48123
665.2617, 85.24364
665.7438, 84.84378
666.2260, 84.43690
666.7081, 84.06046
667.1902, 83.76972
667.6723, 83.72929
668.1544, 84.08577
668.6365, 84.44664
669.1187, 84.02811
669.6008, 82.88071
670.0829, 82.19984
670.5650, 82.25288
671.0471, 82.52876
671.5292, 82.73357
672.0114, 82.86214
672.4935, 82.89396
672.9756, 82.64868
673.4577, 82.62041
673.9398, 83.24452
674.4219, 83.95145
674.9041, 84.09557
675.3862, 83.75455
675.8683, 83.49615
676.3504, 83.68266
676.8325, 84.10608
677.3146, 84.26043
677.7968, 84.08272
678.2789, 83.93897
678.7610, 83.85898
679.2431, 83.82813
679.7252, 83.92117
680.2073, 84.03999
680.6895, 83.99352
681.1716, 83.76598
681.6537, 83.31382
682.1358, 82.23966
682.6179, 81.10346
683.1000, 80.81693
683.5822, 81.38290
684.0643, 82.17736
684.5464, 82.87967
685.0285, 83.27488
685.5106, 82.64220
685.9927, 80.28049
686.4749, 78.54336
686.9570, 77.95614
687.4391, 77.58431
687.9212, 77.33994
688.4033, 76.95515
688.8854, 75.89271
689.3676, 73.84598
689.8497, 71.71827
690.3318, 70.16048
690.8139, 69.10630
691.2960, 68.58250
691.7781, 68.55885
692.2603, 68.44780
692.7424, 67.89267
693.2245, 67.01175
693.7066, 66.12096
694.1887, 64.98859
694.6708, 64.28169
695.1530, 62.31136
695.6351, 60.37391
696.1172, 58.71305
696.5993, 57.41726
697.0814, 56.74850
697.5635, 56.83466
698.0457, 56.81871
698.5278, 55.69847
699.0099, 53.78291
699.4920, 51.87346
699.9741, 50.00304
700.4562, 48.84650
700.9384, 48.99349
701.4205, 49.77430
701.9026, 49.75511
702.3847, 48.53443
702.8668, 47.57563
703.3489, 47.22906
703.8311, 46.80330
704.3132, 45.77160
704.7953, 44.49810
705.2774, 43.52486
705.7595, 43.03587
706.2416, 42.90986
706.7238, 43.27356
707.2059, 43.92973
707.6880, 43.96090
708.1701, 43.29955
708.6522, 42.38314
709.1343, 41.22243
709.6164, 40.09758
710.0985, 39.54197
710.5806, 39.67061
711.0627, 39.48801
711.5449, 38.54861
712.0270, 37.69364
712.5091, 37.45244
712.9912, 37.48734
713.4733, 37.25116
713.9554, 36.64901
714.4376, 36.12812
714.9197, 36.27108
715.4018, 36.78969
715.8839, 36.32103
716.3660, 34.64547
716.8481, 33.70243
717.3303, 34.49916
717.8124, 35.70472
718.2945, 35.64702
718.7766, 34.44188
719.2587, 33.74925
719.7408, 34.13848
720.2230, 34.55634
720.7051, 34.77657
721.1872, 34.69683
721.6693, 33.98933
722.1514, 32.77873
722.6335, 31.76312
723.1157, 31.46538
723.5978, 31.74273
724.0799, 32.37284
724.5620, 33.43856
725.0441, 34.00005
725.5262, 33.69011
726.0084, 33.17770
726.4905, 33.13671
726.9726, 33.35682
727.4547, 32.99765
727.9368, 31.36271
728.4189, 30.16819
728.9011, 30.30434
729.3832, 30.82560
729.8653, 30.81018
730.3474, 30.32467
730.8295, 30.01222
731.3116, 30.25748
731.7938, 30.60584
732.2759, 30.06477
732.7580, 28.61295
733.2401, 27.91143
733.7222, 28.28339
734.2043, 28.92704
734.6865, 29.62878
735.1686, 30.18766
735.6507, 30.10283
736.1328, 29.07183
736.6149, 28.44888
737.0970, 28.76313
737.5792, 29.33423
738.0613, 29.87040
738.5434, 30.26156
739.0255, 30.33967
739.5076, 30.06166
739.9897, 29.65872
740.4719, 29.38025
740.9540, 29.21666
741.4361, 29.10787
741.9182, 29.06525
742.4003, 29.01105
742.8824, 28.86390
743.3646, 28.75277
743.8467, 28.89329
744.3288, 29.28766
744.8109, 29.60553
745.2930, 30.01002
745.7751, 30.11209
746.2573, 29.18713
746.7394, 28.19278
747.2215, 28.66354
747.7036, 30.48062
748.1857, 31.76764
748.6678, 30.90821
749.1500, 28.93453
749.6321, 28.22758
750.1142, 28.78601
750.5963, 29.18646
751.0784, 29.07191
751.5605, 28.99974
752.0427, 29.58716
752.5248, 30.61794
753.0069, 30.90056
753.4890, 30.07055
753.9711, 29.13238
754.4532, 28.02667
754.9354, 27.01242
755.4175, 26.07648
755.8996, 25.41395
756.3817, 25.50619
756.8638, 26.59851
757.3459, 27.89030
757.8281, 28.42061
758.3102, 28.35380
758.7923, 28.24302
759.2744, 28.11395
759.7565, 28.17149
760.2386, 28.60323
760.7208, 29.11030
761.2029, 29.14201
761.6850, 28.51950
762.1671, 28.15143
762.6492, 28.10835
763.1313, 28.21560
763.6135, 28.56571
764.0956, 28.95002
764.5777, 29.16976
765.0598, 29.18849
765.5419, 29.05688
766.0240, 28.77009
766.5062, 28.38495
766.9883, 27.94460
767.4704, 27.46865
767.9525, 27.04973
768.4346, 26.70877
768.9167, 26.39993
769.3989, 26.04126
769.8810, 26.20364
770.3631, 25.82240
770.8452, 26.74665
771.3273, 27.52424
771.8094, 28.08825
772.2916, 28.49776
772.7737, 28.78003
773.2558, 28.92478
773.7379, 28.90825
774.2200, 28.72348
774.7021, 28.37997
775.1843, 27.75158
775.6664, 27.04609
776.1485, 26.41481
776.6306, 25.95461
777.1127, 26.04708
777.5948, 26.87719
778.0770, 27.90151
778.5591, 28.25952
779.0412, 27.90939
779.5233, 27.85624
780.0054, 28.39674
780.4875, 28.60334
780.9697, 27.89031
781.4518, 26.92326
781.9339, 26.27208
782.4160, 25.94239
782.8981, 25.90803
783.3802, 26.50875
783.8624, 27.00594
784.3445, 26.81682
784.8266, 26.42024
785.3087, 26.41260
785.7908, 26.85792
786.2729, 27.60901
786.7551, 28.66158
787.2372, 29.58632
787.7193, 29.21556
788.2014, 27.57366
788.6835, 26.87014
789.1656, 27.67326
789.6478, 28.19633
790.1299, 26.97140
790.6120, 24.97715
791.0941, 24.75211
791.5762, 27.18464
792.0583, 28.62223
792.5404, 28.05554
793.0225, 27.34645
793.5046, 27.46813
793.9868, 27.92485
794.4689, 27.93601
794.9510, 27.37308
795.4331, 26.79495
795.9152, 26.62321
796.3973, 26.69384
796.8795, 26.79927
797.3616, 26.91843
797.8437, 26.91665
798.3258, 26.75496
798.8079, 26.60321
799.2900, 26.61569
799.7722, 26.76339
800.2543, 26.89093
800.7364, 27.03655
801.2185, 27.08440
801.7006, 26.87981
802.1827, 26.72154
802.6649, 26.78580
803.1470, 26.98441
803.6291, 27.18603
804.1112, 27.39791
804.5933, 27.43188
805.0754, 26.97864
805.5576, 26.47247
806.0397, 26.40062
806.5218, 26.63328
807.0039, 26.85533
807.4860, 26.94116
807.9681, 26.79700
808.4503, 26.20002
808.9324, 25.31307
809.4145, 25.11953
809.8966, 25.75480
810.3787, 26.22513
810.8608, 26.21496
811.3430, 26.09871
811.8251, 26.21284
812.3072, 26.52185
812.7893, 26.76481
813.2714, 26.94854
813.7535, 27.05626
814.2357, 27.03882
814.7178, 26.98676
815.1999, 26.93946
815.6820, 26.91134
816.1641, 27.03966
816.6462, 27.38524
817.1284, 27.34135
817.6105, 25.73659
818.0926, 23.62027
818.5747, 23.18094
819.0568, 24.26918
819.5389, 25.67292
820.0211, 27.01554
820.5032, 27.81861
820.9853, 27.41074
821.4674, 25.89915
821.9495, 24.94939
822.4316, 24.66388
822.9138, 24.71539
823.3959, 25.48311
823.8780, 26.14036
824.3601, 26.12197
824.8422, 25.57774
825.3243, 24.83532
825.8065, 23.66488
826.2886, 23.00690
826.7707, 23.67026
827.2528, 24.61770
827.7349, 24.94899
828.2170, 24.80637
828.6992, 24.62055
829.1813, 24.55903
829.6634, 24.66009
830.1455, 25.15857
830.6276, 25.81154
831.1097, 25.53503
831.5919, 24.35620
832.0740, 23.98615
832.5561, 25.10270
833.0382, 26.34616
833.5203, 26.36046
834.0024, 25.33749
834.4846, 24.73899
834.9667, 24.81005
835.4488, 24.91932
835.9309, 25.15165
836.4130, 25.29365
836.8951, 25.16043
837.3773, 24.88421
837.8594, 24.63916
838.3415, 24.42713
838.8236, 24.55129
839.3057, 25.69628
839.7878, 26.80377
840.2700, 26.59165
840.7521, 25.59075
841.2342, 24.99821
841.7163, 25.13200
842.1984, 25.62053
842.6805, 26.25989
843.1627, 26.81435
843.6448, 26.24212
844.1269, 24.48604
844.6090, 23.96920
845.0911, 25.50648
845.5732, 26.87691
846.0554, 26.33861
846.5375, 24.64866
847.0196, 24.01592
847.5017, 25.15691
847.9838, 25.72845
848.4659, 25.23103
848.9481, 24.76657
849.4302, 24.65469
849.9123, 24.86244
850.3944, 25.46450
850.8765, 26.40333
851.3586, 27.15376
851.8408, 27.50841
852.3229, 27.51597
852.8050, 27.19287
853.2871, 26.56553
853.7692, 25.40399
854.2513, 23.88903
854.7335, 22.96929
855.2156, 23.30243
855.6977, 24.19391
856.1798, 24.29499
856.6619, 23.63897
857.1440, 23.25544
857.6262, 23.21447
858.1083, 23.38037
858.5904, 23.84664
859.0725, 24.23353
859.5546, 23.87103
860.0367, 22.63068
860.5189, 22.17450
861.0010, 23.04016
861.4831, 23.92901
861.9652, 25.02806
862.4473, 25.74814
862.9294, 25.40681
863.4116, 24.33074
863.8937, 23.49223
864.3758, 23.25548
864.8579, 23.04579
865.3400, 22.22217
865.8221, 21.44552
866.3043, 21.66729
866.7864, 22.57325
867.2685, 23.20277
867.7506, 23.24396
868.2327, 23.16130
868.7148, 23.50186
869.1970, 23.36763
869.6791, 24.00616
870.1612, 23.35664
870.6433, 22.95196
871.1254, 22.99984
871.6075, 23.17285
872.0897, 23.26176
872.5718, 23.25417
873.0539, 23.07859
873.5360, 22.46555
874.0181, 22.30363
874.5002, 23.23806
874.9823, 23.87906
875.4644, 23.54915
875.9465, 22.82904
876.4286, 22.31217
876.9108, 22.06570
877.3929, 22.03516
877.8750, 22.21216
878.3571, 22.59011
878.8392, 23.44835
879.3214, 24.32557
879.8035, 24.64457
880.2856, 24.43924
880.7677, 24.08233
881.2498, 23.75781
881.7319, 23.35811
882.2141, 22.55569
882.6962, 21.59774
883.1783, 21.31147
883.6604, 21.67555
884.1425, 22.20024
884.6246, 22.74776
885.1068, 23.00031
885.5889, 22.49696
886.0710, 21.40713
886.5531, 21.22660
887.0352, 22.61286
887.5173, 22.91772
887.9995, 21.03306
888.4816, 19.09619
888.9637, 18.22611
889.4458, 18.27508
889.9279, 19.14872
890.4100, 21.25622
890.8922, 22.46896
891.3743, 21.75762
891.8564, 20.94368
892.3385, 20.87637
892.8206, 21.13252
893.3027, 21.28324
893.7849, 21.23445
894.2670, 20.93165
894.7491, 20.17781
895.2312, 19.53248
895.7133, 19.69668
896.1954, 20.21788
896.6776, 20.38418
897.1597, 20.17852
897.6418, 19.82966
898.1239, 19.44174
898.6060, 19.09970
899.0881, 18.90671
899.5703, 18.85324
900.0524, 18.92294
900.5345, 19.12601
901.0166, 19.21377
901.4987, 19.07586
901.9808, 19.01299
902.4630, 19.25017
902.9451, 19.76338
903.4272, 20.54419
903.9093, 22.23004
904.3914, 22.68133
904.8735, 20.34115
905.3557, 18.71531
905.8378, 19.87283
906.3199, 21.79014
906.8020, 22.14069
907.2841, 20.89923
907.7662, 19.89148
908.2484, 19.74415
908.7305, 19.66312
909.2126, 19.10093
909.6947, 18.65420
910.1768, 19.20885
910.6589, 20.31209
911.1411, 20.64739
911.6232, 19.70010
912.1053, 18.75920
912.5874, 19.24621
913.0695, 20.23470
913.5516, 20.10394
914.0338, 19.23740
914.5159, 18.99740
914.9980, 19.65210
915.4801, 20.34890
915.9622, 20.42228
916.4443, 20.08997
916.9265, 19.79948
917.4086, 19.55149
917.8907, 19.64850
918.3728, 20.21948
918.8549, 20.43647
919.3370, 19.73580
919.8192, 18.93430
920.3013, 19.27863
920.7834, 20.81812
921.2655, 21.53050
921.7476, 20.75025
922.2297, 20.29470
922.7119, 20.83440
923.1940, 21.34520
923.6761, 21.20787
924.1582, 20.63140
924.6403, 19.94904
925.1224, 19.04311
925.6046, 18.74194
926.0867, 20.03488
926.5688, 21.09741
927.0509, 20.51089
927.5330, 19.44398
928.0151, 19.36841
928.4973, 20.28657
928.9794, 21.25665
929.4615, 21.95186
929.9436, 22.17727
930.4257, 21.45928
930.9078, 20.34781
931.3900, 19.54917
931.8721, 19.11262
932.3542, 19.01716
932.8363, 19.23236
933.3184, 19.56247
933.8005, 19.84140
934.2827, 20.05990
934.7648, 20.20793
935.2469, 20.27955
935.7290, 20.11959
936.2111, 19.68168
936.6932, 19.57578
937.1754, 20.25036
937.6575, 21.16247
938.1396, 21.29186
938.6217, 20.57675
939.1038, 19.74488
939.5859, 18.43386
940.0681, 18.05017
940.5502, 19.64242
941.0323, 21.30317
941.5144, 21.25542
941.9965, 19.93585
942.4786, 19.18985
942.9608, 19.19695
943.4429, 19.37155
943.9250, 20.06667
944.4071, 20.48494
944.8892, 20.18393
945.3713, 19.51514
945.8535, 18.64813
946.3356, 17.72717
946.8177, 17.47034
947.2998, 18.83703
947.7819, 19.79489
948.2640, 18.89089
948.7462, 17.53421
949.2283, 16.74734
949.7104, 16.65339
950.1925, 17.54562
950.6746, 19.38636
951.1567, 20.65307
951.6389, 19.59092
952.1210, 17.82532
952.6031, 17.38893
953.0852, 17.87481
953.5673, 18.56888
954.0494, 19.26859
954.5316, 19.76385
955.0137, 19.94868
955.4958, 19.76007
955.9779, 18.84255
956.4600, 17.44460
956.9421, 16.87868
957.4242, 17.11897
957.9063, 17.47222
958.3884, 17.77701
958.8705, 17.99490
959.3527, 18.11619
959.8348, 18.08325
960.3169, 17.57634
960.7990, 16.32953
961.2811, 16.17738
961.7632, 17.67339
962.2454, 18.79579
962.7275, 18.74011
963.2096, 18.05462
963.6917, 17.05521
964.1738, 15.85606
964.6559, 15.76092
965.1381, 18.12622
965.6202, 19.39472
966.1023, 18.58019
966.5844, 17.68711
967.0665, 17.65439
967.5486, 18.00672
968.0308, 18.12529
968.5129, 17.96558
968.9950, 17.71118
969.4771, 17.14042
969.9592, 16.82586
970.4413, 17.22559
970.9235, 17.71937
971.4056, 17.84385
971.8877, 17.65850
972.3698, 17.24891
972.8519, 16.63527
973.3340, 16.39985
973.8162, 17.30546
974.2983, 18.27280
974.7804, 18.43297
975.2625, 18.08588
975.7446, 17.45606
976.2267, 16.75921
976.7089, 16.45702
977.1910, 16.77716
977.6731, 17.35488
978.1552, 17.98507
978.6373, 18.52253
979.1194, 18.69131
979.6016, 18.55191
980.0837, 18.26113
980.5658, 17.87533
981.0479, 17.47248
981.5300, 17.09118
982.0121, 16.81601
982.4943, 16.91693
982.9764, 17.28657
983.4585, 17.39058
983.9406, 17.20063
984.4227, 16.29257
984.9048, 14.44558
985.3870, 12.99465
985.8691, 13.20414
986.3512, 14.66151
986.8333, 16.25791
987.3154, 18.14749
987.7975, 18.67534
988.2797, 17.37100
988.7618, 16.27115
989.2439, 16.25543
989.7260, 16.60265
990.2081, 16.41246
990.6902, 15.79917
991.1724, 15.92913
991.6545, 17.49689
992.1366, 18.15346
992.6187, 17.11655
993.1008, 16.11643
993.5829, 16.04601
994.0651, 16.37713
994.5472, 16.33487
995.0293, 15.90779
995.5114, 15.81743
995.9935, 16.65718
996.4756, 16.98046
996.9578, 15.87306
997.4399, 14.97154
997.9220, 15.59445
998.4041, 16.83568
998.8862, 17.15704
999.3683, 16.37010
999.8505, 15.77547
1000.333, 15.87417
1000.815, 15.98037
1001.297, 15.87274
1001.779, 15.64707
1002.261, 15.20895
1002.743, 14.77242
1003.225, 14.81048
1003.707, 15.44555
1004.190, 15.99534
1004.672, 16.16036
1005.154, 16.08215
1005.636, 15.51883
1006.118, 15.00052
1006.600, 15.34223
1007.082, 16.28153
1007.564, 16.96060
1008.046, 17.06957
1008.529, 16.80393
1009.011, 15.87905
1009.493, 15.04935
1009.975, 15.47486
1010.457, 16.45799
1010.939, 16.65241
1011.421, 16.06779
1011.903, 15.63734
1012.385, 15.81861
1012.868, 16.19143
1013.350, 16.33992
1013.832, 16.34361
1014.314, 16.26933
1014.796, 16.18883
1015.278, 16.33769
1015.760, 16.72943
1016.242, 17.21807
1016.725, 17.74126
1017.207, 18.01107
1017.689, 17.42067
1018.171, 16.25171
1018.653, 15.45243
1019.135, 15.02835
1019.617, 14.98067
1020.099, 15.29628
1020.581, 15.72921
1021.064, 16.14086
1021.546, 16.40325
1022.028, 16.06784
1022.510, 16.49501
1022.992, 15.46453
1023.474, 16.75513
1023.956, 17.59518
1024.438, 17.57990
1024.921, 17.23297
1025.403, 16.90924
1025.885, 16.62589
1026.367, 16.40207
1026.849, 16.22862
1027.331, 16.37255
1027.813, 16.96556
1028.295, 17.01624
1028.777, 16.03804
1029.260, 15.24324
1029.742, 15.71467
1030.224, 16.96124
1030.706, 17.60845
1031.188, 17.59979
1031.670, 17.24062
1032.152, 16.31951
1032.634, 15.66140
1033.116, 15.51092
1033.599, 15.69265
1034.081, 16.23860
1034.563, 16.89875
1035.045, 16.82572
1035.527, 15.66309
1036.009, 14.99362
1036.491, 14.82251
1036.973, 15.19045
1037.456, 16.77501
1037.938, 18.04189
1038.420, 17.30572
1038.902, 15.30339
1039.384, 14.57001
1039.866, 15.62753
1040.348, 16.50880
1040.830, 17.39323
1041.313, 17.83789
1041.795, 17.39536
1042.277, 16.77036
1042.759, 16.46566
1043.241, 16.43650
1043.723, 16.60249
1044.205, 17.19406
1044.687, 17.32706
1045.169, 16.54778
1045.651, 15.85516
1046.134, 15.31754
1046.616, 15.15856
1047.098, 15.99193
1047.580, 17.31253
1048.062, 17.60276
1048.544, 16.39348
1049.026, 15.35341
1049.508, 14.62039
1049.991, 14.18890
1050.473, 14.17574
1050.955, 14.35561
1051.437, 14.56370
1051.919, 14.80777
1052.401, 15.18932
1052.883, 15.80723
1053.365, 16.17183
1053.848, 16.06749
1054.330, 15.83678
1054.812, 15.50378
1055.294, 15.19257
1055.776, 14.85854
1056.258, 14.65756
1056.740, 15.04414
1057.222, 16.22971
1057.704, 17.11275
1058.187, 17.27755
1058.669, 17.21452
1059.151, 16.94244
1059.633, 16.69311
1060.115, 16.74133
1060.597, 16.94630
1061.079, 16.98052
1061.561, 16.77417
1062.043, 16.44592
1062.526, 15.77007
1063.008, 15.32025
1063.490, 15.63376
1063.972, 16.03403
1064.454, 15.86261
1064.936, 15.32799
1065.418, 14.91875
1065.900, 14.73436
1066.383, 14.71016
1066.865, 15.01281
1067.347, 15.22248
1067.829, 15.00124
1068.311, 14.73355
1068.793, 14.71637
1069.275, 14.92029
1069.757, 15.43431
1070.240, 16.22186
1070.722, 16.32521
1071.204, 14.45523
1071.686, 12.98225
1072.168, 13.37851
1072.650, 14.27381
1073.132, 14.66566
1073.614, 14.67248
1074.096, 14.49000
1074.578, 14.24100
1075.061, 14.55293
1075.543, 16.36457
1076.025, 17.70806
1076.507, 17.15254
1076.989, 16.23740
1077.471, 16.20199
1077.953, 16.61889
1078.435, 16.67440
1078.918, 16.30984
1079.400, 16.08752
1079.882, 16.36229
1080.364, 16.50652
1080.846, 15.83963
1081.328, 15.33125
1081.810, 16.17630
1082.292, 17.32143
1082.774, 17.12514
1083.257, 15.70226
1083.739, 14.58206
1084.221, 14.27268
1084.703, 14.32866
1085.185, 14.69443
1085.667, 15.19646
1086.149, 16.00538
1086.631, 16.68369
1087.114, 16.57164
1087.596, 15.86434
1088.078, 15.38748
1088.560, 15.40462
1089.042, 15.52988
1089.524, 15.80907
1090.006, 15.90566
1090.488, 15.27541
1090.970, 14.65179
1091.453, 15.02359
1091.935, 15.99215
1092.417, 16.32346
1092.899, 15.65668
1093.381, 15.21165
1093.863, 15.61562
1094.345, 16.11405
1094.827, 16.62700
1095.309, 16.84392
1095.792, 16.25709
1096.274, 15.27648
1096.756, 14.65478
1097.238, 14.52557
1097.720, 14.64026
1098.202, 15.25356
1098.684, 15.63791
1099.166, 15.27003
1099.649, 14.87877
1100.131, 15.00754
1100.613, 15.42286
1101.095, 15.78405
1101.577, 16.04251
1102.059, 16.19100
1102.541, 16.20697
1103.023, 16.14513
1103.505, 15.81667
1103.988, 15.64453
1104.470, 16.19440
1104.952, 16.78617
1105.434, 16.43805
1105.916, 15.34401
1106.398, 14.78559
1106.880, 15.37623
1107.362, 15.49579
1107.844, 14.18373
1108.327, 13.26512
1108.809, 13.81927
1109.291, 14.71127
1109.773, 14.88120
1110.255, 14.55141
1110.737, 14.52763
1111.219, 15.03223
1111.701, 15.18331
1112.184, 14.27827
1112.666, 13.90991
1113.148, 14.94421
1113.630, 16.09128
1114.112, 16.68246
1114.594, 16.73915
1115.076, 16.11747
1115.558, 14.67528
1116.041, 14.01532
1116.523, 14.82795
1117.005, 15.23080
1117.487, 14.59801
1117.969, 14.15519
1118.451, 14.61761
1118.933, 15.45787
1119.415, 16.06872
1119.897, 16.44728
1120.380, 16.53629
1120.862, 15.93207
1121.344, 16.16945
1121.826, 18.21104
1122.308, 19.01377
1122.790, 16.78298
1123.272, 14.21236
1123.754, 13.96024
1124.236, 15.32548
1124.719, 15.88567
1125.201, 15.40507
1125.683, 15.41494
1126.165, 16.07822
1126.647, 16.66249
1127.129, 17.09961
1127.611, 16.96771
1128.093, 15.75851
1128.576, 14.31012
1129.058, 14.31086
1129.540, 15.66844
1130.022, 16.29971
1130.504, 16.12620
1130.986, 16.19654
1131.468, 16.72793
1131.950, 16.76619
1132.432, 15.77900
1132.915, 14.59154
1133.397, 14.23054
1133.879, 13.69306
1134.361, 13.51679
1134.843, 13.69747
1135.325, 13.89705
1135.807, 14.86943
1136.289, 15.70565
1136.771, 16.10912
1137.254, 16.16243
1137.736, 15.89757
1138.218, 15.48562
1138.700, 15.16183
1139.182, 14.96518
1139.664, 14.97742
1140.146, 15.23656
1140.628, 16.20573
1141.111, 17.73950
1141.593, 18.24247
1142.075, 16.85475
1142.557, 15.27626
1143.039, 15.76188
1143.521, 17.03836
1144.003, 16.83678
1144.485, 15.85083
1144.968, 15.44183
1145.450, 15.63614
1145.932, 16.02383
1146.414, 16.42308
1146.896, 16.53603
1147.378, 15.95279
1147.860, 15.41789
1148.342, 15.87145
1148.824, 16.58402
1149.307, 16.76459
1149.789, 16.52707
1150.271, 15.98172
1150.753, 15.32271
1151.235, 15.17406
1151.717, 15.91970
1152.199, 16.56902
1152.681, 16.63602
1153.163, 16.32915
1153.646, 15.27566
1154.128, 14.33595
1154.610, 14.71067
1155.092, 15.84062
1155.574, 16.20912
1156.056, 15.50380
1156.538, 15.12571
1157.020, 15.62765
1157.503, 16.29449
1157.985, 17.34940
1158.467, 18.04091
1158.949, 17.68017
1159.431, 16.85608
1159.913, 16.23676
1160.395, 15.86273
1160.877, 15.77755
1161.359, 16.14401
1161.842, 16.48332
1162.324, 17.05847
1162.806, 17.17407
1163.288, 16.20163
1163.770, 15.29386
1164.252, 15.40167
1164.734, 16.11509
1165.216, 16.60017
1165.698, 16.88304
1166.181, 16.41766
1166.663, 14.73900
1167.145, 14.19233
1167.627, 15.47505
1168.109, 16.47575
1168.591, 16.09931
1169.073, 15.33633
1169.555, 15.33017
1170.037, 15.88585
1170.520, 16.34023
1171.002, 16.68883
1171.484, 16.71368
1171.966, 16.41913
1172.448, 16.45848
1172.930, 16.99234
1173.412, 17.06845
1173.894, 15.98531
1174.377, 14.70302
1174.859, 14.81607
1175.341, 15.77774
1175.823, 16.04755
1176.305, 15.87375
1176.787, 16.12065
1177.269, 16.72143
1177.751, 16.76071
1178.234, 15.98928
1178.716, 15.45938
1179.198, 16.16042
1179.680, 15.77677
1180.162, 16.87080
1180.644, 16.38447
1181.126, 16.93990
1181.608, 17.84564
1182.090, 17.53547
1182.573, 16.17386
1183.055, 15.36696
1183.537, 15.76760
1184.019, 16.35062
1184.501, 16.67565
1184.983, 16.91615
1185.465, 17.32429
1185.947, 17.54273
1186.429, 17.05965
1186.912, 16.25450
1187.394, 15.68685
1187.876, 15.44636
1188.358, 15.85475
1188.840, 17.81492
1189.322, 19.06665
1189.804, 19.14483
1190.286, 18.77313
1190.769, 17.76899
1191.251, 16.89324
1191.733, 16.86803
1192.215, 17.42866
1192.697, 17.96605
1193.179, 18.55347
1193.661, 18.37532
1194.143, 17.10284
1194.625, 16.26516
1195.108, 16.04823
1195.590, 16.54875
1196.072, 17.97015
1196.554, 19.48076
1197.036, 20.13083
1197.518, 20.10365
1198.000, 19.88379
1198.482, 19.49250
1198.964, 19.15322
1199.447, 18.84587
1199.929, 18.09986
1200.411, 16.92158
1200.893, 16.52751
1201.375, 17.64595
1201.857, 19.10951
1202.339, 19.84385
1202.821, 19.81452
1203.304, 18.29936
1203.786, 16.37183
1204.268, 16.12880
1204.750, 17.14535
1205.232, 17.96933
1205.714, 18.22223
1206.196, 18.14813
1206.678, 17.61917
1207.161, 17.58856
1207.643, 19.42897
1208.125, 21.07955
1208.607, 20.76040
1209.089, 19.80068
1209.571, 19.65148
1210.053, 20.06268
1210.535, 20.14634
1211.017, 19.76343
1211.500, 19.32865
1211.982, 18.79926
1212.464, 18.37848
1212.946, 18.26600
1213.428, 18.02616
1213.910, 17.29064
1214.392, 16.61240
1214.874, 16.57454
1215.356, 16.97225
1215.839, 17.17425
1216.321, 17.14803
1216.803, 17.23701
1217.285, 17.44884
1217.767, 17.73986
1218.249, 18.11107
1218.731, 18.50608
1219.213, 18.91590
1219.696, 19.11067
1220.178, 19.15756
1220.660, 18.21417
1221.142, 18.99660
1221.624, 18.59253
1222.106, 18.45503
1222.588, 18.86629
1223.070, 18.26923
1223.552, 18.74047
1224.035, 19.43170
1224.517, 19.94875
1224.999, 20.14652
1225.481, 19.71639
1225.963, 19.12328
1226.445, 18.66304
1226.927, 18.37705
1227.409, 18.37578
1227.891, 18.54638
1228.374, 18.78571
1228.856, 19.02130
1229.338, 19.04408
1229.820, 18.76390
1230.302, 18.39303
1230.784, 17.79313
1231.266, 17.36719
1231.748, 17.12678
1232.231, 17.24890
1232.713, 18.37448
1233.195, 19.44428
1233.677, 18.61024
1234.159, 16.23149
1234.641, 15.65934
1235.123, 17.40096
1235.605, 18.54358
1236.088, 18.93175
1236.570, 19.08961
1237.052, 19.12961
1237.534, 19.20753
1238.016, 19.43716
1238.498, 19.65360
1238.980, 19.66327
1239.462, 19.44244
1239.944, 18.74842
1240.427, 17.81454
1240.909, 17.39829
1241.391, 17.38947
1241.873, 17.13776
1242.355, 16.57530
1242.837, 16.31134
1243.319, 16.69555
1243.801, 17.22998
1244.283, 17.70499
1244.766, 17.99256
1245.248, 17.80457
1245.730, 17.55560
1246.212, 17.68831
1246.694, 18.04469
1247.176, 18.33807
1247.658, 18.52686
1248.140, 18.61945
1248.622, 18.63097
1249.105, 18.51064
1249.587, 17.99618
1250.069, 17.79016
1250.551, 18.22170
1251.033, 18.73437
1251.515, 19.13322
1251.997, 19.11905
1252.479, 18.04682
1252.962, 18.14622
1253.444, 17.93629
1253.926, 17.31439
1254.408, 17.81523
1254.890, 17.47454
1255.372, 17.21302
1255.854, 17.25506
1256.336, 17.34281
1256.818, 17.32898
1257.301, 17.30335
1257.783, 17.34018
1258.265, 17.44926
1258.747, 17.84342
1259.229, 18.16495
1259.711, 17.60118
1260.193, 16.72617
1260.675, 16.87086
1261.157, 17.91950
1261.640, 18.34647
1262.122, 17.52887
1262.604, 16.87324
1263.086, 17.01203
1263.568, 17.10758
1264.050, 16.61776
1264.532, 16.33343
1265.014, 17.11936
1265.497, 17.96644
1265.979, 17.56189
1266.461, 16.27613
1266.943, 15.65218
1267.425, 15.73627
1267.907, 16.29070
1268.389, 17.40820
1268.871, 17.89670
1269.354, 17.53620
1269.836, 17.21773
1270.318, 17.35094
1270.800, 17.29038
1271.282, 16.29141
1271.764, 15.08699
1272.246, 14.82025
1272.728, 15.19013
1273.210, 15.82989
1273.693, 16.60598
1274.175, 17.44757
1274.657, 18.22571
1275.139, 18.69931
1275.621, 18.79850
1276.103, 18.49740
1276.585, 17.34286
1277.067, 16.52209
1277.549, 16.54806
1278.032, 16.83677
1278.514, 17.49133
1278.996, 17.90247
1279.478, 17.25894
1279.960, 16.23494
1280.442, 16.19915
1280.924, 17.11353
1281.406, 17.79958
1281.889, 18.27077
1282.371, 18.29369
1282.853, 17.81686
1283.335, 17.70923
1283.817, 18.21046
1284.299, 18.53604
1284.781, 18.17142
1285.263, 17.59293
1285.745, 17.28555
1286.228, 17.24953
##END=



