##NAMES=Pinakiolite
##RRUFFID=R050636
##IDEAL CHEMISTRY=(Mg,Mn^2+^)_2_(Mn^3+^,Sb^5+^)O_2_(BO_3_)
##LOCALITY=Langban, Filipstad, Varmland, Sweden
##OWNER=RRUFF
##SOURCE=University of Arizona Mineral Museum
##DESCRIPTION=Dark-grey crystals embedded into matrix of calcite, dolomite and tephroite
##STATUS=The identification of this mineral has been confirmed by single-crystal X-ray diffraction.
##URL=rruff.info/R050636
89.78156, 0.0000000E+00
90.26367, 12.19366
90.74579, 12.86409
91.22791, 12.67344
91.71002, 11.69880
92.19214, 10.60378
92.67426, 9.698115
93.15638, 9.061557
93.63850, 8.965600
94.12061, 9.977506
94.60273, 11.46429
95.08485, 11.79637
95.56696, 10.85625
96.04908, 9.536226
96.53120, 8.825886
97.01331, 8.716869
97.49543, 8.795877
97.97755, 8.960468
98.45966, 9.201501
98.94178, 9.403433
99.42390, 9.610998
99.90602, 9.711656
100.3881, 9.381710
100.8703, 8.462162
101.3524, 7.671774
101.8345, 7.441739
102.3166, 7.938336
102.7987, 8.277537
103.2808, 8.328358
103.7630, 8.181098
104.2451, 8.246428
104.7272, 8.646122
105.2093, 9.098437
105.6914, 9.448542
106.1735, 9.783365
106.6557, 9.848208
107.1378, 9.452893
107.6199, 8.568892
108.1020, 8.102653
108.5841, 8.387869
109.0662, 8.913661
109.5484, 9.225326
110.0305, 9.312066
110.5126, 9.199952
110.9947, 8.857388
111.4768, 8.238955
111.9590, 7.589860
112.4411, 6.496604
112.9232, 5.484426
113.4053, 5.260218
113.8874, 6.383558
114.3695, 7.951255
114.8517, 9.811755
115.3338, 12.36068
115.8159, 14.12224
116.2980, 13.89159
116.7801, 12.54236
117.2622, 11.98063
117.7444, 13.65440
118.2265, 15.91264
118.7086, 17.60673
119.1907, 18.07780
119.6728, 18.60784
120.1549, 20.09273
120.6371, 22.31460
121.1192, 24.39886
121.6013, 25.42812
122.0834, 26.16829
122.5655, 27.46787
123.0476, 29.70859
123.5298, 32.50108
124.0119, 36.05024
124.4940, 40.25014
124.9761, 43.61817
125.4582, 44.00585
125.9404, 42.70631
126.4225, 42.25208
126.9046, 44.21431
127.3867, 47.44437
127.8688, 50.19323
128.3509, 52.44228
128.8331, 54.39111
129.3152, 56.02994
129.7973, 57.46555
130.2794, 59.18518
130.7615, 61.68006
131.2436, 64.67970
131.7258, 67.05676
132.2079, 68.57851
132.6900, 70.03703
133.1721, 72.90269
133.6542, 77.18307
134.1364, 81.39242
134.6185, 84.58791
135.1006, 86.83303
135.5827, 89.53264
136.0648, 92.98924
136.5469, 96.75675
137.0291, 99.84871
137.5112, 102.2436
137.9933, 103.9586
138.4754, 104.5483
138.9575, 103.6022
139.4396, 104.3132
139.9218, 107.9596
140.4039, 113.5047
140.8860, 115.3376
141.3681, 111.8696
141.8502, 107.4778
142.3323, 105.7392
142.8145, 107.6155
143.2966, 109.6028
143.7787, 111.2035
144.2608, 112.4367
144.7429, 113.6171
145.2250, 114.6709
145.7072, 115.7528
146.1893, 117.0049
146.6714, 118.3916
147.1535, 120.0017
147.6356, 121.9140
148.1178, 124.1849
148.5999, 126.3371
149.0820, 128.5666
149.5641, 130.5849
150.0462, 132.0170
150.5283, 131.8516
151.0105, 132.0897
151.4926, 132.0625
151.9747, 133.1011
152.4568, 134.0850
152.9389, 135.4160
153.4210, 136.5815
153.9032, 136.8688
154.3853, 135.2608
154.8674, 133.6190
155.3495, 132.5968
155.8316, 132.5827
156.3137, 132.3344
156.7959, 131.2251
157.2780, 129.7800
157.7601, 128.9955
158.2422, 130.1155
158.7243, 131.1697
159.2065, 131.0467
159.6886, 128.4269
160.1707, 126.6562
160.6528, 127.3401
161.1349, 129.6675
161.6170, 131.5030
162.0992, 131.8352
162.5813, 131.5834
163.0634, 131.3540
163.5455, 131.4113
164.0276, 131.3381
164.5097, 130.7881
164.9919, 129.8975
165.4740, 129.1971
165.9561, 129.2372
166.4382, 129.4538
166.9203, 129.2984
167.4024, 127.8962
167.8846, 126.8201
168.3667, 127.5365
168.8488, 129.7398
169.3309, 131.4508
169.8130, 131.0143
170.2952, 129.5290
170.7773, 128.3585
171.2594, 127.9923
171.7415, 128.0743
172.2236, 128.5006
172.7057, 129.2372
173.1879, 129.7904
173.6700, 129.7758
174.1521, 129.3311
174.6342, 128.6949
175.1163, 127.8721
175.5984, 126.9374
176.0806, 125.8507
176.5627, 124.6004
177.0448, 123.6198
177.5269, 123.3277
178.0090, 123.6009
178.4911, 124.1447
178.9733, 124.9874
179.4554, 125.9707
179.9375, 126.9928
180.4196, 128.0839
180.9017, 128.8262
181.3838, 128.5374
181.8660, 127.4608
182.3481, 126.4432
182.8302, 125.7178
183.3123, 125.3467
183.7944, 125.6330
184.2766, 126.6884
184.7587, 127.8601
185.2408, 128.4304
185.7229, 128.4371
186.2050, 128.1235
186.6871, 127.3065
187.1693, 126.2047
187.6514, 125.8017
188.1335, 126.2772
188.6156, 126.9484
189.0977, 126.5493
189.5798, 125.1555
190.0620, 124.2163
190.5441, 124.9596
191.0262, 127.0392
191.5083, 128.0025
191.9904, 127.4989
192.4725, 126.3882
192.9547, 126.2348
193.4368, 127.0699
193.9189, 127.8106
194.4010, 127.5666
194.8831, 126.4448
195.3652, 126.3166
195.8474, 127.6292
196.3295, 129.4664
196.8116, 129.9204
197.2937, 128.8827
197.7758, 127.5237
198.2579, 126.2716
198.7401, 125.1095
199.2222, 124.8302
199.7043, 125.6863
200.1864, 127.2247
200.6685, 128.5874
201.1507, 129.8375
201.6328, 130.5697
202.1149, 130.3461
202.5970, 129.0505
203.0791, 127.9786
203.5612, 127.2325
204.0434, 126.7844
204.5255, 126.6151
205.0076, 126.7739
205.4897, 127.0429
205.9718, 127.3437
206.4539, 127.7150
206.9361, 127.9056
207.4182, 127.9157
207.9003, 127.7235
208.3824, 127.1696
208.8645, 126.0941
209.3466, 125.0723
209.8288, 124.4178
210.3109, 124.1389
210.7930, 124.2488
211.2751, 124.9773
211.7572, 126.0377
212.2393, 126.2762
212.7215, 125.3401
213.2036, 124.3518
213.6857, 124.0885
214.1678, 124.8146
214.6499, 125.3623
215.1320, 125.5957
215.6142, 125.5801
216.0963, 125.6069
216.5784, 125.7267
217.0605, 125.7924
217.5426, 125.6946
218.0247, 125.3802
218.5069, 125.0552
218.9890, 124.6983
219.4711, 124.3439
219.9532, 124.2400
220.4353, 124.7238
220.9175, 124.9084
221.3996, 123.9848
221.8817, 121.0605
222.3638, 119.4842
222.8459, 120.1779
223.3280, 122.5356
223.8102, 123.2427
224.2923, 121.2207
224.7744, 119.2195
225.2565, 119.2143
225.7386, 122.4878
226.2207, 124.5773
226.7029, 124.6165
227.1850, 123.0902
227.6671, 122.5646
228.1492, 123.5653
228.6313, 124.8176
229.1134, 125.5834
229.5956, 125.8213
230.0777, 125.6519
230.5598, 124.8746
231.0419, 123.6682
231.5240, 122.8779
232.0062, 122.5155
232.4883, 122.5532
232.9704, 123.0927
233.4525, 124.6544
233.9346, 125.5364
234.4167, 125.2980
234.8989, 124.2416
235.3810, 123.8391
235.8631, 124.5434
236.3452, 125.2984
236.8273, 125.4606
237.3094, 124.6439
237.7916, 124.0456
238.2737, 123.6223
238.7558, 123.4558
239.2379, 124.0028
239.7200, 125.9876
240.2021, 127.7056
240.6843, 128.1054
241.1664, 126.1987
241.6485, 125.1789
242.1306, 125.5660
242.6127, 126.9416
243.0948, 127.6708
243.5770, 127.3798
244.0591, 126.9676
244.5412, 126.9459
245.0233, 127.6903
245.5054, 127.9428
245.9876, 127.2924
246.4697, 126.1764
246.9518, 126.0353
247.4339, 127.4088
247.9160, 128.9547
248.3981, 130.0392
248.8803, 130.5684
249.3624, 130.8527
249.8445, 130.7517
250.3266, 130.4446
250.8087, 130.4603
251.2908, 131.0195
251.7730, 131.5397
252.2551, 131.7022
252.7372, 131.2357
253.2193, 131.1495
253.7014, 131.6984
254.1835, 132.5152
254.6657, 132.6401
255.1478, 131.4933
255.6299, 130.6777
256.1120, 130.9990
256.5941, 133.0077
257.0763, 134.3536
257.5584, 134.7757
258.0405, 134.7165
258.5226, 135.1087
259.0047, 136.2644
259.4868, 137.2366
259.9690, 137.6205
260.4511, 137.2847
260.9332, 136.9032
261.4153, 136.2726
261.8974, 135.7690
262.3795, 136.1344
262.8617, 137.7445
263.3438, 139.3296
263.8259, 140.5142
264.3080, 141.2767
264.7901, 141.6847
265.2722, 141.5875
265.7544, 141.3137
266.2365, 141.2947
266.7186, 141.5065
267.2007, 142.0743
267.6828, 143.3393
268.1649, 145.4290
268.6471, 145.9130
269.1292, 144.1408
269.6113, 141.8038
270.0934, 141.0897
270.5755, 142.3703
271.0576, 143.8539
271.5398, 145.2307
272.0219, 146.4947
272.5040, 146.9050
272.9861, 146.2607
273.4682, 145.1961
273.9503, 144.2089
274.4325, 143.2193
274.9146, 142.8135
275.3967, 143.2547
275.8788, 144.4390
276.3610, 145.5833
276.8431, 146.7283
277.3252, 147.6776
277.8073, 148.2846
278.2894, 148.5575
278.7715, 148.2940
279.2537, 147.0292
279.7358, 145.2950
280.2179, 145.8417
280.7000, 149.2405
281.1821, 152.3599
281.6642, 152.2309
282.1464, 148.8326
282.6285, 145.9728
283.1106, 144.2255
283.5927, 143.4323
284.0748, 143.3927
284.5569, 144.1855
285.0391, 145.0094
285.5212, 145.1909
286.0033, 144.7988
286.4854, 144.7615
286.9675, 145.3725
287.4496, 146.1143
287.9318, 145.7259
288.4139, 144.1837
288.8960, 142.7787
289.3781, 142.4002
289.8602, 142.8549
290.3423, 143.2400
290.8245, 143.5555
291.3066, 143.5889
291.7887, 142.8685
292.2708, 141.4588
292.7529, 139.9613
293.2350, 138.3628
293.7172, 136.9090
294.1993, 136.6347
294.6814, 137.7638
295.1635, 139.2049
295.6456, 139.4319
296.1277, 138.7142
296.6099, 138.1951
297.0920, 138.7893
297.5741, 139.8647
298.0562, 140.0209
298.5383, 139.1755
299.0204, 138.2206
299.5026, 138.3845
299.9847, 139.1805
300.4668, 139.2933
300.9489, 137.3679
301.4311, 134.8994
301.9132, 134.1675
302.3953, 135.1136
302.8774, 136.4429
303.3595, 137.3971
303.8416, 137.9841
304.3238, 138.2111
304.8059, 137.8445
305.2880, 137.3434
305.7701, 137.2406
306.2522, 137.4697
306.7343, 137.6330
307.2165, 137.2967
307.6986, 136.7991
308.1807, 136.5692
308.6628, 136.7691
309.1449, 137.1628
309.6270, 137.8075
310.1092, 138.5554
310.5913, 138.9117
311.0734, 137.9530
311.5555, 136.8323
312.0376, 136.6751
312.5197, 138.0059
313.0019, 139.4266
313.4840, 140.3025
313.9661, 140.7111
314.4482, 140.8239
314.9303, 140.1150
315.4124, 139.5633
315.8946, 140.0765
316.3767, 142.1080
316.8588, 143.4314
317.3409, 142.3489
317.8230, 140.2375
318.3051, 138.9164
318.7873, 140.0228
319.2694, 141.0699
319.7515, 140.5786
320.2336, 138.2975
320.7157, 137.1689
321.1978, 139.4534
321.6800, 142.6095
322.1621, 144.3362
322.6442, 142.7014
323.1263, 141.1150
323.6084, 140.5218
324.0905, 140.8563
324.5727, 140.8443
325.0548, 139.7973
325.5369, 138.6766
326.0190, 138.0658
326.5012, 138.6550
326.9833, 139.0053
327.4654, 138.9012
327.9475, 138.4480
328.4296, 138.0696
328.9117, 137.8761
329.3939, 137.6607
329.8760, 137.3414
330.3581, 136.9119
330.8402, 136.3841
331.3223, 135.7669
331.8044, 135.0430
332.2866, 134.1504
332.7687, 132.9038
333.2508, 131.7681
333.7329, 130.9064
334.2150, 130.3793
334.6971, 129.8167
335.1793, 129.1982
335.6614, 128.5575
336.1435, 127.8973
336.6256, 127.0887
337.1077, 126.6321
337.5898, 126.8946
338.0720, 127.8049
338.5541, 127.5995
339.0362, 125.8200
339.5183, 123.9553
340.0004, 123.6353
340.4825, 125.1679
340.9647, 126.0382
341.4468, 125.7108
341.9289, 124.4953
342.4110, 123.2394
342.8931, 121.9075
343.3752, 120.8267
343.8574, 120.3747
344.3395, 120.4979
344.8216, 120.3765
345.3037, 119.8054
345.7858, 119.1991
346.2679, 119.5464
346.7501, 120.7708
347.2322, 121.6099
347.7143, 120.7945
348.1964, 119.0253
348.6785, 118.8648
349.1607, 120.6373
349.6428, 122.6329
350.1249, 122.7922
350.6070, 121.5679
351.0891, 120.3701
351.5713, 119.6845
352.0534, 119.4148
352.5355, 119.5430
353.0176, 120.0544
353.4997, 120.5794
353.9818, 120.9948
354.4640, 121.1995
354.9461, 121.0098
355.4282, 120.1921
355.9103, 119.1972
356.3924, 118.2212
356.8745, 117.3410
357.3567, 116.8761
357.8388, 117.5577
358.3209, 118.4198
358.8030, 118.5907
359.2851, 117.7534
359.7672, 116.6441
360.2494, 115.1981
360.7315, 113.7855
361.2136, 113.1060
361.6957, 113.9186
362.1778, 115.1095
362.6599, 116.2925
363.1421, 117.4907
363.6242, 118.1790
364.1063, 118.0522
364.5884, 117.3950
365.0705, 116.4999
365.5526, 114.8707
366.0348, 113.5915
366.5169, 113.0757
366.9990, 113.2748
367.4811, 113.3144
367.9632, 113.0761
368.4453, 112.6795
368.9275, 112.1868
369.4096, 111.3690
369.8917, 110.7783
370.3738, 110.5273
370.8559, 110.5050
371.3380, 110.4164
371.8202, 110.3009
372.3023, 110.0626
372.7844, 109.6132
373.2665, 108.8411
373.7487, 108.3318
374.2308, 108.1599
374.7129, 108.1769
375.1950, 108.1491
375.6771, 107.9914
376.1592, 108.0945
376.6414, 108.7423
377.1235, 109.8213
377.6056, 110.1045
378.0877, 109.4168
378.5698, 108.5205
379.0519, 108.0924
379.5341, 108.1392
380.0162, 108.1415
380.4983, 107.9887
380.9804, 107.7731
381.4625, 107.7047
381.9446, 107.7803
382.4268, 107.9305
382.9089, 108.2314
383.3910, 108.5827
383.8731, 108.5953
384.3552, 108.1794
384.8373, 107.7108
385.3195, 107.5657
385.8016, 107.7169
386.2837, 108.0882
386.7658, 108.6708
387.2479, 109.4381
387.7300, 110.5365
388.2122, 111.9361
388.6943, 113.0838
389.1764, 113.4339
389.6585, 113.3311
390.1406, 113.1878
390.6227, 113.0895
391.1049, 113.0239
391.5870, 112.9420
392.0691, 112.8792
392.5512, 112.9432
393.0333, 113.4883
393.5154, 113.9639
393.9976, 113.9787
394.4797, 113.3680
394.9618, 112.6841
395.4439, 112.0083
395.9260, 111.3871
396.4081, 110.8842
396.8903, 110.2468
397.3724, 109.9878
397.8545, 110.5546
398.3366, 112.0049
398.8188, 112.7207
399.3009, 111.9670
399.7830, 110.8581
400.2651, 110.0777
400.7472, 109.5699
401.2293, 109.4970
401.7115, 110.1107
402.1936, 111.1406
402.6757, 111.7712
403.1578, 111.9110
403.6399, 111.8039
404.1220, 111.4973
404.6042, 110.9333
405.0863, 110.4820
405.5684, 110.1309
406.0505, 109.9187
406.5326, 109.9587
407.0147, 110.2944
407.4969, 110.5521
407.9790, 110.6134
408.4611, 110.5267
408.9432, 110.4129
409.4253, 110.2522
409.9074, 110.2898
410.3896, 111.0335
410.8717, 112.2303
411.3538, 112.5753
411.8359, 111.6020
412.3180, 110.4097
412.8001, 110.7183
413.2823, 112.2164
413.7644, 113.6758
414.2465, 114.5569
414.7286, 114.9767
415.2107, 114.8314
415.6928, 114.0910
416.1750, 113.7523
416.6571, 115.0916
417.1392, 117.1441
417.6213, 118.6428
418.1034, 118.8216
418.5855, 118.6829
419.0677, 118.7328
419.5498, 118.9273
420.0319, 119.0987
420.5140, 118.8412
420.9961, 118.7816
421.4782, 119.4613
421.9604, 121.4546
422.4425, 122.8229
422.9246, 122.4294
423.4067, 121.3628
423.8889, 121.1119
424.3710, 123.0614
424.8531, 124.5780
425.3352, 124.7848
425.8173, 123.6734
426.2994, 123.4057
426.7816, 124.6510
427.2637, 126.0650
427.7458, 126.7544
428.2279, 126.4223
428.7100, 126.0816
429.1921, 125.7581
429.6743, 125.4864
430.1564, 125.3416
430.6385, 125.3074
431.1206, 125.4735
431.6027, 126.0627
432.0848, 127.0358
432.5670, 127.2374
433.0491, 126.5430
433.5312, 125.5879
434.0133, 124.8279
434.4954, 124.3141
434.9775, 124.4871
435.4597, 125.7446
435.9418, 127.3773
436.4239, 128.0563
436.9060, 127.8912
437.3881, 127.6219
437.8702, 127.7354
438.3524, 128.0249
438.8345, 128.1391
439.3166, 127.9985
439.7987, 127.9678
440.2808, 128.6019
440.7629, 129.4866
441.2451, 129.9710
441.7272, 129.1933
442.2093, 128.4897
442.6914, 128.6759
443.1735, 129.6395
443.6556, 130.5838
444.1378, 131.3905
444.6199, 131.9731
445.1020, 132.2647
445.5841, 132.2001
446.0662, 131.9620
446.5483, 131.3179
447.0305, 130.5688
447.5126, 130.2257
447.9947, 130.7843
448.4768, 131.1551
448.9590, 131.0040
449.4411, 130.3148
449.9232, 129.9371
450.4053, 130.0661
450.8874, 130.2160
451.3695, 129.9556
451.8517, 129.1182
452.3338, 128.6461
452.8159, 128.7769
453.2980, 129.1381
453.7801, 128.8696
454.2622, 127.9239
454.7444, 127.0789
455.2265, 126.8466
455.7086, 127.0249
456.1907, 126.6698
456.6728, 125.7379
457.1549, 124.7862
457.6371, 124.3713
458.1192, 124.3211
458.6013, 124.2273
459.0834, 124.0396
459.5655, 123.6873
460.0476, 123.0269
460.5298, 122.1226
461.0119, 121.2026
461.4940, 119.9948
461.9761, 119.0608
462.4582, 118.9963
462.9403, 119.9072
463.4225, 120.7856
463.9046, 121.4990
464.3867, 121.8122
464.8688, 121.4877
465.3509, 119.3153
465.8330, 117.8048
466.3152, 117.8030
466.7973, 118.9343
467.2794, 119.8385
467.7615, 120.3308
468.2436, 120.6932
468.7257, 121.0307
469.2079, 121.3744
469.6900, 121.5049
470.1721, 121.2429
470.6542, 120.9614
471.1363, 121.2419
471.6184, 122.4497
472.1006, 122.6500
472.5827, 121.0900
473.0648, 118.5596
473.5469, 117.6654
474.0291, 118.5387
474.5112, 119.5022
474.9933, 119.4709
475.4754, 118.6964
475.9575, 118.3866
476.4396, 118.6585
476.9218, 118.8151
477.4039, 117.6792
477.8860, 115.8620
478.3681, 114.8436
478.8502, 115.4711
479.3323, 116.6201
479.8145, 117.4243
480.2966, 117.8716
480.7787, 117.9026
481.2608, 117.0202
481.7429, 116.0477
482.2250, 115.6539
482.7072, 116.0403
483.1893, 116.2534
483.6714, 115.7025
484.1535, 114.9320
484.6356, 114.4915
485.1177, 114.6091
485.5999, 114.8978
486.0820, 115.5032
486.5641, 116.2768
487.0462, 116.6803
487.5283, 116.6864
488.0104, 116.3609
488.4926, 115.7093
488.9747, 114.7224
489.4568, 113.2504
489.9389, 110.6779
490.4210, 108.7504
490.9031, 110.2331
491.3853, 115.4375
491.8674, 118.7375
492.3495, 118.4752
492.8316, 116.2555
493.3137, 115.5793
493.7958, 116.3157
494.2780, 117.0520
494.7601, 116.6143
495.2422, 115.6990
495.7243, 115.8781
496.2064, 117.2720
496.6885, 118.4722
497.1707, 117.8226
497.6528, 116.4601
498.1349, 116.0044
498.6170, 117.5929
499.0992, 119.1828
499.5813, 119.3081
500.0634, 118.5784
500.5455, 118.4932
501.0276, 120.5515
501.5097, 122.4454
501.9919, 123.0336
502.4740, 121.9788
502.9561, 121.4804
503.4382, 122.2608
503.9203, 123.2497
504.4024, 123.6786
504.8846, 123.0418
505.3667, 122.8878
505.8488, 123.4172
506.3309, 124.4098
506.8130, 125.4314
507.2951, 126.4963
507.7773, 127.5068
508.2594, 128.3435
508.7415, 129.0735
509.2236, 130.3203
509.7057, 132.1495
510.1878, 133.6684
510.6700, 133.9650
511.1521, 133.3601
511.6342, 132.7022
512.1163, 132.0223
512.5984, 131.7014
513.0806, 132.3302
513.5627, 133.6131
514.0448, 134.9327
514.5269, 136.3414
515.0090, 137.4283
515.4911, 137.4533
515.9733, 136.6676
516.4554, 136.7188
516.9375, 139.0482
517.4196, 141.8142
517.9017, 144.0099
518.3839, 145.5775
518.8660, 146.4168
519.3481, 145.7384
519.8302, 144.6763
520.3123, 144.4951
520.7944, 145.9205
521.2766, 146.8864
521.7587, 146.9324
522.2408, 146.3128
522.7229, 145.9725
523.2050, 145.9107
523.6871, 146.1392
524.1693, 146.7128
524.6514, 147.6072
525.1335, 148.7297
525.6156, 150.1390
526.0977, 151.4216
526.5798, 151.9851
527.0620, 152.0818
527.5441, 152.5011
528.0262, 153.5735
528.5083, 154.7263
528.9904, 155.1528
529.4725, 155.1556
529.9547, 155.4726
530.4368, 156.9329
530.9189, 158.4483
531.4010, 159.1521
531.8831, 159.0441
532.3652, 159.1890
532.8474, 160.1164
533.3295, 161.2869
533.8116, 162.3930
534.2937, 163.5466
534.7758, 164.3562
535.2579, 164.6031
535.7401, 164.6092
536.2222, 164.7778
536.7043, 164.9944
537.1864, 165.7173
537.6685, 167.3409
538.1506, 169.5203
538.6328, 170.4728
539.1149, 170.0658
539.5970, 169.3263
540.0791, 168.6316
540.5612, 168.0753
541.0433, 168.2971
541.5255, 169.3825
542.0076, 170.6119
542.4897, 171.0917
542.9718, 171.2257
543.4539, 171.8997
543.9360, 173.6679
544.4182, 175.4694
544.9003, 176.3036
545.3824, 176.5252
545.8645, 176.9257
546.3466, 177.9861
546.8287, 179.1489
547.3109, 180.3201
547.7930, 181.4831
548.2751, 182.0897
548.7572, 181.4457
549.2393, 180.6957
549.7214, 180.3971
550.2036, 180.4035
550.6857, 181.3147
551.1678, 183.7117
551.6499, 186.4310
552.1320, 187.7158
552.6141, 187.3583
553.0963, 186.9368
553.5784, 186.6501
554.0605, 186.6777
554.5426, 187.8244
555.0247, 190.0151
555.5068, 191.8776
555.9890, 192.1619
556.4711, 191.7011
556.9532, 192.0783
557.4353, 193.3502
557.9174, 194.5776
558.3995, 194.8544
558.8817, 194.7840
559.3638, 195.0430
559.8459, 195.9365
560.3281, 196.8670
560.8102, 197.4236
561.2923, 197.8968
561.7744, 198.7407
562.2565, 200.7758
562.7386, 202.3658
563.2208, 202.9021
563.7029, 202.5941
564.1850, 202.9649
564.6671, 204.2143
565.1492, 205.7845
565.6313, 207.5534
566.1135, 209.5596
566.5956, 210.9478
567.0777, 211.5706
567.5598, 212.0612
568.0419, 213.0688
568.5240, 214.5236
569.0062, 216.1525
569.4883, 217.9257
569.9704, 219.7552
570.4525, 221.5190
570.9346, 223.2453
571.4167, 224.9231
571.8989, 226.3932
572.3810, 227.9805
572.8631, 230.0698
573.3452, 232.5589
573.8273, 234.8815
574.3094, 236.6066
574.7916, 238.2577
575.2737, 240.1461
575.7558, 242.4177
576.2379, 244.5124
576.7200, 246.1344
577.2021, 247.7808
577.6843, 249.9723
578.1664, 252.9489
578.6485, 255.6660
579.1306, 257.9193
579.6127, 260.0015
580.0948, 262.7753
580.5770, 266.2311
581.0591, 269.1849
581.5412, 270.7864
582.0233, 271.7617
582.5054, 273.9529
582.9875, 277.1582
583.4697, 280.0708
583.9518, 280.8131
584.4339, 281.2912
584.9160, 283.9256
585.3981, 289.2187
585.8802, 294.3069
586.3624, 297.9853
586.8445, 300.6630
587.3266, 302.7010
587.8087, 302.9150
588.2908, 304.1053
588.7729, 307.2714
589.2551, 311.4241
589.7372, 314.8989
590.2193, 317.3003
590.7014, 319.8178
591.1835, 322.7699
591.6656, 326.0514
592.1478, 329.0744
592.6299, 331.7934
593.1120, 334.3766
593.5941, 336.9332
594.0762, 339.4280
594.5583, 341.5416
595.0405, 343.2141
595.5226, 345.2960
596.0047, 349.1644
596.4868, 353.7001
596.9689, 357.2412
597.4510, 359.0788
597.9332, 360.7650
598.4153, 363.2545
598.8974, 366.1363
599.3795, 368.8706
599.8616, 370.5819
600.3438, 372.9555
600.8259, 377.1841
601.3080, 382.5648
601.7901, 386.1061
602.2722, 386.6173
602.7543, 387.2291
603.2365, 389.2110
603.7186, 392.5106
604.2007, 395.2450
604.6828, 397.2460
605.1649, 399.3230
605.6470, 402.2692
606.1292, 405.8588
606.6113, 409.3689
607.0934, 412.6910
607.5755, 415.7063
608.0576, 418.0366
608.5398, 419.9838
609.0219, 422.0257
609.5040, 424.5423
609.9861, 426.9260
610.4683, 428.6796
610.9504, 430.0726
611.4325, 431.7094
611.9146, 434.0747
612.3967, 436.3591
612.8788, 438.1809
613.3610, 439.6055
613.8431, 441.7303
614.3252, 445.3086
614.8073, 448.2884
615.2894, 449.1077
615.7715, 447.5228
616.2537, 448.6876
616.7358, 453.0344
617.2179, 458.0017
617.7000, 460.9442
618.1821, 462.3202
618.6642, 463.5064
619.1464, 464.5425
619.6285, 466.2127
620.1106, 470.2821
620.5927, 475.3688
621.0748, 479.0857
621.5569, 479.1205
622.0391, 479.0495
622.5212, 480.7074
623.0033, 483.5529
623.4854, 485.9112
623.9675, 486.4917
624.4496, 487.6253
624.9318, 490.3553
625.4139, 494.6348
625.8960, 497.5013
626.3781, 498.4191
626.8602, 499.1222
627.3423, 500.7561
627.8245, 503.2870
628.3066, 505.3307
628.7887, 506.7384
629.2708, 508.3784
629.7529, 511.6026
630.2350, 515.6882
630.7172, 519.0010
631.1993, 520.9963
631.6814, 522.6448
632.1635, 524.8475
632.6456, 527.1905
633.1277, 529.0564
633.6099, 529.3896
634.0920, 530.1173
634.5741, 532.2714
635.0562, 535.3857
635.5383, 537.6888
636.0204, 538.5798
636.5026, 539.4750
636.9847, 540.7938
637.4668, 542.5178
637.9489, 544.4909
638.4310, 546.8957
638.9131, 548.8367
639.3953, 549.4128
639.8774, 548.9684
640.3595, 549.0886
640.8416, 549.8682
641.3237, 550.8334
641.8058, 551.5856
642.2880, 552.2127
642.7701, 552.8829
643.2522, 553.7971
643.7343, 554.3109
644.2164, 553.5956
644.6985, 552.4490
645.1807, 551.9398
645.6628, 553.2444
646.1449, 554.0270
646.6270, 553.9083
647.1091, 553.0899
647.5912, 552.0380
648.0734, 550.6544
648.5555, 549.3165
649.0376, 548.2607
649.5197, 547.3122
650.0018, 545.5258
650.4839, 542.8909
650.9661, 540.4025
651.4482, 538.9587
651.9303, 537.9696
652.4124, 536.3361
652.8945, 534.0221
653.3766, 531.6414
653.8588, 529.8051
654.3409, 527.9651
654.8230, 525.5917
655.3051, 522.4331
655.7872, 519.2533
656.2693, 516.5995
656.7515, 513.7693
657.2336, 509.9218
657.7158, 503.7113
658.1979, 499.6525
658.6800, 499.0726
659.1621, 499.6653
659.6442, 497.0749
660.1263, 491.2737
660.6085, 485.5938
661.0906, 481.1088
661.5727, 477.2873
662.0548, 473.2003
662.5369, 468.8992
663.0190, 464.5819
663.5012, 460.0409
663.9833, 455.7809
664.4654, 452.5444
664.9475, 450.1821
665.4296, 447.2044
665.9117, 442.3038
666.3939, 437.3954
666.8760, 433.3652
667.3581, 430.2198
667.8402, 427.9247
668.3223, 426.9620
668.8044, 426.0641
669.2866, 424.2987
669.7687, 421.6302
670.2508, 418.6630
670.7329, 415.3055
671.2150, 412.1294
671.6971, 409.7942
672.1793, 408.0977
672.6614, 406.5910
673.1435, 405.1944
673.6256, 403.8319
674.1077, 402.1136
674.5898, 400.4457
675.0720, 399.4771
675.5541, 400.3288
676.0362, 400.8615
676.5183, 400.2534
677.0004, 398.9120
677.4825, 397.9088
677.9647, 397.1272
678.4468, 397.0117
678.9289, 398.0828
679.4110, 399.8881
679.8931, 399.8867
680.3752, 397.9472
680.8574, 396.4301
681.3395, 397.3490
681.8216, 399.4587
682.3037, 399.9323
682.7858, 398.8592
683.2679, 397.7878
683.7501, 397.4697
684.2322, 397.7798
684.7143, 398.8390
685.1964, 400.8413
685.6785, 402.3338
686.1606, 403.0230
686.6428, 402.9676
687.1249, 402.1446
687.6070, 399.8663
688.0891, 398.4823
688.5712, 398.2975
689.0533, 398.5283
689.5355, 398.3260
690.0176, 397.6958
690.4997, 396.7061
690.9818, 395.3519
691.4639, 393.7112
691.9460, 391.9261
692.4282, 389.9650
692.9103, 387.7701
693.3924, 385.3118
693.8745, 382.6199
694.3566, 379.8463
694.8387, 376.8618
695.3209, 373.3675
695.8030, 369.3043
696.2851, 364.6606
696.7672, 359.2897
697.2493, 353.2805
697.7314, 347.3789
698.2136, 341.6818
698.6957, 335.7541
699.1778, 329.2177
699.6599, 322.2810
700.1420, 316.2273
700.6241, 310.9819
701.1063, 305.5490
701.5884, 298.8282
702.0705, 291.7420
702.5526, 285.5700
703.0347, 280.3984
703.5168, 275.0456
703.9990, 268.6682
704.4811, 262.1267
704.9632, 256.1283
705.4453, 250.9584
705.9274, 245.5877
706.4095, 239.6058
706.8917, 233.8835
707.3738, 229.2135
707.8560, 225.7739
708.3381, 222.5835
708.8202, 219.7214
709.3023, 216.5848
709.7844, 211.9820
710.2665, 206.4951
710.7487, 201.6440
711.2308, 197.9426
711.7129, 194.7390
712.1950, 191.8008
712.6771, 188.9205
713.1592, 185.7712
713.6414, 181.5877
714.1235, 177.9294
714.6056, 175.4129
715.0877, 173.6145
715.5698, 171.8122
716.0519, 169.9990
716.5341, 168.2274
717.0162, 166.6011
717.4983, 164.9712
717.9804, 162.8030
718.4625, 160.1335
718.9446, 157.7468
719.4268, 156.2590
719.9089, 155.1128
720.3910, 153.4026
720.8731, 151.3279
721.3552, 149.6629
721.8373, 149.1516
722.3195, 148.8614
722.8016, 148.5094
723.2837, 148.0719
723.7658, 146.8374
724.2479, 143.9715
724.7300, 141.4592
725.2122, 140.4331
725.6943, 140.9229
726.1764, 140.5073
726.6585, 139.0326
727.1406, 137.5926
727.6227, 137.3827
728.1049, 137.7796
728.5870, 137.2098
729.0691, 135.5304
729.5512, 133.7369
730.0333, 132.2055
730.5154, 131.0853
730.9976, 130.6858
731.4797, 131.4178
731.9618, 131.7158
732.4439, 130.8618
732.9260, 129.7893
733.4081, 129.2462
733.8903, 129.5104
734.3724, 129.3391
734.8545, 128.5741
735.3366, 127.6111
735.8187, 126.8739
736.3008, 126.3621
736.7830, 126.1646
737.2651, 126.4316
737.7472, 126.5729
738.2293, 125.7257
738.7114, 124.4498
739.1935, 123.5827
739.6757, 123.5635
740.1578, 123.7629
740.6399, 124.3495
741.1220, 124.9467
741.6041, 124.8884
742.0862, 123.7860
742.5684, 122.8902
743.0505, 122.4399
743.5326, 122.2580
744.0147, 121.9721
744.4968, 121.5900
744.9789, 121.1657
745.4611, 120.6181
745.9432, 120.1628
746.4253, 120.1604
746.9074, 120.4791
747.3895, 120.7795
747.8716, 121.4040
748.3538, 121.4858
748.8359, 119.9795
749.3180, 117.4076
749.8001, 116.4990
750.2822, 118.5985
750.7643, 120.1102
751.2465, 119.6957
751.7286, 117.8515
752.2107, 117.0672
752.6928, 117.3579
753.1749, 117.6609
753.6570, 117.1005
754.1392, 116.3005
754.6213, 116.5836
755.1034, 117.7208
755.5855, 118.3789
756.0676, 117.3079
756.5498, 115.9990
757.0319, 115.3869
757.5140, 115.5509
757.9962, 115.3621
758.4783, 114.2160
758.9604, 113.4821
759.4425, 113.9754
759.9246, 115.6456
760.4067, 116.5939
760.8889, 116.7682
761.3710, 116.6355
761.8531, 116.4189
762.3352, 116.1763
762.8173, 116.0588
763.2994, 116.0683
763.7816, 115.9982
764.2637, 115.5470
764.7458, 115.0953
765.2279, 115.0277
765.7100, 115.5449
766.1921, 115.5622
766.6743, 114.6025
767.1564, 113.6560
767.6385, 113.4390
768.1206, 114.0678
768.6027, 114.3282
769.0848, 114.2074
769.5670, 113.7591
770.0491, 112.7193
770.5312, 111.4619
771.0133, 110.8049
771.4954, 110.8863
771.9775, 111.0676
772.4597, 110.9689
772.9418, 110.7768
773.4239, 110.6266
773.9060, 110.4751
774.3881, 110.5667
774.8702, 111.1976
775.3524, 111.7413
775.8345, 111.5242
776.3166, 110.4433
776.7987, 109.9798
777.2808, 110.3268
777.7629, 110.7844
778.2451, 110.6047
778.7272, 109.9833
779.2093, 109.1980
779.6914, 108.1953
780.1735, 107.5489
780.6556, 107.9800
781.1378, 108.7412
781.6199, 109.1028
782.1020, 108.6366
782.5841, 108.2995
783.0662, 108.2732
783.5483, 108.1685
784.0305, 107.4710
784.5126, 106.1493
784.9947, 104.9244
785.4768, 103.8071
785.9589, 103.1455
786.4410, 103.7296
786.9232, 104.9740
787.4053, 105.8270
787.8874, 105.9729
788.3695, 105.8695
788.8516, 105.4948
789.3337, 105.1136
789.8159, 105.0485
790.2980, 105.7323
790.7801, 105.9712
791.2622, 105.5776
791.7443, 104.9341
792.2264, 104.5893
792.7086, 104.5132
793.1907, 104.1654
793.6728, 103.3413
794.1549, 102.6832
794.6370, 103.2915
795.1191, 104.4436
795.6013, 104.9569
796.0834, 104.3297
796.5655, 103.3929
797.0476, 101.8594
797.5297, 100.4530
798.0118, 100.1139
798.4940, 101.6208
798.9761, 102.3441
799.4582, 101.9273
799.9403, 100.9931
800.4224, 100.1822
800.9045, 99.54485
801.3867, 99.45009
801.8688, 100.1047
802.3509, 100.8140
802.8330, 100.8662
803.3151, 100.5500
803.7972, 100.2568
804.2794, 100.0406
804.7615, 99.93328
805.2436, 100.0555
805.7258, 100.2253
806.2079, 100.2438
806.6900, 100.0696
807.1721, 99.93224
807.6542, 99.90058
808.1364, 99.79002
808.6185, 99.12894
809.1006, 98.18050
809.5827, 97.84692
810.0648, 98.55758
810.5469, 99.13280
811.0291, 98.40685
811.5112, 97.18580
811.9933, 96.40127
812.4754, 96.48457
812.9575, 96.67143
813.4396, 97.10477
813.9218, 97.44695
814.4039, 97.22485
814.8860, 96.39014
815.3681, 95.71241
815.8502, 95.23907
816.3323, 95.08801
816.8145, 95.64867
817.2966, 96.56353
817.7787, 97.23470
818.2608, 97.55193
818.7429, 97.54231
819.2250, 96.93673
819.7072, 96.17094
820.1893, 95.71404
820.6714, 95.99703
821.1535, 95.61844
821.6356, 94.24666
822.1177, 92.80373
822.5999, 92.25687
823.0820, 92.53982
823.5641, 93.46322
824.0462, 95.13216
824.5283, 96.37463
825.0104, 95.69982
825.4926, 94.18353
825.9747, 92.99710
826.4568, 92.32473
826.9389, 92.10250
827.4210, 92.89857
827.9031, 93.67887
828.3853, 93.72668
828.8674, 92.88708
829.3495, 91.94588
829.8316, 90.81622
830.3137, 90.01903
830.7958, 90.27882
831.2780, 91.20693
831.7601, 92.10192
832.2422, 92.89586
832.7243, 93.31193
833.2064, 92.75518
833.6885, 92.04321
834.1707, 91.89420
834.6528, 92.64776
835.1349, 92.75362
835.6170, 91.75316
836.0991, 90.88401
836.5812, 91.28849
837.0634, 92.81336
837.5455, 92.89713
838.0276, 91.50662
838.5097, 90.07606
838.9918, 89.83314
839.4739, 90.03688
839.9561, 89.81919
840.4382, 89.12826
840.9203, 88.69406
841.4024, 88.93810
841.8845, 89.32242
842.3666, 89.57040
842.8488, 89.68965
843.3309, 90.22051
843.8130, 91.30096
844.2951, 92.02390
844.7772, 91.52294
845.2593, 90.38821
845.7415, 90.06775
846.2236, 90.42198
846.7057, 90.70872
847.1878, 90.51272
847.6699, 90.13618
848.1520, 89.53935
848.6342, 88.82537
849.1163, 88.77639
849.5984, 89.94795
850.0805, 90.64990
850.5626, 90.08224
851.0447, 88.78124
851.5269, 88.78169
852.0090, 89.89002
852.4911, 90.49572
852.9732, 89.04996
853.4553, 87.48493
853.9374, 87.90097
854.4196, 89.57387
854.9017, 90.71974
855.3839, 90.36069
855.8660, 89.95345
856.3481, 89.72665
856.8302, 89.65933
857.3123, 89.88371
857.7944, 90.47647
858.2766, 90.23685
858.7587, 88.55695
859.2408, 86.57806
859.7229, 86.10680
860.2050, 86.57036
860.6871, 86.81264
861.1693, 86.28865
861.6514, 85.73491
862.1335, 85.13114
862.6156, 84.80112
863.0977, 85.26519
863.5798, 87.13526
864.0620, 87.91817
864.5441, 87.11330
865.0262, 85.91122
865.5083, 85.94691
865.9904, 86.83021
866.4725, 87.37559
866.9547, 87.37409
867.4368, 87.04672
867.9189, 86.23454
868.4010, 85.35735
868.8831, 84.82869
869.3652, 84.91783
869.8474, 84.74931
870.3295, 84.03098
870.8116, 83.52161
871.2937, 84.09523
871.7758, 85.59817
872.2579, 86.07072
872.7401, 85.45439
873.2222, 84.81311
873.7043, 85.21535
874.1864, 85.86262
874.6685, 85.91044
875.1506, 85.28532
875.6328, 84.75890
876.1149, 84.53372
876.5970, 84.44720
877.0791, 84.56009
877.5612, 84.80944
878.0433, 84.27883
878.5255, 82.91628
879.0076, 82.14924
879.4897, 83.57785
879.9718, 85.60760
880.4539, 85.73219
880.9360, 84.45903
881.4182, 83.54060
881.9003, 84.16039
882.3824, 84.74326
882.8645, 84.55932
883.3466, 83.97088
883.8287, 83.98508
884.3109, 84.75132
884.7930, 85.27791
885.2751, 85.27834
885.7572, 84.95860
886.2393, 84.59444
886.7214, 84.18546
887.2036, 83.71371
887.6857, 82.97442
888.1678, 82.50444
888.6499, 82.83473
889.1320, 83.44080
889.6141, 83.61342
890.0963, 83.15248
890.5784, 82.73184
891.0605, 82.32854
891.5426, 82.12878
892.0247, 82.71474
892.5068, 83.66402
892.9890, 83.51889
893.4711, 81.96315
893.9532, 80.47492
894.4353, 79.81606
894.9174, 79.82905
895.3995, 80.65268
895.8817, 82.70812
896.3638, 83.41512
896.8459, 82.15945
897.3280, 80.82226
897.8101, 80.77088
898.2922, 81.69999
898.7744, 81.92574
899.2565, 81.49022
899.7386, 80.86120
900.2207, 80.04131
900.7028, 79.38833
901.1849, 79.20710
901.6671, 79.45997
902.1492, 79.81982
902.6313, 80.48676
903.1134, 80.81932
903.5955, 80.54739
904.0776, 79.90563
904.5598, 79.50205
905.0419, 79.32793
905.5240, 79.30798
906.0062, 79.51577
906.4883, 79.70280
906.9704, 79.58602
907.4525, 79.31501
907.9346, 79.12925
908.4167, 78.79651
908.8989, 79.04128
909.3810, 80.28625
909.8631, 81.67349
910.3452, 81.89995
910.8273, 81.07774
911.3094, 81.11818
911.7916, 82.37943
912.2737, 83.43488
912.7558, 82.52305
913.2379, 80.94576
913.7200, 80.13089
914.2021, 80.42026
914.6843, 80.74196
915.1664, 80.80423
915.6485, 81.02651
916.1306, 81.82734
916.6127, 83.12507
917.0948, 83.32217
917.5770, 82.42297
918.0591, 81.52085
918.5412, 81.32730
919.0233, 81.47507
919.5054, 81.56848
919.9875, 81.65450
920.4697, 81.97355
920.9518, 83.06553
921.4339, 83.80265
921.9160, 83.87778
922.3981, 83.48689
922.8802, 82.98502
923.3624, 82.38905
923.8445, 82.23682
924.3266, 82.91347
924.8087, 83.52892
925.2908, 82.56167
925.7729, 81.08674
926.2551, 80.76424
926.7372, 83.32934
927.2193, 84.65395
927.7014, 83.56924
928.1835, 81.93309
928.6656, 81.57883
929.1478, 82.50688
929.6299, 82.58254
930.1120, 81.65604
930.5941, 80.73459
931.0762, 80.74553
931.5583, 81.18026
932.0405, 81.58362
932.5226, 81.90231
933.0047, 82.01151
933.4868, 81.63877
933.9689, 81.34290
934.4510, 81.32447
934.9332, 81.53877
935.4153, 81.90777
935.8974, 82.40694
936.3795, 82.45084
936.8616, 81.41798
937.3438, 80.21478
937.8259, 79.69632
938.3080, 79.69869
938.7901, 79.90654
939.2722, 80.50938
939.7543, 80.94669
940.2365, 81.16126
940.7186, 81.18887
941.2007, 81.08348
941.6828, 80.83974
942.1649, 80.22994
942.6470, 79.12693
943.1292, 78.40355
943.6113, 79.19416
944.0934, 80.54204
944.5755, 81.68759
945.0576, 82.62962
945.5397, 82.48219
946.0219, 80.30253
946.5040, 78.57919
946.9861, 78.98133
947.4682, 80.97751
947.9503, 81.14927
948.4324, 79.69785
948.9146, 78.31313
949.3967, 77.89725
949.8788, 77.99109
950.3609, 78.60924
950.8430, 79.47632
951.3251, 79.75972
951.8073, 79.14336
952.2894, 78.39259
952.7715, 77.45037
953.2536, 76.67747
953.7357, 76.93291
954.2179, 77.91932
954.7000, 78.39794
955.1821, 78.03001
955.6642, 77.51936
956.1464, 77.10253
956.6285, 76.93530
957.1106, 77.31185
957.5927, 78.52754
958.0748, 78.84769
958.5569, 77.97415
959.0391, 77.00119
959.5212, 76.50439
960.0033, 76.48521
960.4854, 77.32124
960.9675, 78.80247
961.4496, 79.73144
961.9318, 79.17493
962.4139, 78.22022
962.8960, 77.09995
963.3781, 76.03395
963.8602, 75.60880
964.3423, 76.00090
964.8245, 76.34043
965.3066, 76.51280
965.7887, 76.42440
966.2708, 75.70748
966.7529, 74.69093
967.2350, 73.94901
967.7172, 73.50718
968.1993, 73.70402
968.6814, 75.57285
969.1635, 77.36616
969.6456, 77.85050
970.1277, 76.91848
970.6099, 75.74687
971.0920, 74.26594
971.5741, 73.48648
972.0562, 74.85880
972.5383, 76.84832
973.0204, 77.36698
973.5026, 76.72021
973.9847, 76.32935
974.4668, 77.20764
974.9489, 77.65696
975.4310, 77.15834
975.9131, 76.16788
976.3953, 75.56360
976.8774, 75.32642
977.3595, 75.26208
977.8416, 75.36604
978.3237, 75.47391
978.8058, 75.37420
979.2880, 75.23201
979.7701, 75.24299
980.2522, 75.50901
980.7343, 75.68920
981.2164, 75.76030
981.6985, 75.77158
982.1807, 75.77019
982.6628, 75.73463
983.1449, 75.45470
983.6270, 74.99718
984.1091, 74.78291
984.5912, 75.43773
985.0734, 76.00890
985.5555, 75.85219
986.0376, 75.21447
986.5197, 74.80943
987.0018, 74.71526
987.4839, 74.56331
987.9661, 74.22942
988.4482, 74.01747
988.9303, 74.56149
989.4124, 75.46529
989.8945, 75.94438
990.3766, 75.81252
990.8588, 75.59157
991.3409, 75.82642
991.8230, 75.68892
992.3051, 74.38393
992.7872, 72.02490
993.2693, 71.42773
993.7515, 72.64942
994.2336, 73.97445
994.7157, 74.55628
995.1978, 74.66198
995.6799, 74.31688
996.1620, 73.76530
996.6442, 73.58121
997.1263, 74.40020
997.6084, 74.90352
998.0905, 74.81017
998.5726, 74.56088
999.0547, 74.87523
999.5369, 75.60229
1000.019, 75.70683
1000.501, 75.04250
1000.983, 74.27909
1001.465, 73.73138
1001.947, 73.40888
1002.430, 73.35416
1002.912, 73.57420
1003.394, 73.99963
1003.876, 74.86678
1004.358, 75.11451
1004.840, 73.98958
1005.322, 72.42759
1005.804, 72.47997
1006.287, 73.56127
1006.769, 74.20861
1007.251, 73.35972
1007.733, 72.80748
1008.215, 73.58395
1008.697, 74.55698
1009.179, 74.64590
1009.661, 73.75081
1010.143, 73.02050
1010.626, 72.46944
1011.108, 72.34267
1011.590, 73.19775
1012.072, 74.29823
1012.554, 74.97681
1013.036, 75.21150
1013.518, 75.16370
1014.000, 74.56492
1014.483, 74.20374
1014.965, 74.25538
1015.447, 74.66026
1015.929, 75.77985
1016.411, 77.20374
1016.893, 77.08268
1017.375, 74.27516
1017.857, 72.29748
1018.339, 74.63098
1018.822, 77.80754
1019.304, 78.61503
1019.786, 76.61820
1020.268, 75.49525
1020.750, 75.32838
1021.232, 75.50639
1021.714, 75.91561
1022.196, 76.27077
1022.679, 75.81351
1023.161, 74.91298
1023.643, 74.63760
1024.125, 76.31511
1024.607, 77.34696
1025.089, 77.20215
1025.571, 76.39124
1026.053, 75.34933
1026.535, 74.19655
1027.018, 73.89280
1027.500, 74.59325
1027.982, 75.39269
1028.464, 75.62045
1028.946, 75.65063
1029.428, 75.82282
1029.910, 76.14333
1030.392, 76.03125
1030.875, 75.27818
1031.357, 74.87913
1031.839, 75.33288
1032.321, 76.10787
1032.803, 76.28059
1033.285, 76.04028
1033.767, 75.75052
1034.249, 75.33579
1034.731, 75.27488
1035.214, 76.16599
1035.696, 76.97990
1036.178, 76.85159
1036.660, 75.79501
1037.142, 74.94399
1037.624, 74.32481
1038.106, 74.11537
1038.588, 74.62682
1039.071, 75.42800
1039.553, 76.55522
1040.035, 77.71019
1040.517, 77.91521
1040.999, 76.68217
1041.481, 75.74899
1041.963, 75.31590
1042.445, 75.37447
1042.927, 76.43266
1043.410, 77.81155
1043.892, 77.85413
1044.374, 76.13799
1044.856, 75.34399
1045.338, 77.89348
1045.820, 80.05665
1046.302, 80.04875
1046.784, 78.31729
1047.266, 77.03913
1047.749, 76.19678
1048.231, 75.70808
1048.713, 75.55627
1049.195, 75.72260
1049.677, 76.52770
1050.159, 77.49911
1050.641, 77.93835
1051.123, 77.48235
1051.606, 77.42618
1052.088, 77.84866
1052.570, 78.38871
1053.052, 79.01269
1053.534, 79.45801
1054.016, 78.99956
1054.498, 77.84082
1054.980, 76.96973
1055.463, 76.68684
1055.945, 76.93335
1056.427, 78.07669
1056.909, 79.31445
1057.391, 79.09864
1057.873, 77.63034
1058.355, 76.54830
1058.837, 76.11357
1059.319, 75.92004
1059.802, 75.61260
1060.284, 75.46623
1060.766, 75.75755
1061.248, 76.46655
1061.730, 77.22626
1062.212, 78.10002
1062.694, 78.68413
1063.176, 78.75762
1063.658, 78.58552
1064.141, 78.61427
1064.623, 78.65062
1065.105, 78.30075
1065.587, 76.99471
1066.069, 76.40575
1066.551, 76.96895
1067.033, 77.79484
1067.515, 78.32314
1067.998, 78.57903
1068.480, 78.53017
1068.962, 78.25887
1069.444, 78.23403
1069.926, 79.21772
1070.408, 79.94950
1070.890, 79.53801
1071.372, 78.62920
1071.854, 78.20429
1072.337, 78.32558
1072.819, 78.37050
1073.301, 78.28034
1073.783, 78.10630
1074.265, 77.77600
1074.747, 77.47473
1075.229, 77.33163
1075.711, 77.37440
1076.193, 77.83092
1076.676, 79.12199
1077.158, 79.72165
1077.640, 79.01450
1078.122, 77.79937
1078.604, 77.28068
1079.086, 77.35226
1079.568, 77.96072
1080.051, 79.36461
1080.533, 80.14971
1081.015, 79.12659
1081.497, 78.07487
1081.979, 77.92383
1082.461, 78.51271
1082.943, 78.79631
1083.425, 78.81596
1083.907, 78.85397
1084.390, 78.98429
1084.872, 79.25623
1085.354, 79.89188
1085.836, 80.58447
1086.318, 80.96436
1086.800, 81.00023
1087.282, 80.73218
1087.764, 80.10352
1088.246, 79.62475
1088.729, 79.77588
1089.211, 80.24175
1089.693, 80.83684
1090.175, 81.44836
1090.657, 81.66444
1091.139, 80.95218
1091.621, 80.81237
1092.103, 81.72420
1092.586, 82.67355
1093.068, 81.94170
1093.550, 80.28098
1094.032, 79.43501
1094.514, 79.61264
1094.996, 80.04062
1095.478, 80.56742
1095.960, 81.08891
1096.443, 81.68751
1096.925, 82.18779
1097.407, 81.88100
1097.889, 80.90762
1098.371, 80.31645
1098.853, 80.43285
1099.335, 80.80797
1099.817, 81.46203
1100.299, 81.97784
1100.781, 81.81738
1101.264, 80.94650
1101.746, 80.99871
1102.228, 82.05991
1102.710, 82.86380
1103.192, 82.47771
1103.674, 81.91599
1104.156, 82.52963
1104.638, 83.70273
1105.121, 84.43491
1105.603, 84.46016
1106.085, 84.11209
1106.567, 83.22214
1107.049, 82.43920
1107.531, 82.31075
1108.013, 82.63609
1108.495, 83.11568
1108.978, 83.69626
1109.460, 84.20980
1109.942, 84.63132
1110.424, 84.93302
1110.906, 85.15290
1111.388, 85.21076
1111.870, 84.81437
1112.352, 84.14587
1112.834, 84.16126
1113.317, 84.91096
1113.799, 85.37441
1114.281, 84.36111
1114.763, 83.56998
1115.245, 84.15268
1115.727, 85.43307
1116.209, 85.55328
1116.691, 84.56055
1117.173, 84.00521
1117.656, 84.27499
1118.138, 84.71446
1118.620, 84.74885
1119.102, 84.71871
1119.584, 85.00092
1120.066, 85.07570
1120.548, 85.14600
1121.030, 85.51888
1121.513, 85.40111
1121.995, 85.76621
1122.477, 86.16137
1122.959, 85.69648
1123.441, 85.05306
1123.923, 85.29207
1124.405, 87.14350
1124.887, 88.25079
1125.370, 88.42039
1125.852, 88.29676
1126.334, 88.18058
1126.816, 88.07886
1127.298, 88.12518
1127.780, 88.18791
1128.262, 87.94831
1128.744, 86.61720
1129.226, 85.99498
1129.709, 86.29868
1130.191, 87.20952
1130.673, 88.84348
1131.155, 90.84354
1131.637, 91.65100
1132.119, 91.43852
1132.601, 91.38242
1133.083, 92.97381
1133.566, 93.64893
1134.048, 91.75110
1134.530, 89.22590
1135.012, 88.88223
1135.494, 90.49214
1135.976, 91.53114
1136.458, 91.79073
1136.940, 91.96913
1137.422, 92.69290
1137.905, 93.34128
1138.387, 93.54273
1138.869, 93.38560
1139.351, 92.89799
1139.833, 92.03716
1140.315, 91.96120
1140.797, 92.98965
1141.279, 94.01768
1141.761, 93.78509
1142.244, 93.33137
1142.726, 93.81322
1143.208, 93.45492
1143.690, 95.24999
1144.172, 93.78181
1144.654, 93.12035
1145.136, 94.24989
1145.618, 95.68989
1146.101, 95.33837
1146.583, 94.37979
1147.065, 94.37537
1147.547, 95.85620
1148.029, 96.68265
1148.511, 96.72225
1148.993, 96.39261
1149.475, 95.65800
1149.958, 94.96605
1150.440, 95.19115
1150.922, 95.96001
1151.404, 96.58637
1151.886, 96.78411
1152.368, 97.18221
1152.850, 98.07417
1153.332, 98.61265
1153.814, 97.96632
1154.297, 96.75463
1154.779, 96.72994
1155.261, 97.46805
1155.743, 97.78198
1156.225, 96.51559
1156.707, 95.87841
1157.189, 96.28184
1157.671, 97.09438
1158.153, 97.93538
1158.636, 98.73267
1159.118, 99.09461
1159.600, 99.09876
1160.082, 99.17243
1160.564, 99.73079
1161.046, 100.1076
1161.528, 100.1041
1162.010, 99.86898
1162.493, 99.39738
1162.975, 98.79293
1163.457, 98.88216
1163.939, 99.64538
1164.421, 100.3060
1164.903, 100.5203
1165.385, 100.3800
1165.867, 99.51106
1166.349, 98.58693
1166.832, 98.98771
1167.314, 100.5687
1167.796, 101.2290
1168.278, 100.7293
1168.760, 100.3006
1169.242, 100.9816
1169.724, 101.8258
1170.206, 102.3348
1170.688, 102.5492
1171.171, 102.4906
1171.653, 102.1652
1172.135, 101.9224
1172.617, 101.7919
1173.099, 102.0531
1173.581, 103.5626
1174.063, 105.0219
1174.545, 105.2990
1175.028, 104.6165
1175.510, 103.7935
1175.992, 102.7898
1176.474, 102.5523
1176.956, 103.4705
1177.438, 104.5842
1177.920, 105.3763
1178.402, 105.6630
1178.885, 104.8904
1179.367, 103.1549
1179.849, 102.7971
1180.331, 103.9732
1180.813, 104.7646
1181.295, 104.3269
1181.777, 103.7329
1182.259, 104.1056
1182.741, 104.9374
1183.224, 105.7749
1183.706, 106.6087
1184.188, 106.8649
1184.670, 106.4510
1185.152, 106.1781
1185.634, 106.6192
1186.116, 106.9963
1186.598, 105.8890
1187.081, 104.4123
1187.563, 104.2644
1188.045, 106.1093
1188.527, 107.0708
1189.009, 107.0225
1189.491, 106.7867
1189.973, 106.7670
1190.455, 106.8443
1190.938, 106.7480
1191.420, 106.6910
1191.902, 107.1001
1192.384, 108.4372
1192.866, 108.8996
1193.348, 108.2570
1193.830, 107.8722
1194.312, 109.2162
1194.794, 110.8422
1195.276, 110.5355
1195.759, 109.1605
1196.241, 108.5232
1196.723, 109.3691
1197.205, 109.7912
1197.687, 109.6618
1198.169, 109.5795
1198.651, 110.2981
1199.133, 111.1238
1199.616, 111.0155
1200.098, 110.2704
1200.580, 109.6073
1201.062, 108.8269
1201.544, 109.0186
1202.026, 110.4490
1202.508, 111.9363
1202.990, 112.4302
1203.473, 112.3778
1203.955, 112.2248
1204.437, 112.0345
1204.919, 111.9443
1205.401, 111.9349
1205.883, 112.1907
1206.365, 112.8467
1206.847, 113.2836
1207.329, 112.5457
1207.812, 111.4966
1208.294, 111.2577
1208.776, 111.7174
1209.258, 112.2048
1209.740, 112.5325
1210.222, 113.2507
1210.704, 114.5934
1211.186, 115.6670
1211.668, 115.4005
1212.151, 114.4685
1212.633, 113.5077
1213.115, 112.6205
1213.597, 112.1244
1214.079, 111.9431
1214.561, 112.4249
1215.043, 113.7299
1215.525, 115.2120
1216.008, 116.7346
1216.490, 117.6747
1216.972, 116.7676
1217.454, 114.3255
1217.936, 113.0695
1218.418, 113.5070
1218.900, 113.8359
1219.382, 113.7340
1219.865, 113.5703
1220.347, 113.5769
1220.829, 113.8727
1221.311, 114.8156
1221.793, 116.2847
1222.275, 117.2041
1222.757, 117.4450
1223.239, 117.5023
1223.721, 117.4488
1224.203, 117.3435
1224.686, 117.4522
1225.168, 117.3964
1225.650, 116.4995
1226.132, 114.8832
1226.614, 114.2631
1227.096, 114.8587
1227.578, 115.3118
1228.061, 115.3164
1228.543, 115.1850
1229.025, 115.1821
1229.507, 115.2529
1229.989, 115.2712
1230.471, 115.2858
1230.953, 115.7653
1231.435, 116.7940
1231.917, 117.5453
1232.400, 117.8122
1232.882, 117.8491
1233.364, 117.9306
1233.846, 117.8750
1234.328, 117.3845
1234.810, 117.1936
1235.292, 116.8088
1235.774, 116.1895
1236.256, 115.9124
1236.739, 115.0476
1237.221, 114.3776
1237.703, 114.5304
1238.185, 115.1897
1238.667, 116.4857
1239.149, 118.0846
1239.631, 118.2994
1240.113, 117.1918
1240.596, 116.6067
1241.078, 117.1122
1241.560, 117.5285
1242.042, 116.6738
1242.524, 115.7117
1243.006, 115.4996
1243.488, 115.8134
1243.970, 115.7769
1244.453, 115.4349
1244.935, 115.1434
1245.417, 114.9713
1245.899, 114.9373
1246.381, 115.0586
1246.863, 115.3528
1247.345, 116.0156
1247.827, 116.7366
1248.309, 116.0089
1248.792, 114.3292
1249.274, 114.0822
1249.756, 116.1001
1250.238, 117.8089
1250.720, 117.4903
1251.202, 117.1596
1251.684, 117.7805
1252.166, 118.8432
1252.648, 118.9262
1253.131, 118.3521
1253.613, 118.1131
1254.095, 118.4783
1254.577, 118.7700
1255.059, 119.0393
1255.541, 118.7455
1256.023, 117.4743
1256.505, 115.8171
1256.988, 114.8651
1257.470, 114.5061
1257.952, 114.6311
1258.434, 115.3029
1258.916, 115.7058
1259.398, 115.6072
1259.880, 115.5091
1260.362, 115.5813
1260.844, 115.7351
1261.327, 115.7374
1261.809, 115.7644
1262.291, 116.1419
1262.773, 116.9595
1263.255, 117.6874
1263.737, 118.4203
1264.219, 118.5513
1264.701, 117.6807
1265.183, 116.6974
1265.666, 116.8377
1266.148, 117.4312
1266.630, 117.8322
1267.112, 117.9385
1267.594, 117.1866
1268.076, 115.3651
1268.558, 114.3702
1269.040, 114.9050
1269.523, 115.8461
1270.005, 116.3455
1270.487, 116.5525
1270.969, 116.5383
1271.451, 116.3485
1271.933, 116.1572
1272.415, 115.9620
1272.897, 115.3569
1273.380, 114.1049
1273.862, 113.2753
1274.344, 114.3980
1274.826, 115.4378
1275.308, 114.7555
1275.790, 115.4288
1276.272, 115.7432
1276.754, 115.1444
1277.236, 116.0343
1277.719, 115.5241
1278.201, 114.6422
1278.683, 113.4097
1279.165, 112.5644
1279.647, 112.4333
1280.129, 112.7907
1280.611, 113.3949
1281.093, 114.0452
1281.576, 114.0904
1282.058, 113.3986
1282.540, 112.9026
1283.022, 112.9134
1283.504, 113.1240
1283.986, 113.5313
1284.468, 113.9535
1284.950, 114.2258
1285.432, 114.2630
1285.915, 113.8352
1286.397, 112.9326
1286.879, 112.0659
1287.361, 111.1834
1287.843, 110.7051
1288.325, 110.7665
1288.807, 111.1104
1289.289, 111.5473
1289.771, 112.0303
1290.254, 112.6342
1290.736, 113.2577
1291.218, 113.3836
1291.700, 112.9711
1292.182, 112.3516
1292.664, 111.5393
1293.146, 110.9478
1293.628, 111.0822
1294.111, 111.4117
1294.593, 111.6129
1295.075, 111.7136
1295.557, 111.8452
1296.039, 111.9757
1296.521, 111.6454
1297.003, 110.8148
1297.485, 110.1321
1297.968, 110.1168
1298.450, 110.1381
1298.932, 109.9167
1299.414, 109.6743
1299.896, 109.7353
1300.378, 110.0578
1300.860, 110.7505
1301.342, 111.6891
1301.824, 111.9365
##END=



