##NAMES=Pirquitasite
##RRUFFID=R061016
##IDEAL CHEMISTRY=Ag^1+^_2_Zn^2+^Sn^4+^S^2-^_4_
##LOCALITY=Pirquitas, Jujuy Province, Argentina
##OWNER=RRUFF
##SOURCE=Michael Scott (small piece), Bob Jenkins (large piece)
##DESCRIPTION=Steel gray metallic massive, associated with rhodostannite, R120139. This sample was used in the Schumer et al (2013) study.
##STATUS=The identification of this mineral is confirmed by single-crystal X-ray diffraction and chemical analysis.
##URL=rruff.info/R061016
##MEASURED CHEMISTRY=(Ag_1.90_Cu_0.10_)(Zn_0.61_Fe_0.33_Cu_0.03_Cd_0.03_)(Sn_0.97_Fe_0.03_)S_3.87_; normalized to four cations
124.9029, 1440.871
125.3851, 1630.832
125.8672, 1839.300
126.3493, 2055.224
126.8314, 2290.393
127.3135, 2525.353
127.7956, 2740.497
128.2778, 2921.474
128.7599, 3085.183
129.2420, 3274.436
129.7241, 3526.236
130.2062, 3710.824
130.6884, 3784.625
131.1705, 3767.917
131.6526, 3676.613
132.1347, 3508.069
132.6168, 3275.516
133.0989, 3016.523
133.5811, 2689.129
134.0632, 2399.476
134.5453, 2181.865
135.0274, 2021.166
135.5095, 1891.185
135.9916, 1777.234
136.4738, 1680.169
136.9559, 1610.357
137.4380, 1574.474
137.9201, 1563.567
138.4022, 1580.245
138.8843, 1618.670
139.3665, 1668.058
139.8486, 1718.259
140.3307, 1769.342
140.8128, 1844.085
141.2949, 1961.807
141.7770, 2088.408
142.2592, 2220.799
142.7413, 2354.512
143.2234, 2482.969
143.7055, 2597.194
144.1876, 2693.435
144.6697, 2806.191
145.1519, 2944.179
145.6340, 3089.517
146.1161, 3252.342
146.5982, 3421.334
147.0803, 3568.768
147.5624, 3672.299
148.0446, 3738.539
148.5267, 3720.903
149.0088, 3577.839
149.4909, 3403.873
149.9730, 3231.720
150.4551, 3070.783
150.9372, 2923.288
151.4194, 2789.677
151.9015, 2668.312
152.3836, 2573.129
152.8657, 2510.082
153.3478, 2463.403
153.8299, 2425.969
154.3121, 2395.705
154.7942, 2371.902
155.2763, 2354.144
155.7584, 2343.892
156.2405, 2336.969
156.7226, 2330.578
157.2048, 2328.836
157.6869, 2334.470
158.1690, 2348.050
158.6511, 2369.246
159.1332, 2398.255
159.6153, 2441.406
160.0975, 2477.680
160.5796, 2500.623
161.0617, 2520.505
161.5438, 2550.551
162.0259, 2592.940
162.5080, 2633.216
162.9902, 2650.345
163.4723, 2634.882
163.9544, 2614.203
164.4365, 2583.378
164.9186, 2550.365
165.4007, 2522.750
165.8829, 2502.416
166.3650, 2488.133
166.8471, 2478.752
167.3292, 2475.455
167.8113, 2474.155
168.2934, 2477.466
168.7756, 2481.534
169.2577, 2482.875
169.7398, 2480.757
170.2219, 2473.613
170.7040, 2456.380
171.1861, 2423.099
171.6683, 2399.800
172.1504, 2397.317
172.6325, 2404.914
173.1146, 2409.166
173.5967, 2406.448
174.0788, 2399.097
174.5610, 2389.653
175.0431, 2377.315
175.5252, 2366.227
176.0073, 2357.654
176.4894, 2350.677
176.9715, 2344.573
177.4537, 2339.565
177.9358, 2333.585
178.4179, 2321.256
178.9000, 2300.079
179.3821, 2285.350
179.8642, 2287.201
180.3464, 2296.555
180.8285, 2296.557
181.3106, 2280.596
181.7927, 2261.003
182.2748, 2260.668
182.7569, 2282.457
183.2391, 2296.583
183.7212, 2286.497
184.2033, 2264.624
184.6854, 2252.684
185.1675, 2257.218
185.6496, 2270.103
186.1318, 2282.242
186.6139, 2294.981
187.0960, 2300.239
187.5781, 2286.671
188.0602, 2265.496
188.5423, 2259.785
189.0245, 2279.391
189.5066, 2304.398
189.9887, 2302.105
190.4708, 2271.580
190.9529, 2249.336
191.4350, 2250.087
191.9172, 2266.295
192.3993, 2286.532
192.8814, 2310.126
193.3635, 2331.987
193.8456, 2342.515
194.3277, 2341.714
194.8099, 2345.457
195.2920, 2362.039
195.7741, 2385.816
196.2562, 2407.410
196.7383, 2425.365
197.2204, 2439.875
197.7026, 2449.966
198.1847, 2455.982
198.6668, 2461.599
199.1489, 2468.355
199.6310, 2475.312
200.1131, 2478.928
200.5953, 2476.502
201.0774, 2477.512
201.5595, 2498.896
202.0416, 2538.232
202.5237, 2569.947
203.0058, 2582.040
203.4880, 2583.504
203.9701, 2588.330
204.4522, 2599.059
204.9343, 2611.386
205.4164, 2621.463
205.8985, 2629.515
206.3807, 2634.988
206.8628, 2632.079
207.3449, 2628.509
207.8270, 2638.140
208.3091, 2664.958
208.7912, 2692.382
209.2734, 2700.565
209.7555, 2692.963
210.2376, 2692.413
210.7197, 2710.436
211.2018, 2735.008
211.6839, 2748.934
212.1661, 2749.331
212.6482, 2751.435
213.1303, 2774.848
213.6124, 2814.623
214.0945, 2838.276
214.5766, 2828.325
215.0588, 2806.759
215.5409, 2794.790
216.0230, 2793.919
216.5051, 2801.986
216.9872, 2824.554
217.4693, 2856.777
217.9515, 2872.244
218.4336, 2852.477
218.9157, 2825.253
219.3978, 2815.998
219.8799, 2825.327
220.3620, 2838.588
220.8442, 2847.208
221.3263, 2851.248
221.8084, 2853.494
222.2905, 2854.642
222.7726, 2853.503
223.2547, 2850.768
223.7369, 2845.900
224.2190, 2833.614
224.7011, 2806.732
225.1832, 2770.078
225.6653, 2745.128
226.1474, 2738.259
226.6296, 2736.907
227.1117, 2735.127
227.5938, 2733.048
228.0759, 2731.581
228.5580, 2731.832
229.0401, 2732.635
229.5223, 2730.160
230.0044, 2722.681
230.4865, 2714.396
230.9686, 2704.879
231.4507, 2695.716
231.9328, 2691.975
232.4150, 2697.238
232.8971, 2707.910
233.3792, 2713.914
233.8613, 2713.636
234.3434, 2712.487
234.8255, 2709.686
235.3077, 2707.412
235.7898, 2711.469
236.2719, 2725.457
236.7540, 2742.676
237.2361, 2747.390
237.7182, 2731.313
238.2004, 2721.989
238.6825, 2735.177
239.1646, 2755.088
239.6467, 2755.339
240.1288, 2726.649
240.6109, 2691.029
241.0931, 2686.189
241.5752, 2730.415
242.0573, 2760.742
242.5394, 2763.715
243.0215, 2755.244
243.5036, 2748.758
243.9858, 2747.634
244.4679, 2752.791
244.9500, 2766.058
245.4321, 2791.307
245.9142, 2814.410
246.3963, 2829.196
246.8785, 2846.030
247.3606, 2876.018
247.8427, 2918.328
248.3248, 2959.996
248.8069, 2985.869
249.2890, 2990.208
249.7712, 3012.903
250.2533, 3063.292
250.7354, 3120.785
251.2175, 3177.310
251.6996, 3231.134
252.1817, 3280.646
252.6639, 3322.301
253.1460, 3355.377
253.6281, 3408.772
254.1102, 3493.641
254.5923, 3583.978
255.0744, 3675.784
255.5566, 3766.854
256.0387, 3853.316
256.5208, 3931.611
257.0029, 4003.954
257.4850, 4084.501
257.9671, 4175.452
258.4492, 4273.119
258.9314, 4383.438
259.4135, 4498.191
259.8956, 4606.867
260.3777, 4704.264
260.8598, 4793.886
261.3419, 4888.289
261.8241, 4990.882
262.3062, 5092.601
262.7883, 5193.965
263.2704, 5292.756
263.7525, 5388.756
264.2346, 5481.123
264.7168, 5568.745
265.1989, 5651.626
265.6810, 5737.847
266.1631, 5799.625
266.6452, 5825.356
267.1273, 5836.939
267.6095, 5847.307
268.0916, 5859.015
268.5737, 5867.893
269.0558, 5872.567
269.5379, 5876.522
270.0201, 5858.368
270.5022, 5798.951
270.9843, 5730.583
271.4664, 5661.410
271.9485, 5594.115
272.4306, 5532.198
272.9128, 5484.228
273.3949, 5448.488
273.8770, 5395.419
274.3591, 5312.896
274.8412, 5227.280
275.3233, 5144.579
275.8055, 5068.034
276.2876, 5003.888
276.7697, 4957.801
277.2518, 4925.503
277.7339, 4895.398
278.2160, 4868.657
278.6982, 4841.503
279.1803, 4812.006
279.6624, 4781.118
280.1445, 4749.831
280.6266, 4718.820
281.1087, 4687.220
281.5909, 4649.749
282.0730, 4604.434
282.5551, 4572.574
283.0372, 4569.751
283.5193, 4581.789
284.0014, 4592.749
284.4836, 4603.325
284.9657, 4606.252
285.4478, 4589.273
285.9299, 4556.789
286.4120, 4534.422
286.8941, 4530.146
287.3763, 4538.792
287.8584, 4555.479
288.3405, 4581.596
288.8226, 4603.611
289.3047, 4610.958
289.7868, 4611.539
290.2690, 4619.800
290.7511, 4638.832
291.2332, 4664.200
291.7153, 4694.939
292.1974, 4731.488
292.6795, 4756.063
293.1617, 4759.892
293.6438, 4754.741
294.1259, 4749.686
294.6080, 4745.787
295.0901, 4742.245
295.5722, 4736.834
296.0544, 4730.293
296.5365, 4735.622
297.0186, 4761.065
297.5007, 4789.000
297.9828, 4811.874
298.4649, 4830.521
298.9471, 4849.141
299.4292, 4870.914
299.9113, 4893.328
300.3934, 4905.664
300.8755, 4892.702
301.3576, 4888.603
301.8398, 4901.717
302.3219, 4924.935
302.8040, 4949.551
303.2861, 4972.456
303.7682, 4996.455
304.2503, 5026.612
304.7325, 5062.313
305.2146, 5106.409
305.6967, 5156.893
306.1788, 5215.825
306.6609, 5280.779
307.1430, 5353.865
307.6252, 5445.077
308.1073, 5566.842
308.5894, 5723.572
309.0715, 5883.909
309.5536, 6029.825
310.0357, 6198.883
310.5179, 6406.261
311.0000, 6648.515
311.4821, 6913.013
311.9642, 7186.789
312.4463, 7479.487
312.9284, 7834.577
313.4106, 8265.472
313.8927, 8739.774
314.3748, 9230.156
314.8569, 9759.052
315.3390, 10351.74
315.8211, 11018.87
316.3033, 11753.08
316.7854, 12558.50
317.2675, 13439.61
317.7496, 14347.24
318.2317, 15238.12
318.7138, 16172.82
319.1960, 17203.65
319.6781, 18341.02
320.1602, 19531.16
320.6423, 20757.86
321.1244, 22013.12
321.6065, 23260.86
322.0887, 24506.39
322.5708, 25713.81
323.0529, 26854.46
323.5350, 27934.57
324.0171, 28928.34
324.4992, 29850.47
324.9814, 30670.82
325.4635, 31362.19
325.9456, 31927.15
326.4277, 32340.90
326.9098, 32589.76
327.3919, 32657.15
327.8741, 32559.92
328.3562, 32283.31
328.8383, 31866.32
329.3204, 31301.73
329.8025, 30610.99
330.2846, 29833.47
330.7668, 28988.33
331.2489, 28083.71
331.7310, 27151.64
332.2131, 26191.68
332.6952, 25208.61
333.1773, 24170.52
333.6595, 23127.76
334.1416, 22141.70
334.6237, 21221.38
335.1058, 20347.70
335.5879, 19497.04
336.0700, 18667.64
336.5522, 17860.66
337.0343, 17072.72
337.5164, 16308.41
337.9985, 15559.51
338.4806, 14836.31
338.9627, 14157.35
339.4449, 13541.93
339.9270, 12984.77
340.4091, 12452.07
340.8912, 11952.77
341.3733, 11466.57
341.8554, 10974.97
342.3376, 10496.62
342.8197, 10054.71
343.3018, 9661.353
343.7839, 9298.022
344.2660, 8940.675
344.7481, 8588.604
345.2303, 8246.813
345.7124, 7919.792
346.1945, 7604.495
346.6766, 7294.531
347.1587, 6991.040
347.6408, 6697.758
348.1230, 6415.219
348.6051, 6143.935
349.0872, 5882.076
349.5693, 5625.541
350.0514, 5386.925
350.5335, 5183.771
351.0157, 5008.853
351.4978, 4839.029
351.9799, 4661.984
352.4620, 4493.973
352.9441, 4348.451
353.4262, 4224.246
353.9084, 4115.625
354.3905, 4021.544
354.8726, 3938.362
355.3547, 3855.372
355.8368, 3759.973
356.3189, 3682.082
356.8011, 3634.747
357.2832, 3605.724
357.7653, 3582.391
358.2474, 3560.794
358.7295, 3538.254
359.2116, 3510.202
359.6938, 3472.576
360.1759, 3442.970
360.6580, 3429.219
361.1401, 3415.321
361.6222, 3394.596
362.1043, 3366.500
362.5865, 3332.608
363.0686, 3293.714
363.5507, 3249.871
364.0328, 3200.932
364.5149, 3137.893
364.9970, 3083.392
365.4792, 3046.818
365.9613, 3018.231
366.4434, 2988.167
366.9255, 2953.516
367.4076, 2913.743
367.8897, 2866.506
368.3719, 2811.160
368.8540, 2755.385
369.3361, 2696.376
369.8182, 2642.076
370.3003, 2600.253
370.7824, 2569.698
371.2646, 2540.254
371.7467, 2505.187
372.2288, 2468.173
372.7109, 2438.151
373.1930, 2416.958
373.6751, 2392.937
374.1573, 2355.830
374.6394, 2309.495
375.1215, 2269.538
375.6036, 2239.541
376.0857, 2212.905
376.5678, 2184.899
377.0500, 2157.654
377.5321, 2137.844
378.0142, 2128.741
378.4963, 2124.261
378.9784, 2113.445
379.4605, 2094.096
379.9427, 2071.788
380.4248, 2040.709
380.9069, 2010.958
381.3890, 1990.409
381.8711, 1979.136
382.3532, 1971.413
382.8354, 1961.931
383.3175, 1950.846
383.7996, 1946.015
384.2817, 1960.417
384.7638, 1966.299
385.2459, 1949.938
385.7281, 1924.502
386.2102, 1907.519
386.6923, 1906.224
387.1744, 1912.814
387.6565, 1914.828
388.1386, 1911.395
388.6208, 1908.221
389.1029, 1907.301
389.5850, 1906.037
390.0671, 1903.339
390.5492, 1898.963
391.0313, 1891.816
391.5135, 1877.750
391.9956, 1861.180
392.4777, 1852.948
392.9598, 1854.917
393.4419, 1857.151
393.9240, 1852.336
394.4062, 1842.817
394.8883, 1836.753
395.3704, 1834.509
395.8525, 1835.757
396.3346, 1845.075
396.8167, 1857.407
397.2989, 1860.989
397.7810, 1851.398
398.2631, 1834.730
398.7452, 1819.969
399.2273, 1806.437
399.7094, 1797.344
400.1916, 1795.570
400.6737, 1795.738
401.1558, 1795.681
401.6379, 1794.588
402.1200, 1791.445
402.6021, 1785.299
403.0843, 1776.575
403.5664, 1767.933
404.0485, 1757.035
404.5306, 1750.019
405.0127, 1749.969
405.4948, 1752.915
405.9770, 1755.150
406.4591, 1755.649
406.9412, 1755.436
407.4233, 1755.518
407.9054, 1755.901
408.3875, 1756.848
408.8697, 1760.465
409.3518, 1761.523
409.8339, 1754.059
410.3160, 1740.555
410.7981, 1729.733
411.2802, 1726.198
411.7624, 1725.591
412.2445, 1724.349
412.7266, 1722.229
413.2087, 1716.187
413.6908, 1701.776
414.1729, 1685.510
414.6551, 1686.462
415.1372, 1715.619
415.6193, 1735.674
416.1014, 1733.739
416.5835, 1722.480
417.0656, 1714.806
417.5478, 1712.582
418.0299, 1709.914
418.5120, 1700.557
418.9941, 1684.038
419.4762, 1671.301
419.9583, 1661.409
420.4405, 1656.607
420.9226, 1661.639
421.4047, 1670.795
421.8868, 1676.084
422.3689, 1674.172
422.8510, 1669.133
423.3332, 1668.350
423.8153, 1673.085
424.2974, 1672.813
424.7795, 1660.202
425.2616, 1647.954
425.7437, 1647.183
426.2259, 1655.635
426.7080, 1660.618
427.1901, 1652.814
427.6722, 1639.523
428.1543, 1632.827
428.6364, 1632.939
429.1186, 1629.237
429.6007, 1613.448
430.0828, 1591.642
430.5649, 1581.071
431.0470, 1586.788
431.5291, 1592.704
432.0113, 1596.699
432.4934, 1597.628
432.9755, 1591.418
433.4576, 1578.458
433.9397, 1567.601
434.4218, 1568.691
434.9040, 1583.055
435.3861, 1592.452
435.8682, 1595.820
436.3503, 1595.408
436.8324, 1589.690
437.3145, 1581.122
437.7967, 1571.387
438.2788, 1560.835
438.7609, 1554.198
439.2430, 1562.679
439.7251, 1589.519
440.2072, 1604.397
440.6894, 1594.871
441.1715, 1580.644
441.6536, 1575.053
442.1357, 1577.076
442.6178, 1581.050
443.0999, 1589.381
443.5821, 1595.609
444.0642, 1588.358
444.5463, 1568.682
445.0284, 1552.762
445.5105, 1549.815
445.9926, 1554.005
446.4748, 1549.573
446.9569, 1528.359
447.4390, 1517.514
447.9211, 1532.491
448.4032, 1552.868
448.8853, 1558.599
449.3675, 1548.662
449.8496, 1534.951
450.3317, 1527.472
450.8138, 1525.924
451.2959, 1525.528
451.7780, 1527.199
452.2602, 1528.916
452.7423, 1530.692
453.2244, 1532.112
453.7065, 1533.176
454.1886, 1533.843
454.6707, 1532.762
455.1529, 1528.145
455.6350, 1520.194
456.1171, 1509.814
456.5992, 1492.938
457.0813, 1481.665
457.5634, 1493.250
458.0455, 1518.066
458.5276, 1530.598
459.0098, 1515.878
459.4919, 1497.211
459.9740, 1490.847
460.4561, 1493.420
460.9382, 1495.672
461.4203, 1494.248
461.9025, 1492.382
462.3846, 1495.713
462.8667, 1508.666
463.3488, 1513.255
463.8309, 1498.563
464.3130, 1486.430
464.7952, 1494.646
465.2773, 1514.596
465.7594, 1523.858
466.2415, 1508.270
466.7236, 1479.482
467.2057, 1467.021
467.6879, 1475.701
468.1700, 1485.099
468.6521, 1494.202
469.1342, 1500.441
469.6163, 1502.086
470.0984, 1499.129
470.5806, 1492.541
471.0627, 1477.137
471.5448, 1460.821
472.0269, 1460.239
472.5090, 1475.563
472.9911, 1485.806
473.4733, 1478.231
473.9554, 1459.579
474.4375, 1449.293
474.9196, 1452.397
475.4017, 1452.187
475.8839, 1440.115
476.3660, 1426.979
476.8481, 1424.356
477.3302, 1432.250
477.8123, 1442.225
478.2944, 1447.775
478.7766, 1448.906
479.2587, 1444.500
479.7408, 1424.890
480.2229, 1415.226
480.7050, 1431.335
481.1871, 1452.436
481.6693, 1455.826
482.1514, 1437.492
482.6335, 1418.365
483.1156, 1419.445
483.5977, 1434.628
484.0798, 1441.656
484.5620, 1437.572
485.0441, 1430.655
485.5262, 1424.398
486.0083, 1419.807
486.4904, 1420.010
486.9725, 1431.240
487.4547, 1438.811
487.9368, 1433.564
488.4189, 1422.699
488.9010, 1415.230
489.3831, 1413.513
489.8652, 1417.327
490.3474, 1427.912
490.8295, 1446.099
491.3116, 1455.318
491.7937, 1445.740
492.2758, 1437.894
492.7579, 1439.120
493.2401, 1443.412
493.7222, 1441.603
494.2043, 1430.666
494.6864, 1420.744
495.1685, 1427.813
495.6506, 1448.383
496.1328, 1453.420
496.6149, 1434.395
497.0970, 1413.031
497.5791, 1405.752
498.0612, 1409.414
498.5433, 1413.377
499.0255, 1417.794
499.5076, 1421.065
499.9897, 1422.386
500.4718, 1422.047
500.9539, 1419.738
501.4360, 1415.538
501.9182, 1412.005
502.4003, 1412.775
502.8824, 1418.925
503.3645, 1421.142
503.8466, 1412.988
504.3287, 1407.917
504.8109, 1412.598
505.2930, 1421.338
505.7751, 1426.446
506.2572, 1425.250
506.7393, 1420.571
507.2214, 1412.994
507.7036, 1403.495
508.1857, 1402.791
508.6678, 1416.094
509.1499, 1428.553
509.6320, 1426.527
510.1141, 1413.609
510.5963, 1404.175
511.0784, 1398.559
511.5605, 1397.673
512.0426, 1407.540
512.5247, 1420.773
513.0068, 1422.421
513.4890, 1409.285
513.9711, 1395.980
514.4532, 1401.602
514.9353, 1429.622
515.4174, 1441.791
515.8995, 1421.379
516.3817, 1403.678
516.8638, 1376.818
517.3459, 1405.263
517.8280, 1421.804
518.3101, 1427.079
518.7922, 1387.350
519.2744, 1405.735
519.7565, 1400.830
520.2386, 1394.971
520.7207, 1421.535
521.2028, 1388.351
521.6849, 1414.401
522.1671, 1416.807
522.6492, 1430.033
523.1313, 1419.827
523.6134, 1416.858
524.0955, 1437.330
524.5776, 1444.823
525.0598, 1419.185
525.5419, 1413.887
526.0240, 1408.182
526.5061, 1407.288
526.9882, 1411.069
527.4703, 1415.688
527.9525, 1423.108
528.4346, 1428.264
528.9167, 1431.497
529.3988, 1431.177
529.8809, 1424.433
530.3630, 1410.683
530.8452, 1395.937
531.3273, 1379.089
531.8094, 1365.650
532.2915, 1372.451
532.7736, 1401.295
533.2557, 1423.959
533.7379, 1420.937
534.2200, 1399.956
534.7021, 1388.950
535.1842, 1392.626
535.6663, 1398.091
536.1484, 1404.045
536.6306, 1411.278
537.1127, 1422.829
537.5948, 1436.908
538.0769, 1446.745
538.5590, 1447.050
539.0411, 1439.844
539.5233, 1430.300
540.0054, 1416.174
540.4875, 1408.404
540.9696, 1413.918
541.4517, 1423.951
541.9338, 1432.082
542.4160, 1437.980
542.8981, 1438.979
543.3802, 1429.232
543.8623, 1417.713
544.3444, 1413.108
544.8265, 1414.595
545.3087, 1418.740
545.7908, 1424.479
546.2729, 1429.387
546.7550, 1428.539
547.2371, 1418.491
547.7192, 1411.902
548.2014, 1410.295
548.6835, 1410.210
549.1656, 1410.555
549.6477, 1411.247
550.1298, 1412.338
550.6119, 1413.789
551.0941, 1415.891
551.5762, 1420.914
552.0583, 1427.883
552.5404, 1427.720
553.0225, 1416.865
553.5046, 1404.971
553.9868, 1399.686
554.4689, 1401.075
554.9510, 1405.206
555.4331, 1417.267
555.9152, 1426.010
556.3973, 1425.609
556.8795, 1420.596
557.3616, 1415.307
557.8437, 1411.317
558.3258, 1410.295
558.8079, 1414.662
559.2900, 1423.805
559.7722, 1430.663
560.2543, 1434.401
560.7364, 1437.564
561.2185, 1442.403
561.7006, 1446.252
562.1827, 1446.373
562.6649, 1442.416
563.1470, 1436.198
563.6291, 1425.391
564.1112, 1414.617
564.5933, 1409.855
565.0754, 1410.843
565.5576, 1415.079
566.0397, 1422.083
566.5218, 1410.180
567.0039, 1437.221
567.4860, 1452.358
567.9681, 1456.230
568.4503, 1415.097
568.9324, 1432.078
569.4145, 1425.770
569.8966, 1418.507
570.3787, 1443.667
570.8608, 1409.080
571.3430, 1433.727
571.8251, 1434.728
572.3072, 1446.551
572.7893, 1434.941
573.2714, 1430.569
573.7535, 1449.637
574.2357, 1455.727
574.7178, 1441.419
575.1999, 1453.930
575.6820, 1436.575
576.1641, 1445.239
576.6462, 1447.429
577.1284, 1446.024
577.6105, 1444.427
578.0926, 1443.070
578.5747, 1439.521
579.0568, 1429.342
579.5389, 1415.549
580.0211, 1414.541
580.5032, 1430.052
580.9853, 1444.493
581.4674, 1452.498
581.9495, 1456.001
582.4316, 1457.901
582.9138, 1458.241
583.3959, 1455.985
583.8780, 1445.161
584.3601, 1436.390
584.8422, 1443.355
585.3243, 1459.499
585.8065, 1464.973
586.2886, 1451.252
586.7707, 1431.492
587.2528, 1428.900
587.7349, 1448.610
588.2170, 1460.864
588.6992, 1459.954
589.1813, 1458.695
589.6634, 1465.215
590.1455, 1473.746
590.6276, 1474.207
591.1097, 1462.128
591.5919, 1451.069
592.0740, 1451.985
592.5561, 1459.296
593.0382, 1464.097
593.5203, 1465.289
594.0024, 1464.068
594.4846, 1460.786
594.9667, 1456.287
595.4488, 1453.783
595.9309, 1456.156
596.4130, 1455.545
596.8951, 1447.431
597.3773, 1440.319
597.8594, 1441.224
598.3415, 1447.637
598.8236, 1451.227
599.3057, 1446.140
599.7878, 1439.925
600.2700, 1443.125
600.7521, 1453.799
601.2342, 1463.666
601.7163, 1471.333
602.1984, 1474.993
602.6805, 1471.611
603.1627, 1461.485
603.6448, 1456.480
604.1269, 1462.732
604.6090, 1465.734
605.0911, 1460.719
605.5732, 1452.608
606.0554, 1442.619
606.5375, 1433.179
607.0196, 1432.764
607.5017, 1454.047
607.9838, 1484.692
608.4659, 1492.209
608.9481, 1475.875
609.4302, 1465.969
609.9123, 1474.640
610.3944, 1489.019
610.8765, 1492.776
611.3586, 1484.421
611.8408, 1476.849
612.3229, 1468.787
612.8050, 1463.234
613.2871, 1462.862
613.7692, 1465.202
614.2513, 1467.317
614.7335, 1468.268
615.2156, 1468.030
615.6977, 1465.687
616.1798, 1461.925
616.6619, 1460.891
617.1440, 1462.817
617.6262, 1466.562
618.1083, 1472.986
618.5904, 1479.872
619.0725, 1483.615
619.5546, 1484.142
620.0367, 1482.864
620.5189, 1477.862
621.0010, 1473.120
621.4831, 1470.656
621.9652, 1470.458
622.4473, 1473.220
622.9294, 1479.050
623.4116, 1484.306
623.8937, 1483.208
624.3758, 1475.899
624.8579, 1470.503
625.3400, 1467.740
625.8221, 1465.457
626.3043, 1461.591
626.7864, 1458.102
627.2685, 1458.923
627.7506, 1465.779
628.2327, 1471.016
628.7148, 1472.948
629.1970, 1472.175
629.6791, 1466.980
630.1612, 1459.542
630.6433, 1454.181
631.1254, 1452.856
631.6075, 1456.851
632.0897, 1472.429
632.5718, 1501.381
633.0539, 1513.342
633.5360, 1497.823
634.0181, 1483.178
634.5002, 1489.489
634.9824, 1506.193
635.4645, 1512.574
635.9466, 1502.455
636.4287, 1495.683
636.9108, 1502.262
637.3929, 1512.376
637.8751, 1516.864
638.3572, 1516.415
638.8393, 1516.525
639.3214, 1520.219
639.8035, 1524.775
640.2856, 1524.463
640.7678, 1518.633
641.2499, 1514.565
641.7320, 1512.629
642.2141, 1512.876
642.6962, 1518.599
643.1783, 1525.879
643.6605, 1525.239
644.1426, 1508.855
644.6247, 1501.170
645.1068, 1518.825
645.5889, 1542.651
646.0710, 1555.249
646.5532, 1556.779
647.0353, 1553.936
647.5174, 1550.044
647.9995, 1546.736
648.4816, 1547.415
648.9637, 1552.321
649.4459, 1558.093
649.9280, 1564.131
650.4101, 1571.610
650.8922, 1582.302
651.3743, 1594.806
651.8564, 1606.096
652.3386, 1616.747
652.8207, 1624.485
653.3028, 1626.528
653.7849, 1626.915
654.2670, 1629.312
654.7491, 1633.413
655.2313, 1637.120
655.7134, 1639.279
656.1955, 1640.529
656.6776, 1642.022
657.1597, 1643.767
657.6418, 1644.463
658.1240, 1642.690
658.6061, 1643.324
659.0882, 1651.942
659.5703, 1664.697
660.0524, 1670.611
660.5345, 1667.333
661.0167, 1662.491
661.4988, 1656.612
661.9809, 1650.642
662.4630, 1645.072
662.9451, 1640.029
663.4272, 1634.970
663.9094, 1629.463
664.3915, 1625.926
664.8736, 1629.554
665.3557, 1639.419
665.8378, 1644.627
666.3199, 1642.882
666.8021, 1643.414
667.2842, 1656.217
667.7663, 1672.793
668.2484, 1666.678
668.7305, 1619.563
669.2126, 1592.526
669.6948, 1608.945
670.1769, 1629.269
670.6590, 1629.016
671.1411, 1614.795
671.6232, 1603.399
672.1053, 1601.461
672.5875, 1600.412
673.0696, 1587.731
673.5517, 1568.050
674.0338, 1558.573
674.5159, 1560.756
674.9980, 1566.193
675.4802, 1572.364
675.9623, 1576.155
676.4444, 1569.974
676.9265, 1546.178
677.4086, 1532.685
677.8907, 1538.977
678.3729, 1544.255
678.8550, 1540.348
679.3371, 1529.991
679.8192, 1516.645
680.3013, 1501.120
680.7834, 1486.799
681.2656, 1475.457
681.7477, 1467.262
682.2298, 1465.674
682.7119, 1468.955
683.1940, 1464.161
683.6761, 1444.718
684.1583, 1421.602
684.6404, 1411.853
685.1225, 1417.791
685.6046, 1421.901
686.0867, 1421.962
686.5688, 1423.178
687.0510, 1431.906
687.5331, 1439.458
688.0152, 1435.405
688.4973, 1418.801
688.9794, 1401.430
689.4615, 1384.877
689.9437, 1373.129
690.4258, 1374.128
690.9079, 1382.326
691.3900, 1383.898
691.8721, 1375.033
692.3542, 1363.866
692.8364, 1359.334
693.3185, 1360.532
693.8006, 1358.454
694.2827, 1351.347
694.7648, 1346.265
695.2469, 1346.149
695.7291, 1347.735
696.2112, 1349.892
696.6933, 1351.966
697.1754, 1346.972
697.6575, 1324.195
698.1396, 1305.458
698.6218, 1303.371
699.1039, 1308.647
699.5860, 1310.714
700.0681, 1308.114
700.5502, 1304.204
701.0323, 1300.539
701.5145, 1298.778
701.9966, 1306.967
702.4787, 1324.304
702.9608, 1323.686
703.4429, 1295.225
703.9250, 1265.629
704.4072, 1255.764
704.8893, 1262.849
705.3714, 1271.246
705.8535, 1287.641
706.3356, 1295.652
706.8177, 1287.232
707.2999, 1276.772
707.7820, 1272.943
708.2641, 1274.699
708.7462, 1278.153
709.2283, 1282.318
709.7104, 1285.361
710.1926, 1286.087
710.6747, 1284.326
711.1568, 1278.331
711.6389, 1268.621
712.1210, 1260.844
712.6031, 1258.281
713.0853, 1258.382
713.5674, 1255.437
714.0495, 1247.362
714.5316, 1245.011
715.0137, 1253.658
715.4958, 1260.502
715.9780, 1259.509
716.4601, 1254.374
716.9422, 1248.809
717.4243, 1242.985
717.9064, 1239.217
718.3885, 1240.338
718.8707, 1241.989
719.3528, 1240.091
719.8349, 1236.500
720.3170, 1234.982
720.7991, 1236.558
721.2813, 1239.506
721.7634, 1243.257
722.2455, 1246.581
722.7276, 1242.975
723.2097, 1231.605
723.6918, 1223.584
724.1740, 1223.157
724.6561, 1224.603
725.1382, 1221.327
725.6203, 1213.428
726.1024, 1210.566
726.5845, 1216.062
727.0667, 1221.591
727.5488, 1228.263
728.0309, 1232.537
728.5130, 1229.804
728.9951, 1221.976
729.4772, 1215.875
729.9594, 1214.929
730.4415, 1215.953
730.9236, 1215.909
731.4057, 1215.532
731.8878, 1217.678
732.3699, 1221.998
732.8521, 1222.847
733.3342, 1216.506
733.8163, 1205.600
734.2984, 1195.065
734.7805, 1183.679
735.2626, 1178.697
735.7448, 1183.558
736.2269, 1189.459
736.7090, 1192.506
737.1911, 1193.861
737.6732, 1195.108
738.1553, 1196.276
738.6375, 1197.577
739.1196, 1199.956
739.6017, 1201.603
740.0838, 1201.092
740.5659, 1199.250
741.0480, 1197.522
741.5302, 1196.207
742.0123, 1194.401
742.4944, 1192.343
742.9765, 1188.657
743.4586, 1176.209
743.9407, 1156.845
744.4229, 1151.020
744.9050, 1165.801
745.3871, 1183.531
745.8692, 1186.638
746.3513, 1177.161
746.8334, 1174.855
747.3156, 1183.929
747.7977, 1192.640
748.2798, 1205.569
748.7619, 1212.387
749.2440, 1202.291
749.7261, 1181.681
750.2083, 1167.054
750.6904, 1163.227
751.1725, 1163.403
751.6546, 1166.316
752.1367, 1169.998
752.6188, 1173.558
753.1010, 1176.008
753.5831, 1174.323
754.0652, 1167.180
754.5473, 1159.944
755.0294, 1159.538
755.5115, 1165.333
755.9937, 1175.209
756.4758, 1189.827
756.9579, 1199.274
757.4400, 1198.689
757.9221, 1193.335
758.4042, 1189.639
758.8864, 1187.494
759.3685, 1188.290
759.8506, 1197.536
760.3327, 1202.613
760.8148, 1199.993
761.2969, 1193.530
761.7791, 1184.198
762.2612, 1173.619
762.7433, 1167.176
763.2254, 1169.538
763.7075, 1172.685
764.1896, 1170.716
764.6718, 1166.443
765.1539, 1164.157
765.6360, 1163.698
766.1181, 1161.683
766.6002, 1156.030
767.0823, 1149.096
767.5645, 1143.562
768.0466, 1139.724
768.5287, 1144.224
769.0108, 1159.305
769.4929, 1171.223
769.9750, 1172.983
770.4572, 1168.433
770.9393, 1162.972
771.4214, 1155.027
771.9035, 1153.767
772.3856, 1167.730
772.8677, 1177.542
773.3499, 1173.902
773.8320, 1167.091
774.3141, 1168.723
774.7962, 1178.197
775.2783, 1183.821
775.7604, 1177.996
776.2426, 1169.922
776.7247, 1163.406
777.2068, 1159.988
777.6889, 1164.099
778.1710, 1174.316
778.6531, 1181.831
779.1353, 1180.719
779.6174, 1177.085
780.0995, 1185.524
780.5816, 1203.615
781.0637, 1203.422
781.5458, 1179.876
782.0280, 1162.072
782.5101, 1166.861
782.9922, 1182.401
783.4743, 1186.881
783.9564, 1177.014
784.4385, 1171.203
784.9207, 1172.373
785.4028, 1173.869
785.8849, 1172.843
786.3670, 1172.244
786.8491, 1175.153
787.3312, 1181.468
787.8134, 1188.488
788.2955, 1202.009
788.7776, 1208.231
789.2597, 1192.363
789.7418, 1169.587
790.2239, 1156.080
790.7061, 1153.828
791.1882, 1160.104
791.6703, 1174.643
792.1524, 1189.897
792.6345, 1195.673
793.1166, 1193.150
793.5988, 1184.278
794.0809, 1169.589
794.5630, 1161.379
795.0451, 1166.896
795.5272, 1175.575
796.0093, 1169.047
796.4915, 1144.905
796.9736, 1133.896
797.4557, 1143.697
797.9378, 1151.594
798.4199, 1149.175
798.9020, 1144.221
799.3842, 1145.265
799.8663, 1151.037
800.3484, 1152.383
800.8305, 1144.904
801.3126, 1137.069
801.7947, 1125.294
802.2769, 1119.105
802.7590, 1133.141
803.2411, 1158.982
803.7232, 1174.676
804.2053, 1171.158
804.6874, 1159.471
805.1696, 1142.750
805.6517, 1127.807
806.1338, 1128.427
806.6159, 1141.933
807.0980, 1156.103
807.5801, 1166.489
808.0623, 1173.459
808.5444, 1177.502
809.0265, 1178.582
809.5086, 1175.939
809.9907, 1169.056
810.4728, 1161.818
810.9550, 1154.347
811.4371, 1148.412
811.9192, 1145.190
812.4013, 1144.723
812.8834, 1147.299
813.3655, 1158.274
813.8477, 1163.749
814.3298, 1161.219
814.8119, 1156.038
815.2940, 1147.553
815.7761, 1139.314
816.2582, 1137.635
816.7404, 1144.113
817.2225, 1148.588
817.7046, 1144.668
818.1867, 1139.512
818.6688, 1137.748
819.1509, 1138.432
819.6331, 1139.577
820.1152, 1141.098
820.5973, 1145.198
821.0794, 1154.749
821.5615, 1164.865
822.0436, 1168.313
822.5258, 1166.008
823.0079, 1159.879
823.4900, 1150.517
823.9721, 1141.892
824.4542, 1136.035
824.9363, 1133.050
825.4185, 1133.696
825.9006, 1138.362
826.3827, 1142.030
826.8648, 1144.531
827.3469, 1146.640
827.8290, 1149.474
828.3111, 1150.841
828.7932, 1146.276
829.2753, 1135.879
829.7574, 1133.873
830.2396, 1152.723
830.7217, 1162.172
831.2038, 1151.280
831.6859, 1136.102
832.1680, 1122.777
832.6501, 1114.505
833.1323, 1118.844
833.6144, 1142.157
834.0965, 1157.548
834.5786, 1141.921
835.0607, 1120.606
835.5428, 1115.374
836.0250, 1121.849
836.5071, 1131.667
836.9892, 1141.458
837.4713, 1147.211
837.9534, 1144.986
838.4355, 1137.498
838.9177, 1126.337
839.3998, 1113.862
839.8819, 1111.871
840.3640, 1121.542
840.8461, 1126.603
841.3282, 1115.286
841.8104, 1098.232
842.2925, 1101.680
842.7746, 1128.820
843.2567, 1140.691
843.7388, 1132.588
844.2209, 1122.632
844.7031, 1115.393
845.1852, 1113.261
845.6673, 1122.467
846.1494, 1143.816
846.6315, 1149.794
847.1136, 1124.023
847.5958, 1105.282
848.0779, 1101.273
848.5600, 1102.119
849.0421, 1102.470
849.5242, 1102.441
850.0063, 1103.454
850.4885, 1106.466
850.9706, 1108.127
851.4527, 1103.142
851.9348, 1100.480
852.4169, 1110.456
852.8990, 1125.316
853.3812, 1131.837
853.8633, 1128.156
854.3454, 1124.427
854.8275, 1130.845
855.3096, 1136.429
855.7917, 1121.525
856.2739, 1098.219
856.7560, 1095.199
857.2381, 1112.680
857.7202, 1128.508
858.2023, 1130.312
858.6844, 1124.908
859.1666, 1122.219
859.6487, 1121.836
860.1308, 1120.760
860.6129, 1118.898
861.0950, 1116.709
861.5771, 1113.872
862.0593, 1113.484
862.5414, 1120.235
863.0235, 1132.225
863.5056, 1133.691
863.9877, 1120.304
864.4698, 1108.815
864.9520, 1099.561
865.4341, 1095.050
865.9162, 1099.749
866.3983, 1109.022
866.8804, 1113.240
867.3625, 1113.019
867.8447, 1105.980
868.3268, 1077.953
868.8089, 1060.619
869.2910, 1071.246
869.7731, 1092.072
870.2552, 1109.036
870.7374, 1120.120
871.2195, 1124.493
871.7016, 1118.159
872.1837, 1111.509
872.6658, 1108.792
873.1479, 1108.485
873.6301, 1110.296
874.1122, 1113.073
874.5943, 1114.260
875.0764, 1113.190
875.5585, 1113.548
876.0406, 1119.551
876.5228, 1127.672
877.0049, 1136.975
877.4870, 1143.794
877.9691, 1135.809
878.4512, 1113.724
878.9333, 1095.735
879.4155, 1093.945
879.8976, 1101.975
880.3797, 1113.644
880.8618, 1126.256
881.3439, 1120.277
881.8260, 1095.180
882.3082, 1075.557
882.7903, 1070.773
883.2724, 1076.672
883.7545, 1090.487
884.2366, 1110.261
884.7188, 1119.244
885.2009, 1115.516
885.6830, 1109.600
886.1651, 1101.734
886.6472, 1094.872
887.1293, 1090.347
887.6115, 1088.512
888.0936, 1090.762
888.5757, 1099.317
889.0578, 1103.885
889.5399, 1100.212
890.0220, 1098.355
890.5042, 1103.649
890.9863, 1109.552
891.4684, 1108.905
891.9505, 1103.244
892.4326, 1101.747
892.9147, 1110.938
893.3969, 1115.585
893.8790, 1109.518
894.3611, 1100.916
894.8432, 1092.202
895.3253, 1085.582
895.8074, 1085.497
896.2896, 1092.410
896.7717, 1096.907
897.2538, 1093.418
897.7359, 1087.256
898.2180, 1080.532
898.7001, 1074.143
899.1823, 1066.712
899.6644, 1060.614
900.1465, 1064.790
900.6286, 1084.711
901.1107, 1102.236
901.5928, 1094.435
902.0750, 1077.461
902.5571, 1076.469
903.0392, 1087.303
903.5213, 1095.868
904.0034, 1098.689
904.4855, 1100.490
904.9677, 1105.149
905.4498, 1110.550
905.9319, 1112.268
906.4140, 1111.134
906.8961, 1111.770
907.3782, 1114.239
907.8604, 1112.315
908.3425, 1102.843
908.8246, 1093.185
909.3067, 1093.592
909.7888, 1102.130
910.2709, 1105.848
910.7531, 1104.363
911.2352, 1102.094
911.7173, 1099.624
912.1994, 1097.780
912.6815, 1097.907
913.1636, 1097.661
913.6458, 1090.273
914.1279, 1072.582
914.6100, 1066.753
915.0921, 1078.686
915.5742, 1088.538
916.0563, 1088.748
916.5385, 1087.274
917.0206, 1093.130
917.5027, 1104.281
917.9848, 1107.796
918.4669, 1098.048
918.9490, 1090.081
919.4312, 1083.245
919.9133, 1078.997
920.3954, 1080.693
920.8775, 1083.657
921.3596, 1080.021
921.8417, 1069.628
922.3239, 1066.959
922.8060, 1082.896
923.2881, 1094.534
923.7702, 1092.633
924.2523, 1087.823
924.7344, 1086.477
925.2166, 1088.321
925.6987, 1093.296
926.1808, 1102.270
926.6629, 1104.464
927.1450, 1086.009
927.6271, 1070.636
928.1093, 1073.748
928.5914, 1086.261
929.0735, 1101.098
929.5556, 1115.142
930.0377, 1123.428
930.5198, 1122.694
931.0020, 1121.711
931.4841, 1131.609
931.9662, 1139.781
932.4483, 1128.487
932.9304, 1107.745
933.4125, 1098.620
933.8947, 1103.126
934.3768, 1103.677
934.8589, 1085.684
935.3410, 1067.617
935.8231, 1073.726
936.3052, 1091.937
936.7874, 1104.113
937.2695, 1108.725
937.7516, 1105.462
938.2337, 1095.033
938.7158, 1085.418
939.1979, 1084.440
939.6801, 1088.264
940.1622, 1089.778
940.6443, 1089.791
941.1264, 1091.155
941.6085, 1094.012
942.0906, 1096.506
942.5728, 1097.742
943.0549, 1097.877
943.5370, 1096.063
944.0191, 1093.563
944.5012, 1097.629
944.9833, 1107.105
945.4655, 1109.519
945.9476, 1102.409
946.4297, 1090.157
946.9118, 1074.122
947.3939, 1062.117
947.8760, 1076.213
948.3582, 1114.941
948.8403, 1123.409
949.3224, 1098.948
949.8045, 1075.658
950.2866, 1061.997
950.7687, 1058.214
951.2509, 1065.926
951.7330, 1081.462
952.2151, 1094.121
952.6972, 1104.396
953.1793, 1107.567
953.6614, 1101.794
954.1436, 1095.421
954.6257, 1091.022
955.1078, 1088.237
955.5899, 1086.869
956.0720, 1086.754
956.5541, 1086.753
957.0363, 1086.548
957.5184, 1087.683
958.0005, 1091.034
958.4826, 1093.866
958.9647, 1093.842
959.4468, 1094.248
959.9290, 1101.404
960.4111, 1115.245
960.8932, 1116.470
961.3753, 1094.369
961.8574, 1082.004
962.3395, 1088.919
962.8217, 1097.394
963.3038, 1096.801
963.7859, 1092.496
964.2680, 1094.891
964.7501, 1105.857
965.2322, 1108.522
965.7144, 1093.986
966.1965, 1084.352
966.6786, 1086.934
967.1607, 1091.160
967.6428, 1091.193
968.1249, 1088.185
968.6071, 1084.123
969.0892, 1078.298
969.5713, 1074.809
970.0534, 1073.184
970.5355, 1074.825
971.0176, 1085.840
971.4998, 1095.027
971.9819, 1092.398
972.4640, 1081.367
972.9461, 1070.277
973.4282, 1056.038
973.9103, 1054.784
974.3925, 1083.470
974.8746, 1106.886
975.3567, 1111.430
975.8388, 1105.982
976.3209, 1093.527
976.8030, 1078.474
977.2852, 1074.547
977.7673, 1090.774
978.2494, 1099.545
978.7315, 1086.105
979.2136, 1074.214
979.6957, 1078.266
980.1779, 1086.995
980.6600, 1084.879
981.1421, 1074.783
981.6242, 1076.309
982.1063, 1103.964
982.5884, 1120.657
983.0706, 1105.602
983.5527, 1087.652
984.0348, 1083.729
984.5169, 1086.056
984.9990, 1083.522
985.4811, 1076.168
985.9633, 1072.680
986.4454, 1080.403
986.9275, 1083.015
987.4096, 1067.695
987.8917, 1052.613
988.3738, 1050.145
988.8560, 1055.196
989.3381, 1062.300
989.8202, 1069.455
990.3023, 1070.943
990.7844, 1062.696
991.2665, 1052.031
991.7487, 1038.032
992.2308, 1026.550
992.7129, 1019.684
993.1950, 1019.372
993.6771, 1030.701
994.1592, 1052.828
994.6414, 1072.720
995.1235, 1088.325
995.6056, 1096.105
996.0877, 1087.078
996.5698, 1076.693
997.0519, 1079.714
997.5341, 1089.132
998.0162, 1091.163
998.4983, 1084.131
998.9804, 1079.172
999.4625, 1084.021
999.9446, 1087.826
1000.427, 1085.880
1000.909, 1080.303
1001.391, 1067.643
1001.873, 1054.833
1002.355, 1056.153
1002.837, 1072.909
1003.319, 1084.329
1003.802, 1076.767
1004.284, 1067.813
1004.766, 1065.185
1005.248, 1065.567
1005.730, 1066.659
1006.212, 1068.482
1006.694, 1071.758
1007.176, 1076.564
1007.659, 1081.566
1008.141, 1089.938
1008.623, 1093.561
1009.105, 1084.149
1009.587, 1072.342
1010.069, 1066.653
1010.551, 1065.509
1011.033, 1065.199
1011.515, 1064.908
1011.998, 1064.632
1012.480, 1064.263
1012.962, 1064.031
1013.444, 1065.764
1013.926, 1066.061
1014.408, 1059.925
1014.890, 1051.195
1015.372, 1046.227
1015.854, 1046.257
1016.337, 1050.296
1016.819, 1064.120
1017.301, 1073.670
1017.783, 1070.602
1018.265, 1063.580
1018.747, 1058.546
1019.229, 1054.773
1019.711, 1048.571
1020.194, 1039.720
1020.676, 1037.035
1021.158, 1050.743
1021.640, 1060.976
1022.122, 1058.751
1022.604, 1052.612
1023.086, 1046.349
1023.568, 1041.494
1024.051, 1040.869
1024.533, 1044.498
1025.015, 1044.967
1025.497, 1038.191
1025.979, 1031.008
1026.461, 1018.446
1026.943, 1013.273
1027.425, 1031.456
1027.907, 1058.084
1028.390, 1071.083
1028.872, 1068.582
1029.354, 1062.515
1029.836, 1048.736
1030.318, 1040.980
1030.800, 1053.314
1031.282, 1059.958
1031.764, 1033.531
1032.246, 1000.532
1032.729, 1003.181
1033.211, 1040.849
1033.693, 1061.319
1034.175, 1037.458
1034.657, 1028.729
1035.139, 1062.936
1035.621, 1089.082
1036.103, 1073.553
1036.586, 1044.212
1037.068, 1035.695
1037.550, 1046.913
1038.032, 1052.400
1038.514, 1046.983
1038.996, 1042.963
1039.478, 1041.131
1039.960, 1039.910
1040.443, 1038.714
1040.925, 1037.870
1041.407, 1038.108
1041.889, 1039.105
1042.371, 1038.679
1042.853, 1035.360
1043.335, 1033.568
1043.817, 1031.631
1044.299, 1034.716
1044.781, 1049.391
1045.264, 1063.043
1045.746, 1062.420
1046.228, 1051.203
1046.710, 1044.570
1047.192, 1044.546
1047.674, 1041.695
1048.156, 1033.091
1048.638, 1030.439
1049.121, 1040.167
1049.603, 1049.588
1050.085, 1046.666
1050.567, 1037.234
1051.049, 1039.249
1051.531, 1055.863
1052.013, 1057.797
1052.495, 1040.997
1052.978, 1031.596
1053.460, 1037.442
1053.942, 1044.932
1054.424, 1044.362
1054.906, 1039.584
1055.388, 1038.497
1055.870, 1040.932
1056.352, 1042.377
1056.834, 1042.855
1057.317, 1041.259
1057.799, 1037.329
1058.281, 1032.228
1058.763, 1026.458
1059.245, 1021.092
1059.727, 1018.178
1060.209, 1016.921
1060.691, 1011.829
1061.173, 1004.244
1061.656, 1005.997
1062.138, 1017.814
1062.620, 1027.513
1063.102, 1029.481
1063.584, 1028.898
1064.066, 1032.003
1064.548, 1036.292
1065.030, 1035.978
1065.513, 1032.226
1065.995, 1027.231
1066.477, 1022.133
1066.959, 1019.824
1067.441, 1021.332
1067.923, 1026.891
1068.405, 1040.390
1068.887, 1050.657
1069.370, 1036.523
1069.852, 1012.736
1070.334, 1003.807
1070.816, 1006.896
1071.298, 1010.938
1071.780, 1012.838
1072.262, 1013.916
1072.744, 1014.901
1073.226, 1015.439
1073.708, 1016.170
1074.191, 1015.462
1074.673, 1008.335
1075.155, 1000.376
1075.637, 1002.823
1076.119, 1013.903
1076.601, 1018.666
1077.083, 1008.525
1077.565, 1004.279
1078.047, 1023.005
1078.530, 1043.339
1079.012, 1055.433
1079.494, 1059.644
1079.976, 1054.650
1080.458, 1042.950
1080.940, 1029.786
1081.422, 1015.446
1081.904, 1004.339
1082.387, 994.8339
1082.869, 992.4669
1083.351, 1007.554
1083.833, 1021.823
1084.315, 1019.830
1084.797, 1009.314
1085.279, 1006.187
1085.761, 1012.281
1086.244, 1011.208
1086.726, 990.8092
1087.208, 984.4731
1087.690, 1005.169
1088.172, 1024.582
1088.654, 1029.651
1089.136, 1027.623
1089.618, 1027.009
1090.100, 1027.414
1090.583, 1025.470
1091.065, 1019.506
1091.547, 1017.888
1092.029, 1021.398
1092.511, 1028.570
1092.993, 1040.760
1093.475, 1049.070
1093.957, 1044.836
1094.439, 1032.756
1094.922, 1023.740
1095.404, 1017.870
1095.886, 1018.579
1096.368, 1025.526
1096.850, 1024.540
1097.332, 1012.736
1097.814, 1002.421
1098.296, 1000.950
1098.779, 1005.264
1099.261, 1013.763
1099.743, 1023.272
1100.225, 1025.836
1100.707, 1022.086
1101.189, 1009.292
1101.671, 991.3522
1102.153, 986.3619
1102.635, 1000.473
1103.118, 1015.568
1103.600, 1015.874
1104.082, 1010.564
1104.564, 1008.842
1105.046, 1008.811
1105.528, 1007.236
1106.010, 1005.512
1106.492, 1007.442
1106.974, 1013.175
1107.457, 1018.780
1107.939, 1022.712
1108.421, 1025.397
1108.903, 1027.085
1109.385, 1027.547
1109.867, 1027.635
1110.349, 1025.638
1110.831, 1016.203
1111.314, 1003.065
1111.796, 999.5662
1112.278, 1010.509
1112.760, 1019.536
1113.242, 1025.034
1113.724, 1026.731
1114.206, 1020.851
1114.688, 1015.099
1115.171, 1016.048
1115.653, 1019.041
1116.135, 1014.739
1116.617, 1003.049
1117.099, 1002.966
1117.581, 1021.118
1118.063, 1031.210
1118.545, 1029.890
1119.027, 1023.385
1119.510, 1012.658
1119.992, 1002.044
1120.474, 995.3943
1120.956, 993.1921
1121.438, 998.5432
1121.920, 1011.026
1122.402, 1019.495
1122.884, 1023.726
1123.366, 1026.364
1123.849, 1028.119
1124.331, 1030.405
1124.813, 1034.284
1125.295, 1037.071
1125.777, 1032.197
1126.259, 1025.322
1126.741, 1033.798
1127.223, 1047.915
1127.706, 1042.605
1128.188, 1020.974
1128.670, 1003.625
1129.152, 997.2475
1129.634, 992.4635
1130.116, 980.4592
1130.598, 971.9643
1131.080, 977.6089
1131.563, 988.7286
1132.045, 1001.490
1132.527, 1011.593
1133.009, 1010.963
1133.491, 1001.742
1133.973, 998.4178
1134.455, 1007.836
1134.937, 1013.727
1135.419, 1007.404
1135.901, 1003.172
1136.384, 1011.593
1136.866, 1018.789
1137.348, 1011.167
1137.830, 995.9602
1138.312, 986.7257
1138.794, 983.6951
1139.276, 982.3075
1139.758, 981.8917
1140.241, 985.6127
1140.723, 995.2226
1141.205, 1005.026
1141.687, 1013.918
1142.169, 1017.384
1142.651, 1010.064
1143.133, 995.0569
1143.615, 976.9694
1144.098, 958.0782
1144.580, 966.0889
1145.062, 997.3107
1145.544, 1016.115
1146.026, 1014.760
1146.508, 998.3240
1146.990, 968.8602
1147.472, 944.4573
1147.954, 948.7791
1148.437, 968.1239
1148.919, 992.0620
1149.401, 1011.671
1149.883, 1005.774
1150.365, 984.7697
1150.847, 978.6110
1151.329, 992.3146
1151.811, 1000.796
1152.293, 987.9169
1152.776, 976.6796
1153.258, 978.9088
1153.740, 984.7670
1154.222, 992.8746
1154.704, 997.9036
1155.186, 990.9752
1155.668, 976.5953
1156.150, 970.5634
1156.633, 976.1021
1157.115, 980.2167
1157.597, 982.2795
1158.079, 983.7621
1158.561, 982.7276
1159.043, 986.6774
1159.525, 1002.281
1160.007, 1018.052
1160.490, 1019.351
1160.972, 1009.289
1161.454, 998.8611
1161.936, 988.3228
1162.418, 986.3796
1162.900, 992.4704
1163.382, 991.0201
1163.864, 979.3099
1164.346, 975.6409
1164.828, 992.0089
1165.311, 1011.496
1165.793, 1013.612
1166.275, 1006.180
1166.757, 997.7075
1167.239, 990.2112
1167.721, 986.6415
1168.203, 986.8603
1168.685, 990.9205
1169.168, 998.0512
1169.650, 1002.866
1170.132, 1004.571
1170.614, 1000.358
1171.096, 981.2312
1171.578, 965.2787
1172.060, 968.0959
1172.542, 974.2813
1173.025, 963.4721
1173.507, 944.0674
1173.989, 944.0122
1174.471, 967.6058
1174.953, 979.0106
1175.435, 971.8473
1175.917, 971.6050
1176.399, 985.1339
1176.881, 991.9636
1177.364, 981.2989
1177.846, 968.4247
1178.328, 969.9789
1178.810, 979.6553
1179.292, 981.1219
1179.774, 976.0436
1180.256, 971.3483
1180.738, 967.9877
1181.220, 969.3083
1181.703, 975.3304
1182.185, 984.2861
1182.667, 995.3439
1183.149, 1000.213
1183.631, 986.8199
1184.113, 970.2596
1184.595, 960.8760
1185.077, 958.3248
1185.560, 966.4498
1186.042, 978.7628
1186.524, 986.2307
1187.006, 987.9425
1187.488, 986.7486
1187.970, 982.3470
1188.452, 977.4806
1188.934, 969.4157
1189.417, 965.6268
1189.899, 970.1357
1190.381, 975.4850
1190.863, 977.5786
1191.345, 977.6508
1191.827, 977.0896
1192.309, 976.2623
1192.791, 979.6564
1193.273, 987.2369
1193.755, 977.2361
1194.238, 950.1043
1194.720, 939.5308
1195.202, 953.3271
1195.684, 973.6968
1196.166, 990.7228
1196.648, 997.4518
1197.130, 975.7525
1197.612, 948.3461
1198.095, 947.9786
1198.577, 959.7214
1199.059, 964.2681
1199.541, 962.4677
1200.023, 960.8668
1200.505, 960.4695
1200.987, 957.7596
1201.469, 947.8867
1201.952, 944.6777
1202.434, 961.5323
1202.916, 972.2888
1203.398, 959.0405
1203.880, 946.4066
1204.362, 955.2823
1204.844, 969.0433
1205.326, 956.7740
1205.808, 922.6545
1206.291, 915.5013
1206.773, 937.2945
1207.255, 954.5472
1207.737, 964.9354
1208.219, 967.8371
1208.701, 963.4163
1209.183, 957.8435
1209.665, 955.0457
1210.147, 953.8712
1210.630, 952.4230
1211.112, 952.1399
1211.594, 953.3343
1212.076, 958.2996
1212.558, 975.9813
1213.040, 998.0751
1213.522, 1005.704
1214.004, 997.3848
1214.487, 989.7318
1214.969, 988.8369
1215.451, 986.5349
1215.933, 982.2361
1216.415, 974.2581
1216.897, 953.0939
1217.379, 939.7532
1217.861, 950.3141
1218.344, 972.4767
1218.826, 989.9960
1219.308, 1001.547
1219.790, 994.7896
1220.272, 969.6793
1220.754, 952.5482
1221.236, 945.0526
1221.718, 953.8614
1222.200, 978.4388
1222.682, 998.0859
1223.165, 1001.248
1223.647, 997.2282
1224.129, 995.6320
1224.611, 991.8858
1225.093, 974.4644
1225.575, 957.7704
1226.057, 964.2678
1226.539, 980.2927
1227.022, 980.4019
1227.504, 964.9596
1227.986, 953.5165
1228.468, 949.8647
1228.950, 949.6765
1229.432, 952.9259
1229.914, 959.2385
1230.396, 971.0939
1230.879, 980.9689
1231.361, 985.4950
1231.843, 985.2866
1232.325, 980.2441
1232.807, 972.4998
1233.289, 969.1348
1233.771, 968.7000
1234.253, 963.0622
1234.735, 953.4276
1235.218, 945.1296
1235.700, 938.8312
1236.182, 933.2369
1236.664, 927.6608
1237.146, 918.8498
1237.628, 896.4407
1238.110, 884.8412
1238.592, 909.5617
1239.074, 938.4153
1239.557, 949.1833
1240.039, 953.0626
1240.521, 966.9862
1241.003, 983.2390
1241.485, 978.2037
1241.967, 950.4769
1242.449, 936.3133
1242.931, 938.1915
1243.414, 942.0382
1243.896, 946.6480
1244.378, 955.8004
1244.860, 970.9275
1245.342, 978.6140
1245.824, 968.4847
1246.306, 955.0760
1246.788, 962.5032
1247.271, 975.4631
1247.753, 964.4295
1248.235, 946.2523
1248.717, 950.0053
1249.199, 965.6949
1249.681, 969.0510
1250.163, 958.1354
1250.645, 947.0186
1251.127, 936.8441
1251.609, 934.8382
1252.092, 953.8814
1252.574, 962.5742
1253.056, 948.7488
1253.538, 936.1741
1254.020, 936.2409
1254.502, 942.8077
1254.984, 950.0890
1255.466, 956.9301
1255.949, 960.5092
1256.431, 960.7249
1256.913, 955.7143
1257.395, 947.0242
1257.877, 936.8937
1258.359, 928.6212
1258.841, 933.6636
1259.323, 954.1406
1259.806, 974.5067
1260.288, 989.4749
1260.770, 994.3234
1261.252, 978.1525
1261.734, 961.9672
1262.216, 957.0647
1262.698, 956.5503
1263.180, 956.2510
1263.662, 954.7676
1264.145, 948.2930
1264.627, 938.7303
1265.109, 944.0815
1265.591, 965.9449
1266.073, 969.2958
1266.555, 953.9823
1267.037, 944.1116
1267.519, 944.3082
1268.001, 945.6949
1268.484, 944.0331
1268.966, 941.9625
1269.448, 940.1833
1269.930, 941.6110
1270.412, 951.7236
1270.894, 962.9089
1271.376, 970.5779
1271.858, 974.3691
##END=



