##NAMES=Pirssonite
##RRUFFID=R070192
##IDEAL CHEMISTRY=Na_2_Ca(CO_3_)_2_&#183;2H_2_O
##LOCALITY=Natrum, Sahara, Egypt
##OWNER=RRUFF
##SOURCE=Renato and Adriana Pagano
##DESCRIPTION=Colorless transparent hemimorphic tabular crystals
##STATUS=The identification of this mineral has been confirmed by single-crystal X-ray diffraction.
##URL=rruff.info/R070192
229.3036, 17564.58
229.7857, 17565.63
230.2678, 17585.21
230.7499, 17628.39
231.2320, 17681.52
231.7142, 17708.22
232.1963, 17681.23
232.6784, 17674.90
233.1605, 17725.57
233.6426, 17783.38
234.1247, 17798.47
234.6069, 17755.61
235.0890, 17689.24
235.5711, 17660.33
236.0532, 17687.25
236.5353, 17708.80
237.0174, 17704.39
237.4996, 17704.09
237.9817, 17734.00
238.4638, 17796.41
238.9459, 17866.71
239.4280, 17915.34
239.9101, 17938.50
240.3923, 17953.52
240.8744, 17957.25
241.3565, 17956.03
241.8386, 17945.35
242.3207, 17929.54
242.8028, 17924.12
243.2850, 17950.90
243.7671, 18014.45
244.2492, 18055.50
244.7313, 18056.30
245.2134, 18049.81
245.6955, 18051.75
246.1777, 18056.92
246.6598, 18048.77
247.1419, 18007.43
247.6240, 17939.27
248.1061, 17905.07
248.5882, 17927.00
249.0704, 17955.65
249.5525, 17975.42
250.0346, 17989.42
250.5167, 18003.97
250.9988, 18024.06
251.4809, 18045.34
251.9631, 18054.19
252.4452, 18044.37
252.9273, 18034.56
253.4094, 18018.10
253.8915, 18009.59
254.3736, 18032.85
254.8558, 18102.99
255.3379, 18182.68
255.8200, 18204.98
256.3021, 18151.44
256.7842, 18110.39
257.2664, 18111.93
257.7485, 18133.10
258.2306, 18164.49
258.7127, 18204.84
259.1948, 18239.79
259.6769, 18249.43
260.1591, 18232.28
260.6412, 18224.75
261.1233, 18246.21
261.6054, 18268.07
262.0875, 18264.37
262.5696, 18236.32
263.0518, 18213.72
263.5339, 18223.71
264.0160, 18260.04
264.4981, 18286.55
264.9802, 18300.15
265.4623, 18301.70
265.9445, 18288.82
266.4266, 18264.98
266.9087, 18241.58
267.3908, 18214.05
267.8729, 18192.34
268.3550, 18207.98
268.8372, 18277.14
269.3193, 18332.96
269.8014, 18303.68
270.2835, 18231.17
270.7656, 18186.47
271.2477, 18200.97
271.7299, 18239.94
272.2120, 18270.12
272.6941, 18291.63
273.1762, 18299.74
273.6583, 18282.09
274.1404, 18253.94
274.6226, 18246.10
275.1047, 18271.71
275.5868, 18296.33
276.0689, 18289.40
276.5510, 18259.75
277.0331, 18244.12
277.5153, 18257.07
277.9974, 18288.12
278.4795, 18320.67
278.9616, 18354.74
279.4437, 18389.42
279.9258, 18434.26
280.4080, 18477.21
280.8901, 18493.63
281.3722, 18475.88
281.8543, 18445.25
282.3364, 18422.58
282.8185, 18407.35
283.3007, 18407.95
283.7828, 18444.68
284.2649, 18485.44
284.7470, 18497.06
285.2291, 18478.64
285.7112, 18457.73
286.1934, 18457.71
286.6755, 18478.20
287.1576, 18487.65
287.6397, 18464.35
288.1218, 18451.95
288.6039, 18487.49
289.0861, 18552.82
289.5682, 18597.08
290.0503, 18590.04
290.5324, 18544.25
291.0145, 18512.08
291.4966, 18507.10
291.9788, 18497.96
292.4609, 18469.13
292.9430, 18437.47
293.4251, 18427.19
293.9072, 18446.40
294.3893, 18479.62
294.8715, 18499.21
295.3536, 18495.57
295.8357, 18495.73
296.3178, 18515.85
296.7999, 18528.02
297.2820, 18497.18
297.7642, 18428.94
298.2463, 18371.70
298.7284, 18380.47
299.2105, 18468.92
299.6926, 18528.55
300.1747, 18546.13
300.6569, 18549.16
301.1390, 18531.66
301.6211, 18507.05
302.1032, 18502.08
302.5853, 18538.02
303.0674, 18603.75
303.5495, 18641.06
304.0316, 18627.96
304.5138, 18617.45
304.9959, 18629.79
305.4780, 18646.13
305.9601, 18640.12
306.4422, 18601.01
306.9243, 18556.25
307.4065, 18559.10
307.8886, 18629.19
308.3707, 18673.46
308.8528, 18644.54
309.3349, 18606.05
309.8170, 18595.54
310.2992, 18616.05
310.7813, 18645.97
311.2634, 18670.84
311.7455, 18690.40
312.2276, 18701.65
312.7097, 18705.73
313.1919, 18698.26
313.6740, 18669.79
314.1561, 18628.37
314.6382, 18595.61
315.1203, 18587.20
315.6024, 18590.75
316.0846, 18579.20
316.5667, 18547.36
317.0488, 18531.88
317.5309, 18572.13
318.0130, 18635.00
318.4951, 18663.96
318.9773, 18639.48
319.4594, 18602.79
319.9415, 18582.21
320.4236, 18575.03
320.9057, 18566.44
321.3878, 18546.57
321.8700, 18531.15
322.3521, 18553.37
322.8342, 18620.59
323.3163, 18671.16
323.7984, 18679.03
324.2805, 18664.41
324.7627, 18648.23
325.2448, 18634.11
325.7269, 18631.03
326.2090, 18653.38
326.6911, 18704.72
327.1732, 18725.75
327.6554, 18680.39
328.1375, 18639.04
328.6196, 18649.33
329.1017, 18698.35
329.5838, 18742.06
330.0659, 18754.16
330.5481, 18742.29
331.0302, 18740.67
331.5123, 18765.80
331.9944, 18780.69
332.4765, 18782.64
332.9586, 18772.00
333.4408, 18741.41
333.9229, 18691.10
334.4050, 18641.99
334.8871, 18627.31
335.3692, 18662.88
335.8513, 18690.91
336.3335, 18717.25
336.8156, 18732.03
337.2977, 18724.67
337.7798, 18699.88
338.2619, 18672.25
338.7440, 18653.23
339.2262, 18641.77
339.7083, 18627.77
340.1904, 18605.73
340.6725, 18589.86
341.1546, 18584.22
341.6367, 18586.23
342.1189, 18593.60
342.6010, 18606.18
343.0831, 18620.48
343.5652, 18633.14
344.0473, 18645.15
344.5294, 18647.89
345.0116, 18627.14
345.4937, 18606.19
345.9758, 18604.77
346.4579, 18623.51
346.9400, 18646.51
347.4221, 18672.62
347.9043, 18695.26
348.3864, 18688.79
348.8685, 18639.44
349.3506, 18596.10
349.8327, 18610.22
350.3148, 18662.93
350.7970, 18698.69
351.2791, 18683.69
351.7612, 18667.50
352.2433, 18705.34
352.7254, 18784.58
353.2076, 18835.85
353.6897, 18820.20
354.1718, 18763.69
354.6539, 18733.95
355.1360, 18736.06
355.6181, 18746.74
356.1003, 18773.27
356.5824, 18800.16
357.0645, 18807.94
357.5466, 18792.81
358.0287, 18763.66
358.5108, 18727.27
358.9930, 18678.17
359.4751, 18654.53
359.9572, 18680.87
360.4393, 18704.44
360.9214, 18697.62
361.4035, 18669.61
361.8857, 18643.11
362.3678, 18631.26
362.8499, 18631.19
363.3320, 18632.76
363.8141, 18637.95
364.2962, 18641.53
364.7784, 18638.69
365.2605, 18636.73
365.7426, 18644.04
366.2247, 18661.42
366.7068, 18679.59
367.1889, 18688.58
367.6711, 18688.16
368.1532, 18682.62
368.6353, 18667.39
369.1174, 18652.52
369.5995, 18640.13
370.0816, 18631.83
370.5638, 18631.29
371.0459, 18641.22
371.5280, 18659.04
372.0101, 18684.37
372.4922, 18718.88
372.9743, 18743.97
373.4565, 18746.51
373.9386, 18737.80
374.4207, 18735.22
374.9028, 18740.10
375.3849, 18748.13
375.8670, 18765.11
376.3492, 18782.28
376.8313, 18775.90
377.3134, 18738.15
377.7955, 18700.96
378.2776, 18702.47
378.7597, 18748.07
379.2419, 18766.15
379.7240, 18731.01
380.2061, 18690.48
380.6882, 18667.14
381.1703, 18661.69
381.6524, 18676.33
382.1346, 18715.45
382.6167, 18764.21
383.0988, 18777.50
383.5809, 18713.16
384.0630, 18666.93
384.5451, 18648.45
385.0273, 18643.72
385.5094, 18646.72
385.9915, 18653.39
386.4736, 18654.14
386.9557, 18633.90
387.4378, 18590.23
387.9200, 18574.73
388.4021, 18616.24
388.8842, 18653.54
389.3663, 18666.94
389.8484, 18663.17
390.3305, 18649.74
390.8127, 18625.17
391.2948, 18606.11
391.7769, 18628.04
392.2590, 18697.16
392.7411, 18747.28
393.2232, 18755.88
393.7054, 18741.93
394.1875, 18721.89
394.6696, 18696.19
395.1517, 18670.21
395.6338, 18636.69
396.1159, 18607.88
396.5981, 18610.94
397.0802, 18649.98
397.5623, 18688.48
398.0444, 18698.36
398.5265, 18686.02
399.0086, 18688.18
399.4908, 18722.14
399.9729, 18750.91
400.4550, 18756.24
400.9371, 18747.87
401.4192, 18745.07
401.9013, 18754.24
402.3835, 18759.88
402.8656, 18736.00
403.3477, 18663.21
403.8298, 18621.38
404.3119, 18639.04
404.7940, 18656.32
405.2762, 18635.14
405.7583, 18587.28
406.2404, 18547.67
406.7225, 18538.96
407.2046, 18553.56
407.6867, 18565.70
408.1689, 18575.58
408.6510, 18582.38
409.1331, 18585.24
409.6152, 18585.73
410.0973, 18588.10
410.5794, 18592.01
411.0616, 18586.68
411.5437, 18550.06
412.0258, 18492.24
412.5079, 18470.77
412.9900, 18501.32
413.4721, 18539.50
413.9543, 18549.50
414.4364, 18545.63
414.9185, 18557.36
415.4006, 18605.81
415.8827, 18652.23
416.3648, 18664.81
416.8470, 18651.85
417.3291, 18639.31
417.8112, 18636.59
418.2933, 18635.20
418.7754, 18621.45
419.2575, 18589.99
419.7397, 18564.32
420.2218, 18543.04
420.7039, 18529.78
421.1860, 18530.15
421.6681, 18541.19
422.1502, 18553.23
422.6324, 18559.61
423.1145, 18563.23
423.5966, 18578.42
424.0787, 18632.91
424.5608, 18654.02
425.0429, 18614.99
425.5251, 18555.93
426.0072, 18502.54
426.4893, 18461.71
426.9714, 18436.15
427.4535, 18438.15
427.9356, 18463.83
428.4178, 18461.26
428.8999, 18407.37
429.3820, 18369.86
429.8641, 18408.84
430.3462, 18479.26
430.8283, 18509.28
431.3105, 18463.94
431.7926, 18414.29
432.2747, 18435.48
432.7568, 18504.06
433.2389, 18530.01
433.7210, 18482.52
434.2032, 18413.42
434.6853, 18383.76
435.1674, 18398.20
435.6495, 18407.88
436.1316, 18405.10
436.6137, 18401.63
437.0959, 18400.17
437.5780, 18403.89
438.0601, 18424.14
438.5422, 18468.65
439.0243, 18520.31
439.5064, 18533.10
439.9886, 18470.85
440.4707, 18433.97
440.9528, 18437.39
441.4349, 18452.61
441.9170, 18470.17
442.3991, 18483.83
442.8813, 18480.99
443.3634, 18443.68
443.8455, 18385.78
444.3276, 18364.54
444.8097, 18392.36
445.2918, 18422.26
445.7740, 18440.74
446.2561, 18450.24
446.7382, 18451.23
447.2203, 18443.08
447.7024, 18431.83
448.1845, 18421.37
448.6667, 18410.37
449.1488, 18393.20
449.6309, 18368.15
450.1130, 18349.64
450.5951, 18351.69
451.0772, 18371.75
451.5594, 18381.87
452.0415, 18378.53
452.5236, 18370.20
453.0057, 18353.17
453.4878, 18335.12
453.9699, 18330.68
454.4521, 18342.77
454.9342, 18355.22
455.4163, 18346.99
455.8984, 18315.47
456.3805, 18278.16
456.8626, 18203.90
457.3448, 18157.04
457.8269, 18177.30
458.3090, 18233.46
458.7911, 18275.86
459.2732, 18283.23
459.7553, 18271.51
460.2375, 18254.62
460.7196, 18232.18
461.2017, 18239.29
461.6838, 18304.11
462.1659, 18371.04
462.6480, 18391.18
463.1302, 18370.62
463.6123, 18336.49
464.0944, 18271.61
464.5765, 18215.31
465.0586, 18216.28
465.5407, 18260.12
466.0229, 18285.54
466.5050, 18262.91
466.9871, 18219.10
467.4692, 18207.93
467.9513, 18256.64
468.4334, 18280.70
468.9156, 18253.72
469.3977, 18225.48
469.8798, 18234.68
470.3619, 18270.71
470.8440, 18295.15
471.3261, 18281.70
471.8083, 18246.11
472.2904, 18238.08
472.7725, 18273.67
473.2546, 18293.07
473.7367, 18266.83
474.2188, 18232.04
474.7010, 18214.32
475.1831, 18213.25
475.6652, 18207.97
476.1473, 18178.88
476.6294, 18141.05
477.1115, 18119.86
477.5937, 18116.01
478.0758, 18122.49
478.5579, 18141.61
479.0400, 18164.10
479.5221, 18165.76
480.0042, 18139.46
480.4864, 18114.16
480.9685, 18088.22
481.4506, 18070.39
481.9327, 18076.40
482.4148, 18101.60
482.8969, 18119.07
483.3791, 18106.15
483.8612, 18071.48
484.3433, 18064.76
484.8254, 18112.00
485.3075, 18144.57
485.7896, 18144.06
486.2718, 18133.00
486.7539, 18128.59
487.2360, 18132.79
487.7181, 18137.64
488.2002, 18135.43
488.6823, 18129.16
489.1645, 18127.21
489.6466, 18129.24
490.1287, 18138.49
490.6108, 18162.64
491.0929, 18191.94
491.5750, 18206.70
492.0572, 18204.31
492.5393, 18195.55
493.0214, 18177.41
493.5035, 18158.51
493.9856, 18154.10
494.4677, 18162.44
494.9499, 18161.20
495.4320, 18131.23
495.9141, 18078.57
496.3962, 18041.51
496.8783, 18025.47
497.3604, 18019.09
497.8426, 18028.21
498.3247, 18041.15
498.8068, 18047.44
499.2889, 18046.60
499.7710, 18047.17
500.2531, 18068.86
500.7353, 18097.15
501.2174, 18059.70
501.6995, 17931.33
502.1816, 17846.05
502.6637, 17893.20
503.1458, 17999.97
503.6280, 18047.13
504.1101, 18018.69
504.5922, 17989.10
505.0743, 17989.49
505.5564, 18001.37
506.0385, 18006.32
506.5207, 18001.96
507.0028, 17986.81
507.4849, 17956.38
507.9670, 17919.18
508.4491, 17913.70
508.9312, 17980.53
509.4134, 18019.68
509.8955, 18009.36
510.3776, 17983.66
510.8597, 17961.60
511.3418, 17947.58
511.8239, 17942.85
512.3061, 17950.81
512.7882, 17967.08
513.2703, 17982.30
513.7524, 17998.03
514.2346, 18002.04
514.7167, 17985.48
515.1988, 17958.57
515.6809, 17934.31
516.1630, 17912.73
516.6451, 17892.44
517.1273, 17862.62
517.6094, 17841.44
518.0915, 17856.87
518.5736, 17899.20
519.0557, 17927.91
519.5378, 17920.99
520.0200, 17889.50
520.5021, 17857.84
520.9842, 17813.82
521.4663, 17793.80
521.9484, 17826.36
522.4305, 17853.37
522.9127, 17836.42
523.3948, 17787.94
523.8769, 17744.06
524.3590, 17722.96
524.8411, 17717.13
525.3232, 17714.83
525.8054, 17716.10
526.2875, 17727.18
526.7696, 17756.11
527.2517, 17784.68
527.7338, 17788.79
528.2159, 17771.86
528.6981, 17762.67
529.1802, 17781.93
529.6623, 17793.48
530.1444, 17764.59
530.6265, 17714.69
531.1086, 17681.08
531.5908, 17676.47
532.0729, 17690.91
532.5550, 17714.46
533.0371, 17752.16
533.5192, 17767.58
534.0013, 17736.62
534.4835, 17710.49
534.9656, 17708.55
535.4477, 17719.07
535.9298, 17727.19
536.4119, 17729.09
536.8940, 17723.95
537.3762, 17702.16
537.8583, 17672.38
538.3404, 17669.52
538.8225, 17701.96
539.3046, 17726.19
539.7867, 17701.49
540.2689, 17643.74
540.7510, 17632.47
541.2331, 17715.24
541.7152, 17773.83
542.1973, 17778.28
542.6794, 17752.01
543.1616, 17700.40
543.6437, 17635.68
544.1258, 17596.49
544.6079, 17621.10
545.0900, 17688.64
545.5721, 17701.50
546.0543, 17633.97
546.5364, 17582.32
547.0185, 17586.06
547.5006, 17603.68
547.9827, 17602.35
548.4648, 17582.57
548.9469, 17567.01
549.4290, 17573.36
549.9111, 17583.39
550.3932, 17570.29
550.8754, 17541.02
551.3575, 17529.69
551.8396, 17551.94
552.3217, 17587.60
552.8038, 17604.79
553.2859, 17600.39
553.7681, 17587.14
554.2502, 17546.91
554.7323, 17518.36
555.2144, 17530.72
555.6965, 17560.74
556.1786, 17567.11
556.6608, 17533.92
557.1429, 17496.14
557.6250, 17502.58
558.1071, 17546.49
558.5892, 17573.57
559.0714, 17578.86
559.5535, 17566.45
560.0356, 17527.27
560.5177, 17473.65
560.9998, 17445.53
561.4819, 17459.84
561.9641, 17470.34
562.4462, 17447.27
562.9283, 17422.58
563.4104, 17442.30
563.8925, 17501.01
564.3746, 17546.60
564.8568, 17539.30
565.3389, 17492.81
565.8210, 17459.56
566.3031, 17439.50
566.7852, 17432.97
567.2673, 17463.78
567.7495, 17488.86
568.2316, 17473.67
568.7137, 17425.71
569.1958, 17384.01
569.6779, 17358.68
570.1600, 17352.30
570.6422, 17379.85
571.1243, 17429.91
571.6064, 17466.58
572.0885, 17479.60
572.5706, 17467.63
573.0527, 17423.07
573.5349, 17338.79
574.0170, 17288.80
574.4991, 17289.01
574.9812, 17302.07
575.4633, 17335.21
575.9454, 17367.79
576.4276, 17372.21
576.9097, 17344.80
577.3918, 17315.98
577.8739, 17317.99
578.3560, 17340.62
578.8381, 17346.66
579.3203, 17333.18
579.8024, 17325.85
580.2845, 17341.73
580.7666, 17365.85
581.2487, 17363.60
581.7308, 17323.15
582.2130, 17309.23
582.6951, 17360.44
583.1772, 17414.01
583.6593, 17430.63
584.1414, 17416.01
584.6235, 17383.99
585.1057, 17340.66
585.5878, 17302.00
586.0699, 17300.39
586.5520, 17340.79
587.0341, 17359.71
587.5162, 17349.42
587.9984, 17325.12
588.4805, 17278.49
588.9626, 17228.04
589.4447, 17208.30
589.9268, 17235.74
590.4089, 17262.08
590.8911, 17268.97
591.3732, 17259.05
591.8553, 17220.34
592.3374, 17162.02
592.8195, 17135.71
593.3016, 17181.84
593.7838, 17266.40
594.2659, 17276.54
594.7480, 17159.21
595.2301, 17093.60
595.7122, 17149.37
596.1943, 17210.59
596.6765, 17216.19
597.1586, 17181.24
597.6407, 17150.61
598.1228, 17142.63
598.6049, 17140.69
599.0870, 17126.44
599.5692, 17106.79
600.0513, 17102.86
600.5334, 17118.74
601.0155, 17133.48
601.4976, 17126.42
601.9797, 17102.52
602.4619, 17102.83
602.9440, 17166.95
603.4261, 17200.76
603.9082, 17179.89
604.3903, 17140.50
604.8724, 17101.28
605.3546, 17067.99
605.8367, 17047.61
606.3188, 17047.45
606.8009, 17057.63
607.2830, 17063.69
607.7651, 17066.34
608.2473, 17073.75
608.7294, 17090.65
609.2115, 17101.45
609.6936, 17085.82
610.1757, 17043.65
610.6578, 17024.73
611.1400, 17056.43
611.6221, 17074.49
612.1042, 17049.52
612.5863, 17012.98
613.0684, 16994.71
613.5505, 16998.93
614.0327, 17016.97
614.5148, 17054.00
614.9969, 17090.53
615.4790, 17065.40
615.9611, 16974.89
616.4432, 16907.81
616.9254, 16893.33
617.4075, 16905.31
617.8896, 16920.88
618.3717, 16940.16
618.8538, 16948.26
619.3359, 16941.88
619.8181, 16927.42
620.3002, 16892.04
620.7823, 16857.52
621.2644, 16854.01
621.7465, 16884.69
622.2286, 16926.08
622.7108, 16960.18
623.1929, 16986.80
623.6750, 17004.75
624.1571, 17014.07
624.6392, 17014.70
625.1213, 17007.43
625.6035, 16990.47
626.0856, 16951.40
626.5677, 16891.80
627.0498, 16860.67
627.5319, 16899.87
628.0140, 16931.22
628.4962, 16900.81
628.9783, 16843.49
629.4604, 16809.44
629.9425, 16810.88
630.4246, 16832.09
630.9067, 16863.37
631.3889, 16900.37
631.8710, 16918.65
632.3531, 16915.89
632.8352, 16902.73
633.3173, 16874.23
633.7994, 16844.32
634.2816, 16829.94
634.7637, 16830.21
635.2458, 16828.61
635.7279, 16814.90
636.2100, 16805.96
636.6921, 16822.39
637.1743, 16845.70
637.6564, 16842.44
638.1385, 16807.27
638.6206, 16767.67
639.1027, 16751.03
639.5848, 16753.86
640.0670, 16757.08
640.5491, 16763.14
641.0312, 16759.43
641.5133, 16727.30
641.9954, 16698.66
642.4775, 16718.29
642.9597, 16780.56
643.4418, 16812.69
643.9239, 16776.68
644.4060, 16731.46
644.8881, 16696.27
645.3702, 16677.93
645.8524, 16700.32
646.3345, 16760.16
646.8166, 16803.96
647.2987, 16775.27
647.7808, 16692.96
648.2629, 16647.95
648.7451, 16649.31
649.2272, 16652.51
649.7093, 16642.50
650.1914, 16634.80
650.6735, 16652.24
651.1556, 16689.38
651.6378, 16706.51
652.1199, 16680.21
652.6020, 16651.66
653.0841, 16641.13
653.5662, 16639.32
654.0483, 16630.62
654.5305, 16614.72
655.0126, 16608.77
655.4947, 16631.07
655.9768, 16667.86
656.4589, 16667.82
656.9410, 16622.75
657.4232, 16593.66
657.9053, 16605.68
658.3874, 16619.26
658.8695, 16587.79
659.3516, 16524.23
659.8337, 16488.04
660.3159, 16506.40
660.7980, 16525.54
661.2801, 16529.48
661.7622, 16523.82
662.2443, 16508.81
662.7264, 16489.09
663.2086, 16478.94
663.6907, 16489.74
664.1728, 16510.51
664.6549, 16514.90
665.1370, 16502.13
665.6191, 16500.66
666.1013, 16519.66
666.5834, 16539.56
667.0655, 16550.03
667.5476, 16549.18
668.0297, 16530.88
668.5118, 16474.84
668.9940, 16434.48
669.4761, 16426.55
669.9582, 16432.73
670.4403, 16439.15
670.9224, 16446.70
671.4045, 16468.31
671.8867, 16513.82
672.3688, 16550.94
672.8509, 16518.10
673.3330, 16428.57
673.8151, 16382.41
674.2972, 16394.64
674.7794, 16418.29
675.2615, 16431.77
675.7436, 16432.99
676.2257, 16414.28
676.7078, 16357.29
677.1899, 16320.58
677.6721, 16316.49
678.1542, 16321.90
678.6363, 16331.57
679.1184, 16340.21
679.6005, 16337.92
680.0826, 16321.60
680.5648, 16309.20
681.0469, 16327.55
681.5290, 16359.96
682.0111, 16362.27
682.4932, 16334.35
682.9753, 16307.35
683.4575, 16293.95
683.9396, 16290.67
684.4217, 16294.77
684.9038, 16311.54
685.3859, 16307.28
685.8680, 16253.50
686.3502, 16212.71
686.8323, 16203.87
687.3144, 16212.91
687.7965, 16230.19
688.2786, 16252.29
688.7607, 16267.03
689.2429, 16266.20
689.7250, 16255.47
690.2071, 16233.85
690.6892, 16207.73
691.1713, 16199.41
691.6534, 16214.45
692.1356, 16228.47
692.6177, 16211.81
693.0998, 16172.45
693.5819, 16189.73
694.0640, 16312.56
694.5461, 16383.15
695.0283, 16333.03
695.5104, 16256.60
695.9925, 16210.71
696.4746, 16192.48
696.9567, 16185.82
697.4388, 16193.01
697.9210, 16201.52
698.4031, 16203.69
698.8852, 16203.98
699.3673, 16204.88
699.8494, 16208.90
700.3315, 16226.28
700.8137, 16266.04
701.2958, 16308.52
701.7779, 16310.99
702.2600, 16271.87
702.7421, 16223.17
703.2242, 16157.62
703.7064, 16108.46
704.1885, 16098.12
704.6706, 16116.83
705.1527, 16143.70
705.6348, 16188.11
706.1169, 16213.45
706.5991, 16205.35
707.0812, 16186.34
707.5633, 16171.95
708.0454, 16155.34
708.5275, 16114.95
709.0096, 16046.46
709.4918, 15991.32
709.9739, 16003.92
710.4560, 16055.98
710.9381, 16074.70
711.4202, 16060.69
711.9023, 16039.12
712.3845, 16015.95
712.8666, 16001.54
713.3487, 16011.33
713.8308, 16046.97
714.3129, 16071.84
714.7950, 16083.45
715.2772, 16086.98
715.7593, 16079.92
716.2414, 16067.88
716.7235, 16050.26
717.2056, 16030.78
717.6877, 16024.03
718.1699, 16052.23
718.6520, 16071.48
719.1341, 16034.16
719.6162, 15969.05
720.0983, 15918.15
720.5804, 15890.37
721.0626, 15893.60
721.5447, 15937.84
722.0268, 15997.20
722.5089, 16001.82
722.9910, 15940.13
723.4731, 15904.72
723.9553, 15910.29
724.4374, 15927.37
724.9195, 15946.40
725.4016, 15963.30
725.8837, 15969.70
726.3658, 15962.81
726.8480, 15954.87
727.3301, 15943.82
727.8122, 15936.63
728.2943, 15941.32
728.7764, 15951.20
729.2585, 15960.64
729.7407, 15966.08
730.2228, 15953.56
730.7049, 15892.84
731.1870, 15812.41
731.6691, 15784.50
732.1512, 15803.28
732.6334, 15809.08
733.1155, 15781.44
733.5976, 15758.69
734.0797, 15785.96
734.5618, 15856.93
735.0439, 15888.22
735.5261, 15858.41
736.0082, 15824.28
736.4903, 15782.12
736.9724, 15746.93
737.4545, 15728.43
737.9366, 15724.29
738.4188, 15728.63
738.9009, 15745.05
739.3830, 15757.02
739.8651, 15752.59
740.3472, 15740.55
740.8293, 15729.72
741.3115, 15720.91
741.7936, 15710.18
742.2757, 15695.67
742.7578, 15688.12
743.2399, 15709.67
743.7220, 15757.10
744.2042, 15784.28
744.6863, 15788.05
745.1684, 15785.62
745.6505, 15781.98
746.1326, 15777.84
746.6147, 15775.84
747.0969, 15777.36
747.5790, 15766.69
748.0611, 15728.94
748.5432, 15698.83
749.0253, 15682.21
749.5074, 15678.21
749.9896, 15694.45
750.4717, 15723.77
750.9538, 15740.42
751.4359, 15729.07
751.9180, 15706.78
752.4001, 15686.69
752.8823, 15667.74
753.3644, 15645.74
753.8465, 15621.78
754.3286, 15609.44
754.8107, 15619.01
755.2928, 15628.37
755.7750, 15579.09
756.2571, 15457.66
756.7392, 15412.57
757.2213, 15472.92
757.7034, 15543.72
758.1855, 15592.34
758.6677, 15623.03
759.1498, 15641.84
759.6319, 15649.08
760.1140, 15645.25
760.5961, 15628.94
761.0782, 15603.22
761.5604, 15549.44
762.0425, 15499.81
762.5246, 15496.53
763.0067, 15535.21
763.4888, 15569.06
763.9709, 15568.06
764.4531, 15557.01
764.9352, 15568.00
765.4173, 15590.69
765.8994, 15595.85
766.3815, 15581.49
766.8636, 15573.10
767.3458, 15588.01
767.8279, 15611.07
768.3100, 15604.99
768.7921, 15561.45
769.2742, 15542.59
769.7563, 15566.87
770.2385, 15577.47
770.7206, 15533.49
771.2027, 15473.52
771.6848, 15458.91
772.1669, 15494.17
772.6490, 15511.53
773.1312, 15485.88
773.6133, 15461.95
774.0954, 15461.69
774.5775, 15468.66
775.0596, 15464.56
775.5417, 15448.97
776.0239, 15432.19
776.5060, 15417.27
776.9881, 15409.01
777.4702, 15417.84
777.9523, 15436.21
778.4344, 15444.87
778.9166, 15442.99
779.3987, 15447.41
779.8808, 15469.27
780.3629, 15490.37
780.8450, 15473.48
781.3271, 15414.21
781.8093, 15357.20
782.2914, 15292.41
782.7735, 15257.83
783.2556, 15283.80
783.7377, 15332.13
784.2198, 15352.79
784.7020, 15345.05
785.1841, 15346.14
785.6662, 15381.78
786.1483, 15395.03
786.6304, 15337.84
787.1125, 15277.92
787.5947, 15287.52
788.0768, 15348.68
788.5589, 15382.40
789.0410, 15345.97
789.5231, 15305.72
790.0052, 15329.51
790.4874, 15379.61
790.9695, 15398.71
791.4516, 15385.50
791.9337, 15355.30
792.4158, 15314.46
792.8979, 15275.75
793.3801, 15255.85
793.8622, 15253.81
794.3443, 15264.48
794.8264, 15291.95
795.3085, 15304.68
795.7906, 15288.07
796.2728, 15266.04
796.7549, 15264.03
797.2370, 15279.18
797.7191, 15280.74
798.2012, 15241.59
798.6833, 15228.09
799.1655, 15282.02
799.6476, 15323.75
800.1297, 15296.06
800.6118, 15226.58
801.0939, 15166.29
801.5760, 15124.95
802.0582, 15107.21
802.5403, 15133.48
803.0224, 15168.52
803.5045, 15184.58
803.9866, 15183.93
804.4688, 15168.33
804.9509, 15141.70
805.4330, 15123.02
805.9151, 15132.02
806.3972, 15154.46
806.8793, 15158.36
807.3615, 15146.31
807.8436, 15138.14
808.3257, 15137.42
808.8078, 15136.57
809.2899, 15130.17
809.7720, 15121.03
810.2542, 15116.73
810.7363, 15119.32
811.2184, 15119.78
811.7005, 15122.81
812.1826, 15115.89
812.6647, 15081.80
813.1469, 15043.50
813.6290, 15031.40
814.1111, 15045.56
814.5932, 15049.50
815.0753, 15020.75
815.5574, 15002.92
816.0396, 15020.73
816.5217, 15048.19
817.0038, 15065.44
817.4859, 15070.33
817.9680, 15064.97
818.4501, 15048.49
818.9323, 15030.50
819.4144, 15013.38
819.8965, 15003.09
820.3786, 15018.23
820.8607, 15049.46
821.3428, 15058.61
821.8250, 15033.18
822.3071, 15004.94
822.7892, 15015.23
823.2713, 15048.51
823.7534, 15025.96
824.2355, 14942.91
824.7177, 14902.73
825.1998, 14934.03
825.6819, 14984.10
826.1640, 15019.86
826.6461, 15039.03
827.1282, 15030.61
827.6104, 14969.57
828.0925, 14939.08
828.5746, 14964.37
829.0567, 14989.53
829.5388, 14999.42
830.0209, 14995.53
830.5031, 14974.42
830.9852, 14936.38
831.4673, 14907.59
831.9494, 14898.58
832.4315, 14894.84
832.9136, 14887.07
833.3958, 14883.67
833.8779, 14899.79
834.3600, 14928.51
834.8421, 14945.46
835.3242, 14938.33
835.8063, 14925.26
836.2885, 14923.69
836.7706, 14926.72
837.2527, 14918.11
837.7348, 14903.06
838.2169, 14907.91
838.6990, 14939.99
839.1812, 14968.68
839.6633, 14959.22
840.1454, 14922.60
840.6275, 14900.01
841.1096, 14891.78
841.5917, 14876.26
842.0739, 14845.93
842.5560, 14828.03
843.0381, 14845.90
843.5202, 14882.46
844.0023, 14893.17
844.4844, 14866.47
844.9666, 14852.71
845.4487, 14859.58
845.9308, 14867.94
846.4129, 14888.74
846.8950, 14895.88
847.3771, 14842.57
847.8593, 14737.50
848.3414, 14688.93
848.8235, 14771.26
849.3056, 14830.60
849.7877, 14809.41
850.2698, 14764.01
850.7520, 14722.77
851.2341, 14696.05
851.7162, 14703.57
852.1983, 14754.32
852.6804, 14792.62
853.1625, 14765.17
853.6447, 14721.43
854.1268, 14714.12
854.6089, 14731.12
855.0910, 14747.74
855.5731, 14756.96
856.0552, 14756.86
856.5374, 14743.68
857.0195, 14727.17
857.5016, 14729.29
857.9837, 14743.81
858.4658, 14737.52
858.9479, 14708.45
859.4301, 14693.99
859.9122, 14713.50
860.3943, 14741.11
860.8764, 14737.81
861.3585, 14705.20
861.8406, 14687.64
862.3228, 14687.63
862.8049, 14694.41
863.2870, 14711.45
863.7691, 14723.77
864.2512, 14720.16
864.7333, 14702.38
865.2155, 14675.42
865.6976, 14620.36
866.1797, 14595.77
866.6618, 14633.26
867.1439, 14662.07
867.6260, 14645.99
868.1082, 14615.83
868.5903, 14608.99
869.0724, 14626.03
869.5545, 14635.90
870.0366, 14624.66
870.5187, 14612.71
871.0009, 14604.24
871.4830, 14601.35
871.9651, 14610.45
872.4472, 14625.73
872.9293, 14635.87
873.4114, 14637.31
873.8936, 14628.50
874.3757, 14599.13
874.8578, 14566.53
875.3399, 14544.25
875.8220, 14535.56
876.3041, 14554.40
876.7863, 14596.90
877.2684, 14630.29
877.7505, 14632.15
878.2326, 14614.53
878.7147, 14589.59
879.1968, 14561.73
879.6790, 14551.22
880.1611, 14557.62
880.6432, 14560.42
881.1253, 14551.60
881.6074, 14531.74
882.0895, 14496.92
882.5717, 14453.36
883.0538, 14445.29
883.5359, 14478.60
884.0180, 14503.12
884.5001, 14508.92
884.9822, 14511.10
885.4644, 14519.89
885.9465, 14530.46
886.4286, 14530.88
886.9107, 14516.16
887.3928, 14514.91
887.8749, 14546.55
888.3571, 14559.93
888.8392, 14523.42
889.3213, 14479.44
889.8034, 14470.33
890.2855, 14486.53
890.7676, 14482.99
891.2498, 14436.07
891.7319, 14406.89
892.2140, 14410.55
892.6961, 14426.38
893.1782, 14459.88
893.6603, 14490.07
894.1425, 14483.01
894.6246, 14437.78
895.1067, 14401.20
895.5888, 14400.08
896.0709, 14402.56
896.5530, 14389.62
897.0352, 14373.21
897.5173, 14359.99
897.9994, 14355.33
898.4815, 14374.49
898.9636, 14423.21
899.4457, 14462.11
899.9279, 14447.33
900.4100, 14415.05
900.8921, 14414.99
901.3742, 14430.79
901.8563, 14420.30
902.3384, 14382.04
902.8206, 14354.82
903.3027, 14364.75
903.7848, 14385.74
904.2669, 14373.21
904.7490, 14341.54
905.2311, 14341.86
905.7133, 14371.05
906.1954, 14388.05
906.6775, 14379.53
907.1596, 14362.87
907.6417, 14354.38
908.1238, 14351.17
908.6060, 14340.85
909.0881, 14323.26
909.5702, 14324.30
910.0523, 14350.03
910.5344, 14369.61
911.0165, 14369.18
911.4987, 14350.81
911.9808, 14311.62
912.4629, 14252.39
912.9450, 14233.97
913.4271, 14273.47
913.9092, 14298.33
914.3914, 14289.12
914.8735, 14276.85
915.3556, 14284.76
915.8377, 14301.92
916.3198, 14302.36
916.8019, 14280.64
917.2841, 14262.36
917.7662, 14240.48
918.2483, 14232.08
918.7304, 14263.10
919.2125, 14290.05
919.6946, 14269.40
920.1768, 14215.14
920.6589, 14180.89
921.1410, 14180.33
921.6231, 14177.96
922.1052, 14170.58
922.5873, 14158.21
923.0695, 14128.30
923.5516, 14101.45
924.0337, 14107.39
924.5158, 14143.15
924.9979, 14171.69
925.4800, 14189.14
925.9622, 14185.84
926.4443, 14138.30
926.9264, 14086.77
927.4085, 14055.97
927.8906, 14047.67
928.3727, 14069.91
928.8549, 14120.00
929.3370, 14153.79
929.8191, 14129.63
930.3012, 14099.92
930.7833, 14105.30
931.2654, 14126.65
931.7476, 14143.69
932.2297, 14154.22
932.7118, 14161.00
933.1939, 14165.14
933.6760, 14166.03
934.1581, 14162.34
934.6403, 14155.78
935.1224, 14149.09
935.6045, 14141.06
936.0866, 14126.62
936.5687, 14107.58
937.0508, 14094.16
937.5330, 14091.90
938.0151, 14095.92
938.4972, 14106.69
938.9793, 14116.72
939.4614, 14106.11
939.9435, 14078.78
940.4257, 14048.10
940.9078, 14018.31
941.3899, 13995.01
941.8720, 13980.97
942.3541, 13981.64
942.8362, 14021.02
943.3184, 14085.98
943.8005, 14099.00
944.2826, 14061.58
944.7647, 14037.74
945.2468, 14047.36
945.7289, 14067.36
946.2111, 14077.86
946.6932, 14081.38
947.1753, 14086.23
947.6574, 14092.36
948.1395, 14084.95
948.6216, 14061.01
949.1038, 14049.44
949.5859, 14063.32
950.0680, 14084.79
950.5501, 14096.28
951.0322, 14096.41
951.5143, 14071.58
951.9965, 14013.87
952.4786, 13987.25
952.9607, 14007.55
953.4428, 14021.11
953.9249, 13998.52
954.4070, 13967.02
954.8892, 13966.41
955.3713, 13994.34
955.8534, 13994.79
956.3355, 13952.01
956.8176, 13933.29
957.2997, 13963.78
957.7819, 13981.62
958.2640, 13940.51
958.7461, 13881.70
959.2282, 13877.75
959.7103, 13934.76
960.1924, 13957.53
960.6746, 13920.34
961.1567, 13901.14
961.6388, 13924.68
962.1209, 13950.21
962.6030, 13950.77
963.0851, 13937.72
963.5673, 13933.06
964.0494, 13938.05
964.5315, 13944.81
965.0136, 13963.80
965.4957, 13969.34
965.9778, 13950.95
966.4600, 13923.79
966.9421, 13885.47
967.4242, 13848.05
967.9063, 13844.58
968.3884, 13890.70
968.8705, 13910.49
969.3527, 13871.23
969.8348, 13844.26
970.3169, 13856.51
970.7990, 13879.20
971.2811, 13893.47
971.7632, 13900.16
972.2454, 13904.80
972.7275, 13911.41
973.2096, 13903.36
973.6917, 13867.87
974.1738, 13830.73
974.6559, 13785.89
975.1381, 13755.92
975.6202, 13776.57
976.1023, 13828.04
976.5844, 13844.91
977.0665, 13802.57
977.5486, 13773.67
978.0308, 13788.26
978.5129, 13802.65
978.9950, 13797.34
979.4771, 13783.04
979.9592, 13772.27
980.4413, 13762.83
980.9235, 13738.83
981.4056, 13680.87
981.8877, 13659.11
982.3698, 13740.52
982.8519, 13809.11
983.3340, 13791.25
983.8162, 13740.19
984.2983, 13710.56
984.7804, 13704.78
985.2625, 13705.96
985.7446, 13710.84
986.2267, 13718.93
986.7089, 13730.25
987.1910, 13744.58
987.6731, 13771.99
988.1552, 13795.39
988.6373, 13790.00
989.1194, 13760.63
989.6016, 13735.49
990.0837, 13722.57
990.5658, 13716.01
991.0479, 13718.35
991.5300, 13720.98
992.0121, 13716.70
992.4943, 13710.64
992.9764, 13710.82
993.4585, 13715.99
993.9406, 13716.70
994.4227, 13707.78
994.9048, 13700.16
995.3870, 13706.07
995.8691, 13706.95
996.3512, 13680.56
996.8333, 13647.87
997.3154, 13641.07
997.7975, 13655.76
998.2797, 13654.38
998.7618, 13614.02
999.2439, 13587.06
999.7260, 13611.77
1000.208, 13643.13
1000.690, 13648.17
1001.172, 13642.14
1001.654, 13646.33
1002.137, 13660.90
1002.619, 13674.15
1003.101, 13684.37
1003.583, 13685.71
1004.065, 13664.67
1004.547, 13645.50
1005.029, 13647.11
1005.511, 13659.13
1005.994, 13665.08
1006.476, 13667.33
1006.958, 13688.00
1007.440, 13748.79
1007.922, 13779.06
1008.404, 13723.54
1008.886, 13652.51
1009.368, 13597.39
1009.850, 13562.73
1010.333, 13554.88
1010.815, 13569.68
1011.297, 13596.93
1011.779, 13644.62
1012.261, 13663.21
1012.743, 13600.93
1013.225, 13538.04
1013.707, 13525.39
1014.190, 13537.40
1014.672, 13550.35
1015.154, 13559.04
1015.636, 13560.26
1016.118, 13552.35
1016.600, 13540.24
1017.082, 13513.35
1017.564, 13497.48
1018.046, 13522.14
1018.529, 13552.69
1019.011, 13550.69
1019.493, 13522.92
1019.975, 13498.19
1020.457, 13482.27
1020.939, 13474.04
1021.421, 13474.59
1021.903, 13480.87
1022.385, 13501.95
1022.868, 13519.17
1023.350, 13508.33
1023.832, 13480.89
1024.314, 13470.79
1024.796, 13488.68
1025.278, 13494.46
1025.760, 13449.12
1026.242, 13427.51
1026.725, 13496.18
1027.207, 13563.99
1027.689, 13543.04
1028.171, 13468.79
1028.653, 13422.56
1029.135, 13416.47
1029.617, 13424.26
1030.099, 13456.57
1030.582, 13480.84
1031.064, 13496.93
1031.546, 13493.69
1032.028, 13441.19
1032.510, 13373.46
1032.992, 13356.23
1033.474, 13398.68
1033.956, 13425.49
1034.438, 13417.64
1034.921, 13410.42
1035.403, 13399.60
1035.885, 13401.54
1036.367, 13436.33
1036.849, 13483.58
1037.331, 13519.34
1037.813, 13543.80
1038.295, 13533.35
1038.777, 13451.36
1039.260, 13394.02
1039.742, 13381.98
1040.224, 13375.20
1040.706, 13350.47
1041.188, 13327.48
1041.670, 13336.74
1042.152, 13373.46
1042.634, 13382.22
1043.116, 13335.34
1043.599, 13323.43
1044.081, 13373.11
1044.563, 13413.59
1045.045, 13415.45
1045.527, 13402.96
1046.009, 13401.48
1046.491, 13406.57
1046.973, 13396.15
1047.456, 13362.29
1047.938, 13340.03
1048.420, 13332.27
1048.902, 13328.98
1049.384, 13329.20
1049.866, 13326.87
1050.348, 13313.62
1050.830, 13298.45
1051.313, 13308.80
1051.795, 13348.63
1052.277, 13375.55
1052.759, 13389.59
1053.241, 13386.29
1053.723, 13361.03
1054.205, 13337.78
1054.687, 13332.68
1055.169, 13338.55
1055.651, 13341.79
1056.134, 13343.22
1056.616, 13357.69
1057.098, 13385.13
1057.580, 13382.99
1058.062, 13343.52
1058.544, 13321.27
1059.026, 13345.87
1059.508, 13388.89
1059.991, 13415.05
1060.473, 13427.48
1060.955, 13435.00
1061.437, 13438.25
1061.919, 13437.13
1062.401, 13433.71
1062.883, 13443.06
1063.365, 13470.81
1063.848, 13508.23
1064.330, 13548.47
1064.812, 13589.42
1065.294, 13623.95
1065.776, 13656.90
1066.258, 13690.76
1066.740, 13734.41
1067.222, 13824.42
1067.704, 13963.11
1068.187, 14094.63
1068.669, 14178.28
1069.151, 14248.03
1069.633, 14371.53
1070.115, 14482.70
1070.597, 14487.59
1071.079, 14408.49
1071.561, 14283.46
1072.043, 14130.31
1072.526, 13968.46
1073.008, 13801.62
1073.490, 13658.72
1073.972, 13574.83
1074.454, 13507.13
1074.936, 13407.31
1075.418, 13311.08
1075.900, 13268.30
1076.383, 13268.19
1076.865, 13272.65
1077.347, 13271.92
1077.829, 13264.73
1078.311, 13243.36
1078.793, 13224.92
1079.275, 13218.33
1079.757, 13216.52
1080.240, 13217.56
1080.722, 13217.76
1081.204, 13209.01
1081.686, 13191.45
1082.168, 13183.48
1082.650, 13204.10
1083.132, 13210.31
1083.614, 13178.97
1084.096, 13151.90
1084.578, 13151.41
1085.061, 13162.04
1085.543, 13170.79
1086.025, 13176.31
1086.507, 13172.70
1086.989, 13162.59
1087.471, 13133.97
1087.953, 13063.10
1088.435, 13023.53
1088.918, 13044.42
1089.400, 13084.22
1089.882, 13120.84
1090.364, 13145.67
1090.846, 13135.24
1091.328, 13087.41
1091.810, 13069.21
1092.292, 13085.97
1092.775, 13100.12
1093.257, 13106.29
1093.739, 13104.26
1094.221, 13092.90
1094.703, 13078.21
1095.185, 13066.32
1095.667, 13059.13
1096.149, 13069.44
1096.631, 13093.25
1097.114, 13093.33
1097.596, 13070.48
1098.078, 13066.51
1098.560, 13093.10
1099.042, 13110.66
1099.524, 13084.25
1100.006, 13046.68
1100.488, 13054.88
1100.970, 13085.01
1101.453, 13088.90
1101.935, 13072.80
1102.417, 13051.80
1102.899, 13033.08
1103.381, 13033.50
1103.863, 13062.67
1104.345, 13080.89
1104.827, 13037.40
1105.310, 12987.35
1105.792, 12982.40
1106.274, 12999.72
1106.756, 13019.10
1107.238, 13033.72
1107.720, 13035.30
1108.202, 13022.77
1108.684, 13007.85
1109.167, 12980.07
1109.649, 12973.92
1110.131, 13038.68
1110.613, 13088.15
1111.095, 13042.62
1111.577, 12970.44
1112.059, 12961.34
1112.541, 13006.97
1113.023, 13036.94
1113.505, 13045.49
1113.988, 13036.87
1114.470, 12992.40
1114.952, 12961.64
1115.434, 12965.89
1115.916, 12971.67
1116.398, 12954.29
1116.880, 12926.10
1117.362, 12910.62
1117.845, 12907.91
1118.327, 12897.84
1118.809, 12876.51
1119.291, 12873.38
1119.773, 12896.02
1120.255, 12906.25
1120.737, 12885.22
1121.219, 12865.87
1121.702, 12884.03
1122.184, 12924.15
1122.666, 12946.06
1123.148, 12953.16
1123.630, 12968.06
1124.112, 12986.95
1124.594, 12977.88
1125.076, 12938.52
1125.558, 12909.86
1126.041, 12915.80
1126.523, 12931.03
1127.005, 12928.46
1127.487, 12917.20
1127.969, 12904.92
1128.451, 12895.75
1128.933, 12905.89
1129.415, 12922.64
1129.897, 12906.79
1130.380, 12852.05
1130.862, 12805.12
1131.344, 12784.15
1131.826, 12785.81
1132.308, 12834.10
1132.790, 12875.79
1133.272, 12858.47
1133.754, 12825.43
1134.237, 12834.55
1134.719, 12877.54
1135.201, 12904.12
1135.683, 12904.39
1136.165, 12901.57
1136.647, 12896.79
1137.129, 12889.70
1137.611, 12879.25
1138.094, 12867.96
1138.576, 12857.30
1139.058, 12846.06
1139.540, 12829.61
1140.022, 12810.55
1140.504, 12815.93
1140.986, 12849.81
1141.468, 12879.96
1141.950, 12905.63
1142.432, 12907.39
1142.915, 12877.00
1143.397, 12859.68
1143.879, 12895.44
1144.361, 12939.51
1144.843, 12895.87
1145.325, 12803.24
1145.807, 12784.88
1146.289, 12819.38
1146.772, 12842.46
1147.254, 12845.01
1147.736, 12834.03
1148.218, 12813.55
1148.700, 12800.10
1149.182, 12810.89
1149.664, 12825.01
1150.146, 12830.21
1150.629, 12823.74
1151.111, 12794.63
1151.593, 12756.96
1152.075, 12723.33
1152.557, 12700.82
1153.039, 12709.74
1153.521, 12769.45
1154.003, 12802.48
1154.485, 12761.59
1154.968, 12733.11
1155.450, 12762.02
1155.932, 12789.63
1156.414, 12772.11
1156.896, 12738.05
1157.378, 12730.82
1157.860, 12747.26
1158.342, 12750.04
1158.824, 12737.30
1159.307, 12715.86
1159.789, 12681.53
1160.271, 12671.25
1160.753, 12700.31
1161.235, 12716.14
1161.717, 12676.29
1162.199, 12623.79
1162.681, 12642.85
1163.164, 12704.29
1163.646, 12702.47
1164.128, 12659.16
1164.610, 12642.36
1165.092, 12655.62
1165.574, 12679.89
1166.056, 12706.15
1166.538, 12717.92
1167.021, 12701.42
1167.503, 12674.30
1167.985, 12634.99
1168.467, 12608.31
1168.949, 12630.14
1169.431, 12668.06
1169.913, 12687.26
1170.395, 12684.49
1170.877, 12656.54
1171.359, 12595.59
1171.842, 12571.72
1172.324, 12639.17
1172.806, 12678.61
1173.288, 12656.03
1173.770, 12624.10
1174.252, 12589.67
1174.734, 12579.03
1175.216, 12632.98
1175.699, 12722.49
1176.181, 12739.94
1176.663, 12678.47
1177.145, 12642.91
1177.627, 12633.57
1178.109, 12633.39
1178.591, 12638.67
1179.073, 12630.67
1179.556, 12600.08
1180.038, 12585.48
1180.520, 12639.61
1181.002, 12711.79
1181.484, 12717.84
1181.966, 12685.65
1182.448, 12648.51
1182.930, 12617.74
1183.412, 12614.68
1183.895, 12634.30
1184.377, 12645.11
1184.859, 12635.11
1185.341, 12619.72
1185.823, 12598.39
1186.305, 12583.52
1186.787, 12582.33
1187.269, 12587.20
1187.751, 12600.08
1188.234, 12610.96
1188.716, 12604.44
1189.198, 12583.34
1189.680, 12564.78
1190.162, 12547.40
1190.644, 12538.74
1191.126, 12542.37
1191.608, 12536.16
1192.091, 12512.54
1192.573, 12500.73
1193.055, 12519.43
1193.537, 12539.82
1194.019, 12519.39
1194.501, 12483.88
1194.983, 12508.10
1195.465, 12563.91
1195.948, 12571.61
1196.430, 12543.69
1196.912, 12529.23
1197.394, 12536.82
1197.876, 12553.18
1198.358, 12574.76
1198.840, 12579.79
1199.322, 12533.54
1199.804, 12494.19
1200.286, 12502.34
1200.769, 12522.69
1201.251, 12528.96
1201.733, 12528.27
1202.215, 12540.15
1202.697, 12559.70
1203.179, 12544.34
1203.661, 12468.85
1204.143, 12442.11
1204.626, 12480.08
1205.108, 12517.56
1205.590, 12544.96
1206.072, 12553.13
1206.554, 12534.77
1207.036, 12509.99
1207.518, 12502.94
1208.000, 12506.45
1208.483, 12507.09
1208.965, 12502.02
1209.447, 12474.82
1209.929, 12436.32
1210.411, 12421.68
1210.893, 12431.33
1211.375, 12439.56
1211.857, 12436.23
1212.339, 12426.96
1212.822, 12406.61
1213.304, 12392.88
1213.786, 12407.71
1214.268, 12418.50
1214.750, 12387.51
1215.232, 12350.46
1215.714, 12359.67
1216.196, 12401.55
1216.678, 12418.18
1217.161, 12401.19
1217.643, 12417.05
1218.125, 12484.80
1218.607, 12498.70
1219.089, 12436.21
1219.571, 12371.34
1220.053, 12333.03
1220.535, 12322.52
1221.018, 12342.88
1221.500, 12383.01
1221.982, 12436.67
1222.464, 12487.46
1222.946, 12496.24
1223.428, 12477.96
1223.910, 12463.68
1224.392, 12452.87
1224.875, 12423.56
1225.357, 12373.67
1225.839, 12347.21
1226.321, 12380.68
1226.803, 12405.57
1227.285, 12392.43
1227.767, 12374.54
1228.249, 12359.03
1228.731, 12352.63
1229.214, 12366.79
1229.696, 12386.69
1230.178, 12387.09
1230.660, 12369.12
1231.142, 12341.77
1231.624, 12304.11
1232.106, 12281.42
1232.588, 12275.05
1233.070, 12281.47
1233.553, 12298.55
1234.035, 12312.80
1234.517, 12316.33
1234.999, 12322.33
1235.481, 12354.40
1235.963, 12384.57
1236.445, 12384.54
1236.927, 12363.54
1237.410, 12313.90
1237.892, 12261.55
1238.374, 12249.13
1238.856, 12271.55
1239.338, 12289.46
1239.820, 12297.46
1240.302, 12297.02
1240.784, 12291.25
1241.266, 12269.03
1241.749, 12214.73
1242.231, 12182.85
1242.713, 12201.10
##END=



