##NAMES=Plattnerite
##RRUFFID=R070605
##IDEAL CHEMISTRY=Pb^4+^O_2_
##LOCALITY=Ojuela mine, Mapimi, Durango, Mexico
##OWNER=RRUFF
##SOURCE=James Shigley
##DESCRIPTION=Black tarnished metallic prismatic crystals.
##STATUS=The identification of this mineral is confirmed by single-crystal X-ray diffraction and chemical analysis.
##URL=rruff.info/R070605
##MEASURED CHEMISTRY=Pb_1.00_O_2_
87.59052, 3878.295
88.07263, 4146.667
88.55475, 4410.695
89.03687, 4707.437
89.51898, 5043.387
90.00110, 5412.768
90.48322, 5806.079
90.96533, 6219.961
91.44745, 6652.831
91.92957, 7111.336
92.41168, 7594.099
92.89380, 8104.157
93.37592, 8650.819
93.85803, 9228.650
94.34015, 9818.994
94.82227, 10401.72
95.30438, 10955.20
95.78650, 11558.63
96.26862, 12243.78
96.75073, 12955.41
97.23285, 13655.91
97.71497, 14333.22
98.19708, 14985.16
98.67920, 15600.01
99.16132, 16163.66
99.64343, 16724.20
100.1255, 17317.70
100.6077, 17925.19
101.0898, 18426.64
101.5719, 18555.84
102.0540, 18490.36
102.5361, 18447.65
103.0182, 18430.73
103.5004, 18430.39
103.9825, 18434.70
104.4646, 18439.98
104.9467, 18466.58
105.4288, 18548.02
105.9109, 18652.30
106.3931, 18737.25
106.8752, 18774.10
107.3573, 18775.49
107.8394, 18787.85
108.3215, 18788.73
108.8036, 18828.81
109.2858, 18941.81
109.7679, 19109.89
110.2500, 19286.31
110.7321, 19410.67
111.2142, 19447.07
111.6964, 19577.93
112.1785, 19852.41
112.6606, 20172.08
113.1427, 20496.79
113.6248, 20814.23
114.1069, 21124.82
114.5891, 21427.25
115.0712, 21668.58
115.5533, 21976.67
116.0354, 22368.41
116.5175, 22816.03
116.9996, 23293.06
117.4818, 23785.99
117.9639, 24295.36
118.4460, 24825.85
118.9281, 25365.62
119.4102, 25935.85
119.8923, 26538.47
120.3745, 27174.74
120.8566, 27849.14
121.3387, 28567.29
121.8208, 29332.97
122.3029, 30121.89
122.7850, 30943.58
123.2672, 31781.95
123.7493, 32621.43
124.2314, 33461.34
124.7135, 34307.21
125.1956, 35190.80
125.6777, 36093.54
126.1599, 36980.57
126.6420, 37818.41
127.1241, 38625.75
127.6062, 39470.74
128.0883, 40366.23
128.5704, 41298.95
129.0526, 42262.15
129.5347, 43252.03
130.0168, 44257.66
130.4989, 45269.64
130.9810, 46297.33
131.4631, 47323.35
131.9453, 48331.19
132.4274, 49347.50
132.9095, 50398.82
133.3916, 51492.65
133.8737, 52588.62
134.3558, 53651.22
134.8380, 54806.62
135.3201, 55659.73
135.8022, 56117.41
136.2843, 56337.01
136.7664, 56454.05
137.2485, 56534.25
137.7307, 56550.73
138.2128, 56389.64
138.6949, 56021.43
139.1770, 55491.36
139.6591, 54802.43
140.1412, 53954.02
140.6234, 52940.75
141.1055, 51741.74
141.5876, 50362.44
142.0697, 48949.41
142.5518, 47453.46
143.0339, 45972.00
143.5161, 44532.27
143.9982, 43141.86
144.4803, 41822.87
144.9624, 40596.12
145.4445, 39476.17
145.9266, 38384.52
146.4088, 37345.00
146.8909, 36320.45
147.3730, 35261.93
147.8551, 34148.48
148.3372, 33044.96
148.8193, 32022.51
149.3015, 31072.69
149.7836, 30173.73
150.2657, 29312.92
150.7478, 28497.30
151.2299, 27731.43
151.7121, 27029.81
152.1942, 26374.12
152.6763, 25740.47
153.1584, 25127.91
153.6405, 24529.31
154.1226, 23934.82
154.6048, 23341.25
155.0869, 22775.00
155.5690, 22235.84
156.0511, 21731.85
156.5332, 21270.68
157.0153, 20856.13
157.4975, 20474.42
157.9796, 20110.66
158.4617, 19768.01
158.9438, 19431.46
159.4259, 19082.46
159.9080, 18742.96
160.3902, 18436.15
160.8723, 18171.85
161.3544, 17938.59
161.8365, 17706.80
162.3186, 17474.74
162.8007, 17249.37
163.2829, 17036.21
163.7650, 16829.16
164.2471, 16617.56
164.7292, 16394.44
165.2113, 16162.33
165.6934, 15959.10
166.1756, 15803.51
166.6577, 15656.03
167.1398, 15513.11
167.6219, 15371.95
168.1040, 15226.70
168.5861, 15071.63
169.0683, 14905.03
169.5504, 14759.84
170.0325, 14651.50
170.5146, 14547.13
170.9967, 14423.40
171.4788, 14282.79
171.9610, 14150.89
172.4431, 14054.20
172.9252, 14003.46
173.4073, 13941.39
173.8894, 13866.77
174.3715, 13782.20
174.8537, 13680.69
175.3358, 13560.14
175.8179, 13448.53
176.3000, 13391.81
176.7821, 13395.05
177.2642, 13376.81
177.7464, 13310.03
178.2285, 13214.11
178.7106, 13116.50
179.1927, 13018.80
179.6748, 12932.40
180.1569, 12876.21
180.6391, 12849.33
181.1212, 12826.55
181.6033, 12798.22
182.0854, 12764.79
182.5675, 12728.67
183.0496, 12691.11
183.5318, 12649.56
184.0139, 12596.83
184.4960, 12530.23
184.9781, 12474.96
185.4602, 12460.08
185.9423, 12486.11
186.4245, 12499.45
186.9066, 12471.57
187.3887, 12432.96
187.8708, 12407.38
188.3529, 12399.88
188.8350, 12398.97
189.3172, 12395.08
189.7993, 12391.91
190.2814, 12370.76
190.7635, 12306.38
191.2456, 12233.55
191.7277, 12175.55
192.2099, 12140.38
192.6920, 12125.53
193.1741, 12130.69
193.6562, 12172.98
194.1383, 12200.75
194.6204, 12196.28
195.1026, 12177.74
195.5847, 12163.30
196.0668, 12161.71
196.5489, 12168.07
197.0310, 12166.14
197.5131, 12145.49
197.9953, 12129.74
198.4774, 12132.49
198.9595, 12139.68
199.4416, 12130.47
199.9237, 12090.69
200.4058, 12027.37
200.8880, 11988.45
201.3701, 11999.50
201.8522, 12010.70
202.3343, 12010.71
202.8164, 12004.90
203.2985, 12005.11
203.7807, 12020.48
204.2628, 12050.30
204.7449, 12066.97
205.2270, 12058.10
205.7091, 12050.24
206.1912, 12056.04
206.6734, 12070.63
207.1555, 12079.16
207.6376, 12068.47
208.1197, 12036.82
208.6018, 12022.39
209.0839, 12036.67
209.5661, 12054.03
210.0482, 12062.54
210.5303, 12062.54
211.0124, 12060.56
211.4945, 12062.65
211.9766, 12069.46
212.4588, 12070.16
212.9409, 12062.48
213.4230, 12051.06
213.9051, 12035.04
214.3872, 12015.70
214.8693, 12002.33
215.3515, 12006.42
215.8336, 12030.99
216.3157, 12042.83
216.7978, 12029.21
217.2799, 12009.83
217.7620, 12001.08
218.2442, 12005.09
218.7263, 12017.50
219.2084, 12040.47
219.6905, 12073.63
220.1726, 12087.70
220.6547, 12064.87
221.1369, 12027.08
221.6190, 11996.69
222.1011, 11975.84
222.5832, 11967.38
223.0653, 11984.94
223.5474, 12024.19
224.0296, 12049.27
224.5117, 12039.18
224.9938, 12012.44
225.4759, 12003.97
225.9580, 12025.71
226.4401, 12044.85
226.9223, 12014.85
227.4044, 11946.27
227.8865, 11897.38
228.3686, 11911.67
228.8507, 11960.11
229.3328, 11971.41
229.8150, 11919.42
230.2971, 11862.04
230.7792, 11859.68
231.2613, 11901.92
231.7434, 11935.34
232.2255, 11931.36
232.7077, 11897.51
233.1898, 11854.82
233.6719, 11793.50
234.1540, 11743.36
234.6361, 11732.07
235.1182, 11753.41
235.6004, 11775.14
236.0825, 11776.13
236.5646, 11760.14
237.0467, 11748.37
237.5288, 11747.61
238.0109, 11745.48
238.4931, 11733.54
238.9752, 11712.79
239.4573, 11688.92
239.9394, 11663.99
240.4215, 11638.39
240.9036, 11616.91
241.3858, 11603.34
241.8679, 11590.77
242.3500, 11578.21
242.8321, 11564.35
243.3142, 11543.79
243.7963, 11502.95
244.2785, 11442.88
244.7606, 11410.14
245.2427, 11435.19
245.7248, 11462.27
246.2069, 11461.24
246.6890, 11434.59
247.1712, 11401.74
247.6533, 11376.76
248.1354, 11359.72
248.6175, 11348.01
249.0996, 11350.68
249.5817, 11350.17
250.0639, 11333.41
250.5460, 11303.89
251.0281, 11277.72
251.5102, 11270.26
251.9923, 11282.95
252.4744, 11296.15
252.9566, 11316.04
253.4387, 11330.39
253.9208, 11333.88
254.4029, 11326.96
254.8850, 11313.08
255.3671, 11290.89
255.8493, 11258.05
256.3314, 11240.11
256.8135, 11261.19
257.2956, 11277.52
257.7777, 11264.04
258.2599, 11227.81
258.7420, 11197.03
259.2241, 11202.94
259.7062, 11250.74
260.1883, 11278.29
260.6704, 11258.26
261.1526, 11239.88
261.6347, 11247.82
262.1168, 11274.86
262.5989, 11293.92
263.0810, 11274.59
263.5631, 11211.28
264.0453, 11178.54
264.5274, 11210.27
265.0095, 11244.70
265.4916, 11263.69
265.9737, 11267.99
266.4558, 11265.96
266.9380, 11262.62
267.4201, 11257.47
267.9022, 11261.43
268.3843, 11299.96
268.8664, 11324.34
269.3485, 11312.50
269.8307, 11272.82
270.3128, 11226.65
270.7949, 11187.85
271.2770, 11156.07
271.7591, 11144.98
272.2412, 11173.33
272.7234, 11206.54
273.2055, 11242.61
273.6876, 11276.77
274.1697, 11300.60
274.6518, 11306.35
275.1339, 11294.72
275.6161, 11288.14
276.0982, 11294.58
276.5803, 11298.52
277.0624, 11292.09
277.5445, 11280.52
278.0266, 11274.81
278.5088, 11283.97
278.9909, 11305.90
279.4730, 11315.68
279.9551, 11292.28
280.4372, 11278.48
280.9193, 11290.08
281.4015, 11316.47
281.8836, 11340.68
282.3657, 11352.54
282.8478, 11353.14
283.3299, 11348.93
283.8120, 11330.94
284.2942, 11318.67
284.7763, 11320.19
285.2584, 11328.57
285.7405, 11331.30
286.2226, 11319.65
286.7047, 11302.27
287.1869, 11316.27
287.6690, 11404.05
288.1511, 11468.18
288.6332, 11483.97
289.1153, 11471.96
289.5974, 11454.41
290.0796, 11441.72
290.5617, 11433.14
291.0438, 11426.51
291.5259, 11419.89
292.0080, 11418.86
292.4901, 11424.67
292.9723, 11435.48
293.4544, 11450.03
293.9365, 11467.80
294.4186, 11487.89
294.9007, 11509.75
295.3828, 11542.33
295.8650, 11559.46
296.3471, 11546.35
296.8292, 11526.12
297.3113, 11515.74
297.7934, 11520.89
298.2755, 11540.40
298.7577, 11578.20
299.2398, 11658.97
299.7219, 11700.66
300.2040, 11660.96
300.6861, 11610.80
301.1682, 11605.31
301.6504, 11653.60
302.1325, 11716.97
302.6146, 11738.20
303.0967, 11696.25
303.5788, 11677.04
304.0609, 11696.58
304.5431, 11728.91
305.0252, 11769.26
305.5073, 11812.42
305.9894, 11844.81
306.4715, 11842.11
306.9536, 11789.53
307.4358, 11773.03
307.9179, 11835.32
308.4000, 11899.13
308.8821, 11930.72
309.3642, 11932.49
309.8463, 11928.14
310.3285, 11939.24
310.8106, 11966.66
311.2927, 11988.12
311.7748, 12001.85
312.2569, 12010.50
312.7390, 12009.69
313.2212, 12004.13
313.7033, 12004.33
314.1854, 12018.73
314.6675, 12045.80
315.1496, 12074.75
315.6317, 12118.19
316.1139, 12145.26
316.5960, 12136.67
317.0781, 12107.36
317.5602, 12082.36
318.0423, 12077.05
318.5244, 12084.84
319.0066, 12084.37
319.4887, 12072.87
319.9708, 12058.13
320.4529, 12038.96
320.9350, 12019.86
321.4171, 12010.48
321.8993, 12020.13
322.3814, 12028.81
322.8635, 11989.30
323.3456, 11878.13
323.8277, 11790.35
324.3098, 11773.01
324.7920, 11783.99
325.2741, 11791.35
325.7562, 11787.32
326.2383, 11773.34
326.7204, 11749.14
327.2025, 11713.77
327.6847, 11676.34
328.1668, 11636.46
328.6489, 11597.46
329.1310, 11562.41
329.6131, 11531.82
330.0952, 11503.26
330.5774, 11475.43
331.0595, 11448.22
331.5416, 11422.53
332.0237, 11410.44
332.5058, 11385.25
332.9879, 11320.02
333.4701, 11216.85
333.9522, 11114.67
334.4343, 11027.60
334.9164, 10958.35
335.3985, 10922.16
335.8806, 10934.16
336.3628, 10954.10
336.8449, 10950.09
337.3270, 10926.34
337.8091, 10895.85
338.2912, 10866.03
338.7733, 10831.84
339.2555, 10779.18
339.7376, 10701.94
340.2197, 10630.32
340.7018, 10591.32
341.1839, 10575.43
341.6660, 10559.44
342.1482, 10543.39
342.6303, 10522.57
343.1124, 10491.16
343.5945, 10449.43
344.0766, 10403.27
344.5587, 10352.89
345.0409, 10301.80
345.5230, 10258.85
346.0051, 10227.79
346.4872, 10200.44
346.9693, 10177.25
347.4514, 10155.14
347.9336, 10121.90
348.4157, 10069.58
348.8978, 10006.42
349.3799, 9949.841
349.8620, 9897.229
350.3441, 9854.228
350.8263, 9825.483
351.3084, 9806.698
351.7905, 9792.242
352.2726, 9780.705
352.7547, 9770.666
353.2368, 9761.603
353.7190, 9758.125
354.2011, 9740.191
354.6832, 9688.820
355.1653, 9632.016
355.6474, 9598.917
356.1295, 9592.861
356.6117, 9593.751
357.0938, 9580.964
357.5759, 9551.513
358.0580, 9523.530
358.5401, 9494.849
359.0222, 9469.359
359.5044, 9448.253
359.9865, 9432.095
360.4686, 9421.911
360.9507, 9419.313
361.4328, 9423.848
361.9149, 9425.974
362.3971, 9438.145
362.8792, 9434.502
363.3613, 9388.295
363.8434, 9325.687
364.3255, 9289.354
364.8076, 9301.801
365.2898, 9347.927
365.7719, 9381.583
366.2540, 9407.348
366.7361, 9411.230
367.2182, 9373.144
367.7003, 9324.630
368.1825, 9297.535
368.6646, 9300.176
369.1467, 9312.450
369.6288, 9299.499
370.1109, 9243.347
370.5930, 9213.183
371.0752, 9239.502
371.5573, 9268.692
372.0394, 9268.053
372.5215, 9238.964
373.0036, 9206.757
373.4857, 9195.246
373.9679, 9204.903
374.4500, 9213.851
374.9321, 9218.043
375.4142, 9226.522
375.8963, 9249.756
376.3784, 9279.633
376.8606, 9298.965
377.3427, 9295.408
377.8248, 9276.162
378.3069, 9261.229
378.7890, 9253.424
379.2711, 9242.279
379.7533, 9203.382
380.2354, 9165.736
380.7175, 9170.544
381.1996, 9242.980
381.6817, 9326.521
382.1638, 9350.952
382.6460, 9315.880
383.1281, 9288.315
383.6102, 9290.511
384.0923, 9310.102
384.5744, 9333.360
385.0565, 9361.799
385.5387, 9382.968
386.0208, 9384.979
386.5029, 9374.622
386.9850, 9368.243
387.4671, 9368.401
387.9492, 9374.887
388.4314, 9391.030
388.9135, 9415.803
389.3956, 9437.053
389.8777, 9456.306
390.3598, 9468.454
390.8419, 9460.572
391.3241, 9433.976
391.8062, 9416.407
392.2883, 9429.924
392.7704, 9472.316
393.2525, 9509.919
393.7346, 9539.604
394.2168, 9567.902
394.6989, 9605.055
395.1810, 9642.771
395.6631, 9660.425
396.1452, 9646.250
396.6273, 9613.352
397.1095, 9597.133
397.5916, 9608.917
398.0737, 9623.371
398.5558, 9648.658
399.0379, 9671.322
399.5201, 9672.656
400.0022, 9650.870
400.4843, 9626.925
400.9664, 9630.246
401.4485, 9672.613
401.9306, 9701.534
402.4128, 9710.698
402.8949, 9714.354
403.3770, 9721.068
403.8591, 9728.441
404.3412, 9726.640
404.8233, 9705.078
405.3055, 9667.749
405.7876, 9650.140
406.2697, 9657.244
406.7518, 9679.114
407.2339, 9730.678
407.7160, 9787.508
408.1982, 9820.012
408.6803, 9815.694
409.1624, 9785.751
409.6445, 9736.385
410.1266, 9656.612
410.6087, 9614.924
411.0909, 9668.046
411.5730, 9739.109
412.0551, 9769.811
412.5372, 9755.306
413.0193, 9734.763
413.5014, 9742.388
413.9836, 9768.836
414.4657, 9773.981
414.9478, 9746.759
415.4299, 9711.900
415.9120, 9684.427
416.3941, 9664.711
416.8763, 9657.673
417.3584, 9686.252
417.8405, 9714.411
418.3226, 9695.722
418.8047, 9632.158
419.2868, 9570.606
419.7690, 9533.913
420.2511, 9520.410
420.7332, 9521.577
421.2153, 9559.089
421.6974, 9579.438
422.1795, 9548.783
422.6617, 9491.763
423.1438, 9450.005
423.6259, 9437.146
424.1080, 9439.367
424.5901, 9436.557
425.0722, 9429.063
425.5544, 9414.177
426.0365, 9385.278
426.5186, 9354.589
427.0007, 9330.978
427.4828, 9314.148
427.9649, 9298.299
428.4471, 9278.740
428.9292, 9255.616
429.4113, 9232.560
429.8934, 9202.801
430.3755, 9181.037
430.8576, 9178.783
431.3398, 9183.396
431.8219, 9176.225
432.3040, 9148.612
432.7861, 9113.004
433.2682, 9096.109
433.7503, 9108.538
434.2325, 9105.593
434.7146, 9072.137
435.1967, 9026.387
435.6788, 8968.306
436.1609, 8902.330
436.6430, 8853.706
437.1252, 8857.520
437.6073, 8900.029
438.0894, 8908.475
438.5715, 8864.986
439.0536, 8817.422
439.5357, 8800.057
440.0179, 8801.614
440.5000, 8800.833
440.9821, 8795.813
441.4642, 8782.871
441.9463, 8753.632
442.4284, 8710.508
442.9106, 8671.043
443.3927, 8643.479
443.8748, 8623.882
444.3569, 8604.839
444.8390, 8588.937
445.3211, 8567.105
445.8033, 8526.224
446.2854, 8482.717
446.7675, 8459.311
447.2496, 8459.697
447.7317, 8468.863
448.2138, 8472.569
448.6960, 8471.186
449.1781, 8459.326
449.6602, 8432.794
450.1423, 8401.747
450.6244, 8364.533
451.1065, 8326.556
451.5887, 8299.198
452.0708, 8289.853
452.5529, 8290.525
453.0350, 8275.518
453.5171, 8229.626
453.9992, 8195.170
454.4814, 8191.031
454.9635, 8188.962
455.4456, 8162.170
455.9277, 8108.712
456.4098, 8054.799
456.8919, 8031.589
457.3741, 8038.113
457.8562, 8029.838
458.3383, 7994.347
458.8204, 7959.964
459.3026, 7947.476
459.7847, 7947.067
460.2668, 7936.894
460.7489, 7899.209
461.2310, 7857.572
461.7131, 7852.477
462.1953, 7882.303
462.6774, 7885.342
463.1595, 7824.507
463.6416, 7734.041
464.1237, 7676.407
464.6058, 7659.143
465.0880, 7642.821
465.5701, 7607.594
466.0522, 7568.329
466.5343, 7551.218
467.0164, 7559.482
467.4985, 7564.576
467.9807, 7536.614
468.4628, 7472.195
468.9449, 7428.867
469.4270, 7417.948
469.9091, 7412.990
470.3912, 7404.831
470.8734, 7395.521
471.3555, 7391.637
471.8376, 7396.568
472.3197, 7403.393
472.8018, 7395.922
473.2839, 7368.526
473.7661, 7338.263
474.2482, 7296.856
474.7303, 7260.229
475.2124, 7242.184
475.6945, 7240.684
476.1766, 7239.712
476.6588, 7224.803
477.1409, 7198.843
477.6230, 7177.030
478.1051, 7155.950
478.5872, 7146.894
479.0693, 7173.307
479.5515, 7209.769
480.0336, 7220.528
480.5157, 7192.805
480.9978, 7148.426
481.4799, 7094.667
481.9620, 7037.019
482.4442, 7000.217
482.9263, 6994.261
483.4084, 7003.907
483.8905, 7010.642
484.3726, 7013.792
484.8547, 7021.347
485.3369, 7047.074
485.8190, 7067.667
486.3011, 7059.068
486.7832, 7026.761
487.2653, 6996.120
487.7474, 6983.566
488.2296, 6985.805
488.7117, 6987.966
489.1938, 6989.413
489.6759, 6991.514
490.1580, 6991.843
490.6401, 6994.306
491.1223, 7005.607
491.6044, 7025.477
492.0865, 7043.473
492.5686, 7047.429
493.0507, 7036.497
493.5328, 7024.672
494.0150, 7008.973
494.4971, 6996.621
494.9792, 6994.678
495.4613, 6997.106
495.9434, 6992.278
496.4255, 6972.445
496.9077, 6949.862
497.3898, 6940.865
497.8719, 6944.735
498.3540, 6948.389
498.8361, 6948.213
499.3182, 6945.765
499.8004, 6943.196
500.2825, 6940.610
500.7646, 6936.723
501.2467, 6927.699
501.7288, 6919.467
502.2109, 6917.067
502.6931, 6921.006
503.1752, 6932.317
503.6573, 6954.129
504.1394, 6982.541
504.6215, 6994.487
505.1036, 6971.498
505.5858, 6955.492
506.0679, 6959.074
506.5500, 6967.554
507.0321, 6962.737
507.5142, 6942.469
507.9963, 6923.465
508.4785, 6928.740
508.9606, 6961.612
509.4427, 6976.098
509.9248, 6962.349
510.4069, 6941.457
510.8890, 6912.126
511.3712, 6883.877
511.8533, 6872.452
512.3354, 6886.296
512.8175, 6913.214
513.2996, 6944.489
513.7817, 6979.190
514.2639, 7001.414
514.7460, 7007.768
515.2281, 6998.862
515.7102, 6965.330
516.1923, 6907.318
516.6744, 6869.505
517.1566, 6873.727
517.6387, 6892.904
518.1208, 6908.984
518.6029, 6919.574
519.0850, 6921.781
519.5671, 6912.380
520.0493, 6896.208
520.5314, 6890.112
521.0135, 6909.317
521.4956, 6918.541
521.9777, 6913.750
522.4598, 6900.906
522.9420, 6881.470
523.4241, 6857.712
523.9062, 6836.072
524.3883, 6822.768
524.8704, 6817.183
525.3525, 6813.371
525.8347, 6813.738
526.3168, 6811.457
526.7989, 6800.587
527.2810, 6787.142
527.7631, 6778.624
528.2452, 6777.455
528.7274, 6777.871
529.2095, 6776.252
529.6916, 6772.538
530.1737, 6766.741
530.6558, 6759.006
531.1379, 6748.087
531.6201, 6729.530
532.1022, 6703.746
532.5843, 6691.071
533.0664, 6711.311
533.5485, 6724.816
534.0306, 6706.088
534.5128, 6668.110
534.9949, 6634.785
535.4770, 6615.756
535.9591, 6606.621
536.4412, 6601.612
536.9233, 6606.173
537.4055, 6599.885
537.8876, 6568.218
538.3697, 6540.084
538.8518, 6530.823
539.3339, 6535.584
539.8160, 6541.549
540.2982, 6542.430
540.7803, 6539.427
541.2624, 6533.998
541.7445, 6525.865
542.2266, 6518.884
542.7087, 6518.031
543.1909, 6514.838
543.6730, 6498.443
544.1551, 6468.688
544.6372, 6439.273
545.1193, 6414.878
545.6014, 6393.135
546.0836, 6367.788
546.5657, 6340.722
547.0478, 6327.006
547.5299, 6338.806
548.0120, 6365.229
548.4941, 6368.381
548.9763, 6322.247
549.4584, 6285.588
549.9405, 6256.331
550.4226, 6238.927
550.9047, 6243.006
551.3868, 6264.750
551.8690, 6285.814
552.3511, 6289.403
552.8332, 6279.408
553.3153, 6280.662
553.7974, 6303.167
554.2795, 6313.745
554.7617, 6284.706
555.2438, 6245.431
555.7259, 6225.687
556.2080, 6231.527
556.6901, 6240.847
557.1722, 6238.976
557.6544, 6231.697
558.1365, 6231.577
558.6186, 6240.329
559.1007, 6247.031
559.5828, 6242.619
560.0649, 6228.913
560.5471, 6220.091
561.0292, 6214.432
561.5113, 6215.129
561.9934, 6228.582
562.4755, 6245.822
562.9576, 6258.189
563.4398, 6263.427
563.9219, 6262.722
564.4040, 6254.779
564.8861, 6239.608
565.3682, 6237.063
565.8503, 6254.075
566.3325, 6273.473
566.8146, 6290.040
567.2967, 6304.861
567.7788, 6318.199
568.2609, 6329.269
568.7430, 6343.464
569.2252, 6369.348
569.7073, 6401.789
570.1894, 6423.766
570.6715, 6431.423
571.1536, 6438.358
571.6357, 6457.569
572.1179, 6487.505
572.6000, 6506.719
573.0821, 6514.500
573.5642, 6513.483
574.0463, 6492.663
574.5284, 6468.657
575.0106, 6466.446
575.4927, 6490.644
575.9748, 6520.735
576.4569, 6530.740
576.9390, 6518.795
577.4211, 6519.851
577.9033, 6550.402
578.3854, 6571.099
578.8675, 6560.575
579.3496, 6535.902
579.8317, 6519.997
580.3138, 6520.053
580.7960, 6524.282
581.2781, 6525.424
581.7602, 6522.628
582.2423, 6513.497
582.7244, 6497.766
583.2065, 6474.253
583.6887, 6437.959
584.1708, 6390.853
584.6529, 6357.953
585.1350, 6351.724
585.6171, 6343.738
586.0992, 6325.126
586.5814, 6300.045
587.0635, 6276.728
587.5456, 6255.829
588.0277, 6225.970
588.5098, 6168.947
588.9919, 6083.735
589.4741, 6027.948
589.9562, 6024.320
590.4383, 6015.318
590.9204, 5980.273
591.4025, 5929.096
591.8846, 5869.360
592.3668, 5800.260
592.8489, 5739.501
593.3310, 5707.296
593.8131, 5692.090
594.2952, 5668.515
594.7773, 5633.197
595.2595, 5590.890
595.7416, 5541.855
596.2237, 5488.691
596.7058, 5451.685
597.1879, 5444.886
597.6700, 5433.743
598.1522, 5410.304
598.6343, 5380.809
599.1164, 5347.792
599.5985, 5313.877
600.0806, 5286.567
600.5627, 5275.927
601.0449, 5278.229
601.5270, 5266.031
602.0091, 5233.529
602.4912, 5200.002
602.9733, 5169.304
603.4554, 5142.799
603.9376, 5120.604
604.4197, 5102.397
604.9018, 5093.643
605.3839, 5112.755
605.8660, 5134.880
606.3481, 5117.625
606.8303, 5063.165
607.3124, 5018.250
607.7945, 5013.075
608.2766, 5035.168
608.7587, 5043.715
609.2408, 5030.835
609.7230, 5015.151
610.2051, 5004.449
610.6872, 4985.144
611.1693, 4935.530
611.6514, 4866.657
612.1335, 4817.612
612.6157, 4818.543
613.0978, 4847.523
613.5799, 4855.461
614.0620, 4840.362
614.5441, 4829.250
615.0262, 4832.941
615.5084, 4839.890
615.9905, 4837.416
616.4726, 4825.985
616.9547, 4808.354
617.4368, 4771.278
617.9189, 4740.418
618.4011, 4739.442
618.8832, 4758.673
619.3653, 4775.723
619.8474, 4781.409
620.3295, 4777.801
620.8116, 4767.878
621.2938, 4750.722
621.7759, 4730.547
622.2580, 4697.342
622.7401, 4672.043
623.2222, 4669.774
623.7043, 4678.844
624.1865, 4679.145
624.6686, 4663.270
625.1507, 4640.366
625.6328, 4610.935
626.1149, 4581.136
626.5970, 4575.851
627.0792, 4602.129
627.5613, 4625.970
628.0434, 4616.077
628.5255, 4575.798
629.0076, 4550.760
629.4897, 4550.686
629.9719, 4550.784
630.4540, 4545.243
630.9361, 4538.114
631.4182, 4534.541
631.9003, 4534.575
632.3824, 4533.204
632.8646, 4525.311
633.3467, 4512.506
633.8288, 4503.626
634.3109, 4501.477
634.7930, 4492.130
635.2751, 4464.571
635.7573, 4431.581
636.2394, 4409.240
636.7215, 4398.351
637.2036, 4390.158
637.6857, 4385.117
638.1678, 4379.167
638.6500, 4365.135
639.1321, 4346.591
639.6142, 4337.475
640.0963, 4345.217
640.5784, 4358.331
641.0605, 4352.353
641.5427, 4317.710
642.0248, 4291.076
642.5069, 4274.292
642.9890, 4264.466
643.4711, 4263.344
643.9532, 4268.022
644.4354, 4273.802
644.9175, 4280.162
645.3996, 4284.244
645.8817, 4285.525
646.3638, 4282.362
646.8459, 4268.096
647.3281, 4240.975
647.8102, 4210.350
648.2923, 4181.998
648.7744, 4156.747
649.2565, 4143.544
649.7386, 4153.146
650.2208, 4160.265
650.7029, 4167.576
651.1850, 4166.830
651.6671, 4143.056
652.1492, 4100.537
652.6313, 4065.493
653.1135, 4061.276
653.5956, 4077.204
654.0777, 4085.758
654.5598, 4086.916
655.0419, 4079.386
655.5240, 4056.553
656.0062, 4032.038
656.4883, 4028.746
656.9704, 4047.937
657.4525, 4056.708
657.9346, 4043.134
658.4167, 4025.437
658.8989, 4013.822
659.3810, 4006.182
659.8631, 3997.428
660.3452, 3985.689
660.8273, 3973.137
661.3094, 3964.487
661.7916, 3960.561
662.2737, 3946.209
662.7558, 3911.560
663.2379, 3884.146
663.7200, 3885.165
664.2021, 3898.381
664.6843, 3902.754
665.1664, 3894.398
665.6485, 3882.473
666.1306, 3866.659
666.6127, 3852.357
667.0948, 3851.569
667.5770, 3861.026
668.0591, 3858.849
668.5412, 3829.999
669.0233, 3787.232
669.5054, 3766.833
669.9875, 3780.088
670.4697, 3788.655
670.9518, 3783.452
671.4339, 3779.438
671.9160, 3790.114
672.3981, 3807.215
672.8802, 3808.386
673.3624, 3775.705
673.8445, 3744.210
674.3266, 3752.661
674.8087, 3786.391
675.2908, 3808.707
675.7729, 3812.495
676.2551, 3807.383
676.7372, 3801.043
677.2193, 3793.318
677.7014, 3782.512
678.1835, 3758.527
678.6656, 3745.510
679.1478, 3761.175
679.6299, 3776.943
680.1120, 3767.575
680.5941, 3735.053
681.0762, 3700.502
681.5583, 3673.953
682.0405, 3655.790
682.5226, 3647.254
683.0047, 3648.061
683.4868, 3660.154
683.9689, 3688.416
684.4510, 3711.718
684.9332, 3701.610
685.4153, 3653.205
685.8974, 3624.525
686.3795, 3625.431
686.8616, 3632.113
687.3438, 3643.315
687.8259, 3653.801
688.3080, 3658.325
688.7901, 3655.886
689.2722, 3649.099
689.7543, 3638.354
690.2365, 3625.383
690.7186, 3616.711
691.2007, 3612.823
691.6828, 3603.434
692.1649, 3580.648
692.6470, 3556.175
693.1292, 3548.086
693.6113, 3559.408
694.0934, 3573.484
694.5755, 3597.090
695.0576, 3615.706
695.5397, 3620.434
696.0219, 3616.403
696.5040, 3611.271
696.9861, 3607.588
697.4682, 3603.570
697.9503, 3598.057
698.4324, 3590.719
698.9146, 3577.550
699.3967, 3556.344
699.8788, 3539.994
700.3609, 3535.260
700.8430, 3538.446
701.3251, 3543.568
701.8073, 3551.569
702.2894, 3557.501
702.7715, 3563.447
703.2536, 3564.554
703.7357, 3550.720
704.2178, 3531.173
704.7000, 3526.164
705.1821, 3543.811
705.6642, 3566.113
706.1463, 3566.102
706.6284, 3545.883
707.1105, 3539.957
707.5927, 3556.579
708.0748, 3563.504
708.5569, 3532.823
709.0390, 3486.434
709.5211, 3476.210
710.0032, 3517.584
710.4854, 3547.330
710.9675, 3548.651
711.4496, 3538.846
711.9317, 3523.153
712.4138, 3507.444
712.8959, 3503.826
713.3781, 3518.332
713.8602, 3536.192
714.3423, 3534.002
714.8244, 3512.470
715.3065, 3492.562
715.7886, 3473.450
716.2708, 3463.308
716.7529, 3474.111
717.2350, 3494.728
717.7171, 3496.111
718.1992, 3469.365
718.6813, 3446.096
719.1635, 3432.386
719.6456, 3424.189
720.1277, 3418.510
720.6098, 3415.649
721.0919, 3418.374
721.5740, 3428.345
722.0562, 3439.746
722.5383, 3441.248
723.0204, 3433.678
723.5025, 3437.747
723.9846, 3460.652
724.4667, 3477.036
724.9489, 3467.482
725.4310, 3441.829
725.9131, 3427.828
726.3952, 3430.139
726.8773, 3432.151
727.3594, 3433.172
727.8416, 3431.139
728.3237, 3421.082
728.8058, 3407.072
729.2879, 3398.958
729.7700, 3401.543
730.2521, 3408.195
730.7343, 3410.202
731.2164, 3407.909
731.6985, 3403.175
732.1806, 3394.877
732.6627, 3390.528
733.1448, 3397.488
733.6270, 3410.012
734.1091, 3411.086
734.5912, 3392.383
735.0733, 3381.789
735.5554, 3387.546
736.0375, 3396.649
736.5197, 3401.165
737.0018, 3402.801
737.4839, 3407.592
737.9660, 3418.367
738.4481, 3427.418
738.9302, 3423.425
739.4124, 3409.691
739.8945, 3402.032
740.3766, 3402.575
740.8587, 3397.571
741.3408, 3376.818
741.8229, 3348.879
742.3051, 3334.589
742.7872, 3344.866
743.2693, 3345.043
743.7514, 3320.696
744.2335, 3301.521
744.7156, 3306.431
745.1978, 3324.643
745.6799, 3338.498
746.1620, 3342.338
746.6441, 3340.402
747.1262, 3332.968
747.6083, 3323.400
748.0905, 3319.775
748.5726, 3322.268
749.0547, 3326.461
749.5368, 3330.412
750.0189, 3334.370
750.5010, 3338.910
750.9832, 3344.569
751.4653, 3348.834
751.9474, 3354.309
752.4295, 3355.343
752.9116, 3349.962
753.3937, 3339.227
753.8759, 3321.082
754.3580, 3294.984
754.8401, 3276.862
755.3222, 3280.207
755.8043, 3294.704
756.2864, 3313.061
756.7686, 3331.522
757.2507, 3335.426
757.7328, 3318.597
758.2149, 3297.885
758.6970, 3298.083
759.1791, 3321.244
759.6613, 3331.399
760.1434, 3320.222
760.6255, 3310.308
761.1076, 3311.754
761.5897, 3315.792
762.0718, 3311.631
762.5540, 3299.053
763.0361, 3295.173
763.5182, 3319.559
764.0003, 3341.282
764.4824, 3330.800
764.9645, 3303.436
765.4467, 3290.655
765.9288, 3298.797
766.4109, 3306.118
766.8930, 3287.614
767.3751, 3251.807
767.8572, 3243.944
768.3394, 3269.992
768.8215, 3293.772
769.3036, 3307.012
769.7857, 3313.365
770.2678, 3314.896
770.7499, 3311.994
771.2321, 3309.055
771.7142, 3306.424
772.1963, 3303.668
772.6784, 3300.316
773.1605, 3297.006
773.6426, 3295.411
774.1248, 3294.777
774.6069, 3291.673
775.0890, 3283.413
775.5711, 3272.523
776.0532, 3259.787
776.5353, 3246.935
777.0175, 3249.154
777.4996, 3271.559
777.9817, 3292.630
778.4638, 3296.495
778.9459, 3285.594
779.4280, 3270.753
779.9102, 3240.162
780.3923, 3224.484
780.8744, 3239.387
781.3565, 3254.039
781.8386, 3248.938
782.3207, 3230.824
782.8029, 3216.233
783.2850, 3211.192
783.7671, 3207.720
784.2492, 3194.116
784.7313, 3180.937
785.2134, 3191.053
785.6956, 3220.816
786.1777, 3241.719
786.6598, 3238.805
787.1419, 3223.218
787.6240, 3214.985
788.1061, 3215.467
788.5883, 3214.236
789.0704, 3207.776
789.5525, 3206.188
790.0346, 3222.633
790.5167, 3241.726
790.9988, 3239.726
791.4810, 3212.051
791.9631, 3194.582
792.4452, 3206.206
792.9273, 3220.545
793.4094, 3218.167
793.8915, 3208.513
794.3737, 3209.411
794.8558, 3224.338
795.3379, 3239.692
795.8200, 3243.811
796.3021, 3238.406
796.7842, 3226.343
797.2664, 3207.640
797.7485, 3189.815
798.2306, 3173.809
798.7127, 3163.951
799.1948, 3167.184
799.6769, 3182.740
800.1591, 3188.007
800.6412, 3172.373
801.1233, 3160.454
801.6054, 3153.858
802.0875, 3152.250
802.5696, 3156.336
803.0518, 3165.173
803.5339, 3176.710
804.0160, 3192.783
804.4981, 3205.933
804.9802, 3209.478
805.4623, 3206.353
805.9445, 3199.652
806.4266, 3190.780
806.9087, 3183.641
807.3908, 3180.756
807.8729, 3180.111
808.3550, 3178.826
808.8372, 3177.771
809.3193, 3167.326
809.8014, 3140.890
810.2835, 3118.704
810.7656, 3112.580
811.2477, 3116.227
811.7299, 3116.871
812.2120, 3112.136
812.6941, 3114.632
813.1762, 3136.179
813.6583, 3154.591
814.1404, 3153.597
814.6226, 3144.304
815.1047, 3145.088
815.5868, 3159.090
816.0689, 3170.838
816.5510, 3166.480
817.0331, 3152.601
817.5153, 3139.899
817.9974, 3128.235
818.4795, 3116.916
818.9616, 3105.756
819.4437, 3095.257
819.9258, 3086.522
820.4080, 3078.899
820.8901, 3065.676
821.3722, 3037.869
821.8543, 3025.187
822.3364, 3047.760
822.8185, 3071.105
823.3007, 3070.179
823.7828, 3052.679
824.2649, 3040.423
824.7470, 3036.786
825.2291, 3039.543
825.7112, 3051.466
826.1934, 3066.573
826.6755, 3080.430
827.1576, 3092.604
827.6397, 3106.012
828.1218, 3122.147
828.6040, 3130.626
829.0861, 3110.614
829.5682, 3072.046
830.0504, 3056.284
830.5325, 3065.090
831.0146, 3072.788
831.4967, 3068.198
831.9788, 3060.069
832.4609, 3062.562
832.9431, 3078.145
833.4252, 3078.316
833.9073, 3041.650
834.3894, 3021.043
834.8715, 3043.598
835.3536, 3073.399
835.8358, 3079.987
836.3179, 3064.654
836.8000, 3046.963
837.2821, 3029.943
837.7642, 3016.022
838.2463, 3000.234
838.7285, 2992.041
839.2106, 3012.160
839.6927, 3053.878
840.1748, 3084.435
840.6569, 3084.253
841.1390, 3068.080
841.6212, 3047.571
842.1033, 3028.411
842.5854, 3055.130
843.0675, 3135.290
843.5496, 3223.258
844.0317, 3308.035
844.5139, 3362.236
844.9960, 3325.438
845.4781, 3162.917
845.9602, 3053.581
846.4423, 3020.788
846.9244, 3012.111
847.4066, 3034.169
847.8887, 3059.431
848.3708, 3055.631
848.8529, 3022.769
849.3350, 2996.968
849.8171, 2991.969
850.2993, 2996.006
850.7814, 3006.650
851.2635, 3019.654
851.7456, 3031.538
852.2277, 3040.387
852.7098, 3041.448
853.1920, 3030.060
853.6741, 3014.545
854.1562, 3009.113
854.6383, 3012.168
855.1204, 3015.766
855.6025, 3019.280
856.0847, 3015.467
856.5668, 2997.344
857.0489, 2975.644
857.5310, 2975.189
858.0131, 3005.600
858.4952, 3018.474
858.9774, 2999.439
859.4595, 2983.114
859.9416, 2987.437
860.4237, 2996.198
860.9058, 2988.491
861.3879, 2963.701
861.8701, 2950.351
862.3522, 2964.955
862.8343, 2981.859
863.3164, 2992.682
863.7985, 2996.094
864.2806, 2987.178
864.7628, 2968.729
865.2449, 2952.543
865.7270, 2945.929
866.2091, 2943.245
866.6912, 2938.039
867.1733, 2930.537
867.6555, 2919.392
868.1376, 2905.177
868.6197, 2896.636
869.1018, 2899.111
869.5839, 2907.023
870.0660, 2909.211
870.5482, 2904.105
871.0303, 2906.920
871.5124, 2921.236
871.9945, 2935.768
872.4766, 2950.050
872.9587, 2959.592
873.4409, 2955.395
873.9230, 2937.748
874.4051, 2926.842
874.8872, 2927.716
875.3693, 2930.538
875.8514, 2933.586
876.3336, 2936.687
876.8157, 2940.673
877.2978, 2944.660
877.7799, 2945.616
878.2620, 2940.956
878.7441, 2937.008
879.2263, 2940.346
879.7084, 2946.950
880.1905, 2955.809
880.6726, 2962.813
881.1547, 2949.981
881.6368, 2909.762
882.1190, 2870.056
882.6011, 2873.776
883.0832, 2912.780
883.5653, 2926.751
884.0474, 2912.652
884.5295, 2911.091
885.0117, 2939.364
885.4938, 2968.524
885.9759, 2967.697
886.4580, 2939.689
886.9401, 2917.864
887.4222, 2905.539
887.9044, 2893.624
888.3865, 2872.517
888.8686, 2860.319
889.3507, 2875.716
889.8328, 2905.168
890.3149, 2920.017
890.7971, 2913.480
891.2792, 2901.187
891.7613, 2883.952
892.2434, 2867.263
892.7255, 2854.740
893.2076, 2845.588
893.6898, 2837.138
894.1719, 2829.328
894.6540, 2827.320
895.1361, 2839.821
895.6182, 2855.994
896.1003, 2859.431
896.5825, 2852.777
897.0646, 2841.643
897.5467, 2827.962
898.0288, 2819.880
898.5109, 2823.932
898.9930, 2834.128
899.4752, 2836.013
899.9573, 2829.123
900.4394, 2819.487
900.9215, 2805.124
901.4036, 2795.776
901.8857, 2796.252
902.3679, 2804.206
902.8500, 2819.062
903.3321, 2845.248
903.8142, 2850.255
904.2963, 2808.290
904.7784, 2778.980
905.2606, 2781.568
905.7427, 2794.753
906.2248, 2806.000
906.7069, 2812.681
907.1890, 2808.221
907.6711, 2776.394
908.1533, 2760.267
908.6354, 2797.331
909.1175, 2843.344
909.5996, 2849.739
910.0817, 2832.756
910.5638, 2839.631
911.0460, 2886.648
911.5281, 2934.717
912.0102, 2950.558
912.4923, 2942.660
912.9744, 2920.189
913.4565, 2886.641
913.9387, 2850.128
914.4208, 2813.781
914.9029, 2786.764
915.3850, 2776.715
915.8671, 2782.071
916.3492, 2803.053
916.8314, 2841.486
917.3135, 2865.300
917.7956, 2872.100
918.2777, 2857.195
918.7598, 2807.293
919.2419, 2748.351
919.7241, 2734.910
920.2062, 2781.436
920.6883, 2808.109
921.1704, 2808.034
921.6525, 2797.302
922.1346, 2765.893
922.6168, 2736.712
923.0989, 2732.610
923.5810, 2750.627
924.0631, 2767.965
924.5452, 2784.706
925.0273, 2794.077
925.5095, 2789.984
925.9916, 2781.249
926.4737, 2772.174
926.9558, 2764.767
927.4379, 2762.646
927.9200, 2767.193
928.4022, 2770.410
928.8843, 2761.761
929.3664, 2752.534
929.8485, 2761.321
930.3306, 2778.812
930.8127, 2781.667
931.2949, 2766.219
931.7770, 2748.405
932.2591, 2740.799
932.7412, 2737.642
933.2233, 2722.294
933.7054, 2699.473
934.1876, 2703.511
934.6697, 2738.095
935.1518, 2763.184
935.6339, 2756.337
936.1160, 2736.069
936.5981, 2734.959
937.0803, 2754.592
937.5624, 2751.468
938.0445, 2714.413
938.5266, 2690.089
939.0087, 2696.703
939.4908, 2710.954
939.9730, 2711.845
940.4551, 2701.399
940.9372, 2693.671
941.4193, 2690.885
941.9014, 2687.429
942.3835, 2681.393
942.8657, 2676.646
943.3478, 2675.588
943.8299, 2676.700
944.3120, 2678.330
944.7941, 2680.423
945.2762, 2680.188
945.7584, 2672.644
946.2405, 2667.441
946.7226, 2671.880
947.2047, 2679.578
947.6868, 2683.023
948.1689, 2682.572
948.6511, 2683.117
949.1332, 2686.747
949.6153, 2692.465
950.0974, 2706.056
950.5795, 2716.971
951.0616, 2701.648
951.5438, 2671.249
952.0259, 2663.203
952.5080, 2688.107
952.9901, 2715.096
953.4722, 2711.940
953.9543, 2692.263
954.4365, 2688.920
954.9186, 2698.410
955.4007, 2699.212
955.8828, 2687.981
956.3649, 2681.049
956.8470, 2690.389
957.3292, 2703.460
957.8113, 2688.639
958.2934, 2642.533
958.7755, 2632.351
959.2576, 2669.037
959.7397, 2690.913
960.2219, 2671.986
960.7040, 2641.760
961.1861, 2632.321
961.6682, 2641.379
962.1503, 2643.902
962.6324, 2634.596
963.1146, 2629.940
963.5967, 2637.450
964.0788, 2642.384
964.5609, 2633.688
965.0430, 2618.392
965.5251, 2606.796
966.0073, 2598.292
966.4894, 2598.075
966.9715, 2614.895
967.4536, 2629.724
967.9357, 2640.013
968.4178, 2642.780
968.9000, 2629.923
969.3821, 2606.821
969.8642, 2593.030
970.3463, 2597.322
970.8284, 2603.768
971.3105, 2603.565
971.7927, 2603.959
972.2748, 2615.922
972.7569, 2630.972
973.2390, 2631.403
973.7211, 2614.853
974.2032, 2600.005
974.6854, 2601.388
975.1675, 2607.891
975.6496, 2610.684
976.1317, 2609.241
976.6138, 2599.859
977.0959, 2584.841
977.5781, 2573.344
978.0602, 2569.861
978.5423, 2571.215
979.0244, 2578.347
979.5065, 2585.933
979.9886, 2573.780
980.4708, 2547.353
980.9529, 2538.449
981.4350, 2554.496
981.9171, 2576.997
982.3992, 2592.465
982.8813, 2599.187
983.3635, 2586.098
983.8456, 2554.454
984.3277, 2551.960
984.8098, 2585.513
985.2919, 2608.138
985.7740, 2598.289
986.2562, 2574.303
986.7383, 2558.360
987.2204, 2550.546
987.7025, 2552.794
988.1846, 2569.241
988.6667, 2581.014
989.1489, 2584.536
989.6310, 2584.599
990.1131, 2584.822
990.5952, 2583.167
991.0773, 2573.307
991.5594, 2549.504
992.0416, 2540.944
992.5237, 2566.286
993.0058, 2579.019
993.4879, 2553.224
993.9700, 2521.812
994.4521, 2511.706
994.9343, 2519.792
995.4164, 2531.936
995.8985, 2557.694
996.3806, 2568.604
996.8627, 2545.541
997.3448, 2524.697
997.8270, 2531.684
998.3091, 2546.282
998.7912, 2535.749
999.2733, 2499.382
999.7554, 2479.982
1000.238, 2506.630
1000.720, 2530.543
1001.202, 2528.006
1001.684, 2518.913
1002.166, 2523.105
1002.648, 2533.798
1003.130, 2530.225
1003.612, 2505.817
1004.094, 2490.161
1004.577, 2510.426
1005.059, 2534.759
1005.541, 2537.765
1006.023, 2529.233
1006.505, 2521.735
1006.987, 2517.267
1007.469, 2513.354
1007.951, 2508.638
1008.434, 2505.324
1008.916, 2507.337
1009.398, 2510.525
1009.880, 2508.367
1010.362, 2502.896
1010.844, 2499.016
1011.326, 2498.132
1011.808, 2500.703
1012.290, 2509.204
1012.773, 2515.992
1013.255, 2507.417
1013.737, 2489.217
1014.219, 2471.432
1014.701, 2457.225
1015.183, 2459.212
1015.665, 2481.309
1016.147, 2499.259
1016.630, 2483.209
1017.112, 2448.644
1017.594, 2432.875
1018.076, 2434.942
1018.558, 2456.821
1019.040, 2496.523
1019.522, 2515.485
1020.004, 2490.996
1020.486, 2453.971
1020.969, 2455.540
1021.451, 2488.699
1021.933, 2496.947
1022.415, 2480.045
1022.897, 2466.754
1023.379, 2463.558
1023.861, 2462.853
1024.343, 2458.359
1024.825, 2454.707
1025.308, 2466.249
1025.790, 2495.497
1026.272, 2505.415
1026.754, 2491.691
1027.236, 2481.465
1027.718, 2484.235
1028.200, 2489.175
1028.682, 2485.881
1029.165, 2476.567
1029.647, 2470.247
1030.129, 2466.589
1030.611, 2467.855
1031.093, 2475.897
1031.575, 2484.242
1032.057, 2490.513
1032.539, 2495.605
1033.021, 2501.662
1033.504, 2508.114
1033.986, 2505.629
1034.468, 2490.743
1034.950, 2474.727
1035.432, 2455.746
1035.914, 2440.256
1036.396, 2430.330
1036.878, 2426.786
1037.360, 2433.421
1037.843, 2452.027
1038.325, 2459.143
1038.807, 2447.856
1039.289, 2436.367
1039.771, 2425.361
1040.253, 2416.583
1040.735, 2407.802
1041.217, 2402.982
1041.700, 2413.391
1042.182, 2445.860
1042.664, 2462.994
1043.146, 2450.438
1043.628, 2441.160
1044.110, 2445.994
1044.592, 2452.990
1045.074, 2455.015
1045.557, 2451.990
1046.039, 2443.092
1046.521, 2423.740
1047.003, 2412.667
1047.485, 2416.082
1047.967, 2422.831
1048.449, 2430.265
1048.931, 2438.554
1049.413, 2452.917
1049.896, 2468.832
1050.378, 2468.039
1050.860, 2437.813
1051.342, 2414.965
1051.824, 2406.475
1052.306, 2406.885
1052.788, 2422.031
1053.270, 2438.855
1053.752, 2442.127
1054.235, 2432.835
1054.717, 2423.893
1055.199, 2415.710
1055.681, 2412.742
1056.163, 2424.133
1056.645, 2432.506
1057.127, 2423.200
1057.609, 2407.336
1058.092, 2401.679
1058.574, 2406.389
1059.056, 2404.685
1059.538, 2380.128
1060.020, 2366.104
1060.502, 2384.587
1060.984, 2406.681
1061.466, 2409.212
1061.948, 2403.058
1062.431, 2409.299
1062.913, 2429.895
1063.395, 2442.196
1063.877, 2431.197
1064.359, 2419.610
1064.841, 2417.319
1065.323, 2417.221
1065.805, 2415.752
1066.287, 2411.357
1066.770, 2400.819
1067.252, 2383.762
1067.734, 2369.213
1068.216, 2353.806
1068.698, 2350.663
1069.180, 2379.074
1069.662, 2410.931
1070.144, 2421.351
1070.627, 2415.321
1071.109, 2405.228
1071.591, 2393.842
1072.073, 2386.300
1072.555, 2391.206
1073.037, 2392.721
1073.519, 2372.056
1074.001, 2352.864
1074.484, 2368.079
1074.966, 2400.873
1075.448, 2404.562
1075.930, 2365.193
1076.412, 2338.703
1076.894, 2365.357
1077.376, 2393.236
1077.858, 2393.219
1078.340, 2379.617
1078.823, 2360.735
1079.305, 2342.370
1079.787, 2333.810
1080.269, 2337.672
1080.751, 2349.188
1081.233, 2380.977
1081.715, 2402.377
1082.197, 2388.524
1082.680, 2360.969
1083.162, 2336.408
1083.644, 2319.057
1084.126, 2313.073
1084.608, 2320.750
1085.090, 2331.184
1085.572, 2345.052
1086.054, 2354.001
1086.536, 2349.344
1087.019, 2340.550
1087.501, 2337.537
1087.983, 2339.253
1088.465, 2338.909
1088.947, 2333.689
1089.429, 2332.721
1089.911, 2347.232
1090.393, 2358.010
1090.875, 2350.256
1091.358, 2337.026
1091.840, 2329.414
1092.322, 2328.667
1092.804, 2335.573
1093.286, 2353.067
1093.768, 2363.923
1094.250, 2351.667
1094.732, 2343.753
1095.215, 2349.323
1095.697, 2369.400
1096.179, 2431.895
1096.661, 2506.681
1097.143, 2499.900
1097.625, 2366.080
1098.107, 2268.254
1098.589, 2279.612
1099.072, 2307.693
1099.554, 2320.319
1100.036, 2323.378
1100.518, 2322.245
1101.000, 2317.689
1101.482, 2308.648
1101.964, 2292.060
1102.446, 2283.162
1102.928, 2292.296
1103.411, 2300.760
1103.893, 2301.353
1104.375, 2298.291
1104.857, 2291.524
1105.339, 2284.778
1105.821, 2288.531
1106.303, 2307.734
1106.785, 2322.735
1107.267, 2333.678
1107.750, 2336.075
1108.232, 2319.819
1108.714, 2302.353
1109.196, 2298.385
1109.678, 2303.950
1110.160, 2307.677
1110.642, 2307.773
1111.124, 2310.469
1111.607, 2324.088
1112.089, 2329.403
1112.571, 2309.565
1113.053, 2292.158
1113.535, 2306.389
1114.017, 2334.983
1114.499, 2335.869
1114.981, 2300.265
1115.464, 2275.772
1115.946, 2263.502
1116.428, 2261.018
1116.910, 2276.664
1117.392, 2290.391
1117.874, 2286.164
1118.356, 2272.856
1118.838, 2268.184
1119.320, 2272.615
1119.802, 2283.097
1120.285, 2307.412
1120.767, 2318.735
1121.249, 2307.983
1121.731, 2291.987
1122.213, 2278.863
1122.695, 2268.899
1123.177, 2261.674
1123.659, 2256.920
1124.142, 2266.314
1124.624, 2296.923
1125.106, 2314.308
1125.588, 2311.435
1126.070, 2300.057
1126.552, 2284.252
1127.034, 2268.938
1127.516, 2261.708
1127.999, 2261.982
1128.481, 2263.552
1128.963, 2266.470
1129.445, 2268.976
1129.927, 2270.159
1130.409, 2279.274
1130.891, 2303.304
1131.373, 2321.208
1131.855, 2302.263
1132.338, 2258.566
1132.820, 2244.417
1133.302, 2257.854
1133.784, 2264.835
1134.266, 2262.105
1134.748, 2262.468
1135.230, 2271.241
1135.712, 2275.691
1136.194, 2259.505
1136.677, 2236.028
1137.159, 2245.454
1137.641, 2276.091
1138.123, 2277.014
1138.605, 2249.706
1139.087, 2225.174
1139.569, 2213.914
1140.051, 2214.550
1140.534, 2228.120
1141.016, 2246.399
1141.498, 2259.559
1141.980, 2266.518
1142.462, 2261.337
1142.944, 2248.279
1143.426, 2239.634
1143.908, 2237.967
1144.391, 2238.798
1144.873, 2240.364
1145.355, 2239.195
1145.837, 2227.985
1146.319, 2215.036
1146.801, 2210.020
1147.283, 2211.430
1147.765, 2217.709
1148.247, 2226.796
1148.729, 2231.958
1149.212, 2228.292
1149.694, 2231.348
1150.176, 2267.653
1150.658, 2297.162
1151.140, 2277.191
1151.622, 2240.401
1152.104, 2227.719
1152.586, 2235.136
1153.069, 2235.635
1153.551, 2220.425
1154.033, 2211.103
1154.515, 2221.494
1154.997, 2232.199
1155.479, 2234.120
1155.961, 2233.279
1156.443, 2233.977
1156.926, 2236.087
1157.408, 2239.237
1157.890, 2243.695
1158.372, 2245.298
1158.854, 2240.527
1159.336, 2237.247
1159.818, 2235.489
1160.300, 2237.068
1160.782, 2248.591
1161.265, 2260.353
1161.747, 2258.037
1162.229, 2242.058
1162.711, 2226.279
1163.193, 2207.135
1163.675, 2197.200
1164.157, 2200.136
1164.639, 2206.093
1165.121, 2212.157
1165.604, 2215.775
1166.086, 2206.250
1166.568, 2197.542
1167.050, 2259.789
1167.532, 2407.542
1168.014, 2513.283
1168.496, 2577.299
1168.978, 2548.028
1169.461, 2398.777
1169.943, 2250.353
1170.425, 2198.437
1170.907, 2208.176
1171.389, 2218.291
1171.871, 2227.434
1172.353, 2223.929
1172.835, 2210.443
1173.318, 2209.688
1173.800, 2223.563
1174.282, 2223.636
1174.764, 2193.546
1175.246, 2162.251
1175.728, 2169.372
1176.210, 2195.865
1176.692, 2208.822
1177.174, 2213.053
1177.656, 2220.990
1178.139, 2230.344
1178.621, 2224.382
1179.103, 2198.956
1179.585, 2181.389
1180.067, 2196.087
1180.549, 2219.593
1181.031, 2241.001
1181.513, 2252.905
1181.996, 2238.746
1182.478, 2212.862
1182.960, 2204.066
1183.442, 2213.709
1183.924, 2211.329
1184.406, 2171.378
1184.888, 2148.237
1185.370, 2175.470
1185.853, 2208.131
1186.335, 2225.720
1186.817, 2232.666
1187.299, 2231.762
1187.781, 2225.573
1188.263, 2223.424
1188.745, 2232.347
1189.227, 2226.329
1189.709, 2185.891
1190.192, 2161.660
1190.674, 2173.003
1191.156, 2190.351
1191.638, 2194.855
1192.120, 2192.827
1192.602, 2197.582
1193.084, 2209.269
1193.566, 2201.576
1194.048, 2169.431
1194.531, 2146.273
1195.013, 2135.919
1195.495, 2138.067
1195.977, 2154.081
1196.459, 2173.290
1196.941, 2184.265
1197.423, 2188.602
1197.905, 2191.358
1198.388, 2191.748
1198.870, 2182.708
1199.352, 2166.228
1199.834, 2155.055
1200.316, 2152.946
1200.798, 2159.035
1201.280, 2173.677
1201.762, 2190.905
1202.245, 2206.532
1202.727, 2217.700
1203.209, 2219.458
1203.691, 2214.059
1204.173, 2202.253
1204.655, 2187.596
1205.137, 2179.777
1205.619, 2182.464
1206.101, 2185.152
1206.583, 2186.821
1207.066, 2180.405
1207.548, 2147.261
1208.030, 2118.330
1208.512, 2125.705
1208.994, 2152.941
1209.476, 2172.683
1209.958, 2181.587
1210.440, 2181.093
1210.923, 2157.668
1211.405, 2146.852
1211.887, 2163.925
1212.369, 2177.156
1212.851, 2173.090
1213.333, 2164.811
1213.815, 2164.176
1214.297, 2168.573
1214.780, 2169.386
1215.262, 2165.413
1215.744, 2167.136
1216.226, 2175.475
1216.708, 2185.705
1217.190, 2198.402
1217.672, 2197.843
1218.154, 2173.121
1218.636, 2144.413
1219.119, 2140.123
1219.601, 2152.910
1220.083, 2164.130
1220.565, 2172.182
1221.047, 2167.071
1221.529, 2152.097
1222.011, 2146.105
1222.493, 2153.563
1222.975, 2158.933
1223.458, 2149.569
1223.940, 2139.867
1224.422, 2149.309
1224.904, 2161.037
1225.386, 2153.146
1225.868, 2137.259
1226.350, 2131.659
1226.832, 2135.908
1227.315, 2140.531
1227.797, 2143.805
1228.279, 2141.002
1228.761, 2120.307
1229.243, 2107.435
1229.725, 2115.949
1230.207, 2130.028
1230.689, 2139.671
1231.172, 2147.961
1231.654, 2163.756
1232.136, 2185.510
1232.618, 2184.406
1233.100, 2143.045
1233.582, 2136.304
1234.064, 2182.038
1234.546, 2207.534
1235.028, 2185.922
1235.510, 2153.688
1235.993, 2138.872
1236.475, 2136.723
1236.957, 2142.234
1237.439, 2152.241
1237.921, 2142.406
1238.403, 2118.564
1238.885, 2112.773
1239.367, 2126.551
1239.850, 2139.481
1240.332, 2143.022
1240.814, 2140.713
1241.296, 2134.149
1241.778, 2125.541
1242.260, 2112.753
1242.742, 2103.146
1243.224, 2107.504
1243.707, 2120.274
1244.189, 2134.679
1244.671, 2147.374
1245.153, 2151.115
1245.635, 2142.221
1246.117, 2129.810
1246.599, 2109.625
1247.081, 2095.646
1247.563, 2096.987
1248.046, 2101.992
1248.528, 2099.324
1249.010, 2097.390
1249.492, 2113.819
1249.974, 2147.414
1250.456, 2156.252
1250.938, 2133.082
1251.420, 2119.314
1251.902, 2119.066
1252.385, 2121.468
1252.867, 2123.121
1253.349, 2123.721
1253.831, 2123.031
1254.313, 2121.147
1254.795, 2118.502
1255.277, 2114.730
1255.759, 2107.465
1256.242, 2098.540
1256.724, 2091.632
1257.206, 2088.190
1257.688, 2092.575
1258.170, 2105.719
1258.652, 2114.908
1259.134, 2104.943
1259.616, 2098.524
1260.099, 2120.228
1260.581, 2141.611
##END=



