##NAMES=Plattnerite
##RRUFFID=R070605
##IDEAL CHEMISTRY=Pb^4+^O_2_
##LOCALITY=Ojuela mine, Mapimi, Durango, Mexico
##OWNER=RRUFF
##SOURCE=James Shigley
##DESCRIPTION=Black tarnished metallic prismatic crystals.
##STATUS=The identification of this mineral is confirmed by single-crystal X-ray diffraction and chemical analysis.
##URL=rruff.info/R070605
##MEASURED CHEMISTRY=Pb_1.00_O_2_
90.15295, 613.0861
90.63506, 594.4893
91.11718, 581.0422
91.59930, 585.8673
92.08141, 603.5040
92.56352, 620.6644
93.04564, 636.9246
93.52776, 650.2267
94.00987, 654.4537
94.49199, 649.2281
94.97411, 643.1658
95.45622, 644.0480
95.93834, 651.6514
96.42046, 658.4248
96.90257, 661.4799
97.38469, 661.7180
97.86681, 667.5173
98.34892, 681.1974
98.83104, 695.8657
99.31316, 700.0041
99.79527, 689.8416
100.2774, 682.1884
100.7595, 685.2792
101.2416, 704.4577
101.7237, 713.8169
102.2059, 705.2361
102.6880, 688.5540
103.1701, 693.6439
103.6522, 725.3824
104.1343, 772.8934
104.6164, 829.6851
105.0985, 896.1221
105.5807, 972.5139
106.0628, 1061.372
106.5449, 1163.863
107.0270, 1265.291
107.5091, 1348.733
107.9912, 1438.873
108.4734, 1556.557
108.9555, 1703.452
109.4376, 1878.062
109.9197, 2077.408
110.4018, 2299.671
110.8839, 2560.055
111.3661, 2820.886
111.8482, 3124.550
112.3303, 3536.029
112.8124, 4093.720
113.2945, 4744.180
113.7766, 5469.031
114.2588, 6262.330
114.7409, 7129.465
115.2230, 8071.113
115.7051, 9081.681
116.1872, 10150.27
116.6693, 11272.47
117.1515, 12441.26
117.6336, 13650.09
118.1157, 14901.70
118.5978, 16189.13
119.0799, 17515.36
119.5620, 18869.09
120.0442, 20246.36
120.5263, 21666.10
121.0084, 23113.46
121.4905, 24572.33
121.9726, 26038.97
122.4547, 27511.57
122.9369, 28997.14
123.4190, 30485.89
123.9011, 31971.54
124.3832, 33394.51
124.8653, 34788.42
125.3474, 36263.88
125.8296, 37906.54
126.3117, 39694.48
126.7938, 41575.16
127.2759, 43531.95
127.7580, 45592.22
128.2401, 47771.41
128.7223, 50078.35
129.2044, 52511.06
129.6865, 55080.21
130.1686, 57778.90
130.6507, 60482.57
131.1328, 63193.09
131.6150, 65907.58
132.0971, 68540.26
132.5792, 71189.46
133.0613, 73542.66
133.5434, 75242.63
134.0255, 76278.17
134.5076, 76629.80
134.9898, 76212.76
135.4719, 74989.71
135.9540, 73341.96
136.4361, 71212.87
136.9182, 68718.42
137.4003, 66152.83
137.8825, 63440.71
138.3646, 60796.63
138.8467, 58301.45
139.3288, 55928.20
139.8109, 53764.68
140.2930, 51831.61
140.7752, 50126.32
141.2573, 48560.76
141.7394, 47147.47
142.2215, 45875.79
142.7036, 44760.84
143.1857, 43815.55
143.6679, 42957.27
144.1500, 41943.58
144.6321, 40991.77
145.1142, 40050.34
145.5963, 39082.59
146.0784, 38145.13
146.5606, 37329.23
147.0427, 36741.23
147.5248, 36154.47
148.0069, 35508.18
148.4890, 34744.78
148.9711, 34042.78
149.4533, 33423.07
149.9354, 32858.34
150.4175, 32306.18
150.8996, 31759.37
151.3817, 31227.14
151.8638, 30714.73
152.3460, 30221.95
152.8281, 29757.08
153.3102, 29323.63
153.7923, 28918.64
154.2744, 28518.15
154.7565, 28093.40
155.2386, 27685.96
155.7208, 27318.31
156.2029, 27028.46
156.6850, 26748.96
157.1671, 26454.97
157.6492, 26145.27
158.1313, 25851.90
158.6135, 25581.99
159.0956, 25330.61
159.5777, 25091.12
160.0598, 24875.99
160.5419, 24659.93
161.0240, 24423.20
161.5062, 24158.01
161.9883, 23904.06
162.4704, 23698.79
162.9525, 23515.13
163.4346, 23306.18
163.9167, 23009.25
164.3989, 22703.33
164.8810, 22457.60
165.3631, 22308.75
165.8452, 22157.94
166.3273, 21919.43
166.8094, 21621.94
167.2916, 21359.59
167.7737, 21194.83
168.2558, 21084.33
168.7379, 20986.60
169.2200, 20904.53
169.7021, 20814.74
170.1843, 20699.64
170.6664, 20560.71
171.1485, 20400.33
171.6306, 20198.77
172.1127, 19978.88
172.5948, 19779.88
173.0770, 19619.83
173.5591, 19484.12
174.0412, 19357.97
174.5233, 19242.12
175.0054, 19136.87
175.4875, 19048.93
175.9697, 18972.41
176.4518, 18893.80
176.9339, 18815.07
177.4160, 18728.13
177.8981, 18618.31
178.3802, 18481.86
178.8624, 18335.22
179.3445, 18180.27
179.8266, 18022.81
180.3087, 17893.86
180.7908, 17827.94
181.2729, 17802.88
181.7551, 17757.94
182.2372, 17684.58
182.7193, 17596.56
183.2014, 17516.92
183.6835, 17444.04
184.1656, 17366.26
184.6478, 17274.38
185.1299, 17170.00
185.6120, 17056.74
186.0941, 16929.50
186.5762, 16800.14
187.0583, 16689.51
187.5405, 16598.52
188.0226, 16524.87
188.5047, 16478.21
188.9868, 16454.88
189.4689, 16417.98
189.9510, 16353.07
190.4332, 16270.55
190.9153, 16206.06
191.3974, 16162.86
191.8795, 16123.26
192.3616, 16070.74
192.8437, 16004.60
193.3259, 15929.20
193.8080, 15834.03
194.2901, 15726.09
194.7722, 15659.00
195.2543, 15639.23
195.7364, 15644.09
196.2186, 15648.31
196.7007, 15652.39
197.1828, 15650.35
197.6649, 15639.45
198.1470, 15619.59
198.6291, 15589.30
199.1112, 15538.99
199.5934, 15492.81
200.0755, 15503.04
200.5576, 15581.92
201.0397, 15659.17
201.5218, 15698.84
202.0039, 15697.70
202.4861, 15688.33
202.9682, 15663.41
203.4503, 15637.79
203.9324, 15654.30
204.4145, 15724.52
204.8966, 15800.58
205.3788, 15853.28
205.8609, 15877.04
206.3430, 15904.28
206.8251, 15939.87
207.3072, 15980.37
207.7893, 16008.36
208.2715, 16013.99
208.7536, 16028.79
209.2357, 16082.94
209.7178, 16192.23
210.1999, 16279.95
210.6820, 16329.55
211.1642, 16346.81
211.6463, 16375.62
212.1284, 16414.75
212.6105, 16467.95
213.0926, 16539.34
213.5747, 16633.88
214.0569, 16734.71
214.5390, 16842.44
215.0211, 16955.93
215.5032, 17060.46
215.9853, 17150.81
216.4674, 17238.26
216.9496, 17342.38
217.4317, 17485.58
217.9138, 17592.57
218.3959, 17627.43
218.8780, 17576.48
219.3601, 17604.05
219.8423, 17741.29
220.3244, 17928.87
220.8065, 18090.95
221.2886, 18216.91
221.7707, 18335.95
222.2528, 18454.52
222.7349, 18572.69
223.2171, 18695.41
223.6992, 18825.27
224.1813, 18958.81
224.6634, 19093.07
225.1455, 19226.29
225.6276, 19362.28
226.1098, 19500.85
226.5919, 19644.24
227.0740, 19784.95
227.5561, 19922.88
228.0382, 20057.70
228.5203, 20181.41
229.0025, 20273.76
229.4846, 20386.43
229.9667, 20544.30
230.4488, 20777.24
230.9309, 20986.48
231.4130, 21164.37
231.8952, 21320.19
232.3773, 21483.50
232.8594, 21655.12
233.3415, 21835.31
233.8236, 22024.26
234.3057, 22215.30
234.7879, 22426.14
235.2700, 22674.41
235.7521, 22945.16
236.2342, 23177.19
236.7163, 23349.82
237.1984, 23510.57
237.6806, 23686.89
238.1627, 23878.48
238.6448, 24080.80
239.1269, 24288.43
239.6090, 24504.23
240.0911, 24750.60
240.5733, 25050.52
241.0554, 25353.55
241.5375, 25625.31
242.0196, 25848.47
242.5017, 26069.39
242.9838, 26289.54
243.4660, 26509.98
243.9481, 26741.23
244.4302, 26976.11
244.9123, 27230.17
245.3944, 27523.17
245.8765, 27897.78
246.3586, 28227.50
246.8408, 28479.99
247.3229, 28659.99
247.8050, 28887.29
248.2871, 29175.72
248.7692, 29495.81
249.2513, 29829.88
249.7335, 30199.51
250.2156, 30530.87
250.6977, 30802.30
251.1798, 31012.83
251.6619, 31244.78
252.1440, 31514.56
252.6262, 31783.99
253.1083, 32005.55
253.5904, 32138.85
254.0725, 32314.75
254.5546, 32582.45
255.0367, 32952.01
255.5189, 33230.60
256.0010, 33382.23
256.4831, 33487.28
256.9652, 33637.50
257.4473, 33861.46
257.9294, 34067.13
258.4116, 34223.69
258.8937, 34329.90
259.3758, 34442.23
259.8579, 34561.80
260.3400, 34687.05
260.8221, 34823.51
261.3043, 34982.21
261.7864, 35120.27
262.2685, 35222.16
262.7506, 35285.77
263.2327, 35347.66
263.7148, 35420.96
264.1970, 35477.76
264.6791, 35476.75
265.1612, 35403.68
265.6433, 35316.43
266.1254, 35228.89
266.6075, 35141.70
267.0897, 35068.58
267.5718, 35023.62
268.0539, 34973.97
268.5360, 34863.23
269.0181, 34672.23
269.5002, 34490.47
269.9824, 34356.16
270.4645, 34273.96
270.9466, 34166.16
271.4287, 34026.25
271.9108, 33867.39
272.3929, 33716.02
272.8751, 33581.64
273.3572, 33409.28
273.8393, 33166.69
274.3214, 32849.54
274.8035, 32557.31
275.2856, 32296.01
275.7678, 32046.11
276.2499, 31784.80
276.7320, 31512.19
277.2141, 31230.23
277.6962, 30927.39
278.1783, 30603.19
278.6604, 30336.69
279.1425, 30146.37
279.6247, 29968.88
280.1068, 29697.03
280.5889, 29324.79
281.0710, 28956.43
281.5531, 28650.85
282.0352, 28400.96
282.5174, 28092.57
282.9995, 27710.20
283.4816, 27320.43
283.9637, 27039.35
284.4458, 26866.00
284.9279, 26678.40
285.4101, 26403.34
285.8922, 26058.16
286.3743, 25758.29
286.8564, 25515.40
287.3385, 25291.00
287.8206, 25033.79
288.3028, 24746.06
288.7849, 24465.80
289.2670, 24217.39
289.7491, 23991.77
290.2312, 23752.44
290.7133, 23497.55
291.1955, 23239.02
291.6776, 22979.85
292.1597, 22722.31
292.6418, 22488.83
293.1239, 22305.82
293.6060, 22151.10
294.0882, 21971.44
294.5703, 21761.89
295.0524, 21535.81
295.5345, 21296.37
296.0166, 21049.02
296.4987, 20816.30
296.9809, 20615.35
297.4630, 20435.58
297.9451, 20264.02
298.4272, 20101.34
298.9093, 19943.14
299.3914, 19796.58
299.8736, 19653.51
300.3557, 19496.93
300.8378, 19300.93
301.3199, 19093.77
301.8020, 18911.59
302.2841, 18758.74
302.7663, 18610.41
303.2484, 18432.64
303.7305, 18243.31
304.2126, 18081.54
304.6947, 17992.66
305.1768, 17922.75
305.6590, 17819.38
306.1411, 17677.34
306.6232, 17528.43
307.1053, 17379.67
307.5874, 17239.18
308.0695, 17122.20
308.5517, 17073.12
309.0338, 17022.96
309.5159, 16912.38
309.9980, 16737.28
310.4801, 16564.32
310.9622, 16422.30
311.4444, 16307.39
311.9265, 16214.74
312.4086, 16181.13
312.8907, 16138.16
313.3728, 16036.61
313.8549, 15874.10
314.3371, 15726.80
314.8192, 15641.04
315.3013, 15582.96
315.7834, 15520.26
316.2655, 15442.15
316.7477, 15358.37
317.2298, 15271.00
317.7119, 15180.21
318.1940, 15089.05
318.6761, 14988.31
319.1582, 14893.46
319.6404, 14817.80
320.1225, 14772.64
320.6046, 14738.40
321.0867, 14723.36
321.5688, 14725.41
322.0509, 14699.06
322.5330, 14604.66
323.0151, 14498.49
323.4973, 14419.29
323.9794, 14390.05
324.4615, 14366.62
324.9436, 14344.72
325.4257, 14324.25
325.9078, 14306.51
326.3900, 14313.48
326.8721, 14307.47
327.3542, 14265.01
327.8363, 14133.23
328.3184, 14037.61
328.8005, 14002.02
329.2827, 14015.02
329.7648, 14007.66
330.2469, 13965.42
330.7290, 13918.50
331.2111, 13884.94
331.6932, 13870.68
332.1754, 13856.87
332.6575, 13843.86
333.1396, 13830.77
333.6217, 13813.04
334.1038, 13787.58
334.5859, 13762.99
335.0681, 13743.16
335.5502, 13727.40
336.0323, 13718.66
336.5144, 13719.27
336.9965, 13724.91
337.4786, 13725.41
337.9608, 13719.95
338.4429, 13711.46
338.9250, 13701.46
339.4071, 13690.12
339.8892, 13673.41
340.3713, 13648.58
340.8535, 13622.87
341.3356, 13609.43
341.8177, 13608.54
342.2998, 13615.42
342.7819, 13634.17
343.2640, 13661.78
343.7462, 13675.11
344.2283, 13672.51
344.7104, 13661.36
345.1925, 13648.69
345.6746, 13635.06
346.1567, 13624.61
346.6389, 13621.71
347.1210, 13623.22
347.6031, 13622.00
348.0852, 13618.25
348.5673, 13609.41
349.0494, 13578.66
349.5316, 13538.71
350.0137, 13524.15
350.4958, 13576.40
350.9779, 13649.89
351.4600, 13681.05
351.9421, 13670.28
352.4243, 13651.64
352.9064, 13658.21
353.3885, 13673.39
353.8706, 13670.58
354.3527, 13610.15
354.8348, 13553.05
355.3170, 13562.65
355.7991, 13630.18
356.2812, 13676.99
356.7633, 13633.80
357.2454, 13557.66
357.7275, 13505.48
358.2097, 13515.60
358.6918, 13527.18
359.1739, 13513.51
359.6560, 13477.89
360.1381, 13433.86
360.6202, 13370.25
361.1024, 13310.24
361.5845, 13270.49
362.0666, 13274.69
362.5487, 13268.49
363.0308, 13234.62
363.5129, 13180.53
363.9951, 13126.73
364.4772, 13069.78
364.9593, 13020.14
365.4414, 12985.68
365.9235, 12991.23
366.4056, 12966.60
366.8878, 12881.17
367.3699, 12768.93
367.8520, 12689.86
368.3341, 12681.63
368.8162, 12662.92
369.2983, 12604.20
369.7804, 12490.06
370.2625, 12398.88
370.7447, 12339.48
371.2268, 12296.55
371.7089, 12249.40
372.1910, 12198.57
372.6731, 12142.13
373.1552, 12081.76
373.6374, 12017.02
374.1195, 11933.88
374.6016, 11822.27
375.0837, 11710.38
375.5658, 11633.62
376.0479, 11596.95
376.5301, 11547.02
377.0122, 11463.66
377.4943, 11358.79
377.9764, 11288.33
378.4585, 11255.42
378.9406, 11230.31
379.4228, 11193.54
379.9049, 11144.67
380.3870, 11076.36
380.8691, 10980.53
381.3512, 10874.78
381.8333, 10793.44
382.3155, 10734.62
382.7976, 10671.02
383.2797, 10572.78
383.7618, 10460.12
384.2439, 10372.82
384.7260, 10321.48
385.2082, 10285.25
385.6903, 10256.63
386.1724, 10228.28
386.6545, 10179.25
387.1366, 10066.31
387.6187, 9945.088
388.1009, 9878.256
388.5830, 9879.742
389.0651, 9879.056
389.5472, 9821.794
390.0293, 9735.764
390.5114, 9661.081
390.9936, 9624.484
391.4757, 9595.545
391.9578, 9561.593
392.4399, 9521.896
392.9220, 9476.936
393.4041, 9424.625
393.8863, 9368.066
394.3684, 9310.399
394.8505, 9245.669
395.3326, 9187.660
395.8147, 9141.288
396.2968, 9105.753
396.7790, 9070.579
397.2611, 9040.185
397.7432, 9006.066
398.2253, 8963.146
398.7074, 8898.815
399.1895, 8844.563
399.6717, 8804.649
400.1538, 8774.797
400.6359, 8742.957
401.1180, 8711.753
401.6001, 8674.273
402.0822, 8624.432
402.5644, 8555.362
403.0465, 8502.174
403.5286, 8470.043
404.0107, 8447.794
404.4928, 8417.219
404.9749, 8377.197
405.4571, 8337.012
405.9392, 8299.345
406.4213, 8264.622
406.9034, 8233.331
407.3855, 8205.988
407.8676, 8180.729
408.3498, 8155.107
408.8319, 8129.505
409.3140, 8106.808
409.7961, 8083.892
410.2782, 8066.900
410.7603, 8080.476
411.2425, 8121.440
411.7246, 8143.021
412.2067, 8089.671
412.6888, 7996.712
413.1709, 7925.430
413.6530, 7892.941
414.1351, 7878.669
414.6172, 7878.607
415.0994, 7884.440
415.5815, 7870.665
416.0636, 7796.590
416.5457, 7715.022
417.0278, 7668.946
417.5099, 7674.811
417.9921, 7681.957
418.4742, 7667.343
418.9563, 7640.705
419.4384, 7616.591
419.9205, 7602.616
420.4026, 7588.453
420.8848, 7570.590
421.3669, 7548.285
421.8490, 7525.281
422.3311, 7501.438
422.8132, 7477.292
423.2953, 7453.417
423.7775, 7431.212
424.2596, 7406.704
424.7417, 7375.505
425.2238, 7340.104
425.7059, 7318.652
426.1880, 7318.575
426.6702, 7321.838
427.1523, 7318.086
427.6344, 7306.073
428.1165, 7291.596
428.5986, 7273.913
429.0807, 7255.081
429.5629, 7239.214
430.0450, 7226.670
430.5271, 7215.153
431.0092, 7205.104
431.4913, 7195.864
431.9734, 7181.447
432.4556, 7160.696
432.9377, 7139.544
433.4198, 7126.799
433.9019, 7120.260
434.3840, 7110.549
434.8661, 7093.383
435.3483, 7071.817
435.8304, 7045.418
436.3125, 7015.362
436.7946, 6995.917
437.2767, 7012.201
437.7589, 7040.353
438.2410, 7048.184
438.7231, 7017.995
439.2052, 6981.388
439.6873, 6955.800
440.1694, 6939.309
440.6516, 6926.597
441.1337, 6915.587
441.6158, 6907.783
442.0979, 6905.070
442.5800, 6909.859
443.0621, 6912.856
443.5443, 6910.747
444.0264, 6906.165
444.5085, 6902.647
444.9906, 6902.165
445.4727, 6901.198
445.9548, 6899.261
446.4370, 6896.394
446.9191, 6891.626
447.4012, 6878.720
447.8833, 6870.495
448.3654, 6879.417
448.8475, 6915.746
449.3297, 6939.555
449.8118, 6943.633
450.2939, 6933.515
450.7760, 6923.573
451.2581, 6912.508
451.7402, 6908.065
452.2224, 6925.221
452.7045, 6960.077
453.1866, 6955.778
453.6687, 6901.323
454.1508, 6837.550
454.6329, 6826.397
455.1151, 6857.446
455.5972, 6880.990
456.0793, 6864.476
456.5614, 6833.721
457.0435, 6834.944
457.5256, 6866.402
458.0077, 6891.904
458.4898, 6876.115
458.9720, 6840.926
459.4541, 6812.325
459.9362, 6796.579
460.4183, 6790.593
460.9004, 6800.171
461.3825, 6819.367
461.8647, 6831.216
462.3468, 6821.547
462.8289, 6808.744
463.3110, 6803.732
463.7931, 6813.299
464.2752, 6814.349
464.7574, 6798.118
465.2395, 6773.284
465.7216, 6751.115
466.2037, 6730.877
466.6858, 6714.655
467.1679, 6704.205
467.6501, 6699.245
468.1322, 6690.494
468.6143, 6677.146
469.0964, 6661.292
469.5785, 6645.941
470.0606, 6633.217
470.5428, 6606.501
471.0249, 6556.462
471.5070, 6500.522
471.9891, 6481.234
472.4712, 6499.448
472.9533, 6519.951
473.4355, 6524.682
473.9176, 6517.153
474.3997, 6508.122
474.8818, 6497.853
475.3639, 6487.290
475.8460, 6477.911
476.3282, 6468.985
476.8103, 6459.105
477.2924, 6451.034
477.7745, 6438.789
478.2566, 6412.787
478.7387, 6375.958
479.2209, 6343.973
479.7030, 6316.534
480.1851, 6302.473
480.6672, 6312.979
481.1493, 6370.893
481.6314, 6408.716
482.1136, 6397.765
482.5957, 6355.703
483.0778, 6313.878
483.5599, 6256.443
484.0420, 6220.023
484.5241, 6221.585
485.0063, 6266.346
485.4884, 6291.967
485.9705, 6294.843
486.4526, 6282.282
486.9347, 6256.598
487.4168, 6211.000
487.8990, 6175.544
488.3811, 6155.278
488.8632, 6146.687
489.3453, 6142.223
489.8274, 6142.228
490.3095, 6143.018
490.7917, 6144.829
491.2738, 6146.303
491.7559, 6140.332
492.2380, 6126.080
492.7201, 6107.970
493.2022, 6083.965
493.6844, 6059.436
494.1665, 6047.955
494.6486, 6064.145
495.1307, 6087.402
495.6128, 6098.510
496.0949, 6099.120
496.5771, 6097.774
497.0592, 6100.897
497.5413, 6102.869
498.0234, 6096.850
498.5055, 6071.727
498.9876, 6060.542
499.4698, 6086.233
499.9519, 6128.900
500.4340, 6155.728
500.9161, 6152.306
501.3982, 6142.942
501.8803, 6127.493
502.3624, 6105.079
502.8445, 6104.567
503.3267, 6136.831
503.8088, 6177.138
504.2909, 6207.878
504.7730, 6228.715
505.2551, 6242.052
505.7372, 6246.481
506.2194, 6245.497
506.7015, 6245.125
507.1836, 6245.323
507.6657, 6249.542
508.1478, 6261.591
508.6299, 6279.067
509.1121, 6293.217
509.5942, 6303.493
510.0763, 6316.858
510.5584, 6340.724
511.0405, 6372.086
511.5226, 6406.658
512.0048, 6451.490
512.4869, 6488.712
512.9690, 6497.159
513.4511, 6485.402
513.9332, 6482.054
514.4153, 6502.878
514.8975, 6532.615
515.3796, 6565.097
515.8617, 6602.638
516.3438, 6632.710
516.8259, 6644.778
517.3080, 6652.029
517.7902, 6669.470
518.2723, 6702.952
518.7544, 6737.415
519.2365, 6771.604
519.7186, 6805.111
520.2007, 6835.115
520.6829, 6860.510
521.1650, 6885.186
521.6471, 6912.157
522.1292, 6941.230
522.6113, 6969.727
523.0934, 6998.156
523.5756, 7023.229
524.0577, 7035.675
524.5398, 7038.872
525.0219, 7049.991
525.5040, 7084.014
525.9861, 7123.652
526.4683, 7144.827
526.9504, 7149.343
527.4325, 7150.363
527.9146, 7164.129
528.3967, 7174.288
528.8788, 7161.801
529.3610, 7109.970
529.8431, 7067.698
530.3252, 7061.430
530.8073, 7074.421
531.2894, 7080.189
531.7715, 7069.435
532.2537, 7054.919
532.7358, 7039.956
533.2179, 7024.308
533.7000, 7004.103
534.1821, 6976.703
534.6642, 6947.628
535.1464, 6924.851
535.6285, 6915.792
536.1106, 6874.940
536.5927, 6788.128
537.0748, 6685.228
537.5569, 6618.431
538.0391, 6587.235
538.5212, 6566.405
539.0033, 6557.717
539.4854, 6548.269
539.9675, 6502.299
540.4496, 6421.215
540.9318, 6336.876
541.4139, 6268.978
541.8960, 6214.218
542.3781, 6170.922
542.8602, 6145.617
543.3423, 6115.357
543.8245, 6058.972
544.3066, 5989.311
544.7887, 5929.123
545.2708, 5897.856
545.7529, 5866.040
546.2350, 5819.625
546.7172, 5756.689
547.1993, 5708.732
547.6814, 5686.255
548.1635, 5669.059
548.6456, 5645.604
549.1277, 5616.403
549.6099, 5577.923
550.0920, 5525.978
550.5741, 5468.773
551.0562, 5421.234
551.5383, 5383.668
552.0204, 5350.998
552.5026, 5321.154
552.9847, 5294.583
553.4668, 5275.888
553.9489, 5264.618
554.4310, 5252.393
554.9131, 5230.400
555.3953, 5203.898
555.8774, 5182.074
556.3595, 5169.679
556.8416, 5153.629
557.3237, 5120.957
557.8058, 5079.592
558.2880, 5043.002
558.7701, 5016.691
559.2522, 4995.024
559.7343, 4974.439
560.2164, 4954.884
560.6985, 4945.042
561.1807, 4961.725
561.6628, 4972.817
562.1449, 4958.490
562.6270, 4902.697
563.1091, 4864.547
563.5912, 4850.179
564.0734, 4846.674
564.5555, 4833.700
565.0376, 4810.715
565.5197, 4786.772
566.0018, 4763.159
566.4839, 4741.177
566.9661, 4723.683
567.4482, 4710.506
567.9303, 4700.420
568.4124, 4689.132
568.8945, 4681.593
569.3766, 4689.439
569.8587, 4719.666
570.3408, 4738.933
570.8229, 4716.646
571.3051, 4673.512
571.7872, 4636.344
572.2693, 4616.169
572.7514, 4600.345
573.2335, 4588.694
573.7156, 4579.856
574.1978, 4565.319
574.6799, 4542.030
575.1620, 4516.480
575.6441, 4488.484
576.1262, 4453.708
576.6083, 4441.895
577.0905, 4461.725
577.5726, 4487.750
578.0547, 4488.175
578.5368, 4463.755
579.0189, 4441.817
579.5010, 4427.516
579.9832, 4420.212
580.4653, 4420.199
580.9474, 4426.740
581.4295, 4436.364
581.9116, 4455.068
582.3937, 4471.145
582.8759, 4472.262
583.3580, 4457.422
583.8401, 4435.108
584.3222, 4400.514
584.8043, 4365.350
585.2864, 4339.480
585.7686, 4332.158
586.2507, 4325.070
586.7328, 4316.995
587.2149, 4307.741
587.6970, 4295.854
588.1791, 4275.777
588.6613, 4263.879
589.1434, 4269.042
589.6255, 4289.007
590.1076, 4292.158
590.5897, 4275.828
591.0718, 4255.790
591.5540, 4244.003
592.0361, 4239.245
592.5182, 4237.892
593.0003, 4241.558
593.4824, 4240.329
593.9645, 4210.355
594.4467, 4168.137
594.9288, 4147.262
595.4109, 4184.713
595.8930, 4227.789
596.3751, 4246.102
596.8572, 4242.539
597.3394, 4233.006
597.8215, 4218.041
598.3036, 4201.659
598.7857, 4185.889
599.2678, 4171.750
599.7499, 4154.993
600.2321, 4131.178
600.7142, 4109.466
601.1963, 4100.832
601.6784, 4108.593
602.1605, 4113.561
602.6426, 4112.816
603.1248, 4107.525
603.6069, 4097.910
604.0890, 4084.405
604.5711, 4074.397
605.0532, 4075.421
605.5353, 4080.512
606.0175, 4076.418
606.4996, 4063.373
606.9817, 4054.160
607.4638, 4065.640
607.9459, 4080.705
608.4280, 4082.775
608.9102, 4063.016
609.3923, 4041.700
609.8744, 4023.374
610.3565, 4007.030
610.8386, 3991.008
611.3207, 3969.488
611.8029, 3957.230
612.2850, 3960.685
612.7671, 3976.288
613.2492, 3981.191
613.7313, 3972.209
614.2134, 3964.691
614.6956, 3969.098
615.1777, 3983.495
615.6598, 3996.933
616.1419, 4009.570
616.6240, 4015.123
617.1061, 4004.906
617.5883, 3983.295
618.0704, 3956.428
618.5525, 3915.715
619.0346, 3886.890
619.5167, 3901.588
619.9988, 3940.502
620.4810, 3962.097
620.9631, 3940.092
621.4452, 3911.896
621.9273, 3884.931
622.4094, 3859.452
622.8915, 3854.050
623.3737, 3885.301
623.8558, 3915.053
624.3379, 3917.698
624.8200, 3887.453
625.3021, 3868.981
625.7842, 3866.043
626.2664, 3868.301
626.7485, 3861.440
627.2306, 3847.330
627.7127, 3835.368
628.1948, 3827.292
628.6769, 3823.779
629.1591, 3831.396
629.6412, 3845.365
630.1233, 3850.475
630.6054, 3824.496
631.0875, 3798.726
631.5696, 3796.490
632.0518, 3820.668
632.5339, 3838.374
633.0160, 3843.635
633.4981, 3839.891
633.9802, 3828.366
634.4623, 3802.181
634.9445, 3783.676
635.4266, 3774.681
635.9087, 3771.783
636.3908, 3770.540
636.8729, 3770.990
637.3550, 3772.581
637.8372, 3774.933
638.3193, 3778.672
638.8014, 3789.628
639.2835, 3805.131
639.7656, 3810.584
640.2477, 3785.494
640.7299, 3754.055
641.2120, 3740.113
641.6941, 3745.779
642.1762, 3753.955
642.6583, 3759.702
643.1404, 3763.881
643.6226, 3767.319
644.1047, 3771.750
644.5868, 3772.549
645.0689, 3768.269
645.5510, 3761.209
646.0331, 3755.135
646.5153, 3750.537
646.9974, 3744.333
647.4795, 3735.569
647.9616, 3724.791
648.4437, 3710.934
648.9258, 3694.813
649.4080, 3685.348
649.8901, 3694.201
650.3722, 3710.205
650.8543, 3717.947
651.3364, 3716.630
651.8185, 3713.847
652.3007, 3720.380
652.7828, 3723.676
653.2649, 3711.148
653.7470, 3660.980
654.2291, 3629.381
654.7112, 3637.755
655.1934, 3662.398
655.6755, 3673.931
656.1576, 3668.747
656.6397, 3658.851
657.1218, 3643.380
657.6039, 3626.382
658.0861, 3622.058
658.5682, 3630.577
659.0503, 3641.078
659.5323, 3649.555
660.0145, 3655.456
660.4966, 3658.550
660.9787, 3658.752
661.4608, 3653.361
661.9429, 3629.717
662.4250, 3605.770
662.9072, 3600.443
663.3893, 3629.470
663.8714, 3646.615
664.3535, 3620.614
664.8356, 3585.578
665.3177, 3585.682
665.7999, 3652.611
666.2820, 3692.874
666.7641, 3685.500
667.2462, 3649.069
667.7283, 3633.297
668.2104, 3639.322
668.6926, 3647.410
669.1747, 3649.614
669.6568, 3647.298
670.1389, 3645.751
670.6210, 3644.307
671.1031, 3635.122
671.5853, 3595.827
672.0674, 3556.332
672.5495, 3549.642
673.0316, 3589.814
673.5137, 3620.169
673.9958, 3616.862
674.4780, 3598.283
674.9601, 3581.526
675.4422, 3563.178
675.9243, 3553.886
676.4064, 3556.533
676.8885, 3566.813
677.3707, 3579.031
677.8528, 3594.154
678.3349, 3599.897
678.8170, 3587.773
679.2991, 3566.914
679.7813, 3556.500
680.2634, 3555.663
680.7455, 3559.552
681.2276, 3571.497
681.7097, 3582.620
682.1918, 3585.996
682.6740, 3580.976
683.1561, 3568.660
683.6382, 3539.089
684.1203, 3509.201
684.6024, 3491.525
685.0845, 3491.680
685.5667, 3493.265
686.0488, 3496.536
686.5309, 3500.967
687.0130, 3505.197
687.4951, 3508.996
687.9772, 3517.896
688.4594, 3537.208
688.9415, 3555.856
689.4236, 3547.502
689.9057, 3519.188
690.3878, 3497.108
690.8699, 3501.447
691.3521, 3511.617
691.8342, 3511.719
692.3163, 3502.307
692.7984, 3491.177
693.2805, 3476.997
693.7626, 3465.273
694.2448, 3459.904
694.7269, 3462.654
695.2090, 3462.605
695.6911, 3457.731
696.1732, 3453.432
696.6553, 3456.075
697.1375, 3465.761
697.6196, 3470.121
698.1017, 3466.662
698.5838, 3461.756
699.0659, 3462.720
699.5480, 3468.571
700.0302, 3477.366
700.5123, 3493.206
700.9944, 3505.900
701.4765, 3512.353
701.9586, 3510.805
702.4407, 3496.733
702.9229, 3434.767
703.4050, 3396.822
703.8871, 3417.316
704.3692, 3489.535
704.8513, 3522.788
705.3334, 3504.073
705.8156, 3479.387
706.2977, 3478.178
706.7798, 3496.787
707.2619, 3498.430
707.7440, 3481.502
708.2261, 3462.524
708.7083, 3458.124
709.1904, 3461.289
709.6725, 3461.436
710.1546, 3454.969
710.6367, 3449.814
711.1188, 3451.577
711.6010, 3456.312
712.0831, 3459.092
712.5652, 3457.104
713.0473, 3455.702
713.5294, 3457.162
714.0115, 3458.725
714.4937, 3451.396
714.9758, 3432.230
715.4579, 3420.682
715.9400, 3426.513
716.4221, 3442.645
716.9042, 3449.922
717.3864, 3449.487
717.8685, 3449.648
718.3506, 3463.942
718.8327, 3475.933
719.3148, 3464.730
719.7969, 3428.408
720.2791, 3400.134
720.7612, 3398.812
721.2433, 3403.875
721.7254, 3401.461
722.2075, 3386.384
722.6896, 3378.260
723.1718, 3379.638
723.6539, 3384.264
724.1360, 3384.909
724.6181, 3381.717
725.1002, 3380.926
725.5823, 3383.854
726.0645, 3388.620
726.5466, 3393.098
727.0287, 3397.415
727.5108, 3401.984
727.9929, 3407.740
728.4750, 3412.821
728.9572, 3418.218
729.4393, 3422.357
729.9214, 3420.570
730.4035, 3398.726
730.8856, 3386.148
731.3677, 3394.978
731.8499, 3421.622
732.3320, 3431.986
732.8141, 3423.846
733.2962, 3410.227
733.7783, 3393.383
734.2604, 3377.328
734.7426, 3379.719
735.2247, 3401.078
735.7068, 3420.622
736.1889, 3424.103
736.6710, 3417.081
737.1531, 3403.755
737.6353, 3382.518
738.1174, 3362.853
738.5995, 3339.011
739.0816, 3322.991
739.5637, 3327.857
740.0458, 3367.773
740.5280, 3395.150
741.0101, 3407.139
741.4922, 3404.929
741.9743, 3382.213
742.4564, 3341.764
742.9385, 3316.218
743.4207, 3322.077
743.9028, 3338.812
744.3849, 3340.548
744.8670, 3332.589
745.3491, 3329.143
745.8312, 3347.401
746.3134, 3361.079
746.7955, 3351.565
747.2776, 3322.298
747.7597, 3309.985
748.2418, 3324.067
748.7239, 3342.452
749.2060, 3361.231
749.6881, 3379.264
750.1702, 3369.300
750.6523, 3328.077
751.1345, 3291.567
751.6166, 3294.685
752.0987, 3320.565
752.5808, 3338.231
753.0629, 3344.204
753.5450, 3347.965
754.0272, 3356.564
754.5093, 3365.128
754.9914, 3368.740
755.4735, 3362.671
755.9556, 3359.608
756.4377, 3364.845
756.9199, 3369.577
757.4020, 3360.047
757.8841, 3331.937
758.3662, 3321.526
758.8483, 3340.022
759.3304, 3366.039
759.8126, 3361.926
760.2947, 3336.298
760.7768, 3316.226
761.2589, 3319.822
761.7410, 3324.272
762.2231, 3306.107
762.7053, 3275.571
763.1874, 3259.467
763.6695, 3278.408
764.1516, 3297.858
764.6337, 3310.701
765.1158, 3316.969
765.5980, 3313.494
766.0801, 3295.849
766.5622, 3286.038
767.0443, 3305.495
767.5264, 3340.002
768.0085, 3333.195
768.4907, 3288.200
768.9728, 3250.305
769.4549, 3261.326
769.9370, 3288.018
770.4191, 3298.775
770.9012, 3288.555
771.3834, 3280.832
771.8655, 3286.908
772.3476, 3293.508
772.8297, 3291.758
773.3118, 3277.783
773.7939, 3267.844
774.2761, 3261.679
774.7582, 3260.392
775.2403, 3269.806
775.7224, 3286.041
776.2045, 3291.745
776.6866, 3282.096
777.1688, 3268.520
777.6509, 3259.887
778.1330, 3254.465
778.6151, 3249.619
779.0972, 3248.135
779.5793, 3242.792
780.0615, 3223.558
780.5436, 3202.552
781.0257, 3201.162
781.5078, 3228.166
781.9899, 3247.193
782.4720, 3248.917
782.9542, 3240.594
783.4363, 3235.928
783.9184, 3235.021
784.4005, 3238.166
784.8826, 3253.503
785.3647, 3266.483
785.8469, 3261.316
786.3290, 3242.347
786.8111, 3225.616
787.2932, 3210.200
787.7753, 3204.627
788.2574, 3216.797
788.7396, 3243.941
789.2217, 3257.725
789.7038, 3256.323
790.1859, 3246.864
790.6680, 3220.848
791.1501, 3188.773
791.6323, 3209.786
792.1144, 3281.033
792.5965, 3334.750
793.0786, 3302.680
793.5607, 3242.315
794.0428, 3204.660
794.5250, 3197.558
795.0071, 3194.775
795.4892, 3194.297
795.9713, 3192.999
796.4534, 3189.290
796.9355, 3183.299
797.4177, 3172.014
797.8998, 3151.934
798.3819, 3137.476
798.8640, 3151.471
799.3461, 3183.081
799.8282, 3198.482
800.3104, 3189.684
800.7925, 3176.267
801.2746, 3169.256
801.7567, 3167.701
802.2388, 3170.695
802.7209, 3183.713
803.2031, 3192.999
803.6852, 3199.436
804.1673, 3200.262
804.6494, 3190.241
805.1315, 3167.618
805.6136, 3145.506
806.0958, 3124.085
806.5779, 3108.617
807.0600, 3110.270
807.5421, 3124.588
808.0242, 3139.881
808.5063, 3152.930
808.9885, 3164.162
809.4706, 3178.282
809.9527, 3190.399
810.4348, 3189.260
810.9169, 3159.519
811.3990, 3136.176
811.8812, 3126.817
812.3633, 3126.989
812.8454, 3123.689
813.3275, 3116.839
813.8096, 3109.937
814.2917, 3101.515
814.7739, 3096.280
815.2560, 3109.266
815.7381, 3133.677
816.2202, 3144.235
816.7023, 3113.884
817.1844, 3081.245
817.6666, 3063.072
818.1487, 3059.767
818.6308, 3065.169
819.1129, 3086.087
819.5950, 3101.827
820.0771, 3101.212
820.5593, 3088.172
821.0414, 3083.077
821.5235, 3085.791
822.0056, 3091.114
822.4877, 3094.836
822.9698, 3099.912
823.4520, 3113.406
823.9341, 3134.856
824.4162, 3146.615
824.8983, 3132.789
825.3804, 3116.582
825.8625, 3110.847
826.3447, 3117.217
826.8268, 3114.574
827.3089, 3100.888
827.7910, 3084.589
828.2731, 3066.359
828.7552, 3050.587
829.2374, 3055.637
829.7195, 3082.639
830.2016, 3107.835
830.6837, 3113.984
831.1658, 3110.236
831.6479, 3103.507
832.1301, 3093.785
832.6122, 3084.905
833.0943, 3076.551
833.5764, 3069.882
834.0585, 3066.295
834.5406, 3066.118
835.0228, 3064.261
835.5049, 3059.727
835.9870, 3058.943
836.4691, 3075.509
836.9512, 3097.923
837.4333, 3106.343
837.9155, 3094.663
838.3976, 3079.831
838.8796, 3064.203
839.3618, 3052.612
839.8439, 3050.479
840.3260, 3065.164
840.8081, 3071.878
841.2902, 3067.876
841.7723, 3060.656
842.2545, 3057.642
842.7366, 3058.727
843.2187, 3065.292
843.7008, 3079.772
844.1829, 3089.715
844.6650, 3077.216
845.1472, 3056.084
845.6293, 3044.211
846.1114, 3058.000
846.5935, 3061.300
847.0756, 3041.499
847.5577, 3015.680
848.0399, 3003.372
848.5220, 3006.158
849.0041, 3011.474
849.4862, 3018.222
849.9683, 3025.592
850.4504, 3033.214
850.9326, 3040.573
851.4147, 3046.532
851.8968, 3050.742
852.3789, 3053.413
852.8610, 3057.131
853.3431, 3058.441
853.8253, 3051.172
854.3074, 3027.360
854.7895, 3012.825
855.2716, 3013.521
855.7537, 3019.469
856.2358, 3011.183
856.7180, 2991.941
857.2001, 2981.968
857.6822, 2989.368
858.1643, 3002.219
858.6464, 3011.995
859.1285, 3019.238
859.6107, 3025.019
860.0928, 3029.220
860.5749, 3032.424
861.0570, 3036.688
861.5391, 3038.869
862.0212, 3030.302
862.5034, 3008.882
862.9855, 3001.401
863.4676, 3018.686
863.9497, 3041.118
864.4318, 3038.344
864.9139, 3019.135
865.3961, 3002.632
865.8782, 2992.421
866.3603, 2990.562
866.8424, 3005.650
867.3245, 3027.765
867.8066, 3037.388
868.2888, 3028.770
868.7709, 3022.354
869.2530, 3021.202
869.7351, 3024.172
870.2172, 3034.923
870.6993, 3049.343
871.1815, 3049.466
871.6636, 3021.506
872.1457, 2989.861
872.6278, 2970.943
873.1099, 2961.708
873.5920, 2956.353
874.0742, 2956.312
874.5563, 2956.484
875.0384, 2954.799
875.5205, 2954.339
876.0026, 2963.223
876.4847, 2981.141
876.9669, 2995.800
877.4490, 3005.547
877.9311, 3007.498
878.4132, 2989.729
878.8953, 2963.206
879.3774, 2947.961
879.8596, 2964.541
880.3417, 2976.565
880.8238, 2970.887
881.3059, 2957.985
881.7880, 2954.056
882.2701, 2960.328
882.7523, 2969.230
883.2344, 2980.048
883.7165, 2991.072
884.1986, 3004.066
884.6807, 3014.784
885.1628, 3012.405
885.6450, 2981.813
886.1271, 2954.084
886.6092, 2938.451
887.0913, 2936.524
887.5734, 2954.103
888.0555, 3012.919
888.5377, 3034.206
889.0198, 2997.750
889.5019, 2940.634
889.9840, 2925.123
890.4661, 2941.314
890.9482, 2953.019
891.4304, 2948.248
891.9125, 2940.560
892.3946, 2938.997
892.8767, 2940.685
893.3588, 2941.618
893.8409, 2942.030
894.3231, 2940.221
894.8052, 2936.672
895.2873, 2930.100
895.7694, 2913.993
896.2515, 2890.639
896.7336, 2881.829
897.2158, 2894.664
897.6979, 2912.893
898.1800, 2921.980
898.6621, 2926.041
899.1442, 2930.745
899.6263, 2943.475
900.1085, 2945.921
900.5906, 2927.961
901.0727, 2907.213
901.5548, 2905.664
902.0369, 2924.801
902.5190, 2934.404
903.0012, 2930.776
903.4833, 2919.199
903.9654, 2898.201
904.4475, 2875.624
904.9296, 2862.938
905.4117, 2863.299
905.8939, 2871.009
906.3760, 2893.248
906.8581, 2915.740
907.3402, 2925.989
907.8223, 2920.550
908.3044, 2923.261
908.7866, 2937.400
909.2687, 2947.675
909.7508, 2931.600
910.2329, 2902.956
910.7150, 2888.735
911.1971, 2894.309
911.6793, 2900.501
912.1614, 2900.241
912.6435, 2895.731
913.1256, 2887.143
913.6077, 2871.861
914.0898, 2866.318
914.5720, 2872.143
915.0541, 2881.831
915.5362, 2892.669
916.0183, 2902.103
916.5004, 2903.080
916.9825, 2895.277
917.4647, 2885.142
917.9468, 2870.636
918.4289, 2859.799
918.9110, 2860.311
919.3931, 2873.545
919.8752, 2880.707
920.3574, 2881.225
920.8395, 2877.390
921.3216, 2867.026
921.8037, 2853.446
922.2858, 2852.427
922.7679, 2861.944
923.2501, 2865.607
923.7322, 2844.200
924.2143, 2821.720
924.6964, 2813.712
925.1785, 2820.615
925.6606, 2826.948
926.1428, 2831.568
926.6249, 2837.973
927.1070, 2850.176
927.5891, 2863.813
928.0712, 2863.653
928.5533, 2851.350
929.0354, 2836.165
929.5175, 2820.131
929.9996, 2806.145
930.4818, 2795.716
930.9639, 2789.001
931.4460, 2785.910
931.9281, 2785.785
932.4102, 2790.727
932.8923, 2803.375
933.3745, 2819.389
933.8566, 2829.810
934.3387, 2834.351
934.8208, 2829.811
935.3029, 2806.343
935.7850, 2785.287
936.2672, 2789.040
936.7493, 2804.746
937.2314, 2806.908
937.7135, 2778.332
938.1956, 2762.065
938.6777, 2765.838
939.1599, 2778.923
939.6420, 2785.201
940.1241, 2785.734
940.6062, 2785.137
941.0883, 2783.317
941.5704, 2784.416
942.0526, 2798.523
942.5347, 2814.292
943.0168, 2818.098
943.4989, 2796.738
943.9810, 2783.380
944.4631, 2783.018
944.9453, 2782.847
945.4274, 2763.073
945.9095, 2730.041
946.3916, 2722.032
946.8737, 2744.794
947.3558, 2768.653
947.8380, 2770.567
948.3201, 2763.054
948.8022, 2756.302
949.2843, 2751.478
949.7664, 2748.634
950.2485, 2750.431
950.7307, 2749.092
951.2128, 2727.297
951.6949, 2694.884
952.1770, 2727.407
952.6591, 2819.899
953.1412, 2885.843
953.6234, 2842.963
954.1055, 2771.961
954.5876, 2724.856
955.0697, 2705.016
955.5518, 2695.743
956.0339, 2700.116
956.5161, 2706.076
956.9982, 2710.676
957.4803, 2712.894
957.9624, 2706.220
958.4445, 2692.969
958.9266, 2684.569
959.4088, 2693.060
959.8909, 2702.277
960.3730, 2703.074
960.8551, 2697.083
961.3372, 2688.979
961.8193, 2676.247
962.3015, 2668.779
962.7836, 2670.150
963.2657, 2674.957
963.7478, 2672.339
964.2299, 2664.698
964.7120, 2659.797
965.1942, 2661.277
965.6763, 2663.414
966.1584, 2663.949
966.6405, 2662.799
967.1226, 2659.682
967.6047, 2653.476
968.0869, 2648.259
968.5690, 2643.775
969.0511, 2641.648
969.5332, 2644.253
970.0153, 2650.483
970.4974, 2660.193
970.9796, 2674.341
971.4617, 2680.639
971.9438, 2666.001
972.4259, 2646.114
972.9080, 2631.064
973.3901, 2621.186
973.8723, 2615.844
974.3544, 2615.509
974.8365, 2617.372
975.3186, 2618.026
975.8007, 2620.175
976.2828, 2631.781
976.7650, 2651.209
977.2471, 2665.815
977.7292, 2674.106
978.2113, 2671.210
978.6934, 2647.352
979.1755, 2610.909
979.6577, 2602.343
980.1398, 2624.857
980.6219, 2637.013
981.1040, 2615.261
981.5861, 2585.614
982.0682, 2587.125
982.5504, 2608.023
983.0325, 2622.752
983.5146, 2616.335
983.9967, 2610.823
984.4788, 2609.660
984.9609, 2611.621
985.4431, 2617.116
985.9252, 2626.085
986.4073, 2626.579
986.8894, 2615.452
987.3715, 2601.479
987.8536, 2590.171
988.3358, 2582.852
988.8179, 2581.963
989.3000, 2591.181
989.7821, 2597.741
990.2642, 2600.800
990.7463, 2601.107
991.2285, 2599.532
991.7106, 2595.861
992.1927, 2583.410
992.6748, 2562.677
993.1569, 2553.364
993.6390, 2592.889
994.1212, 2629.318
994.6033, 2614.665
995.0854, 2549.304
995.5675, 2512.846
996.0496, 2512.918
996.5317, 2528.402
997.0139, 2559.854
997.4960, 2594.499
997.9781, 2594.495
998.4602, 2569.247
998.9423, 2551.805
999.4244, 2569.190
999.9066, 2584.828
1000.389, 2578.496
1000.871, 2561.492
1001.353, 2554.469
1001.835, 2560.237
1002.317, 2563.714
1002.799, 2562.312
1003.281, 2559.882
1003.763, 2561.208
1004.246, 2564.987
1004.728, 2569.349
1005.210, 2574.377
1005.692, 2578.125
1006.174, 2582.247
1006.656, 2582.629
1007.138, 2575.194
1007.620, 2559.461
1008.103, 2548.129
1008.585, 2541.419
1009.067, 2536.945
1009.549, 2536.570
1010.031, 2535.006
1010.513, 2523.127
1010.995, 2502.805
1011.477, 2492.971
1011.959, 2502.557
1012.442, 2514.160
1012.924, 2525.656
1013.406, 2534.263
1013.888, 2528.512
1014.370, 2511.707
1014.852, 2500.760
1015.334, 2507.008
1015.816, 2513.800
1016.299, 2505.554
1016.781, 2493.446
1017.263, 2496.488
1017.745, 2526.132
1018.227, 2537.205
1018.709, 2522.784
1019.191, 2502.083
1019.673, 2493.540
1020.155, 2495.734
1020.638, 2512.618
1021.120, 2547.375
1021.602, 2563.820
1022.084, 2523.029
1022.566, 2482.203
1023.048, 2474.980
1023.530, 2499.706
1024.012, 2509.181
1024.495, 2503.079
1024.977, 2493.901
1025.459, 2485.819
1025.941, 2481.047
1026.423, 2485.040
1026.905, 2494.662
1027.387, 2499.589
1027.869, 2494.267
1028.351, 2488.315
1028.833, 2480.835
1029.316, 2476.223
1029.798, 2486.479
1030.280, 2507.651
1030.762, 2522.728
1031.244, 2527.402
1031.726, 2525.992
1032.208, 2522.592
1032.690, 2513.394
1033.173, 2490.049
1033.655, 2440.123
1034.137, 2433.330
1034.619, 2479.528
1035.101, 2523.976
1035.583, 2512.056
1036.065, 2475.907
1036.547, 2472.705
1037.030, 2500.421
1037.512, 2520.072
1037.994, 2514.016
1038.476, 2498.547
1038.958, 2471.634
1039.440, 2442.156
1039.922, 2446.834
1040.404, 2482.257
1040.886, 2505.268
1041.369, 2496.038
1041.851, 2477.593
1042.333, 2463.711
1042.815, 2455.573
1043.297, 2455.542
1043.779, 2470.587
1044.261, 2480.948
1044.743, 2488.223
1045.225, 2486.474
1045.708, 2457.408
1046.190, 2417.750
1046.672, 2413.054
1047.154, 2446.839
1047.636, 2473.899
1048.118, 2464.249
1048.600, 2449.830
1049.082, 2446.705
1049.565, 2453.037
1050.047, 2455.970
1050.529, 2455.418
1051.011, 2454.209
1051.493, 2451.961
1051.975, 2451.555
1052.457, 2460.966
1052.939, 2473.413
1053.422, 2475.889
1053.904, 2461.290
1054.386, 2442.014
1054.868, 2414.706
1055.350, 2390.252
1055.832, 2384.462
1056.314, 2392.329
1056.796, 2398.542
1057.278, 2401.260
1057.760, 2402.917
1058.243, 2407.363
1058.725, 2408.805
1059.207, 2402.831
1059.689, 2389.991
1060.171, 2378.474
1060.653, 2368.338
1061.135, 2359.836
1061.617, 2353.115
1062.100, 2348.091
1062.582, 2342.008
1063.064, 2337.655
1063.546, 2341.845
1064.028, 2366.875
1064.510, 2384.299
1064.992, 2390.545
1065.474, 2390.527
1065.956, 2389.923
1066.439, 2388.706
1066.921, 2384.018
1067.403, 2373.990
1067.885, 2374.645
1068.367, 2408.024
1068.849, 2444.128
1069.331, 2463.615
1069.813, 2466.757
1070.296, 2464.311
1070.778, 2456.424
1071.260, 2439.282
1071.742, 2400.556
1072.224, 2360.472
1072.706, 2343.460
1073.188, 2342.519
1073.670, 2340.171
1074.152, 2334.732
1074.635, 2322.912
1075.117, 2299.985
1075.599, 2278.411
1076.081, 2278.722
1076.563, 2293.558
1077.045, 2301.041
1077.527, 2297.421
1078.009, 2291.465
1078.491, 2287.434
1078.974, 2282.634
1079.456, 2272.661
1079.938, 2258.544
1080.420, 2266.395
1080.902, 2296.838
1081.384, 2313.290
1081.866, 2280.801
1082.348, 2239.820
1082.831, 2226.653
1083.313, 2233.932
1083.795, 2245.517
1084.277, 2267.576
1084.759, 2274.587
1085.241, 2260.559
1085.723, 2239.475
1086.205, 2229.931
1086.688, 2226.415
1087.170, 2212.777
1087.652, 2185.171
1088.134, 2171.370
1088.616, 2197.603
1089.098, 2226.638
1089.580, 2243.161
1090.062, 2247.088
1090.544, 2231.979
1091.026, 2199.826
1091.509, 2174.539
1091.991, 2167.508
1092.473, 2171.729
1092.955, 2194.703
1093.437, 2221.775
1093.919, 2223.552
1094.401, 2188.454
1094.883, 2164.110
1095.366, 2154.784
1095.848, 2152.833
1096.330, 2150.208
1096.812, 2149.691
1097.294, 2157.854
1097.776, 2175.480
1098.258, 2187.424
1098.740, 2186.072
1099.223, 2184.081
1099.705, 2187.403
1100.187, 2192.053
1100.669, 2183.441
1101.151, 2164.320
1101.633, 2146.211
1102.115, 2130.456
1102.597, 2121.382
1103.079, 2126.623
1103.562, 2136.696
1104.044, 2141.098
1104.526, 2139.482
1105.008, 2133.842
1105.490, 2123.787
1105.972, 2115.112
1106.454, 2117.476
1106.936, 2119.702
1107.418, 2104.776
1107.901, 2075.132
1108.383, 2069.398
1108.865, 2102.365
1109.347, 2122.708
1109.829, 2111.723
1110.311, 2089.073
1110.793, 2092.387
1111.275, 2109.709
1111.758, 2114.767
1112.240, 2092.898
1112.722, 2076.680
1113.204, 2075.485
1113.686, 2079.566
1114.168, 2085.043
1114.650, 2091.009
1115.132, 2084.906
1115.615, 2068.234
1116.097, 2055.729
1116.579, 2060.924
1117.061, 2068.312
1117.543, 2068.934
1118.025, 2065.491
1118.507, 2064.890
1118.989, 2067.519
1119.471, 2068.207
1119.953, 2065.263
1120.436, 2062.910
1120.918, 2064.778
1121.400, 2070.140
1121.882, 2079.807
1122.364, 2096.126
1122.846, 2103.862
1123.328, 2101.287
1123.810, 2094.618
1124.293, 2084.883
1124.775, 2074.795
1125.257, 2071.014
1125.739, 2071.592
1126.221, 2070.972
1126.703, 2066.948
1127.185, 2062.005
1127.667, 2058.909
1128.150, 2052.213
1128.632, 2028.401
1129.114, 1993.932
1129.596, 1982.902
1130.078, 1998.876
1130.560, 2019.168
1131.042, 2040.237
1131.524, 2051.621
1132.006, 2043.207
1132.489, 2020.631
1132.971, 2009.376
1133.453, 2009.402
1133.935, 2007.925
1134.417, 1997.564
1134.899, 1990.719
1135.381, 2002.192
1135.863, 2022.147
1136.345, 2039.563
1136.828, 2058.825
1137.310, 2048.896
1137.792, 1998.429
1138.274, 1973.896
1138.756, 2071.196
1139.238, 2194.777
1139.720, 2195.178
1140.202, 2097.957
1140.685, 2027.242
1141.167, 2031.865
1141.649, 2027.657
1142.131, 1996.083
1142.613, 1961.838
1143.095, 1971.480
1143.577, 2005.850
1144.059, 2016.525
1144.542, 1991.316
1145.024, 1973.004
1145.506, 1985.258
1145.988, 2001.660
1146.470, 2012.813
1146.952, 2018.348
1147.434, 2013.660
1147.916, 2000.559
1148.398, 1989.713
1148.880, 1988.140
1149.363, 1987.131
1149.845, 1981.004
1150.327, 1973.968
1150.809, 1971.695
1151.291, 1974.844
1151.773, 1972.922
1152.255, 1965.031
1152.737, 1960.581
1153.219, 1967.850
1153.702, 1980.689
1154.184, 1999.765
1154.666, 2021.140
1155.148, 2024.784
1155.630, 2006.434
1156.112, 1989.637
1156.594, 1979.990
1157.076, 1973.556
1157.559, 1965.262
1158.041, 1957.464
1158.523, 1952.687
1159.005, 1950.872
1159.487, 1957.837
1159.969, 1980.168
1160.451, 1993.340
1160.933, 1977.333
1161.416, 1948.084
1161.898, 1939.501
1162.380, 1945.995
1162.862, 1953.001
1163.344, 1954.063
1163.826, 1957.708
1164.308, 1967.532
1164.790, 1976.079
1165.272, 1971.581
1165.755, 1959.432
1166.237, 1961.738
1166.719, 1978.780
1167.201, 1987.683
1167.683, 1964.707
1168.165, 1946.456
1168.647, 1948.631
1169.129, 1962.476
1169.611, 1964.344
1170.094, 1956.509
1170.576, 1954.125
1171.058, 1962.859
1171.540, 1969.924
1172.022, 1965.972
1172.504, 1957.995
1172.986, 1950.078
1173.468, 1942.377
1173.951, 1944.905
1174.433, 1957.357
1174.915, 1966.049
1175.397, 1962.079
1175.879, 1953.805
1176.361, 1944.464
1176.843, 1935.863
1177.325, 1931.150
1177.807, 1931.381
1178.290, 1931.853
1178.772, 1933.107
1179.254, 1927.668
1179.736, 1892.788
1180.218, 1860.636
1180.700, 1871.763
1181.182, 1919.852
1181.664, 1944.646
1182.146, 1938.907
1182.629, 1928.308
1183.111, 1916.511
1183.593, 1907.671
1184.075, 1909.762
1184.557, 1916.803
1185.039, 1920.043
1185.521, 1916.638
1186.003, 1917.480
1186.486, 1923.288
1186.968, 1932.897
1187.450, 1949.861
1187.932, 1966.471
1188.414, 1963.888
1188.896, 1949.708
1189.378, 1941.122
1189.860, 1948.238
1190.343, 1954.267
1190.825, 1958.557
1191.307, 1960.973
1191.789, 1964.108
1192.271, 1964.567
1192.753, 1947.748
1193.235, 1917.235
1193.717, 1897.735
1194.199, 1908.468
1194.682, 1920.060
1195.164, 1926.593
1195.646, 1930.438
1196.128, 1935.941
1196.610, 1941.958
1197.092, 1945.102
1197.574, 1944.724
1198.056, 1942.276
1198.538, 1934.531
1199.021, 1929.414
1199.503, 1931.870
1199.985, 1938.539
1200.467, 1937.192
1200.949, 1929.421
1201.431, 1922.150
1201.913, 1918.131
1202.395, 1913.927
1202.878, 1901.372
1203.360, 1894.327
1203.842, 1905.919
1204.324, 1934.329
1204.806, 1949.083
1205.288, 1952.663
1205.770, 1967.102
1206.252, 2036.823
1206.734, 2084.191
1207.217, 2055.493
1207.699, 1991.387
1208.181, 1934.218
1208.663, 1884.098
1209.145, 1865.619
1209.627, 1880.984
1210.109, 1902.948
1210.591, 1919.508
1211.073, 1929.422
1211.556, 1930.524
1212.038, 1924.851
1212.520, 1914.483
1213.002, 1899.690
1213.484, 1892.437
1213.966, 1896.766
1214.448, 1903.574
1214.930, 1910.712
1215.413, 1912.911
1215.895, 1900.652
1216.377, 1875.949
1216.859, 1878.367
1217.341, 1908.040
1217.823, 1926.383
1218.305, 1907.331
1218.787, 1886.009
1219.270, 1890.906
1219.752, 1908.943
1220.234, 1925.504
1220.716, 1943.172
1221.198, 1937.290
1221.680, 1906.644
1222.162, 1879.944
1222.644, 1882.564
1223.126, 1890.862
1223.609, 1879.273
1224.091, 1861.680
1224.573, 1873.869
1225.055, 1923.595
1225.537, 1955.361
1226.019, 1963.331
1226.501, 1954.820
1226.983, 1916.686
1227.465, 1880.797
1227.948, 1884.475
1228.430, 1919.817
1228.912, 1921.706
1229.394, 1884.249
1229.876, 1859.404
1230.358, 1859.473
1230.840, 1874.166
1231.322, 1909.446
1231.805, 1943.235
1232.287, 1946.485
1232.769, 1917.115
1233.251, 1903.325
1233.733, 1906.240
1234.215, 1912.610
1234.697, 1919.895
1235.179, 1923.068
1235.661, 1911.292
1236.144, 1894.915
1236.626, 1889.934
1237.108, 1900.499
1237.590, 1902.051
1238.072, 1893.242
1238.554, 1890.027
1239.036, 1912.580
1239.518, 1936.875
1240.000, 1939.499
1240.483, 1927.784
1240.965, 1919.965
1241.447, 1918.296
1241.929, 1910.370
1242.411, 1893.856
1242.893, 1885.200
1243.375, 1912.012
1243.857, 1942.055
1244.339, 1944.498
1244.822, 1923.796
1245.304, 1908.105
1245.786, 1897.538
1246.268, 1892.450
1246.750, 1893.654
1247.232, 1896.253
1247.714, 1893.520
1248.196, 1891.405
1248.679, 1896.778
1249.161, 1909.071
1249.643, 1920.912
1250.125, 1933.192
1250.607, 1932.144
1251.089, 1908.762
1251.571, 1882.163
1252.053, 1860.431
1252.536, 1850.825
1253.018, 1867.733
1253.500, 1913.322
1253.982, 1928.818
1254.464, 1913.606
1254.946, 1900.588
1255.428, 1912.685
1255.910, 1925.031
1256.392, 1915.358
1256.875, 1896.335
1257.357, 1884.692
1257.839, 1880.898
1258.321, 1885.035
1258.803, 1896.992
1259.285, 1905.570
1259.767, 1901.332
1260.249, 1893.205
1260.731, 1883.356
1261.214, 1875.115
1261.696, 1874.963
1262.178, 1883.069
1262.660, 1889.387
1263.142, 1893.035
1263.624, 1895.067
1264.106, 1896.204
1264.588, 1896.085
1265.071, 1896.084
1265.553, 1894.074
1266.035, 1881.451
1266.517, 1859.803
1266.999, 1848.771
1267.481, 1853.287
1267.963, 1857.967
1268.445, 1843.851
1268.927, 1837.072
1269.410, 1858.163
1269.892, 1895.598
1270.374, 1901.647
1270.856, 1881.950
1271.338, 1867.569
1271.820, 1868.869
1272.302, 1873.080
##END=



