##NAMES=Plumbotsumite
##RRUFFID=R110157
##IDEAL CHEMISTRY=Pb^2+^_5_Si_4_O_8_(OH)_10_
##LOCALITY=Blue Bell claims, Baker, San Bernardino County, California, USA
##OWNER=RRUFF
##SOURCE=Donald M Doell
##DESCRIPTION=Glassy pale blue massive, with a well-defined cleavage.
##STATUS=The identification of this mineral has been confirmed by single-crystal X-ray diffraction.
##URL=rruff.info/R110157
185.9513, 1515.672
186.4334, 1523.431
186.9155, 1525.933
187.3976, 1525.147
187.8798, 1528.191
188.3619, 1535.791
188.8440, 1545.109
189.3261, 1552.257
189.8082, 1557.412
190.2903, 1562.070
190.7725, 1566.658
191.2546, 1571.332
191.7367, 1577.019
192.2188, 1584.247
192.7009, 1591.333
193.1830, 1594.890
193.6652, 1594.907
194.1473, 1594.581
194.6294, 1595.668
195.1115, 1598.041
195.5936, 1600.372
196.0757, 1602.852
196.5579, 1604.809
197.0400, 1604.819
197.5221, 1602.793
198.0042, 1599.906
198.4863, 1596.678
198.9684, 1593.130
199.4506, 1589.307
199.9327, 1585.365
200.4148, 1581.050
200.8969, 1575.521
201.3790, 1568.460
201.8611, 1561.680
202.3433, 1556.601
202.8254, 1553.457
203.3075, 1549.165
203.7896, 1543.322
204.2717, 1536.412
204.7538, 1529.694
205.2360, 1523.208
205.7181, 1516.647
206.2002, 1509.740
206.6823, 1502.376
207.1644, 1495.153
207.6465, 1487.961
208.1287, 1480.996
208.6108, 1474.829
209.0929, 1469.750
209.5750, 1464.600
210.0571, 1458.505
210.5392, 1451.051
211.0214, 1444.535
211.5035, 1439.420
211.9856, 1435.331
212.4677, 1430.763
212.9498, 1425.590
213.4319, 1420.290
213.9140, 1415.024
214.3962, 1409.685
214.8783, 1404.851
215.3604, 1400.667
215.8425, 1397.031
216.3246, 1393.879
216.8067, 1391.651
217.2889, 1388.987
217.7710, 1384.605
218.2531, 1377.238
218.7352, 1371.961
219.2173, 1370.029
219.6994, 1370.438
220.1816, 1368.571
220.6637, 1363.610
221.1458, 1357.688
221.6279, 1352.257
222.1100, 1347.753
222.5921, 1342.386
223.0743, 1335.673
223.5564, 1327.985
224.0385, 1320.704
224.5206, 1314.184
225.0027, 1307.821
225.4848, 1301.373
225.9670, 1295.202
226.4491, 1288.233
226.9312, 1280.050
227.4133, 1271.006
227.8954, 1262.255
228.3775, 1253.869
228.8597, 1245.933
229.3418, 1238.706
229.8239, 1232.691
230.3060, 1226.179
230.7881, 1218.748
231.2702, 1210.653
231.7524, 1203.525
232.2345, 1197.890
232.7166, 1192.530
233.1987, 1186.765
233.6808, 1180.250
234.1629, 1174.041
234.6451, 1168.103
235.1272, 1162.469
235.6093, 1157.218
236.0914, 1152.409
236.5735, 1147.900
237.0556, 1143.696
237.5378, 1140.175
238.0199, 1136.172
238.5020, 1131.525
238.9841, 1126.363
239.4662, 1121.264
239.9483, 1115.946
240.4305, 1111.135
240.9126, 1107.287
241.3947, 1105.038
241.8768, 1102.378
242.3589, 1098.985
242.8410, 1095.160
243.3232, 1091.857
243.8053, 1089.118
244.2874, 1086.854
244.7695, 1085.095
245.2516, 1084.092
245.7337, 1082.954
246.2159, 1081.676
246.6980, 1080.198
247.1801, 1078.450
247.6622, 1076.625
248.1443, 1074.173
248.6264, 1070.595
249.1086, 1064.681
249.5907, 1060.531
250.0728, 1058.731
250.5549, 1058.593
251.0370, 1058.346
251.5191, 1058.037
252.0013, 1057.586
252.4834, 1056.972
252.9655, 1056.240
253.4476, 1055.256
253.9297, 1053.802
254.4118, 1052.213
254.8940, 1051.247
255.3761, 1051.216
255.8582, 1051.250
256.3403, 1051.010
256.8224, 1050.461
257.3046, 1049.616
257.7867, 1048.141
258.2688, 1046.553
258.7509, 1045.999
259.2330, 1046.973
259.7151, 1047.933
260.1973, 1048.178
260.6794, 1047.402
261.1615, 1047.258
261.6436, 1047.888
262.1257, 1049.037
262.6078, 1050.381
263.0900, 1052.134
263.5721, 1053.582
264.0542, 1054.145
264.5363, 1053.467
265.0184, 1054.769
265.5005, 1058.999
265.9827, 1064.167
266.4648, 1067.256
266.9469, 1067.436
267.4290, 1067.919
267.9111, 1069.937
268.3932, 1073.626
268.8754, 1076.202
269.3575, 1077.267
269.8396, 1077.784
270.3217, 1078.754
270.8038, 1080.008
271.2859, 1082.313
271.7681, 1086.357
272.2502, 1092.005
272.7323, 1095.909
273.2144, 1097.568
273.6965, 1098.343
274.1786, 1099.756
274.6608, 1102.046
275.1429, 1103.715
275.6250, 1104.074
276.1071, 1103.411
276.5892, 1104.273
277.0714, 1107.220
277.5535, 1110.057
278.0356, 1110.365
278.5177, 1107.852
278.9998, 1105.837
279.4819, 1105.247
279.9641, 1105.607
280.4462, 1104.899
280.9283, 1103.017
281.4104, 1100.485
281.8925, 1097.717
282.3746, 1094.723
282.8568, 1091.134
283.3389, 1086.672
283.8210, 1081.794
284.3031, 1077.867
284.7852, 1074.995
285.2673, 1072.311
285.7495, 1069.273
286.2316, 1065.904
286.7137, 1062.269
287.1958, 1058.374
287.6779, 1054.250
288.1600, 1049.714
288.6422, 1044.745
289.1243, 1040.176
289.6064, 1036.638
290.0885, 1033.990
290.5706, 1031.950
291.0527, 1030.709
291.5349, 1029.452
292.0170, 1026.775
292.4991, 1022.769
292.9812, 1018.325
293.4633, 1013.619
293.9454, 1008.846
294.4276, 1004.792
294.9097, 1001.624
295.3918, 998.7989
295.8739, 995.6632
296.3560, 992.3113
296.8381, 989.0193
297.3203, 985.8461
297.8024, 982.8828
298.2845, 980.3174
298.7666, 978.1645
299.2487, 976.2488
299.7308, 974.6314
300.2130, 973.1174
300.6951, 971.1686
301.1772, 968.2968
301.6593, 965.0076
302.1414, 961.8408
302.6235, 958.8245
303.1057, 956.1531
303.5878, 954.3055
304.0699, 952.9086
304.5520, 951.3006
305.0341, 949.0768
305.5162, 946.7357
305.9984, 944.8085
306.4805, 943.2634
306.9626, 941.7458
307.4447, 939.8483
307.9268, 937.8991
308.4089, 936.4133
308.8911, 935.8273
309.3732, 935.2676
309.8553, 933.7911
310.3374, 931.6951
310.8195, 929.9520
311.3016, 929.3541
311.7838, 929.2507
312.2659, 929.0820
312.7480, 928.7542
313.2301, 928.3067
313.7122, 927.9582
314.1943, 927.5038
314.6765, 926.5189
315.1586, 924.1508
315.6407, 921.6676
316.1228, 919.8395
316.6049, 918.8472
317.0870, 918.2263
317.5692, 918.2631
318.0513, 918.4493
318.5334, 918.0698
319.0155, 916.5541
319.4976, 914.7218
319.9797, 912.7538
320.4619, 910.6193
320.9440, 908.9280
321.4261, 907.9007
321.9082, 907.3848
322.3903, 907.2416
322.8724, 908.0154
323.3546, 908.5594
323.8367, 908.4501
324.3188, 907.7059
324.8009, 907.0787
325.2830, 906.5928
325.7651, 906.3389
326.2473, 906.3830
326.7294, 907.0109
327.2115, 907.6537
327.6936, 908.4012
328.1757, 909.1959
328.6578, 909.7226
329.1400, 909.8226
329.6221, 909.8232
330.1042, 909.8545
330.5863, 909.8315
331.0684, 909.9931
331.5505, 910.3496
332.0327, 910.8703
332.5148, 911.4978
332.9969, 912.2529
333.4790, 913.0200
333.9611, 913.6798
334.4432, 914.0530
334.9254, 914.9535
335.4075, 916.6179
335.8896, 918.5481
336.3717, 920.0568
336.8538, 920.9983
337.3359, 921.8154
337.8180, 922.7073
338.3001, 923.6666
338.7823, 923.9211
339.2644, 923.1760
339.7465, 922.3492
340.2286, 922.6345
340.7107, 924.3994
341.1928, 925.1245
341.6750, 924.0405
342.1571, 921.6735
342.6392, 920.2094
343.1213, 919.8223
343.6034, 919.3992
344.0855, 917.8015
344.5677, 915.1233
345.0498, 913.3898
345.5319, 913.0228
346.0140, 913.4335
346.4961, 913.6895
346.9782, 913.7844
347.4604, 913.5302
347.9425, 912.6761
348.4246, 911.3607
348.9067, 910.1293
349.3888, 909.0309
349.8709, 907.9141
350.3531, 906.2963
350.8352, 904.4142
351.3173, 903.1536
351.7994, 903.3503
352.2815, 904.2348
352.7636, 904.5645
353.2458, 904.3292
353.7279, 903.7906
354.2100, 902.9122
354.6921, 901.9064
355.1742, 901.2024
355.6563, 901.4021
356.1385, 901.4282
356.6206, 899.6318
357.1027, 896.4612
357.5848, 894.2018
358.0669, 895.2532
358.5490, 897.3254
359.0312, 898.2077
359.5133, 897.1748
359.9954, 895.6107
360.4775, 893.9044
360.9596, 892.2574
361.4417, 891.1127
361.9239, 891.3124
362.4060, 891.5561
362.8881, 890.9883
363.3702, 889.3215
363.8523, 887.9477
364.3344, 887.5667
364.8166, 887.6323
365.2987, 887.5196
365.7808, 886.2919
366.2629, 885.6705
366.7450, 886.3093
367.2271, 888.2073
367.7093, 890.1121
368.1914, 892.4039
368.6735, 894.3153
369.1556, 895.3417
369.6377, 894.4023
370.1198, 893.8604
370.6020, 893.8406
371.0841, 894.2731
371.5662, 894.9450
372.0483, 896.0051
372.5304, 897.0949
373.0125, 898.0919
373.4947, 899.0301
373.9768, 899.7289
374.4589, 900.1384
374.9410, 900.3557
375.4231, 900.5031
375.9052, 900.5342
376.3874, 900.6694
376.8695, 900.9635
377.3516, 901.4384
377.8337, 902.2868
378.3158, 903.7224
378.7979, 905.0383
379.2801, 905.2866
379.7622, 904.4057
380.2443, 904.1170
380.7264, 904.9827
381.2085, 906.4620
381.6906, 906.9582
382.1728, 906.4408
382.6549, 905.9855
383.1370, 906.4822
383.6191, 907.6647
384.1012, 908.4421
384.5833, 908.6080
385.0655, 908.6278
385.5476, 909.2701
386.0297, 910.3348
386.5118, 911.0892
386.9939, 910.7455
387.4760, 910.0681
387.9582, 910.3807
388.4403, 911.7288
388.9224, 912.9511
389.4045, 913.3170
389.8866, 912.9302
390.3687, 911.8650
390.8509, 909.4406
391.3330, 907.1541
391.8151, 906.4006
392.2972, 906.8091
392.7793, 906.8271
393.2614, 904.8923
393.7436, 902.7867
394.2257, 901.8539
394.7078, 902.8175
395.1899, 903.7627
395.6720, 903.8918
396.1541, 903.5807
396.6363, 903.4395
397.1184, 904.3004
397.6005, 904.7051
398.0826, 903.7977
398.5647, 901.2827
399.0468, 899.6940
399.5290, 900.4725
400.0111, 901.5990
400.4932, 901.4324
400.9753, 898.4742
401.4574, 896.2496
401.9395, 895.4709
402.4217, 895.7600
402.9038, 895.2482
403.3859, 893.2086
403.8680, 891.4433
404.3501, 890.9916
404.8322, 892.4475
405.3144, 893.1470
405.7965, 892.9667
406.2786, 892.1696
406.7607, 890.9407
407.2428, 889.0927
407.7249, 887.8494
408.2071, 887.8368
408.6892, 888.8221
409.1713, 889.2147
409.6534, 888.8890
410.1355, 888.6882
410.6176, 889.6154
411.0998, 891.4498
411.5819, 892.9265
412.0640, 893.8258
412.5461, 894.2072
413.0282, 893.8146
413.5103, 892.8223
413.9925, 892.2531
414.4746, 893.0800
414.9567, 894.5800
415.4388, 895.4845
415.9209, 895.6180
416.4030, 895.9355
416.8852, 897.9142
417.3673, 900.5129
417.8494, 902.0449
418.3315, 900.6521
418.8136, 899.0148
419.2957, 898.9503
419.7779, 900.2753
420.2600, 901.6711
420.7421, 902.6087
421.2242, 903.3648
421.7063, 904.1420
422.1884, 905.1624
422.6706, 905.9091
423.1527, 906.0031
423.6348, 905.7766
424.1169, 905.8515
424.5990, 905.8273
425.0811, 906.5740
425.5633, 908.7352
426.0454, 912.6384
426.5275, 915.5126
427.0096, 917.1077
427.4917, 917.8645
427.9738, 918.0895
428.4560, 917.5436
428.9381, 916.9156
429.4202, 916.2180
429.9023, 915.4988
430.3844, 914.9721
430.8665, 914.7902
431.3487, 914.3746
431.8308, 913.3616
432.3129, 911.7298
432.7950, 910.2368
433.2771, 909.0184
433.7592, 907.6268
434.2414, 905.2073
434.7235, 901.8719
435.2056, 898.9088
435.6877, 896.8212
436.1698, 895.3155
436.6519, 893.8506
437.1341, 892.4221
437.6162, 890.8841
438.0983, 888.8907
438.5804, 886.7592
439.0625, 884.9791
439.5446, 883.5800
440.0268, 882.7214
440.5089, 882.9450
440.9910, 883.8016
441.4731, 884.3703
441.9552, 883.8492
442.4373, 883.2048
442.9195, 883.0732
443.4016, 883.4583
443.8837, 883.8828
444.3658, 884.1187
444.8479, 884.3115
445.3300, 884.5661
445.8122, 884.7932
446.2943, 885.2057
446.7764, 885.7521
447.2585, 886.4979
447.7406, 887.6198
448.2227, 889.6830
448.7049, 891.5739
449.1870, 892.9080
449.6691, 893.5344
450.1512, 894.5336
450.6333, 896.2313
451.1154, 897.9583
451.5976, 898.9943
452.0797, 899.0587
452.5618, 899.4225
453.0439, 900.4083
453.5260, 901.7709
454.0081, 902.8927
454.4903, 903.8195
454.9724, 904.2539
455.4545, 903.8083
455.9366, 902.6243
456.4187, 901.8090
456.9008, 901.4853
457.3830, 901.0201
457.8651, 899.4475
458.3472, 897.0732
458.8293, 895.0086
459.3114, 893.8112
459.7935, 892.8439
460.2757, 891.1840
460.7578, 888.9579
461.2399, 886.8132
461.7220, 885.4833
462.2041, 884.2375
462.6862, 882.2131
463.1684, 879.0419
463.6505, 876.2732
464.1326, 875.3243
464.6147, 875.1095
465.0968, 874.2010
465.5789, 871.3505
466.0611, 868.6469
466.5432, 866.7943
467.0253, 865.7484
467.5074, 864.6474
467.9895, 863.3245
468.4716, 861.9940
468.9538, 860.7676
469.4359, 859.7247
469.9180, 858.6424
470.4001, 857.5530
470.8822, 856.3724
471.3643, 854.7148
471.8465, 851.9379
472.3286, 850.6340
472.8107, 852.1216
473.2928, 855.6732
473.7749, 856.9113
474.2570, 855.4687
474.7392, 853.5598
475.2213, 853.0154
475.7034, 853.5735
476.1855, 853.3195
476.6676, 851.9015
477.1497, 850.1887
477.6319, 849.2346
478.1140, 848.9531
478.5961, 849.0761
479.0782, 849.9294
479.5603, 850.8618
480.0424, 851.0201
480.5246, 850.4818
481.0067, 849.8851
481.4888, 849.6395
481.9709, 849.5020
482.4530, 849.3141
482.9352, 849.1756
483.4173, 848.6350
483.8994, 847.3729
484.3815, 845.6097
484.8636, 843.6987
485.3457, 841.1495
485.8279, 839.0441
486.3100, 837.8923
486.7921, 837.7020
487.2742, 837.1656
487.7563, 836.1004
488.2384, 834.8951
488.7206, 833.7335
489.2027, 832.5179
489.6848, 831.7682
490.1669, 831.8987
490.6490, 832.0738
491.1311, 830.5768
491.6133, 827.0610
492.0954, 824.4206
492.5775, 823.8989
493.0596, 824.8312
493.5417, 824.6207
494.0238, 823.2427
494.5060, 821.8058
494.9881, 821.2082
495.4702, 821.1645
495.9523, 820.9873
496.4344, 820.5824
496.9165, 820.0125
497.3987, 819.3536
497.8808, 818.5698
498.3629, 817.6093
498.8450, 816.5724
499.3271, 815.2578
499.8092, 813.2570
500.2914, 810.7355
500.7735, 808.7261
501.2556, 807.8757
501.7377, 807.4489
502.2198, 807.1202
502.7019, 807.0969
503.1841, 806.5481
503.6662, 804.7130
504.1483, 802.5861
504.6304, 801.3919
505.1125, 802.0920
505.5946, 802.1492
506.0768, 800.7968
506.5589, 798.4533
507.0410, 797.3157
507.5231, 797.7238
508.0052, 798.3555
508.4873, 798.4883
508.9695, 798.1088
509.4516, 797.9902
509.9337, 798.1951
510.4158, 798.3834
510.8979, 798.0475
511.3800, 797.3128
511.8622, 796.8082
512.3443, 796.8515
512.8264, 796.9746
513.3085, 796.4202
513.7906, 795.3728
514.2728, 794.4851
514.7549, 794.5329
515.2370, 794.6456
515.7191, 794.0056
516.2012, 792.5226
516.6833, 790.9568
517.1655, 789.2561
517.6476, 787.8431
518.1297, 787.0847
518.6118, 787.5132
519.0939, 788.0406
519.5760, 788.6876
520.0582, 789.3111
520.5403, 789.5800
521.0224, 789.1448
521.5045, 788.8347
521.9866, 788.9232
522.4688, 789.4052
522.9509, 789.6647
523.4330, 789.6025
523.9151, 789.5245
524.3972, 789.7111
524.8793, 790.1633
525.3615, 790.3941
525.8436, 790.2679
526.3257, 790.1436
526.8078, 790.7830
527.2899, 791.9814
527.7720, 792.7687
528.2542, 792.6935
528.7363, 792.0437
529.2184, 790.9177
529.7005, 789.4445
530.1826, 788.2725
530.6647, 788.1135
531.1469, 788.2520
531.6290, 788.0043
532.1111, 787.1692
532.5932, 786.5381
533.0753, 786.3708
533.5574, 786.6016
534.0396, 787.1638
534.5217, 789.5384
535.0038, 790.5036
535.4859, 788.6502
535.9680, 785.0242
536.4501, 782.9356
536.9323, 783.0694
537.4144, 783.5909
537.8965, 783.9199
538.3786, 784.0508
538.8607, 783.9948
539.3428, 783.6687
539.8250, 783.3821
540.3071, 783.6142
540.7892, 784.2590
541.2713, 784.2688
541.7534, 783.3326
542.2355, 782.1231
542.7177, 781.3539
543.1998, 781.0526
543.6819, 781.3355
544.1640, 783.1165
544.6461, 784.8991
545.1282, 785.0768
545.6104, 783.8652
546.0925, 782.6274
546.5746, 781.8740
547.0567, 781.4830
547.5388, 781.3538
548.0209, 781.4398
548.5031, 781.9251
548.9852, 783.1137
549.4673, 784.5943
549.9494, 785.9679
550.4315, 787.7147
550.9136, 788.5478
551.3958, 788.0042
551.8779, 786.5294
552.3600, 785.3631
552.8421, 784.4045
553.3242, 784.0825
553.8063, 784.9227
554.2885, 786.6854
554.7706, 787.3026
555.2527, 786.6854
555.7348, 785.8891
556.2169, 785.9842
556.6990, 786.6145
557.1812, 786.7574
557.6633, 786.1229
558.1454, 785.5172
558.6275, 785.7305
559.1096, 786.5214
559.5917, 787.4666
560.0739, 788.6578
560.5560, 789.7082
561.0381, 790.4510
561.5202, 790.8889
562.0023, 791.0778
562.4844, 790.5299
562.9666, 790.1548
563.4487, 790.3572
563.9308, 791.1772
564.4129, 792.3300
564.8950, 793.9874
565.3771, 795.7760
565.8593, 797.5606
566.3414, 799.5631
566.8235, 800.4633
567.3056, 799.8206
567.7877, 798.5134
568.2698, 798.0153
568.7520, 798.3112
569.2341, 799.1769
569.7162, 800.6941
570.1983, 802.6344
570.6804, 804.9895
571.1625, 807.6134
571.6447, 809.5087
572.1268, 809.2937
572.6089, 808.4758
573.0910, 808.6122
573.5731, 810.0073
574.0552, 811.3699
574.5374, 812.0858
575.0195, 812.5121
575.5016, 812.9830
575.9837, 813.6075
576.4658, 814.1932
576.9479, 814.7772
577.4301, 815.2731
577.9122, 815.5129
578.3943, 815.3878
578.8764, 815.1744
579.3585, 814.9872
579.8406, 814.7678
580.3228, 814.1703
580.8049, 813.1869
581.2870, 811.8691
581.7691, 809.9484
582.2512, 807.6798
582.7333, 806.1924
583.2155, 805.6301
583.6975, 805.1580
584.1796, 803.9241
584.6617, 802.2620
585.1439, 800.6619
585.6260, 799.0951
586.1081, 797.9477
586.5902, 797.8923
587.0723, 798.3812
587.5544, 798.3566
588.0366, 796.5774
588.5187, 795.1684
589.0008, 795.0241
589.4829, 796.0702
589.9650, 796.6950
590.4471, 796.7317
590.9293, 796.5057
591.4114, 795.9319
591.8935, 794.7699
592.3756, 795.0966
592.8577, 797.3381
593.3398, 799.9110
593.8220, 801.1609
594.3041, 801.2291
594.7862, 801.2585
595.2683, 801.5809
595.7504, 801.6277
596.2325, 799.9113
596.7147, 797.2808
597.1968, 795.9503
597.6789, 798.1165
598.1610, 800.9108
598.6431, 802.3198
599.1252, 802.5584
599.6074, 802.7141
600.0895, 803.1038
600.5716, 803.5668
601.0537, 804.0225
601.5358, 804.4432
602.0179, 804.9451
602.5001, 805.6552
602.9822, 806.3213
603.4643, 806.7181
603.9464, 806.7372
604.4285, 806.9827
604.9106, 807.6124
605.3928, 808.2638
605.8749, 808.1718
606.3570, 807.4223
606.8391, 807.2465
607.3212, 808.4482
607.8033, 809.8596
608.2855, 809.4240
608.7676, 807.5684
609.2497, 805.8645
609.7318, 805.5204
610.2139, 805.4205
610.6960, 804.6462
611.1782, 803.1712
611.6603, 801.7394
612.1424, 800.8225
612.6245, 799.8633
613.1066, 798.5135
613.5887, 796.5965
614.0709, 794.6256
614.5530, 792.5771
615.0351, 790.4980
615.5172, 788.2302
615.9993, 785.4896
616.4814, 783.9065
616.9636, 783.9988
617.4457, 784.9267
617.9278, 785.3087
618.4099, 785.1236
618.8920, 784.2380
619.3741, 782.1682
619.8563, 779.6561
620.3384, 777.7072
620.8205, 776.2862
621.3026, 775.2460
621.7847, 774.8869
622.2668, 774.5883
622.7490, 773.8777
623.2311, 772.6817
623.7132, 771.4460
624.1953, 769.9797
624.6774, 768.7502
625.1595, 768.1158
625.6417, 768.5102
626.1238, 768.7158
626.6059, 768.8058
627.0880, 768.6578
627.5701, 767.9550
628.0522, 766.6101
628.5344, 765.6288
629.0165, 765.2641
629.4986, 765.3097
629.9807, 765.3949
630.4628, 765.5320
630.9449, 765.8027
631.4271, 766.5212
631.9092, 767.2002
632.3913, 767.2111
632.8734, 766.6287
633.3555, 766.0057
633.8376, 765.3889
634.3198, 764.9716
634.8019, 764.9095
635.2840, 765.2816
635.7661, 765.6533
636.2482, 766.1227
636.7303, 766.4666
637.2125, 766.5353
637.6946, 766.3050
638.1767, 765.8704
638.6588, 765.2032
639.1409, 764.4113
639.6230, 763.5834
640.1052, 762.7364
640.5873, 762.1469
641.0694, 761.9936
641.5515, 761.9655
642.0336, 761.4591
642.5157, 760.6726
642.9979, 760.1776
643.4800, 760.5135
643.9621, 761.0264
644.4442, 761.2430
644.9263, 761.2102
645.4084, 761.2578
645.8906, 761.5523
646.3727, 761.8986
646.8548, 762.2574
647.3369, 762.6630
647.8190, 762.8344
648.3011, 762.7802
648.7833, 762.4792
649.2654, 761.7730
649.7475, 760.5822
650.2296, 759.9131
650.7117, 759.8660
651.1938, 760.1501
651.6760, 760.5388
652.1581, 760.9759
652.6402, 761.3100
653.1223, 761.5828
653.6044, 761.5552
654.0865, 760.3812
654.5687, 758.8217
655.0508, 758.3305
655.5329, 760.8747
656.0150, 763.1115
656.4971, 763.7125
656.9792, 762.9012
657.4614, 761.9479
657.9435, 760.4435
658.4256, 759.4718
658.9077, 759.5353
659.3898, 760.5803
659.8719, 761.2783
660.3541, 761.5618
660.8362, 761.8054
661.3183, 762.3759
661.8004, 763.1393
662.2825, 763.5898
662.7646, 763.6966
663.2468, 763.5774
663.7289, 763.0726
664.2110, 762.5137
664.6931, 762.3670
665.1752, 762.8662
665.6573, 763.4554
666.1395, 764.0455
666.6216, 764.5453
667.1037, 764.8405
667.5858, 764.3092
668.0679, 764.3903
668.5500, 765.4511
669.0322, 767.0716
669.5143, 768.3867
669.9964, 769.4283
670.4785, 769.9715
670.9606, 769.6829
671.4427, 769.0256
671.9249, 769.4193
672.4070, 770.7465
672.8891, 772.0887
673.3712, 772.9381
673.8533, 773.4789
674.3354, 773.9135
674.8176, 774.2424
675.2997, 774.3651
675.7818, 774.1693
676.2639, 773.8034
676.7460, 773.3408
677.2281, 772.7856
677.7103, 772.1856
678.1924, 771.4945
678.6745, 770.8111
679.1566, 770.1531
679.6387, 769.4525
680.1208, 769.1559
680.6030, 769.3879
681.0851, 769.7371
681.5672, 769.5857
682.0493, 769.0702
682.5314, 768.7723
683.0135, 768.8170
683.4957, 769.1533
683.9778, 769.9385
684.4599, 770.9539
684.9420, 771.7616
685.4241, 772.0339
685.9063, 772.2643
686.3884, 772.3320
686.8705, 772.4708
687.3526, 773.5198
687.8347, 776.4344
688.3168, 778.9609
688.7990, 780.5191
689.2811, 781.1999
689.7632, 781.4189
690.2453, 781.1877
690.7274, 780.4666
691.2095, 778.8671
691.6917, 776.7905
692.1738, 775.5905
692.6559, 775.2462
693.1380, 774.7311
693.6201, 772.7354
694.1022, 770.5281
694.5844, 769.5092
695.0665, 770.0676
695.5486, 770.3399
696.0307, 769.5236
696.5128, 768.2578
696.9949, 767.0338
697.4771, 765.9286
697.9592, 764.7756
698.4413, 763.6609
698.9234, 762.4172
699.4055, 760.7197
699.8876, 758.5655
700.3698, 756.7818
700.8519, 755.6332
701.3340, 754.6689
701.8161, 753.1048
702.2982, 751.2348
702.7803, 749.7803
703.2625, 749.0879
703.7446, 748.8102
704.2267, 748.6776
704.7088, 748.7904
705.1909, 749.3806
705.6730, 751.1463
706.1552, 752.6570
706.6373, 753.6463
707.1194, 754.1064
707.6015, 753.9041
708.0836, 752.7382
708.5657, 751.7636
709.0479, 751.3788
709.5300, 751.5518
710.0121, 752.5221
710.4942, 754.2336
710.9763, 755.4132
711.4584, 754.8712
711.9406, 753.4933
712.4227, 752.2737
712.9048, 751.2768
713.3869, 750.4819
713.8690, 749.9746
714.3511, 749.6148
714.8333, 749.2826
715.3154, 748.9017
715.7975, 748.9030
716.2796, 749.6944
716.7617, 750.4056
717.2438, 750.2510
717.7260, 749.1376
718.2081, 748.3933
718.6902, 748.2141
719.1723, 747.9775
719.6544, 746.5404
720.1365, 744.4965
720.6187, 743.4170
721.1008, 743.8337
721.5829, 744.6544
722.0650, 745.0618
722.5471, 745.3561
723.0292, 745.9535
723.5114, 747.2891
723.9935, 748.5121
724.4756, 750.0018
724.9577, 751.1135
725.4398, 750.4263
725.9219, 746.9567
726.4041, 744.8048
726.8862, 745.2617
727.3683, 747.1152
727.8504, 747.2870
728.3325, 746.0392
728.8146, 745.1672
729.2968, 745.9718
729.7789, 747.1448
730.2610, 747.2107
730.7431, 746.3878
731.2252, 745.4023
731.7073, 743.8829
732.1895, 742.9283
732.6716, 743.5077
733.1537, 745.4576
733.6358, 746.1858
734.1179, 745.1267
734.6000, 743.8059
735.0822, 742.6751
735.5643, 741.7878
736.0464, 742.0110
736.5285, 743.4197
737.0106, 744.5460
737.4927, 743.7969
737.9749, 742.2821
738.4570, 742.0726
738.9391, 743.2364
739.4212, 744.3094
739.9033, 744.3015
740.3854, 743.9638
740.8676, 743.8246
741.3497, 744.0007
741.8318, 744.1505
742.3139, 744.4983
742.7960, 744.5366
743.2781, 743.7239
743.7603, 741.8271
744.2424, 740.8043
744.7245, 740.8052
745.2066, 741.2855
745.6887, 741.9313
746.1708, 742.6022
746.6530, 742.9414
747.1351, 742.9092
747.6172, 742.4753
748.0993, 740.7311
748.5814, 738.9745
749.0635, 738.7247
749.5457, 741.4955
750.0278, 743.9207
750.5099, 745.5657
750.9920, 746.6196
751.4741, 747.1766
751.9562, 747.0903
752.4384, 747.0282
752.9205, 747.0604
753.4026, 747.1413
753.8847, 747.1301
754.3668, 747.0848
754.8489, 747.2924
755.3311, 747.9589
755.8132, 748.6710
756.2953, 748.9636
756.7774, 749.0646
757.2595, 749.3688
757.7416, 750.2239
758.2238, 751.0499
758.7059, 751.4693
759.1880, 751.8602
759.6701, 753.2982
760.1522, 756.5697
760.6343, 758.2640
761.1165, 756.9032
761.5986, 754.1033
762.0807, 754.0406
762.5628, 756.3022
763.0449, 758.4625
763.5270, 759.3759
764.0092, 759.6973
764.4913, 760.0741
764.9734, 760.3719
765.4555, 760.1877
765.9376, 758.4652
766.4197, 757.1857
766.9019, 757.2971
767.3840, 758.4750
767.8661, 759.3478
768.3482, 759.9665
768.8303, 760.0898
769.3124, 759.4670
769.7946, 758.3212
770.2767, 757.3924
770.7588, 756.6637
771.2409, 755.9846
771.7230, 754.9450
772.2051, 754.1398
772.6873, 754.6526
773.1694, 756.2171
773.6515, 756.8049
774.1336, 754.9235
774.6157, 752.6719
775.0978, 750.8176
775.5800, 749.3703
776.0621, 748.3807
776.5442, 747.9476
777.0263, 747.7026
777.5084, 747.5635
777.9905, 747.4568
778.4727, 747.0297
778.9548, 746.2856
779.4369, 745.3604
779.9190, 743.9998
780.4011, 742.7243
780.8832, 742.1239
781.3654, 742.2285
781.8475, 742.3214
782.3296, 742.4168
782.8117, 742.2078
783.2938, 741.4898
783.7759, 740.2079
784.2581, 739.0579
784.7402, 738.0231
785.2223, 737.2346
785.7044, 737.1076
786.1865, 737.3421
786.6686, 736.5633
787.1508, 734.7464
787.6329, 732.8192
788.1150, 730.9451
788.5971, 729.5998
789.0792, 729.5534
789.5613, 731.0538
790.0435, 732.0492
790.5256, 731.5334
791.0077, 730.8105
791.4898, 730.5518
791.9719, 730.8224
792.4540, 731.0253
792.9362, 731.1441
793.4183, 731.1942
793.9004, 731.0753
794.3825, 730.8991
794.8646, 731.0370
795.3467, 731.5206
795.8289, 732.0610
796.3110, 732.9366
796.7931, 733.4671
797.2752, 732.9229
797.7573, 730.9249
798.2394, 729.2027
798.7216, 727.9319
799.2037, 727.0250
799.6858, 726.5104
800.1679, 726.4520
800.6500, 726.2736
801.1321, 725.9179
801.6143, 725.8033
802.0964, 726.7017
802.5785, 727.9965
803.0606, 728.4001
803.5427, 727.7128
804.0248, 726.9352
804.5070, 726.5405
804.9891, 726.3575
805.4712, 726.2757
805.9533, 726.3151
806.4354, 726.3242
806.9175, 726.2845
807.3997, 726.2286
807.8818, 726.1447
808.3639, 726.0347
808.8460, 726.2122
809.3281, 726.7369
809.8102, 726.9324
810.2924, 725.5742
810.7745, 723.7977
811.2566, 723.4023
811.7387, 724.8021
812.2208, 725.8033
812.7029, 724.6222
813.1851, 723.4069
813.6672, 723.9056
814.1493, 726.8614
814.6314, 728.2750
815.1135, 727.8068
815.5956, 726.6122
816.0778, 725.2800
816.5599, 723.9502
817.0420, 723.4774
817.5241, 723.9142
818.0062, 724.4074
818.4883, 723.9765
818.9705, 723.4540
819.4526, 723.7848
819.9347, 725.2203
820.4168, 726.3607
820.8989, 727.0969
821.3810, 727.2679
821.8632, 726.6254
822.3453, 725.0432
822.8274, 723.9940
823.3095, 723.5693
823.7916, 723.2986
824.2737, 722.9213
824.7559, 722.4236
825.2380, 721.6016
825.7201, 720.4816
826.2022, 719.7376
826.6843, 719.6534
827.1664, 720.1972
827.6486, 721.8638
828.1307, 725.1051
828.6128, 725.9011
829.0949, 722.9484
829.5770, 719.7770
830.0591, 718.1517
830.5413, 718.0107
831.0234, 719.0433
831.5055, 721.2216
831.9876, 722.8313
832.4697, 722.0361
832.9518, 720.4238
833.4340, 719.6290
833.9161, 719.7298
834.3982, 720.1841
834.8803, 721.0480
835.3624, 722.0101
835.8445, 723.1374
836.3267, 724.3839
836.8088, 724.4896
837.2909, 723.2096
837.7730, 721.9225
838.2551, 721.3410
838.7372, 721.3284
839.2194, 721.6863
839.7015, 722.3518
840.1836, 722.9496
840.6657, 723.4186
841.1478, 723.6117
841.6299, 723.1545
842.1121, 722.1771
842.5942, 721.8899
843.0763, 722.7604
843.5584, 723.5760
844.0405, 723.9534
844.5226, 723.9797
845.0048, 724.0722
845.4869, 724.2020
845.9690, 723.9855
846.4511, 722.5783
846.9332, 721.2805
847.4153, 721.8449
847.8975, 723.7131
848.3796, 725.2982
848.8617, 725.6564
849.3438, 726.1292
849.8259, 727.0510
850.3080, 728.3641
850.7902, 730.0118
851.2723, 732.0681
851.7544, 733.9427
852.2365, 735.3947
852.7186, 736.6938
853.2007, 738.3883
853.6829, 740.3234
854.1650, 742.0743
854.6471, 743.1378
855.1292, 744.4169
855.6113, 747.1851
856.0934, 750.2320
856.5756, 751.2965
857.0577, 749.2723
857.5398, 747.4462
858.0219, 746.2751
858.5040, 745.2445
858.9861, 743.6118
859.4683, 741.4048
859.9504, 738.7321
860.4325, 735.5391
860.9146, 732.2205
861.3967, 729.1136
861.8788, 726.1520
862.3610, 723.1840
862.8431, 719.8137
863.3252, 717.1992
863.8073, 715.8527
864.2894, 714.8477
864.7715, 713.1806
865.2537, 710.7968
865.7358, 709.1475
866.2179, 708.4083
866.7000, 707.9305
867.1821, 706.9377
867.6642, 705.8437
868.1464, 705.3065
868.6285, 705.4872
869.1106, 705.7914
869.5927, 705.9962
870.0748, 706.2482
870.5569, 706.7346
871.0391, 707.5763
871.5212, 707.4885
872.0033, 706.1364
872.4854, 705.0961
872.9675, 706.1071
873.4496, 708.1678
873.9318, 708.7562
874.4139, 707.8832
874.8960, 706.8541
875.3781, 706.3739
875.8602, 706.0316
876.3423, 705.6187
876.8245, 705.1297
877.3066, 704.5975
877.7887, 704.0093
878.2708, 703.4898
878.7529, 703.1536
879.2350, 702.9418
879.7172, 702.4657
880.1993, 701.8292
880.6814, 701.5603
881.1635, 702.7115
881.6456, 703.6597
882.1277, 702.6469
882.6099, 700.4070
883.0920, 699.1556
883.5741, 699.8017
884.0562, 700.8079
884.5383, 702.2037
885.0204, 703.5629
885.5026, 703.8043
885.9847, 702.9886
886.4668, 702.2032
886.9489, 701.6974
887.4310, 701.4564
887.9131, 701.5435
888.3953, 701.8705
888.8774, 702.3370
889.3595, 703.6029
889.8416, 703.9342
890.3237, 702.3024
890.8058, 700.3557
891.2880, 700.0006
891.7701, 701.4235
892.2522, 702.0201
892.7343, 701.4764
893.2164, 700.7186
893.6985, 700.9191
894.1807, 701.4313
894.6628, 701.1934
895.1449, 699.9139
895.6270, 698.8450
896.1091, 698.7958
896.5912, 698.7733
897.0734, 698.1176
897.5555, 696.7614
898.0376, 695.7078
898.5197, 694.9661
899.0018, 694.5840
899.4839, 694.7748
899.9661, 695.2957
900.4482, 695.8171
900.9303, 696.2913
901.4124, 696.4509
901.8945, 695.7011
902.3766, 695.0578
902.8588, 695.0608
903.3409, 695.5876
903.8230, 696.0862
904.3051, 696.5008
904.7872, 697.1390
905.2693, 698.3676
905.7515, 699.5402
906.2336, 698.9252
906.7157, 697.1301
907.1978, 695.9381
907.6799, 696.5417
908.1620, 697.3287
908.6442, 697.6789
909.1263, 697.7215
909.6084, 697.6849
910.0905, 697.5746
910.5726, 697.4448
911.0547, 697.3464
911.5369, 697.1392
912.0190, 696.4570
912.5011, 695.5266
912.9832, 694.9932
913.4653, 694.9910
913.9474, 695.2371
914.4296, 695.7245
914.9117, 696.2609
915.3938, 696.6449
915.8759, 696.7723
916.3580, 697.2031
916.8401, 698.1910
917.3223, 698.8240
917.8044, 698.1524
918.2865, 696.6117
918.7686, 695.7395
919.2507, 695.5322
919.7328, 695.7623
920.2150, 697.2042
920.6971, 698.2255
921.1792, 697.3694
921.6613, 694.9359
922.1434, 693.4941
922.6255, 693.3544
923.1077, 693.6299
923.5898, 694.1563
924.0719, 694.8477
924.5540, 695.5643
925.0361, 696.2831
925.5182, 696.9172
926.0004, 697.4501
926.4825, 697.8401
926.9646, 697.9323
927.4467, 697.8975
927.9288, 698.0188
928.4109, 698.5580
928.8931, 698.6809
929.3752, 698.1818
929.8573, 697.6016
930.3394, 697.5563
930.8215, 697.9520
931.3036, 698.5880
931.7858, 699.4892
932.2679, 700.0115
932.7500, 699.3814
933.2321, 698.4680
933.7142, 697.9966
934.1964, 698.1379
934.6785, 697.8107
935.1606, 696.6804
935.6427, 695.9443
936.1248, 696.3982
936.6069, 697.6866
937.0891, 698.7512
937.5712, 699.5723
938.0533, 699.9879
938.5354, 698.7963
939.0175, 698.2730
939.4996, 700.6454
939.9818, 704.6598
940.4639, 706.5510
940.9460, 705.1724
941.4281, 704.3820
941.9102, 704.9561
942.3923, 706.1790
942.8745, 706.9564
943.3566, 707.4306
943.8387, 707.9805
944.3208, 708.6802
944.8029, 709.5233
945.2850, 710.7444
945.7672, 711.9758
946.2493, 712.8730
946.7314, 713.3989
947.2135, 713.6768
947.6956, 713.5410
948.1777, 713.7469
948.6599, 715.3053
949.1420, 717.5303
949.6241, 718.5743
950.1062, 718.5403
950.5883, 718.6447
951.0704, 719.5663
951.5526, 720.7574
952.0347, 722.0192
952.5168, 723.3174
952.9989, 724.4659
953.4810, 725.3380
953.9631, 726.7113
954.4453, 728.9870
954.9274, 731.5511
955.4095, 733.5174
955.8916, 734.9719
956.3737, 736.1188
956.8558, 736.9138
957.3380, 737.6315
957.8201, 737.8698
958.3022, 738.4471
958.7843, 740.2680
959.2664, 743.6602
959.7485, 746.6471
960.2307, 749.2069
960.7128, 751.0510
961.1949, 750.8243
961.6770, 750.2767
962.1591, 752.3901
962.6412, 757.1835
963.1234, 761.2729
963.6055, 762.7750
964.0876, 764.1659
964.5697, 766.4760
965.0518, 769.3586
965.5339, 771.3021
966.0161, 772.3041
966.4982, 773.1993
966.9803, 774.1056
967.4624, 775.3630
967.9445, 777.7844
968.4266, 780.7004
968.9088, 782.9578
969.3909, 784.3068
969.8730, 784.8784
970.3551, 784.6772
970.8372, 783.8072
971.3193, 781.9173
971.8015, 779.2430
972.2836, 778.0935
972.7657, 778.7031
973.2478, 779.3204
973.7299, 778.6773
974.2120, 777.3920
974.6942, 775.8810
975.1763, 774.1818
975.6584, 772.4830
976.1405, 770.8456
976.6226, 769.0564
977.1047, 767.0195
977.5869, 764.7728
978.0690, 762.3847
978.5511, 759.9207
979.0332, 757.5800
979.5153, 755.4749
979.9974, 753.4138
980.4796, 751.7686
980.9617, 749.8696
981.4438, 746.6437
981.9259, 741.1367
982.4080, 737.3801
982.8901, 735.9518
983.3723, 734.7419
983.8544, 731.1716
984.3365, 726.4866
984.8186, 723.0014
985.3007, 720.8977
985.7828, 719.3220
986.2650, 718.4637
986.7471, 717.4280
987.2292, 715.6658
987.7113, 713.3863
988.1934, 711.7874
988.6755, 710.8951
989.1577, 709.8734
989.6398, 708.2567
990.1219, 706.6077
990.6040, 705.7911
991.0861, 705.3682
991.5682, 704.5955
992.0504, 702.7169
992.5325, 701.3121
993.0146, 700.5029
993.4967, 700.1695
993.9788, 700.6906
994.4609, 701.8069
994.9431, 700.5969
995.4252, 696.9265
995.9073, 694.0113
996.3894, 695.4742
996.8715, 697.5100
997.3536, 696.8635
997.8358, 693.6838
998.3179, 692.0212
998.8000, 692.4050
999.2821, 693.1595
999.7642, 693.8967
1000.246, 694.5951
1000.728, 695.2565
1001.211, 695.8312
1001.693, 696.1541
1002.175, 696.1199
1002.657, 695.9661
1003.139, 695.6846
1003.621, 695.4094
1004.103, 695.3217
1004.585, 695.5264
1005.068, 695.0504
1005.550, 693.7564
1006.032, 693.0247
1006.514, 694.2130
1006.996, 696.3405
1007.478, 698.8934
1007.960, 701.4871
1008.442, 702.3748
1008.924, 698.3339
1009.407, 696.1959
1009.889, 697.9629
1010.371, 701.7708
1010.853, 704.0757
1011.335, 704.9717
1011.817, 704.6136
1012.299, 702.6808
1012.781, 701.1541
1013.263, 701.8694
1013.746, 703.5110
1014.228, 704.9418
1014.710, 706.1532
1015.192, 706.5731
1015.674, 705.8616
1016.156, 705.5109
1016.638, 706.6293
1017.120, 708.6347
1017.603, 710.5605
1018.085, 712.3018
1018.567, 713.4462
1019.049, 712.5123
1019.531, 712.5175
1020.013, 714.8860
1020.495, 718.2772
1020.977, 720.7789
1021.459, 722.3555
1021.942, 724.1234
1022.424, 726.2740
1022.906, 728.2180
1023.388, 728.6356
1023.870, 729.1235
1024.352, 731.5961
1024.834, 736.4299
1025.316, 740.5555
1025.799, 743.1993
1026.281, 746.3292
1026.763, 750.7870
1027.245, 756.2247
1027.727, 762.2447
1028.209, 768.6712
1028.691, 774.8165
1029.173, 779.5084
1029.656, 785.3393
1030.138, 792.3772
1030.620, 801.9227
1031.102, 815.3038
1031.584, 832.9545
1032.066, 852.0793
1032.548, 872.5538
1033.030, 895.8385
1033.512, 920.9312
1033.995, 950.7702
1034.477, 987.6878
1034.959, 1031.868
1035.441, 1084.923
1035.923, 1152.709
1036.405, 1222.248
1036.887, 1294.635
1037.369, 1363.840
1037.851, 1417.856
1038.334, 1458.902
1038.816, 1497.723
1039.298, 1535.337
1039.780, 1577.707
1040.262, 1627.742
1040.744, 1685.479
1041.226, 1750.369
1041.708, 1822.711
1042.191, 1906.047
1042.673, 2002.334
1043.155, 2101.347
1043.637, 2197.208
1044.119, 2294.555
1044.601, 2394.511
1045.083, 2502.738
1045.565, 2628.185
1046.047, 2837.517
1046.530, 2975.394
1047.012, 3045.869
1047.494, 3017.242
1047.976, 2821.574
1048.458, 2488.097
1048.940, 2153.773
1049.422, 1829.438
1049.904, 1554.419
1050.386, 1358.233
1050.869, 1210.777
1051.351, 1103.367
1051.833, 1029.626
1052.315, 975.8616
1052.797, 943.0772
1053.279, 923.8077
1053.761, 919.1347
1054.243, 917.5764
1054.726, 907.4304
1055.208, 889.8553
1055.690, 865.0081
1056.172, 828.6222
1056.654, 798.9818
1057.136, 778.3388
1057.618, 762.4149
1058.100, 749.2822
1058.583, 738.7087
1059.065, 729.7900
1059.547, 722.5855
1060.029, 717.3256
1060.511, 715.3243
1060.993, 714.0849
1061.475, 712.4452
1061.957, 711.0824
1062.439, 711.1166
1062.922, 712.7592
1063.404, 713.8028
1063.886, 713.9944
1064.368, 714.3636
1064.850, 716.0771
1065.332, 718.2551
1065.814, 719.8329
1066.296, 720.8309
1066.778, 722.7594
1067.261, 726.3417
1067.743, 729.3695
1068.225, 730.9832
1068.707, 732.2339
1069.189, 735.2634
1069.671, 739.3932
1070.153, 743.0626
1070.635, 745.8389
1071.118, 748.2128
1071.600, 749.7599
1072.082, 751.5054
1072.564, 754.3011
1073.046, 757.9628
1073.528, 760.0565
1074.010, 760.6993
1074.492, 761.6892
1074.974, 764.6405
1075.457, 767.5369
1075.939, 769.1932
1076.421, 769.6664
1076.903, 768.9537
1077.385, 766.6563
1077.867, 764.6459
1078.349, 763.1121
1078.831, 761.3940
1079.313, 758.7981
1079.796, 755.6583
1080.278, 752.5912
1080.760, 749.5071
1081.242, 745.8063
1081.724, 740.6635
1082.206, 735.6673
1082.688, 731.1519
1083.170, 727.0486
1083.652, 723.4069
1084.135, 720.1006
1084.617, 716.7006
1085.099, 713.0806
1085.581, 709.7491
1086.063, 707.4361
1086.545, 705.1269
1087.027, 702.0230
1087.509, 698.2480
1087.992, 694.8603
1088.474, 691.8588
1088.956, 689.4340
1089.438, 687.8444
1089.920, 686.5385
1090.402, 684.9477
1090.884, 683.2884
1091.366, 681.8839
1091.849, 680.9262
1092.331, 679.7785
1092.813, 678.3695
1093.295, 677.0100
1093.777, 675.9645
1094.259, 675.1029
1094.741, 674.1216
1095.223, 673.0790
1095.705, 672.1976
1096.188, 671.8893
1096.670, 671.2523
1097.152, 669.9291
1097.634, 668.4940
1098.116, 667.6658
1098.598, 667.3610
1099.080, 667.4764
1099.562, 667.9818
1100.044, 667.7811
1100.527, 665.0652
1101.009, 662.6238
1101.491, 662.3318
1101.973, 663.4503
1102.455, 663.8746
1102.937, 663.6211
1103.419, 662.2648
1103.901, 659.3875
1104.384, 656.7223
1104.866, 656.4151
1105.348, 656.9001
1105.830, 656.5400
1106.312, 655.0356
1106.794, 653.8752
1107.276, 653.0280
1107.758, 652.6461
1108.240, 652.9427
1108.723, 653.5458
1109.205, 653.7793
1109.687, 653.8926
1110.169, 654.4009
1110.651, 656.0155
1111.133, 656.9637
1111.615, 657.1143
1112.097, 656.6438
1112.579, 655.4414
1113.062, 653.7490
1113.544, 652.4328
1114.026, 651.4290
1114.508, 650.4525
1114.990, 648.8950
1115.472, 647.9501
1115.954, 648.2486
1116.436, 649.1426
1116.919, 650.0521
1117.401, 650.9387
1117.883, 650.9251
1118.365, 649.9412
1118.847, 648.8452
1119.329, 647.9476
1119.811, 647.4357
1120.293, 647.8858
1120.776, 648.8166
1121.258, 648.4244
1121.740, 646.5078
1122.222, 645.1932
1122.704, 644.9496
1123.186, 645.2513
1123.668, 645.9933
1124.150, 646.6904
1124.632, 646.7189
1125.115, 645.9182
1125.597, 645.4733
1126.079, 645.4737
1126.561, 645.6298
1127.043, 646.0470
1127.525, 646.2366
1128.007, 645.1251
1128.489, 643.3151
1128.971, 641.7991
1129.454, 640.7693
1129.936, 640.3378
1130.418, 640.9280
1130.900, 641.2845
1131.382, 640.3931
1131.864, 638.7985
1132.346, 637.9662
1132.828, 637.8448
1133.311, 638.2681
1133.793, 640.2600
1134.275, 641.2394
1134.757, 639.8397
1135.239, 638.0831
1135.721, 638.1710
1136.203, 639.7634
1136.685, 639.8270
1137.167, 638.4060
1137.650, 637.0294
1138.132, 636.6349
1138.614, 636.4869
1139.096, 636.1951
1139.578, 635.9446
1140.060, 636.2810
1140.542, 637.2474
1141.024, 636.8988
1141.506, 634.9580
1141.989, 633.3560
1142.471, 634.4382
1142.953, 635.7506
1143.435, 635.1527
1143.917, 633.0525
1144.399, 631.7269
1144.881, 631.2111
1145.363, 631.5341
1145.846, 632.9733
1146.328, 634.0370
1146.810, 632.2932
1147.292, 629.7884
1147.774, 628.7418
1148.256, 629.5518
1148.738, 630.3235
1149.220, 631.1594
1149.703, 631.3876
1150.185, 630.5904
1150.667, 629.4319
1151.149, 628.7917
1151.631, 628.4993
1152.113, 628.2843
1152.595, 628.0837
1153.077, 628.1028
1153.559, 628.7263
1154.042, 628.6595
1154.524, 626.7134
1155.006, 624.0633
1155.488, 623.5336
1155.970, 624.4105
1156.452, 624.9456
1156.934, 623.8463
1157.416, 623.8482
1157.898, 626.0272
1158.381, 628.0768
1158.863, 627.9662
1159.345, 626.3007
1159.827, 625.5983
1160.309, 625.5891
1160.791, 625.1925
1161.273, 623.0159
1161.755, 621.5853
1162.238, 621.7004
1162.720, 622.5611
1163.202, 623.5176
1163.684, 624.5129
1164.166, 625.3172
1164.648, 625.8896
1165.130, 625.9581
1165.612, 624.9567
1166.094, 623.8837
1166.577, 623.2673
1167.059, 622.7786
1167.541, 621.7576
1168.023, 620.2874
1168.505, 619.5781
1168.987, 619.7594
1169.469, 619.9573
1169.951, 619.5306
1170.433, 618.9724
1170.916, 618.2405
1171.398, 617.6876
1171.880, 618.6897
1172.362, 621.2107
1172.844, 621.9363
1173.326, 620.0246
1173.808, 617.9398
1174.290, 617.8605
1174.773, 618.3175
1175.255, 618.0426
1175.737, 617.2195
1176.219, 617.0908
1176.701, 617.6868
1177.183, 618.4193
1177.665, 619.2859
1178.147, 619.7086
1178.630, 618.7219
1179.112, 617.3234
1179.594, 616.5040
1180.076, 616.3210
1180.558, 615.9770
1181.040, 615.4085
1181.522, 615.4050
1182.004, 616.6037
1182.486, 617.7617
1182.969, 617.3198
1183.451, 616.1772
1183.933, 615.3821
1184.415, 615.0627
1184.897, 614.9520
1185.379, 615.0762
1185.861, 615.1803
1186.343, 615.0726
1186.825, 614.9534
1187.308, 615.2375
1187.790, 615.6042
1188.272, 615.4749
1188.754, 614.4139
1189.236, 614.0865
1189.718, 614.6710
1190.200, 615.1071
1190.682, 614.3882
1191.165, 613.4147
1191.647, 613.5297
1192.129, 614.2391
1192.611, 614.5256
1193.093, 614.0138
1193.575, 613.5550
1194.057, 613.1879
1194.539, 612.7675
1195.021, 611.9221
1195.504, 611.1233
1195.986, 611.2529
1196.468, 611.9637
1196.950, 612.1930
1197.432, 611.3043
1197.914, 611.0088
1198.396, 611.5518
1198.878, 612.1516
1199.360, 612.1095
1199.843, 611.6337
1200.325, 610.7712
1200.807, 609.7117
1201.289, 609.2041
1201.771, 609.6728
1202.253, 610.0139
1202.735, 610.0571
1203.217, 610.1553
1203.700, 611.0603
1204.182, 612.0535
1204.664, 611.7913
1205.146, 610.4548
1205.628, 609.8357
1206.110, 610.5975
1206.592, 611.1082
1207.074, 611.0358
1207.557, 610.8154
1208.039, 611.1434
1208.521, 611.5792
1209.003, 611.3022
1209.485, 610.3115
1209.967, 609.9050
1210.449, 610.5555
1210.931, 611.0142
1211.413, 611.0458
1211.896, 610.7483
1212.378, 610.1145
1212.860, 609.3234
1213.342, 608.6313
1213.824, 608.0701
1214.306, 607.5765
1214.788, 607.1133
1215.270, 606.8141
1215.752, 606.7567
1216.235, 606.7892
1216.717, 606.9311
1217.199, 606.9072
1217.681, 606.0508
1218.163, 604.1653
1218.645, 603.4736
1219.127, 604.6161
1219.609, 605.3378
1220.092, 604.7638
1220.574, 603.8103
1221.056, 603.8397
1221.538, 604.3705
1222.020, 604.7147
1222.502, 604.7174
1222.984, 604.8453
1223.466, 605.1969
1223.948, 605.3466
1224.431, 605.0622
1224.913, 604.6396
1225.395, 604.4108
1225.877, 604.3690
1226.359, 604.5409
1226.841, 604.9929
1227.323, 605.3762
1227.805, 605.7340
1228.287, 605.8376
1228.770, 605.5834
1229.252, 605.0439
1229.734, 603.9567
1230.216, 602.8331
1230.698, 602.4908
1231.180, 603.2866
1231.662, 603.5607
1232.144, 603.2549
1232.627, 602.7901
1233.109, 602.3088
1233.591, 601.8591
1234.073, 601.4610
1234.555, 601.1520
1235.037, 601.0452
1235.519, 601.2504
1236.001, 600.9573
1236.484, 600.0909
1236.966, 599.5042
1237.448, 599.7659
1237.930, 600.2863
1238.412, 600.5527
1238.894, 600.6621
1239.376, 600.6805
1239.858, 600.5424
1240.340, 600.8981
1240.823, 601.7646
1241.305, 602.2975
1241.787, 601.5818
1242.269, 600.9802
1242.751, 602.0683
1243.233, 603.6895
1243.715, 604.3466
1244.197, 603.9061
1244.679, 603.6426
1245.162, 603.5513
1245.644, 603.3907
1246.126, 602.9388
1246.608, 602.5166
1247.090, 602.6325
1247.572, 602.6981
1248.054, 601.8566
1248.536, 600.0320
1249.019, 599.8596
1249.501, 601.2047
1249.983, 602.5270
1250.465, 602.8818
1250.947, 603.1138
1251.429, 603.7040
1251.911, 604.3217
1252.393, 604.6448
1252.875, 604.6768
1253.358, 604.6412
1253.840, 604.5456
1254.322, 604.5105
1254.804, 604.7390
1255.286, 604.8196
1255.768, 604.3063
1256.250, 603.8964
1256.732, 604.3951
1257.214, 605.5731
1257.697, 605.9196
1258.179, 605.5985
1258.661, 605.3566
1259.143, 605.8522
1259.625, 605.9865
1260.107, 605.2829
1260.589, 604.6456
1261.071, 604.9085
1261.554, 605.8352
1262.036, 606.9665
1262.518, 608.1019
1263.000, 608.6374
1263.482, 607.9573
1263.964, 607.1640
1264.446, 606.2831
1264.928, 605.4586
1265.411, 604.7022
1265.893, 604.1479
1266.375, 603.8978
1266.857, 604.0771
1267.339, 605.0473
1267.821, 608.0827
1268.303, 609.6866
1268.785, 609.5734
1269.267, 608.9108
1269.750, 608.4637
1270.232, 608.1359
1270.714, 607.6785
1271.196, 607.2567
1271.678, 607.3220
1272.160, 608.1429
1272.642, 608.5680
1273.124, 608.5179
1273.606, 608.4230
1274.089, 608.4304
1274.571, 608.6667
1275.053, 609.3780
1275.535, 610.3427
1276.017, 611.2557
1276.499, 612.1865
1276.981, 612.2821
1277.463, 611.5461
1277.946, 611.1563
1278.428, 612.5442
1278.910, 613.8023
1279.392, 613.2959
1279.874, 612.3185
1280.356, 612.4105
1280.838, 613.5502
1281.320, 614.8180
1281.802, 616.1336
1282.285, 617.0011
1282.767, 616.3571
1283.249, 616.2636
1283.731, 617.7350
1284.213, 619.7448
1284.695, 621.6064
1285.177, 623.2534
1285.659, 624.1918
1286.141, 624.6031
1286.624, 625.2145
1287.106, 626.6237
1287.588, 627.8123
1288.070, 628.5608
1288.552, 629.2346
1289.034, 629.8674
1289.516, 630.7536
1289.998, 633.1652
1290.481, 636.3362
1290.963, 638.2868
1291.445, 637.1311
1291.927, 637.1123
1292.409, 638.4448
1292.891, 640.1357
1293.373, 641.8157
1293.855, 643.1750
1294.338, 643.7309
1294.820, 643.6998
1295.302, 643.4398
1295.784, 642.9548
1296.266, 642.3410
1296.748, 641.5667
1297.230, 641.2310
1297.712, 642.2687
1298.194, 643.2089
1298.677, 642.5059
1299.159, 641.2541
1299.641, 640.7761
1300.123, 641.0780
1300.605, 641.6786
1301.087, 642.4468
1301.569, 642.1857
1302.051, 639.4156
1302.533, 636.7454
1303.016, 635.0070
##END=



