##NAMES=Plumbotsumite
##RRUFFID=R110157
##IDEAL CHEMISTRY=Pb^2+^_5_Si_4_O_8_(OH)_10_
##LOCALITY=Blue Bell claims, Baker, San Bernardino County, California, USA
##OWNER=RRUFF
##SOURCE=Donald M Doell
##DESCRIPTION=Glassy pale blue massive, with a well-defined cleavage.
##STATUS=The identification of this mineral has been confirmed by single-crystal X-ray diffraction.
##URL=rruff.info/R110157
105.5849, 826.2220
106.0670, 830.3596
106.5491, 835.5074
107.0313, 840.8182
107.5134, 846.2529
107.9955, 851.8041
108.4776, 857.4952
108.9597, 863.3665
109.4418, 869.0832
109.9240, 874.1124
110.4061, 879.1335
110.8882, 884.8871
111.3703, 891.7380
111.8524, 898.9333
112.3345, 904.4473
112.8167, 907.4400
113.2988, 909.6024
113.7809, 911.4127
114.2630, 912.5745
114.7451, 912.6536
115.2272, 911.3458
115.7094, 908.6903
116.1915, 905.6208
116.6736, 902.2248
117.1557, 898.3783
117.6378, 893.6922
118.1199, 888.3881
118.6021, 883.2188
119.0842, 878.9024
119.5663, 875.5085
120.0484, 871.6403
120.5305, 866.4473
121.0126, 861.2582
121.4948, 857.2805
121.9769, 854.7031
122.4590, 852.8530
122.9411, 851.2542
123.4232, 849.8665
123.9053, 848.7059
124.3875, 847.4166
124.8696, 846.3347
125.3517, 846.4291
125.8338, 848.0442
126.3159, 850.6957
126.7980, 853.6321
127.2802, 856.9835
127.7623, 861.3066
128.2444, 867.0300
128.7265, 874.1425
129.2086, 882.5242
129.6907, 891.7858
130.1729, 902.7480
130.6550, 915.8945
131.1371, 931.2849
131.6192, 948.6606
132.1013, 967.6621
132.5834, 988.7928
133.0656, 1011.248
133.5477, 1035.237
134.0298, 1060.117
134.5119, 1085.868
134.9940, 1112.327
135.4761, 1138.854
135.9583, 1163.727
136.4404, 1187.999
136.9225, 1208.933
137.4046, 1227.295
137.8867, 1242.119
138.3688, 1251.989
138.8510, 1256.449
139.3331, 1255.176
139.8152, 1247.083
140.2973, 1232.977
140.7794, 1213.225
141.2615, 1187.091
141.7437, 1155.139
142.2258, 1119.084
142.7079, 1078.758
143.1900, 1035.220
143.6721, 991.1671
144.1542, 946.0388
144.6364, 901.1423
145.1185, 857.3357
145.6006, 814.4934
146.0827, 773.6279
146.5648, 734.7518
147.0469, 698.1204
147.5291, 664.4180
148.0112, 634.1041
148.4933, 606.6267
148.9754, 580.8281
149.4575, 556.5162
149.9396, 534.3203
150.4218, 514.0930
150.9039, 495.5861
151.3860, 478.6165
151.8681, 463.0395
152.3502, 448.7649
152.8323, 435.8658
153.3145, 425.2920
153.7966, 415.3217
154.2787, 405.6273
154.7608, 396.2379
155.2429, 387.1874
155.7250, 378.4001
156.2072, 369.8416
156.6893, 362.4991
157.1714, 356.7109
157.6535, 351.5100
158.1356, 346.5093
158.6177, 341.7037
159.0999, 337.2693
159.5820, 333.4262
160.0641, 330.2805
160.5462, 327.0105
161.0283, 323.3661
161.5104, 319.7878
161.9926, 316.5143
162.4747, 313.5905
162.9568, 311.1396
163.4389, 309.5276
163.9210, 308.7045
164.4031, 307.7757
164.8853, 306.6618
165.3674, 305.3387
165.8495, 303.7051
166.3316, 301.6250
166.8137, 299.5538
167.2958, 297.9932
167.7780, 296.8233
168.2601, 295.6370
168.7422, 294.2061
169.2243, 292.5927
169.7064, 291.0630
170.1885, 289.6310
170.6707, 288.3257
171.1528, 287.2041
171.6349, 286.2261
172.1170, 285.2211
172.5991, 284.0889
173.0812, 282.8318
173.5634, 281.4016
174.0455, 279.6198
174.5276, 277.7763
175.0097, 275.9207
175.4918, 274.0918
175.9739, 272.3765
176.4561, 270.8604
176.9382, 269.5058
177.4203, 268.4666
177.9024, 267.9630
178.3845, 267.5634
178.8666, 266.9888
179.3488, 266.2378
179.8309, 265.5373
180.3130, 265.2127
180.7951, 265.4210
181.2772, 265.7006
181.7593, 266.2456
182.2415, 266.7314
182.7236, 266.8732
183.2057, 266.6198
183.6878, 266.1664
184.1699, 265.7619
184.6520, 265.1261
185.1342, 265.2377
185.6163, 266.8781
186.0984, 268.9563
186.5805, 270.2410
187.0626, 270.3441
187.5447, 269.8974
188.0269, 269.9183
188.5090, 270.4485
188.9911, 271.1302
189.4732, 271.9252
189.9553, 272.8162
190.4374, 273.8575
190.9196, 275.2020
191.4017, 276.4034
191.8838, 276.6553
192.3659, 275.8904
192.8480, 275.3283
193.3301, 275.9383
193.8123, 277.3027
194.2944, 277.8150
194.7765, 276.7041
195.2586, 275.0080
195.7407, 273.8792
196.2228, 273.3287
196.7050, 272.8625
197.1871, 272.1789
197.6692, 271.2813
198.1513, 270.2339
198.6334, 269.0375
199.1155, 267.6830
199.5977, 266.1940
200.0798, 264.5644
200.5619, 262.7554
201.0440, 260.5690
201.5261, 257.8695
202.0082, 255.6334
202.4904, 254.5962
202.9725, 253.6170
203.4546, 252.0932
203.9367, 249.9695
204.4188, 247.6050
204.9009, 245.4432
205.3831, 243.5646
205.8652, 241.6542
206.3473, 239.9093
206.8294, 237.9871
207.3115, 235.6309
207.7936, 232.8349
208.2758, 229.8131
208.7579, 226.8514
209.2400, 223.8753
209.7221, 221.1641
210.2042, 218.5849
210.6863, 216.3115
211.1685, 214.7032
211.6506, 213.7194
212.1327, 212.7351
212.6148, 210.7758
213.0969, 207.0742
213.5790, 204.0206
214.0612, 201.9062
214.5433, 200.2092
215.0254, 198.4987
215.5075, 196.6877
215.9896, 194.9441
216.4717, 193.5516
216.9539, 192.7560
217.4360, 191.7065
217.9181, 190.2971
218.4002, 188.6721
218.8823, 186.8817
219.3644, 184.9408
219.8466, 183.0302
220.3287, 181.4267
220.8108, 180.1734
221.2929, 178.9257
221.7750, 177.7937
222.2571, 176.5849
222.7393, 174.9707
223.2214, 172.8369
223.7035, 170.5932
224.1856, 168.7445
224.6677, 167.2561
225.1498, 165.9487
225.6320, 165.2507
226.1141, 164.5935
226.5962, 162.8678
227.0783, 159.6282
227.5604, 156.0915
228.0425, 153.4432
228.5247, 151.5220
229.0068, 149.7564
229.4889, 148.1609
229.9710, 146.5674
230.4531, 144.4812
230.9352, 141.6105
231.4174, 138.7818
231.8995, 136.6799
232.3816, 135.1225
232.8637, 133.6598
233.3458, 132.1018
233.8279, 130.4733
234.3101, 128.8071
234.7922, 127.0502
235.2743, 125.3788
235.7564, 123.8626
236.2385, 122.4914
236.7206, 121.2467
237.2028, 120.1933
237.6849, 119.2706
238.1670, 118.1668
238.6491, 116.6559
239.1312, 115.3133
239.6133, 114.5049
240.0955, 113.9794
240.5776, 113.2835
241.0597, 112.0928
241.5418, 110.5375
242.0239, 109.2635
242.5060, 108.3004
242.9882, 107.6219
243.4703, 107.4920
243.9524, 107.5519
244.4345, 107.2516
244.9166, 106.2195
245.3987, 104.6497
245.8809, 103.4878
246.3630, 103.0647
246.8451, 102.6568
247.3272, 102.1430
247.8093, 101.5472
248.2914, 100.9129
248.7736, 100.2631
249.2557, 99.59046
249.7378, 98.86944
250.2199, 97.97968
250.7020, 97.19237
251.1841, 96.58616
251.6663, 96.08757
252.1484, 95.61916
252.6305, 95.14097
253.1126, 94.66429
253.5947, 94.21666
254.0768, 94.02173
254.5590, 93.57113
255.0411, 92.58029
255.5232, 91.41968
256.0053, 90.45235
256.4874, 89.83676
256.9695, 89.53676
257.4517, 89.46688
257.9338, 90.12005
258.4159, 90.40575
258.8980, 90.10317
259.3801, 89.52260
259.8622, 88.91794
260.3444, 88.38451
260.8265, 87.98424
261.3086, 87.84538
261.7907, 88.24411
262.2728, 88.47585
262.7549, 88.37784
263.2371, 88.18413
263.7192, 88.18485
264.2013, 88.44851
264.6834, 88.71453
265.1655, 88.53986
265.6476, 87.51041
266.1298, 87.10417
266.6119, 87.83634
267.0940, 88.93394
267.5761, 89.71326
268.0582, 90.03889
268.5403, 90.12376
269.0225, 90.18839
269.5046, 90.22192
269.9867, 90.29916
270.4688, 90.38972
270.9509, 90.54517
271.4330, 90.85982
271.9152, 91.33248
272.3973, 91.78973
272.8794, 92.03588
273.3615, 92.05363
273.8436, 92.21896
274.3257, 92.77435
274.8079, 93.31335
275.2900, 93.39934
275.7721, 93.04784
276.2542, 92.79221
276.7363, 93.11443
277.2184, 93.92813
277.7006, 94.38352
278.1827, 94.26869
278.6648, 93.95797
279.1469, 93.61084
279.6290, 93.25392
280.1111, 93.06394
280.5933, 93.25957
281.0754, 93.66541
281.5575, 93.69823
282.0396, 93.17951
282.5217, 92.51396
283.0038, 91.97936
283.4860, 91.52933
283.9681, 90.87896
284.4502, 89.77728
284.9323, 88.50253
285.4144, 87.65865
285.8965, 87.42664
286.3787, 87.16518
286.8608, 86.48442
287.3429, 85.47735
287.8250, 84.46080
288.3071, 83.51942
288.7892, 82.63889
289.2714, 81.82023
289.7535, 81.08383
290.2356, 80.27299
290.7177, 79.20110
291.1998, 77.99445
291.6819, 76.99121
292.1641, 76.30608
292.6462, 75.76359
293.1283, 75.19335
293.6104, 74.59908
294.0925, 73.97569
294.5746, 73.39384
295.0568, 72.77163
295.5389, 71.89388
296.0210, 70.65761
296.5031, 69.40165
296.9852, 68.39330
297.4673, 67.58591
297.9495, 66.89854
298.4316, 66.38428
298.9137, 65.94777
299.3958, 65.43642
299.8779, 64.82797
300.3600, 64.23705
300.8422, 63.80622
301.3243, 63.43594
301.8064, 62.94151
302.2885, 62.13350
302.7706, 61.32302
303.2527, 60.96994
303.7349, 61.11581
304.2170, 61.09719
304.6991, 60.47047
305.1812, 59.55260
305.6633, 58.76175
306.1454, 58.15238
306.6276, 57.66760
307.1097, 57.32175
307.5918, 57.10380
308.0739, 56.78444
308.5560, 56.16523
309.0381, 55.53207
309.5203, 55.24711
310.0024, 55.35217
310.4845, 55.44538
310.9666, 55.22742
311.4487, 54.75474
311.9308, 54.27766
312.4130, 53.75554
312.8951, 53.38583
313.3772, 53.42434
313.8593, 53.80737
314.3414, 54.12263
314.8235, 54.18482
315.3057, 54.02817
315.7878, 53.70258
316.2699, 53.14310
316.7520, 52.58220
317.2341, 52.22258
317.7162, 51.99274
318.1984, 51.74105
318.6805, 51.39954
319.1626, 51.01325
319.6447, 50.63953
320.1268, 50.27172
320.6089, 49.95195
321.0911, 49.73560
321.5732, 49.57397
322.0553, 49.38885
322.5374, 49.10972
323.0195, 48.89180
323.5016, 48.95840
323.9838, 49.31261
324.4659, 49.59358
324.9480, 49.61224
325.4301, 49.52108
325.9122, 49.52782
326.3943, 49.66822
326.8765, 49.77382
327.3586, 49.71660
327.8407, 49.51567
328.3228, 49.25200
328.8049, 48.85420
329.2870, 48.53112
329.7692, 48.54232
330.2513, 48.85647
330.7334, 49.13489
331.2155, 49.10083
331.6976, 48.92394
332.1797, 49.07542
332.6619, 49.73908
333.1440, 50.34995
333.6261, 50.24982
334.1082, 49.72163
334.5903, 49.43987
335.0724, 49.82569
335.5546, 50.45679
336.0367, 50.76482
336.5188, 50.71769
337.0009, 50.65849
337.4830, 50.83020
337.9651, 51.10198
338.4473, 51.21058
338.9294, 51.01771
339.4115, 50.83189
339.8936, 50.99458
340.3757, 51.44356
340.8578, 51.69317
341.3400, 51.50739
341.8221, 51.08322
342.3042, 50.69288
342.7863, 50.30428
343.2684, 50.09063
343.7505, 50.33142
344.2327, 50.80318
344.7148, 50.92613
345.1969, 50.50676
345.6790, 49.91072
346.1611, 49.53661
346.6432, 49.34989
347.1254, 49.19972
347.6075, 49.07320
348.0896, 48.95017
348.5717, 48.80840
349.0538, 48.64524
349.5359, 48.46930
350.0181, 48.28205
350.5002, 48.08554
350.9823, 47.89095
351.4644, 47.64031
351.9465, 47.44315
352.4286, 47.46367
352.9108, 47.63824
353.3929, 47.64049
353.8750, 47.25860
354.3571, 46.65908
354.8392, 46.26954
355.3214, 46.17794
355.8035, 46.06373
356.2856, 45.73943
356.7677, 45.32971
357.2498, 45.06934
357.7319, 45.03423
358.2141, 45.11054
358.6962, 45.16506
359.1783, 45.20634
359.6604, 45.17411
360.1425, 44.97925
360.6246, 44.75853
361.1068, 44.64498
361.5889, 44.64774
362.0710, 44.69492
362.5531, 44.74029
363.0352, 44.78041
363.5173, 44.76037
363.9995, 44.57048
364.4816, 44.43383
364.9637, 44.52874
365.4458, 44.76705
365.9279, 44.87756
366.4100, 44.68350
366.8922, 44.34993
367.3743, 44.43673
367.8564, 45.39833
368.3385, 46.10772
368.8206, 46.24970
369.3027, 46.13912
369.7849, 46.12352
370.2670, 46.30150
370.7491, 46.57129
371.2312, 46.79930
371.7133, 46.98118
372.1954, 47.11852
372.6776, 47.02835
373.1597, 47.04636
373.6418, 47.52204
374.1239, 48.34684
374.6060, 49.04488
375.0881, 49.21050
375.5703, 48.86530
376.0524, 48.80126
376.5345, 49.34760
377.0166, 49.79173
377.4987, 49.91237
377.9808, 49.84823
378.4630, 49.80407
378.9451, 49.87410
379.4272, 50.02097
379.9093, 50.15996
380.3914, 50.31036
380.8735, 50.41732
381.3557, 50.45893
381.8378, 50.47584
382.3199, 50.48322
382.8020, 50.49153
383.2841, 50.52547
383.7662, 50.63459
384.2484, 50.84937
384.7305, 50.92515
385.2126, 50.66532
385.6947, 50.45142
386.1768, 50.40145
386.6589, 50.49073
387.1411, 50.68237
387.6232, 50.99558
388.1053, 51.33174
388.5874, 51.30143
389.0695, 50.66862
389.5516, 50.10826
390.0338, 49.85506
390.5159, 49.68893
390.9980, 49.36456
391.4801, 48.81722
391.9622, 48.29020
392.4443, 48.11523
392.9265, 48.33102
393.4086, 48.52660
393.8907, 48.64864
394.3728, 48.74127
394.8549, 48.88255
395.3370, 49.03291
395.8192, 49.04423
396.3013, 48.76671
396.7834, 48.27850
397.2655, 47.81491
397.7476, 47.34293
398.2297, 46.98511
398.7119, 46.88379
399.1940, 46.91008
399.6761, 46.92353
400.1582, 46.91637
400.6403, 46.82560
401.1224, 46.52917
401.6046, 46.04058
402.0867, 45.63958
402.5688, 45.44862
403.0509, 45.33858
403.5330, 45.16292
404.0151, 44.92254
404.4973, 44.64008
404.9794, 44.24970
405.4615, 43.84480
405.9436, 43.61269
406.4257, 43.59172
406.9078, 43.61473
407.3900, 43.54607
407.8721, 43.40570
408.3542, 43.30294
408.8363, 43.23153
409.3184, 43.21252
409.8005, 43.28493
410.2827, 43.42741
410.7648, 43.57509
411.2469, 43.71028
411.7290, 43.81306
412.2111, 43.81618
412.6932, 43.65170
413.1754, 43.57050
413.6575, 43.68866
414.1396, 43.87127
414.6217, 43.96538
415.1038, 43.94989
415.5859, 43.92091
416.0681, 43.97037
416.5502, 44.10340
417.0323, 44.27386
417.5144, 44.59413
417.9965, 44.83001
418.4786, 44.75242
418.9608, 44.53522
419.4429, 44.53549
419.9250, 44.94542
420.4071, 45.61496
420.8892, 46.12470
421.3713, 46.27608
421.8535, 46.56517
422.3356, 47.22329
422.8177, 47.86720
423.2998, 48.10637
423.7819, 47.95252
424.2640, 47.79927
424.7462, 48.08533
425.2283, 48.85194
425.7104, 49.46058
426.1925, 49.84497
426.6746, 50.12621
427.1567, 50.31954
427.6389, 50.43820
428.1210, 50.48207
428.6031, 50.44113
429.0852, 50.36690
429.5673, 50.37633
430.0494, 50.50431
430.5316, 50.59023
431.0137, 50.66726
431.4958, 50.63568
431.9779, 50.38019
432.4600, 49.91060
432.9421, 49.40151
433.4243, 48.99562
433.9064, 48.66268
434.3885, 48.28587
434.8706, 47.89180
435.3527, 47.37382
435.8348, 46.53031
436.3170, 45.53664
436.7991, 44.68049
437.2812, 44.06811
437.7633, 43.56813
438.2454, 43.05645
438.7275, 42.54250
439.2097, 42.10939
439.6918, 41.79554
440.1739, 41.56424
440.6560, 41.41737
441.1381, 41.38142
441.6202, 41.17098
442.1024, 40.49062
442.5845, 39.71343
443.0666, 39.31525
443.5487, 39.32013
444.0308, 39.36389
444.5129, 39.13709
444.9951, 38.69847
445.4772, 38.59171
445.9593, 39.12103
446.4414, 39.57675
446.9235, 39.63599
447.4056, 39.51844
447.8878, 39.58442
448.3699, 39.95345
448.8520, 40.42848
449.3341, 40.69426
449.8162, 40.60265
450.2983, 40.72691
450.7805, 41.23301
451.2626, 41.76691
451.7447, 42.15831
452.2268, 42.42052
452.7089, 42.65343
453.1910, 42.93026
453.6732, 43.21307
454.1553, 43.32592
454.6374, 43.13813
455.1195, 42.99910
455.6016, 43.05854
456.0837, 43.12465
456.5659, 43.02113
457.0480, 42.72198
457.5301, 42.35556
458.0122, 42.06682
458.4943, 41.85160
458.9764, 41.55201
459.4586, 41.15419
459.9407, 40.67901
460.4228, 40.10144
460.9049, 39.47136
461.3870, 38.87138
461.8691, 38.31620
462.3513, 37.82649
462.8334, 37.45082
463.3155, 37.18551
463.7976, 36.94873
464.2797, 36.77477
464.7618, 36.54437
465.2440, 36.04140
465.7261, 35.25632
466.2082, 34.62676
466.6903, 34.40173
467.1724, 34.35347
467.6545, 34.21855
468.1367, 33.97784
468.6188, 33.71156
469.1009, 33.48262
469.5830, 33.14048
470.0651, 32.96355
470.5472, 32.44285
471.0294, 31.99350
471.5115, 31.62577
471.9936, 31.39452
472.4757, 31.47580
472.9578, 31.88177
473.4399, 32.25521
473.9221, 32.13322
474.4042, 31.38804
474.8863, 30.88845
475.3684, 30.78162
475.8505, 30.72818
476.3326, 30.63225
476.8148, 30.49880
477.2969, 30.32413
477.7790, 30.10217
478.2611, 29.92129
478.7432, 30.03834
479.2253, 30.66981
479.7075, 30.97908
480.1896, 30.59292
480.6717, 30.09271
481.1538, 29.76045
481.6359, 29.60209
482.1180, 29.50096
482.6002, 29.39703
483.0823, 29.28800
483.5644, 29.18638
484.0465, 29.12303
484.5286, 28.94803
485.0107, 28.43317
485.4929, 27.85532
485.9750, 27.57182
486.4571, 27.67052
486.9392, 27.80243
487.4213, 27.76931
487.9034, 27.61551
488.3856, 27.41630
488.8677, 27.17219
489.3498, 26.96810
489.8319, 26.92326
490.3140, 27.00919
490.7961, 26.90624
491.2783, 26.45092
491.7604, 25.98082
492.2425, 25.62107
492.7246, 25.35819
493.2067, 25.18691
493.6888, 25.10614
494.1710, 25.03869
494.6531, 24.87416
495.1352, 24.61740
495.6173, 24.23146
496.0994, 23.42711
496.5815, 22.79122
497.0637, 22.76534
497.5458, 23.12297
498.0279, 23.36415
498.5100, 23.20694
498.9921, 22.76398
499.4742, 22.28841
499.9564, 21.72795
500.4385, 21.27242
500.9206, 20.97731
501.4027, 20.76826
501.8848, 20.65036
502.3669, 20.59619
502.8491, 20.50776
503.3312, 20.26154
503.8133, 19.94498
504.2954, 19.83602
504.7775, 19.99072
505.2596, 20.08969
505.7418, 19.97114
506.2239, 19.71564
506.7060, 19.42419
507.1881, 19.08179
507.6702, 18.79107
508.1523, 18.63010
508.6345, 18.54540
509.1166, 18.45208
509.5987, 18.33705
510.0808, 18.21005
510.5629, 18.04975
511.0450, 17.87593
511.5272, 17.88775
512.0093, 18.37092
512.4914, 18.67580
512.9735, 18.46807
513.4556, 18.03361
513.9377, 17.73271
514.4199, 17.66839
514.9020, 17.73846
515.3841, 17.84321
515.8662, 18.01279
516.3483, 18.00958
516.8304, 17.63952
517.3126, 17.29865
517.7947, 17.04461
518.2768, 16.90601
518.7589, 16.95783
519.2410, 17.24047
519.7231, 17.55650
520.2053, 17.60066
520.6874, 17.35294
521.1695, 17.11783
521.6516, 16.91655
522.1337, 16.76108
522.6158, 16.64050
523.0980, 16.56441
523.5801, 16.56870
524.0622, 16.75711
524.5443, 16.94147
525.0264, 16.84197
525.5085, 16.52258
525.9907, 16.39428
526.4728, 16.65002
526.9549, 17.04549
527.4370, 17.21442
527.9191, 17.12510
528.4012, 17.04176
528.8834, 17.05138
529.3655, 17.02247
529.8476, 16.83010
530.3297, 16.51781
530.8118, 16.20205
531.2939, 15.93770
531.7761, 15.75504
532.2582, 15.73343
532.7403, 15.91162
533.2224, 16.19204
533.7045, 16.84854
534.1866, 17.35322
534.6688, 17.29212
535.1509, 16.78685
535.6330, 16.26480
536.1151, 15.99554
536.5972, 15.90993
537.0793, 15.80921
537.5615, 15.66426
538.0436, 15.62693
538.5257, 15.79031
539.0078, 16.04778
539.4899, 16.39030
539.9720, 16.79754
540.4542, 16.99186
540.9363, 16.66610
541.4184, 16.13275
541.9005, 15.82769
542.3826, 15.76153
542.8647, 15.78741
543.3469, 15.84567
543.8290, 15.93029
544.3111, 16.04062
544.7932, 16.24151
545.2753, 16.31618
545.7574, 16.09242
546.2396, 15.83138
546.7217, 15.77946
547.2038, 15.92043
547.6859, 16.06364
548.1680, 16.06480
548.6501, 15.98170
549.1323, 16.08979
549.6144, 16.59893
550.0965, 16.93092
550.5786, 16.99263
551.0607, 16.90577
551.5428, 16.64850
552.0250, 16.29169
552.5071, 16.09064
552.9892, 16.28746
553.4713, 16.75797
553.9534, 17.18817
554.4355, 17.60544
554.9177, 17.82575
555.3998, 17.65398
555.8819, 17.33029
556.3640, 17.16608
556.8461, 17.17210
557.3282, 17.28523
557.8104, 17.53810
558.2925, 17.85221
558.7746, 18.15996
559.2567, 18.44868
559.7388, 18.66922
560.2209, 18.78699
560.7031, 18.82693
561.1852, 18.86838
561.6673, 18.85345
562.1494, 18.92745
562.6315, 19.12601
563.1136, 19.38776
563.5958, 19.68612
564.0779, 20.00895
564.5600, 20.34013
565.0421, 20.67623
565.5242, 21.00048
566.0063, 21.25454
566.4885, 21.42476
566.9706, 21.55912
567.4527, 21.47019
567.9348, 21.50315
568.4169, 21.99913
568.8990, 22.90277
569.3812, 23.75835
569.8633, 24.28698
570.3454, 24.64383
570.8275, 25.05692
571.3096, 25.51921
571.7917, 25.89552
572.2739, 26.09557
572.7560, 26.24008
573.2381, 26.55973
573.7202, 27.10455
574.2023, 27.61945
574.6844, 28.10857
575.1666, 28.53953
575.6487, 28.93309
576.1308, 29.25025
576.6129, 29.37285
577.0950, 29.23176
577.5771, 28.95588
578.0593, 28.85258
578.5414, 29.04524
579.0235, 29.07214
579.5056, 28.87400
579.9877, 28.53472
580.4698, 28.01489
580.9520, 27.38427
581.4341, 26.76356
581.9162, 26.16726
582.3983, 25.68779
582.8804, 25.56782
583.3625, 25.75604
583.8447, 25.67949
584.3268, 25.13895
584.8089, 24.45361
585.2910, 23.94729
585.7731, 23.60165
586.2552, 23.23016
586.7374, 22.75205
587.2195, 22.31242
587.7016, 21.96205
588.1837, 21.70951
588.6658, 21.57554
589.1479, 21.56381
589.6301, 21.64630
590.1122, 21.82071
590.5943, 22.12034
591.0764, 22.18017
591.5585, 21.61655
592.0406, 21.26284
592.5228, 21.54185
593.0049, 22.02739
593.4870, 22.17943
593.9691, 21.86654
594.4512, 21.46806
594.9333, 21.34884
595.4155, 21.44874
595.8976, 21.47980
596.3797, 21.38821
596.8618, 21.40533
597.3439, 21.73634
597.8260, 22.24463
598.3082, 22.58849
598.7903, 22.72621
599.2724, 22.80634
599.7545, 22.79943
600.2366, 22.80629
600.7188, 22.93642
601.2009, 23.19368
601.6830, 23.54240
602.1651, 23.97972
602.6472, 24.44248
603.1293, 24.68252
603.6115, 24.53250
604.0936, 24.46527
604.5757, 24.54449
605.0578, 24.67796
605.5399, 24.84852
606.0220, 25.02666
606.5042, 25.14199
606.9863, 25.12079
607.4684, 25.06721
607.9505, 25.22876
608.4326, 25.59448
608.9147, 25.69190
609.3969, 25.31173
609.8790, 24.78553
610.3611, 24.50046
610.8432, 24.42792
611.3253, 24.21329
611.8074, 23.74892
612.2896, 23.20769
612.7717, 22.62513
613.2538, 22.04286
613.7359, 21.51328
614.2180, 21.05430
614.7001, 20.68146
615.1823, 20.42061
615.6644, 20.27737
616.1465, 20.13315
616.6286, 20.06622
617.1107, 19.88408
617.5928, 19.42007
618.0750, 18.89390
618.5571, 18.57443
619.0392, 18.50245
619.5213, 18.39366
620.0034, 17.91336
620.4855, 17.27233
620.9677, 16.98898
621.4498, 17.09597
621.9319, 17.20710
622.4140, 17.12089
622.8961, 16.93671
623.3782, 16.88439
623.8604, 17.04139
624.3425, 17.07020
624.8246, 16.82882
625.3067, 16.54049
625.7888, 16.30930
626.2709, 16.15941
626.7531, 16.14246
627.2352, 16.28874
627.7173, 16.45392
628.1994, 16.32632
628.6815, 15.81880
629.1636, 15.51268
629.6458, 15.63376
630.1279, 15.70766
630.6100, 15.36065
631.0921, 14.84316
631.5742, 14.63906
632.0563, 14.97132
632.5385, 15.31725
633.0206, 15.23844
633.5027, 14.92236
633.9848, 14.73708
634.4669, 14.73613
634.9490, 14.80566
635.4312, 14.87892
635.9133, 14.94517
636.3954, 14.95287
636.8775, 14.85772
637.3596, 14.76070
637.8417, 14.66534
638.3239, 14.56901
638.8060, 14.48643
639.2881, 14.40241
639.7702, 14.25469
640.2523, 13.97265
640.7344, 13.69264
641.2166, 13.72803
641.6987, 14.09580
642.1808, 14.40588
642.6629, 14.62556
643.1450, 14.70038
643.6271, 14.41382
644.1093, 13.90443
644.5914, 13.71623
645.0735, 14.22499
645.5556, 14.72402
646.0377, 14.90482
646.5198, 14.86651
647.0020, 14.66631
647.4841, 14.35742
647.9662, 14.15320
648.4483, 14.27218
648.9304, 14.65018
649.4125, 14.82203
649.8947, 14.64715
650.3768, 14.52690
650.8589, 14.66614
651.3410, 14.77339
651.8231, 14.55806
652.3052, 14.08699
652.7874, 13.74647
653.2695, 13.75623
653.7516, 13.96616
654.2337, 14.30268
654.7158, 14.70666
655.1979, 14.87818
655.6801, 14.71179
656.1622, 14.40071
656.6443, 14.11201
657.1264, 13.83515
657.6085, 13.81536
658.0906, 14.28981
658.5728, 14.68648
659.0549, 14.87156
659.5370, 14.91395
660.0191, 14.84080
660.5012, 14.68959
660.9833, 14.57884
661.4655, 14.62330
661.9476, 14.77168
662.4297, 14.83111
662.9118, 14.77247
663.3939, 14.87397
663.8760, 15.33481
664.3582, 15.85399
664.8403, 16.00323
665.3224, 15.81899
665.8045, 15.79659
666.2866, 16.17173
666.7687, 16.56284
667.2509, 16.72038
667.7330, 16.76326
668.2151, 16.87488
668.6972, 17.11088
669.1793, 17.44986
669.6614, 17.87986
670.1436, 18.39785
670.6257, 18.97765
671.1078, 19.73578
671.5899, 20.31760
672.0720, 20.39071
672.5541, 20.41760
673.0363, 20.79535
673.5184, 21.51702
674.0005, 22.25424
674.4826, 23.04845
674.9647, 23.65619
675.4468, 23.78803
675.9290, 23.53164
676.4111, 23.13447
676.8932, 22.67284
677.3753, 22.14248
677.8574, 21.53351
678.3395, 20.84264
678.8217, 20.16086
679.3038, 19.53501
679.7859, 18.85572
680.2680, 17.94850
680.7501, 17.09201
681.2322, 16.53050
681.7144, 16.28837
682.1965, 16.24409
682.6786, 16.38697
683.1607, 16.63653
683.6428, 16.84905
684.1249, 17.03680
684.6071, 17.30735
685.0892, 17.70646
685.5713, 18.15234
686.0534, 18.54376
686.5355, 19.02831
687.0176, 19.31107
687.4998, 20.01658
687.9819, 20.63343
688.4640, 21.17828
688.9461, 21.52589
689.4282, 21.47341
689.9103, 21.05769
690.3925, 20.58602
690.8746, 20.28702
691.3567, 20.09943
691.8388, 19.89309
692.3209, 19.66894
692.8030, 19.38630
693.2852, 18.97706
693.7673, 18.61212
694.2494, 18.45964
694.7315, 18.51807
695.2136, 18.69473
695.6957, 19.33203
696.1779, 19.66913
696.6600, 19.26026
697.1421, 18.52591
697.6242, 17.93472
698.1063, 17.53637
698.5884, 17.07608
699.0706, 16.32705
699.5527, 15.43553
700.0348, 14.81445
700.5169, 14.48695
700.9990, 14.30370
701.4811, 14.30685
701.9633, 14.34615
702.4454, 14.23337
702.9275, 14.04212
703.4096, 14.03966
703.8917, 14.47738
704.3738, 14.81103
704.8560, 14.67565
705.3381, 14.39369
705.8202, 14.37566
706.3023, 14.63306
706.7844, 14.90414
707.2665, 15.00939
707.7487, 15.00367
708.2308, 15.05413
708.7129, 15.20473
709.1950, 15.19950
709.6771, 14.94312
710.1592, 14.60966
710.6414, 14.21325
711.1235, 13.83792
711.6056, 13.68372
712.0877, 13.85321
712.5698, 14.08078
713.0519, 14.30961
713.5341, 14.48247
714.0162, 14.49669
714.4983, 14.37712
714.9804, 14.25034
715.4625, 14.18571
715.9446, 14.17341
716.4268, 14.21039
716.9089, 14.32894
717.3910, 14.34918
717.8731, 14.21673
718.3552, 14.05108
718.8373, 13.80741
719.3195, 13.60592
719.8016, 13.70026
720.2837, 14.21052
720.7658, 14.51461
721.2479, 14.08383
721.7300, 13.46247
722.2122, 13.23822
722.6943, 13.36508
723.1764, 13.58440
723.6585, 13.78713
724.1406, 13.87015
724.6227, 13.59934
725.1049, 12.88627
725.5870, 12.68862
726.0691, 13.44732
726.5512, 14.00661
727.0333, 13.71574
727.5154, 13.20191
727.9976, 13.14375
728.4797, 13.58762
728.9618, 13.93580
729.4439, 13.80744
729.9260, 13.58769
730.4081, 13.65914
730.8903, 13.91223
731.3724, 14.06340
731.8545, 14.03218
732.3366, 13.93257
732.8187, 13.87964
733.3008, 13.87035
733.7830, 13.86337
734.2651, 13.84192
734.7472, 13.85927
735.2293, 13.93975
735.7114, 14.05434
736.1935, 14.23417
736.6757, 14.44275
737.1578, 14.52712
737.6399, 14.35188
738.1220, 14.15509
738.6041, 14.11696
739.0862, 14.15233
739.5684, 14.11475
740.0505, 13.99270
740.5326, 13.88063
741.0147, 13.84643
741.4968, 13.87329
741.9789, 13.90955
742.4611, 13.95006
742.9432, 14.02312
743.4253, 14.18901
743.9074, 14.31346
744.3895, 14.28506
744.8716, 14.17468
745.3538, 14.11442
745.8359, 14.13662
746.3180, 14.16982
746.8001, 14.22089
747.2822, 14.23911
747.7643, 14.07673
748.2465, 13.82861
748.7286, 13.84304
749.2107, 14.27921
749.6928, 14.80042
750.1749, 14.85604
750.6570, 14.41555
751.1392, 14.14740
751.6213, 14.06482
752.1034, 14.12911
752.5855, 14.46227
753.0676, 14.84169
753.5497, 14.90466
754.0319, 14.63191
754.5140, 14.66662
754.9961, 15.63328
755.4782, 16.45836
755.9603, 16.28934
756.4424, 15.63540
756.9246, 15.29229
757.4067, 15.42221
757.8888, 15.69001
758.3709, 15.81480
758.8530, 15.84861
759.3351, 15.99476
759.8173, 16.27917
760.2994, 16.45571
760.7815, 16.47869
761.2636, 16.36117
761.7457, 15.93911
762.2278, 15.35873
762.7100, 15.30762
763.1921, 16.20572
763.6742, 17.00389
764.1563, 17.53804
764.6384, 17.81516
765.1205, 17.66897
765.6027, 17.28190
766.0848, 17.13284
766.5669, 17.45798
767.0490, 17.86008
767.5311, 17.69981
768.0132, 17.11953
768.4954, 16.98076
768.9775, 17.39043
769.4596, 17.75319
769.9417, 17.76899
770.4238, 17.59864
770.9059, 17.51650
771.3881, 17.54870
771.8702, 17.56893
772.3523, 17.63219
772.8344, 17.61910
773.3165, 17.33520
773.7986, 17.04384
774.2808, 17.17402
774.7629, 17.69188
775.2450, 17.96039
775.7271, 17.32915
776.2092, 16.42526
776.6913, 16.26385
777.1735, 16.66555
777.6556, 16.87434
778.1377, 16.71244
778.6198, 16.48984
779.1019, 16.47715
779.5840, 16.62290
780.0662, 16.66164
780.5483, 16.52905
781.0304, 16.41060
781.5125, 16.32162
781.9946, 16.24497
782.4767, 16.25834
782.9589, 16.25602
783.4410, 15.99285
783.9231, 15.33950
784.4052, 14.78044
784.8873, 14.64194
785.3694, 14.73263
785.8516, 14.90837
786.3337, 15.10564
786.8158, 15.18143
787.2979, 15.07906
787.7800, 14.85974
788.2621, 14.55679
788.7443, 14.18216
789.2264, 14.09924
789.7085, 14.44481
790.1906, 14.69734
790.6727, 14.63445
791.1548, 14.48813
791.6370, 14.52778
792.1191, 14.71505
792.6012, 14.77247
793.0833, 14.52851
793.5654, 14.31160
794.0475, 14.22751
794.5297, 14.24301
795.0118, 14.39394
795.4939, 14.61720
795.9760, 14.73459
796.4581, 14.64479
796.9402, 14.42600
797.4224, 14.09299
797.9045, 13.70044
798.3866, 13.70030
798.8687, 14.17873
799.3508, 14.59975
799.8329, 14.69016
800.3151, 14.56221
800.7972, 14.40452
801.2793, 14.19053
801.7614, 14.05171
802.2435, 14.02540
802.7256, 14.02043
803.2078, 14.00521
803.6899, 14.00187
804.1720, 14.04655
804.6541, 14.13396
805.1362, 14.21135
805.6183, 14.27617
806.1005, 14.28820
806.5826, 14.12560
807.0647, 13.89482
807.5468, 13.85167
808.0289, 14.02944
808.5110, 14.30086
808.9932, 14.59739
809.4753, 14.85536
809.9574, 14.90691
810.4395, 14.73447
810.9216, 14.39862
811.4037, 13.67138
811.8859, 13.16833
812.3680, 13.40464
812.8501, 13.95728
813.3322, 14.22689
813.8143, 14.16047
814.2964, 14.01962
814.7786, 13.66926
815.2607, 13.46779
815.7428, 13.77449
816.2249, 14.29004
816.7070, 14.63181
817.1891, 14.70615
817.6713, 14.55553
818.1534, 14.14273
818.6355, 13.63027
819.1176, 13.30800
819.5997, 13.17058
820.0818, 13.21480
820.5640, 13.46089
821.0461, 13.70435
821.5282, 13.80337
822.0103, 13.79211
822.4924, 13.77769
822.9745, 13.80616
823.4567, 13.72692
823.9388, 13.24300
824.4209, 12.99150
824.9030, 13.42228
825.3851, 14.09838
825.8672, 14.45501
826.3494, 14.41428
826.8315, 14.30115
827.3136, 14.23751
827.7957, 14.19201
828.2778, 14.10497
828.7599, 14.02871
829.2421, 14.07240
829.7242, 14.24603
830.2063, 14.48285
830.6884, 14.76190
831.1705, 14.98862
831.6526, 14.85960
832.1348, 14.35889
832.6169, 14.01317
833.0990, 13.88111
833.5811, 13.93568
834.0632, 14.27071
834.5453, 14.69947
835.0275, 14.77664
835.5096, 14.29001
835.9917, 14.08854
836.4738, 14.42921
836.9559, 14.75697
837.4380, 14.89968
837.9202, 14.90327
838.4023, 14.77817
838.8844, 14.55950
839.3665, 14.40231
839.8486, 14.42000
840.3307, 14.49738
840.8129, 14.52432
841.2950, 14.52305
841.7771, 14.55002
842.2592, 14.60446
842.7413, 14.62153
843.2234, 14.55801
843.7056, 14.44832
844.1877, 14.33290
844.6698, 14.19859
845.1519, 14.25459
845.6340, 14.59358
846.1161, 14.87313
846.5983, 14.92187
847.0804, 14.86470
847.5625, 14.87704
848.0446, 14.96452
848.5267, 15.02095
849.0089, 14.89557
849.4910, 14.92713
849.9731, 15.38723
850.4552, 15.90791
850.9373, 16.11247
851.4194, 16.06974
851.9016, 16.10942
852.3837, 16.38300
852.8658, 16.74989
853.3479, 17.06583
853.8300, 17.39722
854.3121, 17.91712
854.7943, 18.58136
855.2764, 19.14158
855.7585, 19.48728
856.2406, 19.71939
856.7227, 19.99636
857.2048, 20.29513
857.6870, 20.31065
858.1691, 20.00205
858.6512, 19.55517
859.1333, 18.96122
859.6154, 18.32862
860.0975, 17.75115
860.5797, 17.21645
861.0618, 16.64310
861.5439, 15.93456
862.0260, 15.35062
862.5081, 14.97852
862.9902, 14.67481
863.4724, 14.30233
863.9545, 13.96008
864.4366, 13.87557
864.9187, 14.09287
865.4008, 14.22872
865.8829, 13.93282
866.3651, 13.50115
866.8472, 13.21843
867.3293, 13.08266
867.8114, 13.10350
868.2935, 13.26462
868.7756, 13.45378
869.2578, 13.59421
869.7399, 13.67487
870.2220, 13.64877
870.7041, 13.50980
871.1862, 13.39001
871.6683, 13.29812
872.1505, 13.23541
872.6326, 13.21014
873.1147, 13.20652
873.5968, 13.19819
874.0789, 13.18317
874.5610, 13.17419
875.0432, 13.27600
875.5253, 13.24696
876.0074, 12.80616
876.4895, 12.39397
876.9716, 12.46640
877.4537, 12.91383
877.9359, 13.23844
878.4180, 13.25885
878.9001, 13.16780
879.3822, 13.05778
879.8643, 12.91852
880.3464, 12.66898
880.8286, 12.38537
881.3107, 12.27568
881.7928, 12.40930
882.2749, 12.65204
882.7570, 12.94180
883.2391, 13.18954
883.7213, 13.00171
884.2034, 12.41563
884.6855, 12.10459
885.1676, 12.25365
885.6497, 12.48384
886.1318, 12.49318
886.6140, 12.36230
887.0961, 12.38144
887.5782, 12.67479
888.0603, 12.79206
888.5424, 12.58668
889.0245, 12.40402
889.5067, 12.43213
889.9888, 12.52533
890.4709, 12.51555
890.9530, 12.39630
891.4351, 12.26714
891.9172, 12.14727
892.3994, 12.02203
892.8815, 11.89263
893.3636, 11.74956
893.8457, 11.49113
894.3278, 11.21498
894.8099, 11.23564
895.2921, 11.72502
895.7742, 12.20941
896.2563, 12.21567
896.7384, 11.93183
897.2205, 11.51832
897.7026, 11.09633
898.1848, 11.16911
898.6669, 11.86678
899.1490, 12.57521
899.6311, 12.68296
900.1132, 12.34534
900.5953, 12.12838
901.0775, 12.03627
901.5596, 12.03778
902.0417, 12.16918
902.5238, 12.25267
903.0059, 12.13838
903.4880, 11.95542
903.9702, 11.99402
904.4523, 12.35849
904.9344, 12.52236
905.4165, 12.35910
905.8986, 12.15898
906.3807, 11.93642
906.8629, 11.74048
907.3450, 11.61242
907.8271, 11.54821
908.3092, 11.51759
908.7913, 11.47901
909.2734, 11.54225
909.7556, 11.89473
910.2377, 12.25036
910.7198, 12.31330
911.2019, 12.19092
911.6840, 12.15305
912.1661, 12.26663
912.6483, 12.32482
913.1304, 12.10991
913.6125, 11.77543
914.0946, 11.49853
914.5767, 11.31784
915.0588, 11.41866
915.5410, 11.80378
916.0231, 12.17226
916.5052, 12.32762
916.9873, 12.40354
917.4694, 12.75875
917.9515, 13.42171
918.4337, 13.49114
918.9158, 12.82611
919.3979, 12.17564
919.8800, 11.73082
920.3621, 11.53324
920.8442, 11.70777
921.3264, 12.20283
921.8085, 12.46305
922.2906, 12.30348
922.7727, 12.21191
923.2548, 12.20172
923.7369, 12.26906
924.2191, 12.49826
924.7012, 12.76566
925.1833, 12.87537
925.6654, 12.80029
926.1475, 12.71147
926.6296, 12.67862
927.1118, 12.62165
927.5939, 12.40097
928.0760, 12.20404
928.5581, 12.26247
929.0402, 12.54213
929.5223, 12.88549
930.0045, 13.25302
930.4866, 13.47087
930.9687, 13.18528
931.4508, 12.76824
931.9329, 12.94118
932.4150, 13.49990
932.8972, 13.65648
933.3793, 13.23327
933.8614, 12.81551
934.3435, 12.92889
934.8256, 13.36236
935.3077, 13.59276
935.7899, 13.63718
936.2720, 13.78158
936.7541, 14.07182
937.2362, 14.21178
937.7183, 13.97477
938.2004, 13.78537
938.6826, 14.38323
939.1647, 15.80124
939.6468, 16.46444
940.1289, 16.08573
940.6110, 15.63717
941.0931, 15.17901
941.5753, 14.85425
942.0574, 14.82870
942.5395, 15.00214
943.0216, 15.08621
943.5037, 15.01396
943.9858, 15.05676
944.4680, 15.30731
944.9501, 15.58927
945.4322, 15.85260
945.9143, 16.10516
946.3964, 16.38753
946.8785, 16.67689
947.3607, 16.86363
947.8428, 16.87666
948.3249, 16.86072
948.8070, 16.79349
949.2891, 16.81842
949.7712, 17.12204
950.2534, 17.60925
950.7355, 18.13353
951.2176, 18.62624
951.6997, 18.95328
952.1818, 18.96067
952.6639, 18.81234
953.1461, 18.63456
953.6282, 18.50037
954.1103, 18.59957
954.5924, 18.93447
955.0745, 19.42194
955.5566, 20.02842
956.0388, 20.55709
956.5209, 20.67483
957.0030, 20.48977
957.4851, 20.54428
957.9672, 20.83856
958.4493, 21.27878
958.9315, 21.85949
959.4136, 22.49476
959.8957, 23.16193
960.3778, 23.76493
960.8599, 24.00467
961.3420, 23.75575
961.8242, 23.78683
962.3063, 24.16243
962.7884, 24.67054
963.2705, 25.32144
963.7526, 25.97507
964.2347, 26.49871
964.7169, 26.89989
965.1990, 27.24016
965.6811, 27.32599
966.1632, 27.65035
966.6453, 28.56836
967.1274, 29.31736
967.6096, 29.44650
968.0917, 29.30662
968.5738, 29.34011
969.0559, 29.57304
969.5380, 29.77048
970.0201, 29.84454
970.5023, 29.91784
970.9844, 30.05811
971.4665, 30.19317
971.9486, 30.26236
972.4307, 30.28209
972.9128, 30.30869
973.3950, 30.35502
973.8771, 30.33478
974.3592, 30.14540
974.8413, 29.91874
975.3234, 29.83929
975.8055, 29.75911
976.2877, 29.43237
976.7698, 28.87990
977.2519, 28.26182
977.7340, 27.64768
978.2161, 27.12775
978.6982, 26.89510
979.1804, 26.77559
979.6625, 26.41838
980.1446, 25.88284
980.6267, 25.39169
981.1088, 24.98849
981.5909, 24.57354
982.0731, 24.08353
982.5552, 23.51083
983.0373, 22.76158
983.5194, 21.88850
984.0015, 21.28665
984.4836, 20.96527
984.9658, 20.75320
985.4479, 20.61785
985.9300, 20.36087
986.4121, 19.75525
986.8942, 18.95149
987.3763, 18.56552
987.8585, 18.70918
988.3406, 18.47242
988.8227, 17.64881
989.3048, 17.02045
989.7869, 17.01140
990.2690, 17.14143
990.7512, 16.77099
991.2333, 15.97333
991.7154, 15.70865
992.1975, 16.35798
992.6796, 16.73438
993.1617, 16.69664
993.6439, 16.46047
994.1260, 15.98049
994.6081, 15.44322
995.0902, 15.12663
995.5723, 15.03806
996.0544, 14.94184
996.5366, 14.84012
997.0187, 14.71383
997.5008, 14.38775
997.9829, 14.21177
998.4650, 14.64126
998.9471, 15.26732
999.4293, 15.27980
999.9114, 14.53354
1000.393, 14.10942
1000.876, 14.61621
1001.358, 15.10637
1001.840, 15.18897
1002.322, 15.08051
1002.804, 14.84940
1003.286, 14.62476
1003.768, 14.67489
1004.250, 15.08994
1004.733, 15.45671
1005.215, 15.48393
1005.697, 15.45548
1006.179, 15.61371
1006.661, 15.82318
1007.143, 15.93300
1007.625, 15.91645
1008.107, 15.74969
1008.589, 15.40873
1009.072, 15.10869
1009.554, 15.07112
1010.036, 14.92216
1010.518, 15.09271
1011.000, 15.02187
1011.482, 15.17539
1011.964, 15.53493
1012.446, 15.80941
1012.929, 15.83212
1013.411, 15.80648
1013.893, 15.97280
1014.375, 16.26882
1014.857, 16.65327
1015.339, 17.05293
1015.821, 17.19114
1016.303, 17.03849
1016.785, 16.88510
1017.268, 16.92424
1017.750, 17.09678
1018.232, 17.36530
1018.714, 17.68398
1019.196, 17.82202
1019.678, 17.80087
1020.160, 17.85254
1020.642, 18.04308
1021.125, 18.40652
1021.607, 19.00053
1022.089, 19.68335
1022.571, 20.12474
1023.053, 20.33823
1023.535, 20.46757
1024.017, 20.50521
1024.499, 20.83106
1024.981, 21.60519
1025.464, 22.40054
1025.946, 22.81385
1026.428, 22.97464
1026.910, 23.28002
1027.392, 23.73799
1027.874, 24.26667
1028.356, 24.86509
1028.838, 25.48734
1029.321, 26.03658
1029.803, 26.84778
1030.285, 28.28621
1030.767, 30.25451
1031.249, 32.29300
1031.731, 34.34517
1032.213, 36.64687
1032.695, 38.96872
1033.177, 42.15588
1033.660, 46.46856
1034.142, 51.85496
1034.624, 58.41746
1035.106, 66.02808
1035.588, 73.70285
1036.070, 82.25633
1036.552, 88.85342
1037.034, 92.62668
1037.516, 95.79485
1037.999, 98.45935
1038.481, 101.5652
1038.963, 105.7560
1039.445, 111.1802
1039.927, 118.9938
1040.409, 129.2505
1040.891, 141.8357
1041.373, 157.5830
1041.855, 174.5162
1042.338, 190.7504
1042.820, 208.5248
1043.302, 228.6870
1043.784, 251.8781
1044.266, 283.5248
1044.748, 326.7005
1045.230, 373.2555
1045.712, 436.5237
1046.195, 486.3602
1046.677, 517.2374
1047.159, 524.4184
1047.641, 498.0168
1048.123, 441.6549
1048.605, 378.9928
1049.087, 303.8192
1049.569, 237.8090
1050.052, 183.3023
1050.534, 139.7664
1051.016, 109.3937
1051.498, 88.23709
1051.980, 73.52528
1052.462, 64.34297
1052.944, 57.60191
1053.426, 53.60329
1053.908, 50.22334
1054.391, 47.62346
1054.873, 44.82429
1055.355, 41.01936
1055.837, 36.95495
1056.319, 33.35919
1056.801, 30.30515
1057.283, 27.64908
1057.765, 25.31412
1058.248, 23.51167
1058.730, 22.46389
1059.212, 21.77250
1059.694, 21.28422
1060.176, 20.98235
1060.658, 20.92569
1061.140, 21.05796
1061.622, 21.16690
1062.104, 21.20230
1062.587, 21.19098
1063.069, 21.12125
1063.551, 21.03148
1064.033, 20.81798
1064.515, 20.68554
1064.997, 20.93306
1065.479, 21.48259
1065.961, 21.97421
1066.443, 22.30158
1066.926, 22.57242
1067.408, 22.70281
1067.890, 22.93444
1068.372, 23.54737
1068.854, 24.24346
1069.336, 24.60830
1069.818, 24.74029
1070.300, 25.12305
1070.782, 25.97988
1071.265, 26.67951
1071.747, 26.72253
1072.229, 26.78674
1072.711, 27.33824
1073.193, 28.08346
1073.675, 28.72222
1074.157, 29.24349
1074.639, 29.73611
1075.122, 30.22280
1075.604, 30.70247
1076.086, 31.42389
1076.568, 31.84341
1077.050, 31.32180
1077.532, 30.59367
1078.014, 30.47740
1078.496, 30.80239
1078.979, 31.00459
1079.461, 30.94732
1079.943, 30.61381
1080.425, 29.86385
1080.907, 28.99863
1081.389, 28.12490
1081.871, 27.26922
1082.353, 26.39350
1082.835, 25.57132
1083.318, 25.01358
1083.800, 24.76180
1084.282, 24.37322
1084.764, 23.50582
1085.246, 22.64857
1085.728, 21.98841
1086.210, 21.49455
1086.692, 21.24961
1087.175, 21.10226
1087.657, 20.81046
1088.139, 20.33188
1088.621, 19.77453
1089.103, 19.02099
1089.585, 18.42198
1090.067, 18.20341
1090.549, 18.12220
1091.031, 18.09515
1091.514, 18.02670
1091.996, 17.78165
1092.478, 17.35906
1092.960, 16.89975
1093.442, 16.33888
1093.924, 15.95740
1094.406, 15.96055
1094.888, 16.06391
1095.370, 16.16572
1095.853, 16.20241
1096.335, 16.06056
1096.817, 15.78001
1097.299, 15.60073
1097.781, 15.66371
1098.263, 15.63073
1098.745, 15.24928
1099.227, 14.91721
1099.709, 14.85457
1100.192, 14.93915
1100.674, 15.16189
1101.156, 15.40409
1101.638, 15.29794
1102.120, 14.65307
1102.602, 14.12292
1103.084, 13.84368
1103.566, 13.73421
1104.049, 13.78148
1104.531, 13.96655
1105.013, 14.52183
1105.495, 15.14420
1105.977, 15.01969
1106.459, 13.87346
1106.941, 13.21621
1107.423, 13.69237
1107.906, 14.13585
1108.388, 14.34861
1108.870, 14.32202
1109.352, 13.88460
1109.834, 13.27885
1110.316, 12.89481
1110.798, 12.75506
1111.280, 12.77070
1111.762, 13.03993
1112.245, 13.30456
1112.727, 13.62630
1113.209, 13.83154
1113.691, 13.76215
1114.173, 13.57571
1114.655, 13.44745
1115.137, 13.37864
1115.619, 13.37360
1116.102, 13.45226
1116.584, 13.56380
1117.066, 13.82177
1117.548, 13.94333
1118.030, 13.82546
1118.512, 13.52551
1118.994, 12.93271
1119.476, 12.22441
1119.958, 12.16106
1120.441, 13.04725
1120.923, 13.60485
1121.405, 13.74273
1121.887, 13.72794
1122.369, 13.51657
1122.851, 13.38613
1123.333, 13.61807
1123.815, 13.99216
1124.297, 13.99035
1124.780, 13.56860
1125.262, 13.35211
1125.744, 13.39495
1126.226, 13.45016
1126.708, 13.47795
1127.190, 13.50875
1127.672, 13.56198
1128.154, 13.61833
1128.636, 13.64157
1129.119, 13.64281
1129.601, 13.74479
1130.083, 13.71753
1130.565, 14.00311
1131.047, 13.77822
1131.529, 13.66187
1132.011, 13.81635
1132.493, 14.02213
1132.976, 14.06533
1133.458, 13.97246
1133.940, 13.77551
1134.422, 13.49212
1134.904, 13.37330
1135.386, 13.42222
1135.868, 13.47299
1136.350, 13.47961
1136.833, 13.44213
1137.315, 13.35656
1137.797, 13.25273
1138.279, 13.17759
1138.761, 13.12673
1139.243, 13.07078
1139.725, 13.02467
1140.207, 13.08387
1140.689, 13.23904
1141.172, 13.31202
1141.654, 13.22019
1142.136, 13.14134
1142.618, 13.34007
1143.100, 13.16092
1143.582, 13.41722
1144.064, 13.03544
1144.546, 12.85574
1145.029, 12.87942
1145.511, 12.96433
1145.993, 13.06422
1146.475, 13.20396
1146.957, 13.42345
1147.439, 13.63007
1147.921, 13.74884
1148.403, 13.78974
1148.885, 13.76243
1149.368, 13.66622
1149.850, 13.40150
1150.332, 13.05304
1150.814, 12.99221
1151.296, 13.42670
1151.778, 13.82754
1152.260, 13.84116
1152.742, 13.75410
1153.224, 13.78655
1153.707, 13.79957
1154.189, 13.58344
1154.671, 13.23572
1155.153, 12.98066
1155.635, 12.86217
1156.117, 12.87724
1156.599, 13.12532
1157.081, 13.36339
1157.563, 13.54490
1158.046, 13.66234
1158.528, 13.72329
1159.010, 13.70911
1159.492, 13.55684
1159.974, 13.28929
1160.456, 13.09225
1160.938, 12.93858
1161.420, 12.93891
1161.903, 13.20028
1162.385, 13.46963
1162.867, 13.69831
1163.349, 13.88910
1163.831, 14.04568
1164.313, 14.16647
1164.795, 14.25585
1165.277, 14.32667
1165.760, 14.23376
1166.242, 13.87575
1166.724, 13.68633
1167.206, 13.76271
1167.688, 13.93121
1168.170, 14.14015
1168.652, 14.28932
1169.134, 14.22827
1169.616, 14.01508
1170.099, 13.92523
1170.581, 13.95999
1171.063, 14.00700
1171.545, 14.05927
1172.027, 14.20066
1172.509, 14.46025
1172.991, 14.61809
1173.473, 14.48766
1173.956, 14.27279
1174.438, 14.30640
1174.920, 14.54836
1175.402, 14.94250
1175.884, 15.42296
1176.366, 15.82347
1176.848, 16.07923
1177.330, 15.96828
1177.813, 15.41621
1178.295, 14.91556
1178.777, 14.98012
1179.259, 15.20641
1179.741, 15.04692
1180.223, 14.75993
1180.705, 14.68448
1181.187, 14.79929
1181.669, 15.03762
1182.151, 15.35048
1182.634, 15.63804
1183.116, 15.88923
1183.598, 15.97338
1184.080, 15.69995
1184.562, 15.36440
1185.044, 15.08594
1185.526, 14.91155
1186.008, 14.87693
1186.490, 14.97827
1186.973, 15.25547
1187.455, 15.73328
1187.937, 16.01996
1188.419, 15.85920
1188.901, 15.77102
1189.383, 16.04055
1189.865, 16.18946
1190.347, 15.72838
1190.830, 15.22349
1191.312, 15.40402
1191.794, 15.26754
1192.276, 15.29406
1192.758, 15.71320
1193.240, 15.59065
1193.722, 16.10588
1194.204, 16.41656
1194.687, 16.25100
1195.169, 16.11018
1195.651, 16.33347
1196.133, 16.70289
1196.615, 16.88896
1197.097, 16.89950
1197.579, 16.71344
1198.061, 16.35148
1198.543, 16.27027
1199.026, 16.49331
1199.508, 16.71102
1199.990, 16.81651
1200.472, 16.86090
1200.954, 16.87065
1201.436, 16.90480
1201.918, 17.12005
1202.400, 17.38552
1202.883, 17.40651
1203.365, 17.27121
1203.847, 17.18778
1204.329, 17.17424
1204.811, 17.11661
1205.293, 16.98203
1205.775, 17.01499
1206.257, 17.63623
1206.740, 18.13134
1207.222, 17.71973
1207.704, 17.20403
1208.186, 17.41854
1208.668, 17.95667
1209.150, 18.13259
1209.632, 17.95473
1210.114, 17.91983
1210.596, 18.22972
1211.078, 18.37670
1211.561, 18.01667
1212.043, 17.81857
1212.525, 18.15467
1213.007, 18.53080
1213.489, 18.61257
1213.971, 18.55033
1214.453, 18.55891
1214.935, 18.63777
1215.417, 18.79709
1215.900, 19.09868
1216.382, 19.22390
1216.864, 19.10545
1217.346, 19.02753
1217.828, 19.07710
1218.310, 19.20898
1218.792, 19.40444
1219.274, 19.60222
1219.757, 19.65651
1220.239, 19.62139
1220.721, 19.82491
1221.203, 19.85822
1221.685, 19.89568
1222.167, 20.08488
1222.649, 20.00546
1223.131, 20.15866
1223.614, 20.31736
1224.096, 20.27924
1224.578, 20.26691
1225.060, 20.65579
1225.542, 21.09174
1226.024, 21.07914
1226.506, 20.85947
1226.988, 20.72607
1227.470, 20.78096
1227.953, 21.25253
1228.435, 22.22814
1228.917, 22.82234
1229.399, 22.30744
1229.881, 21.91281
1230.363, 22.25783
1230.845, 22.58840
1231.327, 22.37040
1231.810, 21.96334
1232.292, 21.76064
1232.774, 21.75065
1233.256, 21.88801
1233.738, 22.22422
1234.220, 22.48315
1234.702, 22.63822
1235.184, 22.80316
1235.667, 23.00948
1236.149, 23.17891
1236.631, 23.26533
1237.113, 23.31165
1237.595, 23.34625
1238.077, 23.42315
1238.559, 23.84105
1239.041, 24.45743
1239.523, 24.35931
1240.005, 23.72551
1240.488, 23.66692
1240.970, 24.32098
1241.452, 25.00383
1241.934, 25.38409
1242.416, 25.49152
1242.898, 25.19312
1243.380, 24.82308
1243.862, 24.64245
1244.344, 24.63723
1244.827, 24.87777
1245.309, 25.23288
1245.791, 25.52452
1246.273, 25.71903
1246.755, 25.80021
1247.237, 25.68398
1247.719, 25.73442
1248.201, 26.28357
1248.684, 26.65852
1249.166, 26.54525
1249.648, 26.32462
1250.130, 26.02648
1250.612, 25.94499
1251.094, 26.65864
1251.576, 26.40652
1252.058, 26.51304
1252.541, 26.88262
1253.023, 26.61207
1253.505, 27.44172
1253.987, 28.04691
1254.469, 28.11764
1254.951, 28.07098
1255.433, 28.14483
1255.915, 28.23789
1256.397, 28.19859
1256.880, 28.13518
1257.362, 28.30941
1257.844, 28.34270
1258.326, 28.68634
1258.808, 28.67253
1259.290, 28.85657
1259.772, 29.19549
1260.254, 29.20415
1260.737, 28.62641
1261.219, 28.19510
1261.701, 28.27526
1262.183, 28.62484
1262.665, 29.39169
1263.147, 30.10633
1263.629, 30.43799
1264.111, 30.50532
1264.594, 30.38897
1265.076, 30.16104
1265.558, 30.20094
1266.040, 30.62079
1266.522, 30.90490
1267.004, 31.04194
1267.486, 31.05797
1267.968, 30.91548
1268.450, 30.87040
1268.932, 31.06421
1269.415, 31.33617
1269.897, 31.50737
1270.379, 31.62553
1270.861, 31.82347
1271.343, 32.06055
1271.825, 32.20858
1272.307, 32.28582
1272.789, 32.35341
1273.271, 32.42503
1273.754, 32.47184
1274.236, 32.48804
1274.718, 32.61759
1275.200, 33.00428
1275.682, 33.45575
1276.164, 33.91716
1276.646, 34.33703
1277.128, 34.75392
1277.611, 35.04830
1278.093, 34.94570
1278.575, 34.61933
1279.057, 34.66908
1279.539, 35.16761
1280.021, 35.59471
1280.503, 36.00685
1280.985, 36.11604
1281.468, 35.77248
1281.950, 35.64803
1282.432, 36.02129
1282.914, 36.49567
1283.396, 36.74384
1283.878, 36.89052
1284.360, 37.12494
1284.842, 37.44604
1285.324, 37.85284
##END=



