##NAMES=Pollucite
##RRUFFID=R050345
##IDEAL CHEMISTRY=Cs(Si_2_Al)O_6_&#183;nH_2_O
##LOCALITY=Bernic Lake, Manitoba, Canada
##OWNER=RRUFF
##SOURCE=California Institute of Technology
##DESCRIPTION=Colorless to white fragment
##STATUS=The identification of this mineral has been confirmed by X-ray diffraction and chemical analysis
##URL=rruff.info/R050345
##MEASURED CHEMISTRY=(Cs_0.79_Na_0.19_Rb_0.02_)_Σ=1_(Si_2.10_Al_0.90_)_Σ=3_O_6_·H_2_O
116.1471, 378.2188
116.6293, 377.5478
117.1114, 377.2543
117.5935, 377.4416
118.0756, 377.7210
118.5577, 378.1522
119.0398, 378.6200
119.5220, 378.7968
120.0041, 378.3727
120.4862, 377.7041
120.9683, 377.6053
121.4504, 378.3746
121.9325, 379.1925
122.4147, 379.2081
122.8968, 378.3250
123.3789, 377.7876
123.8610, 378.7737
124.3431, 380.2553
124.8252, 381.2529
125.3074, 381.3698
125.7895, 380.9552
126.2716, 380.6297
126.7537, 380.0907
127.2358, 380.2733
127.7179, 382.2407
128.2001, 384.8047
128.6822, 386.3120
129.1643, 385.5332
129.6464, 382.7161
130.1285, 381.0743
130.6106, 382.0778
131.0928, 382.9321
131.5749, 382.7563
132.0570, 381.8588
132.5391, 381.0982
133.0212, 381.2857
133.5033, 382.6484
133.9855, 383.4153
134.4676, 382.9220
134.9497, 382.4940
135.4318, 383.1138
135.9139, 384.7738
136.3960, 386.4784
136.8782, 386.9679
137.3603, 385.8871
137.8424, 385.5170
138.3245, 386.6743
138.8066, 388.3413
139.2887, 389.3441
139.7709, 389.4005
140.2530, 388.8790
140.7351, 388.0677
141.2172, 387.0009
141.6993, 385.9740
142.1814, 385.1822
142.6636, 384.5543
143.1457, 383.8647
143.6278, 383.2736
144.1099, 382.3248
144.5920, 380.6372
145.0741, 378.2221
145.5563, 375.5216
146.0384, 372.7113
146.5205, 369.7116
147.0026, 367.3319
147.4847, 366.5279
147.9668, 365.8723
148.4490, 364.4544
148.9311, 362.1295
149.4132, 359.5673
149.8953, 357.8781
150.3774, 357.7425
150.8595, 357.0699
151.3417, 355.3402
151.8238, 353.3132
152.3059, 351.5259
152.7880, 350.2007
153.2701, 349.2592
153.7522, 348.5338
154.2344, 348.6729
154.7165, 348.2683
155.1986, 346.7625
155.6807, 344.8189
156.1628, 343.2933
156.6449, 342.6373
157.1271, 342.6271
157.6092, 342.3665
158.0913, 341.5682
158.5734, 340.8892
159.0555, 340.7290
159.5376, 340.8667
160.0198, 340.6557
160.5019, 339.5851
160.9840, 337.9845
161.4661, 337.0850
161.9482, 337.2759
162.4303, 337.7147
162.9125, 337.8575
163.3946, 337.7166
163.8767, 337.5786
164.3588, 337.6611
164.8409, 337.8384
165.3230, 337.8925
165.8052, 337.7323
166.2873, 337.4846
166.7694, 337.3852
167.2515, 337.5461
167.7336, 337.4598
168.2157, 336.5868
168.6979, 335.4160
169.1800, 334.4848
169.6621, 333.9835
170.1442, 333.8975
170.6263, 334.2482
171.1084, 335.4034
171.5906, 336.4194
172.0727, 337.0118
172.5548, 337.2988
173.0369, 337.4342
173.5190, 337.4897
174.0011, 337.4777
174.4833, 337.5039
174.9654, 337.4315
175.4475, 337.5524
175.9296, 338.0190
176.4117, 338.7231
176.8938, 339.4984
177.3760, 340.2446
177.8581, 340.9681
178.3402, 341.3936
178.8223, 341.0432
179.3044, 340.8922
179.7865, 341.4653
180.2687, 342.5873
180.7508, 343.6974
181.2329, 344.3266
181.7150, 344.4312
182.1971, 344.3880
182.6792, 343.9743
183.1614, 343.6190
183.6435, 343.3460
184.1256, 343.2443
184.6077, 343.8064
185.0898, 345.7536
185.5719, 349.1717
186.0540, 351.5475
186.5362, 352.1293
187.0183, 352.0444
187.5004, 352.3031
187.9825, 353.0240
188.4646, 353.7841
188.9467, 353.8854
189.4289, 353.5992
189.9110, 354.1751
190.3931, 356.8071
190.8752, 360.1933
191.3573, 362.2067
191.8394, 362.3492
192.3216, 362.0874
192.8037, 362.4984
193.2858, 363.3752
193.7679, 364.2948
194.2500, 365.0823
194.7321, 365.7690
195.2143, 366.4795
195.6964, 367.2863
196.1785, 367.9951
196.6606, 368.4422
197.1427, 368.7261
197.6248, 369.0674
198.1070, 369.7172
198.5891, 370.6119
199.0712, 371.0809
199.5533, 370.6157
200.0354, 370.2660
200.5175, 370.7172
200.9997, 371.6198
201.4818, 372.1741
201.9639, 371.6753
202.4460, 370.0954
202.9281, 368.6534
203.4102, 366.8678
203.8924, 365.7065
204.3745, 366.1180
204.8566, 367.5249
205.3387, 368.4946
205.8208, 367.6559
206.3029, 364.7201
206.7851, 362.6597
207.2672, 362.1434
207.7493, 361.7699
208.2314, 361.1166
208.7135, 360.1367
209.1956, 358.9205
209.6778, 357.5278
210.1599, 355.9309
210.6420, 354.3798
211.1241, 353.0859
211.6062, 351.6529
212.0883, 349.7469
212.5705, 347.4465
213.0526, 345.1370
213.5347, 343.1149
214.0168, 341.4125
214.4989, 340.0948
214.9810, 339.6324
215.4632, 339.1542
215.9453, 337.9162
216.4274, 335.9397
216.9095, 334.0601
217.3916, 333.1488
217.8737, 333.1971
218.3559, 332.4731
218.8380, 330.3310
219.3201, 327.8007
219.8022, 325.7182
220.2843, 324.1475
220.7664, 322.7845
221.2486, 321.3809
221.7307, 319.9849
222.2128, 318.8443
222.6949, 318.2957
223.1770, 317.8608
223.6591, 316.9664
224.1413, 315.5478
224.6234, 314.0107
225.1055, 312.7259
225.5876, 311.5241
226.0697, 310.0582
226.5518, 307.8904
227.0340, 305.5925
227.5161, 304.1110
227.9982, 303.6507
228.4803, 303.2949
228.9624, 302.7594
229.4445, 301.9552
229.9267, 300.6058
230.4088, 298.2591
230.8909, 295.6119
231.3730, 294.1555
231.8551, 294.3854
232.3372, 294.5716
232.8194, 294.0641
233.3015, 293.0926
233.7836, 291.8121
234.2657, 290.1683
234.7478, 288.4414
235.2299, 287.3582
235.7121, 287.3659
236.1942, 287.1090
236.6763, 286.0781
237.1584, 284.6703
237.6405, 283.2692
238.1227, 282.0260
238.6048, 280.9035
239.0869, 279.7819
239.5690, 278.4844
240.0511, 277.5254
240.5332, 277.4727
241.0154, 277.5466
241.4975, 276.8474
241.9796, 274.9799
242.4617, 272.4996
242.9438, 270.8414
243.4259, 270.5994
243.9081, 270.2932
244.3902, 269.7148
244.8723, 269.0224
245.3544, 268.3192
245.8365, 267.6490
246.3186, 267.0822
246.8007, 266.8034
247.2829, 267.2886
247.7650, 267.3541
248.2471, 266.7202
248.7292, 265.7924
249.2113, 264.8816
249.6934, 264.1072
250.1756, 263.4769
250.6577, 263.0061
251.1398, 262.7277
251.6219, 262.5940
252.1040, 262.7321
252.5861, 262.9394
253.0683, 263.1160
253.5504, 263.2122
254.0325, 263.1026
254.5146, 262.5588
254.9967, 261.2414
255.4788, 260.0934
255.9610, 259.1783
256.4431, 258.4004
256.9252, 257.6698
257.4073, 256.9670
257.8894, 256.3328
258.3716, 255.7974
258.8537, 255.2982
259.3358, 255.1799
259.8179, 256.0608
260.3000, 256.9557
260.7821, 256.8170
261.2643, 255.5101
261.7464, 253.9811
262.2285, 253.2455
262.7106, 253.4920
263.1927, 253.8624
263.6748, 254.4917
264.1570, 255.1452
264.6391, 255.7798
265.1212, 256.3561
265.6033, 256.4687
266.0854, 255.5198
266.5675, 253.4617
267.0497, 252.1566
267.5318, 251.9402
268.0139, 252.2891
268.4960, 253.0936
268.9781, 254.2823
269.4602, 255.0883
269.9424, 254.6618
270.4245, 253.2545
270.9066, 252.7565
271.3887, 254.0514
271.8708, 255.6344
272.3529, 256.3176
272.8351, 256.1502
273.3172, 255.8894
273.7993, 255.9026
274.2814, 256.2057
274.7635, 256.6931
275.2456, 257.1927
275.7278, 258.0654
276.2099, 259.8355
276.6920, 262.3799
277.1741, 264.6750
277.6562, 266.1645
278.1383, 267.1198
278.6204, 268.1891
279.1025, 269.4485
279.5847, 270.6783
280.0668, 271.5373
280.5489, 272.1474
281.0310, 273.2947
281.5131, 275.5917
281.9952, 278.2135
282.4774, 279.8276
282.9595, 280.2188
283.4416, 280.8721
283.9237, 282.8415
284.4058, 285.8590
284.8879, 288.8692
285.3701, 291.7132
285.8522, 294.3130
286.3343, 296.4946
286.8164, 298.2823
287.2985, 300.2307
287.7806, 302.6952
288.2628, 305.5655
288.7449, 308.4305
289.2270, 311.1639
289.7091, 314.0444
290.1912, 317.4662
290.6733, 321.2675
291.1555, 324.9547
291.6376, 328.1158
292.1197, 330.9912
292.6018, 334.3427
293.0839, 338.5110
293.5660, 342.3615
294.0482, 344.9414
294.5303, 346.7089
295.0124, 348.5252
295.4945, 351.2720
295.9766, 353.9461
296.4587, 354.7417
296.9409, 353.4794
297.4230, 350.9252
297.9051, 346.9970
298.3872, 342.1293
298.8693, 336.6345
299.3514, 330.4538
299.8336, 323.9270
300.3157, 317.3552
300.7978, 310.6439
301.2799, 304.2256
301.7620, 298.0733
302.2441, 292.3970
302.7263, 287.5099
303.2084, 283.5411
303.6905, 279.8998
304.1726, 275.7484
304.6547, 271.0414
305.1368, 267.1657
305.6190, 264.7419
306.1011, 263.0995
306.5832, 261.9900
307.0653, 261.3521
307.5474, 260.4923
308.0295, 258.6032
308.5117, 255.8054
308.9938, 253.5207
309.4759, 252.1059
309.9580, 251.0855
310.4401, 250.1101
310.9222, 249.2081
311.4044, 248.5108
311.8865, 248.3237
312.3686, 248.4665
312.8507, 248.0783
313.3328, 246.8259
313.8149, 245.5896
314.2971, 244.7800
314.7792, 244.3103
315.2613, 244.0694
315.7434, 244.2161
316.2255, 244.4197
316.7076, 243.8407
317.1898, 242.1358
317.6719, 240.5861
318.1540, 239.4884
318.6361, 238.9350
319.1182, 239.2676
319.6003, 240.8229
320.0825, 242.6348
320.5646, 243.3041
321.0467, 242.6497
321.5288, 242.0041
322.0109, 241.7031
322.4930, 241.6369
322.9752, 241.7770
323.4573, 242.1228
323.9394, 242.5492
324.4215, 243.1314
324.9036, 243.8532
325.3857, 243.9089
325.8679, 242.5118
326.3500, 241.0556
326.8321, 240.5410
327.3142, 240.8928
327.7963, 241.4923
328.2784, 242.0652
328.7606, 242.5795
329.2427, 242.8427
329.7248, 242.6801
330.2069, 242.5500
330.6890, 242.7694
331.1711, 243.2197
331.6533, 243.6773
332.1354, 244.2192
332.6175, 244.6162
333.0996, 244.1409
333.5817, 242.3396
334.0638, 241.1336
334.5460, 242.3092
335.0281, 244.3432
335.5102, 245.4833
335.9923, 245.0656
336.4744, 244.1462
336.9565, 243.9870
337.4387, 244.6372
337.9208, 245.2086
338.4029, 245.3266
338.8850, 245.3000
339.3671, 245.4276
339.8492, 245.7397
340.3314, 246.1073
340.8135, 246.4164
341.2956, 246.6894
341.7777, 247.0512
342.2598, 247.5317
342.7419, 248.1026
343.2241, 248.8583
343.7062, 249.7324
344.1883, 250.3441
344.6704, 250.2848
345.1525, 249.8737
345.6346, 249.8347
346.1168, 250.2867
346.5989, 250.8434
347.0810, 251.2355
347.5631, 251.5373
348.0452, 251.8825
348.5273, 252.3494
349.0095, 252.8339
349.4916, 253.2320
349.9737, 253.5424
350.4558, 253.7623
350.9379, 253.7785
351.4200, 253.7721
351.9022, 253.9548
352.3843, 254.2494
352.8664, 254.9787
353.3485, 256.7340
353.8306, 259.1999
354.3127, 261.1089
354.7949, 262.0562
355.2770, 262.4183
355.7591, 262.4502
356.2412, 262.1404
356.7233, 262.3260
357.2054, 263.5677
357.6876, 265.4072
358.1697, 267.2817
358.6518, 269.1830
359.1339, 270.6372
359.6160, 270.7111
360.0981, 269.8110
360.5803, 270.1380
361.0624, 272.9144
361.5445, 276.2939
362.0266, 278.8850
362.5087, 280.7129
362.9908, 282.1378
363.4730, 283.1942
363.9551, 284.0796
364.4372, 285.4135
364.9193, 287.3873
365.4014, 289.4317
365.8835, 291.1212
366.3657, 292.7243
366.8478, 294.8631
367.3299, 297.7867
367.8120, 301.0933
368.2941, 304.2247
368.7762, 307.1910
369.2584, 309.9511
369.7405, 312.1686
370.2226, 314.3550
370.7047, 317.1753
371.1868, 320.6736
371.6689, 324.0465
372.1511, 326.5294
372.6332, 328.0737
373.1153, 330.0055
373.5974, 332.4939
374.0795, 335.1768
374.5616, 337.9014
375.0438, 340.6846
375.5259, 343.6159
376.0080, 346.7190
376.4901, 350.0132
376.9722, 353.5690
377.4543, 357.9585
377.9365, 361.8583
378.4186, 364.8278
378.9007, 367.3799
379.3828, 369.9411
379.8649, 372.6617
380.3470, 375.6625
380.8292, 379.1882
381.3113, 383.6889
381.7934, 387.3495
382.2755, 389.7350
382.7576, 391.7852
383.2397, 393.7781
383.7219, 395.8818
384.2040, 398.4395
384.6861, 401.8602
385.1682, 406.0142
385.6503, 408.6591
386.1324, 408.2822
386.6146, 407.9897
387.0967, 408.3886
387.5788, 409.1361
388.0609, 409.8894
388.5430, 410.4935
389.0251, 410.7301
389.5073, 410.0935
389.9894, 408.1501
390.4715, 406.1924
390.9536, 404.1946
391.4357, 402.2787
391.9178, 400.8076
392.4000, 399.6256
392.8821, 397.9659
393.3642, 395.0295
393.8463, 390.7770
394.3284, 386.2290
394.8105, 380.7733
395.2927, 375.6958
395.7748, 371.6957
396.2569, 368.3116
396.7390, 364.7592
397.2211, 360.6664
397.7032, 356.1469
398.1854, 351.3717
398.6675, 346.1081
399.1496, 341.2537
399.6317, 337.3569
400.1138, 333.7570
400.5959, 329.9872
401.0780, 325.9750
401.5602, 321.9403
402.0423, 318.1886
402.5244, 314.6836
403.0065, 310.8164
403.4886, 306.0152
403.9707, 301.6294
404.4529, 298.8302
404.9350, 297.1718
405.4171, 295.3893
405.8992, 292.8214
406.3813, 289.8939
406.8634, 287.2541
407.3456, 284.9219
407.8277, 282.6620
408.3098, 280.3697
408.7919, 278.0485
409.2740, 275.6932
409.7561, 273.2348
410.2383, 270.9048
410.7204, 268.8942
411.2025, 267.1140
411.6846, 265.3185
412.1667, 263.4755
412.6488, 261.4880
413.1310, 259.0573
413.6131, 256.1799
414.0952, 253.7694
414.5773, 251.9920
415.0594, 250.7398
415.5415, 250.2728
416.0237, 250.4487
416.5058, 250.1812
416.9879, 248.5830
417.4700, 246.0065
417.9521, 244.3931
418.4342, 244.6252
418.9164, 244.5882
419.3985, 243.4413
419.8806, 241.7531
420.3627, 240.3894
420.8448, 239.6218
421.3269, 239.0855
421.8091, 238.2240
422.2912, 236.8449
422.7733, 235.7018
423.2554, 235.0101
423.7375, 234.3505
424.2196, 233.2546
424.7018, 231.9323
425.1839, 231.1315
425.6660, 231.4729
426.1481, 232.7203
426.6302, 233.2315
427.1123, 231.4478
427.5945, 230.8792
428.0766, 233.5580
428.5587, 236.8223
429.0408, 237.7100
429.5229, 235.4359
430.0050, 231.9380
430.4872, 229.7924
430.9693, 229.1386
431.4514, 229.2816
431.9335, 231.4030
432.4156, 233.2835
432.8977, 233.9015
433.3799, 233.5379
433.8620, 233.0265
434.3441, 232.7994
434.8262, 232.8471
435.3083, 233.1411
435.7904, 233.6662
436.2726, 234.4820
436.7547, 235.8618
437.2368, 237.4157
437.7189, 238.7702
438.2010, 239.8411
438.6831, 240.9359
439.1653, 242.2732
439.6474, 243.8441
440.1295, 245.6400
440.6116, 247.6915
441.0937, 249.9029
441.5758, 252.0080
442.0580, 254.1460
442.5401, 256.8829
443.0222, 260.7936
443.5043, 265.0722
443.9864, 268.7271
444.4685, 271.8648
444.9507, 275.6594
445.4328, 280.8144
445.9149, 286.8169
446.3970, 292.3709
446.8791, 297.0674
447.3612, 302.4777
447.8434, 309.3336
448.3255, 316.9984
448.8076, 324.6571
449.2897, 332.2152
449.7718, 340.0571
450.2539, 348.4687
450.7361, 357.4835
451.2182, 367.5666
451.7003, 378.9184
452.1824, 390.9268
452.6645, 403.3116
453.1466, 416.2705
453.6288, 430.0179
454.1109, 444.6861
454.5930, 460.2201
455.0751, 476.6228
455.5572, 493.6972
456.0393, 512.1606
456.5215, 532.5082
457.0036, 553.5544
457.4857, 574.7596
457.9678, 596.0483
458.4499, 617.7618
458.9320, 640.1592
459.4142, 663.1823
459.8963, 686.7503
460.3784, 710.9552
460.8605, 735.4816
461.3426, 760.1429
461.8247, 785.3080
462.3069, 811.4167
462.7890, 838.5802
463.2711, 866.7418
463.7532, 895.8647
464.2353, 926.0486
464.7174, 956.1529
465.1996, 985.4456
465.6817, 1015.670
466.1638, 1048.629
466.6459, 1083.431
467.1280, 1117.977
467.6101, 1151.194
468.0923, 1184.055
468.5744, 1217.233
469.0565, 1250.947
469.5386, 1284.951
470.0207, 1319.565
470.5028, 1353.930
470.9850, 1386.567
471.4671, 1418.057
471.9492, 1446.472
472.4313, 1471.717
472.9134, 1493.565
473.3955, 1512.280
473.8777, 1527.671
474.3598, 1538.625
474.8419, 1544.381
475.3240, 1544.885
475.8061, 1539.124
476.2882, 1527.533
476.7704, 1510.153
477.2525, 1486.570
477.7346, 1457.333
478.2167, 1422.373
478.6988, 1381.852
479.1809, 1338.130
479.6631, 1293.290
480.1452, 1247.266
480.6273, 1201.834
481.1094, 1157.781
481.5915, 1113.715
482.0736, 1068.240
482.5558, 1022.618
483.0379, 978.8220
483.5200, 937.5751
484.0021, 898.6233
484.4842, 861.4401
484.9663, 825.8878
485.4485, 792.0198
485.9306, 759.6215
486.4127, 729.2900
486.8948, 701.8317
487.3769, 676.9045
487.8590, 653.1726
488.3412, 629.5512
488.8233, 606.7858
489.3054, 586.7214
489.7875, 569.6788
490.2696, 553.3610
490.7517, 536.6777
491.2339, 520.1563
491.7160, 504.4149
492.1981, 489.4205
492.6802, 475.5421
493.1623, 463.6325
493.6444, 452.8040
494.1266, 441.6290
494.6087, 429.8379
495.0908, 418.4432
495.5729, 408.3247
496.0550, 399.4995
496.5371, 390.6374
497.0193, 381.5838
497.5014, 372.6992
497.9835, 363.7629
498.4656, 355.1442
498.9477, 347.4287
499.4298, 340.7769
499.9120, 334.6673
500.3941, 328.4044
500.8762, 321.8564
501.3583, 315.5070
501.8404, 309.4324
502.3225, 303.4964
502.8047, 297.6071
503.2868, 291.8339
503.7689, 286.3875
504.2510, 281.3209
504.7331, 276.6712
505.2152, 272.5369
505.6974, 268.9530
506.1795, 265.6383
506.6616, 263.0385
507.1437, 260.2137
507.6258, 256.0353
508.1079, 250.8145
508.5901, 246.4418
509.0722, 244.2692
509.5543, 243.2512
510.0364, 242.0416
510.5185, 240.6265
511.0006, 238.7384
511.4828, 235.9773
511.9649, 232.9221
512.4470, 231.0105
512.9291, 230.7820
513.4112, 229.6819
513.8933, 226.2222
514.3754, 222.0893
514.8575, 219.0958
515.3397, 217.3264
515.8218, 215.8025
516.3039, 213.7678
516.7860, 211.3387
517.2681, 209.3919
517.7502, 208.5553
518.2324, 207.4256
518.7145, 205.5225
519.1966, 203.4714
519.6787, 201.8764
520.1608, 200.8224
520.6429, 199.9772
521.1251, 199.0688
521.6072, 198.0863
522.0893, 196.8129
522.5714, 194.8691
523.0535, 193.2441
523.5356, 192.5138
524.0178, 192.1320
524.4999, 191.4477
524.9820, 190.2753
525.4641, 189.0085
525.9462, 187.9807
526.4283, 187.1619
526.9105, 186.3936
527.3926, 185.6692
527.8747, 184.9702
528.3568, 184.2915
528.8389, 183.6277
529.3210, 182.9484
529.8032, 182.2164
530.2853, 181.5114
530.7674, 180.8876
531.2495, 180.3227
531.7316, 179.7649
532.2137, 179.1963
532.6959, 178.6759
533.1780, 178.3226
533.6601, 178.2268
534.1422, 177.7047
534.6243, 176.2661
535.1064, 174.9997
535.5886, 174.3907
536.0707, 174.2001
536.5528, 174.1416
537.0349, 174.0875
537.5170, 173.8286
537.9991, 172.8591
538.4813, 170.9112
538.9634, 169.6695
539.4455, 169.9668
539.9276, 170.1514
540.4097, 169.1502
540.8918, 167.5334
541.3740, 166.5331
541.8561, 166.8455
542.3382, 167.5029
542.8203, 167.3877
543.3024, 166.5458
543.7845, 165.3289
544.2667, 163.6178
544.7488, 161.9608
545.2309, 161.0374
545.7130, 160.7683
546.1951, 160.5495
546.6772, 160.4263
547.1594, 160.2049
547.6415, 159.7031
548.1236, 159.0027
548.6057, 158.2551
549.0878, 157.5152
549.5699, 156.9041
550.0521, 156.6859
550.5342, 157.1995
551.0163, 157.0495
551.4984, 155.4742
551.9805, 154.1189
552.4626, 153.7830
552.9448, 154.1808
553.4269, 154.8017
553.9090, 155.4395
554.3911, 155.8180
554.8732, 155.2738
555.3553, 153.6069
555.8375, 152.3806
556.3196, 151.9774
556.8017, 151.8644
557.2838, 151.6877
557.7659, 151.4988
558.2480, 151.4660
558.7302, 151.7798
559.2123, 152.1178
559.6944, 152.1882
560.1765, 152.0058
560.6586, 151.5951
561.1407, 150.9212
561.6229, 150.1510
562.1050, 149.3933
562.5871, 148.6022
563.0692, 148.3980
563.5513, 149.5917
564.0334, 150.5663
564.5156, 150.3402
564.9977, 149.3403
565.4798, 148.3134
565.9619, 147.5688
566.4440, 147.0963
566.9261, 146.9108
567.4083, 147.0800
567.8904, 147.2609
568.3725, 147.5667
568.8546, 147.7601
569.3367, 147.5164
569.8188, 147.1673
570.3010, 147.2879
570.7831, 148.1387
571.2652, 149.2625
571.7473, 150.3521
572.2294, 151.3348
572.7115, 151.5422
573.1937, 150.6386
573.6758, 149.5157
574.1579, 148.9063
574.6400, 148.6962
575.1221, 148.4326
575.6042, 147.9272
576.0864, 147.5269
576.5685, 147.4881
577.0506, 147.6461
577.5327, 147.7314
578.0148, 147.6771
578.4969, 147.5672
578.9791, 147.4758
579.4612, 147.3988
579.9433, 147.4568
580.4254, 147.8914
580.9075, 148.1770
581.3896, 148.1604
581.8718, 147.9777
582.3539, 147.7778
582.8360, 147.5943
583.3181, 147.3686
583.8002, 147.0175
584.2823, 146.5592
584.7645, 146.1220
585.2466, 145.6760
585.7287, 145.3376
586.2108, 145.3175
586.6929, 145.3652
587.1750, 145.0128
587.6572, 144.0501
588.1393, 143.4683
588.6214, 144.1296
589.1035, 145.2217
589.5856, 145.6476
590.0677, 145.3421
590.5499, 144.8297
591.0320, 144.4208
591.5141, 144.1032
591.9962, 143.8372
592.4783, 143.6301
592.9604, 143.4736
593.4426, 143.3903
593.9247, 143.3397
594.4068, 143.3598
594.8889, 143.3949
595.3710, 143.2736
595.8531, 142.8392
596.3353, 142.2780
596.8174, 142.0266
597.2995, 142.1183
597.7816, 142.3847
598.2637, 143.1581
598.7458, 143.6803
599.2280, 143.1204
599.7101, 141.6884
600.1922, 140.5289
600.6743, 139.9926
601.1564, 139.8758
601.6385, 140.2005
602.1207, 140.8144
602.6028, 141.2680
603.0849, 141.4053
603.5670, 141.3941
604.0491, 141.4543
604.5313, 141.6196
605.0134, 141.6383
605.4955, 141.3110
605.9776, 141.0857
606.4597, 141.2970
606.9418, 141.6091
607.4240, 141.5306
607.9061, 140.9453
608.3882, 140.2384
608.8703, 139.7715
609.3524, 139.5488
609.8345, 139.7171
610.3167, 140.5244
610.7988, 141.1098
611.2809, 140.7658
611.7630, 140.0751
612.2451, 139.8522
612.7272, 140.2461
613.2094, 140.7112
613.6915, 141.1228
614.1736, 141.4013
614.6557, 141.3604
615.1378, 141.0411
615.6199, 140.7769
616.1021, 140.7874
616.5842, 140.9446
617.0663, 140.8711
617.5484, 140.2289
618.0305, 139.9337
618.5126, 140.2119
618.9948, 140.5914
619.4769, 140.9688
619.9590, 141.2164
620.4411, 141.0571
620.9232, 140.2738
621.4053, 139.3268
621.8875, 139.0289
622.3696, 139.3669
622.8517, 139.4539
623.3338, 138.9670
623.8159, 138.5492
624.2980, 139.0506
624.7802, 140.0881
625.2623, 140.3477
625.7444, 138.9434
626.2265, 137.6894
626.7086, 137.5947
627.1907, 138.0818
627.6729, 138.4384
628.1550, 138.4889
628.6371, 138.1982
629.1192, 137.4763
629.6013, 136.4069
630.0834, 135.7168
630.5656, 135.6579
631.0477, 135.5628
631.5298, 135.2178
632.0119, 134.8966
632.4940, 134.8472
632.9761, 135.0379
633.4583, 135.2165
633.9404, 135.2814
634.4225, 135.2081
634.9046, 134.9053
635.3867, 134.3900
635.8688, 133.8668
636.3510, 133.3532
636.8331, 132.9732
637.3152, 132.9512
637.7973, 133.3416
638.2794, 133.4368
638.7615, 132.8686
639.2437, 132.4052
639.7258, 132.3294
640.2079, 132.5663
640.6900, 133.1717
641.1721, 134.0738
641.6542, 134.7410
642.1364, 134.4998
642.6185, 133.4417
643.1006, 132.7857
643.5827, 132.6641
644.0648, 132.6567
644.5469, 132.7095
645.0291, 132.7550
645.5112, 132.7226
645.9933, 132.6083
646.4754, 132.4861
646.9575, 132.2755
647.4396, 132.1552
647.9218, 132.4550
648.4039, 133.0543
648.8860, 133.4208
649.3681, 133.3295
649.8502, 133.0094
650.3323, 132.8007
650.8145, 132.7305
651.2966, 132.6495
651.7787, 132.3260
652.2608, 132.2575
652.7429, 132.8836
653.2250, 133.7193
653.7072, 134.0885
654.1893, 133.8414
654.6714, 133.5237
655.1535, 133.6886
655.6356, 134.1934
656.1177, 134.5547
656.5999, 134.7451
657.0820, 134.9119
657.5641, 135.1385
658.0462, 135.3668
658.5283, 135.4510
659.0104, 135.3356
659.4926, 135.3768
659.9747, 135.9014
660.4568, 136.3341
660.9389, 136.1655
661.4210, 135.6498
661.9031, 135.3645
662.3853, 135.5290
662.8674, 135.8285
663.3495, 135.7956
663.8316, 135.4008
664.3137, 135.1088
664.7958, 134.8663
665.2780, 134.8241
665.7601, 135.2914
666.2422, 135.8786
666.7243, 136.0213
667.2064, 135.5799
667.6885, 135.4352
668.1707, 136.5291
668.6528, 137.7826
669.1349, 137.8102
669.6170, 136.7906
670.0991, 135.7626
670.5812, 135.2030
671.0634, 134.9531
671.5455, 134.7698
672.0276, 134.7213
672.5097, 134.4840
672.9918, 133.8733
673.4739, 133.2739
673.9561, 132.8032
674.4382, 132.4123
674.9203, 132.0607
675.4024, 131.7388
675.8845, 131.3397
676.3666, 130.6827
676.8488, 129.9155
677.3309, 129.4198
677.8130, 129.2061
678.2951, 128.8678
678.7772, 128.1785
679.2593, 127.3140
679.7415, 126.5714
680.2236, 125.9496
680.7057, 125.4804
681.1878, 125.4898
681.6699, 125.2966
682.1520, 124.2516
682.6342, 122.9290
683.1163, 122.3297
683.5984, 122.7059
684.0805, 123.1875
684.5626, 122.6877
685.0447, 121.4370
685.5269, 120.7783
686.0090, 120.8566
686.4911, 120.7874
686.9732, 120.1183
687.4553, 119.1615
687.9374, 118.3494
688.4196, 117.6492
688.9017, 117.2766
689.3838, 117.6923
689.8659, 118.0222
690.3480, 117.5791
690.8301, 116.7326
691.3123, 116.1537
691.7944, 116.0531
692.2765, 116.1423
692.7586, 116.0833
693.2407, 115.8949
693.7228, 115.8890
694.2050, 116.1991
694.6871, 116.3250
695.1692, 115.9757
695.6513, 115.4401
696.1334, 114.9278
696.6155, 114.4486
697.0977, 114.3128
697.5798, 115.2931
698.0619, 116.0055
698.5440, 114.9070
699.0261, 112.8842
699.5082, 111.8577
699.9904, 112.3416
700.4725, 113.3231
700.9546, 113.7264
701.4367, 113.5920
701.9188, 113.5561
702.4009, 113.7538
702.8831, 113.7800
703.3652, 113.4071
703.8473, 112.9186
704.3294, 112.4490
704.8115, 112.0321
705.2936, 111.7821
705.7758, 111.7585
706.2579, 111.9054
706.7400, 112.3958
707.2221, 112.9850
707.7042, 112.9962
708.1863, 112.3087
708.6685, 111.6621
709.1505, 111.7715
709.6326, 112.5081
710.1147, 112.9107
710.5969, 112.9231
711.0790, 112.6908
711.5611, 111.8308
712.0432, 111.0945
712.5253, 111.1625
713.0074, 111.7801
713.4896, 112.0910
713.9717, 111.6615
714.4538, 111.0166
714.9359, 110.5980
715.4180, 110.3199
715.9001, 109.9099
716.3823, 109.3449
716.8644, 109.0534
717.3465, 109.4158
717.8286, 110.1941
718.3107, 110.4987
718.7928, 110.0345
719.2750, 109.6475
719.7571, 109.2906
720.2392, 109.0825
720.7213, 109.1912
721.2034, 109.4695
721.6855, 109.6516
722.1677, 109.6515
722.6498, 109.5376
723.1319, 109.3029
723.6140, 109.0144
724.0961, 108.8174
724.5782, 108.7178
725.0604, 108.6530
725.5425, 108.6070
726.0246, 108.5206
726.5067, 108.2610
726.9888, 107.7546
727.4709, 107.2982
727.9531, 106.9436
728.4352, 106.5809
728.9173, 106.0250
729.3994, 105.5123
729.8815, 105.3984
730.3636, 105.7484
730.8458, 106.1843
731.3279, 106.6816
731.8100, 106.9763
732.2921, 106.3259
732.7742, 104.9331
733.2563, 104.1929
733.7385, 104.6710
734.2206, 105.5854
734.7027, 105.9668
735.1848, 105.7863
735.6669, 105.5034
736.1490, 104.8973
736.6312, 104.4763
737.1133, 104.4480
737.5954, 104.5405
738.0775, 104.5437
738.5596, 104.4371
739.0417, 104.2704
739.5239, 103.9790
740.0060, 103.7493
740.4881, 103.9313
740.9702, 104.3529
741.4523, 104.4422
741.9344, 104.0818
742.4166, 103.5982
742.8987, 103.2257
743.3808, 102.9849
743.8629, 102.9910
744.3450, 103.3835
744.8271, 103.7714
745.3093, 104.3228
745.7914, 104.6786
746.2735, 104.5309
746.7556, 104.0655
747.2377, 103.6725
747.7198, 103.4894
748.2020, 103.3297
748.6841, 102.8834
749.1662, 102.4363
749.6483, 102.6548
750.1304, 103.4627
750.6125, 103.9899
751.0947, 103.7624
751.5768, 103.2041
752.0589, 103.1124
752.5410, 103.6572
753.0231, 103.8521
753.5052, 103.2981
753.9874, 102.9301
754.4695, 103.2530
754.9516, 103.7579
755.4337, 103.8348
755.9158, 103.4361
756.3979, 103.1511
756.8801, 103.1981
757.3622, 103.5320
757.8443, 104.3764
758.3264, 105.4339
758.8085, 105.9505
759.2906, 105.7508
759.7728, 105.3151
760.2549, 105.0902
760.7370, 105.0456
761.2191, 105.0070
761.7012, 105.0008
762.1833, 104.9226
762.6655, 104.5912
763.1476, 104.3578
763.6297, 104.4946
764.1118, 104.9072
764.5939, 105.3465
765.0760, 105.8353
765.5582, 106.1941
766.0403, 106.2729
766.5224, 106.2183
767.0045, 106.1994
767.4866, 106.2075
767.9688, 106.1148
768.4509, 105.8515
768.9330, 105.5600
769.4151, 105.5359
769.8972, 105.7972
770.3793, 105.7644
770.8615, 105.2639
771.3436, 104.9091
771.8257, 104.9674
772.3078, 105.3227
772.7899, 105.9554
773.2720, 106.9325
773.7542, 107.3300
774.2363, 106.4601
774.7184, 105.5808
775.2005, 105.3357
775.6826, 105.4580
776.1647, 105.6692
776.6469, 105.8518
777.1290, 105.8078
777.6111, 105.2316
778.0932, 104.5473
778.5753, 105.0128
779.0574, 106.5615
779.5396, 107.1527
780.0217, 106.1668
780.5038, 105.0220
780.9859, 104.8956
781.4680, 105.4903
781.9501, 105.4827
782.4323, 104.0979
782.9144, 103.4085
783.3965, 104.0679
783.8786, 104.8837
784.3607, 105.3362
784.8428, 105.4138
785.3250, 105.1006
785.8071, 104.3887
786.2892, 103.7305
786.7713, 103.6390
787.2534, 103.8069
787.7355, 103.5904
788.2177, 103.0411
788.6998, 102.7161
789.1819, 102.8484
789.6640, 102.9715
790.1461, 102.4292
790.6282, 101.2275
791.1104, 100.7616
791.5925, 101.6390
792.0746, 102.2311
792.5567, 102.1702
793.0388, 101.8198
793.5209, 101.2853
794.0031, 100.6635
794.4852, 100.2103
794.9673, 99.99265
795.4494, 99.97054
795.9315, 100.2453
796.4136, 100.6275
796.8958, 100.9547
797.3779, 101.1575
797.8600, 101.0484
798.3421, 100.5200
798.8242, 99.86062
799.3063, 99.55000
799.7885, 99.59751
800.2706, 99.70592
800.7527, 99.94644
801.2348, 100.0135
801.7169, 99.68881
802.1990, 99.21748
802.6812, 98.99877
803.1633, 99.04057
803.6454, 98.80217
804.1275, 97.91958
804.6096, 97.13647
805.0917, 96.66668
805.5739, 96.47688
806.0560, 96.63823
806.5381, 97.05305
807.0202, 97.39758
807.5023, 97.45191
807.9844, 97.44739
808.4666, 97.85744
808.9487, 98.49850
809.4308, 98.52348
809.9129, 97.82348
810.3950, 97.24947
810.8771, 97.32996
811.3593, 97.73452
811.8414, 97.80235
812.3235, 97.48680
812.8056, 96.99583
813.2877, 95.74365
813.7698, 95.05874
814.2520, 95.75178
814.7341, 96.86797
815.2162, 97.44068
815.6983, 97.41820
816.1804, 97.36253
816.6625, 97.60022
817.1447, 97.78523
817.6268, 97.67516
818.1089, 97.33901
818.5910, 96.82265
819.0731, 96.17686
819.5552, 95.52082
820.0374, 94.90723
820.5195, 94.44884
821.0016, 94.48628
821.4837, 95.04109
821.9658, 95.25229
822.4479, 94.93908
822.9301, 94.69136
823.4122, 94.87203
823.8943, 95.23586
824.3764, 95.35121
824.8585, 95.17372
825.3406, 94.97864
825.8228, 94.63691
826.3049, 94.44619
826.7870, 94.63279
827.2691, 94.93749
827.7512, 95.11244
828.2333, 95.12884
828.7155, 95.07004
829.1976, 94.98950
829.6797, 94.83674
830.1618, 94.46328
830.6439, 93.99354
831.1260, 93.76440
831.6082, 93.79139
832.0903, 93.76236
832.5724, 93.46487
833.0545, 93.19774
833.5366, 93.66225
834.0187, 95.05626
834.5009, 95.79417
834.9830, 95.73543
835.4651, 95.28276
835.9472, 94.16032
836.4293, 93.03965
836.9114, 92.77235
837.3936, 93.31022
837.8757, 93.60876
838.3578, 93.13026
838.8399, 92.85593
839.3220, 93.38156
839.8041, 94.11951
840.2863, 94.53575
840.7684, 94.60421
841.2505, 94.46547
841.7326, 94.15797
842.2147, 93.88350
842.6968, 93.97993
843.1790, 94.28479
843.6611, 94.28161
844.1432, 93.96674
844.6253, 93.78428
845.1074, 93.95421
845.5895, 94.11185
846.0717, 93.72657
846.5538, 92.79675
847.0359, 92.11057
847.5180, 91.64076
848.0001, 91.48663
848.4822, 92.15426
848.9644, 92.68510
849.4465, 92.11684
849.9286, 90.88435
850.4107, 90.35446
850.8928, 91.11954
851.3749, 91.74656
851.8571, 91.65810
852.3392, 91.29694
852.8213, 90.90550
853.3034, 90.56187
853.7855, 90.33968
854.2676, 90.26233
854.7498, 90.30833
855.2319, 90.62582
855.7140, 90.96592
856.1961, 90.54379
856.6782, 89.51623
857.1603, 89.10618
857.6425, 89.65670
858.1246, 90.19376
858.6067, 89.83561
859.0888, 88.91454
859.5709, 88.74300
860.0530, 89.77270
860.5352, 90.35613
861.0173, 90.26309
861.4994, 89.93974
861.9815, 89.32832
862.4636, 88.73725
862.9457, 88.68603
863.4279, 89.25454
863.9100, 89.54655
864.3921, 88.97060
864.8742, 88.48127
865.3563, 88.78321
865.8384, 89.32968
866.3206, 89.35720
866.8027, 88.91656
867.2848, 88.72813
867.7669, 89.29903
868.2490, 89.90965
868.7311, 89.47335
869.2133, 88.34916
869.6954, 87.43855
870.1775, 86.84348
870.6596, 86.89793
871.1417, 87.84347
871.6238, 88.73977
872.1060, 88.10986
872.5881, 85.97285
873.0702, 85.02926
873.5523, 85.80412
874.0344, 86.43740
874.5165, 86.51174
874.9987, 86.34315
875.4808, 86.06596
875.9629, 85.74789
876.4450, 85.62027
876.9271, 85.87936
877.4092, 85.93398
877.8914, 85.49940
878.3735, 84.99960
878.8556, 84.57127
879.3377, 84.30257
879.8198, 84.37451
880.3019, 84.78210
880.7841, 85.13355
881.2662, 85.18674
881.7483, 85.02111
882.2304, 84.57600
882.7125, 84.02274
883.1946, 83.81876
883.6768, 84.00040
884.1589, 84.22527
884.6410, 84.27418
885.1231, 84.23304
885.6052, 84.29836
886.0873, 84.47708
886.5695, 84.48866
887.0516, 84.30264
887.5337, 84.03773
888.0158, 83.69382
888.4979, 83.35973
888.9800, 83.10098
889.4622, 82.91858
889.9443, 83.03242
890.4264, 83.97166
890.9085, 84.44197
891.3906, 84.07993
891.8727, 83.45438
892.3549, 82.63279
892.8370, 81.88758
893.3191, 81.81997
893.8012, 82.67111
894.2833, 83.22998
894.7654, 82.50249
895.2476, 81.62348
895.7297, 81.72315
896.2118, 82.27283
896.6939, 82.20757
897.1760, 81.44038
897.6581, 80.85722
898.1403, 81.15689
898.6224, 81.71278
899.1045, 81.29272
899.5866, 80.20109
900.0687, 79.94111
900.5508, 80.62540
901.0330, 81.00332
901.5151, 80.43191
901.9972, 79.56235
902.4793, 79.35799
902.9614, 79.81969
903.4435, 80.32278
903.9257, 81.02195
904.4078, 81.34669
904.8899, 80.99545
905.3720, 80.47152
905.8541, 80.04148
906.3362, 79.75182
906.8184, 79.77406
907.3005, 80.29079
907.7826, 80.67641
908.2647, 80.90480
908.7468, 80.93005
909.2289, 80.60117
909.7111, 80.13121
910.1932, 79.69254
910.6753, 79.35635
911.1574, 79.29976
911.6395, 79.81829
912.1216, 80.33340
912.6038, 80.24411
913.0859, 79.93617
913.5680, 79.98428
914.0501, 80.35358
914.5322, 80.70761
915.0143, 80.89685
915.4965, 80.96272
915.9786, 80.89993
916.4607, 80.76454
916.9428, 80.79866
917.4249, 80.98349
917.9070, 81.04556
918.3892, 80.91353
918.8713, 80.70321
919.3534, 80.49371
919.8355, 80.29865
920.3176, 80.14248
920.7997, 79.97556
921.2819, 80.07677
921.7640, 80.73900
922.2461, 81.08846
922.7282, 80.49473
923.2103, 79.65652
923.6924, 79.52755
924.1746, 80.05665
924.6567, 80.28503
925.1388, 79.85029
925.6209, 79.56542
926.1030, 79.80563
926.5851, 80.01784
927.0673, 79.66201
927.5494, 79.06194
928.0315, 78.85070
928.5136, 79.18715
928.9957, 79.64500
929.4778, 80.12769
929.9600, 80.51579
930.4421, 80.76790
930.9242, 80.83749
931.4063, 80.56742
931.8884, 80.02642
932.3705, 79.52026
932.8527, 79.20442
933.3348, 79.09161
933.8169, 79.30789
934.2990, 79.71412
934.7811, 79.96611
935.2632, 80.04187
935.7454, 79.88271
936.2275, 79.46827
936.7096, 79.00096
937.1917, 78.66350
937.6738, 78.45594
938.1559, 78.34914
938.6381, 78.31876
939.1202, 78.66158
939.6023, 79.55579
940.0844, 80.32977
940.5665, 80.64366
941.0486, 80.64078
941.5308, 80.50376
942.0129, 80.20750
942.4950, 80.04984
942.9771, 80.19489
943.4592, 80.22861
943.9413, 80.07319
944.4235, 79.81409
944.9056, 79.40189
945.3877, 78.94751
945.8698, 78.67716
946.3519, 78.62341
946.8340, 78.73782
947.3162, 79.19508
947.7983, 79.60342
948.2804, 79.92935
948.7625, 79.98056
949.2446, 79.24911
949.7267, 78.00102
950.2089, 77.36547
950.6910, 78.00338
951.1731, 78.82315
951.6552, 78.97171
952.1373, 78.81535
952.6194, 78.69925
953.1016, 78.68832
953.5837, 78.97189
954.0658, 79.52657
954.5479, 79.79695
955.0300, 79.21107
955.5121, 78.29927
955.9943, 78.02930
956.4763, 78.28793
956.9584, 78.76437
957.4406, 79.38171
957.9227, 79.59507
958.4048, 79.12711
958.8869, 78.49242
959.3690, 78.38421
959.8511, 78.73673
960.3333, 79.05422
960.8154, 79.35167
961.2975, 79.44357
961.7796, 79.18977
962.2617, 79.11795
962.7438, 79.71510
963.2260, 80.53806
963.7081, 80.56863
964.1902, 79.55748
964.6723, 79.10105
965.1544, 79.61262
965.6365, 79.99391
966.1187, 79.93017
966.6008, 79.71073
967.0829, 79.55283
967.5650, 79.42030
968.0471, 79.17058
968.5292, 78.63585
969.0114, 78.40833
969.4935, 78.99577
969.9756, 79.40151
970.4577, 78.77803
970.9398, 78.02854
971.4219, 78.36447
971.9041, 79.60218
972.3862, 80.34554
972.8683, 79.85450
973.3504, 79.39303
973.8325, 79.62703
974.3146, 80.15422
974.7968, 80.97312
975.2789, 81.67690
975.7610, 81.36732
976.2431, 80.04845
976.7252, 79.05805
977.2073, 79.42490
977.6895, 80.21470
978.1716, 80.38171
978.6537, 80.28347
979.1358, 80.64011
979.6179, 81.33986
980.1000, 81.67191
980.5822, 81.40130
981.0643, 81.12189
981.5464, 81.48417
982.0285, 82.20414
982.5106, 82.62761
982.9927, 82.80541
983.4749, 83.06113
983.9570, 83.41367
984.4391, 83.31741
984.9212, 82.43034
985.4033, 81.55080
985.8854, 81.97775
986.3676, 83.50259
986.8497, 84.24114
987.3318, 84.12473
987.8139, 83.98820
988.2960, 83.95422
988.7781, 84.13245
989.2603, 84.70032
989.7424, 85.33407
990.2245, 85.29972
990.7066, 84.46157
991.1887, 84.10954
991.6708, 84.53868
992.1530, 84.70140
992.6351, 84.12083
993.1172, 83.55538
993.5993, 83.62630
994.0814, 84.15100
994.5635, 84.57216
995.0457, 84.83961
995.5278, 85.14259
996.0099, 85.56197
996.4920, 85.91206
996.9741, 86.17571
997.4562, 86.32621
997.9384, 86.21781
998.4205, 85.97208
998.9026, 86.04260
999.3847, 86.70275
999.8668, 87.11149
1000.349, 86.97178
1000.831, 86.70402
1001.313, 86.35940
1001.795, 86.09724
1002.277, 86.05441
1002.760, 86.24478
1003.242, 86.70152
1003.724, 87.68665
1004.206, 88.29123
1004.688, 87.62777
1005.170, 86.89456
1005.652, 87.15268
1006.134, 87.88736
1006.616, 88.25874
1007.099, 88.17381
1007.581, 88.07844
1008.063, 88.22533
1008.545, 88.34892
1009.027, 88.21929
1009.509, 87.96276
1009.991, 87.60236
1010.473, 87.27263
1010.956, 87.25963
1011.438, 87.60117
1011.920, 88.07877
1012.402, 88.62804
1012.884, 89.04014
1013.366, 88.92123
1013.848, 88.54485
1014.330, 88.43154
1014.812, 88.55589
1015.295, 88.71354
1015.777, 88.82334
1016.259, 88.79021
1016.741, 88.46532
1017.223, 88.09984
1017.705, 88.23779
1018.187, 88.72701
1018.669, 89.01303
1019.151, 89.08192
1019.634, 89.26781
1020.116, 89.68967
1020.598, 90.00112
1021.080, 89.81332
1021.562, 89.30686
1022.044, 89.04768
1022.526, 88.99010
1023.008, 88.44864
1023.491, 87.35361
1023.973, 87.07556
1024.455, 88.25363
1024.937, 89.87312
1025.419, 90.85293
1025.901, 91.20087
1026.383, 90.74611
1026.865, 89.38889
1027.348, 88.84164
1027.830, 89.39214
1028.312, 90.01695
1028.794, 90.27107
1029.276, 90.34669
1029.758, 90.47820
1030.240, 90.65205
1030.722, 90.78971
1031.204, 90.95705
1031.687, 90.69727
1032.169, 89.68084
1032.651, 89.11593
1033.133, 89.75020
1033.615, 90.78950
1034.097, 91.18698
1034.579, 90.99252
1035.061, 90.96122
1035.543, 91.13499
1036.026, 91.38295
1036.508, 91.83289
1036.990, 92.09342
1037.472, 91.91192
1037.954, 91.50945
1038.436, 91.06615
1038.918, 90.60058
1039.400, 90.71408
1039.883, 92.09113
1040.365, 92.74840
1040.847, 91.91846
1041.329, 91.21830
1041.811, 91.44523
1042.293, 92.12615
1042.775, 92.78224
1043.257, 93.40305
1043.740, 93.62313
1044.222, 93.01495
1044.704, 92.66870
1045.186, 92.66528
1045.668, 92.90285
1046.150, 93.61101
1046.632, 94.36134
1047.114, 94.66264
1047.596, 94.51087
1048.078, 94.09770
1048.561, 92.86027
1049.043, 92.24714
1049.525, 92.89726
1050.007, 93.66809
1050.489, 94.13881
1050.971, 94.34875
1051.453, 94.27329
1051.935, 93.96569
1052.418, 93.79613
1052.900, 93.74586
1053.382, 93.97111
1053.864, 94.92507
1054.346, 95.68221
1054.828, 95.55350
1055.310, 95.10184
1055.792, 95.01199
1056.275, 95.27949
1056.757, 95.49409
1057.239, 95.59007
1057.721, 95.57598
1058.203, 95.22691
1058.685, 95.02656
1059.167, 95.31239
1059.649, 95.84583
1060.131, 96.48680
1060.614, 97.11744
1061.096, 97.33377
1061.578, 96.74510
1062.060, 96.49397
1062.542, 97.31432
1063.024, 98.18355
1063.506, 98.42384
1063.988, 98.46554
1064.470, 99.05568
1064.953, 99.95321
1065.435, 99.94905
1065.917, 98.30509
1066.399, 97.24593
1066.881, 98.10043
1067.363, 99.26749
1067.845, 99.93506
1068.327, 100.3332
1068.810, 100.7207
1069.292, 101.1137
1069.774, 101.4011
1070.256, 101.4943
1070.738, 101.8173
1071.220, 102.8094
1071.702, 103.7783
1072.184, 104.3825
1072.667, 104.7088
1073.149, 104.5870
1073.631, 104.3211
1074.113, 104.6739
1074.595, 105.8899
1075.077, 107.1326
1075.559, 108.2496
1076.041, 109.0103
1076.523, 109.0763
1077.005, 108.8991
1077.488, 108.7042
1077.970, 108.6870
1078.452, 109.2853
1078.934, 110.5985
1079.416, 111.6315
1079.898, 111.7585
1080.380, 111.7348
1080.862, 111.6676
1081.344, 111.8856
1081.827, 113.0055
1082.309, 114.5028
1082.791, 115.3068
1083.273, 115.2660
1083.755, 115.3207
1084.237, 115.9965
1084.719, 116.6747
1085.201, 116.8377
1085.684, 117.1032
1086.166, 118.1324
1086.648, 119.5199
1087.130, 120.6570
1087.612, 121.4405
1088.094, 122.0122
1088.576, 122.3516
1089.058, 122.6259
1089.541, 122.9359
1090.023, 123.1777
1090.505, 123.1030
1090.987, 123.0261
1091.469, 123.3241
1091.951, 124.0255
1092.433, 125.0925
1092.915, 126.8656
1093.397, 127.9526
1093.880, 126.9206
1094.362, 126.0625
1094.844, 127.0938
1095.326, 128.7348
1095.808, 129.6002
1096.290, 129.7442
1096.772, 129.8246
1097.254, 129.9840
1097.736, 130.1323
1098.219, 130.0786
1098.701, 130.2085
1099.183, 130.8770
1099.665, 131.6492
1100.147, 132.1619
1100.629, 132.4600
1101.111, 132.6873
1101.593, 132.8593
1102.076, 133.1098
1102.558, 133.7325
1103.040, 134.0868
1103.522, 133.7706
1104.004, 133.3136
1104.486, 132.9002
1104.968, 132.6899
1105.450, 133.0386
1105.932, 133.9455
1106.415, 134.5266
1106.897, 134.4275
1107.379, 134.2670
1107.861, 134.1237
1108.343, 133.9901
1108.825, 133.9046
1109.307, 133.7959
1109.789, 133.5371
1110.271, 133.1581
1110.754, 132.8913
1111.236, 132.8520
1111.718, 132.7432
1112.200, 132.3809
1112.682, 132.1475
1113.164, 132.3663
1113.646, 132.6072
1114.128, 132.4564
1114.611, 132.0098
1115.093, 131.6080
1115.575, 131.2976
1116.057, 130.8938
1116.539, 130.1287
1117.021, 129.6847
1117.503, 130.0260
1117.985, 130.3270
1118.468, 129.9422
1118.950, 129.2238
1119.432, 128.8908
1119.914, 129.0036
1120.396, 128.7343
1120.878, 127.8246
1121.360, 127.0897
1121.842, 126.6866
1122.324, 126.3507
1122.807, 125.9125
1123.289, 125.5379
1123.771, 125.4779
1124.253, 125.6816
1124.735, 125.7256
1125.217, 125.6099
1125.699, 125.3287
1126.181, 124.8623
1126.663, 124.2899
1127.146, 123.6373
1127.628, 122.8722
1128.110, 121.9023
1128.592, 120.8879
1129.074, 120.3425
1129.556, 120.3225
1130.038, 120.2336
1130.520, 120.1055
1131.003, 119.6447
1131.485, 118.7420
1131.967, 117.7711
1132.449, 116.9688
1132.931, 116.2307
1133.413, 115.3079
1133.895, 114.2952
1134.377, 114.0210
1134.859, 114.4439
1135.342, 114.2510
1135.824, 113.2794
1136.306, 112.4613
1136.788, 112.2131
1137.270, 111.9279
1137.752, 110.9228
1138.234, 109.5147
1138.716, 108.3802
1139.198, 107.5331
1139.681, 107.2030
1140.163, 107.2679
1140.645, 106.8960
1141.127, 105.9240
1141.609, 105.1508
1142.091, 105.1724
1142.573, 105.3309
1143.055, 104.5812
1143.538, 103.3803
1144.020, 102.6630
1144.502, 102.2727
1144.984, 101.8119
1145.466, 101.1916
1145.948, 100.3612
1146.430, 99.30318
1146.912, 98.28614
1147.395, 97.47957
1147.877, 96.90962
1148.359, 96.75526
1148.841, 96.74915
1149.323, 96.61573
1149.805, 96.27272
1150.287, 95.48010
1150.769, 94.30146
1151.251, 93.46607
1151.734, 93.51083
1152.216, 93.60012
1152.698, 93.05380
1153.180, 92.46049
1153.662, 92.47274
1154.144, 92.62823
1154.626, 92.11825
1155.108, 91.16548
1155.590, 90.82693
1156.073, 91.53200
1156.555, 91.87833
1157.037, 91.42304
1157.519, 90.44961
1158.001, 88.30765
1158.483, 86.44249
1158.965, 86.23724
1159.447, 86.92036
1159.930, 87.18285
1160.412, 86.91380
1160.894, 86.40526
1161.376, 85.22635
1161.858, 84.54115
1162.340, 84.88326
1162.822, 85.18206
1163.304, 85.12119
1163.786, 84.77219
1164.269, 84.02342
1164.751, 83.07988
1165.233, 82.66468
1165.715, 82.90861
1166.197, 83.16222
1166.679, 83.63587
1167.161, 83.43150
1167.643, 82.01667
1168.125, 80.87291
1168.608, 80.95178
1169.090, 81.62679
1169.572, 82.01739
1170.054, 82.12815
1170.536, 81.93694
1171.018, 81.42801
1171.500, 80.92793
1171.982, 80.45760
1172.465, 80.15617
1172.947, 80.07571
1173.429, 80.13135
1173.911, 80.30695
1174.393, 80.32478
1174.875, 79.35674
1175.357, 77.81759
1175.839, 77.43164
1176.322, 77.94790
1176.804, 78.22781
1177.286, 78.09846
1177.768, 77.85412
1178.250, 77.63740
1178.732, 77.58846
1179.214, 78.08034
1179.696, 78.48479
1180.178, 77.63744
1180.661, 76.36008
1181.143, 75.90137
1181.625, 76.10491
1182.107, 76.56992
1182.589, 77.07155
1183.071, 77.10867
1183.553, 76.30813
1184.035, 75.56094
1184.517, 75.31718
1185.000, 75.45470
1185.482, 76.30460
1185.964, 77.14662
1186.446, 77.10932
1186.928, 76.47797
1187.410, 75.99637
1187.892, 75.79317
1188.374, 75.73296
1188.857, 75.89530
1189.339, 76.03249
1189.821, 76.03577
1190.303, 76.07107
1190.785, 76.37920
1191.267, 76.63063
1191.749, 76.39217
1192.231, 75.80733
1192.714, 75.42913
1193.196, 75.29163
1193.678, 75.24310
1194.160, 75.34532
1194.642, 75.37298
1195.124, 75.29334
1195.606, 75.06638
1196.088, 74.58566
1196.570, 74.18247
1197.052, 74.36848
1197.535, 74.99773
1198.017, 75.32571
1198.499, 75.36093
1198.981, 75.55251
1199.463, 75.91218
1199.945, 75.92211
1200.427, 75.45174
1200.909, 75.08353
1201.392, 75.23849
1201.874, 75.51414
1202.356, 75.35303
1202.838, 74.88517
1203.320, 74.13285
1203.802, 73.39857
1204.284, 73.56567
1204.766, 74.40749
1205.249, 74.90723
1205.731, 74.77184
1206.213, 74.48811
1206.695, 74.27694
1207.177, 74.20667
1207.659, 74.49191
1208.141, 74.77505
1208.623, 74.67439
1209.105, 74.43047
1209.588, 74.37642
1210.070, 74.46992
1210.552, 74.41800
1211.034, 74.11594
1211.516, 74.11619
1211.998, 74.87098
1212.480, 75.46843
1212.962, 75.63161
1213.444, 75.65278
1213.927, 75.78336
1214.409, 75.76234
1214.891, 75.12991
1215.373, 74.11167
1215.855, 73.78585
1216.337, 74.43643
1216.819, 74.44743
1217.301, 73.52022
1217.784, 73.23214
1218.266, 74.10528
1218.748, 74.62520
1219.230, 73.86570
1219.712, 72.77917
1220.194, 72.55859
1220.676, 73.04702
1221.158, 74.02282
1221.641, 75.27032
1222.123, 75.46652
1222.605, 74.75336
1223.087, 74.24191
1223.569, 74.18595
1224.051, 74.26175
1224.533, 74.29689
1225.015, 74.23677
1225.497, 73.97026
1225.979, 73.63316
1226.462, 73.23750
1226.944, 72.97974
1227.426, 73.23240
1227.908, 73.78022
1228.390, 74.23251
1228.872, 74.48557
1229.354, 74.45596
1229.836, 73.96656
1230.319, 73.63087
1230.801, 73.76479
1231.283, 73.95498
1231.765, 74.12631
1232.247, 74.18674
1232.729, 73.98739
1233.211, 73.66936
1233.693, 73.47387
1234.176, 73.39967
1234.658, 73.39146
1235.140, 73.40259
1235.622, 73.66661
1236.104, 74.32248
1236.586, 74.76729
1237.068, 74.81628
1237.550, 74.63814
1238.032, 74.32341
1238.515, 73.98443
1238.997, 73.82487
1239.479, 73.79243
1239.961, 73.59772
1240.443, 73.33216
1240.925, 73.51910
1241.407, 74.07543
1241.889, 74.42954
1242.371, 74.41654
1242.854, 74.12173
1243.336, 73.51397
1243.818, 73.16904
1244.300, 74.03403
1244.782, 74.99074
1245.264, 74.64715
1245.746, 74.00075
1246.228, 74.47993
1246.711, 75.55363
1247.193, 75.88540
1247.675, 75.33036
1248.157, 74.92828
1248.639, 75.05122
1249.121, 75.10226
1249.603, 74.90670
1250.085, 74.72298
1250.568, 74.57376
1251.050, 74.53355
1251.532, 74.66355
1252.014, 74.93642
1252.496, 75.40295
1252.978, 75.98867
1253.460, 75.68053
1253.942, 74.31474
1254.424, 74.05383
1254.906, 75.08109
1255.389, 75.52254
1255.871, 74.87226
1256.353, 74.10017
1256.835, 73.80433
1257.317, 74.02394
1257.799, 75.29768
1258.281, 76.63200
1258.763, 75.75180
1259.246, 73.91556
1259.728, 73.27276
1260.210, 73.66918
1260.692, 74.55050
1261.174, 75.55846
1261.656, 75.82514
1262.138, 74.83261
1262.620, 74.02562
1263.103, 74.27605
1263.585, 74.58475
1264.067, 74.53377
1264.549, 74.35516
1265.031, 74.05111
1265.513, 73.83523
1265.995, 74.09147
1266.477, 74.69621
1266.959, 74.99889
1267.442, 74.92448
1267.924, 74.85014
1268.406, 74.77000
1268.888, 74.72029
1269.370, 74.71322
1269.852, 74.68266
1270.334, 74.58915
1270.816, 74.53262
1271.298, 74.61848
1271.781, 74.81654
1272.263, 75.25062
1272.745, 75.66325
1273.227, 75.12776
1273.709, 74.14138
1274.191, 74.00063
1274.673, 74.70093
1275.155, 75.42874
1275.638, 75.92381
1276.120, 76.67935
1276.602, 78.58955
1277.084, 79.72018
1277.566, 78.53904
1278.048, 76.96993
1278.530, 75.90018
1279.012, 75.23256
1279.495, 74.89444
1279.977, 74.84095
1280.459, 75.02791
##END=



