##NAMES=Pollucite
##RRUFFID=R050344
##IDEAL CHEMISTRY=Cs(Si_2_Al)O_6_&#183;nH_2_O
##LOCALITY=Konar Province, Afghanistan
##OWNER=RRUFF
##SOURCE=George Rossman
##DESCRIPTION=Colorless fragment
##STATUS=The identification of this mineral has been confirmed by X-ray diffraction and chemical analysis
##URL=rruff.info/R050344
##MEASURED CHEMISTRY=(Cs_0.78_Na_0.21_Rb_0.01_)_Σ=1_(Si_2.13_Al_0.87_)_Σ=3_O_6_·H_2_O
117.1114, 180.8872
117.5935, 180.4987
118.0756, 180.2626
118.5577, 180.4877
119.0398, 180.9751
119.5220, 181.2077
120.0041, 180.8232
120.4862, 180.1495
120.9683, 179.9301
121.4504, 180.3377
121.9325, 180.8892
122.4147, 181.1805
122.8968, 181.1855
123.3789, 181.2372
123.8610, 181.6730
124.3431, 182.1828
124.8252, 182.4474
125.3074, 182.3171
125.7895, 181.9500
126.2716, 181.6497
126.7537, 181.3747
127.2358, 181.2663
127.7179, 181.3535
128.2001, 181.5989
128.6822, 181.9449
129.1643, 182.3411
129.6464, 182.8030
130.1285, 183.5054
130.6107, 184.9820
131.0928, 186.2054
131.5749, 186.7877
132.0570, 186.8898
132.5391, 186.9099
133.0212, 187.1914
133.5033, 187.7790
133.9855, 188.3730
134.4676, 189.1021
134.9497, 189.7401
135.4318, 189.9164
135.9139, 189.6927
136.3960, 189.7453
136.8782, 190.9993
137.3603, 193.8053
137.8424, 195.9389
138.3245, 197.0111
138.8066, 197.4463
139.2887, 197.6483
139.7709, 197.6605
140.2530, 197.5984
140.7351, 197.6704
141.2172, 197.8677
141.6993, 197.8699
142.1814, 197.5278
142.6636, 196.8783
143.1457, 196.0211
143.6278, 194.8349
144.1099, 193.6035
144.5920, 192.7239
145.0741, 192.1823
145.5563, 191.3586
146.0384, 189.5332
146.5205, 186.5674
147.0026, 183.8287
147.4847, 181.5886
147.9668, 179.6275
148.4490, 177.9629
148.9311, 176.5728
149.4132, 175.2157
149.8953, 173.4892
150.3774, 171.0784
150.8595, 168.9213
151.3417, 167.1148
151.8238, 165.5288
152.3059, 164.1045
152.7880, 162.8207
153.2701, 161.6147
153.7522, 160.3477
154.2344, 158.8487
154.7165, 157.4963
155.1986, 156.3879
155.6807, 155.4072
156.1628, 154.3647
156.6449, 153.1507
157.1271, 151.8755
157.6092, 151.0241
158.0913, 150.8788
158.5734, 150.7427
159.0555, 150.4910
159.5376, 150.1118
160.0198, 149.5405
160.5019, 148.6612
160.9840, 147.6079
161.4661, 146.8626
161.9482, 146.4971
162.4303, 146.3378
162.9125, 146.4235
163.3946, 146.7368
163.8767, 146.8232
164.3588, 146.1443
164.8409, 145.1406
165.3230, 144.5690
165.8052, 144.7434
166.2873, 145.2309
166.7694, 145.5157
167.2515, 145.5977
167.7336, 145.4686
168.2157, 144.9817
168.6979, 144.3342
169.1800, 143.7137
169.6621, 143.1257
170.1442, 142.6707
170.6263, 142.7082
171.1084, 143.7310
171.5906, 144.4550
172.0727, 144.3042
172.5548, 143.6788
173.0369, 143.1417
173.5190, 143.0520
174.0011, 143.3479
174.4833, 143.5105
174.9654, 143.4801
175.4475, 143.3538
175.9296, 143.1315
176.4117, 142.8276
176.8938, 142.4132
177.3760, 141.8191
177.8581, 141.0254
178.3402, 140.8545
178.8223, 141.8294
179.3044, 142.8367
179.7865, 143.5881
180.2687, 144.0484
180.7508, 144.2287
181.2329, 144.0955
181.7150, 143.6076
182.1971, 143.3339
182.6792, 143.3789
183.1614, 143.5155
183.6435, 143.5635
184.1256, 143.5367
184.6077, 143.6585
185.0898, 144.2058
185.5719, 145.2048
186.0541, 145.8821
186.5362, 145.8263
187.0183, 145.6686
187.5004, 146.1587
187.9825, 147.4172
188.4646, 148.5621
188.9468, 148.4619
189.4289, 147.4618
189.9110, 146.9959
190.3931, 147.8802
190.8752, 149.3384
191.3573, 150.0974
191.8395, 149.8608
192.3216, 149.5076
192.8037, 149.7218
193.2858, 150.3349
193.7679, 151.0083
194.2500, 151.7058
194.7322, 152.3598
195.2143, 152.6884
195.6964, 152.3593
196.1785, 152.2299
196.6606, 152.9343
197.1427, 154.1682
197.6249, 155.2583
198.1070, 155.7285
198.5891, 155.6366
199.0712, 155.5802
199.5533, 155.7312
200.0354, 155.7083
200.5176, 155.0482
200.9997, 154.0792
201.4818, 153.5431
201.9639, 154.1874
202.4460, 156.0577
202.9281, 157.2636
203.4103, 157.4558
203.8924, 157.2316
204.3745, 156.5108
204.8566, 155.4706
205.3387, 154.4540
205.8208, 153.7528
206.3030, 153.3852
206.7851, 153.1623
207.2672, 153.5779
207.7493, 153.6731
208.2314, 152.8573
208.7135, 151.3090
209.1957, 149.6815
209.6778, 148.5809
210.1599, 148.1072
210.6420, 147.4071
211.1241, 146.2994
211.6062, 145.1718
212.0884, 144.2387
212.5705, 143.4917
213.0526, 142.7675
213.5347, 141.9043
214.0168, 140.8780
214.4989, 139.9942
214.9811, 139.3177
215.4632, 138.7161
215.9453, 138.1142
216.4274, 137.5037
216.9095, 136.9126
217.3916, 136.3976
217.8737, 135.9467
218.3559, 135.3303
218.8380, 134.5235
219.3201, 133.5593
219.8022, 132.3685
220.2843, 130.9471
220.7664, 129.6088
221.2486, 128.6762
221.7307, 128.0538
222.2128, 127.3559
222.6949, 126.4508
223.1770, 125.4835
223.6591, 124.6273
224.1413, 123.8975
224.6234, 123.1957
225.1055, 122.4540
225.5876, 121.6925
226.0697, 120.9471
226.5518, 120.1965
227.0340, 119.4851
227.5161, 118.9608
227.9982, 118.7313
228.4803, 118.3044
228.9624, 117.0437
229.4445, 115.4925
229.9267, 114.3966
230.4088, 114.2276
230.8909, 114.5073
231.3730, 114.2965
231.8551, 113.4065
232.3372, 112.4983
232.8194, 111.9576
233.3015, 111.5189
233.7836, 110.8151
234.2657, 109.6023
234.7478, 108.1878
235.2299, 107.3158
235.7121, 107.2832
236.1942, 107.2055
236.6763, 106.8413
237.1584, 106.2993
237.6405, 105.6768
238.1227, 105.0068
238.6048, 104.2986
239.0869, 103.5208
239.5690, 102.3522
240.0511, 101.7252
240.5332, 102.3010
241.0154, 103.1993
241.4975, 103.5089
241.9796, 102.8365
242.4617, 101.5428
242.9438, 100.5157
243.4259, 99.80915
243.9081, 99.32351
244.3902, 99.09257
244.8723, 99.02625
245.3544, 99.11276
245.8365, 99.33819
246.3186, 99.56527
246.8008, 99.46120
247.2829, 98.63288
247.7650, 98.03487
248.2471, 97.92290
248.7292, 97.93454
249.2113, 97.69909
249.6935, 97.09886
250.1756, 96.33904
250.6577, 95.82745
251.1398, 95.87684
251.6219, 95.72909
252.1040, 95.28576
252.5862, 94.70933
253.0683, 94.05672
253.5504, 93.36929
254.0325, 92.80289
254.5146, 92.63644
254.9967, 93.23780
255.4789, 93.57336
255.9610, 93.53113
256.4431, 93.29344
256.9252, 92.94621
257.4073, 92.52651
257.8894, 92.16621
258.3716, 92.07645
258.8537, 92.48378
259.3358, 92.52796
259.8179, 91.82407
260.3000, 90.98788
260.7821, 90.59196
261.2643, 90.72414
261.7464, 91.01545
262.2285, 91.03432
262.7106, 90.67542
263.1927, 90.62208
263.6748, 91.17081
264.1570, 91.84628
264.6391, 92.31153
265.1212, 92.51888
265.6033, 92.45614
266.0854, 91.98404
266.5675, 91.09297
267.0497, 90.65862
267.5318, 91.09019
268.0139, 91.71555
268.4960, 91.99349
268.9781, 91.90168
269.4602, 91.73314
269.9424, 91.61777
270.4245, 91.61864
270.9066, 91.95554
271.3887, 93.07397
271.8708, 94.19997
272.3529, 94.62363
272.8351, 94.39854
273.3172, 94.22707
273.7993, 94.51404
274.2814, 95.20203
274.7635, 95.97400
275.2456, 96.89403
275.7278, 97.81612
276.2099, 98.56889
276.6920, 99.18639
277.1741, 99.94880
277.6562, 100.9826
278.1383, 102.2677
278.6205, 103.7180
279.1026, 105.4980
279.5847, 107.1188
280.0668, 108.1239
280.5489, 108.6233
281.0310, 109.2280
281.5132, 110.0938
281.9953, 111.2466
282.4774, 112.7370
282.9595, 114.6401
283.4416, 116.4318
283.9237, 117.5514
284.4059, 118.2217
284.8880, 119.4441
285.3701, 121.6467
285.8522, 124.2339
286.3343, 126.5260
286.8164, 128.5400
287.2986, 130.6692
287.7807, 133.0000
288.2628, 135.6002
288.7449, 138.7591
289.2270, 142.8065
289.7091, 146.9130
290.1913, 150.4047
290.6734, 153.3973
291.1555, 156.3669
291.6376, 159.2858
292.1197, 162.3342
292.6018, 166.1609
293.0840, 171.1434
293.5661, 176.0218
294.0482, 180.1466
294.5303, 183.5835
295.0124, 186.4020
295.4945, 188.7468
295.9767, 190.3900
296.4588, 190.8970
296.9409, 190.1921
297.4230, 188.5909
297.9051, 186.1749
298.3872, 182.9680
298.8694, 178.7698
299.3515, 173.2935
299.8336, 167.1970
300.3157, 161.1948
300.7978, 155.2216
301.2799, 149.5290
301.7621, 144.1309
302.2442, 139.1035
302.7263, 134.5056
303.2084, 130.3380
303.6905, 126.6380
304.1726, 123.5354
304.6548, 121.0601
305.1369, 118.6193
305.6190, 115.9151
306.1011, 113.3297
306.5832, 111.2127
307.0653, 109.5750
307.5475, 108.0664
308.0296, 106.2099
308.5117, 104.0891
308.9938, 102.7756
309.4759, 103.0721
309.9580, 103.4374
310.4402, 102.7254
310.9223, 101.1608
311.4044, 99.64247
311.8865, 98.72342
312.3686, 98.31978
312.8507, 98.10686
313.3329, 98.27818
313.8150, 98.28746
314.2971, 97.68381
314.7792, 96.74520
315.2613, 95.98326
315.7434, 95.67688
316.2256, 95.65603
316.7077, 95.54516
317.1898, 95.28979
317.6719, 95.09412
318.1540, 95.03326
318.6361, 95.08232
319.1183, 95.27856
319.6004, 95.70179
320.0825, 96.08437
320.5646, 95.92681
321.0467, 95.09344
321.5288, 94.59160
322.0110, 95.08351
322.4931, 95.83665
322.9752, 96.29673
323.4573, 96.37413
323.9394, 96.31686
324.4215, 96.30769
324.9037, 96.34706
325.3858, 96.48306
325.8679, 96.83799
326.3500, 97.17505
326.8321, 97.22885
327.3142, 97.06104
327.7964, 97.05437
328.2785, 97.64955
328.7606, 98.67702
329.2427, 99.26416
329.7248, 99.11913
330.2069, 98.95344
330.6891, 99.33561
331.1712, 100.0162
331.6533, 100.4535
332.1354, 100.2532
332.6175, 99.73345
333.0996, 99.53067
333.5818, 99.68873
334.0639, 100.0228
334.5460, 100.5471
335.0281, 101.1589
335.5102, 101.7627
335.9923, 102.3608
336.4745, 102.8913
336.9566, 103.2959
337.4387, 103.5730
337.9208, 103.7132
338.4029, 103.5169
338.8850, 103.3271
339.3671, 103.5096
339.8492, 104.1140
340.3314, 104.8001
340.8135, 105.3891
341.2956, 105.8717
341.7777, 106.1352
342.2598, 106.0684
342.7419, 105.9008
343.2241, 105.7451
343.7062, 105.6287
344.1883, 105.7279
344.6704, 106.2209
345.1525, 106.9721
345.6346, 107.7220
346.1168, 108.4865
346.5989, 109.1525
347.0810, 109.4928
347.5631, 109.6841
348.0452, 110.0552
348.5273, 110.7954
349.0095, 111.6551
349.4916, 112.4072
349.9737, 113.0507
350.4558, 113.4928
350.9379, 113.4945
351.4200, 113.3817
351.9022, 113.7182
352.3843, 114.6957
352.8664, 115.6549
353.3485, 116.0405
353.8306, 116.0109
354.3127, 116.2294
354.7949, 116.9818
355.2770, 117.8733
355.7591, 118.3155
356.2412, 118.3130
356.7233, 118.5370
357.2054, 119.4366
357.6876, 120.6452
358.1697, 121.5314
358.6518, 121.9730
359.1339, 122.3949
359.6160, 123.1434
360.0981, 124.1943
360.5803, 125.3743
361.0624, 126.6332
361.5445, 128.0356
362.0266, 129.8066
362.5087, 131.8710
362.9908, 133.5877
363.4730, 134.4433
363.9551, 134.7926
364.4372, 135.7608
364.9193, 137.6017
365.4014, 139.5633
365.8835, 141.3352
366.3657, 143.0020
366.8478, 144.7233
367.3299, 146.5311
367.8120, 148.4685
368.2941, 150.7077
368.7762, 153.3910
369.2584, 155.7240
369.7405, 157.1974
370.2226, 158.4951
370.7047, 160.2320
371.1868, 162.5068
371.6689, 165.1723
372.1511, 168.2526
372.6332, 171.7709
373.1153, 174.5240
373.5974, 175.6838
374.0795, 176.9937
374.5616, 179.4555
375.0438, 182.7609
375.5259, 186.0950
376.0080, 189.0065
376.4901, 191.5970
376.9722, 194.2001
377.4543, 196.9902
377.9365, 199.5618
378.4186, 201.5513
378.9007, 203.4480
379.3828, 205.8066
379.8649, 208.7708
380.3470, 212.0503
380.8292, 215.2425
381.3113, 218.3116
381.7934, 221.4369
382.2755, 225.0124
382.7576, 228.3060
383.2397, 230.7004
383.7219, 232.3844
384.2040, 234.0465
384.6861, 236.2657
385.1682, 238.9790
385.6503, 241.0888
386.1324, 241.9958
386.6146, 242.9270
387.0967, 244.3672
387.5788, 245.8448
388.0609, 246.7414
388.5430, 246.7907
389.0251, 246.2444
389.5073, 245.6485
389.9894, 245.3146
390.4715, 244.2121
390.9536, 241.8852
391.4357, 239.2064
391.9178, 236.7185
392.4000, 234.4618
392.8821, 232.1255
393.3642, 229.4285
393.8463, 226.3606
394.3284, 223.0283
394.8105, 218.9775
395.2927, 215.1559
395.7748, 212.2511
396.2569, 209.7243
396.7390, 206.6102
397.2211, 202.3419
397.7032, 197.4003
398.1854, 192.8541
398.6675, 188.7335
399.1496, 184.8758
399.6317, 181.5305
400.1138, 178.2258
400.5959, 174.5052
401.0781, 170.3108
401.5602, 166.1931
402.0423, 162.7050
402.5244, 159.8093
403.0065, 157.0166
403.4886, 154.2747
403.9708, 151.6539
404.4529, 149.1746
404.9350, 146.8381
405.4171, 144.6321
405.8992, 142.4702
406.3813, 140.4906
406.8635, 138.9505
407.3456, 137.8826
407.8277, 136.9640
408.3098, 136.3030
408.7919, 135.5373
409.2740, 133.9868
409.7562, 131.2462
410.2383, 128.6803
410.7204, 127.1490
411.2025, 126.4370
411.6846, 125.9520
412.1667, 125.6071
412.6489, 125.2714
413.1310, 124.8109
413.6131, 124.2334
414.0952, 123.4786
414.5773, 122.2882
415.0594, 121.0820
415.5416, 120.3321
416.0237, 120.0104
416.5058, 119.6566
416.9879, 118.9368
417.4700, 117.9471
417.9521, 117.2158
418.4343, 116.6134
418.9164, 116.3658
419.3985, 116.8718
419.8806, 117.6707
420.3627, 118.1116
420.8448, 117.9867
421.3270, 117.4411
421.8091, 116.6409
422.2912, 115.3985
422.7733, 114.4678
423.2554, 113.9211
423.7375, 113.5947
424.2197, 113.5446
424.7018, 113.6563
425.1839, 113.6152
425.6660, 113.1562
426.1481, 112.3871
426.6302, 112.0495
427.1124, 112.6903
427.5945, 113.1101
428.0766, 112.9790
428.5587, 112.6563
429.0408, 112.4673
429.5229, 112.5225
430.0051, 112.7893
430.4872, 113.3074
430.9693, 114.2092
431.4514, 114.7994
431.9335, 114.5770
432.4156, 114.4702
432.8978, 114.9945
433.3799, 115.9504
433.8620, 116.7836
434.3441, 117.0991
434.8262, 117.0919
435.3083, 117.3008
435.7905, 117.7307
436.2726, 118.3648
436.7547, 119.3121
437.2368, 120.4060
437.7189, 121.5244
438.2010, 122.6472
438.6832, 123.7629
439.1653, 124.9152
439.6474, 126.0690
440.1295, 126.9470
440.6116, 127.2385
441.0938, 127.7695
441.5759, 129.4653
442.0580, 131.9972
442.5401, 134.4307
443.0222, 136.3242
443.5043, 138.1211
443.9865, 140.1375
444.4686, 142.3985
444.9507, 145.1987
445.4328, 148.7571
445.9149, 152.8710
446.3970, 157.0677
446.8792, 161.3067
447.3613, 165.6826
447.8434, 170.0617
448.3255, 174.6684
448.8076, 179.8074
449.2897, 185.5428
449.7719, 191.6221
450.2540, 197.7366
450.7361, 203.8828
451.2182, 211.0277
451.7003, 219.4477
452.1824, 228.3865
452.6646, 237.6454
453.1467, 247.2624
453.6288, 257.2861
454.1109, 267.7661
454.5930, 278.5632
455.0751, 289.3866
455.5573, 299.3317
456.0394, 311.2049
456.5215, 325.7749
457.0036, 341.2613
457.4857, 356.9261
457.9678, 372.5829
458.4500, 388.3058
458.9321, 404.0354
459.4142, 419.9068
459.8963, 436.9456
460.3784, 455.6206
460.8605, 474.6094
461.3427, 493.6900
461.8248, 512.9669
462.3069, 532.4413
462.7890, 552.1183
463.2711, 572.6300
463.7532, 594.5935
464.2354, 618.0656
464.7175, 642.0504
465.1996, 666.4035
465.6817, 691.3551
466.1638, 716.7702
466.6459, 742.8393
467.1281, 770.2879
467.6102, 799.7783
468.0923, 830.2507
468.5744, 860.5829
469.0565, 890.9531
469.5386, 920.6991
470.0208, 949.3659
470.5029, 977.5609
470.9850, 1006.485
471.4671, 1036.764
471.9492, 1065.029
472.4313, 1090.582
472.9135, 1113.758
473.3956, 1135.935
473.8777, 1156.772
474.3598, 1173.233
474.8419, 1182.905
475.3240, 1186.041
475.8062, 1184.687
476.2883, 1179.764
476.7704, 1169.965
477.2525, 1154.349
477.7346, 1133.967
478.2167, 1109.783
478.6989, 1082.095
479.1810, 1051.623
479.6631, 1018.682
480.1452, 983.2198
480.6273, 946.5006
481.1094, 906.4795
481.5916, 867.4578
482.0737, 830.9520
482.5558, 796.4138
483.0379, 762.6818
483.5200, 729.0313
484.0021, 695.8759
484.4843, 663.7607
484.9664, 632.3926
485.4485, 602.8077
485.9306, 575.3835
486.4127, 549.8163
486.8948, 526.2144
487.3770, 504.3402
487.8591, 483.5029
488.3412, 463.1603
488.8233, 443.6981
489.3054, 426.0728
489.7875, 410.4828
490.2697, 395.7682
490.7518, 381.3568
491.2339, 367.6651
491.7160, 355.1837
492.1981, 344.2768
492.6802, 333.7050
493.1624, 323.0272
493.6445, 312.4308
494.1266, 302.1706
494.6087, 292.2529
495.0908, 282.7609
495.5729, 273.7066
496.0551, 265.1180
496.5372, 256.9262
497.0193, 249.2622
497.5014, 241.7945
497.9835, 234.1604
498.4656, 226.7240
498.9478, 220.0440
499.4299, 214.2824
499.9120, 209.0298
500.3941, 203.7486
500.8762, 198.3465
501.3583, 193.1394
501.8405, 187.7680
502.3226, 182.9738
502.8047, 179.4450
503.2868, 176.6323
503.7689, 173.6345
504.2510, 169.9845
504.7331, 165.9512
505.2152, 161.8685
505.6974, 157.6210
506.1795, 153.9950
506.6616, 151.5353
507.1437, 149.4266
507.6258, 147.0451
508.1079, 144.4299
508.5901, 141.9834
509.0722, 139.9803
509.5543, 138.2165
510.0364, 136.3916
510.5185, 134.5077
511.0006, 132.6198
511.4828, 130.7236
511.9649, 128.8767
512.4470, 127.2251
512.9291, 125.8058
513.4113, 124.4012
513.8934, 122.9925
514.3755, 121.5594
514.8576, 120.1365
515.3397, 118.6956
515.8218, 117.0525
516.3040, 114.9734
516.7861, 112.6050
517.2682, 111.0417
517.7503, 111.1800
518.2324, 111.0229
518.7145, 110.2182
519.1967, 109.1393
519.6788, 108.1086
520.1609, 107.1981
520.6430, 106.3301
521.1251, 105.4566
521.6072, 104.5682
522.0894, 103.4984
522.5715, 102.0284
523.0536, 100.7263
523.5357, 99.92252
524.0178, 99.30595
524.4999, 98.44678
524.9821, 97.20187
525.4642, 96.07150
525.9463, 95.67104
526.4284, 95.81550
526.9105, 95.62592
527.3926, 94.91824
527.8748, 94.06755
528.3569, 93.26482
528.8390, 92.54996
529.3211, 92.05717
529.8032, 92.11411
530.2853, 92.04119
530.7675, 91.20813
531.2496, 90.02877
531.7317, 89.43591
532.2138, 89.70718
532.6959, 90.12508
533.1780, 89.75984
533.6602, 88.41592
534.1423, 87.50228
534.6244, 87.30518
535.1065, 87.14655
535.5886, 86.75005
536.0707, 86.23302
536.5529, 85.81850
537.0350, 85.59451
537.5171, 85.42448
537.9992, 85.05313
538.4813, 84.40136
538.9634, 83.96899
539.4456, 84.03176
539.9277, 84.03893
540.4098, 83.67471
540.8919, 83.08343
541.3740, 82.57735
541.8561, 82.32358
542.3383, 82.10720
542.8204, 81.66933
543.3025, 81.02517
543.7846, 80.28957
544.2667, 79.41943
544.7488, 78.60765
545.2310, 78.17342
545.7131, 78.06203
546.1952, 77.72410
546.6773, 76.53732
547.1594, 75.60301
547.6415, 76.04436
548.1237, 77.30361
548.6058, 77.91835
549.0879, 77.28500
549.5700, 76.03577
550.0521, 75.19210
550.5342, 74.87327
551.0164, 74.62641
551.4985, 74.51003
551.9806, 74.39647
552.4627, 74.21568
552.9448, 73.99773
553.4269, 73.83553
553.9091, 73.78294
554.3912, 73.70123
554.8733, 73.27096
555.3554, 72.40316
555.8375, 71.78701
556.3196, 71.57703
556.8018, 71.57588
557.2839, 71.76923
557.7660, 72.05735
558.2481, 72.15179
558.7302, 71.82861
559.2123, 71.41468
559.6945, 71.28425
560.1766, 71.36738
560.6587, 71.34922
561.1408, 71.12801
561.6229, 70.79244
562.1050, 70.41582
562.5872, 69.97982
563.0693, 69.69003
563.5514, 69.51263
564.0335, 69.52016
564.5156, 69.95602
564.9977, 70.56034
565.4799, 70.81959
565.9620, 70.53622
566.4441, 70.06564
566.9262, 70.00025
567.4083, 70.47903
567.8904, 70.79836
568.3726, 70.92387
568.8547, 70.91012
569.3368, 70.50130
569.8189, 70.03395
570.3010, 70.14578
570.7831, 71.17040
571.2653, 72.31670
571.7474, 72.55336
572.2295, 72.00159
572.7116, 71.67492
573.1937, 71.79695
573.6758, 72.01024
574.1580, 71.98593
574.6401, 71.80080
575.1222, 71.75791
575.6043, 71.93252
576.0864, 72.20152
576.5685, 72.64963
577.0507, 73.10954
577.5328, 73.25392
578.0149, 73.01474
578.4970, 72.65610
578.9791, 72.45009
579.4612, 72.40048
579.9434, 72.41286
580.4255, 72.73625
580.9076, 72.82320
581.3897, 72.37629
581.8718, 71.74437
582.3539, 71.28955
582.8361, 71.09731
583.3182, 71.04624
583.8003, 71.05228
584.2824, 71.10518
584.7645, 71.13908
585.2466, 71.17007
585.7288, 71.12900
586.2108, 70.85478
586.6929, 70.54824
587.1750, 70.54886
587.6572, 70.96886
588.1393, 71.30382
588.6214, 71.31966
589.1035, 71.12093
589.5856, 70.75102
590.0677, 70.25496
590.5499, 69.90055
591.0320, 69.88377
591.5141, 70.10378
591.9962, 70.18669
592.4783, 69.94618
592.9604, 69.83005
593.4426, 70.00686
593.9247, 70.17405
594.4068, 70.10192
594.8889, 69.82282
595.3710, 69.50484
595.8531, 69.24568
596.3353, 69.04198
596.8174, 68.85403
597.2995, 68.65308
597.7816, 68.65884
598.2637, 69.07174
598.7458, 69.54650
599.2280, 69.84061
599.7101, 69.95377
600.1922, 69.88583
600.6743, 69.38206
601.1564, 68.91635
601.6385, 68.99358
602.1207, 69.44137
602.6028, 69.73973
603.0849, 69.71117
603.5670, 69.52773
604.0491, 69.40311
604.5313, 69.34874
605.0134, 69.28102
605.4955, 69.11899
605.9776, 69.03739
606.4597, 69.28522
606.9418, 69.56202
607.4240, 69.34903
607.9061, 68.54970
608.3882, 67.78322
608.8703, 67.91642
609.3524, 68.85439
609.8345, 69.25414
610.3167, 68.87280
610.7988, 68.52431
611.2809, 68.74732
611.7630, 69.17706
612.2451, 69.28188
612.7272, 68.94106
613.2094, 68.64768
613.6915, 68.72026
614.1736, 68.91081
614.6557, 68.84231
615.1378, 68.53835
615.6199, 68.36442
616.1021, 68.55508
616.5842, 68.99172
617.0663, 69.34200
617.5484, 69.64975
618.0305, 69.78702
618.5126, 69.66881
618.9948, 69.47535
619.4769, 69.35886
619.9590, 69.24672
620.4411, 68.88827
620.9232, 68.07954
621.4053, 67.26818
621.8875, 67.31014
622.3696, 68.18640
622.8517, 68.73364
623.3338, 68.64227
623.8159, 68.40969
624.2980, 68.48460
624.7802, 68.75633
625.2623, 68.85526
625.7444, 68.65575
626.2265, 68.38622
626.7086, 68.07539
627.1907, 67.79029
627.6729, 67.66337
628.1550, 67.69972
628.6371, 67.73617
629.1192, 67.62023
629.6013, 67.37798
630.0834, 67.22958
630.5656, 67.21870
631.0477, 67.23151
631.5298, 67.39653
632.0119, 67.46496
632.4940, 67.08147
632.9761, 66.36214
633.4583, 65.93204
633.9404, 66.36366
634.4225, 67.12790
634.9046, 67.36537
635.3867, 67.11076
635.8688, 66.76146
636.3510, 66.36916
636.8331, 66.11049
637.3152, 66.30639
637.7973, 67.03191
638.2794, 67.27872
638.7615, 66.53915
639.2437, 65.87267
639.7258, 65.74908
640.2079, 65.95290
640.6900, 66.21509
641.1721, 66.44189
641.6542, 66.59120
642.1364, 66.57610
642.6185, 66.42219
643.1006, 66.51323
643.5827, 67.03506
644.0648, 67.38765
644.5469, 67.12206
645.0291, 66.73975
645.5112, 66.73621
645.9933, 67.14202
646.4754, 67.49629
646.9575, 67.51357
647.4396, 67.43325
647.9218, 67.54852
648.4039, 67.81074
648.8860, 67.94730
649.3681, 67.83268
649.8502, 67.68002
650.3323, 67.83973
650.8145, 68.42786
651.2966, 68.79416
651.7787, 68.63864
652.2608, 68.61528
652.7429, 69.07676
653.2250, 69.71120
653.7072, 70.09522
654.1893, 70.13037
654.6714, 70.09573
655.1535, 70.35997
655.6356, 70.76475
656.1177, 70.61349
656.5999, 69.78160
657.0820, 69.34101
657.5641, 69.94015
658.0462, 71.07211
658.5283, 71.85924
659.0104, 72.32195
659.4926, 72.47451
659.9747, 72.01346
660.4568, 71.52869
660.9389, 71.42751
661.4210, 71.58363
661.9031, 71.66228
662.3853, 71.53773
662.8674, 71.43347
663.3495, 71.74240
663.8316, 72.51067
664.3137, 72.93539
664.7958, 72.83039
665.2780, 72.71841
665.7601, 72.88269
666.2422, 73.14108
666.7243, 73.24593
667.2064, 73.14079
667.6885, 73.16066
668.1707, 73.63265
668.6528, 74.19836
669.1349, 74.42818
669.6170, 74.35860
670.0991, 74.24934
670.5812, 74.21983
671.0634, 74.22746
671.5455, 74.22659
672.0276, 74.30125
672.5097, 74.04625
672.9918, 72.95984
673.4739, 72.09522
673.9561, 71.88664
674.4382, 72.03522
674.9203, 72.22928
675.4024, 72.38789
675.8845, 72.31764
676.3666, 71.71632
676.8488, 70.81535
677.3309, 70.08752
677.8130, 69.55742
678.2951, 69.18211
678.7772, 68.99060
679.2593, 68.84707
679.7415, 68.49919
680.2236, 67.88712
680.7057, 67.23505
681.1878, 66.38314
681.6699, 65.65874
682.1520, 65.26375
682.6342, 65.06705
683.1163, 64.86684
683.5984, 64.60029
684.0805, 64.35648
684.5626, 64.32082
685.0447, 64.41281
685.5269, 64.15504
686.0090, 63.48640
686.4911, 62.76448
686.9732, 62.09349
687.4553, 61.50045
687.9374, 61.00733
688.4196, 60.59304
688.9017, 60.39247
689.3838, 60.58138
689.8659, 60.83712
690.3480, 61.08358
690.8301, 61.22718
691.3123, 61.06545
691.7944, 60.55973
692.2765, 60.00496
692.7586, 59.75115
693.2407, 59.77479
693.7228, 59.75482
694.2050, 59.69436
694.6871, 59.57900
695.1692, 59.37208
695.6513, 59.12865
696.1334, 58.86993
696.6155, 58.59877
697.0977, 58.45891
697.5798, 58.57340
698.0619, 58.75693
698.5440, 58.97532
699.0261, 59.13911
699.5082, 59.04675
699.9904, 58.65255
700.4725, 58.11472
700.9546, 57.53820
701.4367, 56.95690
701.9188, 56.94433
702.4009, 57.85220
702.8831, 58.63001
703.3652, 59.18377
703.8473, 59.38289
704.3294, 58.89602
704.8115, 57.85563
705.2936, 57.06791
705.7758, 56.95243
706.2579, 57.11385
706.7400, 57.30802
707.2221, 57.51661
707.7042, 57.70485
708.1863, 57.86342
708.6685, 57.99461
709.1506, 58.09786
709.6327, 58.17659
710.1148, 58.25587
710.5969, 58.34152
711.0790, 58.41642
711.5612, 58.58522
712.0433, 58.65037
712.5254, 58.39762
713.0075, 57.92671
713.4896, 57.56561
713.9717, 57.50996
714.4539, 57.47346
714.9360, 57.06793
715.4181, 56.51448
715.9002, 56.39120
716.3823, 56.76800
716.8644, 57.15426
717.3466, 57.16404
717.8287, 56.94981
718.3108, 57.11752
718.7929, 58.16987
719.2750, 58.63863
719.7571, 58.08990
720.2393, 57.37770
720.7214, 56.75602
721.2035, 56.31783
721.6856, 56.24339
722.1677, 56.66642
722.6498, 57.05670
723.1320, 56.84050
723.6141, 56.31506
724.0962, 56.14483
724.5783, 56.35230
725.0604, 56.45538
725.5425, 56.16469
726.0247, 55.70806
726.5068, 55.58425
726.9889, 56.03303
727.4710, 56.07947
727.9531, 55.21461
728.4352, 54.53688
728.9174, 54.51991
729.3995, 54.84759
729.8816, 55.18550
730.3637, 55.44718
730.8458, 55.49879
731.3279, 55.07861
731.8101, 54.47458
732.2922, 54.16701
732.7743, 54.12963
733.2564, 54.09961
733.7385, 53.96887
734.2206, 53.91304
734.7028, 54.21143
735.1849, 54.91372
735.6670, 55.21521
736.1491, 54.72794
736.6312, 54.32738
737.1133, 54.23010
737.5955, 54.21729
738.0776, 54.07487
738.5597, 53.81528
739.0418, 53.62482
739.5239, 53.62944
740.0060, 53.70906
740.4882, 53.69400
740.9703, 53.63848
741.4524, 53.77085
741.9345, 54.13625
742.4166, 54.39642
742.8987, 54.22616
743.3809, 53.75085
743.8630, 53.61696
744.3451, 54.14994
744.8272, 54.42997
745.3093, 54.19363
745.7914, 53.91647
746.2736, 53.87047
746.7557, 53.96940
747.2378, 53.99400
747.7199, 53.85238
748.2020, 53.72990
748.6841, 53.75295
749.1663, 53.89534
749.6484, 54.20606
750.1305, 54.63453
750.6126, 54.83128
751.0947, 54.59340
751.5768, 54.17562
752.0590, 54.03231
752.5411, 54.20741
753.0232, 54.46503
753.5053, 55.05190
753.9874, 55.38233
754.4695, 55.11195
754.9517, 54.61532
755.4338, 54.18817
755.9159, 53.88647
756.3980, 53.93216
756.8801, 54.82138
757.3622, 55.77403
757.8444, 55.93945
758.3265, 55.58329
758.8086, 55.35943
759.2907, 55.43721
759.7728, 55.57902
760.2549, 55.56115
760.7371, 55.40348
761.2192, 55.22190
761.7013, 54.99514
762.1834, 54.79543
762.6655, 54.52613
763.1476, 54.40847
763.6298, 54.69886
764.1119, 55.24635
764.5940, 55.63285
765.0761, 55.74485
765.5582, 55.74361
766.0403, 55.56627
766.5225, 55.40970
767.0046, 55.58391
767.4867, 56.00555
767.9688, 56.28999
768.4509, 56.23903
768.9330, 56.03618
769.4152, 56.01048
769.8973, 56.17375
770.3794, 56.11666
770.8615, 55.64058
771.3436, 55.49136
771.8257, 56.32546
772.3079, 57.42211
772.7900, 57.60905
773.2721, 56.79726
773.7542, 56.29874
774.2363, 56.58554
774.7184, 56.93681
775.2006, 56.96441
775.6827, 56.85204
776.1648, 56.92588
776.6469, 57.19039
777.1290, 57.28304
777.6111, 56.81726
778.0933, 56.14466
778.5754, 56.22201
779.0575, 57.00874
779.5396, 57.26388
780.0217, 56.59404
780.5038, 55.94733
780.9860, 56.14742
781.4681, 56.95226
781.9502, 57.30281
782.4323, 56.95110
782.9144, 56.56382
783.3965, 56.00756
783.8787, 55.58245
784.3608, 55.52863
784.8429, 55.70510
785.3250, 55.87508
785.8071, 55.96457
786.2892, 55.98238
786.7714, 55.91185
787.2535, 55.78553
787.7356, 55.64107
788.2177, 55.48989
788.6998, 55.39917
789.1819, 55.39768
789.6641, 55.42079
790.1462, 55.37456
790.6283, 55.25999
791.1104, 55.30658
791.5925, 55.64450
792.0746, 55.92365
792.5568, 56.24369
793.0389, 56.35123
793.5210, 55.88983
794.0031, 55.04641
794.4852, 54.45917
794.9673, 54.38758
795.4495, 54.46549
795.9316, 54.51416
796.4137, 54.55165
796.8958, 54.61621
797.3779, 54.69602
797.8600, 54.73907
798.3422, 54.71870
798.8243, 54.64043
799.3064, 54.48336
799.7885, 54.24049
800.2706, 54.11274
800.7527, 54.12346
801.2349, 54.18269
801.7170, 54.26842
802.1991, 54.37310
802.6812, 54.51112
803.1633, 54.68481
803.6454, 54.76768
804.1276, 54.70918
804.6097, 54.60625
805.0918, 54.52111
805.5739, 54.39215
806.0560, 54.03964
806.5381, 53.55774
807.0203, 53.35174
807.5024, 53.73720
807.9845, 54.26302
808.4666, 54.24593
808.9487, 53.82574
809.4308, 53.54903
809.9130, 53.48110
810.3951, 53.46637
810.8772, 53.42286
811.3593, 53.36146
811.8414, 53.30887
812.3235, 53.28415
812.8057, 53.19104
813.2878, 52.83356
813.7699, 52.65575
814.2520, 52.90514
814.7341, 53.30162
815.2162, 53.63048
815.6984, 53.84777
816.1805, 53.85197
816.6626, 53.30805
817.1447, 52.84056
817.6268, 53.10715
818.1089, 53.66859
818.5911, 53.81074
819.0732, 53.47219
819.5553, 53.00189
820.0374, 52.60452
820.5195, 52.32659
821.0016, 52.26218
821.4838, 52.41260
821.9659, 52.80362
822.4480, 53.58852
822.9301, 54.09946
823.4122, 53.89686
823.8943, 53.30954
824.3765, 52.88588
824.8586, 52.64079
825.3407, 52.48159
825.8228, 52.47961
826.3049, 52.47457
826.7870, 52.39923
827.2692, 52.30183
827.7513, 52.18766
828.2334, 52.09364
828.7155, 52.15095
829.1976, 52.49299
829.6797, 52.89820
830.1619, 53.13761
830.6440, 53.24349
831.1261, 53.31028
831.6082, 53.33924
832.0903, 53.17905
832.5724, 52.70941
833.0546, 52.18644
833.5367, 52.16817
834.0188, 52.76524
834.5009, 53.08531
834.9830, 53.04748
835.4651, 52.88489
835.9473, 52.45863
836.4294, 52.12300
836.9115, 52.43163
837.3936, 53.33152
837.8757, 53.76784
838.3578, 53.13327
838.8400, 52.56499
839.3221, 52.57317
839.8042, 52.78674
840.2863, 52.85000
840.7684, 52.76027
841.2505, 52.65652
841.7327, 52.59425
842.2148, 52.62701
842.6969, 52.98227
843.1790, 53.45715
843.6611, 53.37727
844.1432, 52.74742
844.6254, 52.19310
845.1075, 51.97462
845.5896, 51.95192
846.0717, 51.96012
846.5538, 51.99981
847.0359, 51.94397
847.5181, 51.76176
848.0002, 51.54060
848.4823, 51.10472
848.9644, 50.81859
849.4465, 51.04042
849.9286, 51.61051
850.4108, 52.05890
850.8929, 52.34257
851.3750, 52.42619
851.8571, 52.21021
852.3392, 51.86671
852.8214, 51.38938
853.3035, 50.93504
853.7856, 50.84464
854.2677, 51.19626
854.7498, 51.58205
855.2319, 51.63182
855.7141, 51.43101
856.1962, 51.07612
856.6783, 50.61451
857.1604, 50.40046
857.6425, 50.53260
858.1246, 50.78891
858.6068, 51.02980
859.0889, 51.19456
859.5710, 51.01923
860.0531, 50.30636
860.5352, 49.76604
861.0173, 49.35140
861.4995, 49.21233
861.9816, 49.55136
862.4637, 50.12477
862.9458, 50.68093
863.4279, 51.21119
863.9100, 51.50454
864.3922, 51.49947
864.8743, 51.25456
865.3564, 50.47778
865.8385, 49.67783
866.3206, 49.55507
866.8027, 50.05172
867.2849, 50.55035
867.7670, 50.70609
868.2491, 50.68467
868.7312, 50.78539
869.2133, 50.86828
869.6954, 50.36354
870.1776, 49.29705
870.6597, 48.53852
871.1418, 48.49536
871.6239, 48.80450
872.1060, 48.98712
872.5881, 49.04319
873.0703, 49.02491
873.5524, 48.90797
874.0345, 48.78053
874.5166, 48.67545
874.9987, 48.54935
875.4808, 48.26518
875.9630, 47.92979
876.4451, 47.89724
876.9272, 48.38586
877.4093, 48.75097
877.8914, 48.84937
878.3735, 48.80557
878.8557, 48.65376
879.3378, 48.42973
879.8199, 48.12605
880.3020, 47.76409
880.7841, 47.52266
881.2662, 47.60992
881.7484, 47.79808
882.2305, 47.77937
882.7126, 47.64518
883.1947, 47.60033
883.6768, 47.68055
884.1589, 47.87947
884.6411, 48.21267
885.1232, 48.53278
885.6053, 48.48063
886.0874, 48.04149
886.5695, 47.86523
887.0516, 48.06432
887.5338, 48.09314
888.0159, 47.64141
888.4980, 47.10077
888.9801, 46.97876
889.4622, 47.27367
889.9443, 47.36458
890.4265, 47.02922
890.9086, 46.81249
891.3907, 46.92156
891.8728, 47.00958
892.3549, 46.78551
892.8370, 46.40483
893.3192, 46.20709
893.8013, 46.28902
894.2834, 46.34827
894.7655, 46.11554
895.2476, 45.91507
895.7297, 46.14954
896.2119, 46.55590
896.6940, 46.62299
897.1761, 46.30962
897.6582, 46.02418
898.1403, 46.05903
898.6224, 46.24489
899.1046, 46.33940
899.5867, 46.34453
900.0688, 46.24664
900.5509, 46.04803
901.0330, 45.87579
901.5151, 45.79490
901.9973, 45.72939
902.4794, 45.52814
902.9615, 45.19068
903.4436, 45.28804
903.9257, 46.15801
904.4078, 46.54800
904.8900, 45.83158
905.3721, 45.04088
905.8542, 45.08289
906.3363, 45.66752
906.8184, 45.87439
907.3005, 45.44917
907.7827, 45.23819
908.2648, 45.56695
908.7469, 45.88317
909.2290, 45.94371
909.7111, 45.82452
910.1932, 45.54722
910.6754, 45.17363
911.1575, 44.98194
911.6396, 45.19936
912.1217, 45.50975
912.6038, 45.70206
913.0859, 45.80139
913.5681, 45.74697
914.0502, 45.62822
914.5323, 45.81035
915.0143, 46.44277
915.4965, 47.00668
915.9786, 46.72566
916.4607, 45.89513
916.9428, 45.61906
917.4249, 45.85545
917.9070, 46.05508
918.3892, 46.08910
918.8713, 46.00894
919.3534, 45.83753
919.8355, 45.61405
920.3176, 45.43764
920.7997, 45.25655
921.2819, 45.35065
921.7640, 45.96442
922.2461, 46.37182
922.7282, 46.08553
923.2103, 45.61940
923.6924, 45.67462
924.1746, 46.21366
924.6567, 46.52840
925.1388, 46.42299
925.6209, 46.32489
926.1030, 46.38222
926.5851, 46.39966
927.0673, 46.14227
927.5494, 45.78352
928.0315, 45.67533
928.5136, 45.90933
928.9957, 46.13098
929.4778, 46.05936
929.9600, 45.99671
930.4421, 46.32786
930.9242, 46.76488
931.4063, 46.76800
931.8884, 46.37572
932.3705, 46.12226
932.8527, 46.32314
933.3348, 46.66088
933.8169, 46.71791
934.2990, 46.58812
934.7811, 46.55188
935.2632, 46.59478
935.7454, 46.50291
936.2275, 46.20550
936.7096, 45.85215
937.1917, 45.57249
937.6738, 45.37980
938.1559, 45.31627
938.6381, 45.37720
939.1202, 45.66227
939.6023, 46.29579
940.0844, 46.74598
940.5665, 46.62634
941.0486, 46.33448
941.5308, 46.56040
942.0129, 47.39087
942.4950, 47.78029
942.9771, 47.35081
943.4592, 47.05097
943.9413, 47.24702
944.4235, 47.37865
944.9056, 46.88508
945.3877, 46.11793
945.8698, 45.91942
946.3519, 46.56075
946.8340, 47.00600
947.3162, 46.78007
947.7983, 46.53725
948.2804, 46.78373
948.7625, 47.08866
949.2446, 46.77958
949.7267, 45.99952
950.2089, 45.59457
950.6910, 46.02993
951.1731, 46.61848
951.6552, 46.93696
952.1373, 47.01989
952.6194, 46.70039
953.1016, 46.21894
953.5837, 46.25430
954.0658, 46.91181
954.5479, 47.43156
955.0300, 47.12935
955.5121, 46.44006
955.9943, 46.11047
956.4764, 46.09306
956.9585, 46.25254
957.4406, 46.55804
957.9227, 46.84856
958.4048, 47.05513
958.8870, 47.15532
959.3691, 47.10099
959.8512, 46.91398
960.3333, 46.75012
960.8154, 46.59571
961.2975, 46.57335
961.7797, 46.71294
962.2618, 46.97434
962.7439, 47.38716
963.2260, 47.83778
963.7081, 48.09082
964.1902, 48.14293
964.6724, 48.00489
965.1545, 47.45882
965.6366, 47.08714
966.1187, 47.09367
966.6008, 47.25495
967.0829, 47.47445
967.5651, 47.70650
968.0472, 47.81075
968.5293, 47.76547
969.0114, 47.63148
969.4935, 47.22042
969.9756, 46.95316
970.4578, 47.11951
970.9399, 47.45199
971.4220, 47.65934
971.9041, 47.73993
972.3862, 47.86719
972.8683, 48.15945
973.3505, 48.37089
973.8326, 48.27410
974.3147, 48.13418
974.7968, 48.24108
975.2789, 48.46014
975.7610, 48.50397
976.2432, 48.33299
976.7253, 48.16610
977.2074, 48.14145
977.6895, 48.18976
978.1716, 48.22952
978.6537, 48.29324
979.1359, 48.46023
979.6180, 48.70820
980.1001, 48.95475
980.5822, 49.16478
981.0643, 49.29520
981.5464, 49.24392
982.0286, 49.14516
982.5107, 49.32741
982.9928, 49.74800
983.4749, 50.29423
983.9570, 50.92228
984.4391, 51.25335
984.9213, 51.06855
985.4034, 50.67800
985.8855, 50.50534
986.3676, 50.54092
986.8497, 50.76656
987.3318, 51.21462
987.8140, 51.43461
988.2961, 51.28793
988.7782, 51.14791
989.2603, 51.26259
989.7424, 51.53588
990.2245, 51.77998
990.7067, 51.99894
991.1888, 52.13562
991.6709, 52.07870
992.1530, 52.23882
992.6351, 52.90787
993.1172, 53.52724
993.5994, 53.61448
994.0815, 53.33593
994.5636, 53.18756
995.0457, 53.15916
995.5278, 53.29014
996.0099, 53.77991
996.4921, 54.16798
996.9742, 54.45830
997.4563, 54.50073
997.9384, 53.83207
998.4205, 52.79415
998.9026, 52.65419
999.3848, 54.08594
999.8669, 55.06688
1000.349, 55.00883
1000.831, 54.64826
1001.313, 53.99577
1001.795, 53.46360
1002.277, 53.61829
1002.760, 54.32800
1003.242, 54.84011
1003.724, 54.86723
1004.206, 54.79264
1004.688, 54.64628
1005.170, 54.61239
1005.652, 54.94368
1006.134, 55.42513
1006.617, 55.73700
1007.099, 55.84166
1007.581, 55.89046
1008.063, 55.93623
1008.545, 56.00658
1009.027, 56.28907
1009.509, 56.48030
1009.991, 55.97583
1010.473, 55.15567
1010.956, 54.94455
1011.438, 55.48901
1011.920, 56.12390
1012.402, 56.44864
1012.884, 56.53148
1013.366, 56.32641
1013.848, 56.00045
1014.330, 55.92560
1014.813, 56.03251
1015.295, 55.93358
1015.777, 55.53871
1016.259, 55.24035
1016.741, 55.39367
1017.223, 55.80880
1017.705, 56.22598
1018.187, 56.59977
1018.669, 56.76766
1019.152, 56.72062
1019.634, 56.38995
1020.116, 55.76395
1020.598, 55.42396
1021.080, 56.07654
1021.562, 57.26877
1022.044, 57.68831
1022.526, 57.39809
1023.008, 56.96902
1023.491, 56.45528
1023.973, 56.07335
1024.455, 55.91318
1024.937, 55.93179
1025.419, 56.10980
1025.901, 56.39732
1026.383, 56.53974
1026.865, 56.52002
1027.348, 56.62904
1027.830, 56.91674
1028.312, 57.22061
1028.794, 57.49458
1029.276, 57.65359
1029.758, 57.55009
1030.240, 57.24091
1030.722, 57.22876
1031.204, 57.64085
1031.687, 57.71580
1032.169, 57.18063
1032.651, 56.93301
1033.133, 57.54520
1033.615, 58.37741
1034.097, 58.56915
1034.579, 58.16949
1035.061, 57.92670
1035.544, 57.88838
1036.026, 57.88940
1036.508, 57.94366
1036.990, 57.97984
1037.472, 57.90804
1037.954, 57.86174
1038.436, 58.05110
1038.918, 58.46398
1039.401, 58.75282
1039.883, 58.87701
1040.365, 58.94645
1040.847, 58.90157
1041.329, 58.88959
1041.811, 58.93359
1042.293, 59.07536
1042.775, 59.51413
1043.257, 60.22799
1043.740, 60.37821
1044.222, 59.33027
1044.704, 58.70109
1045.186, 58.72676
1045.668, 59.00393
1046.150, 59.51057
1046.632, 60.07473
1047.114, 60.54596
1047.596, 60.90667
1048.079, 61.02349
1048.561, 60.72240
1049.043, 60.42493
1049.525, 59.98307
1050.007, 59.78014
1050.489, 60.17799
1050.971, 60.79677
1051.453, 61.26466
1051.936, 61.53733
1052.418, 61.52210
1052.900, 60.98634
1053.382, 60.53998
1053.864, 60.17912
1054.346, 60.06813
1054.828, 60.44587
1055.310, 61.01725
1055.792, 61.52161
1056.275, 61.90108
1056.757, 62.00679
1057.239, 61.63909
1057.721, 61.34537
1058.203, 61.30005
1058.685, 61.33738
1059.167, 61.25774
1059.649, 61.28587
1060.131, 61.83215
1060.614, 62.76622
1061.096, 63.39078
1061.578, 63.40681
1062.060, 63.40665
1062.542, 63.61173
1063.024, 63.83099
1063.506, 63.89605
1063.988, 63.95875
1064.471, 64.28696
1064.953, 64.78568
1065.435, 65.01337
1065.917, 64.74567
1066.399, 64.59127
1066.881, 64.71407
1067.363, 65.10691
1067.845, 66.08660
1068.328, 67.09591
1068.810, 67.42628
1069.292, 67.23616
1069.774, 67.17876
1070.256, 67.41199
1070.738, 67.90335
1071.220, 69.05904
1071.702, 69.97189
1072.184, 69.83839
1072.667, 69.40762
1073.149, 69.37585
1073.631, 69.75704
1074.113, 70.41521
1074.595, 71.34641
1075.077, 72.12806
1075.559, 72.51163
1076.041, 72.75538
1076.523, 72.89761
1077.006, 73.05729
1077.488, 73.29194
1077.970, 73.65052
1078.452, 74.29176
1078.934, 75.25088
1079.416, 76.00439
1079.898, 76.06042
1080.380, 76.18675
1080.862, 77.04983
1081.345, 77.92388
1081.827, 77.99841
1082.309, 77.64591
1082.791, 77.60782
1083.273, 78.02579
1083.755, 78.61018
1084.237, 79.38047
1084.719, 80.09475
1085.202, 80.61748
1085.684, 81.05600
1086.166, 81.35635
1086.648, 81.70369
1087.130, 82.49714
1087.612, 83.69114
1088.094, 84.55740
1088.576, 84.57839
1089.058, 84.71626
1089.541, 85.61778
1090.023, 86.53951
1090.505, 86.99406
1090.987, 87.12667
1091.469, 87.02061
1091.951, 86.80532
1092.433, 86.91242
1092.915, 87.60206
1093.397, 88.24366
1093.880, 88.42593
1094.362, 88.67601
1094.844, 89.45090
1095.326, 90.34173
1095.808, 90.89481
1096.290, 91.14568
1096.772, 91.30659
1097.254, 91.34692
1097.737, 91.70171
1098.219, 92.91358
1098.701, 93.96658
1099.183, 94.37868
1099.665, 94.45216
1100.147, 94.27125
1100.629, 94.03664
1101.111, 94.13542
1101.594, 94.65502
1102.076, 95.19313
1102.558, 95.75023
1103.040, 96.16797
1103.522, 96.47618
1104.004, 96.54931
1104.486, 95.96952
1104.968, 95.25514
1105.450, 95.36483
1105.932, 96.35335
1106.415, 97.02402
1106.897, 96.91239
1107.379, 96.82143
1107.861, 96.82388
1108.343, 96.97319
1108.825, 97.60241
1109.307, 98.18872
1109.789, 97.94446
1110.272, 96.99281
1110.754, 96.41298
1111.236, 96.50278
1111.718, 96.58676
1112.200, 96.64682
1112.682, 96.63930
1113.164, 96.38270
1113.646, 96.19422
1114.129, 96.58656
1114.611, 97.27686
1115.093, 97.23524
1115.575, 96.04979
1116.057, 95.38548
1116.539, 95.61502
1117.021, 95.80187
1117.503, 95.74045
1117.985, 95.61650
1118.468, 95.56982
1118.950, 95.52776
1119.432, 95.32342
1119.914, 94.93020
1120.396, 94.69198
1120.878, 94.61466
1121.360, 94.69992
1121.842, 95.11410
1122.324, 95.37903
1122.807, 95.21481
1123.289, 94.83965
1123.771, 94.48706
1124.253, 94.17451
1124.735, 94.06998
1125.217, 94.28576
1125.699, 94.31651
1126.181, 94.13418
1126.664, 93.75040
1127.146, 93.07629
1127.628, 92.45337
1128.110, 92.21143
1128.592, 92.24144
1129.074, 92.24727
1129.556, 92.23758
1130.038, 92.14149
1130.521, 91.98540
1131.003, 91.43530
1131.485, 90.30909
1131.967, 89.54446
1132.449, 89.83548
1132.931, 90.44505
1133.413, 90.10905
1133.895, 88.98814
1134.377, 88.18447
1134.859, 87.68818
1135.342, 87.39768
1135.824, 87.29566
1136.306, 87.22815
1136.788, 87.13132
1137.270, 86.97050
1137.752, 86.74626
1138.234, 86.35485
1138.716, 85.32336
1139.199, 83.89699
1139.681, 83.19615
1140.163, 83.18761
1140.645, 83.33920
1141.127, 83.45879
1141.609, 83.29221
1142.091, 82.64027
1142.573, 81.78881
1143.056, 81.06675
1143.538, 80.47582
1144.020, 80.11395
1144.502, 79.86422
1144.984, 79.36807
1145.466, 78.65573
1145.948, 78.13454
1146.430, 77.96996
1146.912, 77.79301
1147.395, 77.21397
1147.877, 76.53049
1148.359, 75.98047
1148.841, 75.60474
1149.323, 75.58935
1149.805, 75.75132
1150.287, 75.70657
1150.769, 75.36997
1151.251, 74.85720
1151.734, 74.09254
1152.216, 73.51878
1152.698, 73.77829
1153.180, 73.99015
1153.662, 73.24724
1154.144, 72.13175
1154.626, 71.32873
1155.108, 70.91749
1155.591, 70.84370
1156.073, 71.15928
1156.555, 71.38316
1157.037, 71.26460
1157.519, 71.13082
1158.001, 71.30286
1158.483, 71.32590
1158.965, 70.65257
1159.448, 69.68253
1159.930, 69.13808
1160.412, 69.07166
1160.894, 68.95432
1161.376, 68.58683
1161.858, 68.39175
1162.340, 68.54339
1162.822, 68.69891
1163.304, 68.84847
1163.786, 68.82702
1164.269, 68.29691
1164.751, 67.51359
1165.233, 67.41784
1165.715, 68.28017
1166.197, 68.62466
1166.679, 68.32324
1167.161, 67.81345
1167.643, 67.01315
1168.126, 66.50581
1168.608, 66.74197
1169.090, 67.21101
1169.572, 67.09822
1170.054, 66.52798
1170.536, 66.56959
1171.018, 67.27413
1171.500, 67.31599
1171.983, 66.55925
1172.465, 65.83260
1172.947, 65.41159
1173.429, 65.39061
1173.911, 65.93451
1174.393, 66.53431
1174.875, 65.97378
1175.357, 64.67731
1175.839, 64.35246
1176.322, 64.80445
1176.804, 65.12062
1177.286, 65.15923
1177.768, 65.17500
1178.250, 65.28510
1178.732, 65.40292
1179.214, 65.45625
1179.696, 65.45831
1180.178, 65.35667
1180.661, 65.26315
1181.143, 65.41482
1181.625, 65.70065
1182.107, 65.87605
1182.589, 65.88061
1183.071, 65.71136
1183.553, 65.29192
1184.035, 65.00711
1184.518, 65.25468
1185.000, 65.54579
1185.482, 65.45618
1185.964, 65.29519
1186.446, 65.45474
1186.928, 65.80865
1187.410, 66.03780
1187.892, 66.08842
1188.375, 65.94530
1188.857, 65.13935
1189.339, 64.83944
1189.821, 65.84951
1190.303, 66.74649
1190.785, 66.75043
1191.267, 66.36873
1191.749, 66.03071
1192.231, 65.79661
1192.714, 65.95103
1193.196, 66.71806
1193.678, 66.95991
1194.160, 66.37920
1194.642, 66.11076
1195.124, 66.47340
1195.606, 66.88815
1196.088, 67.00323
1196.570, 67.05796
1197.053, 67.41225
1197.535, 67.97775
1198.017, 68.32372
1198.499, 68.45197
1198.981, 68.44066
1199.463, 68.30302
1199.945, 68.18645
1200.427, 68.13582
1200.910, 68.21877
1201.392, 68.50268
1201.874, 68.75749
1202.356, 68.54760
1202.838, 68.13426
1203.320, 68.00504
1203.802, 68.14957
1204.284, 68.66722
1204.766, 69.41939
1205.249, 70.01504
1205.731, 70.32322
1206.213, 70.35254
1206.695, 69.88438
1207.177, 69.68172
1207.659, 70.84431
1208.141, 71.99636
1208.623, 71.66990
1209.105, 70.78821
1209.588, 70.53197
1210.070, 70.85062
1210.552, 71.13778
1211.034, 71.25439
1211.516, 71.48225
1211.998, 72.19722
1212.480, 72.57852
1212.962, 71.95692
1213.445, 71.50525
1213.927, 72.16212
1214.409, 73.04101
1214.891, 73.13796
1215.373, 72.63179
1215.855, 72.31284
1216.337, 72.19300
1216.819, 72.19984
1217.302, 72.30193
1217.784, 72.73367
1218.266, 73.66965
1218.748, 74.30392
1219.230, 74.14805
1219.712, 73.69297
1220.194, 73.53287
1220.676, 73.64361
1221.158, 74.12147
1221.641, 74.81532
1222.123, 74.68259
1222.605, 73.91801
1223.087, 73.92215
1223.569, 74.91361
1224.051, 75.93044
1224.533, 76.45370
1225.015, 76.48840
1225.497, 75.58527
1225.980, 74.64772
1226.462, 74.90457
1226.944, 75.64080
1227.426, 75.98758
1227.908, 76.01066
1228.390, 75.94909
1228.872, 75.89997
1229.354, 76.06826
1229.837, 76.62315
1230.319, 77.10830
1230.801, 77.44839
1231.283, 77.58216
1231.765, 77.25065
1232.247, 76.93348
1232.729, 77.02345
1233.211, 77.37820
1233.693, 77.77172
1234.176, 78.19630
1234.658, 78.39237
1235.140, 78.24638
1235.622, 78.19998
1236.104, 78.23026
1236.586, 78.56815
1237.068, 79.37399
1237.550, 80.06447
1238.032, 80.20143
1238.515, 80.03049
1238.997, 79.93389
1239.479, 79.89251
1239.961, 79.74917
1240.443, 79.58726
1240.925, 79.93423
1241.407, 80.67048
1241.889, 80.99981
1242.372, 80.74958
1242.854, 80.49751
1243.336, 80.61674
1243.818, 80.74403
1244.300, 80.35005
1244.782, 80.00062
1245.264, 80.36872
1245.746, 81.00758
1246.229, 81.53971
1246.711, 81.82985
1247.193, 81.51936
1247.675, 80.67394
1248.157, 80.47035
1248.639, 81.66482
1249.121, 82.56750
1249.603, 82.66085
1250.085, 82.73267
1250.568, 83.12691
1251.050, 83.44802
1251.532, 83.37824
1252.014, 83.12756
1252.496, 83.02343
1252.978, 83.06710
1253.460, 83.27327
1253.942, 83.64180
1254.424, 84.31693
1254.907, 85.33411
1255.389, 85.67551
1255.871, 85.07108
1256.353, 84.32825
1256.835, 83.95195
1257.317, 83.85088
1257.799, 83.97350
1258.281, 84.22400
1258.764, 84.43647
1259.246, 84.64710
1259.728, 84.96346
1260.210, 85.32249
1260.692, 85.58630
1261.174, 85.72280
1261.656, 85.73190
1262.138, 85.58458
1262.620, 85.46513
1263.103, 85.34055
1263.585, 85.42262
1264.067, 86.08080
1264.549, 86.68388
1265.031, 86.68332
1265.513, 86.43106
1265.995, 86.43381
1266.477, 86.64735
1266.959, 86.80394
1267.442, 86.81988
1267.924, 87.19947
1268.406, 88.11282
1268.888, 88.53902
1269.370, 88.21533
1269.852, 87.97742
1270.334, 88.25642
1270.816, 88.61712
1271.299, 88.57111
1271.781, 88.36363
1272.263, 88.53799
##END=



