##NAMES=Polydymite
##RRUFFID=R050609
##IDEAL CHEMISTRY=Ni^2+^Ni^3+^_2_S^2-^_4_
##LOCALITY=Dry Nickel mine, Bindura, South Rhodesia, Rhodesia
##OWNER=RRUFF
##SOURCE=University of Arizona Mineral Museum
##DESCRIPTION=Reddish-bronze tarnished metallic fragment associated with green clinochlore and white actinolite
##STATUS=The identification of this mineral has been confirmed by X-ray diffraction.
##URL=rruff.info/R050609
##MEASURED CHEMISTRY=(Ni_0.85_Fe_0.15_)Ni_2.00_S_4.00_
91.11523, 5.922859
91.59735, 5.637059
92.07947, 5.925324
92.56158, 6.596056
93.04370, 7.044945
93.52582, 6.848142
94.00793, 6.196260
94.49006, 5.408541
94.97218, 4.412686
95.45429, 3.526726
95.93641, 3.361475
96.41853, 3.901355
96.90064, 4.507885
97.38276, 4.800141
97.86488, 4.785248
98.34699, 4.490455
98.82911, 3.802623
99.31123, 2.899620
99.79334, 2.410662
100.2755, 2.407502
100.7576, 2.584786
101.2397, 2.637294
101.7218, 2.494910
102.2039, 2.590510
102.6861, 3.138287
103.1682, 4.133995
103.6503, 4.640872
104.1324, 4.471232
104.6145, 4.025885
105.0966, 3.780922
105.5788, 3.831670
106.0609, 3.925330
106.5430, 4.028439
107.0251, 4.193734
107.5072, 4.181784
107.9893, 3.960230
108.4715, 3.568519
108.9536, 3.066339
109.4357, 1.704696
109.9178, 0.9011582
110.3999, 1.196306
110.8820, 3.715832
111.3642, 5.475736
111.8463, 6.192786
112.3284, 6.060744
112.8105, 5.639945
113.2926, 4.377177
113.7747, 3.256448
114.2569, 2.794567
114.7390, 3.761853
115.2211, 4.591603
115.7032, 4.793534
116.1853, 4.495895
116.6674, 4.350244
117.1496, 4.835078
117.6317, 5.443068
118.1138, 5.751931
118.5959, 5.054200
119.0780, 4.525633
119.5602, 4.879016
120.0423, 6.075821
120.5244, 7.241503
121.0065, 7.834315
121.4886, 8.113758
121.9707, 8.423540
122.4529, 8.906562
122.9350, 9.472843
123.4171, 10.14579
123.8992, 10.95094
124.3813, 11.54094
124.8634, 11.39305
125.3456, 10.79275
125.8277, 10.38707
126.3098, 10.78898
126.7919, 11.50023
127.2740, 11.63523
127.7561, 10.97179
128.2383, 10.34721
128.7204, 10.99502
129.2025, 12.69462
129.6846, 14.28786
130.1667, 14.92720
130.6488, 14.88791
131.1310, 15.10075
131.6131, 15.76753
132.0952, 16.55868
132.5773, 16.80771
133.0594, 16.50551
133.5415, 16.17348
134.0237, 16.09125
134.5058, 16.26473
134.9879, 16.78332
135.4700, 17.74079
135.9521, 19.00653
136.4343, 20.23000
136.9164, 21.41947
137.3985, 22.54760
137.8806, 23.56475
138.3627, 24.45001
138.8448, 25.46444
139.3270, 26.83880
139.8091, 28.46835
140.2912, 29.23974
140.7733, 28.91807
141.2554, 28.16533
141.7375, 27.62635
142.2197, 27.31928
142.7018, 27.17715
143.1839, 27.26845
143.6660, 27.62792
144.1481, 27.64094
144.6302, 27.01013
145.1124, 26.28413
145.5945, 26.13362
146.0766, 26.60890
146.5587, 27.59878
147.0408, 29.24473
147.5230, 31.86370
148.0051, 33.88649
148.4872, 34.90179
148.9693, 35.18542
149.4514, 35.46484
149.9335, 35.80350
150.4157, 36.07891
150.8978, 36.20935
151.3799, 35.95289
151.8620, 36.06650
152.3441, 37.11723
152.8262, 38.48610
153.3084, 38.97604
153.7905, 37.53865
154.2726, 36.06764
154.7547, 35.29274
155.2368, 36.04952
155.7189, 36.20279
156.2011, 34.98770
156.6832, 32.96193
157.1653, 31.53125
157.6474, 31.50250
158.1295, 31.74058
158.6116, 31.66558
159.0938, 30.93218
159.5759, 30.23121
160.0580, 29.62459
160.5401, 29.15534
161.0222, 28.98024
161.5044, 29.50275
161.9865, 30.12892
162.4686, 30.45050
162.9507, 30.15340
163.4328, 29.78298
163.9149, 29.59198
164.3971, 29.53015
164.8792, 29.35522
165.3613, 28.58782
165.8434, 27.81278
166.3255, 27.56981
166.8076, 28.59085
167.2898, 29.69346
167.7719, 30.22604
168.2540, 30.23209
168.7361, 30.06900
169.2182, 29.70052
169.7003, 29.35190
170.1825, 29.29258
170.6646, 29.92238
171.1467, 30.67288
171.6288, 31.12036
172.1109, 31.26634
172.5931, 31.25438
173.0752, 31.26124
173.5573, 31.17008
174.0394, 30.78882
174.5215, 29.63651
175.0036, 28.36146
175.4858, 27.71494
175.9679, 27.70486
176.4500, 27.98558
176.9321, 28.38811
177.4142, 28.86549
177.8963, 29.30315
178.3785, 29.75186
178.8606, 30.10667
179.3427, 30.17575
179.8248, 29.95009
180.3069, 29.55717
180.7890, 28.98996
181.2712, 28.33089
181.7533, 27.85280
182.2354, 27.76551
182.7175, 27.93867
183.1996, 28.07895
183.6818, 28.16187
184.1639, 28.30832
184.6460, 28.77529
185.1281, 29.48617
185.6102, 30.06006
186.0923, 30.30651
186.5745, 30.26856
187.0566, 29.99774
187.5387, 29.43118
188.0208, 28.85955
188.5029, 28.71786
188.9850, 28.97583
189.4672, 29.25495
189.9493, 29.42837
190.4314, 29.48311
190.9135, 29.28839
191.3956, 28.75965
191.8777, 28.18191
192.3599, 28.08547
192.8420, 28.47385
193.3241, 28.76294
193.8062, 28.54729
194.2883, 27.88116
194.7704, 27.40308
195.2526, 27.15348
195.7347, 27.08502
196.2168, 27.12981
196.6989, 27.28976
197.1810, 27.53035
197.6632, 27.90209
198.1453, 28.40700
198.6274, 28.70773
199.1095, 28.75099
199.5916, 28.63286
200.0737, 28.51850
200.5559, 28.39670
201.0380, 28.34512
201.5201, 28.40758
202.0022, 28.58795
202.4843, 28.87973
202.9664, 29.36978
203.4486, 29.88337
203.9307, 29.96958
204.4128, 29.54830
204.8949, 29.02763
205.3770, 28.57306
205.8591, 28.16226
206.3413, 27.98696
206.8234, 28.09538
207.3055, 28.41480
207.7876, 28.81048
208.2697, 29.34065
208.7519, 29.76166
209.2340, 29.91600
209.7161, 29.74852
210.1982, 29.58758
210.6803, 29.44507
211.1624, 29.32258
211.6446, 29.23244
212.1267, 29.19260
212.6088, 29.14389
213.0909, 29.03414
213.5730, 28.82131
214.0551, 28.72396
214.5373, 28.80399
215.0194, 28.98532
215.5015, 28.99842
215.9836, 28.67882
216.4657, 28.52967
216.9478, 28.93680
217.4300, 30.25807
217.9121, 30.93229
218.3942, 30.63504
218.8763, 29.73679
219.3584, 29.34526
219.8405, 29.66598
220.3227, 30.11964
220.8048, 30.42124
221.2869, 30.52304
221.7690, 30.60660
222.2511, 30.64402
222.7333, 30.67608
223.2154, 30.82769
223.6975, 31.14681
224.1796, 31.50831
224.6617, 31.85413
225.1438, 32.17405
225.6260, 32.52634
226.1081, 33.01811
226.5902, 33.51552
227.0723, 33.57748
227.5544, 32.94307
228.0365, 32.28800
228.5187, 31.93755
229.0008, 32.02664
229.4829, 32.07811
229.9650, 32.00645
230.4471, 31.91568
230.9292, 32.12808
231.4114, 32.92551
231.8935, 33.59720
232.3756, 33.78030
232.8577, 33.17492
233.3398, 32.81291
233.8220, 32.83014
234.3041, 33.04562
234.7862, 32.98568
235.2683, 32.42929
235.7504, 31.94045
236.2325, 31.75973
236.7147, 32.00113
237.1968, 32.28202
237.6789, 32.68079
238.1610, 33.09005
238.6431, 33.24862
239.1252, 32.99170
239.6074, 32.74394
240.0895, 32.69785
240.5716, 32.99368
241.0537, 33.07935
241.5358, 32.86535
242.0179, 32.48430
242.5001, 32.19168
242.9822, 32.00956
243.4643, 31.87772
243.9464, 31.76650
244.4285, 31.64917
244.9106, 31.65732
245.3928, 31.90667
245.8749, 32.21102
246.3570, 32.21077
246.8391, 31.67709
247.3212, 31.23235
247.8034, 31.11486
248.2855, 31.43398
248.7676, 31.61086
249.2497, 31.56645
249.7318, 31.43997
250.2139, 31.45718
250.6961, 31.72551
251.1782, 31.94464
251.6603, 32.04052
252.1424, 32.01293
252.6245, 31.82784
253.1066, 31.30620
253.5888, 30.78617
254.0709, 30.75970
254.5530, 31.52331
255.0351, 32.17543
255.5172, 32.44860
255.9993, 32.30614
256.4815, 32.20322
256.9636, 32.17724
257.4457, 32.15154
257.9278, 32.01198
258.4099, 31.65736
258.8921, 31.42108
259.3742, 31.39489
259.8563, 31.58139
260.3384, 31.82583
260.8205, 32.22426
261.3026, 32.54966
261.7848, 32.53928
262.2669, 32.05904
262.7490, 31.60615
263.2311, 31.24412
263.7132, 30.97795
264.1953, 30.97258
264.6775, 31.36624
265.1596, 31.79682
265.6417, 31.91722
266.1238, 31.62287
266.6059, 31.37146
267.0880, 31.20714
267.5702, 31.14300
268.0523, 31.31250
268.5344, 31.80896
269.0165, 32.35262
269.4986, 32.75602
269.9807, 33.02364
270.4629, 33.12267
270.9450, 32.96923
271.4271, 32.66302
271.9092, 32.65561
272.3913, 33.05000
272.8734, 33.45048
273.3556, 33.56560
273.8377, 33.34725
274.3198, 33.15841
274.8019, 32.99642
275.2840, 32.90906
275.7661, 33.09655
276.2483, 33.64081
276.7304, 34.11654
277.2125, 34.19952
277.6946, 33.85360
278.1768, 33.66785
278.6589, 33.69230
279.1410, 33.87404
279.6231, 34.12456
280.1052, 34.45302
280.5873, 34.80702
281.0695, 35.24776
281.5516, 35.77296
282.0337, 35.87477
282.5158, 35.40297
282.9979, 34.80072
283.4800, 34.86426
283.9622, 35.62602
284.4443, 36.35413
284.9264, 36.67990
285.4085, 36.65313
285.8906, 36.73432
286.3727, 36.92390
286.8549, 37.21773
287.3370, 37.62017
287.8191, 38.12933
288.3012, 38.72345
288.7833, 39.49033
289.2654, 40.32820
289.7476, 40.85090
290.2297, 41.03919
290.7118, 41.06664
291.1939, 41.01083
291.6760, 40.90924
292.1581, 41.00342
292.6403, 41.47533
293.1224, 42.12993
293.6045, 42.53369
294.0866, 42.68302
294.5687, 42.69590
295.0508, 42.61027
295.5330, 42.45778
296.0151, 42.34229
296.4972, 42.26765
296.9793, 42.26464
297.4614, 42.39893
297.9435, 42.66261
298.4257, 42.99217
298.9078, 43.49426
299.3899, 44.01751
299.8720, 44.17142
300.3541, 43.77834
300.8362, 43.24049
301.3184, 43.18684
301.8005, 43.47293
302.2826, 43.50753
302.7647, 42.56123
303.2469, 41.26246
303.7290, 40.60898
304.2111, 40.85328
304.6932, 41.23406
305.1753, 40.98909
305.6574, 40.30558
306.1396, 39.63393
306.6217, 39.13498
307.1038, 38.78666
307.5859, 38.61734
308.0680, 38.64468
308.5501, 38.65037
309.0323, 38.42595
309.5144, 38.07721
309.9965, 37.77362
310.4786, 37.82572
310.9607, 37.77378
311.4428, 37.10537
311.9250, 35.84569
312.4071, 34.76859
312.8892, 34.42505
313.3713, 34.48862
313.8534, 34.61942
314.3355, 34.80347
314.8177, 34.93758
315.2998, 35.00475
315.7819, 34.99241
316.2640, 34.83094
316.7461, 34.33360
317.2282, 33.76256
317.7104, 33.31736
318.1925, 33.12487
318.6746, 32.93975
319.1567, 32.64961
319.6388, 32.29865
320.1209, 32.01305
320.6031, 31.80877
321.0852, 31.69696
321.5673, 31.70362
322.0494, 31.90998
322.5315, 32.05246
323.0136, 32.04194
323.4958, 31.94036
323.9779, 31.84811
324.4600, 31.97196
324.9421, 31.93606
325.4242, 31.52472
325.9064, 30.58403
326.3885, 29.91680
326.8706, 29.70799
327.3527, 29.75431
327.8348, 29.83716
328.3170, 29.92928
328.7991, 30.08215
329.2812, 30.36614
329.7633, 30.79054
330.2454, 31.01556
330.7275, 30.93339
331.2097, 30.73562
331.6918, 30.54205
332.1739, 30.25918
332.6560, 30.14380
333.1381, 30.33528
333.6202, 30.73304
334.1024, 30.82167
334.5845, 30.41031
335.0666, 29.97259
335.5487, 29.74766
336.0308, 29.76960
336.5129, 29.91814
336.9951, 30.22123
337.4772, 30.62912
337.9593, 31.06651
338.4414, 31.55399
338.9235, 32.02144
339.4056, 32.51112
339.8878, 33.04756
340.3699, 33.13265
340.8520, 32.57158
341.3341, 31.93188
341.8162, 32.00722
342.2983, 32.85894
342.7805, 33.77417
343.2626, 34.60812
343.7447, 35.33128
344.2268, 35.65340
344.7089, 35.51215
345.1910, 35.35466
345.6732, 35.66033
346.1553, 36.37220
346.6374, 37.00236
347.1195, 37.45417
347.6016, 37.77629
348.0837, 38.07589
348.5659, 38.35258
349.0480, 38.55157
349.5301, 38.63976
350.0122, 38.62327
350.4944, 38.47304
350.9765, 38.14560
351.4586, 37.82609
351.9407, 37.86742
352.4228, 38.14209
352.9049, 38.22612
353.3871, 37.84083
353.8692, 37.03118
354.3513, 37.03451
354.8334, 36.96265
355.3155, 36.81968
355.7976, 36.39250
356.2798, 36.33228
356.7619, 35.91449
357.2440, 35.58279
357.7261, 35.17587
358.2082, 34.69785
358.6903, 33.93561
359.1725, 33.54027
359.6546, 33.43624
360.1367, 33.66763
360.6188, 33.83184
361.1009, 33.82590
361.5830, 33.71510
362.0652, 33.39916
362.5473, 32.99025
363.0294, 32.76472
363.5115, 33.11578
363.9936, 33.44261
364.4757, 33.39312
364.9579, 32.78303
365.4400, 32.27804
365.9221, 32.08728
366.4042, 32.04992
366.8863, 31.96205
367.3684, 31.62942
367.8506, 31.41269
368.3327, 31.49039
368.8148, 31.90655
369.2969, 32.06224
369.7790, 31.67831
370.2611, 31.22826
370.7433, 31.02942
371.2254, 31.07604
371.7075, 31.39771
372.1896, 32.14883
372.6717, 33.19494
373.1538, 33.96903
373.6360, 34.43183
374.1181, 34.68546
374.6002, 34.70787
375.0823, 34.35750
375.5645, 34.30257
376.0466, 34.62617
376.5287, 35.15246
377.0108, 35.36029
377.4929, 35.79679
377.9750, 36.15814
378.4572, 36.44840
378.9393, 36.45441
379.4214, 36.82738
379.9035, 37.05332
380.3856, 37.27320
380.8677, 37.69785
381.3499, 37.74526
381.8320, 38.67706
382.3141, 38.88395
382.7962, 38.83485
383.2783, 39.11237
383.7604, 39.69333
384.2426, 40.21466
384.7247, 40.26462
385.2068, 40.09211
385.6889, 40.35773
386.1710, 41.21787
386.6531, 42.15612
387.1353, 42.61744
387.6174, 42.72032
388.0995, 42.78009
388.5816, 43.05532
389.0637, 43.29556
389.5458, 43.26656
390.0280, 42.96448
390.5101, 42.44125
390.9922, 41.57160
391.4743, 40.56567
391.9564, 39.64272
392.4385, 38.88079
392.9207, 38.21010
393.4028, 37.60206
393.8849, 37.06218
394.3670, 36.60577
394.8491, 36.41298
395.3312, 36.18269
395.8134, 35.69799
396.2955, 34.78164
396.7776, 34.03178
397.2597, 33.69411
397.7418, 33.56687
398.2239, 33.38482
398.7061, 33.22587
399.1882, 32.89841
399.6703, 32.22018
400.1524, 31.16152
400.6346, 30.48353
401.1167, 30.48286
401.5988, 30.61248
402.0809, 30.48500
402.5630, 29.83279
403.0451, 29.46093
403.5273, 29.53968
404.0094, 29.89974
404.4915, 30.08487
404.9736, 30.10698
405.4557, 29.91921
405.9378, 29.40273
406.4200, 28.50296
406.9021, 27.91677
407.3842, 27.68103
407.8663, 27.68446
408.3484, 27.89596
408.8305, 28.32348
409.3127, 28.55785
409.7948, 28.45805
410.2769, 28.10738
410.7590, 27.61275
411.2411, 26.97129
411.7232, 26.54294
412.2054, 26.82942
412.6875, 27.54623
413.1696, 27.85430
413.6517, 27.57192
414.1338, 27.08475
414.6159, 26.82170
415.0981, 26.71560
415.5802, 26.58712
416.0623, 26.20491
416.5444, 25.83777
417.0265, 25.79048
417.5086, 26.06757
417.9908, 26.44390
418.4729, 26.96717
418.9550, 27.43591
419.4371, 27.61510
419.9192, 27.18149
420.4013, 26.76403
420.8835, 26.76424
421.3656, 27.01174
421.8477, 26.99224
422.3298, 26.09498
422.8119, 25.26826
423.2940, 24.98965
423.7762, 25.49981
424.2583, 25.96447
424.7404, 26.44907
425.2225, 26.77459
425.7047, 26.73633
426.1868, 25.82362
426.6689, 25.22803
427.1510, 25.24750
427.6331, 25.81853
428.1152, 26.19600
428.5974, 26.29550
429.0795, 26.33370
429.5616, 26.45785
430.0437, 26.71540
430.5258, 26.84247
431.0079, 26.78765
431.4901, 26.64618
431.9722, 26.62042
432.4543, 26.73201
432.9364, 26.73423
433.4185, 26.45777
433.9006, 25.98972
434.3828, 25.78104
434.8649, 25.85275
435.3470, 25.92601
435.8291, 25.50810
436.3112, 24.85340
436.7933, 24.92789
437.2755, 26.23657
437.7576, 27.66390
438.2397, 27.52121
438.7218, 26.22338
439.2039, 25.15607
439.6860, 25.31436
440.1682, 25.94991
440.6503, 26.37465
441.1324, 26.54887
441.6145, 26.45333
442.0966, 25.66324
442.5787, 24.75982
443.0609, 24.37338
443.5430, 25.30672
444.0251, 26.13764
444.5072, 26.23976
444.9893, 25.80529
445.4714, 25.53560
445.9536, 25.87992
446.4357, 26.17773
446.9178, 26.12303
447.3999, 25.56192
447.8820, 25.00490
448.3641, 24.20418
448.8463, 23.55642
449.3284, 23.54329
449.8105, 24.69506
450.2926, 25.50425
450.7747, 25.61677
451.2569, 25.15679
451.7390, 24.90199
452.2211, 24.91926
452.7032, 24.96531
453.1853, 24.87739
453.6674, 24.64235
454.1496, 24.48298
454.6317, 24.40640
455.1138, 24.40605
455.5959, 24.51636
456.0780, 24.72415
456.5602, 24.86538
457.0423, 24.81980
457.5244, 24.71168
458.0065, 24.88903
458.4886, 25.31483
458.9707, 25.58895
459.4529, 25.22957
459.9350, 24.58503
460.4171, 24.20241
460.8992, 24.20257
461.3813, 24.31960
461.8634, 24.34790
462.3456, 24.35270
462.8277, 24.44314
463.3098, 24.84904
463.7919, 25.18995
464.2740, 25.24150
464.7561, 25.01465
465.2383, 24.75135
465.7204, 24.46725
466.2025, 24.20640
466.6846, 23.98802
467.1667, 23.69952
467.6488, 23.64142
468.1310, 24.01330
468.6131, 24.57208
469.0952, 24.94925
469.5773, 25.15815
470.0594, 25.15296
470.5415, 24.82747
471.0237, 24.20278
471.5058, 23.86673
471.9879, 23.89585
472.4700, 24.04326
472.9521, 24.14228
473.4342, 24.19254
473.9164, 24.22256
474.3985, 24.24330
474.8806, 24.22823
475.3627, 24.07695
475.8448, 23.81053
476.3270, 23.64954
476.8091, 23.75927
477.2912, 24.00952
477.7733, 24.17671
478.2554, 24.25967
478.7375, 24.23931
479.2197, 23.91370
479.7018, 23.53946
480.1839, 23.52526
480.6660, 24.07994
481.1481, 24.63478
481.6302, 24.80541
482.1124, 24.72607
482.5945, 24.62386
483.0766, 24.60404
483.5587, 24.55850
484.0408, 24.40927
484.5229, 24.16087
485.0051, 23.97783
485.4872, 24.03126
485.9693, 24.05795
486.4514, 23.87293
486.9335, 23.04486
487.4156, 22.77209
487.8978, 23.42752
488.3799, 24.43930
488.8620, 24.87324
489.3441, 24.45139
489.8262, 24.16953
490.3083, 24.42817
490.7905, 25.08250
491.2726, 24.90466
491.7547, 23.72052
492.2368, 22.55490
492.7189, 22.34324
493.2010, 22.91939
493.6832, 23.09888
494.1653, 22.69540
494.6474, 22.19517
495.1295, 22.20974
495.6116, 22.63491
496.0938, 23.15219
496.5759, 23.76493
497.0580, 24.30581
497.5401, 24.65983
498.0222, 24.80566
498.5044, 24.61730
498.9865, 23.53702
499.4686, 22.39845
499.9507, 21.93388
500.4328, 22.42040
500.9149, 22.91407
501.3971, 23.01010
501.8792, 22.97935
502.3613, 23.13515
502.8434, 24.00064
503.3255, 24.52053
503.8076, 24.32490
504.2898, 23.59260
504.7719, 23.14810
505.2540, 23.10772
505.7361, 23.18604
506.2182, 23.30692
506.7003, 23.50315
507.1825, 23.47902
507.6646, 23.14395
508.1467, 22.78255
508.6288, 22.80975
509.1109, 23.22335
509.5930, 23.30035
510.0752, 22.72341
510.5573, 21.99278
511.0394, 22.22357
511.5215, 23.26796
512.0037, 24.19244
512.4858, 24.41013
512.9679, 24.22763
513.4500, 24.00841
513.9321, 23.76901
514.4142, 23.60816
514.8964, 23.70687
515.3785, 23.87023
515.8606, 23.86723
516.3427, 23.48808
516.8248, 23.21163
517.3069, 23.39812
517.7891, 23.79229
518.2712, 23.92135
518.7533, 23.34555
519.2354, 22.83235
519.7175, 22.56888
520.1996, 22.54978
520.6818, 22.78584
521.1639, 23.62133
521.6460, 24.28854
522.1281, 24.19347
522.6102, 22.95179
523.0923, 22.53018
523.5745, 23.23504
524.0566, 24.32946
524.5387, 24.73158
525.0208, 24.44521
525.5029, 24.07087
525.9850, 23.70106
526.4672, 23.42361
526.9493, 23.54620
527.4314, 24.01616
527.9135, 24.35792
528.3956, 24.15590
528.8777, 23.70394
529.3599, 23.40067
529.8420, 23.28282
530.3241, 23.21595
530.8062, 23.08520
531.2883, 22.96435
531.7704, 22.94250
532.2526, 23.15039
532.7347, 23.31847
533.2168, 23.30002
533.6989, 23.18400
534.1810, 23.17828
534.6631, 23.61142
535.1453, 23.84612
535.6274, 23.64875
536.1095, 23.00281
536.5916, 22.45385
537.0737, 21.92451
537.5558, 21.60363
538.0380, 21.69106
538.5201, 22.26966
539.0022, 22.69818
539.4843, 22.93037
539.9664, 23.01685
540.4485, 22.91816
540.9307, 22.67544
541.4128, 22.66335
541.8949, 23.16381
542.3770, 23.80529
542.8591, 23.91964
543.3412, 23.59212
543.8234, 23.28530
544.3055, 23.33435
544.7876, 23.50748
545.2697, 23.60999
545.7518, 23.62553
546.2339, 23.53262
546.7161, 23.17687
547.1982, 22.78518
547.6803, 22.55090
548.1624, 22.56936
548.6445, 22.68212
549.1266, 22.99500
549.6088, 23.37122
550.0909, 23.53127
550.5730, 23.37708
551.0551, 23.15155
551.5372, 22.82507
552.0193, 22.44130
552.5015, 22.55536
552.9836, 23.31602
553.4657, 24.05095
553.9478, 24.27694
554.4299, 24.03794
554.9120, 23.79005
555.3942, 23.56638
555.8763, 23.30132
556.3584, 22.79034
556.8405, 22.17665
557.3226, 21.84753
557.8047, 22.04220
558.2869, 22.37904
558.7690, 22.50673
559.2511, 22.49560
559.7332, 22.52176
560.2154, 22.86621
560.6975, 23.09541
561.1796, 22.82203
561.6617, 22.01710
562.1439, 21.61227
562.6260, 22.18092
563.1081, 22.91421
563.5902, 23.34420
564.0723, 23.31383
564.5544, 23.30766
565.0366, 23.31753
565.5187, 23.35933
566.0008, 23.48092
566.4829, 23.71397
566.9650, 23.84458
567.4471, 23.79425
567.9293, 23.64420
568.4114, 23.65495
568.8935, 23.80704
569.3756, 23.82577
569.8577, 23.42938
570.3398, 22.83813
570.8220, 22.46438
571.3041, 22.30425
571.7862, 22.18224
572.2683, 21.82296
572.7504, 21.51678
573.2325, 21.61778
573.7147, 22.40497
574.1968, 23.03840
574.6789, 23.06965
575.1610, 22.81688
575.6431, 22.69105
576.1252, 22.82547
576.6074, 23.01195
577.0895, 23.29217
577.5716, 23.60820
578.0537, 23.75696
578.5358, 23.76063
579.0179, 23.53279
579.5001, 22.90150
579.9822, 21.91364
580.4643, 21.46505
580.9464, 21.60044
581.4285, 21.96416
581.9106, 22.38752
582.3928, 22.80580
582.8749, 22.94040
583.3570, 22.69398
583.8391, 22.46720
584.3212, 22.77462
584.8033, 23.35118
585.2855, 23.74824
585.7676, 23.81006
586.2497, 23.64280
586.7318, 23.07474
587.2139, 22.29723
587.6960, 21.85781
588.1782, 22.27360
588.6603, 22.68038
589.1424, 22.73960
589.6245, 22.43114
590.1066, 22.23908
590.5887, 22.17179
591.0709, 22.21072
591.5530, 22.40614
592.0351, 22.81177
592.5172, 22.92461
592.9993, 22.65510
593.4814, 22.30807
593.9636, 22.25023
594.4457, 22.45217
594.9278, 22.80132
595.4099, 23.39198
595.8920, 23.89307
596.3741, 23.77285
596.8563, 23.21130
597.3384, 22.67289
597.8205, 22.44489
598.3026, 22.26869
598.7847, 21.84693
599.2668, 21.23980
599.7490, 21.03682
600.2311, 21.94358
600.7132, 22.87185
601.1953, 23.18265
601.6774, 22.57827
602.1595, 22.36164
602.6417, 22.75575
603.1238, 23.27472
603.6059, 23.45506
604.0880, 23.23785
604.5701, 23.01915
605.0522, 22.82955
605.5344, 22.68284
606.0165, 22.60766
606.4986, 22.60086
606.9807, 22.65973
607.4628, 22.85282
607.9449, 23.04380
608.4271, 22.99749
608.9092, 22.76773
609.3913, 22.56563
609.8735, 22.45701
610.3556, 22.45691
610.8377, 22.61654
611.3198, 22.94324
611.8019, 23.23477
612.2841, 23.57325
612.7662, 23.76254
613.2483, 23.62805
613.7304, 22.85893
614.2125, 22.53358
614.6946, 22.95466
615.1768, 23.48983
615.6589, 23.24181
616.1410, 22.03436
616.6231, 21.34759
617.1052, 21.57548
617.5873, 22.24637
618.0695, 22.35137
618.5516, 22.00776
619.0337, 21.87238
619.5158, 22.51684
619.9979, 23.35636
620.4800, 23.68551
620.9622, 23.55788
621.4443, 23.24738
621.9264, 22.65214
622.4085, 22.11446
622.8906, 21.88224
623.3727, 22.02577
623.8549, 22.14567
624.3370, 22.08355
624.8191, 22.03641
625.3012, 22.13292
625.7833, 22.42059
626.2654, 22.78135
626.7476, 23.34832
627.2297, 23.80581
627.7118, 23.54692
628.1939, 22.54468
628.6760, 21.94646
629.1581, 22.12401
629.6403, 22.64597
630.1224, 22.82184
630.6045, 22.71085
631.0866, 22.53408
631.5687, 22.28572
632.0508, 22.10513
632.5330, 22.18662
633.0151, 22.47899
633.4972, 22.70968
633.9793, 22.61717
634.4614, 22.55584
634.9435, 22.80680
635.4257, 23.52433
635.9078, 23.79163
636.3899, 23.22997
636.8720, 22.58053
637.3541, 22.41360
637.8362, 22.88897
638.3184, 23.06760
638.8005, 22.82865
639.2826, 22.48664
639.7647, 22.48968
640.2468, 22.78444
640.7289, 22.99789
641.2111, 23.02682
641.6932, 22.96585
642.1753, 22.89361
642.6574, 22.82183
643.1395, 22.77983
643.6216, 22.87092
644.1038, 22.91157
644.5859, 22.71410
645.0680, 22.34934
645.5501, 22.14739
646.0322, 22.47919
646.5143, 22.68976
646.9965, 22.38954
647.4786, 21.50878
647.9607, 21.44833
648.4428, 22.59721
648.9249, 23.77292
649.4070, 24.13981
649.8892, 23.71420
650.3713, 23.35155
650.8534, 23.07714
651.3355, 22.90459
651.8176, 22.84223
652.2997, 22.89170
652.7819, 23.08731
653.2640, 23.49878
653.7461, 23.87983
654.2282, 24.07892
654.7103, 24.11558
655.1924, 24.01937
655.6746, 23.59577
656.1567, 23.26612
656.6388, 23.18763
657.1209, 23.28738
657.6030, 23.36406
658.0851, 23.41836
658.5673, 23.44926
659.0494, 23.45239
659.5316, 23.43159
660.0137, 23.40733
660.4958, 23.37935
660.9779, 23.35341
661.4600, 23.32638
661.9421, 23.30472
662.4243, 23.34674
662.9064, 23.44935
663.3885, 23.45021
663.8706, 23.12164
664.3527, 22.68900
664.8348, 22.34519
665.3170, 22.09522
665.7991, 22.04999
666.2812, 22.54409
666.7633, 23.10129
667.2454, 23.23992
667.7275, 22.46989
668.2097, 22.14914
668.6918, 22.53274
669.1739, 23.17299
669.6560, 23.31550
670.1381, 22.90152
670.6202, 22.64717
671.1024, 22.78657
671.5845, 23.08107
672.0666, 23.02207
672.5487, 22.70918
673.0308, 22.53022
673.5129, 22.85916
673.9951, 23.26319
674.4772, 23.37174
674.9593, 23.22841
675.4414, 23.03127
675.9235, 22.64597
676.4056, 22.41582
676.8878, 22.58558
677.3699, 23.19495
677.8520, 23.60714
678.3341, 23.74192
678.8162, 23.79418
679.2983, 23.90163
679.7805, 24.08273
680.2626, 24.01267
680.7447, 23.66034
681.2268, 23.22822
681.7089, 22.84540
682.1910, 22.54230
682.6732, 22.44737
683.1553, 22.61624
683.6374, 22.79575
684.1195, 22.71654
684.6016, 22.55570
685.0837, 22.54049
685.5659, 22.91958
686.0480, 23.18871
686.5301, 23.12930
687.0122, 22.91374
687.4943, 22.83544
687.9764, 22.93351
688.4586, 23.09783
688.9407, 23.34553
689.4228, 23.62538
689.9049, 23.81626
690.3870, 23.91965
690.8691, 23.92690
691.3513, 23.84968
691.8334, 23.66411
692.3155, 23.13040
692.7976, 22.37572
693.2797, 21.98711
693.7618, 22.79600
694.2440, 23.69338
694.7261, 23.77019
695.2082, 23.01927
695.6903, 22.54919
696.1724, 22.92919
696.6545, 23.37169
697.1367, 23.50007
697.6188, 23.25400
698.1009, 23.12391
698.5830, 23.13715
699.0651, 23.20712
699.5472, 23.26019
700.0294, 23.30345
700.5115, 23.41089
700.9936, 23.59483
701.4757, 23.78415
701.9578, 23.92295
702.4399, 24.01391
702.9221, 24.04192
703.4042, 23.94990
703.8863, 23.94337
704.3684, 24.26358
704.8505, 24.67122
705.3326, 24.88277
705.8148, 24.76083
706.2969, 24.54059
706.7790, 24.13244
707.2611, 23.69976
707.7432, 23.57581
708.2253, 23.81016
708.7075, 24.01402
709.1896, 24.07382
709.6718, 24.07213
710.1539, 24.21409
710.6360, 24.45517
711.1181, 24.61254
711.6002, 24.59231
712.0823, 24.45537
712.5645, 24.19416
713.0466, 23.84596
713.5287, 23.55388
714.0108, 23.24497
714.4929, 23.11718
714.9750, 23.40421
715.4572, 24.04815
715.9393, 24.28708
716.4214, 23.94384
716.9035, 23.56837
717.3856, 23.42253
717.8677, 23.48943
718.3499, 23.60523
718.8320, 23.77160
719.3141, 23.96908
719.7962, 24.21294
720.2783, 24.46770
720.7604, 24.74960
721.2426, 25.06555
721.7247, 25.13632
722.2068, 24.37872
722.6889, 23.59695
723.1710, 23.47909
723.6531, 24.52146
724.1353, 25.13897
724.6174, 25.08371
725.0995, 24.76819
725.5816, 24.47267
726.0637, 24.16648
726.5458, 24.19149
727.0280, 24.67083
727.5101, 25.15725
727.9922, 25.02221
728.4743, 24.43968
728.9564, 23.86189
729.4385, 23.33845
729.9207, 23.03556
730.4028, 23.28820
730.8849, 23.78446
731.3670, 24.08763
731.8491, 23.86163
732.3312, 23.68429
732.8134, 23.65563
733.2955, 23.74381
733.7776, 23.93760
734.2597, 24.32532
734.7418, 24.54253
735.2239, 24.48986
735.7061, 24.24903
736.1882, 23.91822
736.6703, 23.52608
737.1524, 23.30321
737.6345, 23.43548
738.1166, 23.68478
738.5988, 23.77644
739.0809, 23.76563
739.5630, 23.80971
740.0451, 24.20598
740.5272, 24.43987
741.0093, 24.07487
741.4915, 23.26852
741.9736, 23.06012
742.4557, 23.84014
742.9378, 24.45675
743.4199, 24.42011
743.9020, 23.87005
744.3842, 23.65159
744.8663, 23.76359
745.3484, 23.87824
745.8305, 23.73262
746.3126, 23.49414
746.7947, 23.43102
747.2769, 23.53078
747.7590, 23.63873
748.2411, 23.62348
748.7232, 23.63120
749.2053, 23.79512
749.6874, 24.15939
750.1696, 24.34032
750.6517, 24.21433
751.1338, 24.06589
751.6159, 24.09106
752.0980, 24.30496
752.5801, 24.27547
753.0623, 23.98046
753.5444, 23.62246
754.0265, 23.24294
754.5086, 22.95325
754.9907, 23.08962
755.4728, 23.71228
755.9550, 24.17954
756.4371, 23.82439
756.9192, 23.31131
757.4013, 23.19550
757.8835, 23.70896
758.3656, 24.22656
758.8477, 24.91613
759.3298, 25.38939
759.8120, 25.19638
760.2941, 24.20850
760.7762, 23.75094
761.2583, 23.96589
761.7404, 24.37514
762.2225, 24.45000
762.7047, 24.31106
763.1868, 24.21388
763.6689, 24.19554
764.1510, 24.27526
764.6331, 24.65793
765.1152, 25.05356
765.5974, 25.14533
766.0795, 24.65759
766.5616, 24.18258
767.0437, 23.59748
767.5258, 23.17265
768.0079, 23.32220
768.4901, 24.14235
768.9722, 24.72836
769.4543, 24.94231
769.9364, 24.93841
770.4185, 24.88228
770.9006, 24.77775
771.3828, 24.62621
771.8649, 24.40231
772.3470, 24.19375
772.8291, 24.09520
773.3112, 24.03655
773.7933, 23.92083
774.2755, 23.55815
774.7576, 23.37636
775.2397, 23.52970
775.7218, 23.79450
776.2039, 23.77770
776.6860, 23.43649
777.1682, 23.21527
777.6503, 23.23861
778.1324, 23.34143
778.6145, 23.23248
779.0966, 22.99156
779.5787, 22.82750
780.0609, 22.78669
780.5430, 22.87936
781.0251, 23.29115
781.5072, 23.80861
781.9893, 24.03835
782.4714, 23.45522
782.9536, 23.18653
783.4357, 23.49428
783.9178, 24.09625
784.3999, 24.41464
784.8820, 24.43361
785.3641, 24.39939
785.8463, 24.37489
786.3284, 24.34053
786.8105, 24.24020
787.2926, 24.10484
787.7747, 24.01309
788.2568, 24.05798
788.7390, 24.09342
789.2211, 23.99787
789.7032, 23.84352
790.1853, 23.81154
790.6674, 24.07347
791.1495, 24.19311
791.6317, 24.00890
792.1138, 23.70043
792.5959, 23.78271
793.0780, 24.25412
793.5601, 24.59613
794.0422, 24.56620
794.5244, 24.41625
795.0065, 24.59169
795.4886, 24.93111
795.9707, 25.04245
796.4528, 24.57619
796.9349, 24.04832
797.4171, 23.52170
797.8992, 23.09539
798.3813, 23.04476
798.8634, 23.53588
799.3455, 24.07543
799.8276, 24.69061
800.3098, 25.16396
800.7919, 24.71374
801.2740, 23.46136
801.7561, 22.60097
802.2382, 22.75748
802.7203, 23.31019
803.2025, 23.71151
803.6846, 23.99044
804.1667, 24.21805
804.6488, 24.38910
805.1309, 24.54740
805.6130, 24.76227
806.0952, 24.96244
806.5773, 24.96141
807.0594, 24.67340
807.5416, 24.47750
808.0237, 24.48869
808.5058, 24.61931
808.9879, 24.69720
809.4700, 24.73100
809.9521, 24.76137
810.4343, 24.87120
810.9164, 24.90275
811.3985, 24.67742
811.8806, 24.29031
812.3627, 23.94118
812.8448, 23.70613
813.3270, 23.46767
813.8091, 23.09705
814.2912, 22.77054
814.7733, 22.97958
815.2554, 23.79278
815.7375, 24.41504
816.2197, 24.58948
816.7018, 24.55087
817.1839, 24.75673
817.6660, 25.05084
818.1481, 25.04416
818.6302, 24.18772
819.1124, 23.49342
819.5945, 23.54389
820.0766, 24.04969
820.5587, 24.46825
821.0408, 24.83425
821.5229, 24.95197
822.0051, 24.69046
822.4872, 24.29638
822.9693, 24.27542
823.4514, 24.58357
823.9335, 24.73326
824.4156, 24.53036
824.8978, 24.27304
825.3799, 24.25276
825.8620, 24.40165
826.3441, 24.61340
826.8262, 25.15689
827.3083, 25.36608
827.7905, 24.73958
828.2726, 23.87456
828.7547, 23.51527
829.2368, 23.77870
829.7189, 24.10453
830.2010, 24.46181
830.6832, 24.75036
831.1653, 24.78341
831.6474, 24.63618
832.1295, 24.50153
832.6116, 24.40844
833.0938, 24.40187
833.5759, 24.65717
834.0580, 24.94748
834.5401, 25.01689
835.0222, 24.58584
835.5043, 24.29562
835.9865, 24.19207
836.4686, 24.17217
836.9507, 24.10243
837.4328, 23.98938
837.9149, 24.02870
838.3970, 24.26095
838.8792, 24.52567
839.3613, 24.69937
839.8434, 24.78698
840.3255, 24.74849
840.8076, 24.50502
841.2897, 24.43296
841.7719, 24.93775
842.2540, 25.44963
842.7361, 25.50666
843.2182, 24.93040
843.7003, 24.64411
844.1824, 24.71529
844.6646, 24.83604
845.1467, 24.62291
845.6288, 24.25771
846.1109, 24.29720
846.5930, 24.79063
847.0751, 25.21073
847.5573, 25.00788
848.0394, 24.74270
848.5215, 24.93640
849.0036, 25.78412
849.4857, 26.11410
849.9678, 25.63747
850.4500, 25.07705
850.9321, 24.85007
851.4142, 24.91751
851.8963, 24.81107
852.3784, 24.53573
852.8605, 24.29559
853.3427, 24.16414
853.8248, 24.19237
854.3069, 24.57655
854.7890, 25.25883
855.2711, 25.68383
855.7532, 25.46713
856.2354, 25.15796
856.7175, 24.95430
857.1996, 24.83338
857.6818, 24.56241
858.1639, 24.09538
858.6460, 23.82331
859.1281, 24.04186
859.6102, 24.48341
860.0923, 24.59997
860.5745, 24.49414
861.0566, 24.51274
861.5387, 25.10495
862.0208, 25.56307
862.5029, 25.42966
862.9850, 24.90568
863.4672, 24.70007
863.9493, 24.97503
864.4314, 25.13851
864.9135, 25.01887
865.3956, 24.76800
865.8777, 24.73411
866.3599, 24.85904
866.8420, 24.88448
867.3241, 24.63616
867.8062, 24.41582
868.2883, 24.47413
868.7704, 24.69704
869.2526, 24.91527
869.7347, 25.29270
870.2168, 25.34797
870.6989, 24.90620
871.1810, 24.31458
871.6631, 23.98771
872.1453, 23.92299
872.6274, 24.07669
873.1095, 24.47753
873.5916, 24.88799
874.0737, 25.04592
874.5558, 25.07372
875.0380, 25.15969
875.5201, 25.43141
876.0022, 25.45856
876.4843, 24.81851
876.9664, 24.17137
877.4485, 23.98976
877.9307, 24.37081
878.4128, 24.49322
878.8949, 24.33247
879.3770, 24.11826
879.8591, 24.06758
880.3412, 24.07798
880.8234, 23.98323
881.3055, 23.77366
881.7876, 23.53577
882.2697, 23.22535
882.7518, 22.97213
883.2339, 22.83603
883.7161, 22.81390
884.1982, 22.93490
884.6803, 23.24986
885.1624, 23.49113
885.6445, 23.41091
886.1266, 23.23102
886.6088, 23.71361
887.0909, 24.63937
887.5730, 25.09746
888.0551, 23.93355
888.5372, 22.89135
889.0193, 23.17896
889.5015, 24.31800
889.9836, 24.63614
890.4657, 23.58759
890.9478, 23.03706
891.4299, 23.54915
891.9120, 24.48145
892.3942, 24.52090
892.8763, 23.88338
893.3584, 23.48683
893.8405, 23.69597
894.3226, 23.98345
894.8047, 24.01262
895.2869, 23.87390
895.7690, 23.67163
896.2511, 23.22101
896.7332, 23.06771
897.2153, 23.35337
897.6974, 23.71659
898.1796, 23.76583
898.6617, 23.54011
899.1438, 23.26675
899.6259, 22.95566
900.1080, 22.75565
900.5901, 22.83370
901.0723, 23.05113
901.5544, 23.36622
902.0365, 23.82624
902.5186, 23.90208
903.0007, 23.34297
903.4828, 22.69678
903.9650, 22.15916
904.4471, 21.74764
904.9292, 21.68662
905.4113, 21.95915
905.8935, 22.21726
906.3756, 22.25445
906.8577, 22.16493
907.3398, 21.91268
907.8220, 21.58711
908.3041, 21.52699
908.7862, 22.09306
909.2683, 22.60518
909.7504, 22.94907
910.2325, 23.13378
910.7147, 23.14721
911.1968, 22.99206
911.6789, 22.83335
912.1610, 22.73754
912.6431, 22.61493
913.1252, 22.31083
913.6074, 21.92913
914.0895, 21.61974
914.5716, 21.31322
915.0537, 21.28556
915.5358, 21.79346
916.0179, 22.38227
916.5001, 22.57895
916.9822, 22.35170
917.4643, 22.44119
917.9464, 22.93261
918.4285, 23.34414
918.9106, 23.06347
919.3928, 22.53065
919.8749, 22.27453
920.3570, 22.35711
920.8391, 22.50828
921.3212, 22.85865
921.8033, 23.02966
922.2855, 22.75527
922.7676, 22.11103
923.2497, 21.94831
923.7318, 22.27605
924.2139, 22.69557
924.6960, 23.14775
925.1782, 23.45410
925.6603, 23.25115
926.1424, 22.70760
926.6245, 22.27216
927.1066, 22.07700
927.5887, 22.06590
928.0709, 22.36929
928.5530, 22.74281
929.0351, 22.63491
929.5172, 22.01303
929.9993, 21.79528
930.4814, 22.24864
930.9636, 22.79773
931.4457, 22.74514
931.9278, 22.39404
932.4099, 22.14285
932.8920, 22.07986
933.3741, 22.11631
933.8563, 22.30536
934.3384, 22.52082
934.8205, 22.69413
935.3026, 22.82898
935.7847, 22.87570
936.2668, 22.83186
936.7490, 22.76138
937.2311, 22.65257
937.7132, 22.58118
938.1953, 22.70158
938.6774, 22.97231
939.1595, 23.12067
939.6417, 22.94061
940.1238, 22.77923
940.6059, 22.77524
941.0880, 22.83277
941.5701, 22.59720
942.0522, 22.07858
942.5344, 21.70749
943.0165, 21.60535
943.4986, 21.71683
943.9807, 22.15941
944.4628, 22.71403
944.9449, 23.05140
945.4271, 22.95832
945.9092, 22.85532
946.3913, 22.72926
946.8734, 22.66724
947.3555, 22.85444
947.8376, 23.25581
948.3198, 23.24317
948.8019, 21.55641
949.2840, 22.60997
949.7661, 23.18899
950.2482, 23.31897
950.7303, 21.65499
951.2125, 22.30753
951.6946, 22.03173
952.1767, 21.71785
952.6588, 22.58255
953.1409, 22.24746
953.6230, 21.73776
954.1052, 21.68816
954.5873, 22.04101
955.0695, 22.44883
955.5516, 22.84993
956.0337, 23.13516
956.5158, 23.18175
956.9979, 23.06622
957.4800, 22.90473
957.9622, 22.64751
958.4443, 22.45875
958.9264, 22.31806
959.4085, 22.30191
959.8906, 22.65395
960.3727, 23.21129
960.8549, 23.25909
961.3370, 22.71578
961.8191, 22.28977
962.3012, 22.63639
962.7833, 23.10883
963.2654, 23.20191
963.7476, 22.89156
964.2297, 22.82787
964.7118, 23.11890
965.1939, 23.27759
965.6760, 22.98424
966.1581, 22.52331
966.6403, 22.57016
967.1224, 22.57463
967.6045, 23.15794
968.0866, 23.49633
968.5687, 23.60295
969.0508, 22.78366
969.5330, 23.16000
970.0151, 23.05718
970.4972, 22.93472
970.9793, 23.47934
971.4614, 22.79472
971.9435, 23.32875
972.4257, 23.37633
972.9078, 23.64655
973.3899, 23.43465
973.8720, 23.37166
974.3541, 23.79094
974.8362, 23.94318
975.3184, 23.67579
975.8005, 23.96016
976.2826, 23.25870
976.7647, 23.42232
977.2468, 23.95918
977.7289, 23.87998
978.2111, 23.77279
978.6932, 23.55909
979.1753, 23.70785
979.6574, 24.06190
980.1395, 24.18597
980.6216, 24.35312
981.1038, 24.44510
981.5859, 24.46594
982.0680, 24.20259
982.5501, 24.30621
983.0322, 24.26277
983.5143, 24.51770
983.9965, 24.66408
984.4786, 24.73930
984.9607, 24.53033
985.4428, 24.68834
985.9249, 24.69928
986.4070, 24.70419
986.8892, 24.91385
987.3713, 25.47688
987.8534, 25.61977
988.3355, 25.44670
988.8176, 25.16552
989.2997, 25.33035
989.7819, 25.78986
990.2640, 26.09911
990.7461, 26.03756
991.2282, 25.85790
991.7103, 25.46892
992.1924, 25.12972
992.6746, 25.18188
993.1567, 25.74465
993.6388, 26.04959
994.1209, 26.03549
994.6030, 25.95477
995.0851, 26.06887
995.5673, 26.23934
996.0494, 26.21696
996.5315, 26.01445
997.0136, 25.98699
997.4957, 26.43782
997.9778, 26.85536
998.4600, 27.06656
998.9421, 27.14609
999.4242, 27.32465
999.9063, 27.58737
1000.388, 27.82503
1000.871, 28.06002
1001.353, 28.12041
1001.835, 27.64010
1002.317, 27.00438
1002.799, 26.69813
1003.281, 26.99915
1003.763, 27.11296
1004.245, 26.95857
1004.728, 26.81243
1005.210, 26.96312
1005.692, 27.28301
1006.174, 27.34205
1006.656, 27.17067
1007.138, 27.03505
1007.620, 27.02945
1008.102, 27.14013
1008.584, 27.52772
1009.067, 27.99447
1009.549, 28.01965
1010.031, 27.53136
1010.513, 27.19364
1010.995, 27.15689
1011.477, 27.25321
1011.959, 27.36135
1012.441, 27.43789
1012.924, 27.37939
1013.406, 27.09595
1013.888, 27.03714
1014.370, 27.54263
1014.852, 27.90000
1015.334, 27.69054
1015.816, 27.01297
1016.298, 26.30735
1016.780, 25.63287
1017.263, 25.38540
1017.745, 26.37037
1018.227, 27.25013
1018.709, 26.90257
1019.191, 25.91319
1019.673, 25.43830
1020.155, 25.65903
1020.637, 26.06686
1021.120, 26.73340
1021.602, 27.19978
1022.084, 26.72777
1022.566, 25.77968
1023.048, 25.24460
1023.530, 25.20851
1024.012, 25.12063
1024.494, 24.48834
1024.976, 24.07629
1025.458, 24.29258
1025.941, 24.94010
1026.423, 25.15437
1026.905, 24.96234
1027.387, 24.84987
1027.869, 25.03147
1028.351, 25.25697
1028.833, 25.38140
1029.316, 25.36970
1029.798, 25.15396
1030.280, 24.54655
1030.762, 24.15592
1031.244, 24.01453
1031.726, 24.01547
1032.208, 24.14981
1032.690, 24.34851
1033.172, 24.37835
1033.655, 24.27647
1034.137, 24.25527
1034.619, 24.56883
1035.101, 24.81213
1035.583, 24.75741
1036.065, 24.56895
1036.547, 24.54581
1037.029, 24.69362
1037.511, 24.88038
1037.994, 25.11264
1038.476, 25.20258
1038.958, 24.81511
1039.440, 24.27807
1039.922, 23.95050
1040.404, 23.90177
1040.886, 23.80099
1041.368, 23.62010
1041.851, 23.40326
1042.333, 23.14482
1042.815, 22.87942
1043.297, 22.68518
1043.779, 22.55985
1044.261, 22.50347
1044.743, 22.48885
1045.225, 22.58548
1045.708, 22.88702
1046.190, 23.27040
1046.672, 23.69669
1047.154, 24.21302
1047.636, 24.13834
1048.118, 23.42769
1048.600, 22.76324
1049.082, 22.70499
1049.564, 22.91840
1050.047, 23.11300
1050.529, 23.29370
1051.011, 23.55198
1051.493, 23.99011
1051.975, 24.29684
1052.457, 24.39711
1052.939, 24.38428
1053.421, 24.44424
1053.903, 24.49710
1054.386, 24.27987
1054.868, 23.69165
1055.350, 23.29797
1055.832, 23.51760
1056.314, 23.85131
1056.796, 24.02577
1057.278, 24.06781
1057.760, 24.21651
1058.243, 24.46512
1058.725, 24.62308
1059.207, 24.58460
1059.689, 24.46006
1060.171, 24.31413
1060.653, 24.15854
1061.135, 24.00699
1061.617, 23.83612
1062.099, 23.73660
1062.582, 23.72559
1063.064, 23.73074
1063.546, 23.67081
1064.028, 23.59384
1064.510, 23.59233
1064.992, 23.66446
1065.474, 23.78274
1065.956, 24.11233
1066.438, 24.24946
1066.921, 24.02704
1067.403, 23.63898
1067.885, 23.38581
1068.367, 23.26178
1068.849, 23.24200
1069.331, 23.32944
1069.813, 23.43164
1070.295, 23.37843
1070.778, 23.39561
1071.260, 23.78817
1071.742, 24.51274
1072.224, 24.77726
1072.706, 24.52849
1073.188, 24.11431
1073.670, 23.57351
1074.152, 23.08016
1074.635, 22.82847
1075.117, 22.79930
1075.599, 22.99347
1076.081, 23.62013
1076.563, 23.96700
1077.045, 23.97960
1077.527, 23.72703
1078.009, 23.03428
1078.491, 22.12958
1078.974, 22.09749
1079.456, 22.75610
1079.938, 23.17987
1080.420, 22.32668
1080.902, 21.83590
1081.384, 22.82755
1081.866, 24.26817
1082.348, 24.84159
1082.831, 24.50211
1083.313, 24.42237
1083.795, 24.71442
1084.277, 24.94436
1084.759, 24.48105
1085.241, 24.01481
1085.723, 24.39917
1086.205, 25.47097
1086.688, 25.54666
1087.170, 24.18443
1087.652, 23.22778
1088.134, 23.20155
1088.616, 23.53080
1089.098, 23.38345
1089.580, 23.01206
1090.062, 22.84110
1090.544, 22.98275
1091.026, 23.14028
1091.509, 23.25744
1091.991, 23.37605
1092.473, 23.53257
1092.955, 23.69690
1093.437, 23.76404
1093.919, 23.74105
1094.401, 23.64623
1094.883, 23.37586
1095.366, 23.22350
1095.848, 23.46113
1096.330, 23.77852
1096.812, 23.87465
1097.294, 23.72103
1097.776, 23.64655
1098.258, 23.65271
1098.740, 23.63895
1099.223, 23.55824
1099.705, 23.40950
1100.187, 23.03760
1100.669, 22.61629
1101.151, 22.64188
1101.633, 23.38011
1102.115, 23.77474
1102.597, 23.68434
1103.079, 23.43475
1103.562, 23.32645
1104.044, 23.30845
1104.526, 23.35504
1105.008, 23.44982
1105.490, 23.41779
1105.972, 23.03582
1106.454, 22.83478
1106.936, 23.00666
1107.418, 23.33142
1107.901, 23.32206
1108.383, 23.11995
1108.865, 23.19411
1109.347, 23.71833
1109.829, 24.02070
1110.311, 23.35824
1110.793, 22.86729
1111.275, 23.26649
1111.758, 24.33030
1112.240, 24.69736
1112.722, 24.43739
1113.204, 24.19014
1113.686, 24.27166
1114.168, 24.29363
1114.650, 23.75718
1115.132, 23.16916
1115.615, 23.14757
1116.097, 23.85393
1116.579, 24.04816
1117.061, 23.69382
1117.543, 23.30148
1118.025, 23.18426
1118.507, 23.21321
1118.989, 23.26547
1119.471, 23.35767
1119.953, 23.55461
1120.436, 24.09947
1120.918, 24.14191
1121.400, 23.50997
1121.882, 22.80656
1122.364, 22.63167
1122.846, 22.76074
1123.328, 22.83394
1123.810, 22.84867
1124.293, 22.90906
1124.775, 23.05007
1125.257, 23.24270
1125.739, 23.47680
1126.221, 23.76552
1126.703, 24.29412
1127.185, 24.88071
1127.667, 24.89057
1128.150, 24.23322
1128.632, 23.55653
1129.114, 23.05053
1129.596, 22.73985
1130.078, 22.65409
1130.560, 22.74036
1131.042, 22.82221
1131.524, 22.91741
1132.006, 23.22987
1132.489, 23.93044
1132.971, 24.33491
1133.453, 23.50869
1133.935, 22.59238
1134.417, 22.53638
1134.899, 23.29497
1135.381, 23.81199
1135.863, 24.09368
1136.346, 24.04516
1136.828, 23.46469
1137.310, 22.83050
1137.792, 22.55004
1138.274, 22.49101
1138.756, 22.48653
1139.238, 22.50474
1139.720, 22.66747
1140.203, 23.01066
1140.685, 23.27767
1141.167, 23.34547
1141.649, 23.21861
1142.131, 22.68604
1142.613, 22.00524
1143.095, 21.71948
1143.577, 22.16941
1144.059, 22.58068
1144.542, 22.96213
1145.024, 23.19335
1145.506, 22.96853
1145.988, 22.61515
1146.470, 22.86255
1146.952, 23.55052
1147.434, 23.89624
1147.916, 23.29198
1148.398, 22.84849
1148.881, 22.77015
1149.363, 22.77960
1149.845, 22.34831
1150.327, 21.76580
1150.809, 21.89529
1151.291, 22.75945
1151.773, 23.47903
1152.255, 23.62055
1152.738, 23.61713
1153.220, 23.59975
1153.702, 23.52153
1154.184, 23.20382
1154.666, 22.73524
1155.148, 22.50225
1155.630, 22.58518
1156.112, 22.68097
1156.594, 22.55775
1157.077, 22.49111
1157.559, 22.71910
1158.041, 23.06917
1158.523, 22.76491
1159.005, 21.92260
1159.487, 21.45928
1159.969, 21.67540
1160.451, 22.10499
1160.933, 22.69166
1161.416, 23.13230
1161.898, 23.11160
1162.380, 22.70150
1162.862, 22.78793
1163.344, 23.34304
1163.826, 23.59291
1164.308, 23.06748
1164.790, 22.48265
1165.273, 22.36198
1165.755, 22.50936
1166.237, 22.76370
1166.719, 23.15013
1167.201, 23.25317
1167.683, 23.06274
1168.165, 22.72401
1168.647, 22.13450
1169.130, 21.64380
1169.612, 21.69735
1170.094, 22.01812
1170.576, 22.16304
1171.058, 21.98759
1171.540, 22.13541
1172.022, 22.67518
1172.504, 23.01223
1172.986, 22.44546
1173.469, 21.69448
1173.951, 21.54081
1174.433, 21.82635
1174.915, 22.20686
1175.397, 22.80591
1175.879, 22.98874
1176.361, 22.66353
1176.843, 22.22268
1177.326, 21.88069
1177.808, 21.70972
1178.290, 21.95414
1178.772, 22.47053
1179.254, 22.66242
1179.736, 22.25144
1180.218, 22.03477
1180.700, 22.11048
1181.182, 22.34060
1181.665, 22.65833
1182.147, 22.98932
1182.629, 23.26135
1183.111, 23.45029
1183.593, 23.40914
1184.075, 22.92685
1184.557, 22.65510
1185.039, 22.78224
1185.521, 22.94587
1186.004, 22.44045
1186.486, 21.74475
1186.968, 21.75442
1187.450, 22.52202
1187.932, 23.06902
1188.414, 23.15018
1188.896, 23.06303
1189.378, 22.78703
1189.861, 22.55129
1190.343, 22.92971
1190.825, 23.54196
1191.307, 23.54799
1191.789, 22.75925
1192.271, 22.50817
1192.753, 23.57481
1193.235, 24.25717
1193.718, 23.92641
1194.200, 23.07399
1194.682, 22.49176
1195.164, 22.12422
1195.646, 21.85260
1196.128, 21.64161
1196.610, 21.61822
1197.092, 21.95798
1197.574, 22.22076
1198.057, 22.20465
1198.539, 22.04215
1199.021, 22.06392
1199.503, 22.16849
1199.985, 22.08390
1200.467, 21.62488
1200.949, 21.42112
1201.431, 21.68715
1201.913, 22.05194
1202.396, 22.41604
1202.878, 22.69183
1203.360, 22.58209
1203.842, 22.21041
1204.324, 21.88791
1204.806, 21.67256
1205.288, 21.59363
1205.770, 21.68013
1206.253, 21.84394
1206.735, 22.04476
1207.217, 22.28158
1207.699, 22.69222
1208.181, 23.13131
1208.663, 23.20366
1209.145, 22.45799
1209.627, 21.96211
1210.109, 21.89203
1210.592, 22.04204
1211.074, 22.42964
1211.556, 22.87549
1212.038, 22.63265
1212.520, 21.96684
1213.002, 21.64124
1213.484, 22.28235
1213.966, 22.72899
1214.448, 22.85900
1214.931, 22.76346
1215.413, 22.35916
1215.895, 21.82785
1216.377, 21.68235
1216.859, 21.85366
1217.341, 22.11414
1217.823, 22.66725
1218.305, 22.83146
1218.788, 22.41831
1219.270, 21.87368
1219.752, 21.49253
1220.234, 21.29350
1220.716, 21.40929
1221.198, 21.76543
1221.680, 22.10453
1222.162, 22.40214
1222.645, 22.55222
1223.127, 22.49767
1223.609, 22.41381
1224.091, 22.46340
1224.573, 22.60749
1225.055, 22.76882
1225.537, 22.94872
1226.019, 23.16357
1226.501, 23.74273
1226.984, 23.76865
1227.466, 22.98259
1227.948, 22.10153
1228.430, 21.83626
1228.912, 21.98244
1229.394, 22.29928
1229.876, 22.70546
1230.358, 22.93500
1230.841, 22.93469
1231.323, 22.67181
1231.805, 22.01594
1232.287, 21.48402
1232.769, 21.77055
1233.251, 22.44098
1233.733, 22.84085
1234.215, 22.98837
1234.698, 23.13516
1235.180, 23.57235
1235.662, 23.27550
1236.144, 21.89012
1236.626, 20.69815
1237.108, 21.50809
1237.590, 22.99664
1238.072, 23.52776
1238.554, 23.17769
1239.036, 22.81360
1239.519, 22.53138
1240.001, 22.18049
1240.483, 21.70414
1240.965, 21.33405
1241.447, 21.35748
1241.929, 21.56758
1242.411, 21.86237
1242.893, 22.15635
1243.376, 22.03502
1243.858, 21.24751
1244.340, 21.34972
1244.822, 22.70280
1245.304, 23.85894
1245.786, 23.04385
1246.268, 21.76797
1246.750, 21.40665
1247.233, 21.83125
1247.715, 22.13236
1248.197, 22.30286
1248.679, 22.40331
1249.161, 22.43790
1249.643, 22.45176
1250.125, 22.51045
1250.607, 22.53794
1251.089, 22.42578
1251.572, 22.24426
1252.054, 22.20382
1252.536, 22.30400
1253.018, 22.34890
1253.500, 22.30567
1253.982, 22.32551
1254.464, 22.65740
1254.946, 22.94625
1255.428, 22.97101
1255.911, 22.80499
1256.393, 22.42389
1256.875, 21.90445
1257.357, 22.14681
1257.839, 23.28434
1258.321, 24.13833
1258.803, 23.64822
1259.285, 23.09443
1259.768, 23.03418
1260.250, 23.22853
1260.732, 23.21522
1261.214, 23.05296
1261.696, 22.99099
1262.178, 23.05976
1262.660, 23.12246
1263.142, 23.23276
1263.625, 23.14818
1264.107, 22.73246
1264.589, 22.19913
1265.071, 21.80744
1265.553, 21.58865
1266.035, 21.73845
1266.517, 22.24652
1266.999, 22.51712
1267.481, 22.17630
1267.964, 21.87465
1268.446, 21.70288
1268.928, 21.70694
1269.410, 22.11365
1269.892, 22.65702
1270.374, 22.91900
1270.856, 22.87005
1271.338, 22.69912
1271.820, 22.35534
1272.303, 22.12560
1272.785, 22.06543
1273.267, 22.11792
1273.749, 22.32987
1274.231, 22.53551
1274.713, 22.48716
1275.195, 22.22045
1275.677, 22.11013
1276.160, 22.19718
1276.642, 22.26899
1277.124, 22.29472
1277.606, 22.26392
1278.088, 22.04053
1278.570, 21.86800
1279.052, 22.04279
1279.534, 22.42713
1280.016, 22.52557
1280.499, 22.32490
1280.981, 22.47247
1281.463, 23.07608
1281.945, 23.52994
1282.427, 23.21595
1282.909, 22.82007
1283.391, 22.78332
1283.873, 22.89273
1284.356, 22.66244
1284.838, 22.19020
1285.320, 22.19809
1285.802, 22.73584
1286.284, 23.08453
1286.766, 22.47477
1287.248, 22.13871
1287.730, 22.58543
1288.213, 23.26676
1288.695, 23.32572
1289.177, 23.00632
1289.659, 22.98406
1290.141, 23.27833
1290.623, 23.52588
1291.105, 23.58764
1291.587, 23.64446
1292.069, 23.77618
1292.552, 23.75791
1293.034, 23.03708
1293.516, 22.17663
1293.998, 22.18529
1294.480, 22.90017
1294.962, 23.13738
1295.444, 22.56970
1295.926, 22.36711
1296.408, 22.71238
1296.891, 23.05853
1297.373, 22.74831
1297.855, 22.33846
1298.337, 22.53455
1298.819, 23.01861
1299.301, 22.77268
1299.783, 21.67484
1300.265, 21.32226
1300.748, 21.83826
1301.230, 22.35185
1301.712, 22.11539
1302.194, 21.85186
1302.676, 21.89012
##END=



