##NAMES=Polylithionite
##RRUFFID=R050132
##IDEAL CHEMISTRY=KLi_2_AlSi_4_O_10_F_2_
##LOCALITY=Brown Derby mine, Ohio City, Gunnison County, Colorado, USA
##OWNER=RRUFF
##SOURCE=Dave Bunk Minerals
##DESCRIPTION=Purple scaly aggregate, polytype 2M1
##STATUS=The identification of this mineral has been confirmed by X-ray diffraction and chemical analysis
##URL=rruff.info/R050132
##MEASURED CHEMISTRY=(K_0.90_Rb_0.10_)(Li_0.62_Al_0.38_)_3_(Si_0.93_Al_0.07_)_4_O_10_(F_0.69_(OH)_0.31_)_2_
93.08527, 0.0000000E+00
93.56738, 585.3282
94.04950, 577.8820
94.53162, 578.0882
95.01373, 580.2377
95.49585, 586.9690
95.97797, 595.1769
96.46008, 601.9678
96.94220, 608.7840
97.42432, 612.8370
97.90643, 613.7491
98.38855, 612.5292
98.87067, 609.5114
99.35278, 605.0059
99.83490, 599.5321
100.3170, 593.8846
100.7991, 586.7001
101.2813, 579.5368
101.7634, 573.0629
102.2455, 566.5074
102.7276, 558.6010
103.2097, 548.4853
103.6918, 536.7877
104.1740, 527.3616
104.6561, 521.0281
105.1382, 515.2859
105.6203, 509.1213
106.1024, 502.6083
106.5845, 496.3436
107.0667, 490.6963
107.5488, 485.6111
108.0309, 480.5545
108.5130, 475.3563
108.9951, 470.1881
109.4772, 465.2368
109.9594, 460.4631
110.4415, 455.9278
110.9236, 451.5446
111.4057, 447.3645
111.8878, 443.5816
112.3699, 440.3696
112.8521, 437.6604
113.3342, 435.1515
113.8163, 433.1097
114.2984, 430.9727
114.7805, 428.2420
115.2626, 425.1104
115.7448, 422.2788
116.2269, 420.6143
116.7090, 420.6885
117.1911, 419.9187
117.6732, 417.7830
118.1553, 415.3233
118.6375, 413.0254
119.1196, 411.0250
119.6017, 409.2228
120.0838, 407.4754
120.5659, 405.7311
121.0480, 404.1442
121.5302, 402.8911
122.0123, 401.7283
122.4944, 400.4149
122.9765, 398.8641
123.4586, 397.0865
123.9407, 395.0511
124.4228, 392.5451
124.9050, 390.2307
125.3871, 388.5309
125.8692, 387.2625
126.3513, 385.7685
126.8334, 383.6779
127.3155, 381.2008
127.7977, 378.8778
128.2798, 376.9360
128.7619, 374.8130
129.2440, 371.6032
129.7261, 367.0331
130.2083, 363.2240
130.6904, 361.7782
131.1725, 361.4431
131.6546, 361.2436
132.1367, 360.9855
132.6188, 360.4852
133.1010, 359.2049
133.5831, 356.5484
134.0652, 354.0517
134.5473, 351.8862
135.0294, 350.1654
135.5115, 349.1200
135.9937, 349.0392
136.4758, 349.8145
136.9579, 349.7186
137.4400, 347.6161
137.9221, 345.6979
138.4042, 344.6205
138.8864, 344.2079
139.3685, 343.8681
139.8506, 343.0385
140.3327, 341.5619
140.8148, 340.8932
141.2969, 341.9695
141.7791, 342.9512
142.2612, 342.5020
142.7433, 340.6317
143.2254, 338.6405
143.7075, 338.0067
144.1896, 339.0237
144.6718, 339.7755
145.1539, 340.1918
145.6360, 340.2865
146.1181, 339.8559
146.6002, 338.7099
147.0823, 337.6776
147.5645, 338.2224
148.0466, 340.1093
148.5287, 341.3655
149.0108, 340.5587
149.4929, 338.3885
149.9750, 337.2192
150.4572, 337.9806
150.9393, 339.2849
151.4214, 339.9068
151.9035, 339.8784
152.3856, 339.7451
152.8677, 339.8536
153.3499, 340.1978
153.8320, 340.8676
154.3141, 342.4374
154.7962, 343.9704
155.2783, 344.8754
155.7604, 345.1166
156.2425, 345.1972
156.7247, 345.7959
157.2068, 347.1344
157.6889, 348.4966
158.1710, 349.7422
158.6531, 351.0474
159.1352, 352.5708
159.6174, 354.3460
160.0995, 356.2617
160.5816, 358.0477
161.0637, 359.0273
161.5458, 360.8642
162.0279, 364.5084
162.5101, 368.6231
162.9922, 371.6364
163.4743, 372.8547
163.9564, 373.0214
164.4385, 374.3309
164.9206, 377.3617
165.4028, 380.6744
165.8849, 384.1888
166.3670, 387.8151
166.8491, 391.4512
167.3312, 395.0529
167.8133, 398.5791
168.2955, 401.8842
168.7776, 404.6812
169.2597, 407.6714
169.7418, 411.0607
170.2239, 414.8728
170.7060, 419.2881
171.1882, 424.8340
171.6703, 430.8795
172.1524, 436.1259
172.6345, 440.0045
173.1166, 443.8297
173.5987, 449.0459
174.0809, 455.8529
174.5630, 462.3933
175.0451, 467.2163
175.5272, 471.4792
176.0093, 476.4707
176.4914, 482.9246
176.9736, 489.5533
177.4557, 494.0831
177.9378, 495.6427
178.4199, 497.2014
178.9020, 500.4414
179.3841, 503.9656
179.8663, 506.3484
180.3484, 506.8955
180.8305, 505.9702
181.3126, 504.6431
181.7947, 502.8527
182.2768, 500.6582
182.7590, 498.4547
183.2411, 495.8087
183.7232, 492.0757
184.2053, 486.8355
184.6874, 480.3233
185.1695, 474.1343
185.6517, 468.1800
186.1338, 462.6887
186.6159, 458.0080
187.0980, 453.7842
187.5801, 449.4040
188.0622, 444.3809
188.5444, 438.8559
189.0265, 434.5879
189.5086, 431.7031
189.9907, 429.6908
190.4728, 428.6200
190.9549, 428.3344
191.4371, 428.4971
191.9192, 428.8774
192.4013, 429.5157
192.8834, 430.6756
193.3655, 432.3650
193.8476, 434.4738
194.3298, 437.3312
194.8119, 440.7575
195.2940, 443.7578
195.7761, 445.6139
196.2582, 446.3555
196.7403, 447.0089
197.2225, 448.0787
197.7046, 448.7040
198.1867, 448.0816
198.6688, 446.1861
199.1509, 443.8419
199.6330, 441.6218
200.1152, 439.3128
200.5973, 436.4451
201.0794, 432.7569
201.5615, 428.5826
202.0436, 424.1499
202.5257, 419.3461
203.0079, 414.8678
203.4900, 411.3061
203.9721, 408.2815
204.4542, 405.3720
204.9363, 402.4019
205.4184, 399.5060
205.9006, 396.8985
206.3827, 394.5652
206.8648, 392.6220
207.3469, 391.3418
207.8290, 390.3682
208.3111, 389.1841
208.7933, 387.3838
209.2754, 385.3842
209.7575, 384.4223
210.2396, 384.8535
210.7217, 385.9042
211.2038, 387.5881
211.6860, 389.5801
212.1681, 391.6696
212.6502, 393.8769
213.1323, 395.8790
213.6144, 396.1375
214.0965, 393.0634
214.5787, 390.0771
215.0608, 388.1904
215.5429, 386.6992
216.0250, 384.6225
216.5071, 381.3602
216.9892, 377.0903
217.4714, 372.7582
217.9535, 368.1678
218.4356, 363.7072
218.9177, 359.4136
219.3998, 355.3002
219.8819, 351.3382
220.3641, 347.4785
220.8462, 343.7797
221.3283, 340.7194
221.8104, 338.8071
222.2925, 336.9169
222.7746, 334.2491
223.2568, 331.4834
223.7389, 329.9852
224.2210, 330.6502
224.7031, 333.0231
225.1852, 334.5470
225.6673, 334.6093
226.1495, 334.7079
226.6316, 335.0909
227.1137, 335.8134
227.5958, 336.9945
228.0779, 338.7111
228.5600, 340.9218
229.0422, 343.3732
229.5243, 345.9213
230.0064, 348.8244
230.4885, 352.4803
230.9706, 356.6199
231.4527, 360.4235
231.9349, 363.2903
232.4170, 365.7963
232.8991, 369.4492
233.3812, 374.7737
233.8633, 380.1327
234.3454, 384.2334
234.8276, 387.4879
235.3097, 391.7344
235.7918, 398.1035
236.2739, 405.5327
236.7560, 411.9500
237.2381, 416.8542
237.7203, 422.2084
238.2024, 429.6233
238.6845, 438.8094
239.1666, 447.6234
239.6487, 454.8427
240.1308, 461.9000
240.6130, 470.3731
241.0951, 480.4356
241.5772, 491.1916
242.0593, 502.5943
242.5414, 514.5314
243.0235, 525.1951
243.5057, 532.8136
243.9878, 540.1149
244.4699, 549.7178
244.9520, 561.7970
245.4341, 573.8056
245.9162, 583.4710
246.3984, 590.8073
246.8805, 598.1381
247.3626, 605.4533
247.8447, 613.2430
248.3268, 621.9059
248.8089, 631.3796
249.2911, 641.1069
249.7732, 650.3304
250.2553, 658.9958
250.7374, 668.6364
251.2195, 679.8633
251.7016, 691.7148
252.1838, 703.7585
252.6659, 715.9706
253.1480, 728.7543
253.6301, 742.2493
254.1122, 756.5024
254.5943, 771.5560
255.0765, 787.6922
255.5586, 804.5411
256.0407, 821.8330
256.5228, 839.7740
257.0049, 858.7861
257.4870, 879.3190
257.9691, 901.3906
258.4513, 924.0084
258.9334, 949.7610
259.4155, 973.6867
259.8976, 994.4664
260.3797, 1012.287
260.8618, 1028.041
261.3440, 1042.664
261.8261, 1056.071
262.3082, 1064.302
262.7903, 1066.780
263.2724, 1063.912
263.7545, 1055.458
264.2367, 1041.604
264.7188, 1022.240
265.2009, 997.1265
265.6830, 966.6884
266.1651, 935.3012
266.6472, 902.3287
267.1294, 868.8271
267.6115, 834.2197
268.0936, 799.3106
268.5757, 764.8288
269.0578, 731.1599
269.5399, 698.5969
270.0221, 668.7323
270.5042, 643.3661
270.9863, 619.0146
271.4684, 595.1650
271.9505, 572.1995
272.4326, 550.5840
272.9148, 530.4232
273.3969, 511.7847
273.8790, 494.9209
274.3611, 480.5209
274.8432, 467.2225
275.3253, 455.3480
275.8075, 444.3764
276.2896, 433.5698
276.7717, 422.6570
277.2538, 412.0583
277.7359, 402.4667
278.2180, 394.0230
278.7002, 386.5833
279.1823, 380.7032
279.6644, 375.5772
280.1465, 370.4501
280.6286, 365.1482
281.1107, 359.8634
281.5929, 354.8841
282.0750, 350.1529
282.5571, 345.9921
283.0392, 342.5883
283.5213, 339.6110
284.0034, 336.8797
284.4856, 334.3339
284.9677, 331.8427
285.4498, 329.2577
285.9319, 326.5450
286.4140, 323.9351
286.8961, 321.6092
287.3783, 319.2414
287.8604, 316.3017
288.3425, 312.9207
288.8246, 310.1131
289.3067, 308.9865
289.7888, 309.5757
290.2710, 308.9521
290.7531, 306.1616
291.2352, 303.1275
291.7173, 300.7867
292.1994, 299.1374
292.6815, 297.9072
293.1637, 297.0063
293.6458, 296.3650
294.1279, 295.5281
294.6100, 294.1026
295.0921, 292.9127
295.5742, 292.6161
296.0564, 292.8647
296.5385, 292.5889
297.0206, 291.0557
297.5027, 288.9229
297.9848, 288.3094
298.4669, 290.1150
298.9491, 291.5638
299.4312, 291.7456
299.9133, 290.9770
300.3954, 289.8055
300.8775, 288.3719
301.3596, 286.7655
301.8418, 285.0387
302.3239, 282.9428
302.8060, 281.5061
303.2881, 281.4994
303.7702, 282.1172
304.2523, 282.1558
304.7345, 281.2936
305.2166, 280.1983
305.6987, 279.8281
306.1808, 280.2689
306.6629, 280.2652
307.1451, 279.4482
307.6272, 278.2138
308.1093, 276.9203
308.5914, 275.6152
309.0735, 274.2856
309.5556, 272.8194
310.0378, 271.2668
310.5199, 270.1899
311.0020, 269.9406
311.4841, 269.9400
311.9662, 269.6870
312.4483, 269.2084
312.9305, 268.9782
313.4126, 269.5001
313.8947, 270.4787
314.3768, 270.6103
314.8589, 269.4201
315.3410, 267.9229
315.8232, 266.3865
316.3053, 264.9139
316.7874, 263.8960
317.2695, 263.5508
317.7516, 263.7329
318.2337, 264.1527
318.7159, 265.0651
319.1980, 265.6177
319.6801, 265.1851
320.1622, 264.2036
320.6443, 263.6066
321.1264, 263.7531
321.6086, 264.1254
322.0907, 263.8577
322.5728, 262.9001
323.0549, 261.9641
323.5370, 260.9441
324.0191, 260.1323
324.5013, 260.1357
324.9834, 261.1037
325.4655, 262.0812
325.9476, 262.0756
326.4297, 261.0628
326.9118, 259.9583
327.3940, 258.8102
327.8761, 257.6160
328.3582, 256.3544
328.8403, 255.0368
329.3224, 253.7314
329.8045, 252.4635
330.2867, 251.2583
330.7688, 250.1847
331.2509, 249.1963
331.7330, 248.3757
332.2151, 248.0624
332.6972, 248.0075
333.1794, 247.3309
333.6615, 245.4520
334.1436, 242.8984
334.6257, 241.1261
335.1078, 240.4087
335.5899, 239.7314
336.0721, 238.7388
336.5542, 237.5982
337.0363, 236.5327
337.5184, 235.5767
338.0005, 234.8729
338.4826, 234.7921
338.9648, 235.6224
339.4469, 235.7729
339.9290, 234.5284
340.4111, 232.8284
340.8932, 231.6504
341.3753, 231.1158
341.8575, 230.5924
342.3396, 229.4419
342.8217, 227.5884
343.3038, 226.1155
343.7859, 224.8992
344.2680, 224.1504
344.7502, 224.0701
345.2323, 224.5909
345.7144, 225.5839
346.1965, 227.1608
346.6786, 229.0493
347.1607, 229.5557
347.6429, 227.5350
348.1250, 225.7986
348.6071, 225.0866
349.0892, 225.1658
349.5713, 225.7494
350.0534, 226.7575
350.5356, 227.9548
351.0177, 228.8715
351.4998, 229.2350
351.9819, 229.8291
352.4640, 230.7592
352.9461, 231.9025
353.4283, 233.3237
353.9104, 234.9738
354.3925, 236.3757
354.8746, 236.8552
355.3567, 236.0150
355.8388, 236.4268
356.3210, 238.9096
356.8031, 241.7319
357.2852, 244.0418
357.7673, 245.8711
358.2494, 247.6624
358.7315, 249.7560
359.2137, 252.0782
359.6958, 253.7366
360.1779, 254.1567
360.6600, 254.6248
361.1421, 255.2886
361.6242, 256.1879
362.1064, 257.3531
362.5885, 258.7920
363.0706, 260.5054
363.5527, 262.5039
364.0348, 265.2815
364.5169, 267.5978
364.9991, 269.1223
365.4812, 270.4369
365.9633, 271.8409
366.4454, 273.4594
366.9275, 275.4649
367.4096, 278.1711
367.8918, 281.8268
368.3739, 284.8061
368.8560, 286.4979
369.3381, 288.1725
369.8202, 290.2796
370.3023, 292.7695
370.7845, 295.3866
371.2666, 297.9542
371.7487, 300.5351
372.2308, 303.5023
372.7129, 307.0851
373.1950, 310.7868
373.6772, 314.8961
374.1593, 318.8996
374.6414, 322.0554
375.1235, 324.1356
375.6056, 325.8568
376.0877, 328.5014
376.5699, 332.5150
377.0520, 336.2157
377.5341, 339.1109
378.0162, 341.9633
378.4983, 345.3558
378.9804, 349.1988
379.4626, 352.8662
379.9447, 355.8341
380.4268, 358.1064
380.9089, 359.9166
381.3910, 360.8804
381.8731, 361.8461
382.3553, 362.8022
382.8374, 364.0299
383.3195, 366.0765
383.8016, 369.4076
384.2837, 373.3360
384.7658, 376.4647
385.2480, 378.6159
385.7301, 380.5053
386.2122, 382.0468
386.6943, 383.5808
387.1764, 385.3333
387.6585, 387.3488
388.1407, 389.6316
388.6228, 392.2171
389.1049, 395.1024
389.5870, 398.1602
390.0691, 401.6635
390.5512, 404.9164
391.0334, 407.2599
391.5155, 408.9155
391.9976, 410.7291
392.4797, 413.1739
392.9618, 416.0029
393.4439, 418.6969
393.9261, 421.1871
394.4082, 423.9701
394.8903, 427.6628
395.3724, 431.7337
395.8545, 435.2523
396.3366, 437.8646
396.8188, 440.4056
397.3009, 443.7977
397.7830, 447.7534
398.2651, 450.9831
398.7472, 452.8848
399.2293, 454.2017
399.7115, 455.9154
400.1936, 458.0066
400.6757, 460.2429
401.1578, 463.0952
401.6399, 465.7982
402.1220, 467.3369
402.6042, 467.5934
403.0863, 467.0682
403.5684, 465.9700
404.0505, 464.3568
404.5326, 463.0363
405.0147, 462.6488
405.4969, 461.9150
405.9790, 460.1440
406.4611, 457.5402
406.9432, 454.6560
407.4253, 451.7231
407.9074, 448.5895
408.3896, 444.9115
408.8717, 440.5620
409.3538, 435.8686
409.8359, 430.3308
410.3180, 424.7635
410.8001, 420.3377
411.2823, 417.0023
411.7644, 413.1950
412.2465, 407.1998
412.7286, 398.6556
413.2107, 391.7008
413.6928, 387.4984
414.1750, 383.3467
414.6571, 378.3011
415.1392, 372.6601
415.6213, 367.0598
416.1034, 361.8170
416.5855, 356.8527
417.0677, 351.9185
417.5498, 346.6334
418.0319, 342.1036
418.5140, 339.0028
418.9961, 336.1430
419.4782, 332.4477
419.9604, 327.9334
420.4425, 323.5923
420.9246, 320.6396
421.4067, 319.1710
421.8888, 316.8083
422.3709, 312.5210
422.8531, 308.5351
423.3352, 305.5627
423.8173, 303.3625
424.2994, 301.5851
424.7815, 300.1910
425.2636, 298.8087
425.7458, 296.4784
426.2279, 292.7553
426.7100, 290.0059
427.1921, 289.9164
427.6742, 290.3298
428.1563, 289.5226
428.6385, 287.4065
429.1206, 285.3947
429.6027, 284.7345
430.0848, 285.0280
430.5669, 284.7100
431.0490, 283.3707
431.5312, 282.1606
432.0133, 282.4423
432.4954, 283.4238
432.9775, 283.4931
433.4596, 281.6479
433.9417, 279.4946
434.4239, 278.5799
434.9060, 278.7124
435.3881, 278.7462
435.8702, 278.2356
436.3523, 277.4389
436.8344, 276.8521
437.3166, 276.5640
437.7987, 275.9794
438.2808, 274.7002
438.7629, 273.1752
439.2450, 271.9700
439.7271, 271.1342
440.2093, 270.2720
440.6914, 269.0249
441.1735, 267.4250
441.6556, 266.0780
442.1377, 265.2141
442.6198, 264.3114
443.1020, 263.0584
443.5841, 261.6785
444.0662, 260.5450
444.5483, 259.7905
445.0304, 259.3045
445.5125, 258.9411
445.9947, 259.0695
446.4768, 258.4201
446.9589, 256.2814
447.4410, 254.0865
447.9231, 252.5967
448.4052, 251.7985
448.8874, 251.4230
449.3695, 251.3657
449.8516, 251.4836
450.3337, 250.8664
450.8158, 248.8633
451.2979, 247.1233
451.7801, 246.0113
452.2622, 245.2412
452.7443, 244.5360
453.2264, 243.8278
453.7085, 243.2826
454.1906, 243.2426
454.6728, 243.7361
455.1549, 243.7518
455.6370, 242.8823
456.1191, 241.9479
456.6012, 241.1965
457.0833, 240.7310
457.5655, 240.8464
458.0476, 242.0548
458.5297, 243.4817
459.0118, 243.6517
459.4939, 242.5232
459.9760, 241.7414
460.4582, 242.2982
460.9403, 243.1377
461.4224, 242.6330
461.9045, 240.6015
462.3866, 238.9156
462.8687, 238.4729
463.3508, 238.7909
463.8329, 239.2772
464.3151, 239.8592
464.7972, 240.2861
465.2793, 240.2798
465.7614, 239.9253
466.2435, 239.9214
466.7256, 240.6504
467.2078, 241.2712
467.6899, 241.4918
468.1720, 241.4026
468.6541, 241.0238
469.1362, 240.3694
469.6183, 239.8072
470.1005, 239.8989
470.5826, 240.8776
471.0647, 241.7757
471.5468, 242.5551
472.0289, 243.3041
472.5110, 244.2322
472.9932, 245.1614
473.4753, 245.6684
473.9574, 245.4756
474.4395, 244.8088
474.9216, 244.3724
475.4037, 244.2809
475.8859, 244.1973
476.3680, 244.1825
476.8501, 244.0820
477.3322, 243.7722
477.8143, 243.2515
478.2964, 242.6205
478.7786, 242.0669
479.2607, 241.5090
479.7428, 240.4499
480.2249, 238.8120
480.7070, 236.8200
481.1891, 234.1388
481.6713, 231.3192
482.1534, 229.1754
482.6355, 228.0512
483.1176, 227.0038
483.5997, 225.1745
484.0818, 222.7472
484.5640, 220.3755
485.0461, 218.1535
485.5282, 216.1653
486.0103, 214.7187
486.4924, 213.7172
486.9745, 212.2123
487.4567, 209.3545
487.9388, 206.5985
488.4209, 205.1114
488.9030, 204.6025
489.3851, 204.1403
489.8672, 203.3376
490.3494, 202.2355
490.8315, 200.9053
491.3136, 199.2953
491.7957, 197.5135
492.2778, 195.0761
492.7599, 192.8492
493.2421, 191.7087
493.7242, 191.4063
494.2063, 190.8662
494.6884, 189.2193
495.1705, 186.8089
495.6526, 185.5225
496.1348, 186.5420
496.6169, 186.7895
497.0990, 185.2914
497.5811, 183.2861
498.0632, 181.7453
498.5453, 180.8432
499.0275, 180.2321
499.5096, 179.6986
499.9917, 179.2141
500.4738, 178.4301
500.9559, 177.0840
501.4380, 175.9714
501.9202, 175.7053
502.4023, 175.8417
502.8844, 175.7752
503.3665, 175.3040
503.8486, 174.8126
504.3307, 174.6795
504.8129, 174.7947
505.2950, 174.6878
505.7771, 174.1523
506.2592, 173.7678
506.7413, 174.3416
507.2234, 175.7918
507.7056, 176.5912
508.1877, 176.1291
508.6698, 175.4706
509.1519, 175.1491
509.6340, 175.1120
510.1161, 175.2573
510.5983, 175.5596
511.0804, 175.8274
511.5625, 175.6732
512.0446, 174.6643
512.5267, 174.3774
513.0089, 175.4231
513.4910, 176.5323
513.9731, 177.1348
514.4552, 177.2437
514.9373, 176.9963
515.4194, 176.4279
515.9016, 175.7437
516.3837, 175.4887
516.8658, 175.7387
517.3479, 176.2168
517.8300, 177.0149
518.3121, 177.9288
518.7943, 179.0377
519.2764, 180.2200
519.7585, 180.9779
520.2406, 180.7020
520.7227, 179.8926
521.2048, 179.6119
521.6870, 179.8889
522.1691, 180.5065
522.6512, 181.6161
523.1333, 182.8407
523.6154, 183.5174
524.0975, 183.4974
524.5797, 183.6308
525.0618, 184.4681
525.5439, 185.5203
526.0260, 186.0341
526.5081, 185.9982
526.9902, 186.1735
527.4724, 187.1991
527.9545, 188.8622
528.4366, 189.8354
528.9187, 189.4194
529.4008, 189.2766
529.8829, 189.6878
530.3651, 190.4218
530.8472, 191.3754
531.3293, 192.4612
531.8114, 193.4320
532.2935, 193.9876
532.7756, 194.1648
533.2578, 194.7946
533.7399, 196.4526
534.2220, 197.6738
534.7041, 197.5724
535.1862, 197.1563
535.6683, 197.5240
536.1505, 198.9138
536.6326, 200.5912
537.1147, 201.8217
537.5968, 202.7445
538.0789, 204.0738
538.5610, 206.0378
539.0432, 207.8699
539.5253, 208.9585
540.0074, 209.5745
540.4895, 210.3456
540.9716, 211.3454
541.4537, 212.4677
541.9359, 213.7267
542.4180, 215.0469
542.9001, 216.2649
543.3822, 217.3496
543.8643, 218.4734
544.3464, 219.8421
544.8286, 221.4684
545.3107, 222.8748
545.7928, 223.4028
546.2749, 224.5272
546.7570, 227.3064
547.2391, 230.5783
547.7213, 232.8478
548.2034, 233.7619
548.6855, 234.2511
549.1676, 235.4399
549.6497, 237.3793
550.1318, 239.2225
550.6140, 241.0199
551.0961, 242.6448
551.5782, 243.7574
552.0603, 244.8063
552.5424, 246.5277
553.0245, 249.2519
553.5067, 251.8507
553.9888, 252.9646
554.4709, 253.0456
554.9530, 253.9604
555.4351, 256.1761
555.9172, 258.4473
556.3994, 259.8455
556.8815, 260.4272
557.3636, 260.7615
557.8457, 260.3377
558.3278, 260.2734
558.8099, 261.6596
559.2921, 263.4408
559.7742, 263.8155
560.2563, 262.4614
560.7384, 260.8671
561.2205, 260.6849
561.7026, 261.9936
562.1848, 262.7090
562.6669, 262.5384
563.1490, 262.0785
563.6311, 261.3690
564.1132, 260.4572
564.5953, 259.3781
565.0775, 258.1403
565.5596, 256.7606
566.0417, 255.3183
566.5238, 253.7867
567.0059, 251.8269
567.4880, 249.3042
567.9702, 246.6615
568.4523, 244.0263
568.9344, 241.4614
569.4165, 239.1236
569.8986, 237.1075
570.3807, 235.0391
570.8629, 232.6919
571.3450, 230.1710
571.8271, 227.7228
572.3092, 225.3623
572.7913, 222.8223
573.2734, 219.7754
573.7556, 216.3608
574.2377, 213.5102
574.7198, 211.4899
575.2019, 209.6382
575.6840, 208.2045
576.1661, 206.6878
576.6483, 204.2760
577.1304, 201.1441
577.6125, 198.5529
578.0946, 197.7444
578.5767, 198.3019
579.0588, 197.8717
579.5410, 196.1058
580.0231, 194.1432
580.5052, 191.9394
580.9873, 189.9015
581.4694, 188.3895
581.9515, 187.4279
582.4337, 186.7457
582.9158, 186.5954
583.3979, 186.4524
583.8800, 185.2671
584.3621, 183.0649
584.8442, 180.9899
585.3264, 179.4533
585.8085, 178.5411
586.2906, 178.6209
586.7727, 180.2387
587.2548, 181.1115
587.7369, 180.4954
588.2191, 179.5389
588.7012, 178.9485
589.1833, 178.6909
589.6654, 178.4409
590.1475, 178.0164
590.6296, 177.5835
591.1118, 177.5851
591.5939, 178.2864
592.0760, 178.5700
592.5581, 177.7076
593.0402, 177.0372
593.5223, 177.3665
594.0045, 178.3496
594.4866, 179.1337
594.9687, 179.3252
595.4508, 179.3063
595.9329, 179.5469
596.4150, 179.9790
596.8972, 180.1189
597.3793, 179.7216
597.8614, 179.5273
598.3435, 180.3910
598.8256, 182.2986
599.3077, 183.7440
599.7899, 184.8910
600.2720, 185.3935
600.7541, 184.3172
601.2362, 182.8628
601.7183, 182.7956
602.2004, 184.4346
602.6826, 186.6078
603.1647, 188.1299
603.6468, 189.0158
604.1289, 189.7859
604.6110, 190.3438
605.0931, 190.9361
605.5753, 191.7917
606.0574, 192.6027
606.5395, 192.9563
607.0216, 192.8287
607.5037, 192.8727
607.9858, 193.7682
608.4680, 195.0704
608.9501, 195.7549
609.4322, 195.7883
609.9143, 196.1338
610.3964, 197.3854
610.8785, 199.0589
611.3607, 200.1279
611.8428, 200.3950
612.3249, 200.8364
612.8070, 201.6636
613.2891, 202.6040
613.7712, 203.6752
614.2534, 204.7014
614.7355, 205.2450
615.2176, 205.0797
615.6997, 204.6185
616.1818, 204.6325
616.6639, 205.2093
617.1461, 205.8930
617.6282, 207.0623
618.1103, 207.8428
618.5924, 207.4762
619.0745, 206.5539
619.5566, 206.1953
620.0388, 206.8835
620.5209, 207.6853
621.0030, 207.5309
621.4851, 206.9094
621.9672, 207.2832
622.4493, 208.9352
622.9315, 210.5301
623.4136, 210.9886
623.8957, 210.5171
624.3778, 210.3923
624.8599, 210.9875
625.3420, 211.3839
625.8242, 211.3435
626.3063, 211.1521
626.7884, 211.0536
627.2705, 211.0501
627.7526, 211.0156
628.2347, 210.8743
628.7169, 210.6159
629.1990, 210.2453
629.6811, 209.8153
630.1632, 208.9863
630.6453, 207.1015
631.1274, 205.4340
631.6096, 205.3299
632.0917, 206.3727
632.5738, 206.7910
633.0559, 205.6367
633.5380, 204.0803
634.0201, 202.8078
634.5023, 201.8393
634.9844, 201.4139
635.4665, 201.5831
635.9486, 201.6263
636.4307, 200.7464
636.9128, 198.9282
637.3950, 197.1738
637.8771, 195.5459
638.3592, 193.8829
638.8413, 192.0360
639.3234, 190.2317
639.8055, 188.7601
640.2877, 187.6027
640.7698, 186.4122
641.2519, 184.9066
641.7340, 183.1797
642.2161, 181.4530
642.6982, 179.7136
643.1804, 178.0784
643.6625, 176.6038
644.1446, 175.2295
644.6267, 173.8745
645.1088, 172.5277
645.5909, 171.2827
646.0731, 170.0215
646.5552, 168.9967
647.0373, 168.5837
647.5194, 168.4467
648.0015, 167.9404
648.4836, 166.8837
648.9658, 165.7007
649.4479, 164.8781
649.9300, 164.4142
650.4121, 164.2852
650.8942, 164.7581
651.3763, 165.1125
651.8585, 165.0859
652.3406, 164.8638
652.8227, 164.4535
653.3048, 163.8800
653.7869, 163.7549
654.2690, 164.8728
654.7512, 166.3559
655.2333, 166.9006
655.7154, 166.6393
656.1975, 166.5663
656.6796, 167.0990
657.1617, 168.0034
657.6439, 168.9675
658.1260, 170.1173
658.6081, 170.8075
659.0902, 170.5304
659.5723, 170.4314
660.0544, 170.9842
660.5366, 171.9140
661.0187, 172.7998
661.5008, 173.5401
661.9829, 174.4516
662.4650, 176.2690
662.9471, 178.5635
663.4293, 179.1877
663.9114, 177.7652
664.3935, 176.9210
664.8756, 178.0336
665.3577, 180.1640
665.8398, 181.8084
666.3220, 182.9575
666.8041, 183.8359
667.2862, 184.1114
667.7683, 184.4756
668.2504, 185.1685
668.7325, 186.3283
669.2147, 188.4281
669.6968, 191.5659
670.1789, 194.7206
670.6610, 196.3965
671.1431, 196.5339
671.6252, 197.0369
672.1074, 197.7607
672.5895, 199.1292
673.0716, 201.7443
673.5537, 204.8709
674.0358, 207.8171
674.5179, 210.5269
675.0001, 213.0776
675.4822, 215.2440
675.9643, 217.4598
676.4464, 220.0826
676.9285, 223.1377
677.4106, 226.7026
677.8928, 230.8257
678.3749, 235.1810
678.8570, 239.2402
679.3391, 242.8130
679.8212, 247.1995
680.3033, 253.0141
680.7855, 258.9385
681.2676, 264.8278
681.7497, 270.6186
682.2318, 276.1216
682.7139, 281.3528
683.1960, 286.7820
683.6782, 292.9246
684.1603, 299.4084
684.6424, 305.0877
685.1245, 310.1333
685.6066, 316.7751
686.0887, 326.0632
686.5709, 336.6215
687.0530, 346.3967
687.5351, 355.1794
688.0172, 364.5382
688.4993, 374.1269
688.9814, 384.6172
689.4636, 396.6684
689.9457, 409.4628
690.4278, 421.8181
690.9099, 433.7035
691.3920, 446.2315
691.8741, 460.6158
692.3563, 476.3532
692.8384, 492.0375
693.3205, 507.5572
693.8026, 523.5868
694.2847, 540.2495
694.7668, 557.4343
695.2490, 574.8707
695.7311, 592.6078
696.2132, 610.7961
696.6953, 629.4576
697.1774, 648.4815
697.6595, 667.7423
698.1417, 687.2691
698.6238, 707.5679
699.1059, 728.4063
699.5880, 748.6370
700.0701, 766.7906
700.5522, 783.8209
701.0344, 803.1487
701.5165, 825.3187
701.9986, 847.0726
702.4807, 867.3418
702.9628, 887.2883
703.4449, 907.6473
703.9271, 928.5572
704.4092, 950.4507
704.8913, 974.9103
705.3734, 998.5017
705.8555, 1019.247
706.3376, 1038.475
706.8198, 1057.963
707.3019, 1077.719
707.7840, 1095.944
708.2661, 1111.438
708.7482, 1124.071
709.2303, 1133.561
709.7125, 1140.230
710.1946, 1142.276
710.6767, 1140.072
711.1588, 1132.159
711.6409, 1117.354
712.1230, 1096.370
712.6052, 1070.527
713.0873, 1039.331
713.5694, 1004.665
714.0515, 966.2425
714.5336, 925.2346
715.0157, 881.7220
715.4979, 836.7619
715.9800, 793.1794
716.4621, 753.0743
716.9442, 712.2825
717.4263, 676.7615
717.9084, 637.0551
718.3906, 600.5231
718.8727, 567.7101
719.3548, 537.8521
719.8369, 511.2454
720.3190, 487.1172
720.8011, 464.3256
721.2833, 442.7107
721.7654, 422.5026
722.2475, 403.9371
722.7296, 386.8592
723.2117, 371.2506
723.6938, 356.9858
724.1760, 343.7152
724.6581, 331.1963
725.1402, 319.7033
725.6223, 309.6516
726.1044, 301.1718
726.5865, 292.9229
727.0687, 284.7446
727.5508, 276.9544
728.0329, 269.2694
728.5150, 262.2065
728.9971, 256.4346
729.4792, 251.9849
729.9614, 247.8248
730.4435, 243.3623
730.9256, 239.1104
731.4077, 235.5495
731.8898, 232.5581
732.3719, 230.0139
732.8541, 227.8387
733.3362, 225.4939
733.8183, 222.2550
734.3004, 218.3088
734.7825, 215.7464
735.2646, 215.2659
735.7468, 214.6862
736.2289, 213.0963
736.7110, 211.6384
737.1931, 211.1991
737.6752, 211.6072
738.1573, 212.0657
738.6395, 212.3921
739.1216, 212.6163
739.6037, 212.5978
740.0858, 212.5535
740.5679, 212.8454
741.0500, 213.5022
741.5322, 214.3243
742.0143, 215.1921
742.4964, 216.0748
742.9785, 216.8829
743.4606, 217.6143
743.9427, 218.2626
744.4249, 218.6730
744.9070, 219.2060
745.3891, 220.1191
745.8712, 221.2462
746.3533, 222.4247
746.8354, 223.7936
747.3176, 224.5359
747.7997, 223.6725
748.2818, 222.4584
748.7639, 222.3683
749.2460, 223.0711
749.7281, 223.2780
750.2103, 222.4612
750.6924, 221.3331
751.1745, 221.0186
751.6566, 221.5354
752.1387, 220.9813
752.6208, 218.9482
753.1030, 216.8145
753.5851, 214.9750
754.0672, 213.3229
754.5493, 211.8075
755.0314, 210.4157
755.5135, 208.8626
755.9957, 206.8655
756.4778, 204.9212
756.9599, 203.5681
757.4420, 202.3254
757.9241, 200.3909
758.4063, 197.7167
758.8884, 194.9762
759.3705, 192.6691
759.8526, 190.6787
760.3347, 188.7151
760.8168, 186.7988
761.2990, 184.7653
761.7811, 182.5189
762.2632, 180.3103
762.7453, 178.4983
763.2274, 176.8461
763.7095, 174.5608
764.1917, 171.0293
764.6738, 168.1544
765.1559, 166.9576
765.6380, 166.0727
766.1201, 164.5883
766.6022, 162.5634
767.0844, 160.2183
767.5665, 157.6599
768.0486, 155.1999
768.5307, 153.1964
769.0128, 151.6205
769.4949, 150.2872
769.9771, 149.1870
770.4592, 148.3870
770.9413, 148.0506
771.4234, 147.7834
771.9055, 147.0359
772.3876, 145.7461
772.8698, 144.4702
773.3519, 142.9659
773.8340, 141.7725
774.3161, 141.2697
774.7982, 140.9815
775.2803, 140.4868
775.7625, 139.7505
776.2446, 138.9241
776.7267, 138.0555
777.2088, 137.2204
777.6909, 136.4151
778.1730, 135.7252
778.6552, 135.6006
779.1373, 136.1270
779.6194, 136.6405
780.1015, 136.7319
780.5836, 136.4429
781.0657, 135.8593
781.5479, 134.6540
782.0300, 133.8937
782.5121, 133.9524
782.9942, 134.0210
783.4763, 133.8515
783.9584, 133.4851
784.4406, 132.9081
784.9227, 132.1201
785.4048, 131.5185
785.8869, 131.6124
786.3690, 131.8013
786.8511, 131.2817
787.3333, 130.2898
787.8154, 129.5774
788.2975, 129.3499
788.7796, 129.1934
789.2617, 128.6808
789.7438, 128.2919
790.2260, 127.8602
790.7081, 127.1120
791.1902, 126.6698
791.6723, 125.8147
792.1544, 124.7568
792.6365, 123.4168
793.1187, 122.0104
793.6008, 121.1451
794.0829, 121.2304
794.5650, 121.1279
795.0471, 120.1966
795.5292, 119.0934
796.0114, 118.4925
796.4935, 118.2091
796.9756, 117.6732
797.4577, 116.6571
797.9398, 115.4317
798.4219, 114.2433
798.9041, 113.1218
799.3862, 112.2841
799.8683, 111.7694
800.3504, 111.0562
800.8325, 109.8333
801.3146, 108.6172
801.7968, 108.0880
802.2789, 108.2680
802.7610, 108.0344
803.2431, 106.9668
803.7252, 106.0956
804.2073, 105.7497
804.6895, 105.5274
805.1716, 105.0808
805.6537, 104.4792
806.1358, 104.0142
806.6179, 103.8265
807.1000, 103.7347
807.5822, 103.7171
808.0643, 103.6240
808.5464, 103.0041
809.0285, 101.9205
809.5106, 101.0732
809.9927, 100.7977
810.4749, 100.8152
810.9570, 100.6982
811.4391, 100.4369
811.9212, 100.1544
812.4033, 99.80698
812.8854, 99.51614
813.3676, 99.35324
813.8497, 99.23420
814.3318, 99.27970
814.8139, 99.38095
815.2960, 98.86220
815.7781, 96.60815
816.2603, 94.91860
816.7424, 95.42494
817.2245, 96.62071
817.7066, 96.76214
818.1887, 95.97841
818.6708, 95.49245
819.1530, 95.96207
819.6351, 96.67777
820.1172, 96.45290
820.5993, 95.49928
821.0814, 95.28883
821.5635, 95.96013
822.0457, 96.56295
822.5278, 96.72506
823.0099, 96.54790
823.4920, 96.11781
823.9741, 95.38539
824.4562, 94.87001
824.9384, 94.47494
825.4205, 94.41676
825.9026, 95.28008
826.3847, 96.05049
826.8668, 95.62868
827.3489, 94.36189
827.8311, 93.62566
828.3132, 94.17104
828.7953, 94.81336
829.2774, 94.47193
829.7595, 93.77126
830.2416, 93.76628
830.7238, 94.34757
831.2059, 94.57767
831.6880, 94.01528
832.1701, 93.28926
832.6522, 93.33817
833.1343, 94.13203
833.6165, 94.95948
834.0985, 95.96328
834.5806, 96.39243
835.0627, 95.81884
835.5449, 94.83617
836.0270, 93.86971
836.5091, 92.97066
836.9912, 92.71424
837.4733, 93.61864
837.9554, 94.45800
838.4376, 95.24416
838.9197, 95.67695
839.4018, 95.29913
839.8839, 94.43752
840.3660, 93.81735
840.8481, 93.70542
841.3303, 93.72919
841.8124, 93.62660
842.2945, 93.42342
842.7766, 93.05428
843.2587, 92.60239
843.7408, 92.46426
844.2230, 92.76791
844.7051, 93.22126
845.1872, 93.54551
845.6693, 93.71980
846.1514, 93.52895
846.6335, 92.79623
847.1157, 92.31738
847.5978, 92.28714
848.0799, 92.44361
848.5620, 92.71547
849.0441, 93.01978
849.5262, 93.14445
850.0084, 93.00570
850.4905, 92.89725
850.9726, 92.94080
851.4547, 92.95959
851.9368, 92.71272
852.4189, 92.43781
852.9011, 92.55971
853.3832, 93.11414
853.8653, 93.65020
854.3474, 94.00848
854.8295, 94.00191
855.3116, 92.92723
855.7938, 91.26723
856.2759, 90.80929
856.7580, 91.78107
857.2401, 92.57779
857.7222, 92.04968
858.2043, 90.83981
858.6865, 90.54574
859.1686, 91.40267
859.6507, 91.98516
860.1328, 92.35458
860.6149, 92.27415
861.0970, 91.29426
861.5792, 90.07973
862.0613, 89.42648
862.5434, 89.32907
863.0255, 89.53022
863.5076, 90.23836
863.9897, 90.93501
864.4719, 91.60931
864.9540, 92.08315
865.4361, 92.15237
865.9182, 91.88607
866.4003, 91.48973
866.8824, 91.02956
867.3646, 90.57914
867.8467, 90.05614
868.3288, 89.65870
868.8109, 89.86951
869.2930, 90.57578
869.7751, 91.26625
870.2573, 91.75338
870.7394, 91.86519
871.2215, 91.31747
871.7036, 90.28040
872.1857, 89.78282
872.6678, 89.93921
873.1500, 90.12688
873.6321, 90.25118
874.1142, 90.38329
874.5963, 90.68905
875.0784, 91.00843
875.5605, 90.80688
876.0427, 89.76066
876.5248, 89.16380
877.0069, 89.28815
877.4890, 89.66100
877.9711, 90.46336
878.4532, 91.17139
878.9354, 90.98130
879.4175, 89.97408
879.8996, 89.26125
880.3817, 89.52003
880.8638, 90.10958
881.3459, 90.62064
881.8281, 91.02144
882.3102, 91.33965
882.7923, 91.50581
883.2744, 91.08852
883.7565, 89.85577
884.2386, 88.68697
884.7208, 89.13318
885.2029, 90.92648
885.6850, 91.64734
886.1671, 91.17365
886.6492, 91.13250
887.1313, 92.19569
887.6135, 93.25526
888.0956, 93.10842
888.5777, 92.01128
889.0598, 91.69465
889.5419, 92.83169
890.0240, 93.56033
890.5062, 93.18365
890.9883, 93.08480
891.4704, 94.33715
891.9525, 96.01476
892.4346, 96.58967
892.9167, 95.83531
893.3989, 95.51577
893.8810, 96.64625
894.3631, 97.91795
894.8452, 98.73449
895.3273, 99.13622
895.8094, 98.87142
896.2916, 98.22703
896.7737, 98.25407
897.2558, 99.61051
897.7379, 101.2572
898.2200, 101.8935
898.7021, 101.8506
899.1843, 101.7812
899.6664, 101.7901
900.1485, 102.3167
900.6306, 103.5333
901.1127, 104.9584
901.5948, 106.0722
902.0770, 106.9022
902.5591, 107.5838
903.0412, 108.0207
903.5233, 108.7708
904.0054, 110.0532
904.4875, 111.4036
904.9697, 112.6611
905.4518, 113.7216
905.9339, 114.2493
906.4160, 113.9488
906.8981, 114.1743
907.3802, 115.2346
907.8624, 116.4745
908.3445, 117.8738
908.8266, 119.2187
909.3087, 120.3133
909.7908, 121.1604
910.2729, 121.8456
910.7551, 122.4084
911.2372, 122.7926
911.7193, 122.8230
912.2014, 122.7587
912.6835, 122.7932
913.1656, 122.9840
913.6478, 123.5957
914.1299, 124.6227
914.6120, 125.2218
915.0941, 124.3280
915.5762, 122.7578
916.0583, 122.2439
916.5405, 122.6032
917.0226, 123.0679
917.5047, 123.4889
917.9868, 123.4511
918.4689, 122.6627
918.9510, 121.3915
919.4332, 120.0660
919.9153, 118.6329
920.3974, 117.8997
920.8795, 118.2207
921.3616, 118.1749
921.8438, 117.0958
922.3259, 115.8287
922.8080, 115.2716
923.2901, 115.2863
923.7722, 114.8641
924.2543, 113.8319
924.7365, 112.6611
925.2186, 111.0975
925.7007, 109.7015
926.1828, 108.7936
926.6649, 108.1804
927.1470, 107.6114
927.6292, 107.0465
928.1113, 106.5178
928.5934, 105.7450
929.0755, 105.3460
929.5576, 106.2002
930.0397, 107.2739
930.5219, 107.2821
931.0040, 106.3784
931.4861, 105.4387
931.9682, 104.8350
932.4503, 104.3010
932.9324, 103.3339
933.4146, 103.2954
933.8967, 102.3969
934.3788, 103.1879
934.8609, 103.8286
935.3430, 104.0913
935.8251, 104.0386
936.3073, 103.6761
936.7894, 103.1875
937.2715, 102.9950
937.7536, 103.0990
938.2357, 103.4058
938.7178, 103.9916
939.2000, 104.2826
939.6821, 103.9357
940.1642, 103.4889
940.6463, 103.5769
941.1284, 104.1648
941.6105, 104.7730
942.0927, 105.5523
942.5748, 106.0443
943.0569, 105.9678
943.5390, 105.8832
944.0211, 105.9735
944.5032, 106.2715
944.9854, 106.9526
945.4675, 108.0887
945.9496, 108.8147
946.4317, 108.8356
946.9138, 108.6195
947.3959, 107.8197
947.8781, 107.2766
948.3602, 108.0079
948.8423, 109.5894
949.3244, 110.7519
949.8065, 111.0370
950.2886, 111.3751
950.7708, 112.6646
951.2529, 113.9894
951.7350, 114.4112
952.2171, 114.2460
952.6992, 114.0484
953.1813, 113.9495
953.6635, 113.8707
954.1456, 113.7534
954.6277, 113.6759
955.1098, 113.7826
955.5919, 114.0042
956.0740, 114.3508
956.5562, 114.6970
957.0383, 114.1747
957.5204, 112.5059
958.0025, 110.7632
958.4846, 110.0608
958.9667, 110.0805
959.4489, 109.6661
959.9310, 108.7867
960.4131, 108.3022
960.8952, 108.3918
961.3773, 108.4013
961.8594, 108.0196
962.3416, 107.3768
962.8237, 106.6831
963.3058, 105.9408
963.7879, 104.7260
964.2700, 102.5822
964.7521, 100.9804
965.2343, 100.3183
965.7164, 99.99621
966.1985, 99.77441
966.6806, 99.59547
967.1627, 99.40953
967.6448, 99.30653
968.1270, 98.73363
968.6091, 96.77991
969.0912, 95.49474
969.5733, 96.10559
970.0554, 97.05836
970.5375, 97.06100
971.0197, 96.31187
971.5018, 95.60290
971.9839, 95.12363
972.4660, 94.65999
972.9481, 93.99784
973.4302, 93.45699
973.9124, 93.32846
974.3945, 93.41794
974.8766, 93.50726
975.3587, 93.54138
975.8408, 93.50376
976.3229, 93.37518
976.8051, 93.21580
977.2872, 93.02931
977.7693, 92.87601
978.2514, 92.90151
978.7335, 93.01818
979.2156, 92.98586
979.6978, 92.75750
980.1799, 92.47449
980.6620, 92.20170
981.1441, 92.05381
981.6262, 92.49776
982.1083, 93.20028
982.5905, 92.75377
983.0726, 91.25806
983.5547, 90.38257
984.0368, 90.76073
984.5189, 91.67876
985.0010, 92.44591
985.4832, 93.03319
985.9653, 93.34432
986.4474, 93.37985
986.9295, 93.07967
987.4116, 92.39664
987.8937, 91.65984
988.3759, 90.97873
988.8580, 90.48558
989.3401, 90.39416
989.8222, 90.68474
990.3043, 90.89468
990.7864, 91.03649
991.2686, 91.06715
991.7507, 91.01888
992.2328, 90.74908
992.7149, 89.91871
993.1970, 89.04507
993.6791, 89.17942
994.1613, 90.55249
994.6434, 91.15456
995.1255, 90.12090
995.6076, 89.62887
996.0897, 90.37987
996.5718, 91.36768
997.0540, 92.16618
997.5361, 92.72514
998.0182, 92.97443
998.5003, 92.91872
998.9824, 92.50988
999.4645, 91.21392
999.9467, 90.24767
1000.429, 90.12074
1000.911, 90.38943
1001.393, 90.91402
1001.875, 91.48393
1002.357, 91.60070
1002.839, 91.04232
1003.321, 90.79093
1003.804, 91.62736
1004.286, 92.42653
1004.768, 92.39561
1005.250, 92.04076
1005.732, 91.95914
1006.214, 92.12566
1006.696, 92.16727
1007.178, 91.90972
1007.661, 91.76977
1008.143, 92.17195
1008.625, 92.68798
1009.107, 93.02689
1009.589, 93.12880
1010.071, 92.85100
1010.553, 92.25491
1011.035, 91.53548
1011.517, 90.73947
1012.000, 90.29256
1012.482, 90.99666
1012.964, 92.08247
1013.446, 92.26794
1013.928, 91.84965
1014.410, 91.68685
1014.892, 91.93446
1015.374, 92.26440
1015.857, 92.48567
1016.339, 92.57648
1016.821, 92.46632
1017.303, 92.21156
1017.785, 91.83069
1018.267, 91.42542
1018.749, 91.61108
1019.231, 92.47594
1019.713, 93.07932
1020.196, 92.69439
1020.678, 91.80579
1021.160, 91.31762
1021.642, 91.15971
1022.124, 90.81717
1022.606, 90.28927
1023.088, 89.84370
1023.570, 89.54997
1024.052, 89.59692
1024.535, 90.23837
1025.017, 91.02376
1025.499, 90.64381
1025.981, 89.06861
1026.463, 88.38161
1026.945, 88.75581
1027.427, 88.77470
1027.909, 87.89676
1028.392, 87.07885
1028.874, 87.21188
1029.356, 87.96012
1029.838, 88.30406
1030.320, 88.21377
1030.802, 87.79813
1031.284, 86.83605
1031.766, 86.42014
1032.249, 87.13924
1032.731, 87.90901
1033.213, 87.66550
1033.695, 86.73875
1034.177, 86.35378
1034.659, 86.75047
1035.141, 86.87141
1035.623, 86.64344
1036.105, 86.27695
1036.588, 85.66068
1037.070, 85.18592
1037.552, 85.29958
1038.034, 85.82596
1038.516, 86.06803
1038.998, 85.94357
1039.480, 85.74585
1039.962, 85.19846
1040.444, 85.02781
1040.927, 85.93529
1041.409, 86.79980
1041.891, 86.35381
1042.373, 85.03818
1042.855, 84.65366
1043.337, 85.85801
1043.819, 86.43067
1044.301, 85.36824
1044.784, 84.99217
1045.266, 86.73579
1045.748, 88.71645
1046.230, 89.23775
1046.712, 88.71284
1047.194, 88.55486
1047.676, 89.04472
1048.158, 89.31872
1048.641, 88.94556
1049.123, 88.80171
1049.605, 89.27013
1050.087, 89.98434
1050.569, 90.71304
1051.051, 91.41914
1051.533, 92.09157
1052.015, 92.79897
1052.497, 93.19951
1052.979, 92.97690
1053.462, 92.76428
1053.944, 92.81133
1054.426, 92.94381
1054.908, 92.92728
1055.390, 92.88486
1055.872, 93.20235
1056.354, 94.03448
1056.836, 94.66955
1057.319, 94.86698
1057.801, 94.90898
1058.283, 94.97346
1058.765, 94.87096
1059.247, 94.09435
1059.729, 93.10698
1060.211, 93.05293
1060.693, 94.24500
1061.176, 95.24411
1061.658, 95.33031
1062.140, 95.48380
1062.622, 96.26197
1063.104, 97.16431
1063.586, 97.88792
1064.068, 98.35949
1064.550, 98.36166
1065.032, 97.84312
1065.515, 97.76909
1065.997, 98.80382
1066.479, 99.95530
1066.961, 100.9062
1067.443, 101.6725
1067.925, 102.2528
1068.407, 102.6707
1068.889, 102.9921
1069.371, 103.2190
1069.854, 103.1998
1070.336, 102.3273
1070.818, 101.9208
1071.300, 103.0743
1071.782, 104.4422
1072.264, 104.6879
1072.746, 104.4966
1073.228, 105.1219
1073.711, 106.7098
1074.193, 108.4967
1074.675, 110.7859
1075.157, 112.1650
1075.639, 110.9959
1076.121, 109.6536
1076.603, 110.1573
1077.085, 111.6092
1077.568, 112.6552
1078.050, 113.1045
1078.532, 113.2667
1079.014, 112.9897
1079.496, 113.0891
1079.978, 114.2105
1080.460, 115.5682
1080.942, 116.8995
1081.424, 117.9272
1081.906, 118.1218
1082.389, 117.6958
1082.871, 117.6840
1083.353, 118.6040
1083.835, 119.3036
1084.317, 118.9672
1084.799, 118.5562
1085.281, 118.6962
1085.763, 119.0859
1086.245, 119.3761
1086.728, 119.5660
1087.210, 119.8499
1087.692, 120.3326
1088.174, 120.5436
1088.656, 119.9469
1089.138, 119.4265
1089.620, 119.6795
1090.102, 120.0676
1090.585, 119.8005
1091.067, 119.1821
1091.549, 119.0575
1092.031, 119.6233
1092.513, 120.2285
1092.995, 120.8066
1093.477, 121.1283
1093.959, 120.9270
1094.442, 120.5857
1094.924, 120.3203
1095.406, 120.1849
1095.888, 120.2562
1096.370, 120.5332
1096.852, 120.8172
1097.334, 120.9871
1097.816, 121.2388
1098.298, 121.8412
1098.781, 122.3347
1099.263, 122.3050
1099.745, 122.0440
1100.227, 121.9602
1100.709, 122.0686
1101.191, 122.1153
1101.673, 121.8684
1102.155, 121.9166
1102.637, 122.8796
1103.120, 123.6334
1103.602, 123.1887
1104.084, 122.5555
1104.566, 122.9161
1105.048, 124.0636
1105.530, 124.9467
1106.012, 125.3212
1106.494, 125.6934
1106.977, 126.3489
1107.459, 126.7722
1107.941, 126.7047
1108.423, 126.4038
1108.905, 125.8702
1109.387, 125.3218
1109.869, 125.2810
1110.351, 125.8906
1110.833, 126.3038
1111.316, 126.2867
1111.798, 126.2777
1112.280, 126.5114
1112.762, 126.6184
1113.244, 126.3581
1113.726, 125.8486
1114.208, 125.1833
1114.690, 124.3627
1115.172, 123.7996
1115.655, 123.8992
1116.137, 123.6143
1116.619, 122.4111
1117.101, 121.4579
1117.583, 121.4334
1118.065, 121.6718
1118.547, 121.5498
1119.029, 121.0781
1119.512, 120.2931
1119.994, 119.0153
1120.476, 117.8906
1120.958, 117.0712
1121.440, 116.0959
1121.922, 114.6746
1122.404, 113.3090
1122.886, 112.3841
1123.369, 111.7974
1123.851, 111.3482
1124.333, 111.0932
1124.815, 110.4680
1125.297, 109.3100
1125.779, 108.3153
1126.261, 107.6704
1126.743, 107.0431
1127.225, 106.2733
1127.708, 105.3601
1128.190, 104.2672
1128.672, 103.0229
1129.154, 101.8968
1129.636, 100.8943
1130.118, 99.99333
1130.600, 99.21495
1131.082, 98.40404
1131.564, 97.51484
1132.047, 96.49516
1132.529, 95.27304
1133.011, 94.27307
1133.493, 92.83701
1133.975, 91.94825
1134.457, 90.82568
1134.939, 89.46340
1135.421, 88.40935
1135.904, 87.80357
1136.386, 87.52730
1136.868, 87.54531
1137.350, 87.51106
1137.832, 86.80531
1138.314, 85.58295
1138.796, 84.33989
1139.278, 83.13341
1139.760, 82.41686
1140.243, 82.14576
1140.725, 81.45432
1141.207, 79.97932
1141.689, 78.49593
1142.171, 77.82246
1142.653, 77.53161
1143.135, 76.88467
1143.617, 76.01115
1144.099, 75.04370
1144.582, 74.14041
1145.064, 73.83879
1145.546, 74.18021
1146.028, 74.55244
1146.510, 74.60905
1146.992, 74.37480
1147.474, 73.69949
1147.956, 72.89505
1148.439, 72.40324
1148.921, 71.75258
1149.403, 71.15977
1149.885, 70.73007
1150.367, 70.13909
1150.849, 69.82758
1151.331, 69.55141
1151.813, 69.12514
1152.296, 68.70444
1152.778, 68.19984
1153.260, 67.93039
1153.742, 68.44333
1154.224, 69.32569
1154.706, 69.92139
1155.188, 70.08688
1155.670, 69.78436
1156.152, 68.63660
1156.635, 67.79292
1157.117, 67.87572
1157.599, 68.13176
1158.081, 68.21148
1158.563, 68.20458
1159.045, 68.27795
1159.527, 68.35784
1160.009, 68.19958
1160.491, 67.75099
1160.974, 67.17738
1161.456, 66.02939
1161.938, 65.42568
1162.420, 66.01540
1162.902, 66.73414
1163.384, 67.10548
1163.866, 67.18568
1164.348, 66.93917
1164.831, 66.40895
1165.313, 66.33636
1165.795, 66.96458
1166.277, 67.44663
1166.759, 67.87852
1167.241, 67.73980
1167.723, 66.52213
1168.205, 65.56477
1168.688, 66.20404
1169.170, 67.61198
1169.652, 67.63380
1170.134, 66.23704
1170.616, 65.74128
1171.098, 66.21152
1171.580, 66.72927
1172.062, 67.15407
1172.544, 67.23780
1173.026, 66.82603
1173.509, 66.35832
1173.991, 66.37849
1174.473, 66.67647
1174.955, 66.69249
1175.437, 66.47802
1175.919, 66.22383
1176.401, 65.95343
1176.883, 65.67776
1177.366, 65.41243
1177.848, 65.24582
1178.330, 65.24348
1178.812, 65.28267
1179.294, 65.16862
1179.776, 65.04662
1180.258, 65.11207
1180.740, 65.34151
1181.223, 65.88213
1181.705, 66.51237
1182.187, 66.54041
1182.669, 65.81986
1183.151, 65.21438
1183.633, 65.17569
1184.115, 65.50446
1184.597, 66.68914
1185.079, 67.55593
1185.562, 66.60794
1186.044, 65.06594
1186.526, 64.65185
1187.008, 65.26628
1187.490, 65.79496
1187.972, 66.01582
1188.454, 66.03638
1188.936, 65.65127
1189.418, 65.39291
1189.901, 65.39388
1190.383, 65.60777
1190.865, 66.28490
1191.347, 66.99304
1191.829, 67.00912
1192.311, 66.38261
1192.793, 65.93227
1193.275, 65.73392
1193.758, 65.52937
1194.240, 65.33073
1194.722, 65.03418
1195.204, 64.45589
1195.686, 64.21337
1196.168, 64.90076
1196.650, 65.97242
1197.132, 66.27516
1197.615, 66.58205
1198.097, 65.90015
1198.579, 66.32262
1199.061, 66.11518
1199.543, 65.17804
1200.025, 64.77966
1200.507, 65.41074
1200.989, 66.02537
1201.471, 65.64308
1201.953, 64.85140
1202.436, 64.62418
1202.918, 64.79502
1203.400, 65.00700
1203.882, 65.28684
1204.364, 65.91963
1204.846, 66.76363
1205.328, 67.06520
1205.810, 66.53526
1206.293, 66.01797
1206.775, 66.37708
1207.257, 66.69759
1207.739, 65.99709
1208.221, 65.12962
1208.703, 64.95368
1209.185, 65.18626
1209.667, 65.28974
1210.150, 65.25351
1210.632, 65.47463
1211.114, 66.25557
1211.596, 66.55513
1212.078, 65.51109
1212.560, 64.78639
1213.042, 65.21624
1213.524, 65.81993
1214.006, 65.98983
1214.489, 65.88053
1214.971, 65.62366
1215.453, 65.25662
1215.935, 65.28724
1216.417, 65.96038
1216.899, 66.20277
1217.381, 65.87237
1217.863, 65.48403
1218.345, 65.13864
1218.828, 64.94520
1219.310, 64.97672
1219.792, 65.23466
1220.274, 65.83308
1220.756, 66.60182
1221.238, 66.71928
1221.720, 66.25719
1222.202, 65.33891
1222.685, 64.17320
1223.167, 63.92311
1223.649, 64.83329
1224.131, 65.76907
1224.613, 65.96916
1225.095, 65.82311
1225.577, 65.66398
1226.059, 65.49713
1226.542, 65.16525
1227.024, 64.93841
1227.506, 65.42089
1227.988, 66.29759
1228.470, 66.72459
1228.952, 66.52962
1229.434, 66.20480
1229.916, 65.69620
1230.398, 65.54900
1230.880, 66.41655
1231.363, 67.11961
1231.845, 66.74741
1232.327, 66.20914
1232.809, 66.45647
1233.291, 67.18565
1233.773, 67.62947
1234.255, 67.77808
1234.737, 67.74380
1235.220, 67.44154
1235.702, 67.20725
1236.184, 67.07436
1236.666, 67.01152
1237.148, 67.03019
1237.630, 67.00574
1238.112, 66.80543
1238.594, 66.57949
1239.077, 66.73563
1239.559, 66.45957
1240.041, 66.95892
1240.523, 66.35215
1241.005, 66.24020
1241.487, 66.60000
1241.969, 66.59145
1242.451, 65.97012
1242.933, 65.32186
1243.416, 65.00233
1243.898, 65.02350
1244.380, 65.74683
1244.862, 66.46531
1245.344, 66.25626
1245.826, 65.73605
1246.308, 65.73892
1246.790, 66.16267
1247.272, 66.59676
1247.755, 66.95278
1248.237, 67.05146
1248.719, 66.53630
1249.201, 66.24536
1249.683, 66.37410
1250.165, 66.69034
1250.647, 67.46773
1251.129, 67.96164
1251.612, 67.39407
1252.094, 66.33529
1252.576, 65.97836
1253.058, 66.29971
1253.540, 66.20848
1254.022, 65.61557
1254.504, 65.62431
1254.986, 66.36000
1255.469, 67.07672
1255.951, 67.53413
1256.433, 67.80930
1256.915, 67.95499
1257.397, 67.97565
1257.879, 67.78697
1258.361, 67.54126
1258.843, 67.61421
1259.325, 67.42877
1259.807, 67.67265
1260.290, 67.32159
1260.772, 67.16013
1261.254, 67.20777
1261.736, 66.94655
1262.218, 65.98359
1262.700, 65.32307
1263.182, 65.54899
1263.664, 66.03469
1264.147, 66.62653
1264.629, 67.21266
1265.111, 67.75698
1265.593, 68.22102
1266.075, 68.59721
1266.557, 68.86136
1267.039, 68.77374
1267.521, 68.16222
1268.004, 67.77414
1268.486, 67.60786
1268.968, 67.65817
1269.450, 67.90294
1269.932, 68.72047
1270.414, 70.43382
1270.896, 71.58887
1271.378, 70.21729
1271.860, 67.66528
1272.343, 66.95860
1272.825, 67.42926
1273.307, 67.48888
1273.789, 67.24134
1274.271, 67.18710
1274.753, 67.38205
1275.235, 67.69436
1275.717, 68.07071
1276.199, 68.34421
1276.682, 68.39726
1277.164, 68.35960
1277.646, 67.94503
1278.128, 67.87016
1278.610, 69.15606
1279.092, 70.53561
1279.574, 70.55651
1280.056, 69.61711
1280.539, 68.86826
1281.021, 68.30354
1281.503, 68.11537
1281.985, 68.01479
1282.467, 68.63756
1282.949, 68.66359
1283.431, 69.07731
1283.913, 70.13205
1284.396, 70.84983
1284.878, 70.50247
1285.360, 69.77134
1285.842, 69.70354
1286.324, 69.95535
1286.806, 69.90800
##END=



