##NAMES=Polydymite
##RRUFFID=R050609
##IDEAL CHEMISTRY=Ni^2+^Ni^3+^_2_S^2-^_4_
##LOCALITY=Dry Nickel mine, Bindura, South Rhodesia, Rhodesia
##OWNER=RRUFF
##SOURCE=University of Arizona Mineral Museum
##DESCRIPTION=Reddish-bronze tarnished metallic fragment associated with green clinochlore and white actinolite
##STATUS=The identification of this mineral has been confirmed by X-ray diffraction.
##URL=rruff.info/R050609
##MEASURED CHEMISTRY=(Ni_0.85_Fe_0.15_)Ni_2.00_S_4.00_
92.06543, 226.1142
92.54755, 221.1311
93.02966, 221.0077
93.51178, 231.1330
93.99390, 236.5942
94.47601, 234.0938
94.95813, 225.6527
95.44025, 215.1168
95.92236, 205.2615
96.40448, 196.0072
96.88660, 188.2945
97.36871, 183.2261
97.85082, 178.6820
98.33294, 173.0603
98.81506, 166.0428
99.29717, 158.6151
99.77929, 152.9844
100.2614, 149.0068
100.7435, 144.1616
101.2256, 137.1984
101.7078, 128.9114
102.1899, 120.9596
102.6720, 113.0243
103.1541, 106.4660
103.6362, 102.2339
104.1183, 100.2680
104.6005, 99.39030
105.0826, 98.96313
105.5647, 99.09052
106.0468, 98.80067
106.5289, 97.98971
107.0110, 96.61012
107.4931, 94.50175
107.9753, 91.61792
108.4574, 88.18627
108.9395, 84.57621
109.4216, 80.35510
109.9037, 76.66430
110.3858, 73.70188
110.8680, 71.21971
111.3501, 68.98653
111.8322, 66.86925
112.3143, 64.89543
112.7964, 63.22171
113.2785, 61.95275
113.7607, 60.83109
114.2428, 59.73240
114.7249, 58.72002
115.2070, 57.97971
115.6891, 57.71102
116.1712, 57.90311
116.6534, 57.87672
117.1355, 57.39075
117.6176, 56.86383
118.0997, 56.60933
118.5818, 56.65713
119.0639, 56.86543
119.5461, 57.09330
120.0282, 57.37094
120.5103, 57.85192
120.9924, 58.76398
121.4745, 59.90437
121.9566, 60.80334
122.4388, 61.35455
122.9209, 61.73018
123.4030, 62.22105
123.8851, 62.72536
124.3672, 62.88188
124.8493, 62.32459
125.3315, 61.00953
125.8136, 59.61781
126.2957, 57.56770
126.7778, 55.93634
127.2599, 55.56566
127.7420, 56.36347
128.2242, 57.31911
128.7063, 56.93855
129.1884, 54.10606
129.6705, 52.22705
130.1526, 51.86277
130.6347, 51.95127
131.1169, 51.76321
131.5990, 51.04349
132.0811, 49.95774
132.5632, 48.86519
133.0453, 47.70895
133.5274, 46.60992
134.0096, 45.37806
134.4917, 44.24596
134.9738, 43.60048
135.4559, 43.66229
135.9380, 44.23564
136.4201, 44.65495
136.9023, 44.90205
137.3844, 45.06593
137.8665, 45.21362
138.3486, 45.32393
138.8307, 45.29026
139.3128, 45.02679
139.7950, 44.57024
140.2771, 44.04674
140.7592, 43.37675
141.2413, 42.72702
141.7234, 42.26937
142.2055, 42.02380
142.6877, 41.87845
143.1698, 41.91705
143.6519, 41.98519
144.1340, 41.88783
144.6161, 41.51223
145.0982, 40.94408
145.5803, 40.38081
146.0625, 39.73249
146.5446, 39.25527
147.0267, 39.00779
147.5088, 38.96095
147.9909, 39.09667
148.4730, 39.46380
148.9552, 40.03805
149.4373, 40.31557
149.9194, 40.05965
150.4015, 39.69521
150.8836, 39.31145
151.3657, 38.90396
151.8479, 38.40908
152.3300, 37.74895
152.8121, 36.85073
153.2942, 36.22645
153.7763, 36.06916
154.2584, 35.95121
154.7406, 35.65496
155.2227, 35.16969
155.7048, 34.61264
156.1869, 34.09731
156.6690, 33.61922
157.1511, 33.25853
157.6333, 33.02571
158.1154, 32.89941
158.5975, 32.87780
159.0796, 32.96189
159.5617, 33.11583
160.0438, 33.35184
160.5260, 33.69160
161.0081, 33.85205
161.4902, 33.65472
161.9723, 33.25105
162.4544, 32.91722
162.9365, 32.73243
163.4187, 32.60184
163.9008, 32.37276
164.3829, 32.04891
164.8650, 31.83899
165.3471, 31.97030
165.8292, 32.37578
166.3113, 32.58952
166.7935, 32.33008
167.2756, 32.02280
167.7577, 32.01716
168.2398, 32.32034
168.7219, 32.68480
169.2040, 32.89670
169.6862, 32.94893
170.1683, 32.89387
170.6504, 32.58129
171.1325, 32.26702
171.6146, 32.09791
172.0967, 32.10030
172.5789, 32.18760
173.0610, 32.23808
173.5431, 32.23154
174.0252, 32.23273
174.5073, 32.39574
174.9894, 32.48141
175.4716, 32.20465
175.9537, 31.50723
176.4358, 30.68543
176.9179, 30.36065
177.4000, 31.11053
177.8821, 31.59024
178.3643, 31.60726
178.8464, 31.41936
179.3285, 31.28177
179.8106, 31.29935
180.2927, 31.40509
180.7748, 31.41573
181.2570, 31.26513
181.7391, 31.10266
182.2212, 30.91485
182.7033, 30.72919
183.1854, 30.58068
183.6675, 30.47985
184.1497, 30.43829
184.6318, 30.51305
185.1139, 30.79678
185.5960, 31.02808
186.0781, 31.08402
186.5602, 31.01056
187.0423, 30.95678
187.5245, 31.03805
188.0066, 31.13166
188.4887, 30.92948
188.9708, 30.17884
189.4529, 29.57176
189.9350, 29.70264
190.4172, 30.49858
190.8993, 31.17743
191.3814, 31.40724
191.8635, 31.28279
192.3456, 30.91324
192.8277, 30.15618
193.3099, 29.46241
193.7920, 29.42439
194.2741, 30.15844
194.7562, 30.67723
195.2383, 30.36020
195.7204, 29.71581
196.2026, 29.10033
196.6847, 28.58017
197.1668, 28.19110
197.6489, 27.99012
198.1310, 27.99618
198.6131, 28.15110
199.0953, 28.63260
199.5774, 29.15210
200.0595, 29.41652
200.5416, 29.30014
201.0237, 28.98112
201.5058, 28.85878
201.9880, 29.05047
202.4701, 29.23943
202.9522, 29.37769
203.4343, 29.47996
203.9164, 29.56777
204.3985, 29.65193
204.8807, 29.71294
205.3628, 29.68650
205.8449, 29.47085
206.3270, 29.29611
206.8091, 29.17433
207.2912, 29.10910
207.7733, 29.10893
208.2555, 29.17931
208.7376, 29.30621
209.2197, 29.43816
209.7018, 29.64055
210.1839, 29.77177
210.6660, 29.75886
211.1482, 29.67787
211.6303, 29.63983
212.1124, 29.70502
212.5945, 29.84044
213.0766, 29.91083
213.5587, 29.82919
214.0409, 29.78978
214.5230, 29.88186
215.0051, 30.03803
215.4872, 30.13302
215.9693, 30.09687
216.4514, 29.96638
216.9336, 29.87360
217.4157, 29.63513
217.8978, 29.59904
218.3799, 29.75500
218.8620, 29.85348
219.3441, 29.89756
219.8263, 29.72432
220.3084, 29.83170
220.7905, 29.82663
221.2726, 29.81694
221.7547, 30.40485
222.2368, 30.90376
222.7190, 31.29300
223.2011, 31.48271
223.6832, 31.34903
224.1653, 31.05755
224.6474, 30.93626
225.1295, 31.02577
225.6117, 31.18149
226.0938, 31.37961
226.5759, 31.60039
227.0580, 31.65847
227.5401, 31.39896
228.0222, 30.99687
228.5043, 30.68436
228.9865, 30.49117
229.4686, 30.31788
229.9507, 30.10371
230.4328, 29.84916
230.9149, 29.51420
231.3970, 28.86402
231.8792, 28.30461
232.3613, 28.25948
232.8434, 28.80998
233.3255, 29.45308
233.8076, 29.66807
234.2897, 29.41491
234.7719, 29.20518
235.2540, 29.22868
235.7361, 29.28117
236.2182, 29.21910
236.7003, 29.02566
237.1824, 28.81501
237.6646, 28.70431
238.1467, 28.70232
238.6288, 28.74975
239.1109, 28.94582
239.5930, 29.11330
240.0751, 29.11918
240.5573, 28.96430
241.0394, 28.79187
241.5215, 28.81850
242.0036, 29.14931
242.4857, 29.24411
242.9678, 28.83876
243.4500, 28.38026
243.9321, 28.05727
244.4142, 27.90290
244.8963, 27.86683
245.3784, 27.92395
245.8605, 28.13170
246.3427, 28.21795
246.8248, 28.10680
247.3069, 27.94810
247.7890, 27.75413
248.2711, 27.56175
248.7532, 27.46502
249.2354, 27.60270
249.7175, 28.09149
250.1996, 28.30073
250.6817, 28.01466
251.1638, 27.67872
251.6459, 27.49666
252.1281, 27.46722
252.6102, 27.47793
253.0923, 27.42663
253.5744, 27.31565
254.0565, 27.11961
254.5386, 26.68469
255.0208, 26.31886
255.5029, 26.16429
255.9850, 26.20942
256.4671, 26.37383
256.9492, 26.60978
257.4313, 26.93573
257.9135, 27.09610
258.3956, 27.00910
258.8777, 26.87709
259.3598, 26.76526
259.8419, 26.67974
260.3240, 26.60017
260.8062, 26.50056
261.2883, 26.38244
261.7704, 26.41311
262.2525, 26.79341
262.7346, 27.08696
263.2167, 27.07693
263.6989, 26.83009
264.1810, 26.53494
264.6631, 26.29909
265.1452, 26.12352
265.6273, 26.01603
266.1094, 25.91867
266.5916, 26.08840
267.0737, 26.20064
267.5558, 26.25849
268.0379, 26.09901
268.5200, 26.22016
269.0021, 26.22884
269.4843, 26.23292
269.9664, 26.39357
270.4485, 26.26570
270.9306, 26.42386
271.4127, 26.46784
271.8948, 26.56408
272.3770, 26.27978
272.8591, 25.88663
273.3412, 25.97116
273.8233, 26.85737
274.3054, 27.45434
274.7875, 27.16444
275.2697, 26.38577
275.7518, 25.87002
276.2339, 25.89561
276.7160, 26.24428
277.1981, 26.59536
277.6802, 27.02977
278.1623, 27.20045
278.6444, 26.76345
279.1266, 26.05190
279.6087, 25.65679
280.0908, 25.76354
280.5729, 26.07960
281.0550, 26.19788
281.5371, 26.11564
282.0193, 26.12208
282.5014, 26.47184
282.9835, 26.89314
283.4656, 26.87933
283.9477, 26.26698
284.4298, 25.66761
284.9120, 25.87833
285.3941, 26.77598
285.8762, 27.47562
286.3583, 27.75480
286.8404, 27.76077
287.3225, 27.59876
287.8047, 27.25481
288.2868, 26.95258
288.7689, 26.86489
289.2510, 26.97001
289.7331, 27.19469
290.2152, 27.75529
290.6974, 28.29383
291.1795, 28.38496
291.6616, 28.01026
292.1437, 27.55561
292.6258, 27.16894
293.1079, 26.89398
293.5901, 26.81565
294.0722, 27.04580
294.5543, 27.36094
295.0364, 27.62775
295.5185, 27.84261
296.0006, 27.90654
296.4828, 27.68294
296.9649, 27.32859
297.4470, 27.12555
297.9291, 27.11658
298.4112, 27.17832
298.8933, 27.30400
299.3755, 27.46136
299.8576, 27.42877
300.3397, 27.02102
300.8218, 26.50729
301.3039, 26.23361
301.7860, 26.21134
302.2682, 26.32471
302.7503, 26.70482
303.2324, 27.20454
303.7145, 27.24057
304.1966, 26.46837
304.6787, 25.57047
305.1609, 25.34594
305.6430, 25.71154
306.1251, 25.99618
306.6072, 25.76233
307.0893, 25.26167
307.5714, 25.08280
308.0536, 25.38352
308.5357, 25.74475
309.0178, 25.81289
309.4999, 25.66152
309.9820, 25.44880
310.4641, 25.11246
310.9463, 24.78882
311.4284, 24.75601
311.9105, 25.08451
312.3926, 25.33797
312.8747, 25.09612
313.3568, 24.60661
313.8390, 24.32031
314.3211, 24.45527
314.8032, 24.68663
315.2853, 24.59437
315.7674, 24.16912
316.2495, 23.83335
316.7317, 23.90628
317.2138, 23.92173
317.6959, 23.88279
318.1780, 23.62652
318.6601, 23.65088
319.1422, 23.56278
319.6243, 23.47007
320.1064, 23.53392
320.5886, 23.30926
321.0707, 23.37063
321.5528, 23.31783
322.0349, 23.31728
322.5170, 23.20358
322.9991, 23.30613
323.4813, 23.36031
323.9634, 23.19717
324.4455, 23.31466
324.9276, 23.31968
325.4097, 23.32009
325.8918, 23.47707
326.3740, 23.34554
326.8561, 23.50004
327.3382, 23.54036
327.8203, 23.63294
328.3024, 23.61235
328.7845, 23.62672
329.2667, 23.81065
329.7488, 24.02673
330.2309, 24.23078
330.7130, 24.44019
331.1951, 24.61188
331.6772, 24.67106
332.1594, 24.61993
332.6415, 24.60070
333.1236, 24.69867
333.6057, 24.87604
334.0878, 25.04562
334.5699, 25.21715
335.0521, 25.35643
335.5342, 25.43792
336.0163, 25.46705
336.4984, 25.45538
336.9805, 25.37172
337.4626, 25.29954
337.9448, 25.36499
338.4269, 25.56963
338.9090, 25.60773
339.3911, 26.00311
339.8732, 26.26052
340.3553, 26.38738
340.8375, 25.99269
341.3196, 26.27148
341.8017, 26.28036
342.2838, 26.27818
342.7659, 26.65177
343.2480, 26.33291
343.7302, 27.17193
344.2123, 27.54190
344.6944, 27.62618
345.1765, 27.58519
345.6586, 27.46891
346.1407, 27.31922
346.6229, 27.34167
347.1050, 27.70520
347.5871, 28.09104
348.0692, 28.36862
348.5513, 28.52157
349.0334, 28.47423
349.5156, 28.14221
349.9977, 27.63550
350.4798, 27.26438
350.9619, 27.09708
351.4440, 26.90217
351.9261, 26.52817
352.4083, 26.09906
352.8904, 25.85361
353.3725, 25.88134
353.8546, 25.99072
354.3367, 25.92871
354.8188, 25.70353
355.3010, 25.25495
355.7831, 24.11612
356.2652, 23.03816
356.7473, 22.63559
357.2294, 22.99309
357.7115, 23.21262
358.1937, 23.30161
358.6758, 22.86901
359.1579, 23.10992
359.6400, 23.08092
360.1221, 23.04085
360.6042, 23.37654
361.0863, 23.01981
361.5685, 23.02020
362.0506, 23.39142
362.5327, 23.62468
363.0148, 23.72739
363.4969, 23.30852
363.9790, 23.56315
364.4612, 23.54789
364.9433, 23.52155
365.4254, 23.87098
365.9075, 23.52797
366.3896, 23.87144
366.8717, 23.94088
367.3539, 24.13575
367.8360, 24.05903
368.3181, 24.06619
368.8002, 23.76817
369.2823, 23.77259
369.7644, 24.03411
370.2466, 24.23818
370.7287, 24.38781
371.2108, 24.32012
371.6929, 24.53307
372.1750, 24.63355
372.6571, 25.31600
373.1393, 25.78074
373.6214, 26.07292
374.1035, 26.29873
374.5856, 26.51860
375.0677, 26.68858
375.5498, 26.64161
376.0320, 26.01530
376.5141, 25.72486
376.9962, 26.11126
377.4783, 26.68344
377.9604, 26.97320
378.4425, 26.88413
378.9247, 26.70929
379.4068, 26.92069
379.8889, 27.74962
380.3710, 28.14800
380.8531, 27.60419
381.3352, 27.08887
381.8174, 27.13245
382.2995, 27.59668
382.7816, 27.97241
383.2637, 27.83176
383.7458, 27.27023
384.2279, 26.96421
384.7101, 27.12486
385.1922, 27.22505
385.6743, 27.01248
386.1564, 26.69176
386.6385, 26.55846
387.1206, 26.76246
387.6028, 27.01214
388.0849, 26.76437
388.5670, 25.87877
389.0491, 25.17128
389.5312, 24.97138
390.0133, 24.91334
390.4955, 24.78432
390.9776, 24.56401
391.4597, 24.31696
391.9418, 24.09140
392.4239, 23.88158
392.9060, 23.66148
393.3882, 23.43568
393.8703, 23.18679
394.3524, 22.87281
394.8345, 22.52926
395.3166, 22.23400
395.7987, 22.01985
396.2809, 21.86625
396.7630, 21.75670
397.2451, 21.69231
397.7272, 21.64500
398.2093, 21.62256
398.6914, 21.59678
399.1736, 21.53788
399.6557, 21.45721
400.1378, 21.30084
400.6199, 20.93399
401.1020, 20.46410
401.5841, 20.21176
402.0662, 20.29293
402.5483, 20.47709
403.0305, 20.48392
403.5126, 20.32670
403.9947, 20.21611
404.4768, 20.22196
404.9589, 20.26852
405.4410, 20.32728
405.9232, 20.38169
406.4053, 20.31923
406.8874, 20.02085
407.3695, 19.55713
407.8516, 19.28726
408.3337, 19.33389
408.8159, 19.40298
409.2980, 19.41166
409.7801, 19.38223
410.2622, 19.38361
410.7443, 19.44305
411.2264, 19.43951
411.7086, 19.14755
412.1907, 18.31129
412.6728, 17.84550
413.1549, 17.97132
413.6370, 18.27726
414.1191, 18.55329
414.6013, 18.75561
415.0834, 18.88310
415.5655, 18.93562
416.0476, 18.91279
416.5297, 18.80328
417.0118, 18.34682
417.4940, 18.10507
417.9761, 18.32791
418.4582, 18.76139
418.9403, 19.11307
419.4224, 19.26932
419.9045, 19.27253
420.3867, 19.16610
420.8688, 18.85819
421.3509, 18.69047
421.8330, 18.82043
422.3151, 18.96459
422.7972, 18.96784
423.2794, 18.84174
423.7615, 18.68624
424.2436, 18.55876
424.7257, 18.46704
425.2078, 18.49563
425.6899, 18.82721
426.1721, 18.94790
426.6542, 18.40292
427.1363, 17.67818
427.6184, 17.40732
428.1005, 17.84400
428.5826, 18.49009
429.0648, 18.71247
429.5469, 18.50584
430.0290, 18.39023
430.5111, 18.53453
430.9932, 18.74309
431.4753, 18.86089
431.9575, 18.89049
432.4396, 18.85445
432.9217, 18.74174
433.4038, 18.57779
433.8859, 18.37747
434.3680, 18.13190
434.8502, 17.95757
435.3323, 17.98805
435.8144, 18.13179
436.2965, 18.11433
436.7786, 17.74253
437.2607, 17.48765
437.7429, 17.79749
438.2250, 18.40347
438.7071, 18.61854
439.1892, 18.18496
439.6713, 17.56107
440.1534, 17.41038
440.6356, 17.87117
441.1177, 18.18995
441.5998, 18.33654
442.0819, 18.32242
442.5640, 17.98263
443.0461, 17.44058
443.5282, 17.16830
444.0103, 17.53303
444.4925, 18.37680
444.9746, 18.80599
445.4567, 18.39066
445.9388, 18.08542
446.4209, 18.08677
446.9030, 18.19486
447.3852, 18.22560
447.8673, 18.12321
448.3494, 17.91042
448.8315, 17.55850
449.3136, 16.96282
449.7957, 16.75890
450.2779, 17.47480
450.7600, 18.06583
451.2421, 18.06406
451.7242, 17.68546
452.2063, 17.37673
452.6884, 17.38748
453.1706, 17.59347
453.6527, 17.71861
454.1348, 17.75937
454.6169, 17.72883
455.0990, 17.49337
455.5811, 17.27857
456.0633, 17.25378
456.5454, 17.43075
457.0275, 17.68103
457.5096, 17.99613
457.9917, 18.31813
458.4738, 18.42080
458.9560, 18.24019
459.4381, 17.98104
459.9202, 17.71370
460.4023, 17.47268
460.8844, 17.33812
461.3665, 17.38208
461.8487, 17.45280
462.3308, 17.42065
462.8129, 17.31757
463.2950, 17.25451
463.7771, 17.26641
464.2592, 17.33377
464.7414, 17.46888
465.2235, 17.70664
465.7056, 17.76992
466.1877, 17.41529
466.6698, 17.03609
467.1519, 16.96849
467.6341, 17.18397
468.1162, 17.45458
468.5983, 17.63904
469.0804, 17.75653
469.5625, 17.88762
470.0446, 18.19005
470.5268, 18.30139
471.0089, 18.06726
471.4910, 17.70286
471.9731, 17.36569
472.4552, 17.10840
472.9373, 16.95941
473.4195, 16.97086
473.9016, 17.15871
474.3837, 17.28674
474.8658, 17.27208
475.3479, 17.28716
475.8300, 17.45994
476.3122, 17.66730
476.7943, 17.69959
477.2764, 17.44912
477.7585, 17.13463
478.2406, 17.16358
478.7227, 17.59927
479.2049, 17.78663
479.6870, 17.36938
480.1691, 16.91539
480.6512, 16.86780
481.1333, 17.16165
481.6154, 17.45503
482.0976, 17.58634
482.5797, 17.61976
483.0618, 17.68406
483.5439, 17.78424
484.0260, 17.73993
484.5081, 17.36175
484.9902, 16.85412
485.4724, 16.68857
485.9545, 17.02769
486.4366, 17.21014
486.9187, 16.72382
487.4008, 16.07644
487.8829, 16.05683
488.3651, 16.75215
488.8472, 17.50341
489.3293, 17.70813
489.8114, 17.37307
490.2935, 17.25486
490.7756, 17.70444
491.2578, 17.92205
491.7399, 17.40832
492.2220, 16.63358
492.7041, 16.29372
493.1862, 16.60254
493.6683, 17.11756
494.1505, 17.15625
494.6326, 16.53550
495.1147, 16.16514
495.5968, 16.10062
496.0789, 16.24599
496.5610, 16.77094
497.0432, 17.45828
497.5253, 17.93085
498.0074, 17.98927
498.4895, 17.74467
498.9716, 17.31665
499.4537, 16.64482
499.9359, 16.17502
500.4180, 16.10567
500.9001, 16.19706
501.3822, 16.22544
501.8643, 16.20321
502.3464, 16.29370
502.8286, 16.71017
503.3107, 17.22470
503.7928, 17.50758
504.2749, 17.54667
504.7570, 17.41254
505.2391, 17.06673
505.7213, 16.62387
506.2034, 16.41154
506.6855, 16.55680
507.1676, 16.60665
507.6497, 16.30036
508.1318, 15.91194
508.6140, 15.80228
509.0961, 15.99220
509.5782, 16.16098
510.0603, 15.98493
510.5424, 15.49967
511.0245, 15.46965
511.5067, 16.52028
511.9888, 17.26957
512.4709, 17.35001
512.9530, 17.08667
513.4351, 16.76734
513.9172, 16.49646
514.3994, 16.33122
514.8815, 16.38957
515.3636, 16.69952
515.8457, 16.85073
516.3278, 16.71012
516.8099, 16.58568
517.2921, 16.66273
517.7742, 16.81908
518.2563, 16.85441
518.7384, 16.68070
519.2205, 16.44492
519.7026, 16.23870
520.1848, 16.08304
520.6669, 16.20836
521.1490, 16.81531
521.6311, 17.40405
522.1132, 17.31331
522.5953, 16.68672
523.0775, 16.30225
523.5596, 16.52304
524.0417, 16.82070
524.5238, 16.81575
525.0059, 16.58352
525.4880, 16.32833
525.9702, 16.12172
526.4523, 16.01510
526.9344, 16.11822
527.4165, 16.57998
527.8986, 16.85713
528.3807, 16.88870
528.8629, 16.81020
529.3450, 16.66619
529.8271, 16.47415
530.3092, 16.22133
530.7913, 15.88679
531.2734, 15.56635
531.7556, 15.53606
532.2377, 15.94725
532.7198, 16.21940
533.2019, 16.05000
533.6840, 15.90088
534.1661, 16.13289
534.6483, 16.65203
535.1304, 17.01106
535.6125, 16.89782
536.0946, 16.50537
536.5767, 16.11811
537.0588, 15.72829
537.5410, 15.51483
538.0231, 15.59510
538.5052, 15.84831
538.9873, 16.12540
539.4694, 16.45450
539.9515, 16.62531
540.4337, 16.44660
540.9158, 16.17249
541.3979, 16.02810
541.8800, 16.02838
542.3621, 16.15066
542.8442, 16.40884
543.3264, 16.72523
543.8085, 16.83139
544.2906, 16.45147
544.7726, 16.24152
545.2548, 16.36355
545.7369, 16.53773
546.2190, 16.52876
546.7011, 16.36178
547.1832, 16.21504
547.6653, 16.20069
548.1475, 16.33401
548.6296, 16.76043
549.1117, 17.72425
549.5938, 18.33548
550.0759, 18.03628
550.5580, 17.47412
551.0402, 17.01927
551.5223, 16.72617
552.0044, 16.70350
552.4865, 17.34299
552.9686, 18.17332
553.4507, 18.21837
553.9329, 17.43521
554.4150, 16.78041
554.8971, 16.85319
555.3792, 17.30446
555.8613, 17.17294
556.3434, 16.11473
556.8256, 15.44767
557.3077, 15.76255
557.7898, 16.33807
558.2719, 16.49159
558.7540, 16.23386
559.2361, 15.99503
559.7183, 16.08601
560.2004, 16.40884
560.6825, 16.54765
561.1646, 16.39504
561.6467, 16.23217
562.1288, 15.97382
562.6110, 15.80299
563.0931, 15.93209
563.5752, 16.30449
564.0573, 16.60766
564.5394, 16.55917
565.0215, 16.32171
565.5037, 16.35771
565.9858, 16.72248
566.4679, 17.00325
566.9500, 17.05841
567.4321, 16.93832
567.9142, 16.65195
568.3964, 16.17257
568.8785, 15.90162
569.3606, 16.21520
569.8427, 16.63634
570.3248, 16.64229
570.8069, 16.27409
571.2891, 15.86092
571.7712, 15.56551
572.2533, 15.39300
572.7354, 15.37023
573.2175, 15.68622
573.6996, 15.81389
574.1818, 15.52640
574.6639, 15.26355
575.1460, 15.30016
575.6281, 15.59204
576.1102, 15.99174
576.5923, 16.44529
577.0745, 16.84614
577.5566, 16.94850
578.0387, 16.72278
578.5208, 16.34308
579.0029, 15.63901
579.4850, 15.00997
579.9672, 14.74025
580.4493, 14.79366
580.9314, 15.00618
581.4135, 15.54810
581.8956, 16.03267
582.3777, 15.94694
582.8599, 15.45245
583.3420, 15.16888
583.8241, 15.31373
584.3062, 15.72468
584.7883, 16.25948
585.2704, 17.03785
585.7526, 17.27260
586.2347, 16.48398
586.7168, 15.70389
587.1989, 15.35928
587.6810, 15.32333
588.1631, 15.39194
588.6453, 15.48132
589.1274, 15.54896
589.6095, 15.49266
590.0916, 15.28055
590.5737, 15.27098
591.0558, 15.70857
591.5380, 15.99373
592.0201, 15.68880
592.5022, 15.12065
592.9843, 14.75951
593.4664, 14.71325
593.9485, 14.90614
594.4307, 15.53960
594.9128, 16.33347
595.3949, 16.53791
595.8770, 16.01470
596.3591, 15.40602
596.8412, 15.21388
597.3234, 15.36511
597.8055, 15.32823
598.2876, 14.78990
598.7697, 14.50617
599.2518, 14.83225
599.7339, 15.31639
600.2161, 15.51924
600.6982, 15.41403
601.1803, 15.25128
601.6624, 15.22119
602.1445, 15.30695
602.6266, 15.45690
603.1088, 15.73940
603.5909, 15.90517
604.0730, 15.79009
604.5551, 15.60400
605.0372, 15.46348
605.5193, 15.38318
606.0015, 15.39625
606.4836, 15.62362
606.9657, 15.88568
607.4478, 15.91027
607.9299, 15.74018
608.4120, 15.65768
608.8942, 15.79120
609.3763, 16.00553
609.8584, 16.08987
610.3405, 15.99298
610.8226, 15.94986
611.3047, 16.11289
611.7869, 16.16955
612.2690, 15.81645
612.7511, 15.30404
613.2332, 15.10155
613.7153, 15.37622
614.1974, 15.75759
614.6796, 15.66068
615.1617, 15.04699
615.6438, 14.76763
616.1259, 15.01639
616.6080, 15.30293
617.0901, 15.28171
617.5723, 15.17318
618.0544, 15.35961
618.5365, 16.02392
619.0186, 16.53147
619.5007, 16.40774
619.9828, 15.93564
620.4650, 15.52458
620.9471, 15.22935
621.4292, 14.99872
621.9113, 14.77921
622.3934, 14.62080
622.8755, 14.72278
623.3577, 15.39462
623.8398, 15.88729
624.3219, 16.11331
624.8040, 16.22621
625.2861, 16.36578
625.7682, 16.48293
626.2504, 16.37160
626.7325, 15.84313
627.2145, 15.20987
627.6967, 15.14902
628.1788, 15.69433
628.6609, 15.97910
629.1430, 15.71070
629.6251, 15.33512
630.1072, 15.27059
630.5894, 15.43877
631.0715, 15.57072
631.5536, 15.58118
632.0357, 15.59675
632.5178, 15.70726
632.9999, 15.85595
633.4821, 15.97738
633.9642, 16.04734
634.4463, 16.00850
634.9284, 15.77364
635.4105, 15.36939
635.8926, 15.21374
636.3748, 15.51836
636.8569, 15.73846
637.3390, 15.73379
637.8211, 15.65188
638.3032, 15.59374
638.7853, 15.57414
639.2675, 15.57823
639.7496, 15.59820
640.2317, 15.63546
640.7138, 15.72008
641.1959, 15.84310
641.6780, 15.87430
642.1602, 15.73673
642.6423, 15.57274
643.1244, 15.58043
643.6065, 15.79870
644.0886, 15.95543
644.5707, 16.11309
645.0529, 16.14086
645.5350, 15.76031
646.0171, 15.30718
646.4992, 15.34491
646.9813, 15.97836
647.4634, 16.67612
647.9456, 16.83025
648.4277, 16.48996
648.9098, 16.22655
649.3919, 16.02226
649.8740, 15.94755
650.3561, 16.15037
650.8383, 16.42361
651.3204, 16.50574
651.8025, 16.37165
652.2846, 16.30593
652.7667, 16.51915
653.2488, 16.77218
653.7310, 16.83611
654.2131, 16.73253
654.6952, 16.54065
655.1773, 16.28730
655.6594, 16.06424
656.1415, 16.03156
656.6237, 16.24769
657.1058, 16.38227
657.5879, 16.31151
658.0700, 16.29491
658.5521, 16.52202
659.0342, 16.78704
659.5164, 16.77879
659.9985, 16.42894
660.4806, 16.09263
660.9627, 16.16257
661.4448, 16.43399
661.9269, 16.38686
662.4091, 15.99457
662.8912, 15.58397
663.3733, 15.25504
663.8554, 15.08572
664.3375, 15.29670
664.8196, 16.18022
665.3018, 16.57941
665.7839, 15.91299
666.2660, 15.31636
666.7481, 15.56868
667.2302, 16.26956
667.7123, 16.65318
668.1945, 16.44165
668.6766, 16.01151
669.1587, 15.82057
669.6408, 15.85384
670.1229, 15.88690
670.6050, 15.92362
671.0872, 15.93157
671.5693, 15.88662
672.0514, 15.80552
672.5335, 15.70418
673.0156, 15.56424
673.4977, 15.49548
673.9799, 15.57399
674.4620, 15.70143
674.9441, 15.81998
675.4262, 15.91545
675.9083, 15.94281
676.3904, 15.88181
676.8726, 15.84657
677.3547, 16.09755
677.8368, 16.74540
678.3189, 16.91719
678.8010, 16.23977
679.2831, 15.62417
679.7653, 15.41190
680.2474, 15.46184
680.7295, 15.67180
681.2116, 16.04651
681.6937, 16.31270
682.1758, 16.24338
682.6580, 16.02652
683.1401, 15.90591
683.6222, 15.87448
684.1043, 15.79713
684.5864, 15.60166
685.0685, 15.39225
685.5507, 15.35856
686.0328, 15.55558
686.5149, 15.70720
686.9970, 15.72821
687.4791, 15.79882
687.9612, 16.09126
688.4434, 16.40567
688.9255, 16.46819
689.4076, 16.21980
689.8897, 15.90662
690.3718, 15.65150
690.8539, 15.48721
691.3361, 15.54452
691.8182, 15.80988
692.3003, 15.97914
692.7824, 15.90380
693.2645, 15.71691
693.7466, 15.62811
694.2288, 15.66426
694.7109, 15.69167
695.1930, 15.68722
695.6751, 15.70115
696.1572, 15.85095
696.6393, 15.98128
697.1215, 15.80142
697.6036, 15.29032
698.0857, 14.88443
698.5678, 15.12104
699.0499, 15.73673
699.5320, 15.87429
700.0142, 15.50405
700.4963, 15.33138
700.9784, 15.68023
701.4605, 16.22298
701.9426, 16.52059
702.4247, 16.53615
702.9069, 16.55791
703.3890, 16.74504
703.8711, 16.76010
704.3532, 16.23243
704.8353, 15.58368
705.3174, 15.38124
705.7996, 15.69238
706.2817, 16.10231
706.7638, 16.26841
707.2459, 16.24158
707.7280, 16.13931
708.2101, 15.94051
708.6923, 15.88432
709.1743, 16.10817
709.6564, 16.39222
710.1385, 16.49396
710.6207, 16.42764
711.1028, 16.36598
711.5849, 16.33182
712.0670, 16.28998
712.5491, 16.26892
713.0313, 16.20925
713.5134, 15.94870
713.9955, 15.53829
714.4776, 15.31727
714.9597, 15.58717
715.4418, 16.13493
715.9240, 16.35042
716.4061, 16.18262
716.8882, 16.13310
717.3703, 16.36686
717.8524, 16.62798
718.3345, 16.75742
718.8167, 16.74602
719.2988, 16.52630
719.7809, 15.72567
720.2630, 15.27932
720.7451, 15.88285
721.2272, 16.73089
721.7094, 16.96087
722.1915, 16.61985
722.6736, 16.27239
723.1557, 16.24874
723.6378, 16.44659
724.1199, 16.74251
724.6021, 17.17116
725.0842, 17.25485
725.5663, 16.81925
726.0484, 16.28858
726.5305, 15.76846
727.0126, 15.37837
727.4948, 15.42346
727.9769, 16.11130
728.4590, 16.63906
728.9411, 16.65165
729.4232, 16.50945
729.9053, 16.50616
730.3875, 16.60318
730.8696, 16.62149
731.3517, 16.48704
731.8338, 16.32930
732.3159, 16.37970
732.7980, 16.63733
733.2802, 16.64809
733.7623, 16.29683
734.2444, 16.02614
734.7265, 16.05096
735.2086, 16.23696
735.6907, 16.42021
736.1729, 16.60699
736.6550, 16.69765
737.1371, 16.67511
737.6192, 16.54782
738.1013, 16.09655
738.5834, 15.62726
739.0656, 15.73924
739.5477, 16.50387
740.0298, 17.28602
740.5119, 17.46246
740.9940, 17.16765
741.4761, 16.96570
741.9583, 16.88071
742.4404, 16.74276
742.9225, 16.44893
743.4046, 16.17049
743.8867, 16.08854
744.3688, 16.17618
744.8510, 16.29346
745.3331, 16.46135
745.8152, 16.61707
746.2973, 16.76406
746.7794, 16.87318
747.2615, 16.87218
747.7437, 16.79647
748.2258, 16.79816
748.7079, 16.98611
749.1900, 17.22438
749.6721, 17.24200
750.1542, 17.04289
750.6364, 16.85157
751.1185, 16.64795
751.6006, 16.61399
752.0827, 16.99552
752.5648, 17.57906
753.0469, 17.75354
753.5291, 17.34173
754.0112, 17.03488
754.4933, 16.89625
754.9754, 16.90902
755.4575, 17.20650
755.9396, 17.60395
756.4218, 17.75440
756.9039, 17.55738
757.3860, 17.31804
757.8681, 17.44581
758.3502, 17.79249
758.8323, 17.75120
759.3145, 17.29774
759.7966, 16.99117
760.2787, 17.03705
760.7608, 17.32770
761.2429, 17.81697
761.7250, 18.55914
762.2072, 18.82925
762.6893, 18.30081
763.1714, 17.75875
763.6535, 17.21160
764.1356, 16.85443
764.6177, 16.98228
765.0999, 17.49759
765.5820, 17.92936
766.0641, 17.99275
766.5462, 17.88266
767.0283, 17.80805
767.5104, 17.77378
767.9926, 17.84487
768.4747, 18.03650
768.9568, 18.12240
769.4389, 17.92362
769.9210, 17.52457
770.4031, 17.19696
770.8853, 16.85310
771.3674, 16.75613
771.8495, 17.24450
772.3316, 17.60480
772.8137, 17.35927
773.2958, 16.85924
773.7780, 16.69650
774.2601, 17.02397
774.7422, 17.31710
775.2243, 17.18297
775.7064, 16.87048
776.1885, 16.64404
776.6707, 16.52137
777.1528, 16.51513
777.6349, 16.62948
778.1170, 16.82520
778.5991, 17.05936
779.0812, 17.33149
779.5634, 17.64969
780.0455, 18.13345
780.5276, 18.39101
781.0097, 18.19832
781.4918, 17.86127
781.9739, 17.54040
782.4561, 17.26440
782.9382, 17.14844
783.4203, 17.31705
783.9024, 17.50240
784.3845, 17.60963
784.8666, 17.64462
785.3488, 17.53795
785.8309, 17.35436
786.3130, 17.34838
786.7951, 17.67400
787.2772, 18.07476
787.7593, 18.04899
788.2415, 17.61105
788.7236, 17.38168
789.2057, 17.42166
789.6878, 17.56061
790.1699, 17.75911
790.6520, 17.97284
791.1342, 18.14296
791.6162, 18.28826
792.0983, 18.28556
792.5804, 18.01854
793.0626, 17.72986
793.5447, 17.43256
794.0268, 17.21301
794.5089, 17.19659
794.9910, 17.37152
795.4731, 17.58932
795.9553, 17.82653
796.4374, 17.94664
796.9195, 17.57015
797.4016, 16.85671
797.8837, 16.59330
798.3658, 16.93514
798.8480, 17.35333
799.3301, 17.45257
799.8122, 17.34994
800.2943, 17.44041
800.7764, 17.85551
801.2585, 18.18165
801.7407, 18.47025
802.2228, 18.60530
802.7049, 18.40526
803.1870, 18.08115
803.6691, 17.94564
804.1512, 18.05967
804.6334, 18.17262
805.1155, 18.15047
805.5976, 18.08288
806.0797, 18.06221
806.5618, 18.06025
807.0439, 17.99840
807.5261, 17.86155
808.0082, 17.71686
808.4903, 17.62704
808.9724, 17.58075
809.4545, 17.50956
809.9366, 17.38550
810.4188, 17.46090
810.9009, 17.91730
811.3830, 18.30401
811.8651, 18.18003
812.3472, 17.72764
812.8293, 17.63875
813.3115, 18.26226
813.7936, 18.50351
814.2757, 17.71988
814.7578, 16.99538
815.2399, 17.04140
815.7220, 17.60189
816.2042, 18.29180
816.6863, 18.96734
817.1684, 19.37666
817.6505, 19.10828
818.1326, 18.51595
818.6147, 18.25434
819.0969, 18.28035
819.5790, 18.35114
820.0611, 18.40143
820.5432, 18.39972
821.0253, 18.29127
821.5074, 18.11480
821.9896, 18.15593
822.4717, 18.61563
822.9538, 18.83036
823.4359, 18.51146
823.9180, 18.16513
824.4001, 18.06501
824.8823, 18.13177
825.3644, 18.23290
825.8465, 18.38205
826.3286, 18.42853
826.8107, 18.20104
827.2928, 17.95167
827.7750, 17.87402
828.2571, 17.93706
828.7392, 18.10240
829.2213, 18.33600
829.7034, 18.49184
830.1855, 18.39822
830.6677, 18.14693
831.1498, 18.01620
831.6319, 18.00159
832.1140, 17.88928
832.5961, 17.59083
833.0782, 17.37346
833.5604, 17.47726
834.0425, 17.82781
834.5246, 18.11728
835.0067, 18.44849
835.4888, 18.53106
835.9709, 18.02629
836.4531, 17.65954
836.9352, 17.95187
837.4173, 18.49089
837.8994, 18.60709
838.3815, 18.16964
838.8636, 17.79100
839.3458, 17.87771
839.8279, 18.06931
840.3100, 17.96198
840.7921, 17.73388
841.2742, 17.81387
841.7563, 18.24583
842.2385, 18.63166
842.7206, 18.62237
843.2027, 18.41194
843.6848, 18.57130
844.1669, 19.11275
844.6490, 19.30446
845.1312, 18.98057
845.6133, 18.57077
846.0954, 18.30105
846.5775, 18.13731
847.0596, 18.00829
847.5417, 17.90976
848.0239, 17.86405
848.5060, 17.76373
848.9881, 17.84340
849.4702, 18.43732
849.9523, 19.07991
850.4344, 19.23185
850.9166, 18.90252
851.3987, 18.56231
851.8808, 18.44417
852.3629, 18.37039
852.8450, 18.12308
853.3271, 17.85286
853.8093, 17.85707
854.2914, 18.10954
854.7735, 18.30738
855.2556, 18.27753
855.7377, 18.19332
856.2198, 18.42567
856.7020, 18.94887
857.1841, 19.03849
857.6662, 18.59992
858.1483, 18.17624
858.6304, 17.94245
859.1125, 17.85544
859.5947, 17.90476
860.0768, 18.09161
860.5589, 18.15285
861.0410, 17.98116
861.5231, 17.83932
862.0052, 17.70376
862.4874, 17.65552
862.9695, 17.84877
863.4516, 18.15240
863.9337, 18.27134
864.4158, 18.10542
864.8979, 17.86447
865.3801, 17.59686
865.8622, 17.38233
866.3443, 17.31640
866.8264, 17.37538
867.3085, 17.54618
867.7906, 17.79959
868.2728, 17.95600
868.7549, 17.80364
869.2370, 17.48407
869.7191, 17.44702
870.2012, 17.68955
870.6833, 17.79650
871.1655, 17.67636
871.6476, 17.52340
872.1297, 17.45747
872.6118, 17.46205
873.0939, 17.50644
873.5760, 17.63739
874.0581, 17.66932
874.5402, 17.57812
875.0223, 17.41311
875.5045, 17.06266
875.9866, 16.72951
876.4687, 16.65955
876.9508, 16.83249
877.4329, 16.94588
877.9150, 16.88604
878.3972, 16.76267
878.8793, 16.57352
879.3614, 16.39276
879.8435, 16.27211
880.3256, 16.23893
880.8077, 16.40082
881.2899, 16.81166
881.7720, 17.13838
882.2541, 16.81443
882.7362, 16.13080
883.2183, 16.03951
883.7004, 16.48638
884.1826, 16.73222
884.6647, 16.53407
885.1468, 16.23803
885.6289, 16.17961
886.1110, 16.31738
886.5931, 16.44040
887.0753, 16.56370
887.5574, 16.62357
888.0395, 16.57927
888.5216, 16.52451
889.0037, 16.58978
889.4858, 16.64159
889.9680, 16.38513
890.4501, 15.72039
890.9322, 15.35361
891.4143, 15.59848
891.8964, 15.90037
892.3785, 16.12639
892.8607, 16.22732
893.3428, 16.10324
893.8249, 15.80719
894.3070, 15.52985
894.7891, 15.33464
895.2712, 15.26025
895.7534, 15.44834
896.2355, 15.72213
896.7176, 15.82412
897.1997, 15.74478
897.6818, 15.50248
898.1639, 15.11476
898.6461, 14.75058
899.1282, 14.61302
899.6103, 14.65514
900.0924, 14.69628
900.5745, 14.73998
901.0566, 14.67034
901.5388, 14.42455
902.0209, 14.23087
902.5030, 14.27937
902.9851, 14.47526
903.4672, 14.54036
903.9493, 14.38130
904.4315, 14.35745
904.9136, 14.60007
905.3957, 14.80938
905.8778, 14.91226
906.3599, 14.92826
906.8420, 14.86064
907.3242, 14.71701
907.8063, 14.54449
908.2884, 14.19440
908.7705, 14.03537
909.2526, 14.42412
909.7347, 14.88224
910.2169, 14.92718
910.6990, 14.70717
911.1811, 14.68650
911.6632, 15.01444
912.1453, 15.22891
912.6274, 14.77634
913.1096, 14.08671
913.5917, 13.76421
914.0738, 13.75847
914.5559, 13.98427
915.0380, 14.38158
915.5201, 14.64480
916.0023, 14.52722
916.4844, 14.26123
916.9665, 14.43111
917.4486, 15.03061
917.9307, 15.26207
918.4128, 15.03121
918.8950, 14.77096
919.3771, 14.64133
919.8592, 14.59188
920.3413, 14.58023
920.8234, 14.60315
921.3055, 14.52434
921.7877, 14.30144
922.2698, 14.05102
922.7519, 13.56183
923.2340, 13.28201
923.7161, 13.67250
924.1982, 14.35485
924.6804, 14.62707
925.1625, 14.35885
925.6446, 14.09992
926.1267, 13.91881
926.6088, 13.85423
927.0909, 14.03247
927.5731, 14.26526
928.0552, 14.32381
928.5373, 14.22874
929.0194, 14.17990
929.5015, 14.29573
929.9836, 14.38162
930.4658, 14.18460
930.9479, 13.91002
931.4300, 13.90445
931.9121, 14.08497
932.3942, 14.12802
932.8763, 13.94694
933.3585, 13.76529
933.8406, 13.81608
934.3227, 13.97324
934.8048, 13.88573
935.2869, 13.58890
935.7690, 13.39843
936.2512, 13.35859
936.7333, 13.41635
937.2154, 13.55475
937.6975, 13.73331
938.1796, 13.88492
938.6617, 14.00829
939.1439, 14.14340
939.6260, 14.31211
940.1081, 14.43962
940.5902, 14.55215
941.0723, 14.55889
941.5544, 14.38264
942.0366, 14.04607
942.5187, 13.58522
943.0008, 12.77517
943.4829, 12.38384
943.9650, 12.79778
944.4471, 13.20538
944.9293, 13.31072
945.4114, 13.25480
945.8935, 13.14443
946.3756, 13.01569
946.8577, 12.96660
947.3398, 13.05134
947.8220, 13.17714
948.3041, 13.33473
948.7862, 13.48299
949.2683, 13.61571
949.7504, 13.69991
950.2325, 13.65625
950.7147, 13.47635
951.1968, 13.29634
951.6789, 13.19249
952.1610, 13.16726
952.6431, 13.27869
953.1252, 13.45292
953.6074, 13.53762
954.0895, 13.51776
954.5716, 13.43171
955.0537, 13.29733
955.5358, 13.15974
956.0179, 13.03901
956.5000, 12.96837
956.9821, 13.19912
957.4642, 13.70955
957.9464, 13.88267
958.4285, 13.54265
958.9106, 13.22354
959.3927, 13.35161
959.8748, 13.74127
960.3569, 13.88192
960.8391, 13.70569
961.3212, 13.67841
961.8033, 13.88368
962.2854, 13.98532
962.7675, 13.77047
963.2496, 13.56198
963.7318, 13.79158
964.2139, 14.35479
964.6960, 14.44770
965.1781, 13.47636
965.6602, 13.01178
966.1423, 13.56092
966.6245, 14.03572
967.1066, 13.95238
967.5887, 13.57717
968.0708, 13.14405
968.5529, 12.69158
969.0350, 12.53788
969.5172, 13.13779
969.9993, 13.52081
970.4814, 13.13743
970.9635, 12.64317
971.4456, 12.51049
971.9277, 12.66774
972.4099, 12.95046
972.8920, 13.31089
973.3741, 13.58773
973.8562, 13.73162
974.3383, 13.71413
974.8204, 13.40711
975.3026, 12.98671
975.7847, 12.61430
976.2668, 12.36556
976.7489, 12.39643
977.2310, 12.78262
977.7131, 13.21139
978.1953, 13.36541
978.6774, 13.35520
979.1595, 13.37670
979.6416, 13.39884
980.1237, 13.24969
980.6058, 12.93846
981.0880, 12.80151
981.5701, 13.07224
982.0522, 13.49161
982.5343, 13.62992
983.0164, 13.52405
983.4985, 13.33469
983.9807, 13.07360
984.4628, 12.91659
984.9449, 12.92266
985.4270, 12.94858
985.9091, 12.86057
986.3912, 12.72040
986.8734, 12.74521
987.3555, 12.97217
987.8376, 13.01890
988.3197, 12.80869
988.8018, 12.67299
989.2839, 12.74016
989.7661, 12.92496
990.2482, 13.16467
990.7303, 13.43923
991.2124, 13.60773
991.6945, 13.66155
992.1766, 13.62540
992.6588, 13.45367
993.1409, 13.26012
993.6230, 13.02971
994.1051, 12.84999
994.5872, 12.87838
995.0693, 13.11078
995.5515, 13.24311
996.0336, 13.19329
996.5157, 13.15911
996.9978, 13.18013
997.4799, 13.20310
997.9620, 13.17101
998.4442, 13.13690
998.9263, 13.19670
999.4084, 13.35898
999.8905, 13.48640
1000.373, 13.57620
1000.855, 13.58430
1001.337, 13.42037
1001.819, 13.23618
1002.301, 13.17303
1002.783, 13.17591
1003.265, 13.10583
1003.747, 12.93228
1004.230, 12.80970
1004.712, 12.76171
1005.194, 12.84952
1005.676, 13.31496
1006.158, 13.79446
1006.640, 13.83491
1007.122, 13.51570
1007.604, 13.08582
1008.086, 12.63477
1008.569, 12.46533
1009.051, 13.17112
1009.533, 13.94948
1010.015, 13.83945
1010.497, 13.21440
1010.979, 12.53845
1011.461, 12.01276
1011.943, 12.05087
1012.426, 12.85067
1012.908, 13.67704
1013.390, 13.67204
1013.872, 13.20410
1014.354, 12.85912
1014.836, 12.64512
1015.318, 12.62243
1015.800, 12.76119
1016.282, 12.83170
1016.765, 12.69990
1017.247, 12.50842
1017.729, 12.44599
1018.211, 12.49162
1018.693, 12.59835
1019.175, 12.75230
1019.657, 12.87602
1020.139, 12.95133
1020.622, 12.95416
1021.104, 12.85939
1021.586, 12.74220
1022.068, 12.76632
1022.550, 12.90928
1023.032, 12.89358
1023.514, 12.71556
1023.996, 12.60581
1024.478, 12.61619
1024.961, 12.77034
1025.443, 13.12895
1025.925, 13.51409
1026.407, 13.44210
1026.889, 12.87075
1027.371, 12.81109
1027.853, 13.37691
1028.335, 13.80822
1028.818, 13.92504
1029.300, 13.78950
1029.782, 13.38965
1030.264, 12.85856
1030.746, 12.56938
1031.228, 12.57549
1031.710, 12.48390
1032.192, 12.24903
1032.674, 12.05340
1033.156, 11.96323
1033.639, 11.88216
1034.121, 11.68847
1034.603, 11.47496
1035.085, 11.53534
1035.567, 11.98479
1036.049, 12.26557
1036.531, 12.25810
1037.013, 12.32363
1037.496, 12.69013
1037.978, 12.98347
1038.460, 12.83630
1038.942, 12.39642
1039.424, 12.12392
1039.906, 12.07234
1040.388, 12.03043
1040.870, 11.97586
1041.353, 11.96291
1041.835, 11.95666
1042.317, 12.04148
1042.799, 12.35508
1043.281, 12.80530
1043.763, 13.15138
1044.245, 13.48888
1044.727, 13.42201
1045.209, 12.33635
1045.692, 11.64019
1046.174, 12.05648
1046.656, 12.69117
1047.138, 12.79767
1047.620, 12.56190
1048.102, 12.58774
1048.584, 13.05624
1049.066, 13.27584
1049.548, 12.91943
1050.031, 12.61154
1050.513, 12.52849
1050.995, 12.59224
1051.477, 12.87512
1051.959, 13.22318
1052.441, 13.24696
1052.923, 12.81917
1053.405, 12.44608
1053.888, 12.14227
1054.370, 12.02829
1054.852, 12.28831
1055.334, 12.63244
1055.816, 12.91276
1056.298, 13.06193
1056.780, 12.90979
1057.262, 12.36518
1057.745, 12.00556
1058.227, 12.11363
1058.709, 12.28200
1059.191, 12.37597
1059.673, 12.43193
1060.155, 12.45350
1060.637, 12.47537
1061.119, 12.60099
1061.601, 12.86616
1062.083, 12.97006
1062.566, 12.68937
1063.048, 12.38256
1063.530, 12.22827
1064.012, 12.09498
1064.494, 11.74837
1064.976, 11.37355
1065.458, 11.39897
1065.940, 11.90794
1066.423, 12.36532
1066.905, 12.66669
1067.387, 12.73885
1067.869, 12.33931
1068.351, 11.88894
1068.833, 11.81398
1069.315, 11.92800
1069.797, 11.70842
1070.280, 11.10820
1070.762, 11.00349
1071.244, 12.36154
1071.726, 13.49304
1072.208, 13.47082
1072.690, 13.06013
1073.172, 12.73480
1073.654, 12.53657
1074.136, 12.44358
1074.619, 12.44694
1075.101, 12.52864
1075.583, 12.82451
1076.065, 12.95729
1076.547, 12.57899
1077.029, 12.13506
1077.511, 12.01685
1077.993, 12.03867
1078.475, 11.83135
1078.958, 11.40771
1079.440, 11.18061
1079.922, 11.37673
1080.404, 11.62276
1080.886, 11.79535
1081.368, 11.89710
1081.850, 11.84052
1082.332, 11.77136
1082.814, 11.94961
1083.297, 12.31659
1083.779, 12.49191
1084.261, 12.28794
1084.743, 12.08851
1085.225, 12.05599
1085.707, 12.09958
1086.189, 12.27741
1086.671, 12.41437
1087.154, 12.20808
1087.636, 11.78387
1088.118, 11.65931
1088.600, 12.08186
1089.082, 12.23990
1089.564, 11.34317
1090.046, 10.63523
1090.528, 11.05097
1091.010, 11.80014
1091.493, 12.10011
1091.975, 12.04502
1092.457, 12.08280
1092.939, 12.33491
1093.421, 12.40591
1093.903, 11.96468
1094.385, 11.55072
1094.867, 11.37211
1095.349, 11.35655
1095.832, 11.54901
1096.314, 11.81154
1096.796, 11.86280
1097.278, 11.66383
1097.760, 11.61964
1098.242, 12.16176
1098.724, 12.44964
1099.206, 11.83795
1099.689, 11.26505
1100.171, 11.50848
1100.653, 12.12570
1101.135, 12.44294
1101.617, 12.41168
1102.099, 12.37922
1102.581, 12.53061
1103.063, 12.50690
1103.546, 11.92344
1104.028, 11.49238
1104.510, 11.79642
1104.992, 12.30154
1105.474, 12.40160
1105.956, 12.12980
1106.438, 11.83012
1106.920, 11.47481
1107.402, 11.29009
1107.885, 11.35732
1108.367, 11.53916
1108.849, 11.97011
1109.331, 12.33571
1109.813, 12.31329
1110.295, 12.01491
1110.777, 11.77326
1111.259, 11.63654
1111.741, 11.44316
1112.224, 11.00885
1112.706, 10.76229
1113.188, 10.89067
1113.670, 11.13036
1114.152, 11.33890
1114.634, 11.53653
1115.116, 11.80704
1115.598, 12.17677
1116.081, 12.28619
1116.563, 11.94797
1117.045, 11.66932
1117.527, 11.49239
1118.009, 11.38933
1118.491, 11.40008
1118.973, 11.42107
1119.455, 11.23089
1119.938, 10.89705
1120.420, 11.11366
1120.902, 12.36866
1121.384, 12.91903
1121.866, 12.38439
1122.348, 11.86403
1122.830, 11.72041
1123.312, 11.74355
1123.794, 11.79328
1124.276, 11.81938
1124.759, 11.62852
1125.241, 11.13687
1125.723, 10.93933
1126.205, 11.14026
1126.687, 11.20190
1127.169, 10.92936
1127.651, 10.76339
1128.133, 11.04450
1128.616, 11.50121
1129.098, 11.64591
1129.580, 11.49352
1130.062, 11.26734
1130.544, 10.95008
1131.026, 10.78055
1131.508, 10.79376
1131.990, 10.99135
1132.473, 11.41197
1132.955, 11.73071
1133.437, 11.48903
1133.919, 10.95327
1134.401, 11.21248
1134.883, 12.14964
1135.365, 12.24305
1135.847, 11.45049
1136.329, 10.92410
1136.812, 11.01846
1137.294, 11.19169
1137.776, 10.99674
1138.258, 10.73863
1138.740, 11.07302
1139.222, 11.76967
1139.704, 12.01749
1140.186, 11.91335
1140.668, 12.00002
1141.151, 12.31633
1141.633, 12.36278
1142.115, 11.88112
1142.597, 11.32280
1143.079, 11.21640
1143.561, 11.32838
1144.043, 11.24293
1144.525, 11.09626
1145.008, 11.29047
1145.490, 11.67827
1145.972, 11.64462
1146.454, 11.05231
1146.936, 10.45550
1147.418, 10.16560
1147.900, 10.17472
1148.382, 10.74052
1148.865, 11.37520
1149.347, 11.37494
1149.829, 11.09072
1150.311, 11.31145
1150.793, 11.96580
1151.275, 12.17852
1151.757, 11.50133
1152.239, 10.89596
1152.721, 10.96008
1153.203, 11.21226
1153.686, 11.45570
1154.168, 11.63229
1154.650, 11.73037
1155.132, 11.71386
1155.614, 11.44555
1156.096, 10.89651
1156.578, 10.54925
1157.060, 10.66645
1157.543, 10.82223
1158.025, 10.92290
1158.507, 11.00355
1158.989, 11.14659
1159.471, 11.24164
1159.953, 11.11073
1160.435, 10.78489
1160.917, 10.51283
1161.400, 10.19290
1161.882, 10.18245
1162.364, 10.81794
1162.846, 11.24311
1163.328, 11.13929
1163.810, 10.88655
1164.292, 10.68514
1164.774, 10.58162
1165.256, 10.72142
1165.739, 11.13423
1166.221, 11.22146
1166.703, 10.85294
1167.185, 10.64504
1167.667, 10.68529
1168.149, 10.86847
1168.631, 11.18309
1169.113, 11.50429
1169.595, 11.71215
1170.078, 11.78866
1170.560, 11.57924
1171.042, 11.10123
1171.524, 11.08398
1172.006, 11.53497
1172.488, 11.62434
1172.970, 11.15142
1173.452, 10.84122
1173.934, 11.18388
1174.417, 11.70632
1174.899, 11.68023
1175.381, 11.33172
1175.863, 11.27496
1176.345, 11.41118
1176.827, 11.44873
1177.309, 11.37766
1177.791, 11.32261
1178.274, 11.32756
1178.756, 11.36768
1179.238, 11.44780
1179.720, 11.49671
1180.202, 11.40461
1180.684, 11.26426
1181.166, 11.17699
1181.648, 11.13467
1182.130, 11.10321
1182.613, 11.08933
1183.095, 11.18741
1183.577, 11.46956
1184.059, 11.51038
1184.541, 10.73331
1185.023, 10.10825
1185.505, 10.39935
1185.987, 10.83396
1186.469, 10.68182
1186.952, 10.24619
1187.434, 10.08855
1187.916, 10.25994
1188.398, 10.53694
1188.880, 11.05746
1189.362, 11.38704
1189.844, 11.42064
1190.326, 11.33298
1190.809, 11.08225
1191.291, 10.84306
1191.773, 10.74061
1192.255, 10.76392
1192.737, 10.91082
1193.219, 11.20319
1193.701, 11.36709
1194.183, 11.37671
1194.666, 11.35961
1195.148, 11.34603
1195.630, 11.21907
1196.112, 10.87942
1196.594, 10.62658
1197.076, 10.83366
1197.558, 11.28141
1198.040, 11.26654
1198.522, 10.86545
1199.005, 10.74475
1199.487, 10.90700
1199.969, 11.24098
1200.451, 11.68388
1200.933, 11.92114
1201.415, 11.77639
1201.897, 11.51597
1202.379, 11.40194
1202.861, 11.39214
1203.344, 11.52530
1203.826, 11.64987
1204.308, 11.43434
1204.790, 10.99500
1205.272, 10.63914
1205.754, 10.44564
1206.236, 10.35807
1206.718, 10.34072
1207.201, 10.45671
1207.683, 10.93650
1208.165, 11.33897
1208.647, 11.26328
1209.129, 11.05154
1209.611, 11.01391
1210.093, 11.13979
1210.575, 11.37053
1211.057, 11.70156
1211.540, 11.93652
1212.022, 12.13616
1212.504, 12.09985
1212.986, 11.52730
1213.468, 11.08697
1213.950, 11.03024
1214.432, 11.18094
1214.914, 11.46445
1215.396, 11.77814
1215.879, 11.83243
1216.361, 11.61038
1216.843, 11.30327
1217.325, 10.86017
1217.807, 10.72281
1218.289, 10.99079
1218.771, 11.23879
1219.253, 11.27259
1219.736, 11.26356
1220.218, 11.41887
1220.700, 11.56699
1221.182, 11.12990
1221.664, 10.41762
1222.146, 10.60806
1222.628, 11.44429
1223.110, 11.93314
1223.593, 11.93842
1224.075, 11.83390
1224.557, 11.78552
1225.039, 11.66593
1225.521, 11.26401
1226.003, 10.88764
1226.485, 10.85774
1226.967, 10.95616
1227.449, 11.01085
1227.932, 11.00473
1228.414, 10.82233
1228.896, 10.56884
1229.378, 10.78784
1229.860, 11.87870
1230.342, 12.36890
1230.824, 11.25043
1231.306, 10.43449
1231.788, 10.62238
1232.271, 11.10849
1232.753, 11.71994
1233.235, 12.17169
1233.717, 11.98214
1234.199, 11.28534
1234.681, 10.98445
1235.163, 11.17609
1235.645, 11.30430
1236.128, 11.36027
1236.610, 11.33163
1237.092, 11.20328
1237.574, 11.10640
1238.056, 11.11432
1238.538, 11.25159
1239.020, 11.63628
1239.502, 12.05800
1239.984, 11.89851
1240.467, 11.36254
1240.949, 10.87276
1241.431, 10.58422
1241.913, 11.01719
1242.395, 12.07924
1242.877, 12.73759
1243.359, 12.45011
1243.841, 12.01408
1244.323, 11.98781
1244.806, 12.07257
1245.288, 12.13369
1245.770, 12.11988
1246.252, 11.88634
1246.734, 11.60346
1247.216, 11.60794
1247.698, 11.86853
1248.180, 11.92615
1248.662, 11.65940
1249.145, 11.32567
1249.627, 10.71568
1250.109, 10.43292
1250.591, 10.79412
1251.073, 11.14436
1251.555, 11.06325
1252.037, 10.86586
1252.519, 11.01991
1253.002, 11.39985
1253.484, 11.32965
1253.966, 10.82859
1254.448, 10.83086
1254.930, 11.32805
1255.412, 11.64635
1255.894, 11.63699
1256.376, 11.41950
1256.859, 11.05726
1257.341, 10.86113
1257.823, 11.32220
1258.305, 11.88281
1258.787, 11.69846
1259.269, 11.23955
1259.751, 11.12449
1260.233, 11.22621
1260.715, 11.25923
1261.198, 11.18634
1261.680, 11.05491
1262.162, 10.84524
1262.644, 10.81273
1263.126, 11.29835
1263.608, 11.59204
1264.090, 11.20185
1264.572, 10.90812
1265.054, 11.26880
1265.537, 11.78954
1266.019, 11.97112
1266.501, 11.88385
1266.983, 11.75810
1267.465, 11.59705
1267.947, 11.30533
1268.429, 10.84192
1268.911, 10.83437
1269.394, 11.38567
1269.876, 11.64599
1270.358, 11.26410
1270.840, 10.96165
1271.322, 11.44246
1271.804, 12.12149
1272.286, 12.02133
1272.768, 11.57820
1273.250, 11.51972
1273.733, 11.68728
1274.215, 11.75140
1274.697, 11.73441
1275.179, 11.92617
1275.661, 12.34783
1276.143, 12.35937
1276.625, 11.28184
1277.107, 10.60769
1277.589, 11.17765
1278.072, 11.79108
1278.554, 11.91716
1279.036, 11.88002
1279.518, 12.00926
1280.000, 12.08646
1280.482, 11.62995
1280.964, 10.73117
1281.446, 10.65261
1281.929, 11.58497
1282.411, 11.59826
1282.893, 10.53061
1283.375, 10.18182
1283.857, 10.98363
1284.339, 11.59482
1284.821, 11.22770
1285.303, 10.68909
1285.786, 10.74555
1286.268, 11.39836
##END=



