##NAMES=Polylithionite
##RRUFFID=R060215
##IDEAL CHEMISTRY=KLi_2_AlSi_4_O_10_F_2_
##LOCALITY=Mont Saint-Hilaire, Rouville County, Quebec, Canada
##OWNER=RRUFF
##SOURCE=Royal Ontario Museum
##DESCRIPTION=Tan to colorless micaceous fragment
##STATUS=The identification of this mineral has been confirmed by X-ray diffraction and chemical analysis
##URL=rruff.info/R060215
##MEASURED CHEMISTRY=(K_0.99_Na_0.01_)Li_2.00_(Al_0.88_Ti_0.06_Mg_0.06_)Si_4.00_O_10_(F_0.89_(OH)_0.11_)_2_
91.82715, 419.0494
92.30927, 422.2611
92.79138, 422.0528
93.27350, 414.2991
93.75562, 404.6278
94.23773, 396.5935
94.71985, 390.5677
95.20197, 384.6156
95.68408, 378.7021
96.16620, 372.4459
96.64832, 365.7261
97.13043, 358.5414
97.61255, 351.2265
98.09467, 344.2614
98.57678, 337.8847
99.05890, 330.3793
99.54102, 322.5122
100.0231, 314.2986
100.5052, 305.5291
100.9874, 295.9569
101.4695, 285.7130
101.9516, 275.8890
102.4337, 265.5798
102.9158, 256.4390
103.3979, 248.8459
103.8801, 242.5447
104.3622, 237.1936
104.8443, 232.5979
105.3264, 228.7913
105.8085, 224.8284
106.2906, 220.3574
106.7728, 215.9617
107.2549, 212.1462
107.7370, 208.9066
108.2191, 205.5759
108.7012, 201.2431
109.1833, 195.7966
109.6655, 191.0290
110.1476, 187.4250
110.6297, 184.5659
111.1118, 181.7608
111.5939, 178.7878
112.0760, 176.1098
112.5582, 174.1979
113.0403, 172.9952
113.5224, 172.1569
114.0045, 171.6898
114.4866, 171.5616
114.9688, 171.1461
115.4509, 169.9738
115.9330, 168.7159
116.4151, 167.7549
116.8972, 167.1521
117.3793, 166.7510
117.8615, 166.3257
118.3436, 165.7775
118.8257, 165.4697
119.3078, 165.4248
119.7899, 165.5901
120.2720, 165.9995
120.7542, 166.6593
121.2363, 167.4417
121.7184, 167.9884
122.2005, 168.4374
122.6826, 168.4225
123.1647, 167.4420
123.6468, 166.0547
124.1290, 165.0942
124.6111, 165.0744
125.0932, 165.8517
125.5753, 166.2071
126.0574, 165.7770
126.5395, 165.3950
127.0217, 165.5179
127.5038, 166.0536
127.9859, 166.4955
128.4680, 166.4556
128.9501, 165.9831
129.4323, 165.5599
129.9144, 165.1987
130.3965, 164.8951
130.8786, 164.6308
131.3607, 164.3959
131.8428, 164.2486
132.3250, 164.5254
132.8071, 164.9344
133.2892, 164.8726
133.7713, 163.6202
134.2534, 161.6281
134.7355, 160.5025
135.2177, 160.8073
135.6998, 161.2788
136.1819, 161.0738
136.6640, 160.4710
137.1461, 160.1940
137.6282, 161.0538
138.1104, 163.2259
138.5925, 164.5752
139.0746, 164.4841
139.5567, 164.0469
140.0388, 163.5264
140.5209, 163.0086
141.0031, 162.5098
141.4852, 161.9975
141.9673, 161.2329
142.4494, 161.1781
142.9315, 162.3317
143.4136, 163.7085
143.8958, 164.5647
144.3779, 164.7512
144.8600, 164.7996
145.3421, 165.6197
145.8242, 168.0467
146.3063, 169.6643
146.7885, 169.5679
147.2706, 168.8768
147.7527, 169.1311
148.2348, 170.9955
148.7169, 173.5191
149.1990, 174.6216
149.6812, 173.9934
150.1633, 173.5136
150.6454, 173.8926
151.1275, 174.9726
151.6096, 176.2369
152.0917, 177.4405
152.5739, 178.8443
153.0560, 180.9317
153.5381, 184.0010
154.0202, 186.7837
154.5023, 187.8178
154.9844, 186.9927
155.4665, 186.8284
155.9487, 188.8265
156.4308, 191.6412
156.9129, 194.3593
157.3950, 196.8028
157.8771, 198.9563
158.3592, 200.6561
158.8414, 201.5043
159.3235, 202.9275
159.8056, 205.4494
160.2877, 208.5205
160.7698, 211.8103
161.2519, 215.1922
161.7341, 218.5328
162.2162, 221.3626
162.6983, 222.9505
163.1804, 225.0294
163.6625, 228.0928
164.1446, 231.6902
164.6268, 235.2566
165.1089, 238.4921
165.5910, 241.4464
166.0731, 244.5274
166.5552, 248.3148
167.0373, 251.6076
167.5195, 253.8864
168.0016, 255.4960
168.4837, 257.1324
168.9658, 259.2581
169.4479, 261.8405
169.9300, 264.1169
170.4122, 265.5150
170.8943, 267.2072
171.3764, 269.6684
171.8585, 272.8734
172.3406, 276.6672
172.8227, 281.0582
173.3049, 285.9967
173.7870, 290.8333
174.2691, 296.0193
174.7512, 300.8282
175.2333, 304.4235
175.7154, 306.7544
176.1976, 309.0043
176.6797, 312.7894
177.1618, 317.1229
177.6439, 319.4242
178.1260, 318.5542
178.6081, 315.5749
179.0903, 312.1298
179.5724, 308.5280
180.0545, 303.5008
180.5366, 295.4472
181.0187, 285.6270
181.5008, 275.9753
181.9830, 267.4159
182.4651, 259.6652
182.9472, 251.6400
183.4293, 242.6616
183.9114, 234.6125
184.3935, 228.2348
184.8757, 223.1823
185.3578, 218.8636
185.8399, 215.0732
186.3220, 211.7502
186.8041, 208.2875
187.2862, 203.7047
187.7684, 200.0849
188.2505, 198.5433
188.7326, 198.4226
189.2147, 198.3989
189.6968, 197.4132
190.1789, 195.4146
190.6611, 193.7476
191.1432, 192.9497
191.6253, 191.9520
192.1074, 190.1758
192.5895, 187.8627
193.0716, 185.6553
193.5538, 184.1234
194.0359, 183.3170
194.5180, 182.7795
195.0001, 183.1176
195.4822, 183.1266
195.9643, 181.8584
196.4465, 179.5655
196.9286, 177.4225
197.4107, 176.5610
197.8928, 177.1984
198.3749, 177.6397
198.8570, 177.9324
199.3392, 178.0191
199.8213, 177.8199
200.3034, 177.3421
200.7855, 176.6997
201.2676, 175.8872
201.7497, 174.9109
202.2319, 174.4016
202.7140, 174.9050
203.1961, 175.5840
203.6782, 175.5197
204.1603, 174.5830
204.6424, 173.6344
205.1246, 173.5175
205.6067, 174.0778
206.0888, 174.6320
206.5709, 175.0692
207.0530, 175.4214
207.5351, 175.7012
208.0173, 175.8816
208.4994, 176.0992
208.9815, 176.5197
209.4636, 177.0609
209.9457, 177.5559
210.4278, 177.8433
210.9100, 178.0557
211.3921, 178.5549
211.8742, 179.5308
212.3563, 180.3847
212.8384, 180.6011
213.3205, 180.4665
213.8027, 180.4985
214.2848, 180.9723
214.7669, 181.8134
215.2490, 182.8016
215.7311, 184.1884
216.2132, 185.3114
216.6954, 185.6639
217.1775, 185.6236
217.6596, 185.8844
218.1417, 187.0272
218.6238, 188.8171
219.1059, 189.7687
219.5881, 188.7758
220.0702, 188.3035
220.5523, 189.2084
221.0344, 191.0752
221.5165, 193.2912
221.9986, 195.5568
222.4808, 197.8030
222.9629, 199.3591
223.4450, 199.0184
223.9271, 199.2330
224.4092, 200.8528
224.8913, 203.3516
225.3735, 205.8170
225.8556, 207.6599
226.3377, 208.9219
226.8198, 210.2027
227.3019, 211.2374
227.7840, 212.5649
228.2662, 214.4379
228.7483, 216.6785
229.2304, 218.9805
229.7125, 221.1695
230.1946, 223.2460
230.6767, 225.1648
231.1589, 226.8863
231.6410, 228.5072
232.1231, 229.8298
232.6052, 231.0777
233.0873, 232.6819
233.5694, 234.9240
234.0516, 237.7241
234.5337, 240.5226
235.0158, 243.6716
235.4979, 246.4688
235.9800, 248.2150
236.4621, 249.4378
236.9443, 251.3067
237.4264, 254.5052
237.9085, 258.8032
238.3906, 263.1566
238.8727, 267.6473
239.3548, 272.0757
239.8370, 276.1588
240.3191, 280.0978
240.8012, 284.3647
241.2833, 289.2046
241.7654, 294.5375
242.2475, 300.1051
242.7297, 305.7285
243.2118, 311.7780
243.6939, 319.2069
244.1760, 327.3009
244.6581, 333.9855
245.1402, 338.5204
245.6224, 340.8820
246.1045, 341.3820
246.5866, 340.0323
247.0687, 337.2112
247.5508, 332.6313
248.0329, 326.6272
248.5151, 320.3319
248.9972, 314.1057
249.4793, 307.6724
249.9614, 300.3856
250.4435, 291.9475
250.9256, 284.3499
251.4078, 278.9902
251.8899, 275.4868
252.3720, 272.0053
252.8541, 268.0782
253.3362, 264.0762
253.8183, 260.3767
254.3005, 256.9674
254.7826, 253.7745
255.2647, 250.6315
255.7468, 247.6272
256.2289, 245.2453
256.7110, 243.7332
257.1931, 242.7117
257.6753, 241.8275
258.1574, 241.0840
258.6395, 240.5004
259.1216, 240.0816
259.6037, 239.8309
260.0858, 239.7661
260.5680, 239.9099
261.0501, 240.2429
261.5322, 240.8132
262.0143, 241.5488
262.4964, 242.2341
262.9785, 242.5044
263.4607, 242.5170
263.9428, 243.3243
264.4249, 245.6535
264.9070, 247.7290
265.3891, 248.5827
265.8712, 248.6009
266.3534, 248.5798
266.8355, 249.1011
267.3176, 249.9438
267.7997, 250.0976
268.2818, 249.0500
268.7639, 248.0673
269.2461, 247.6090
269.7282, 247.5007
270.2103, 247.5402
270.6924, 247.7100
271.1745, 247.8572
271.6566, 247.4203
272.1388, 245.9957
272.6209, 244.6543
273.1030, 243.7386
273.5851, 243.0263
274.0672, 242.2165
274.5493, 241.1383
275.0315, 240.0354
275.5136, 239.5969
275.9957, 240.3626
276.4778, 240.7747
276.9599, 240.2712
277.4420, 239.4962
277.9242, 239.0102
278.4063, 239.0121
278.8884, 239.3629
279.3705, 239.8452
279.8526, 240.5802
280.3347, 241.1816
280.8169, 241.4337
281.2990, 241.6749
281.7811, 242.2049
282.2632, 243.0767
282.7453, 244.0546
283.2274, 244.7280
283.7096, 244.7880
284.1917, 245.3396
284.6738, 246.7288
285.1559, 248.2947
285.6380, 249.5895
286.1201, 250.5993
286.6023, 251.6846
287.0844, 253.3379
287.5665, 255.7893
288.0486, 257.8371
288.5307, 259.3139
289.0128, 260.5674
289.4950, 261.6439
289.9771, 262.6128
290.4592, 263.5792
290.9413, 264.6137
291.4234, 265.6971
291.9055, 267.0734
292.3877, 269.2340
292.8698, 271.1983
293.3519, 272.5843
293.8340, 273.5199
294.3161, 274.3101
294.7982, 275.1519
295.2804, 276.0517
295.7625, 277.0432
296.2446, 278.2065
296.7267, 279.3865
297.2088, 280.6442
297.6909, 281.8819
298.1731, 282.9191
298.6552, 283.6423
299.1373, 284.1590
299.6194, 284.8856
300.1015, 286.5507
300.5836, 287.4984
301.0658, 286.6464
301.5479, 285.4008
302.0300, 285.4965
302.5121, 287.5807
302.9942, 290.6088
303.4763, 292.4119
303.9585, 291.8419
304.4406, 291.6805
304.9227, 292.1248
305.4048, 292.8501
305.8869, 293.7383
306.3690, 294.7005
306.8512, 295.5209
307.3333, 295.9095
307.8154, 295.8329
308.2975, 295.3365
308.7796, 294.0171
309.2617, 292.6721
309.7439, 291.7296
310.2260, 291.2382
310.7081, 291.1180
311.1902, 291.4113
311.6723, 292.3258
312.1544, 292.0668
312.6366, 289.7280
313.1187, 287.2921
313.6008, 285.5628
314.0829, 284.3853
314.5650, 283.1938
315.0471, 281.5695
315.5293, 279.5576
316.0114, 277.7605
316.4935, 276.4125
316.9756, 275.0047
317.4577, 273.2643
317.9398, 271.4376
318.4220, 269.9333
318.9041, 268.9698
319.3862, 268.3671
319.8683, 267.5492
320.3504, 266.5177
320.8326, 265.2344
321.3147, 263.5047
321.7968, 261.6262
322.2789, 259.9126
322.7610, 258.4680
323.2431, 257.0816
323.7253, 255.3665
324.2074, 252.8519
324.6895, 250.9582
325.1716, 250.0133
325.6537, 249.3396
326.1358, 248.4451
326.6180, 247.2932
327.1001, 246.2116
327.5822, 245.6285
328.0643, 245.7763
328.5464, 245.1852
329.0285, 243.0025
329.5107, 240.9970
329.9928, 240.1333
330.4749, 240.1029
330.9570, 239.9640
331.4391, 238.9722
331.9212, 237.2097
332.4034, 235.9011
332.8855, 235.3957
333.3676, 234.9847
333.8497, 234.5674
334.3318, 234.1604
334.8139, 233.8428
335.2961, 233.6620
335.7782, 233.5139
336.2603, 233.0937
336.7424, 232.2095
337.2245, 231.3150
337.7066, 230.1198
338.1888, 229.1045
338.6709, 228.8252
339.1530, 229.3798
339.6351, 230.2602
340.1172, 230.7725
340.5993, 231.0116
341.0815, 230.5882
341.5636, 228.7669
342.0457, 226.9875
342.5278, 226.1950
343.0099, 226.2855
343.4920, 226.4323
343.9742, 225.8005
344.4563, 224.3232
344.9384, 223.3203
345.4205, 223.1682
345.9026, 223.1626
346.3847, 223.2622
346.8669, 223.3658
347.3490, 223.4046
347.8311, 223.3932
348.3132, 223.1808
348.7953, 222.0214
349.2774, 218.5126
349.7596, 216.2872
350.2417, 216.6958
350.7238, 218.2036
351.2059, 219.2928
351.6880, 219.4464
352.1701, 219.2346
352.6523, 219.7054
353.1344, 221.2729
353.6165, 222.2395
354.0986, 221.8921
354.5807, 221.3276
355.0628, 221.0877
355.5450, 221.2480
356.0271, 221.6517
356.5092, 222.2074
356.9913, 222.9188
357.4734, 223.5811
357.9555, 224.0646
358.4377, 224.6510
358.9198, 225.5962
359.4019, 226.7185
359.8840, 227.6725
360.3661, 228.3194
360.8482, 228.6149
361.3304, 228.2919
361.8125, 226.8996
362.2946, 225.9034
362.7767, 226.2114
363.2588, 226.9596
363.7409, 227.2290
364.2231, 226.7057
364.7052, 225.9070
365.1873, 225.5412
365.6694, 225.6719
366.1515, 225.6162
366.6336, 224.9498
367.1158, 224.2661
367.5979, 224.0596
368.0800, 224.3202
368.5621, 224.5946
369.0442, 224.4956
369.5263, 224.1137
370.0085, 223.9232
370.4906, 224.1110
370.9727, 224.2104
371.4548, 223.8116
371.9369, 223.0956
372.4190, 222.4496
372.9012, 221.9727
373.3833, 221.6784
373.8654, 221.6464
374.3475, 221.9073
374.8296, 222.1768
375.3117, 222.3488
375.7939, 222.4276
376.2760, 222.3674
376.7581, 222.0390
377.2402, 221.9027
377.7223, 222.3540
378.2044, 223.2989
378.6866, 224.4677
379.1687, 226.1107
379.6508, 227.4003
380.1329, 226.7813
380.6150, 224.3044
381.0971, 222.8243
381.5793, 224.0674
382.0614, 226.5006
382.5435, 227.9395
383.0256, 228.1134
383.5077, 227.9906
383.9898, 228.2867
384.4720, 228.9581
384.9541, 229.5630
385.4362, 229.9839
385.9183, 230.4285
386.4004, 230.9518
386.8825, 231.5878
387.3647, 232.4916
387.8468, 233.7866
388.3289, 235.3059
388.8110, 236.6009
389.2931, 237.5334
389.7752, 238.6006
390.2574, 239.8188
390.7395, 241.2634
391.2216, 243.2616
391.7037, 245.8384
392.1858, 248.2202
392.6679, 249.3994
393.1501, 249.0184
393.6322, 249.2566
394.1143, 250.1389
394.5964, 251.5541
395.0785, 253.6214
395.5606, 256.1925
396.0428, 258.8688
396.5249, 261.4041
397.0070, 264.2081
397.4891, 266.5214
397.9712, 269.8004
398.4533, 272.8661
398.9355, 275.6545
399.4176, 278.1820
399.8997, 280.2390
400.3818, 281.8341
400.8639, 283.6424
401.3460, 286.8321
401.8282, 292.2466
402.3103, 296.6754
402.7924, 299.3807
403.2745, 301.9308
403.7566, 305.1756
404.2387, 308.9840
404.7209, 312.7401
405.2030, 315.9563
405.6851, 318.7058
406.1672, 321.4206
406.6493, 324.3257
407.1314, 326.8151
407.6136, 328.8578
408.0957, 330.4156
408.5778, 331.5005
409.0599, 332.1153
409.5420, 332.1174
410.0241, 331.0934
410.5063, 328.8070
410.9884, 326.7969
411.4705, 325.7014
411.9526, 324.5958
412.4347, 323.0646
412.9168, 321.0798
413.3990, 318.6895
413.8811, 315.7895
414.3632, 312.5048
414.8453, 309.3307
415.3274, 306.3684
415.8095, 303.2660
416.2917, 299.6008
416.7738, 295.7457
417.2559, 292.2050
417.7380, 289.1458
418.2201, 286.3275
418.7022, 283.5313
419.1844, 280.7604
419.6665, 278.1032
420.1486, 275.8039
420.6307, 273.3438
421.1128, 269.9986
421.5949, 265.7611
422.0771, 261.5563
422.5592, 257.5964
423.0413, 253.9143
423.5234, 250.8264
424.0055, 248.3876
424.4876, 245.3419
424.9698, 240.2404
425.4519, 233.6668
425.9340, 229.2537
426.4161, 228.8375
426.8982, 228.5644
427.3803, 226.4321
427.8625, 223.2224
428.3446, 220.7242
428.8267, 219.6595
429.3088, 219.1050
429.7909, 217.4100
430.2730, 213.6505
430.7552, 210.8587
431.2373, 209.9318
431.7194, 209.3333
432.2015, 207.7781
432.6836, 205.3804
433.1657, 203.2011
433.6479, 202.1297
434.1300, 202.0745
434.6121, 201.7952
435.0942, 201.0340
435.5763, 200.3394
436.0584, 199.8827
436.5406, 199.5017
437.0227, 199.0278
437.5048, 198.3985
437.9869, 197.6174
438.4690, 196.5714
438.9511, 194.9693
439.4333, 194.0607
439.9154, 194.5148
440.3975, 195.0861
440.8796, 195.2991
441.3617, 195.1651
441.8438, 194.8158
442.3260, 194.1909
442.8081, 193.5162
443.2902, 193.7255
443.7723, 195.3519
444.2544, 196.5212
444.7365, 196.1231
445.2187, 195.2213
445.7008, 194.7569
446.1829, 194.9292
446.6650, 195.2679
447.1471, 195.3896
447.6292, 195.3269
448.1114, 195.2813
448.5935, 195.3331
449.0756, 195.3003
449.5577, 194.9039
450.0398, 194.2784
450.5219, 193.8338
451.0041, 193.9871
451.4862, 194.1446
451.9683, 193.5639
452.4504, 192.3689
452.9325, 191.4643
453.4146, 191.3653
453.8968, 191.6555
454.3789, 191.4048
454.8610, 190.5240
455.3431, 189.5593
455.8252, 188.5173
456.3073, 187.5176
456.7895, 186.5773
457.2716, 185.7434
457.7537, 185.3101
458.2358, 185.6082
458.7179, 186.6398
459.2000, 187.3345
459.6822, 187.1830
460.1643, 187.3382
460.6464, 188.4019
461.1285, 189.8753
461.6106, 191.0536
462.0927, 191.6737
462.5748, 191.9638
463.0569, 192.2466
463.5391, 192.3656
464.0212, 192.9108
464.5033, 194.0351
464.9854, 195.4077
465.4675, 197.0124
465.9496, 198.7467
466.4318, 200.4133
466.9139, 201.8666
467.3960, 203.1900
467.8781, 204.7268
468.3602, 206.7182
468.8423, 208.3015
469.3245, 209.0313
469.8066, 209.3858
470.2887, 209.7456
470.7708, 210.1616
471.2529, 210.3402
471.7350, 209.9891
472.2172, 209.2044
472.6993, 208.4817
473.1814, 208.0873
473.6635, 207.0910
474.1456, 204.3891
474.6277, 200.6066
475.1099, 197.1137
475.5920, 194.2436
476.0741, 191.5769
476.5562, 188.6235
477.0383, 185.6338
477.5204, 183.3882
478.0026, 182.2548
478.4847, 181.5841
478.9668, 180.4265
479.4489, 178.5821
479.9310, 177.2640
480.4131, 177.0594
480.8953, 176.9661
481.3774, 176.1773
481.8595, 174.8802
482.3416, 173.8370
482.8237, 173.5226
483.3058, 173.6917
483.7880, 173.4928
484.2701, 172.5531
484.7522, 171.7676
485.2343, 171.1445
485.7164, 170.6903
486.1985, 170.3859
486.6807, 170.2437
487.1628, 170.3540
487.6449, 170.9370
488.1270, 171.9116
488.6091, 172.0953
489.0912, 170.9914
489.5734, 169.8608
490.0555, 169.0062
490.5376, 168.3694
491.0197, 167.9673
491.5018, 167.8224
491.9839, 167.6261
492.4661, 166.9209
492.9482, 165.7917
493.4303, 165.0785
493.9124, 165.0877
494.3945, 165.1607
494.8766, 164.5903
495.3588, 163.6465
495.8409, 163.0844
496.3230, 163.3618
496.8051, 163.8250
497.2872, 163.9326
497.7693, 163.7646
498.2515, 163.6015
498.7336, 163.5346
499.2157, 163.5590
499.6978, 163.7231
500.1799, 164.1518
500.6620, 164.2246
501.1442, 163.5161
501.6263, 162.7627
502.1084, 162.4648
502.5905, 162.5844
503.0726, 162.8997
503.5547, 163.3081
504.0369, 163.7089
504.5190, 163.7198
505.0011, 162.7457
505.4832, 162.3416
505.9653, 163.0193
506.4474, 163.9132
506.9296, 164.4495
507.4117, 164.5673
507.8938, 164.4730
508.3759, 164.2853
508.8580, 164.0308
509.3401, 163.8667
509.8223, 163.7719
510.3044, 163.8131
510.7865, 163.9692
511.2686, 164.2923
511.7507, 164.9557
512.2328, 166.0250
512.7150, 166.9530
513.1971, 167.2884
513.6792, 167.1667
514.1613, 166.8800
514.6434, 166.3786
515.1255, 166.1294
515.6077, 166.5737
516.0898, 167.5866
516.5719, 168.5212
517.0540, 169.3528
517.5361, 170.1083
518.0182, 170.7077
518.5004, 171.2636
518.9825, 172.0503
519.4646, 173.1380
519.9467, 174.1477
520.4288, 174.5714
520.9109, 174.2572
521.3931, 174.3886
521.8752, 174.9719
522.3573, 175.9161
522.8394, 177.3672
523.3215, 179.1027
523.8036, 180.9348
524.2858, 182.7635
524.7679, 184.3198
525.2500, 184.9332
525.7321, 184.2691
526.2142, 184.3595
526.6964, 185.9352
527.1785, 187.6424
527.6606, 188.7844
528.1427, 189.5759
528.6248, 190.5290
529.1069, 191.8416
529.5891, 193.4368
530.0712, 195.2979
530.5533, 197.4057
531.0354, 199.4190
531.5175, 201.1940
531.9996, 202.9145
532.4818, 204.7807
532.9639, 206.7709
533.4460, 208.9463
533.9281, 211.2605
534.4102, 213.8072
534.8923, 216.7602
535.3745, 220.0329
535.8566, 223.4837
536.3387, 227.0701
536.8208, 230.5768
537.3029, 233.4721
537.7850, 235.1729
538.2672, 237.5469
538.7493, 241.1057
539.2314, 244.8090
539.7135, 247.8602
540.1956, 250.5644
540.6777, 253.8919
541.1599, 258.4834
541.6420, 263.8331
542.1241, 268.5885
542.6062, 272.4856
543.0883, 276.7094
543.5704, 281.3603
544.0526, 286.5019
544.5347, 292.3326
545.0168, 298.7711
545.4989, 305.2788
545.9810, 311.8217
546.4631, 318.1767
546.9453, 324.0145
547.4274, 329.3446
547.9095, 334.0818
548.3916, 338.1654
548.8737, 341.6365
549.3558, 344.6457
549.8380, 347.4185
550.3201, 348.8027
550.8022, 348.2086
551.2843, 346.4087
551.7664, 344.2264
552.2485, 341.4562
552.7307, 337.1522
553.2128, 330.6911
553.6949, 322.5963
554.1770, 314.2692
554.6591, 305.5966
555.1412, 296.9017
555.6234, 288.1944
556.1055, 279.4362
556.5876, 270.4815
557.0697, 261.3896
557.5518, 252.3122
558.0339, 243.1106
558.5161, 234.2707
558.9982, 227.1104
559.4803, 221.9238
559.9624, 216.7931
560.4445, 211.0781
560.9266, 205.4215
561.4088, 200.4349
561.8909, 196.0927
562.3730, 191.9323
562.8551, 187.5838
563.3372, 183.4720
563.8193, 180.0880
564.3015, 177.3870
564.7836, 175.1684
565.2657, 173.4358
565.7478, 171.8616
566.2299, 169.7869
566.7120, 166.8191
567.1942, 164.3347
567.6763, 162.3049
568.1584, 160.7941
568.6405, 160.2990
569.1226, 160.3170
569.6047, 159.7009
570.0869, 157.8266
570.5690, 155.3418
571.0511, 153.6520
571.5332, 152.9937
572.0153, 152.1597
572.4974, 150.7828
572.9796, 149.4638
573.4617, 148.5063
573.9438, 147.8540
574.4259, 147.3554
574.9080, 147.0352
575.3901, 146.7155
575.8723, 146.1421
576.3544, 145.3680
576.8365, 144.7087
577.3186, 144.2937
577.8007, 143.8921
578.2828, 143.2402
578.7650, 142.3201
579.2471, 141.3887
579.7292, 140.2272
580.2113, 139.2942
580.6934, 138.9477
581.1755, 138.9319
581.6577, 138.8214
582.1398, 138.4757
582.6219, 138.0549
583.1040, 137.8360
583.5861, 137.9097
584.0682, 137.4592
584.5504, 135.9523
585.0325, 134.5405
585.5146, 133.6725
585.9967, 133.0541
586.4788, 132.2504
586.9609, 131.1226
587.4431, 130.0763
587.9252, 129.5322
588.4073, 129.3935
588.8894, 129.4322
589.3715, 129.7635
589.8536, 129.5650
590.3358, 127.8798
590.8179, 125.3075
591.3000, 123.9634
591.7821, 124.5121
592.2642, 125.0425
592.7463, 125.2271
593.2285, 124.9334
593.7106, 123.7374
594.1927, 121.7824
594.6748, 119.8896
595.1569, 118.7022
595.6390, 118.1495
596.1212, 117.8730
596.6033, 117.9847
597.0854, 118.1897
597.5675, 118.9288
598.0496, 119.3649
598.5317, 118.6190
599.0139, 116.9028
599.4960, 115.3565
599.9781, 114.7305
600.4602, 114.7104
600.9423, 114.7977
601.4244, 114.9950
601.9066, 115.0796
602.3887, 115.0227
602.8708, 114.7570
603.3529, 114.1159
603.8350, 113.1022
604.3171, 112.0967
604.7993, 110.8662
605.2814, 109.9198
605.7635, 109.7524
606.2456, 110.0866
606.7277, 110.3704
607.2098, 110.3875
607.6920, 110.1790
608.1741, 109.7924
608.6562, 109.2090
609.1383, 108.5417
609.6204, 107.5059
610.1025, 106.7266
610.5847, 106.6548
611.0668, 106.8496
611.5489, 106.6857
612.0310, 105.9773
612.5131, 105.1614
612.9952, 104.6703
613.4774, 104.3960
613.9595, 104.0330
614.4416, 103.5752
614.9237, 102.7807
615.4058, 101.1011
615.8879, 99.12460
616.3701, 98.84435
616.8522, 101.4993
617.3343, 103.1310
617.8164, 102.0833
618.2985, 100.3157
618.7806, 99.49348
619.2628, 99.64214
619.7449, 100.0468
620.2270, 100.2810
620.7091, 100.3302
621.1912, 100.0872
621.6733, 99.35927
622.1555, 98.91972
622.6376, 99.20581
623.1197, 99.48315
623.6018, 99.26718
624.0839, 98.71509
624.5660, 98.29263
625.0482, 98.21270
625.5303, 98.27522
626.0124, 98.35668
626.4945, 98.42349
626.9766, 98.36726
627.4587, 98.16591
627.9409, 97.80216
628.4230, 97.19549
628.9051, 96.35651
629.3872, 95.78228
629.8693, 95.58916
630.3514, 95.47023
630.8336, 95.40856
631.3157, 95.35868
631.7978, 95.17055
632.2799, 94.89750
632.7620, 94.92662
633.2441, 95.80186
633.7263, 97.11248
634.2084, 97.01917
634.6905, 95.08329
635.1726, 93.47160
635.6547, 92.81312
636.1368, 92.77506
636.6190, 93.10924
637.1011, 93.78416
637.5832, 94.41152
638.0653, 94.90298
638.5474, 95.27438
639.0295, 95.58818
639.5117, 95.78910
639.9938, 95.62834
640.4759, 95.02054
640.9580, 94.43414
641.4401, 94.54637
641.9222, 95.48531
642.4044, 95.92435
642.8865, 95.83618
643.3686, 95.23279
643.8507, 93.36400
644.3328, 91.39280
644.8149, 90.70080
645.2971, 91.47576
645.7792, 92.53734
646.2613, 92.91048
646.7434, 92.86674
647.2255, 93.08980
647.7076, 93.59897
648.1898, 94.14133
648.6719, 94.68001
649.1540, 95.10025
649.6361, 95.18382
650.1182, 94.89639
650.6003, 94.48345
651.0825, 93.59792
651.5646, 92.95133
652.0467, 93.18883
652.5288, 93.89745
653.0109, 94.28955
653.4930, 94.08958
653.9752, 93.69341
654.4573, 93.68106
654.9394, 94.06911
655.4215, 94.08965
655.9036, 93.48552
656.3857, 93.02126
656.8679, 93.24628
657.3500, 93.70207
657.8321, 93.80468
658.3142, 93.43558
658.7963, 93.31452
659.2784, 94.05820
659.7606, 95.01647
660.2427, 95.45900
660.7248, 95.42934
661.2069, 95.24807
661.6890, 95.03822
662.1711, 94.98218
662.6533, 95.49499
663.1354, 96.94787
663.6175, 97.65948
664.0996, 97.01451
664.5817, 96.29252
665.0638, 95.52857
665.5460, 95.07713
666.0281, 95.53023
666.5102, 97.05652
666.9923, 98.73914
667.4744, 99.88279
667.9565, 100.5842
668.4387, 101.0416
668.9208, 101.2654
669.4029, 101.3871
669.8850, 101.4497
670.3671, 101.4784
670.8492, 101.4881
671.3314, 101.3204
671.8135, 101.5905
672.2956, 102.7663
672.7777, 103.9230
673.2598, 104.4841
673.7419, 104.7055
674.2241, 105.0698
674.7062, 105.7526
675.1883, 106.5677
675.6704, 107.3374
676.1525, 108.0538
676.6346, 108.5785
677.1168, 108.8070
677.5989, 109.1975
678.0810, 109.9587
678.5631, 111.0393
679.0452, 112.3975
679.5273, 114.1488
680.0095, 115.6170
680.4916, 116.5786
680.9737, 117.2454
681.4558, 117.6288
681.9379, 117.8614
682.4200, 117.9981
682.9022, 118.0866
683.3843, 118.7541
683.8664, 121.2436
684.3485, 125.7535
684.8306, 128.9182
685.3127, 129.9635
685.7949, 131.0158
686.2770, 133.1511
686.7591, 135.6225
687.2412, 137.5061
687.7233, 138.6536
688.2054, 140.2227
688.6876, 142.8159
689.1697, 146.0106
689.6518, 149.5166
690.1339, 153.2256
690.6160, 156.8053
691.0981, 160.1222
691.5803, 163.4888
692.0624, 167.3941
692.5445, 171.8385
693.0266, 176.6424
693.5087, 181.8864
693.9908, 187.3666
694.4730, 192.7442
694.9551, 198.4720
695.4372, 205.0489
695.9193, 212.5246
696.4014, 220.6255
696.8835, 229.0025
697.3657, 238.0594
697.8478, 248.6877
698.3299, 260.6283
698.8120, 272.7352
699.2941, 284.5444
699.7762, 296.3224
700.2584, 308.2215
700.7405, 320.1890
701.2226, 332.9855
701.7047, 347.4599
702.1868, 361.6654
702.6689, 374.7522
703.1511, 387.6989
703.6332, 401.2671
704.1153, 415.5963
704.5974, 431.0350
705.0795, 447.4317
705.5616, 465.2001
706.0438, 485.0805
706.5259, 506.8676
707.0080, 529.5206
707.4901, 552.7589
707.9722, 576.9086
708.4543, 602.2892
708.9365, 628.9006
709.4186, 656.8885
709.9007, 688.1100
710.3828, 718.3736
710.8649, 747.9724
711.3470, 775.7357
711.8292, 801.5319
712.3113, 824.6882
712.7934, 843.2408
713.2755, 856.6525
713.7576, 863.7351
714.2397, 863.3298
714.7219, 855.2860
715.2040, 837.6115
715.6861, 809.4728
716.1682, 774.1956
716.6503, 733.4095
717.1324, 688.0538
717.6146, 642.1028
718.0967, 593.2898
718.5788, 547.4738
719.0609, 505.4131
719.5430, 466.3290
720.0251, 429.2962
720.5073, 394.6678
720.9894, 363.2260
721.4715, 335.3341
721.9536, 310.7886
722.4357, 289.8267
722.9178, 272.0494
723.4000, 255.8901
723.8821, 241.1495
724.3642, 228.0393
724.8463, 217.0168
725.3284, 207.5068
725.8105, 198.2927
726.2927, 188.9061
726.7748, 180.8804
727.2569, 175.0567
727.7390, 169.8014
728.2211, 164.1560
728.7032, 158.4891
729.1854, 153.7077
729.6675, 150.0749
730.1496, 146.6676
730.6317, 142.3416
731.1138, 137.4602
731.5959, 133.3171
732.0781, 129.9383
732.5602, 127.3429
733.0423, 125.7514
733.5244, 124.5711
734.0065, 123.0085
734.4886, 121.0321
734.9708, 118.7400
735.4529, 115.1979
735.9350, 112.4552
736.4171, 111.8139
736.8992, 111.9936
737.3813, 111.6048
737.8635, 110.4221
738.3456, 109.0030
738.8277, 107.7396
739.3098, 106.5185
739.7919, 105.0195
740.2740, 103.2723
740.7562, 101.8017
741.2383, 100.7829
741.7204, 99.89607
742.2025, 98.80336
742.6846, 97.55261
743.1667, 96.70229
743.6489, 96.57999
744.1310, 96.37028
744.6131, 95.60631
745.0952, 95.04385
745.5773, 95.54536
746.0594, 96.72569
746.5416, 97.45610
747.0237, 97.15475
747.5058, 96.47727
747.9879, 96.13046
748.4700, 96.06812
748.9521, 96.18990
749.4343, 96.49678
749.9164, 96.71854
750.3985, 96.70280
750.8806, 96.49434
751.3627, 96.15405
751.8448, 95.44540
752.3270, 95.23901
752.8091, 95.70018
753.2912, 96.43353
753.7733, 97.62810
754.2554, 98.83952
754.7375, 99.45438
755.2197, 99.35771
755.7018, 99.06669
756.1839, 98.55642
756.6660, 98.30856
757.1481, 99.39971
757.6302, 101.5998
758.1124, 103.5518
758.5945, 104.8047
759.0766, 105.8343
759.5587, 107.2041
760.0408, 108.8971
760.5229, 110.3094
761.0051, 111.3040
761.4872, 112.2185
761.9693, 112.9834
762.4514, 113.7860
762.9335, 114.8394
763.4156, 116.0571
763.8978, 117.1235
764.3799, 117.8353
764.8620, 118.5260
765.3441, 119.6949
765.8262, 120.9543
766.3083, 121.4510
766.7905, 121.1819
767.2726, 121.0329
767.7547, 121.5982
768.2368, 122.3639
768.7189, 121.9098
769.2010, 119.5155
769.6832, 118.6578
770.1653, 120.4674
770.6474, 122.2568
771.1295, 122.5904
771.6116, 122.4053
772.0938, 122.9521
772.5759, 124.4186
773.0580, 125.7104
773.5401, 126.1731
774.0222, 126.5145
774.5043, 127.2448
774.9865, 128.2982
775.4686, 129.5404
775.9507, 130.9152
776.4328, 132.3894
776.9149, 134.0214
777.3970, 135.6667
777.8792, 136.5775
778.3613, 136.6337
778.8434, 136.6788
779.3255, 137.0909
779.8076, 137.2316
780.2897, 136.5195
780.7719, 135.0567
781.2540, 133.3209
781.7361, 131.1743
782.2182, 128.9940
782.7003, 126.7394
783.1824, 124.5963
783.6646, 122.8093
784.1467, 121.2548
784.6288, 119.5860
785.1109, 117.6424
785.5930, 115.6747
786.0751, 114.0178
786.5573, 112.5943
787.0394, 111.1181
787.5215, 109.5897
788.0036, 107.8859
788.4857, 105.9090
788.9678, 103.8398
789.4500, 101.8625
789.9321, 99.88836
790.4142, 98.69799
790.8963, 99.05882
791.3784, 99.17441
791.8605, 98.63062
792.3427, 97.72512
792.8248, 96.58081
793.3069, 95.30783
793.7890, 94.16946
794.2711, 93.27723
794.7532, 92.59061
795.2354, 92.23805
795.7175, 92.01392
796.1996, 91.34131
796.6817, 90.21828
797.1638, 89.38522
797.6459, 89.33181
798.1281, 89.67799
798.6102, 89.50378
799.0923, 88.58279
799.5744, 88.14593
800.0565, 88.68931
800.5386, 88.92916
801.0208, 88.06485
801.5029, 86.73264
801.9850, 85.47507
802.4671, 84.30433
802.9492, 83.76476
803.4313, 84.44776
803.9135, 85.34342
804.3956, 86.06786
804.8777, 86.50352
805.3598, 86.40723
805.8419, 85.82645
806.3240, 85.18217
806.8062, 84.78343
807.2883, 84.54086
807.7704, 84.28482
808.2525, 84.01335
808.7346, 83.71088
809.2167, 83.37093
809.6989, 83.00894
810.1810, 82.60535
810.6631, 82.21238
811.1452, 82.00316
811.6273, 82.19250
812.1094, 82.06646
812.5916, 81.07436
813.0737, 80.39439
813.5558, 80.68828
814.0379, 81.48727
814.5200, 82.17961
815.0021, 82.66013
815.4843, 83.21850
815.9664, 84.28194
816.4485, 85.31226
816.9306, 85.51587
817.4127, 85.20468
817.8948, 85.19632
818.3770, 85.65263
818.8591, 86.21697
819.3412, 86.62618
819.8233, 86.86539
820.3054, 86.83591
820.7875, 86.44474
821.2697, 86.19209
821.7518, 86.09490
822.2339, 86.18991
822.7160, 86.83681
823.1981, 87.55201
823.6802, 87.28891
824.1624, 85.67508
824.6445, 84.77763
825.1266, 85.50235
825.6087, 86.51327
826.0908, 86.84769
826.5729, 87.12405
827.0551, 88.29900
827.5372, 90.48206
828.0193, 93.08576
828.5014, 95.94807
828.9835, 98.59444
829.4656, 100.0129
829.9478, 100.4506
830.4299, 100.9661
830.9120, 101.7359
831.3941, 103.0895
831.8762, 105.3971
832.3583, 108.1764
832.8404, 110.0473
833.3225, 110.3502
833.8046, 111.6225
834.2867, 113.8676
834.7689, 117.1086
835.2510, 121.6343
835.7331, 126.9180
836.2152, 132.2662
836.6973, 137.6296
837.1794, 143.9053
837.6616, 151.7393
838.1437, 160.2220
838.6258, 169.2980
839.1079, 178.4245
839.5900, 187.6661
840.0721, 196.4291
840.5543, 202.8259
841.0364, 205.8010
841.5185, 205.2389
842.0006, 200.5115
842.4827, 191.9419
842.9648, 181.0191
843.4470, 167.7590
843.9291, 154.1463
844.4112, 140.8542
844.8933, 128.6358
845.3754, 118.8119
845.8575, 111.5195
846.3397, 105.7060
846.8218, 101.7765
847.3039, 98.84352
847.7860, 96.97624
848.2681, 95.78748
848.7502, 94.89062
849.2324, 94.36109
849.7145, 94.61890
850.1966, 95.98547
850.6787, 97.80624
851.1608, 99.69053
851.6429, 101.8446
852.1251, 104.7782
852.6072, 108.2090
853.0893, 111.0912
853.5714, 112.9872
854.0535, 114.9736
854.5356, 118.3574
855.0178, 122.9615
855.4999, 128.3693
855.9820, 134.6362
856.4641, 139.3513
856.9462, 141.2694
857.4283, 143.5027
857.9105, 149.3523
858.3926, 158.3180
858.8747, 166.3975
859.3568, 172.4201
859.8389, 179.5987
860.3210, 188.8692
860.8032, 198.5440
861.2853, 207.7718
861.7674, 216.8816
862.2495, 226.2673
862.7316, 235.9578
863.2137, 246.8017
863.6959, 259.4211
864.1780, 273.1499
864.6601, 287.7850
865.1422, 303.0211
865.6243, 318.1329
866.1064, 333.0956
866.5886, 348.4287
867.0707, 364.7272
867.5528, 381.0553
868.0349, 395.7411
868.5170, 408.8553
868.9991, 421.4617
869.4813, 433.7744
869.9634, 443.3133
870.4455, 448.7463
870.9276, 450.8134
871.4097, 450.9952
871.8918, 449.5399
872.3740, 444.5670
872.8561, 435.6007
873.3382, 423.8262
873.8203, 408.8922
874.3024, 391.7926
874.7845, 372.5931
875.2667, 351.7303
875.7488, 330.9439
876.2309, 310.1895
876.7130, 290.2995
877.1951, 272.0310
877.6772, 254.4258
878.1594, 236.4204
878.6415, 218.6875
879.1236, 202.6545
879.6057, 188.8351
880.0878, 176.5913
880.5699, 165.6726
881.0521, 155.9623
881.5342, 147.2561
882.0163, 139.5697
882.4984, 133.0921
882.9805, 127.8459
883.4626, 123.2867
883.9448, 118.9972
884.4269, 115.0547
884.9090, 111.6979
885.3911, 108.9587
885.8732, 106.6248
886.3553, 104.7321
886.8375, 103.1488
887.3196, 102.0713
887.8017, 101.0413
888.2838, 99.19935
888.7659, 96.43400
889.2480, 94.30895
889.7302, 93.45823
890.2123, 92.45104
890.6944, 90.75732
891.1765, 88.92455
891.6586, 87.54720
892.1407, 86.40746
892.6229, 84.77874
893.1050, 82.28703
893.5871, 79.90503
894.0692, 78.47312
894.5513, 77.34296
895.0334, 75.77879
895.5156, 73.90431
895.9977, 72.02258
896.4798, 70.27598
896.9619, 68.90694
897.4440, 68.23463
897.9261, 67.93185
898.4083, 67.15602
898.8904, 65.95583
899.3725, 64.89759
899.8546, 64.07671
900.3367, 63.19777
900.8188, 62.03116
901.3010, 60.83623
901.7831, 60.16624
902.2652, 60.15420
902.7473, 59.78008
903.2294, 58.69778
903.7115, 57.86518
904.1937, 57.75062
904.6758, 57.79469
905.1579, 57.42598
905.6400, 56.79588
906.1221, 56.57801
906.6042, 57.22898
907.0864, 57.59703
907.5685, 57.07900
908.0506, 56.50406
908.5327, 56.76162
909.0148, 57.21315
909.4969, 56.44750
909.9791, 54.31026
910.4612, 52.83485
910.9433, 53.97696
911.4254, 55.81752
911.9075, 56.26189
912.3896, 55.90915
912.8718, 56.25218
913.3539, 57.21373
913.8360, 57.00348
914.3181, 54.54030
914.8002, 51.51673
915.2823, 50.77462
915.7645, 51.99596
916.2466, 52.79651
916.7287, 53.12705
917.2108, 53.40119
917.6929, 53.75909
918.1750, 54.03502
918.6572, 53.98784
919.1393, 53.74500
919.6214, 54.16213
920.1035, 55.98457
920.5856, 56.59344
921.0677, 54.89336
921.5499, 53.25611
922.0320, 52.89449
922.5141, 53.20157
922.9962, 53.43400
923.4783, 53.56606
923.9604, 53.72902
924.4426, 54.03000
924.9247, 54.24984
925.4068, 54.29726
925.8889, 54.24917
926.3710, 53.98405
926.8531, 53.70689
927.3353, 54.03097
927.8174, 55.27967
928.2995, 56.21812
928.7816, 55.60759
929.2637, 54.59444
929.7458, 54.51174
930.2280, 54.98356
930.7101, 55.11359
931.1922, 54.73184
931.6743, 54.21508
932.1564, 53.79449
932.6385, 53.53570
933.1207, 53.64881
933.6028, 54.03224
934.0849, 54.24300
934.5670, 54.24791
935.0491, 54.19433
935.5313, 54.14297
936.0134, 54.07648
936.4955, 53.96702
936.9776, 53.82193
937.4597, 53.65967
937.9418, 53.37664
938.4240, 53.56495
938.9061, 54.55212
939.3882, 55.53831
939.8703, 56.05062
940.3524, 56.20654
940.8345, 56.25529
941.3167, 56.19477
941.7988, 56.03320
942.2809, 55.32770
942.7630, 55.10828
943.2451, 55.79633
943.7272, 56.90977
944.2094, 58.41031
944.6915, 59.99646
945.1736, 60.74887
945.6557, 60.15789
946.1378, 59.58281
946.6199, 59.58831
947.1021, 59.70155
947.5842, 59.45849
948.0663, 59.16795
948.5484, 59.40544
949.0305, 60.18320
949.5126, 60.88324
949.9948, 61.12426
950.4769, 61.20400
950.9590, 61.26363
951.4411, 61.44005
951.9232, 62.14034
952.4053, 63.18332
952.8875, 63.82000
953.3696, 63.78595
953.8517, 63.64202
954.3338, 63.96928
954.8159, 64.63618
955.2980, 65.35066
955.7802, 66.09622
956.2623, 66.90508
956.7444, 67.78075
957.2265, 67.90666
957.7086, 66.65234
958.1907, 65.06266
958.6729, 65.12364
959.1550, 66.88334
959.6371, 68.29662
960.1192, 69.28930
960.6013, 70.30866
961.0834, 71.64235
961.5656, 72.63235
962.0477, 72.56703
962.5298, 71.80161
963.0119, 71.57790
963.4940, 72.12587
963.9761, 72.63317
964.4583, 72.99256
964.9404, 73.45507
965.4225, 74.28205
965.9046, 75.10188
966.3867, 75.54052
966.8688, 75.63921
967.3510, 75.67988
967.8331, 75.34285
968.3152, 75.56771
968.7973, 77.10281
969.2794, 78.68397
969.7615, 79.70148
970.2437, 80.19694
970.7258, 80.07008
971.2079, 79.42870
971.6900, 79.17001
972.1721, 80.10506
972.6542, 80.98567
973.1364, 80.86815
973.6185, 80.40232
974.1006, 80.22718
974.5827, 80.34910
975.0648, 80.56805
975.5469, 80.82466
976.0291, 81.26376
976.5112, 82.39442
976.9933, 83.41441
977.4754, 82.90079
977.9575, 81.52750
978.4396, 80.82164
978.9218, 80.88705
979.4039, 80.99948
979.8860, 80.79598
980.3681, 80.38940
980.8502, 79.92284
981.3323, 79.37752
981.8145, 78.58751
982.2966, 77.61366
982.7787, 76.95225
983.2608, 76.71546
983.7429, 76.71127
984.2250, 76.82307
984.7072, 77.02883
985.1893, 77.29926
985.6714, 77.63633
986.1535, 78.01680
986.6356, 78.51163
987.1177, 78.55396
987.5999, 77.82209
988.0820, 77.12302
988.5641, 77.23636
989.0462, 77.85303
989.5283, 77.92021
990.0104, 77.34814
990.4926, 76.46151
990.9747, 74.93255
991.4568, 73.71038
991.9389, 72.99779
992.4210, 72.83840
992.9031, 73.46863
993.3853, 74.75405
993.8674, 75.79467
994.3495, 76.82119
994.8316, 77.21198
995.3137, 76.52248
995.7958, 75.70535
996.2780, 74.80363
996.7601, 74.19750
997.2422, 74.54340
997.7243, 75.70353
998.2064, 76.36797
998.6885, 75.86597
999.1707, 75.51849
999.6528, 76.11232
1000.135, 76.48492
1000.617, 75.41853
1001.099, 73.89876
1001.581, 73.45409
1002.063, 74.22085
1002.545, 75.11433
1003.028, 75.84325
1003.510, 76.35652
1003.992, 76.57928
1004.474, 76.61431
1004.956, 76.53094
1005.438, 76.34538
1005.920, 76.01228
1006.402, 75.54864
1006.885, 75.16992
1007.367, 74.87083
1007.849, 74.90621
1008.331, 75.99464
1008.813, 77.26882
1009.295, 77.34737
1009.777, 76.47148
1010.259, 75.62119
1010.741, 75.17775
1011.224, 75.16654
1011.706, 75.90657
1012.188, 76.76741
1012.670, 76.54830
1013.152, 75.77972
1013.634, 75.82906
1014.116, 76.65618
1014.598, 77.17339
1015.081, 76.91590
1015.563, 76.68395
1016.045, 77.57026
1016.527, 78.97403
1017.009, 79.38438
1017.491, 78.94955
1017.973, 78.20634
1018.455, 77.29902
1018.937, 76.74076
1019.420, 76.79696
1019.902, 77.25669
1020.384, 77.90314
1020.866, 78.68079
1021.348, 79.42873
1021.830, 80.13269
1022.312, 80.24212
1022.794, 79.63162
1023.276, 79.11244
1023.759, 79.13966
1024.241, 79.52608
1024.723, 80.07805
1025.205, 80.74451
1025.687, 80.61657
1026.169, 79.54613
1026.651, 78.93288
1027.133, 79.07320
1027.616, 79.51297
1028.098, 80.06273
1028.580, 80.55212
1029.062, 80.61401
1029.544, 80.22768
1030.026, 80.23910
1030.508, 80.80479
1030.990, 81.19134
1031.473, 81.17708
1031.955, 81.18354
1032.437, 81.51547
1032.919, 81.99450
1033.401, 82.31546
1033.883, 82.49447
1034.365, 82.32098
1034.847, 81.58507
1035.329, 80.91760
1035.812, 80.02574
1036.294, 79.87167
1036.776, 81.56277
1037.258, 84.06285
1037.740, 85.27082
1038.222, 84.95046
1038.704, 84.92895
1039.186, 85.45707
1039.668, 85.87218
1040.151, 85.94814
1040.633, 86.02100
1041.115, 86.34716
1041.597, 86.78943
1042.079, 87.06066
1042.561, 87.12006
1043.043, 87.28603
1043.525, 87.46099
1044.008, 87.89138
1044.490, 88.99249
1044.972, 89.97630
1045.454, 90.02544
1045.936, 89.75904
1046.418, 90.59253
1046.900, 92.84106
1047.382, 93.77156
1047.865, 91.43600
1048.347, 90.09525
1048.829, 91.92327
1049.311, 93.80405
1049.793, 93.09777
1050.275, 91.31942
1050.757, 91.41956
1051.239, 93.80105
1051.721, 95.46796
1052.203, 95.23746
1052.686, 95.06677
1053.168, 95.43010
1053.650, 96.09415
1054.132, 97.15513
1054.614, 98.28234
1055.096, 98.91393
1055.578, 98.98405
1056.060, 99.11558
1056.543, 99.63931
1057.025, 100.0143
1057.507, 99.76521
1057.989, 99.61527
1058.471, 100.2169
1058.953, 101.1972
1059.435, 101.9675
1059.917, 102.4478
1060.400, 102.8063
1060.882, 102.7609
1061.364, 103.0735
1061.846, 104.4217
1062.328, 105.8147
1062.810, 106.3856
1063.292, 106.6005
1063.774, 107.3021
1064.256, 108.5252
1064.739, 109.4613
1065.221, 109.6100
1065.703, 109.7940
1066.185, 110.5754
1066.667, 111.2782
1067.149, 110.9872
1067.631, 110.5513
1068.113, 111.3548
1068.595, 113.3689
1069.078, 115.2725
1069.560, 116.7667
1070.042, 117.7506
1070.524, 117.7599
1071.006, 117.6972
1071.488, 118.0948
1071.970, 118.8797
1072.452, 120.0621
1072.935, 121.5054
1073.417, 122.7545
1073.899, 123.7030
1074.381, 124.3102
1074.863, 123.8978
1075.345, 123.8531
1075.827, 125.7821
1076.309, 128.1704
1076.792, 128.8968
1077.274, 128.2475
1077.756, 128.0942
1078.238, 129.0572
1078.720, 130.3668
1079.202, 132.0262
1079.684, 133.5037
1080.166, 134.3830
1080.648, 134.9711
1081.130, 135.4520
1081.613, 135.9848
1082.095, 136.9219
1082.577, 138.4075
1083.059, 139.8379
1083.541, 140.9176
1084.023, 141.9197
1084.505, 142.9753
1084.987, 144.0517
1085.469, 145.1940
1085.952, 146.3062
1086.434, 147.0760
1086.916, 147.4215
1087.398, 148.1105
1087.880, 150.1990
1088.362, 151.7534
1088.844, 151.2557
1089.326, 150.3760
1089.809, 150.5127
1090.291, 151.3487
1090.773, 152.1348
1091.255, 152.7443
1091.737, 153.4734
1092.219, 154.7242
1092.701, 155.7044
1093.183, 155.5956
1093.666, 155.6385
1094.148, 157.0276
1094.630, 158.9810
1095.112, 160.2790
1095.594, 160.8678
1096.076, 161.5577
1096.558, 162.5854
1097.040, 163.7363
1097.522, 165.2948
1098.005, 166.5580
1098.487, 166.7582
1098.969, 166.6937
1099.451, 167.2799
1099.933, 168.4895
1100.415, 169.8396
1100.897, 171.2800
1101.379, 172.6831
1101.861, 174.1016
1102.344, 175.3567
1102.826, 176.0182
1103.308, 176.7933
1103.790, 178.8734
1104.272, 181.5195
1104.754, 182.4386
1105.236, 180.8037
1105.718, 180.3022
1106.201, 182.4710
1106.683, 184.6396
1107.165, 185.8835
1107.647, 187.0348
1108.129, 188.9491
1108.611, 191.0782
1109.093, 192.1321
1109.575, 191.9038
1110.057, 192.6743
1110.540, 195.7349
1111.022, 198.1780
1111.504, 199.1771
1111.986, 199.9281
1112.468, 200.9133
1112.950, 202.0668
1113.432, 203.3225
1113.914, 204.6705
1114.396, 206.0244
1114.879, 207.4286
1115.361, 208.7646
1115.843, 210.0288
1116.325, 211.2054
1116.807, 211.8186
1117.289, 212.8668
1117.771, 215.7789
1118.253, 219.8479
1118.736, 222.2438
1119.218, 222.2825
1119.700, 222.8837
1120.182, 224.1276
1120.664, 225.8188
1121.146, 228.2236
1121.628, 230.5052
1122.110, 231.9262
1122.593, 233.9792
1123.075, 235.6991
1123.557, 237.0869
1124.039, 238.9536
1124.521, 240.0499
1125.003, 241.2939
1125.485, 242.7544
1125.967, 244.6174
1126.449, 247.0630
1126.932, 249.8006
1127.414, 252.5228
1127.896, 255.1569
1128.378, 257.0604
1128.860, 258.0903
1129.342, 259.8793
1129.824, 262.6369
1130.306, 265.4099
1130.788, 267.8592
1131.271, 270.0577
1131.753, 272.0005
1132.235, 273.8474
1132.717, 275.9692
1133.199, 278.3568
1133.681, 281.0757
1134.163, 284.1024
1134.645, 286.5782
1135.128, 288.3180
1135.610, 290.1869
1136.092, 292.7437
1136.574, 295.7058
1137.056, 298.8492
1137.538, 301.9987
1138.020, 304.3090
1138.502, 306.0892
1138.984, 308.6740
1139.467, 312.1512
1139.949, 315.8231
1140.431, 319.3969
1140.913, 322.7924
1141.395, 325.9222
1141.877, 328.8608
1142.359, 331.4438
1142.841, 334.0770
1143.323, 337.6691
1143.806, 342.0124
1144.288, 346.5225
1144.770, 350.9329
1145.252, 354.7388
1145.734, 357.4093
1146.216, 360.4607
1146.698, 366.0579
1147.180, 372.1943
1147.663, 376.4933
1148.145, 379.7608
1148.627, 383.1771
1149.109, 387.0280
1149.591, 391.4559
1150.073, 396.5525
1150.555, 401.7261
1151.037, 406.4643
1151.520, 411.4137
1152.002, 417.3318
1152.484, 423.3542
1152.966, 428.7867
1153.448, 433.5980
1153.930, 437.4727
1154.412, 440.6045
1154.894, 444.8022
1155.376, 451.3088
1155.859, 457.5618
1156.341, 462.6909
1156.823, 467.4952
1157.305, 472.3609
1157.787, 477.1460
1158.269, 481.6422
1158.751, 485.9572
1159.233, 490.3573
1159.715, 494.7900
1160.198, 499.7174
1160.680, 505.9077
1161.162, 511.5034
1161.644, 515.5075
1162.126, 519.7631
1162.608, 525.5312
1163.090, 531.9586
1163.572, 537.6845
1164.055, 542.8071
1164.537, 548.6360
1165.019, 555.1270
1165.501, 562.6656
1165.983, 571.8645
1166.465, 579.9804
1166.947, 585.6042
1167.429, 591.0646
1167.911, 598.3945
1168.394, 607.1141
1168.876, 616.4142
1169.358, 626.2574
1169.840, 635.0076
1170.322, 642.6250
1170.804, 650.0949
1171.286, 657.6097
1171.768, 665.8381
1172.250, 675.1988
1172.733, 685.0436
1173.215, 694.7387
1173.697, 704.1484
1174.179, 712.3310
1174.661, 719.9186
1175.143, 729.1673
1175.625, 739.9440
1176.107, 751.3721
1176.590, 762.9602
1177.072, 773.2865
1177.554, 781.1961
1178.036, 789.0829
1178.518, 799.7268
1179.000, 811.7012
1179.482, 823.6785
1179.964, 835.3038
1180.447, 845.7498
1180.929, 855.5594
1181.411, 866.3271
1181.893, 878.5315
1182.375, 891.4139
1182.857, 905.5468
1183.339, 918.9192
1183.821, 929.4817
1184.303, 939.7846
1184.786, 952.3621
1185.268, 965.6620
1185.750, 977.0719
1186.232, 986.7927
1186.714, 997.0290
1187.196, 1007.958
1187.678, 1020.142
1188.160, 1034.436
1188.642, 1048.827
1189.125, 1062.871
1189.607, 1076.552
1190.089, 1089.550
1190.571, 1102.374
1191.053, 1115.876
1191.535, 1130.030
1192.017, 1143.978
1192.499, 1157.653
1192.982, 1171.547
1193.464, 1186.056
1193.946, 1199.615
1194.428, 1211.504
1194.910, 1222.772
1195.392, 1234.158
1195.874, 1245.844
1196.356, 1258.159
1196.839, 1271.087
1197.321, 1284.648
1197.803, 1298.716
1198.285, 1312.599
1198.767, 1326.109
1199.249, 1339.309
1199.731, 1352.204
1200.213, 1364.386
1200.695, 1374.968
1201.177, 1385.466
1201.660, 1399.527
1202.142, 1414.893
1202.624, 1426.708
1203.106, 1436.231
1203.588, 1447.314
1204.070, 1460.291
1204.552, 1472.601
1205.034, 1483.066
1205.517, 1493.450
1205.999, 1505.420
1206.481, 1517.181
1206.963, 1526.617
1207.445, 1535.905
1207.927, 1548.441
1208.409, 1561.860
1208.891, 1570.992
1209.374, 1575.821
1209.856, 1582.509
1210.338, 1593.205
1210.820, 1603.974
1211.302, 1615.217
1211.784, 1625.074
1212.266, 1632.230
1212.748, 1638.422
1213.230, 1644.729
1213.713, 1650.976
1214.195, 1656.874
1214.677, 1662.416
1215.159, 1667.661
1215.641, 1672.607
1216.123, 1677.464
1216.605, 1682.398
1217.087, 1686.316
1217.569, 1688.597
1218.052, 1691.372
1218.534, 1696.680
1219.016, 1702.779
1219.498, 1706.264
1219.980, 1707.411
1220.462, 1706.604
1220.944, 1704.536
1221.426, 1704.350
1221.909, 1706.066
1222.391, 1707.421
1222.873, 1707.559
1223.355, 1707.322
1223.837, 1707.482
1224.319, 1707.229
1224.801, 1705.374
1225.283, 1702.968
1225.766, 1701.557
1226.248, 1700.174
1226.730, 1697.473
1227.212, 1693.332
1227.694, 1687.420
1228.176, 1679.365
1228.658, 1673.921
1229.140, 1675.973
1229.622, 1676.047
1230.104, 1670.491
1230.587, 1663.189
1231.069, 1655.261
1231.551, 1647.582
1232.033, 1641.381
1232.515, 1636.090
1232.997, 1629.276
1233.479, 1620.245
1233.961, 1613.526
1234.444, 1609.714
1234.926, 1606.057
1235.408, 1602.426
1235.890, 1596.987
1236.372, 1588.731
1236.854, 1578.699
1237.336, 1567.669
1237.818, 1556.605
1238.301, 1548.221
1238.783, 1541.812
1239.265, 1534.601
1239.747, 1526.628
1240.229, 1518.360
1240.711, 1509.988
1241.193, 1501.832
1241.675, 1494.018
1242.157, 1486.007
1242.640, 1477.279
1243.122, 1468.284
1243.604, 1459.047
1244.086, 1449.953
1244.568, 1440.866
1245.050, 1432.470
1245.532, 1426.670
1246.014, 1422.510
1246.496, 1415.641
1246.979, 1404.051
1247.461, 1395.387
1247.943, 1394.520
1248.425, 1391.154
1248.907, 1381.032
1249.389, 1371.392
1249.871, 1366.103
1250.353, 1362.048
1250.836, 1355.612
1251.318, 1347.720
1251.800, 1341.844
1252.282, 1338.162
1252.764, 1333.865
1253.246, 1328.952
1253.728, 1323.151
1254.210, 1316.494
1254.693, 1311.321
1255.175, 1308.686
1255.657, 1307.124
1256.139, 1305.462
1256.621, 1303.510
1257.103, 1300.925
1257.585, 1297.896
1258.067, 1294.408
1258.549, 1290.896
1259.031, 1288.138
1259.514, 1286.064
1259.996, 1283.967
1260.478, 1281.650
1260.960, 1280.166
1261.442, 1280.949
1261.924, 1281.208
1262.406, 1279.279
1262.888, 1277.450
1263.371, 1276.918
1263.853, 1277.092
1264.335, 1277.385
1264.817, 1277.861
1265.299, 1278.633
1265.781, 1279.661
1266.263, 1281.831
1266.745, 1283.422
1267.228, 1285.576
1267.710, 1288.734
1268.192, 1290.828
1268.674, 1295.553
1269.156, 1299.701
1269.638, 1300.608
1270.120, 1300.347
1270.602, 1301.937
1271.084, 1305.004
1271.567, 1309.177
1272.049, 1313.989
1272.531, 1318.468
1273.013, 1322.648
1273.495, 1327.029
1273.977, 1331.652
1274.459, 1335.902
1274.941, 1339.301
1275.423, 1343.173
1275.906, 1348.248
1276.388, 1353.874
1276.870, 1359.930
1277.352, 1366.289
1277.834, 1373.698
1278.316, 1380.845
1278.798, 1384.770
1279.280, 1392.745
1279.763, 1399.123
1280.245, 1404.852
1280.727, 1413.002
1281.209, 1415.967
1281.691, 1421.811
1282.173, 1432.393
1282.655, 1442.907
1283.137, 1451.017
1283.620, 1457.668
1284.102, 1463.315
1284.584, 1468.977
1285.066, 1476.276
##END=



