##NAMES=Polylithionite
##RRUFFID=R060225
##IDEAL CHEMISTRY=KLi_2_AlSi_4_O_10_F_2_
##LOCALITY=Mont Saint-Hilaire, Rouville County, Quebec, Canada
##OWNER=RRUFF
##SOURCE=Royal Ontario Museum
##DESCRIPTION=Tan colored hexagonal shaped mica
##STATUS=The identification of this mineral is confirmed by single-crystal X-ray diffraction and chemical analysis.
##URL=rruff.info/R060225
##MEASURED CHEMISTRY=(K_0.95_[box]_0.05_)_Σ=1_(Li_1.95_Mg_0.04_Mn_0.01_)_Σ=2_(Al_0.97_Fe^3+^_0.03_)_Σ=1_Si_4.00_O_10_(F_1.40_(OH)_0.60_)_Σ=2_
91.82715, 260.5135
92.30927, 267.2980
92.79138, 266.9269
93.27350, 257.1082
93.75562, 243.5816
94.23773, 228.4128
94.71985, 212.3872
95.20197, 197.6547
95.68408, 185.0122
96.16620, 174.0197
96.64832, 164.3773
97.13043, 156.0789
97.61255, 148.8371
98.09467, 142.4869
98.57678, 137.4115
99.05890, 131.7610
99.54102, 124.8934
100.0231, 117.8665
100.5052, 111.6018
100.9874, 106.4830
101.4695, 102.3792
101.9516, 98.90800
102.4337, 96.15820
102.9158, 93.93864
103.3979, 92.46938
103.8801, 91.49424
104.3622, 90.60711
104.8443, 89.49413
105.3264, 88.11646
105.8085, 86.76479
106.2906, 85.72058
106.7728, 84.45381
107.2549, 82.47302
107.7370, 79.79641
108.2191, 77.05003
108.7012, 74.90341
109.1833, 73.37734
109.6655, 72.20045
110.1476, 71.52498
110.6297, 71.13488
111.1118, 70.68135
111.5939, 70.04278
112.0760, 69.45554
112.5582, 69.18519
113.0403, 69.20415
113.5224, 69.30206
114.0045, 69.41954
114.4866, 69.54912
114.9688, 69.52850
115.4509, 69.25308
115.9330, 68.85251
116.4151, 68.35852
116.8972, 67.78361
117.3793, 67.20695
117.8615, 66.77361
118.3436, 66.64050
118.8257, 66.25240
119.3078, 65.15612
119.7899, 64.02827
120.2720, 63.47611
120.7542, 63.73382
121.2363, 64.48333
121.7184, 64.81758
122.2005, 64.43849
122.6826, 63.89551
123.1647, 63.18879
123.6468, 62.34245
124.1290, 61.33276
124.6111, 60.09989
125.0932, 58.71737
125.5753, 57.81740
126.0574, 57.71632
126.5395, 57.65046
127.0217, 57.28362
127.5038, 56.65629
127.9859, 56.03019
128.4680, 55.60096
128.9501, 55.33889
129.4323, 55.01328
129.9144, 54.57189
130.3965, 54.08407
130.8786, 53.63679
131.3607, 53.25134
131.8428, 52.81945
132.3250, 52.15239
132.8071, 51.37488
133.2892, 50.73597
133.7713, 50.46363
134.2534, 50.43105
134.7355, 50.15794
135.2177, 49.38684
135.6998, 48.72917
136.1819, 48.51907
136.6640, 48.65520
137.1461, 48.88066
137.6282, 49.03465
138.1104, 49.12319
138.5925, 49.06872
139.0746, 48.89716
139.5567, 48.55215
140.0388, 47.89175
140.5209, 46.98115
141.0031, 46.04627
141.4852, 45.34955
141.9673, 44.94548
142.4494, 44.67759
142.9315, 44.66716
143.4136, 44.68443
143.8958, 44.53916
144.3779, 44.19875
144.8600, 43.81612
145.3421, 43.64579
145.8242, 43.85604
146.3063, 43.97528
146.7885, 43.98319
147.2706, 43.89248
147.7527, 43.66462
148.2348, 43.25319
148.7169, 42.82148
149.1990, 42.77860
149.6812, 43.24792
150.1633, 43.58217
150.6454, 43.45892
151.1275, 42.99306
151.6096, 42.53988
152.0917, 42.20558
152.5739, 41.97773
153.0560, 41.80198
153.5381, 41.67730
154.0202, 41.60924
154.5023, 41.65378
154.9844, 41.82001
155.4665, 41.89098
155.9487, 41.69006
156.4308, 41.40184
156.9129, 41.12579
157.3950, 40.86294
157.8771, 40.71618
158.3592, 40.92971
158.8414, 41.76318
159.3235, 42.28391
159.8056, 41.99916
160.2877, 41.46992
160.7698, 41.19350
161.2519, 41.39409
161.7341, 41.90937
162.2162, 42.26808
162.6983, 42.41325
163.1804, 42.45292
163.6625, 42.36525
164.1446, 42.20080
164.6268, 41.98006
165.1089, 41.70103
165.5910, 41.41138
166.0731, 41.42706
166.5552, 42.21760
167.0373, 42.80249
167.5195, 42.81115
168.0016, 42.46910
168.4837, 42.25312
168.9658, 42.50352
169.4479, 43.17162
169.9300, 43.48752
170.4122, 43.24109
170.8943, 42.92583
171.3764, 42.75776
171.8585, 42.72008
172.3406, 42.68646
172.8227, 42.56497
173.3049, 42.36307
173.7870, 42.18758
174.2691, 42.03742
174.7512, 41.91285
175.2333, 41.82136
175.7154, 41.76361
176.1976, 41.71572
176.6797, 41.67146
177.1618, 41.62353
177.6439, 41.55444
178.1260, 41.47091
178.6081, 41.36004
179.0903, 41.21336
179.5724, 41.04670
180.0545, 40.79372
180.5366, 40.33305
181.0187, 39.77129
181.5008, 39.28450
181.9830, 38.99645
182.4651, 38.83626
182.9472, 38.57202
183.4293, 38.13133
183.9114, 37.69626
184.3935, 37.36434
184.8757, 37.09142
185.3578, 36.79010
185.8399, 36.37197
186.3220, 35.86158
186.8041, 35.52930
187.2862, 35.44933
187.7684, 35.49536
188.2505, 35.81428
188.7326, 36.23382
189.2147, 36.41243
189.6968, 36.01933
190.1789, 35.01802
190.6611, 34.42266
191.1432, 34.61634
191.6253, 34.83848
192.1074, 34.78266
192.5895, 34.53413
193.0716, 34.38798
193.5538, 34.63160
194.0359, 35.34651
194.5180, 35.76524
195.0001, 35.81342
195.4822, 35.71334
195.9643, 35.46756
196.4465, 35.13594
196.9286, 34.89626
197.4107, 34.95811
197.8928, 35.38996
198.3749, 35.44975
198.8570, 34.77538
199.3392, 34.04270
199.8213, 33.75808
200.3034, 33.93443
200.7855, 34.14264
201.2676, 33.92935
201.7497, 33.27327
202.2319, 32.96650
202.7140, 33.36914
203.1961, 33.94111
203.6782, 34.16610
204.1603, 33.98177
204.6424, 33.66893
205.1246, 33.41022
205.6067, 33.21437
206.0888, 33.14740
206.5709, 33.32190
207.0530, 33.59519
207.5351, 33.77195
208.0173, 33.82633
208.4994, 33.83660
208.9815, 33.87349
209.4636, 33.91497
209.9457, 33.90541
210.4278, 33.78130
210.9100, 33.59724
211.3921, 33.47876
211.8742, 33.45119
212.3563, 33.44114
212.8384, 33.37428
213.3205, 33.29223
213.8027, 33.27283
214.2848, 33.33828
214.7669, 33.49737
215.2490, 33.82188
215.7311, 34.52762
216.2132, 35.05150
216.6954, 35.11591
217.1775, 34.87092
217.6596, 34.57758
218.1417, 34.40510
218.6238, 34.31506
219.1059, 34.05596
219.5881, 33.32011
220.0702, 32.80957
220.5523, 32.85366
221.0344, 33.23359
221.5165, 33.57803
221.9986, 33.61420
222.4808, 33.39925
222.9629, 33.48024
223.4450, 34.39338
223.9271, 35.04091
224.4092, 34.98005
224.8913, 34.51744
225.3735, 34.18624
225.8556, 34.35275
226.3377, 34.96539
226.8198, 35.45360
227.3019, 35.73989
227.7840, 35.97332
228.2662, 36.17025
228.7483, 36.33540
229.2304, 36.44701
229.7125, 36.47805
230.1946, 36.45219
230.6767, 36.63533
231.1589, 37.36112
231.6410, 37.91530
232.1231, 38.00436
232.6052, 37.79686
233.0873, 37.64814
233.5694, 37.78952
234.0516, 38.15644
234.5337, 38.26787
235.0158, 37.84533
235.4979, 37.52572
235.9800, 37.54737
236.4621, 37.81411
236.9443, 38.12738
237.4264, 38.39872
237.9085, 38.61165
238.3906, 38.68683
238.8727, 38.55545
239.3548, 38.39607
239.8370, 38.14695
240.3191, 37.90334
240.8012, 37.94294
241.2833, 38.47325
241.7654, 39.30065
242.2475, 39.85468
242.7297, 40.07643
243.2118, 40.18046
243.6939, 40.31156
244.1760, 40.40488
244.6581, 40.22725
245.1402, 39.59440
245.6224, 38.73820
246.1045, 38.16112
246.5866, 37.99694
247.0687, 37.72346
247.5508, 36.94666
248.0329, 35.81474
248.5151, 34.84875
248.9972, 34.23351
249.4793, 33.85534
249.9614, 33.51339
250.4435, 33.19349
250.9256, 32.96896
251.4078, 32.96899
251.8899, 33.12630
252.3720, 33.13312
252.8541, 32.85715
253.3362, 32.46505
253.8183, 32.13367
254.3005, 31.86126
254.7826, 31.62706
255.2647, 31.37673
255.7468, 31.13876
256.2289, 31.09444
256.7110, 31.44508
257.1931, 31.76896
257.6753, 31.66871
258.1574, 31.20609
258.6395, 30.77468
259.1216, 30.67687
259.6037, 30.84553
260.0858, 30.88441
260.5680, 30.62505
261.0501, 30.41921
261.5322, 30.60166
262.0143, 31.03454
262.4964, 31.29912
262.9785, 30.98833
263.4607, 30.22638
263.9428, 29.75270
264.4249, 29.72002
264.9070, 29.78152
265.3891, 29.78109
265.8712, 29.73705
266.3534, 29.67888
266.8355, 29.57074
267.3176, 29.46691
267.7997, 29.66382
268.2818, 30.56187
268.7639, 31.12795
269.2461, 30.76833
269.7282, 29.93696
270.2103, 29.29858
270.6924, 29.22180
271.1745, 29.55252
271.6566, 29.80559
272.1388, 29.98726
272.6209, 30.06416
273.1030, 29.97349
273.5851, 29.81284
274.0672, 29.69164
274.5493, 29.65878
275.0315, 29.68833
275.5136, 29.70643
275.9957, 29.64897
276.4778, 29.71097
276.9599, 30.09501
277.4420, 30.50741
277.9242, 30.63468
278.4063, 30.36940
278.8884, 29.93252
279.3705, 29.72446
279.8526, 29.79252
280.3347, 30.01487
280.8169, 30.54269
281.2990, 31.08700
281.7811, 31.46205
282.2632, 31.61279
282.7453, 31.56468
283.2274, 31.29226
283.7096, 30.58074
284.1917, 30.19583
284.6738, 30.38995
285.1559, 30.68482
285.6380, 30.79470
286.1201, 30.69390
286.6023, 30.54795
287.0844, 30.55533
287.5665, 30.77134
288.0486, 30.92040
288.5307, 30.97091
289.0128, 30.98860
289.4950, 30.99508
289.9771, 30.99398
290.4592, 30.97980
290.9413, 30.94266
291.4234, 30.87805
291.9055, 30.85102
292.3877, 30.89913
292.8698, 30.94670
293.3519, 30.97125
293.8340, 30.97607
294.3161, 30.97618
294.7982, 30.98468
295.2804, 30.99816
295.7625, 30.97082
296.2446, 30.98731
296.7267, 30.86456
297.2088, 30.47025
297.6909, 29.93256
298.1731, 29.41384
298.6552, 28.99862
299.1373, 28.70242
299.6194, 28.59362
300.1015, 28.93528
300.5836, 29.15406
301.0658, 29.07316
301.5479, 28.90049
302.0300, 28.90792
302.5121, 29.19528
302.9942, 29.57724
303.4763, 29.65805
303.9585, 29.11937
304.4406, 28.74614
304.9227, 28.67932
305.4048, 28.68637
305.8869, 28.53127
306.3690, 28.18245
306.8512, 27.84462
307.3333, 27.82342
307.8154, 28.30624
308.2975, 28.61546
308.7796, 28.70244
309.2617, 28.69024
309.7439, 28.64002
310.2260, 28.56246
310.7081, 28.44128
311.1902, 28.25425
311.6723, 27.98505
312.1544, 27.75981
312.6366, 27.60427
313.1187, 27.45923
313.6008, 27.26148
314.0829, 27.05115
314.5650, 26.92636
315.0471, 26.96388
315.5293, 27.15257
316.0114, 27.34769
316.4935, 27.63688
316.9756, 27.83578
317.4577, 27.87475
317.9398, 27.80431
318.4220, 27.69424
318.9041, 27.57891
319.3862, 27.45851
319.8683, 27.32935
320.3504, 27.06358
320.8326, 26.96520
321.3147, 27.20327
321.7968, 27.53684
322.2789, 27.74179
322.7610, 27.74155
323.2431, 27.59990
323.7253, 27.41635
324.2074, 27.14282
324.6895, 26.92272
325.1716, 26.66886
325.6537, 26.52013
326.1358, 26.63860
326.6180, 27.00125
327.1001, 27.40183
327.5822, 27.62943
328.0643, 27.67904
328.5464, 27.56264
329.0285, 27.03205
329.5107, 26.59399
329.9928, 26.54200
330.4749, 26.77296
330.9570, 26.98844
331.4391, 26.96066
331.9212, 26.70859
332.4034, 26.51351
332.8855, 26.29443
333.3676, 26.22792
333.8497, 26.48521
334.3318, 26.88321
334.8139, 27.16150
335.2961, 27.18660
335.7782, 27.04487
336.2603, 26.99721
336.7424, 27.23923
337.2245, 27.27106
337.7066, 26.83802
338.1888, 26.32116
338.6709, 26.06675
339.1530, 26.16295
339.6351, 26.44408
340.1172, 26.69568
340.5993, 26.99549
341.0815, 27.05124
341.5636, 26.63937
342.0457, 26.20348
342.5278, 25.99352
343.0099, 26.00486
343.4920, 26.07865
343.9742, 26.06548
344.4563, 25.95785
344.9384, 25.90343
345.4205, 26.04882
345.9026, 26.10203
346.3847, 25.85380
346.8669, 25.47058
347.3490, 25.27178
347.8311, 25.47966
348.3132, 25.96297
348.7953, 26.18046
349.2774, 25.91671
349.7596, 25.71528
350.2417, 25.68293
350.7238, 25.75057
351.2059, 25.86910
351.6880, 26.01990
352.1701, 26.16998
352.6523, 26.26279
353.1344, 26.28554
353.6165, 26.28856
354.0986, 26.29518
354.5807, 26.27055
355.0628, 26.16921
355.5450, 26.00170
356.0271, 25.83961
356.5092, 25.76296
356.9913, 25.77616
357.4734, 25.75426
357.9555, 25.63606
358.4377, 25.55291
358.9198, 25.51557
359.4019, 25.55264
359.8840, 25.74239
360.3661, 26.21375
360.8482, 26.80838
361.3304, 27.02821
361.8125, 26.74572
362.2946, 26.35660
362.7767, 25.93662
363.2588, 25.51708
363.7409, 25.08741
364.2231, 24.61921
364.7052, 24.28361
365.1873, 24.41120
365.6694, 25.07680
366.1515, 25.51000
366.6336, 25.36444
367.1158, 25.05588
367.5979, 24.90715
368.0800, 24.91990
368.5621, 24.87213
369.0442, 24.49152
369.5263, 23.88107
370.0085, 23.55775
370.4906, 23.65249
370.9727, 23.87875
371.4548, 24.09456
371.9369, 24.28719
372.4190, 24.42829
372.9012, 24.55623
373.3833, 24.59452
373.8654, 24.32704
374.3475, 23.69815
374.8296, 23.25738
375.3117, 23.42111
375.7939, 23.87418
376.2760, 24.15257
376.7581, 24.19316
377.2402, 24.11670
377.7223, 23.94613
378.2044, 23.71369
378.6866, 23.55466
379.1687, 23.49715
379.6508, 23.54324
380.1329, 23.75442
380.6150, 24.12630
381.0971, 24.39216
381.5793, 24.40257
382.0614, 24.28440
382.5435, 24.18977
383.0256, 24.13292
383.5077, 24.14960
383.9898, 24.30440
384.4720, 24.57250
384.9541, 24.76174
385.4362, 24.76373
385.9183, 24.77803
386.4004, 24.96518
386.8825, 25.27465
387.3647, 25.53765
387.8468, 25.67707
388.3289, 25.71579
388.8110, 25.69224
389.2931, 25.55228
389.7752, 25.47659
390.2574, 25.48529
390.7395, 25.58500
391.2216, 25.81357
391.7037, 26.17325
392.1858, 26.57866
392.6679, 26.95223
393.1501, 27.31716
393.6322, 27.46584
394.1143, 27.18003
394.5964, 26.89545
395.0785, 26.84494
395.5606, 27.00534
396.0428, 27.26353
396.5249, 27.55897
397.0070, 27.87569
397.4891, 28.13681
397.9712, 28.41702
398.4533, 28.54244
398.9355, 28.25644
399.4176, 27.91459
399.8997, 27.97370
400.3818, 28.54992
400.8639, 29.29098
401.3460, 29.65952
401.8282, 29.51965
402.3103, 29.37121
402.7924, 29.10752
403.2745, 28.92945
403.7566, 29.01959
404.2387, 29.29828
404.7209, 29.51606
405.2030, 29.46294
405.6851, 29.18756
406.1672, 29.07235
406.6493, 29.26470
407.1314, 29.41065
407.6136, 29.45500
408.0957, 29.40461
408.5778, 29.25503
409.0599, 29.00403
409.5420, 28.69619
410.0241, 28.37720
410.5063, 28.03550
410.9884, 27.75270
411.4705, 27.60200
411.9526, 27.46533
412.4347, 27.27884
412.9168, 27.04584
413.3990, 26.80120
413.8811, 26.55281
414.3632, 26.31121
414.8453, 26.12748
415.3274, 26.03118
415.8095, 25.91967
416.2917, 25.67781
416.7738, 25.40419
417.2559, 25.26132
417.7380, 25.36735
418.2201, 25.44455
418.7022, 25.14338
419.1844, 24.51170
419.6665, 24.01425
420.1486, 23.81978
420.6307, 23.77844
421.1128, 23.70592
421.5949, 23.60136
422.0771, 23.51986
422.5592, 23.48413
423.0413, 23.48132
423.5234, 23.50266
424.0055, 23.54735
424.4876, 23.60100
424.9698, 23.70690
425.4519, 23.81100
425.9340, 23.64977
426.4161, 22.92384
426.8982, 22.25780
427.3803, 21.92921
427.8625, 21.86408
428.3446, 21.95613
428.8267, 22.18312
429.3088, 22.42057
429.7909, 22.44713
430.2730, 22.14138
430.7552, 21.88358
431.2373, 21.65450
431.7194, 21.49174
432.2015, 21.46004
432.6836, 21.53514
433.1657, 21.60026
433.6479, 21.54881
434.1300, 21.39981
434.6121, 21.41196
435.0942, 21.82732
435.5763, 22.12588
436.0584, 22.16156
436.5406, 22.06471
437.0227, 21.98274
437.5048, 21.96770
437.9869, 21.97939
438.4690, 21.94125
438.9511, 21.80806
439.4333, 21.77329
439.9154, 21.99728
440.3975, 22.17923
440.8796, 22.14955
441.3617, 21.95892
441.8438, 21.76637
442.3260, 21.67704
442.8081, 21.66207
443.2902, 21.63220
443.7723, 21.58871
444.2544, 21.52632
444.7365, 21.47421
445.2187, 21.38589
445.7008, 21.15827
446.1829, 20.75662
446.6650, 20.45182
447.1471, 20.56019
447.6292, 21.00275
448.1114, 21.34403
448.5935, 21.50698
449.0756, 21.58355
449.5577, 21.59743
450.0398, 21.57948
450.5219, 21.63275
451.0041, 21.93179
451.4862, 22.20688
451.9683, 22.10541
452.4504, 21.69094
452.9325, 21.42669
453.4146, 21.58231
453.8968, 21.93087
454.3789, 21.93432
454.8610, 21.46525
455.3431, 21.13526
455.8252, 21.15329
456.3073, 21.34042
456.7895, 21.54381
457.2716, 21.72764
457.7537, 21.85276
458.2358, 21.87482
458.7179, 21.79374
459.2000, 21.75825
459.6822, 21.76796
460.1643, 21.81514
460.6464, 21.94066
461.1285, 22.08860
461.6106, 22.17608
462.0927, 22.17345
462.5748, 22.12602
463.0569, 22.10852
463.5391, 22.13264
464.0212, 22.15553
464.5033, 22.09022
464.9854, 22.10365
465.4675, 22.33540
465.9496, 22.71560
466.4318, 23.07557
466.9139, 23.32535
467.3960, 23.45537
467.8781, 23.41739
468.3602, 23.15041
468.8423, 22.87332
469.3245, 22.60453
469.8066, 22.37716
470.2887, 22.25127
470.7708, 22.23124
471.2529, 22.19053
471.7350, 21.95788
472.2172, 21.61309
472.6993, 21.52598
473.1814, 21.84628
473.6635, 22.07493
474.1456, 21.67307
474.6277, 20.92806
475.1099, 20.49030
475.5920, 20.60574
476.0741, 20.86762
476.5562, 21.06791
477.0383, 21.19409
477.5204, 21.18549
478.0026, 20.99878
478.4847, 20.76201
478.9668, 20.67879
479.4489, 20.80769
479.9310, 20.78904
480.4131, 20.38324
480.8953, 20.01016
481.3774, 20.01396
481.8595, 20.31335
482.3416, 20.61438
482.8237, 20.75309
483.3058, 20.74240
483.7880, 20.61970
484.2701, 20.16808
484.7522, 19.92335
485.2343, 20.07284
485.7164, 20.30366
486.1985, 20.35125
486.6807, 20.20987
487.1628, 20.07368
487.6449, 20.12848
488.1270, 20.35789
488.6091, 20.53351
489.0912, 20.69598
489.5734, 20.73031
490.0555, 20.52158
490.5376, 20.22377
491.0197, 20.00809
491.5018, 19.92271
491.9839, 19.89849
492.4661, 19.88339
492.9482, 19.87439
493.4303, 19.83804
493.9124, 19.74758
494.3945, 19.67175
494.8766, 19.64016
495.3588, 19.66236
495.8409, 19.78810
496.3230, 20.17370
496.8051, 20.53269
497.2872, 20.62676
497.7693, 20.49197
498.2515, 20.21886
498.7336, 19.79878
499.2157, 19.37698
499.6978, 19.18670
500.1799, 19.27133
500.6620, 19.43373
501.1442, 19.84358
501.6263, 20.17839
502.1084, 20.15014
502.5905, 19.83616
503.0726, 19.51707
503.5547, 19.36097
504.0369, 19.33386
504.5190, 19.31648
505.0011, 19.28844
505.4832, 19.30618
505.9653, 19.35271
506.4474, 19.45563
506.9296, 19.73931
507.4117, 20.13624
507.8938, 20.34289
508.3759, 19.98659
508.8580, 19.22803
509.3401, 19.09244
509.8223, 19.91496
510.3044, 20.62424
510.7865, 20.77309
511.2686, 20.65296
511.7507, 20.49389
512.2328, 20.33021
512.7150, 20.20905
513.1971, 20.17542
513.6792, 20.21130
514.1613, 20.27300
514.6434, 20.36254
515.1255, 20.44063
515.6077, 20.43800
516.0898, 20.39985
516.5719, 20.50853
517.0540, 20.93816
517.5361, 21.31196
518.0182, 21.43398
518.5004, 21.39492
518.9825, 21.31434
519.4646, 21.22782
519.9467, 21.19080
520.4288, 21.26768
520.9109, 21.46380
521.3931, 21.74917
521.8752, 22.32097
522.3573, 22.75627
522.8394, 22.81672
523.3215, 22.67179
523.8036, 22.56904
524.2858, 22.60893
524.7679, 22.73571
525.2500, 22.85465
525.7321, 22.94929
526.2142, 23.12090
526.6964, 23.46399
527.1785, 23.78986
527.6606, 23.99581
528.1427, 24.11898
528.6248, 24.25022
529.1069, 24.43786
529.5891, 24.63260
530.0712, 24.73490
530.5533, 24.75486
531.0354, 24.84865
531.5175, 25.01077
531.9996, 25.33772
532.4818, 26.11013
532.9639, 27.28059
533.4460, 28.14424
533.9281, 28.19883
534.4102, 28.19464
534.8923, 28.80289
535.3745, 29.87550
535.8566, 30.89135
536.3387, 31.61495
536.8208, 32.08529
537.3029, 32.35143
537.7850, 32.19610
538.2672, 32.30148
538.7493, 32.98533
539.2314, 33.62135
539.7135, 33.78642
540.1956, 33.59872
540.6777, 33.41602
541.1599, 33.43765
541.6420, 33.65134
542.1241, 34.07687
542.6062, 34.82997
543.0883, 35.42755
543.5704, 35.63932
544.0526, 35.77961
544.5347, 36.07481
545.0168, 36.49015
545.4989, 36.80436
545.9810, 36.86846
546.4631, 36.78330
546.9453, 36.65321
547.4274, 36.48194
547.9095, 36.45241
548.3916, 36.72120
548.8737, 37.06955
549.3558, 37.10667
549.8380, 36.83103
550.3201, 36.41837
550.8022, 35.85833
551.2843, 35.20716
551.7664, 34.41639
552.2485, 33.56039
552.7307, 32.88590
553.2128, 32.54717
553.6949, 32.40832
554.1770, 32.09959
554.6591, 31.67860
555.1412, 30.96116
555.6234, 29.50337
556.1055, 28.16745
556.5876, 27.59739
557.0697, 27.62258
557.5518, 27.61180
558.0339, 27.16610
558.5161, 26.45165
558.9982, 25.82301
559.4803, 25.28111
559.9624, 24.84301
560.4445, 24.60807
560.9266, 24.39187
561.4088, 23.99212
561.8909, 23.42758
562.3730, 22.91665
562.8551, 22.50516
563.3372, 22.20980
563.8193, 22.11776
564.3015, 22.18504
564.7836, 22.18397
565.2657, 22.00399
565.7478, 21.73511
566.2299, 21.53307
566.7120, 21.38940
567.1942, 21.35566
567.6763, 21.56287
568.1584, 21.75748
568.6405, 21.80035
569.1226, 21.71183
569.6047, 21.54816
570.0869, 21.33379
570.5690, 21.12105
571.0511, 21.04213
571.5332, 21.15180
572.0153, 21.18076
572.4974, 21.05890
572.9796, 20.89152
573.4617, 20.71738
573.9438, 20.54264
574.4259, 20.37515
574.9080, 20.20743
575.3901, 20.06408
575.8723, 19.95605
576.3544, 19.89116
576.8365, 19.93575
577.3186, 20.13901
577.8007, 20.36370
578.2828, 20.44667
578.7650, 20.37807
579.2471, 20.33705
579.7292, 20.30928
580.2113, 20.32936
580.6934, 20.45391
581.1755, 20.62531
581.6577, 20.76577
582.1398, 20.84494
582.6219, 20.85233
583.1040, 20.74852
583.5861, 20.50230
584.0682, 20.39920
584.5504, 20.68162
585.0325, 20.81070
585.5146, 20.46310
585.9967, 19.94277
586.4788, 19.66208
586.9609, 19.74342
587.4431, 19.90746
587.9252, 19.86827
588.4073, 19.68815
588.8894, 19.63179
589.3715, 19.75464
589.8536, 19.85168
590.3358, 19.72698
590.8179, 19.48427
591.3000, 19.48840
591.7821, 19.93966
592.2642, 20.27379
592.7463, 20.23242
593.2285, 20.02991
593.7106, 19.90686
594.1927, 19.88306
594.6748, 19.82069
595.1569, 19.59336
595.6390, 19.26071
596.1212, 19.15465
596.6033, 19.45592
597.0854, 19.67100
597.5675, 19.76463
598.0496, 19.74457
598.5317, 19.51801
599.0139, 19.15471
599.4960, 18.92969
599.9781, 19.08951
600.4602, 19.44275
600.9423, 19.63339
601.4244, 19.66008
601.9066, 19.62887
602.3887, 19.51711
602.8708, 19.44411
603.3529, 19.68100
603.8350, 20.24210
604.3171, 20.47443
604.7993, 19.97630
605.2814, 19.42109
605.7635, 19.25132
606.2456, 19.34879
606.7277, 19.42713
607.2098, 19.37632
607.6920, 19.26919
608.1741, 19.20965
608.6562, 19.19885
609.1383, 19.23224
609.6204, 19.42782
610.1025, 19.52774
610.5847, 19.36392
611.0668, 19.09397
611.5489, 18.92321
612.0310, 18.90839
612.5131, 18.98553
612.9952, 19.14841
613.4774, 19.35742
613.9595, 19.50702
614.4416, 19.59713
614.9237, 19.53708
615.4058, 19.17336
615.8879, 18.65394
616.3701, 18.45986
616.8522, 18.72532
617.3343, 18.99664
617.8164, 19.12597
618.2985, 19.26575
618.7806, 19.66972
619.2628, 20.23840
619.7449, 20.55900
620.2270, 20.34643
620.7091, 19.79207
621.1912, 19.42607
621.6733, 19.27748
622.1555, 19.23322
622.6376, 19.43392
623.1197, 19.59323
623.6018, 19.50489
624.0839, 19.24634
624.5660, 19.03442
625.0482, 18.93421
625.5303, 18.94074
626.0124, 19.17010
626.4945, 19.51644
626.9766, 19.54346
627.4587, 19.11353
627.9409, 18.66762
628.4230, 18.63700
628.9051, 19.01504
629.3872, 19.33808
629.8693, 19.73575
630.3514, 19.92425
630.8336, 19.69064
631.3157, 19.31286
631.7978, 19.03114
632.2799, 18.90322
632.7620, 18.91480
633.2441, 19.08866
633.7263, 19.37204
634.2084, 19.55206
634.6905, 19.61174
635.1726, 19.63801
635.6547, 19.69291
636.1368, 19.68624
636.6190, 19.46713
637.1011, 19.06023
637.5832, 18.80146
638.0653, 18.89796
638.5474, 19.09302
639.0295, 19.19588
639.5117, 19.22612
639.9938, 19.24879
640.4759, 19.28588
640.9580, 19.31287
641.4401, 19.29324
641.9222, 19.21898
642.4044, 19.17312
642.8865, 19.19355
643.3686, 19.19817
643.8507, 19.11281
644.3328, 19.03468
644.8149, 19.07930
645.2971, 19.26248
645.7792, 19.48890
646.2613, 19.71844
646.7434, 19.92546
647.2255, 20.05049
647.7076, 20.09223
648.1898, 20.02087
648.6719, 19.74825
649.1540, 19.45743
649.6361, 19.52671
650.1182, 20.07765
650.6003, 20.34174
651.0825, 19.92059
651.5646, 19.53452
652.0467, 19.69398
652.5288, 20.15792
653.0109, 20.46851
653.4930, 20.45882
653.9752, 20.27781
654.4573, 20.07170
654.9394, 19.83591
655.4215, 19.80227
655.9036, 20.13217
656.3857, 20.34624
656.8679, 20.02411
657.3500, 19.56693
657.8321, 19.47357
658.3142, 19.83789
658.7963, 20.12451
659.2784, 19.95075
659.7606, 19.67335
660.2427, 19.78218
660.7248, 20.18540
661.2069, 20.35866
661.6890, 20.03124
662.1711, 19.53322
662.6533, 19.48233
663.1354, 20.05609
663.6175, 20.44931
664.0996, 20.67176
664.5817, 20.69849
665.0638, 20.30639
665.5460, 19.79927
666.0281, 19.61516
666.5102, 19.87321
666.9923, 20.22175
667.4744, 20.37597
667.9565, 20.39449
668.4387, 20.43185
668.9208, 20.49772
669.4029, 20.48416
669.8850, 20.30549
670.3671, 20.05684
670.8492, 19.92947
671.3314, 19.93493
671.8135, 20.04492
672.2956, 20.41309
672.7777, 20.73110
673.2598, 20.77030
673.7419, 20.66362
674.2241, 20.65743
674.7062, 20.84081
675.1883, 21.07771
675.6704, 21.20017
676.1525, 21.21994
676.6346, 21.27371
677.1168, 21.40386
677.5989, 21.42173
678.0810, 21.10324
678.5631, 20.69858
679.0452, 20.66480
679.5273, 21.06655
680.0095, 21.47848
680.4916, 21.90265
680.9737, 22.20677
681.4558, 22.18741
681.9379, 21.97756
682.4200, 21.88617
682.9022, 22.03867
683.3843, 22.30827
683.8664, 22.50135
684.3485, 22.60256
684.8306, 22.86259
685.3127, 23.40970
685.7949, 23.88506
686.2770, 24.16607
686.7591, 24.28459
687.2412, 24.17741
687.7233, 23.81654
688.2054, 23.65772
688.6876, 24.03131
689.1697, 24.60714
689.6518, 25.08168
690.1339, 25.45384
690.6160, 25.73944
691.0981, 25.94089
691.5803, 26.20505
692.0624, 26.77893
692.5445, 27.71685
693.0266, 28.47388
693.5087, 28.82956
693.9908, 29.29950
694.4730, 30.09508
694.9551, 31.01464
695.4372, 31.87474
695.9193, 32.64506
696.4014, 33.36684
696.8835, 33.98378
697.3657, 34.61903
697.8478, 35.39676
698.3299, 36.33492
698.8120, 37.56320
699.2941, 39.14311
699.7762, 40.81645
700.2584, 42.23354
700.7405, 43.36630
701.2226, 44.60268
701.7047, 46.07278
702.1868, 47.48086
702.6689, 48.76902
703.1511, 49.97030
703.6332, 51.13740
704.1153, 52.26093
704.5974, 53.29344
705.0795, 54.17599
705.5616, 54.95862
706.0438, 55.65453
706.5259, 56.29062
707.0080, 57.11258
707.4901, 58.24129
707.9722, 59.29494
708.4543, 59.84524
708.9365, 59.90408
709.4186, 60.10057
709.9007, 60.53105
710.3828, 60.96450
710.8649, 61.61547
711.3470, 62.07019
711.8292, 61.89467
712.3113, 61.17124
712.7934, 60.36729
713.2755, 59.82396
713.7576, 59.20651
714.2397, 57.95016
714.7219, 56.12608
715.2040, 54.13110
715.6861, 52.02319
716.1682, 49.90131
716.6503, 47.83640
717.1324, 45.84111
717.6146, 43.93862
718.0967, 42.31755
718.5788, 40.52773
719.0609, 38.13012
719.5430, 35.90289
720.0251, 34.49244
720.5073, 33.70714
720.9894, 32.96179
721.4715, 31.98279
721.9536, 30.92360
722.4357, 29.96616
722.9178, 29.09964
723.4000, 28.28864
723.8821, 27.52181
724.3642, 26.83962
724.8463, 26.25344
725.3284, 25.78086
725.8105, 25.50837
726.2927, 25.58000
726.7748, 25.47946
727.2569, 25.06131
727.7390, 24.58281
728.2211, 24.11416
728.7032, 23.70696
729.1854, 23.43797
729.6675, 23.32894
730.1496, 23.30099
730.6317, 23.32594
731.1138, 23.36592
731.5959, 23.24821
732.0781, 22.95688
732.5602, 22.69989
733.0423, 22.55352
733.5244, 22.49202
734.0065, 22.48727
734.4886, 22.54949
734.9708, 22.61307
735.4529, 22.77387
735.9350, 22.82236
736.4171, 22.61614
736.8992, 22.30155
737.3813, 21.96700
737.8635, 21.67459
738.3456, 21.58549
738.8277, 21.92328
739.3098, 22.43588
739.7919, 22.59503
740.2740, 22.42089
740.7562, 22.17475
741.2383, 21.87797
741.7204, 21.68848
742.2025, 21.80576
742.6846, 22.18562
743.1667, 22.34975
743.6489, 22.05442
744.1310, 21.90167
744.6131, 22.10890
745.0952, 22.35270
745.5773, 22.37040
746.0594, 22.21586
746.5416, 22.12152
747.0237, 22.22426
747.5058, 22.28559
747.9879, 21.85701
748.4700, 21.13287
748.9521, 20.90636
749.4343, 21.27901
749.9164, 21.71652
750.3985, 21.93260
750.8806, 21.98801
751.3627, 22.01678
751.8448, 22.00433
752.3270, 22.00176
752.8091, 22.04043
753.2912, 22.05303
753.7733, 21.95167
754.2554, 21.83724
754.7375, 21.87556
755.2197, 22.09246
755.7018, 22.28478
756.1839, 22.25220
756.6660, 22.12557
757.1481, 22.14293
757.6302, 22.27726
758.1124, 22.34373
758.5945, 22.27418
759.0766, 22.20218
759.5587, 22.28862
760.0408, 22.52852
760.5229, 22.69728
761.0051, 22.78288
761.4872, 22.81186
761.9693, 22.74408
762.4514, 22.66252
762.9335, 22.60806
763.4156, 22.59055
763.8978, 22.61597
764.3799, 22.66185
764.8620, 22.80083
765.3441, 23.22442
765.8262, 23.73614
766.3083, 23.89385
766.7905, 23.70008
767.2726, 23.61865
767.7547, 23.94731
768.2368, 24.49121
768.7189, 24.78609
769.2010, 24.75797
769.6832, 24.76070
770.1653, 24.83470
770.6474, 24.88525
771.1295, 24.86986
771.6116, 24.81069
772.0938, 24.68351
772.5759, 24.46941
773.0580, 24.44634
773.5401, 24.92512
774.0222, 25.44857
774.5043, 25.59779
774.9865, 25.52697
775.4686, 25.60000
775.9507, 25.89544
776.4328, 26.14222
776.9149, 26.04450
777.3970, 25.70035
777.8792, 25.58358
778.3613, 25.74899
778.8434, 25.84050
779.3255, 25.77248
779.8076, 25.62430
780.2897, 25.44061
780.7719, 25.22892
781.2540, 25.03115
781.7361, 24.88895
782.2182, 24.69436
782.7003, 24.33744
783.1824, 23.98853
783.6646, 23.86503
784.1467, 23.85882
784.6288, 23.66281
785.1109, 23.13957
785.5930, 22.53441
786.0751, 22.07481
786.5573, 21.77976
787.0394, 21.82531
787.5215, 22.23693
788.0036, 22.45486
788.4857, 22.18345
788.9678, 21.74151
789.4500, 21.59714
789.9321, 21.79698
790.4142, 21.92013
790.8963, 21.97892
791.3784, 21.94889
791.8605, 21.79780
792.3427, 21.57618
792.8248, 21.19877
793.3069, 20.76507
793.7890, 20.67128
794.2711, 21.29990
794.7532, 21.99073
795.2354, 22.08196
795.7175, 21.76986
796.1996, 21.35485
796.6817, 20.92851
797.1638, 20.82633
797.6459, 21.29562
798.1281, 22.01980
798.6102, 22.25315
799.0923, 21.86176
799.5744, 21.52662
800.0565, 21.16384
800.5386, 20.99211
801.0208, 21.31823
801.5029, 21.77269
801.9850, 21.91425
802.4671, 21.70937
802.9492, 21.49757
803.4313, 21.26242
803.9135, 21.16664
804.3956, 21.49499
804.8777, 21.93842
805.3598, 21.99245
805.8419, 21.63071
806.3240, 21.27654
806.8062, 21.25463
807.2883, 21.42833
807.7704, 21.50717
808.2525, 21.49679
808.7346, 21.50719
809.2167, 21.55134
809.6989, 21.64579
810.1810, 21.85330
810.6631, 22.07796
811.1452, 22.02567
811.6273, 21.42766
812.1094, 21.17551
812.5916, 21.62630
813.0737, 22.01374
813.5558, 21.94974
814.0379, 21.67753
814.5200, 21.50497
815.0021, 21.49056
815.4843, 21.53953
815.9664, 21.70495
816.4485, 21.81585
816.9306, 21.56147
817.4127, 21.10767
817.8948, 20.90689
818.3770, 21.04108
818.8591, 21.24011
819.3412, 21.28823
819.8233, 21.23219
820.3054, 21.21965
820.7875, 21.25880
821.2697, 21.30334
821.7518, 21.34258
822.2339, 21.39918
822.7160, 21.51581
823.1981, 21.64594
823.6802, 21.70479
824.1624, 21.68174
824.6445, 21.62920
825.1266, 21.47990
825.6087, 21.38731
826.0908, 21.44449
826.5729, 21.60754
827.0551, 21.88029
827.5372, 22.21584
828.0193, 22.40284
828.5014, 22.21978
828.9835, 21.88753
829.4656, 21.77306
829.9478, 21.84240
830.4299, 21.96146
830.9120, 22.10923
831.3941, 22.19858
831.8762, 22.17183
832.3583, 22.03872
832.8404, 21.78610
833.3225, 21.23269
833.8046, 21.09443
834.2867, 21.81174
834.7689, 22.36950
835.2510, 22.26915
835.7331, 21.90394
836.2152, 21.70634
836.6973, 21.71404
837.1794, 21.77770
837.6616, 21.90767
838.1437, 22.01572
838.6258, 22.04329
839.1079, 22.01895
839.5900, 21.93842
840.0721, 21.83694
840.5543, 21.83586
841.0364, 22.01935
841.5185, 22.30797
842.0006, 22.68524
842.4827, 23.08598
842.9648, 22.97059
843.4470, 22.24487
843.9291, 21.59274
844.4112, 21.35686
844.8933, 21.38910
845.3754, 21.46824
845.8575, 21.61672
846.3397, 21.66826
846.8218, 21.49775
847.3039, 21.40063
847.7860, 21.48540
848.2681, 21.62174
848.7502, 21.72088
849.2324, 21.77533
849.7145, 21.78328
850.1966, 21.68554
850.6787, 21.65022
851.1608, 21.88872
851.6429, 22.15960
852.1251, 22.14753
852.6072, 21.91556
853.0893, 21.71186
853.5714, 21.64526
854.0535, 21.67514
854.5356, 21.79813
855.0178, 21.97817
855.4999, 22.04859
855.9820, 22.00822
856.4641, 21.86980
856.9462, 21.59429
857.4283, 21.39881
857.9105, 21.54689
858.3926, 21.97366
858.8747, 22.14994
859.3568, 21.86243
859.8389, 21.69736
860.3210, 21.83486
860.8032, 21.94081
861.2853, 21.74954
861.7674, 21.45565
862.2495, 21.42202
862.7316, 21.73996
863.2137, 22.02003
863.6959, 22.08388
864.1780, 22.06453
864.6601, 22.05437
865.1422, 22.03591
865.6243, 21.89548
866.1064, 21.66859
866.5886, 21.66912
867.0707, 22.20395
867.5528, 22.89881
868.0349, 23.02326
868.5170, 22.66372
868.9991, 22.35546
869.4813, 22.16434
869.9634, 21.97274
870.4455, 21.69591
870.9276, 21.43542
871.4097, 21.40409
871.8918, 21.66450
872.3740, 21.71436
872.8561, 21.39419
873.3382, 21.12280
873.8203, 21.04076
874.3024, 21.02559
874.7845, 21.00776
875.2667, 20.97851
875.7488, 20.91411
876.2309, 20.82676
876.7130, 20.67521
877.1951, 20.32387
877.6772, 20.00712
878.1594, 19.92879
878.6415, 20.04612
879.1236, 20.28297
879.6057, 20.60055
880.0878, 20.84342
880.5699, 20.82298
881.0521, 20.65558
881.5342, 20.49251
882.0163, 20.36456
882.4984, 20.46594
882.9805, 20.82846
883.4626, 21.08800
883.9448, 20.94546
884.4269, 20.52192
884.9090, 20.12706
885.3911, 19.72256
885.8732, 19.59874
886.3553, 19.90404
886.8375, 20.17440
887.3196, 20.15793
887.8017, 20.02639
888.2838, 20.10725
888.7659, 20.44870
889.2480, 20.38557
889.7302, 19.21565
890.2123, 18.54803
890.6944, 19.29471
891.1765, 20.25604
891.6586, 20.45337
892.1407, 20.02459
892.6229, 19.55058
893.1050, 19.19232
893.5871, 18.97016
894.0692, 19.02325
894.5513, 19.12450
895.0334, 18.92187
895.5156, 18.56369
895.9977, 18.49451
896.4798, 18.80361
896.9619, 19.09384
897.4440, 18.99255
897.9261, 18.65834
898.4083, 18.46673
898.8904, 18.40968
899.3725, 18.41399
899.8546, 18.47850
900.3367, 18.49276
900.8188, 18.36871
901.3010, 18.21251
901.7831, 18.25363
902.2652, 18.55428
902.7473, 18.64575
903.2294, 18.36981
903.7115, 18.16304
904.1937, 18.17867
904.6758, 18.27466
905.1579, 18.39834
905.6400, 18.51083
906.1221, 18.43940
906.6042, 17.97952
907.0864, 17.67754
907.5685, 17.84006
908.0506, 18.03487
908.5327, 17.92666
909.0148, 17.66737
909.4969, 17.51819
909.9791, 17.54068
910.4612, 17.63531
910.9433, 17.81647
911.4254, 17.96014
911.9075, 17.86723
912.3896, 17.66203
912.8718, 17.63853
913.3539, 17.78967
913.8360, 17.82332
914.3181, 17.56877
914.8002, 17.21274
915.2823, 17.03906
915.7645, 17.03187
916.2466, 17.09769
916.7287, 17.24140
917.2108, 17.29998
917.6929, 17.20066
918.1750, 17.09724
918.6572, 17.16279
919.1393, 17.34863
919.6214, 17.35386
920.1035, 17.04279
920.5856, 16.89064
921.0677, 17.08212
921.5499, 17.21992
922.0320, 17.02363
922.5141, 16.71123
922.9962, 16.56430
923.4783, 16.59591
923.9604, 16.68536
924.4426, 16.98347
924.9247, 17.12086
925.4068, 16.83311
925.8889, 16.45109
926.3710, 16.20236
926.8531, 16.11780
927.3353, 16.24376
927.8174, 16.63557
928.2995, 16.92453
928.7816, 16.74521
929.2637, 16.43178
929.7458, 16.35175
930.2280, 16.42268
930.7101, 16.44078
931.1922, 16.36519
931.6743, 16.26948
932.1564, 16.19337
932.6385, 16.17247
933.1207, 16.32824
933.6028, 16.59880
934.0849, 16.70236
934.5670, 16.62049
935.0491, 16.49069
935.5313, 16.36690
936.0134, 16.26198
936.4955, 16.18890
936.9776, 16.14970
937.4597, 16.18744
937.9418, 16.35437
938.4240, 16.34873
938.9061, 15.99259
939.3882, 15.74549
939.8703, 16.00381
940.3524, 16.49698
940.8345, 16.61736
941.3167, 16.24755
941.7988, 15.94932
942.2809, 15.60332
942.7630, 15.48368
943.2451, 15.86413
943.7272, 16.31992
944.2094, 16.50185
944.6915, 16.45597
945.1736, 16.40495
945.6557, 16.40814
946.1378, 16.37382
946.6199, 16.27981
947.1021, 16.12573
947.5842, 15.81322
948.0663, 15.49042
948.5484, 15.35440
949.0305, 15.44272
949.5126, 15.71682
949.9948, 16.32099
950.4769, 16.78543
950.9590, 16.44276
951.4411, 15.76609
951.9232, 15.54283
952.4053, 15.73556
952.8875, 15.93986
953.3696, 15.99637
953.8517, 15.99441
954.3338, 16.04817
954.8159, 16.09659
955.2980, 15.90971
955.7802, 15.53944
956.2623, 15.37232
956.7444, 15.47485
957.2265, 15.60528
957.7086, 15.62067
958.1907, 15.57808
958.6729, 15.59130
959.1550, 15.66381
959.6371, 15.60732
960.1192, 15.36264
960.6013, 15.23368
961.0834, 15.30429
961.5656, 15.50586
962.0477, 15.86717
962.5298, 16.27818
963.0119, 16.33743
963.4940, 15.84145
963.9761, 15.50849
964.4583, 15.41867
964.9404, 15.38745
965.4225, 15.36513
965.9046, 15.36981
966.3867, 15.46047
966.8688, 15.60804
967.3510, 15.63036
967.8331, 15.30595
968.3152, 15.19867
968.7973, 15.69020
969.2794, 16.16077
969.7615, 16.15051
970.2437, 15.92630
970.7258, 15.91348
971.2079, 16.15324
971.6900, 16.32192
972.1721, 16.27018
972.6542, 16.10823
973.1364, 15.79891
973.6185, 15.49558
974.1006, 15.39380
974.5827, 15.44082
975.0648, 15.45225
975.5469, 15.37620
976.0291, 15.38057
976.5112, 15.71331
976.9933, 16.10308
977.4754, 16.10496
977.9575, 15.90003
978.4396, 15.94818
978.9218, 16.24516
979.4039, 16.40134
979.8860, 16.22016
980.3681, 15.91639
980.8502, 15.76215
981.3323, 15.72075
981.8145, 15.65322
982.2966, 15.57018
982.7787, 15.56768
983.2608, 15.66701
983.7429, 15.81289
984.2250, 15.97935
984.7072, 16.11941
985.1893, 16.10024
985.6714, 15.91187
986.1535, 15.94607
986.6356, 16.26925
987.1177, 16.40371
987.5999, 16.16654
988.0820, 15.85947
988.5641, 15.72921
989.0462, 15.74250
989.5283, 15.80171
990.0104, 15.96026
990.4926, 15.97528
990.9747, 15.69364
991.4568, 15.57069
991.9389, 15.89274
992.4210, 16.29039
992.9031, 16.42284
993.3853, 16.30659
993.8674, 16.04379
994.3495, 15.35081
994.8316, 14.99420
995.3137, 15.18259
995.7958, 15.47973
996.2780, 15.84735
996.7601, 16.14310
997.2422, 16.16215
997.7243, 15.93505
998.2064, 15.78800
998.6885, 15.91714
999.1707, 15.91766
999.6528, 15.35694
1000.135, 14.98056
1000.617, 15.52766
1001.099, 16.42976
1001.581, 16.83782
1002.063, 16.65788
1002.545, 16.35937
1003.028, 15.99354
1003.510, 15.76701
1003.992, 15.94197
1004.474, 16.17941
1004.956, 16.14370
1005.438, 15.91986
1005.920, 15.66978
1006.402, 15.46147
1006.885, 15.45321
1007.367, 15.94569
1007.849, 16.42246
1008.331, 16.30992
1008.813, 15.93172
1009.295, 15.69798
1009.777, 15.63166
1010.259, 15.62191
1010.741, 15.63196
1011.224, 15.73140
1011.706, 16.09220
1012.188, 16.45578
1012.670, 16.34560
1013.152, 15.95886
1013.634, 15.74735
1014.116, 15.73994
1014.598, 15.76950
1015.081, 15.76192
1015.563, 15.74751
1016.045, 15.75691
1016.527, 15.78677
1017.009, 15.83352
1017.491, 15.89399
1017.973, 15.96586
1018.455, 16.04351
1018.937, 16.07337
1019.420, 16.02638
1019.902, 15.94533
1020.384, 15.86432
1020.866, 15.80737
1021.348, 15.97691
1021.830, 16.35464
1022.312, 16.32430
1022.794, 15.75704
1023.276, 15.31641
1023.759, 15.38785
1024.241, 15.73292
1024.723, 16.01529
1025.205, 16.22491
1025.687, 16.14097
1026.169, 15.70496
1026.651, 15.49828
1027.133, 15.68244
1027.616, 15.82798
1028.098, 15.64818
1028.580, 15.33326
1029.062, 15.21773
1029.544, 15.30383
1030.026, 15.52078
1030.508, 15.93386
1030.990, 16.25477
1031.473, 16.45246
1031.955, 16.49138
1032.437, 16.29952
1032.919, 15.99272
1033.401, 15.79169
1033.883, 15.71027
1034.365, 15.59091
1034.847, 15.35053
1035.329, 15.26723
1035.812, 15.50960
1036.294, 15.73372
1036.776, 15.69719
1037.258, 15.51584
1037.740, 15.40137
1038.222, 15.34821
1038.704, 15.39996
1039.186, 15.64587
1039.668, 15.85267
1040.151, 16.05927
1040.633, 16.13250
1041.115, 15.87235
1041.597, 15.46551
1042.079, 15.31109
1042.561, 15.47643
1043.043, 15.44018
1043.525, 14.84943
1044.008, 14.54325
1044.490, 14.90594
1044.972, 15.33931
1045.454, 15.53245
1045.936, 15.52672
1046.418, 15.32447
1046.900, 14.87211
1047.382, 14.78920
1047.865, 15.71289
1048.347, 16.20774
1048.829, 15.54936
1049.311, 14.77149
1049.793, 14.51062
1050.275, 14.60381
1050.757, 14.76938
1051.239, 14.98325
1051.721, 15.10411
1052.203, 14.95105
1052.686, 14.91494
1053.168, 15.27581
1053.650, 15.61758
1054.132, 15.63030
1054.614, 15.44094
1055.096, 15.25972
1055.578, 15.11619
1056.060, 15.00850
1056.543, 14.96051
1057.025, 14.91468
1057.507, 14.83493
1057.989, 14.76869
1058.471, 14.77326
1058.953, 14.80269
1059.435, 14.78145
1059.917, 14.70104
1060.400, 14.61199
1060.882, 14.45417
1061.364, 14.39580
1061.846, 14.59626
1062.328, 14.81617
1062.810, 14.84654
1063.292, 14.79978
1063.774, 14.87823
1064.256, 15.09126
1064.739, 15.25518
1065.221, 15.32785
1065.703, 15.30328
1066.185, 15.06735
1066.667, 14.84849
1067.149, 14.84441
1067.631, 14.94300
1068.113, 14.96958
1068.595, 14.91414
1069.078, 14.89860
1069.560, 15.03877
1070.042, 15.06359
1070.524, 14.74911
1071.006, 14.38643
1071.488, 14.26801
1071.970, 14.17124
1072.452, 13.54655
1072.935, 12.58261
1073.417, 12.37996
1073.899, 13.59311
1074.381, 14.73734
1074.863, 15.17655
1075.345, 15.24414
1075.827, 14.99271
1076.309, 14.61837
1076.792, 14.27813
1077.274, 14.02436
1077.756, 13.93869
1078.238, 14.07743
1078.720, 14.23383
1079.202, 14.33304
1079.684, 14.39504
1080.166, 14.40460
1080.648, 14.40528
1081.130, 14.44762
1081.613, 14.52248
1082.095, 14.61188
1082.577, 14.72439
1083.059, 14.72196
1083.541, 14.33229
1084.023, 14.06602
1084.505, 14.34632
1084.987, 14.77764
1085.469, 15.00204
1085.952, 15.04256
1086.434, 15.05261
1086.916, 15.06932
1087.398, 14.96198
1087.880, 14.49556
1088.362, 14.12577
1088.844, 14.20483
1089.326, 14.34963
1089.809, 14.06467
1090.291, 13.67093
1090.773, 13.89011
1091.255, 14.79483
1091.737, 15.44326
1092.219, 15.36862
1092.701, 15.15271
1093.183, 14.96035
1093.666, 14.76741
1094.148, 14.49921
1094.630, 14.25222
1095.112, 14.23607
1095.594, 14.41692
1096.076, 14.39377
1096.558, 13.82130
1097.040, 13.49214
1097.522, 13.97582
1098.005, 14.42140
1098.487, 14.17377
1098.969, 13.73116
1099.451, 13.77055
1099.933, 14.19701
1100.415, 14.33222
1100.897, 13.84445
1101.379, 13.62441
1101.861, 14.30137
1102.344, 14.78771
1102.826, 14.39247
1103.308, 13.79116
1103.790, 13.61917
1104.272, 13.76805
1104.754, 13.82959
1105.236, 13.72427
1105.718, 13.67432
1106.201, 13.71679
1106.683, 13.82242
1107.165, 14.13558
1107.647, 14.35752
1108.129, 14.18553
1108.611, 13.81289
1109.093, 13.61911
1109.575, 13.64470
1110.057, 13.58710
1110.540, 13.26528
1111.022, 13.08975
1111.504, 13.25546
1111.986, 13.42543
1112.468, 13.40106
1112.950, 13.30585
1113.432, 13.28902
1113.914, 13.35143
1114.396, 13.47983
1114.879, 13.77736
1115.361, 13.96542
1115.843, 14.07301
1116.325, 14.01850
1116.807, 13.61995
1117.289, 13.20492
1117.771, 13.05583
1118.253, 13.14863
1118.736, 13.42753
1119.218, 14.07441
1119.700, 14.28715
1120.182, 13.83097
1120.664, 13.43401
1121.146, 13.27492
1121.628, 13.20837
1122.110, 13.13157
1122.593, 13.07788
1123.075, 13.11888
1123.557, 13.25740
1124.039, 13.45691
1124.521, 13.76555
1125.003, 13.96288
1125.485, 14.02017
1125.967, 13.93697
1126.449, 13.68238
1126.932, 13.35020
1127.414, 13.03078
1127.896, 12.76114
1128.378, 12.86159
1128.860, 13.39868
1129.342, 13.63572
1129.824, 13.49137
1130.306, 13.21875
1130.788, 12.87959
1131.271, 12.65404
1131.753, 12.71897
1132.235, 13.00145
1132.717, 13.38190
1133.199, 13.83748
1133.681, 14.00207
1134.163, 13.88068
1134.645, 13.83514
1135.128, 13.94634
1135.610, 13.92661
1136.092, 13.57777
1136.574, 13.16440
1137.056, 13.08219
1137.538, 13.25246
1138.020, 13.51738
1138.502, 13.80345
1138.984, 13.66897
1139.467, 13.15729
1139.949, 12.93390
1140.431, 13.25200
1140.913, 13.60684
1141.395, 13.49605
1141.877, 13.19224
1142.359, 13.12112
1142.841, 13.19419
1143.323, 13.22749
1143.806, 13.24076
1144.288, 13.32793
1144.770, 13.51212
1145.252, 13.80001
1145.734, 14.23392
1146.216, 14.57390
1146.698, 14.53852
1147.180, 14.32778
1147.663, 14.08604
1148.145, 13.88071
1148.627, 13.85344
1149.109, 13.94281
1149.591, 13.88932
1150.073, 13.60078
1150.555, 13.41640
1151.037, 13.61475
1151.520, 13.88847
1152.002, 14.18801
1152.484, 14.33628
1152.966, 13.98947
1153.448, 13.45177
1153.930, 13.27434
1154.412, 13.50529
1154.894, 13.74052
1155.376, 13.87823
1155.859, 13.96423
1156.341, 13.94750
1156.823, 13.96014
1157.305, 14.07288
1157.787, 14.24552
1158.269, 14.51743
1158.751, 14.80754
1159.233, 14.83504
1159.715, 14.46734
1160.198, 14.26920
1160.680, 14.54233
1161.162, 14.58896
1161.644, 14.01979
1162.126, 13.53840
1162.608, 13.66092
1163.090, 13.99447
1163.572, 13.91294
1164.055, 13.44737
1164.537, 13.29383
1165.019, 13.52929
1165.501, 13.87591
1165.983, 14.43715
1166.465, 14.70770
1166.947, 14.44346
1167.429, 14.01807
1167.911, 13.73804
1168.394, 13.58063
1168.876, 13.48776
1169.358, 13.46002
1169.840, 13.52222
1170.322, 13.67639
1170.804, 13.76081
1171.286, 13.74479
1171.768, 13.67142
1172.250, 13.55855
1172.733, 13.47494
1173.215, 13.51072
1173.697, 13.62693
1174.179, 13.77921
1174.661, 13.91787
1175.143, 13.79608
1175.625, 13.48674
1176.107, 13.40043
1176.590, 13.61398
1177.072, 13.75086
1177.554, 13.54025
1178.036, 13.32047
1178.518, 13.60470
1179.000, 13.39987
1179.482, 13.84059
1179.964, 13.47038
1180.447, 13.44207
1180.929, 13.71097
1181.411, 13.94307
1181.893, 14.02830
1182.375, 13.95908
1182.857, 13.58092
1183.339, 13.24659
1183.821, 13.15118
1184.303, 13.18274
1184.786, 13.26754
1185.268, 13.41253
1185.750, 13.72420
1186.232, 14.13270
1186.714, 14.25425
1187.196, 13.83740
1187.678, 13.66693
1188.160, 14.03471
1188.642, 14.44996
1189.125, 14.94775
1189.607, 15.25141
1190.089, 15.04889
1190.571, 14.61896
1191.053, 14.46136
1191.535, 14.57231
1192.017, 14.47281
1192.499, 14.03829
1192.982, 13.78197
1193.464, 13.79596
1193.946, 13.79717
1194.428, 13.67024
1194.910, 13.55621
1195.392, 13.58888
1195.874, 13.69835
1196.356, 13.71276
1196.839, 13.64150
1197.321, 13.61960
1197.803, 13.64373
1198.285, 13.66043
1198.767, 13.66296
1199.249, 13.67900
1199.731, 13.72152
1200.213, 13.81145
1200.695, 13.98469
1201.177, 14.18390
1201.660, 14.31026
1202.142, 14.39708
1202.624, 14.59683
1203.106, 14.78853
1203.588, 14.54795
1204.070, 13.94820
1204.552, 13.65856
1205.034, 14.00390
1205.517, 14.37392
1205.999, 14.35380
1206.481, 14.19111
1206.963, 14.02073
1207.445, 13.83041
1207.927, 13.50169
1208.409, 13.19026
1208.891, 13.23028
1209.374, 13.60926
1209.856, 13.83951
1210.338, 13.69458
1210.820, 13.64769
1211.302, 13.97638
1211.784, 14.14217
1212.266, 13.69772
1212.748, 13.31330
1213.230, 13.61705
1213.713, 14.18715
1214.195, 14.15531
1214.677, 13.51385
1215.159, 13.13867
1215.641, 13.02558
1216.123, 13.26846
1216.605, 13.98296
1217.087, 14.45629
1217.569, 14.41186
1218.052, 14.14503
1218.534, 13.88080
1219.016, 13.67569
1219.498, 13.68277
1219.980, 13.84782
1220.462, 13.96033
1220.944, 14.01256
1221.426, 13.91882
1221.909, 13.72427
1222.391, 13.72953
1222.873, 14.02393
1223.355, 14.24596
1223.837, 14.08105
1224.319, 13.81409
1224.801, 13.68884
1225.283, 13.66296
1225.766, 13.77822
1226.248, 13.90296
1226.730, 13.75345
1227.212, 13.44639
1227.694, 13.46200
1228.176, 13.95834
1228.658, 14.27931
1229.140, 14.07367
1229.622, 13.85807
1230.104, 13.75954
1230.587, 13.72174
1231.069, 13.82906
1231.551, 13.88257
1232.033, 13.50477
1232.515, 12.91518
1232.997, 13.02206
1233.479, 14.08395
1233.961, 14.44035
1234.444, 13.88260
1234.926, 13.43300
1235.408, 13.26106
1235.890, 13.27649
1236.372, 13.45618
1236.854, 13.67654
1237.336, 13.81631
1237.818, 13.85373
1238.301, 13.65077
1238.783, 13.31001
1239.265, 13.24037
1239.747, 13.40106
1240.229, 13.62036
1240.711, 13.82533
1241.193, 13.86067
1241.675, 13.66179
1242.157, 13.47386
1242.640, 13.56096
1243.122, 13.64983
1243.604, 13.42403
1244.086, 13.16141
1244.568, 13.10425
1245.050, 13.21472
1245.532, 13.52643
1246.014, 13.92582
1246.496, 13.98859
1246.979, 13.51349
1247.461, 13.26766
1247.943, 13.59173
1248.425, 13.83025
1248.907, 13.75183
1249.389, 13.73013
1249.871, 14.06096
1250.353, 14.35133
1250.836, 14.12922
1251.318, 13.54469
1251.800, 13.11989
1252.282, 12.85674
1252.764, 12.74121
1253.246, 12.77517
1253.728, 12.87525
1254.210, 13.02505
1254.693, 13.19496
1255.175, 13.37160
1255.657, 13.58287
1256.139, 13.88378
1256.621, 14.15428
1257.103, 14.24823
1257.585, 14.16435
1258.067, 13.71936
1258.549, 13.19062
1259.031, 13.14264
1259.514, 13.49025
1259.996, 13.71140
1260.478, 13.65332
1260.960, 13.64614
1261.442, 13.88495
1261.924, 14.12216
1262.406, 14.42046
1262.888, 14.51828
1263.371, 14.08373
1263.853, 13.54640
1264.335, 13.28043
1264.817, 13.26168
1265.299, 13.46804
1265.781, 13.92273
1266.263, 14.22263
1266.745, 14.37660
1267.228, 14.27459
1267.710, 13.85822
1268.192, 13.60376
1268.674, 13.68526
1269.156, 13.84469
1269.638, 13.88113
1270.120, 13.86783
1270.602, 13.97950
1271.084, 14.09468
1271.567, 13.78403
1272.049, 14.02883
1272.531, 13.51703
1273.013, 14.10419
1273.495, 14.34198
1273.977, 14.10342
1274.459, 13.87426
1274.941, 13.83492
1275.423, 13.95712
1275.906, 14.51776
1276.388, 14.85598
1276.870, 14.45634
1277.352, 13.91487
1277.834, 13.56830
1278.316, 13.46067
1278.798, 13.72907
1279.280, 14.28345
1279.763, 14.50160
1280.245, 14.32267
1280.727, 13.99577
1281.209, 13.44672
1281.691, 13.26817
1282.173, 13.60820
1282.655, 13.99086
1283.137, 14.18470
1283.620, 14.17170
1284.102, 13.86877
1284.584, 13.51404
1285.066, 13.46290
##END=



