##NAMES=Polylithionite
##RRUFFID=R060172
##IDEAL CHEMISTRY=KLi_2_AlSi_4_O_10_F_2_
##LOCALITY=Mont Saint-Hilaire, Quebec, Canada
##OWNER=RRUFF
##SOURCE=Guy Ouellet
##DESCRIPTION=Pseudohexagonal micaceous crystals with small white natrolite, red rhodochrosite and white albite
##STATUS=The identification of this mineral has been confirmed by X-ray diffraction and chemical analysis
##URL=rruff.info/R060172
##MEASURED CHEMISTRY=(K_0.98_Na_0.02_)Li_2.00_(Al_0.84_Ti_0.10_Mg_0.04_Mn_0.02_)(Si_0.99_Al_0.01_)_4_O_10_(F_0.82_(OH)_0.18_)_2_
90.26367, 15.19855
90.74579, 15.19934
91.22791, 15.22143
91.71002, 15.25841
92.19214, 15.25112
92.67426, 15.18624
93.15637, 15.04398
93.63850, 14.76198
94.12061, 14.14579
94.60273, 13.41872
95.08485, 13.08168
95.56696, 13.14535
96.04908, 13.54628
96.53120, 14.58718
97.01331, 16.19149
97.49543, 17.16858
97.97755, 16.57095
98.45966, 14.52372
98.94178, 13.37658
99.42390, 13.36148
99.90602, 13.93663
100.3881, 14.04204
100.8703, 13.54956
101.3524, 13.04093
101.8345, 12.83540
102.3166, 13.02015
102.7987, 13.14564
103.2808, 13.18683
103.7630, 13.14703
104.2451, 13.02092
104.7272, 12.72187
105.2093, 12.44942
105.6914, 12.36635
106.1735, 12.74557
106.6557, 12.83563
107.1378, 12.38773
107.6199, 11.37073
108.1020, 10.75848
108.5841, 10.71999
109.0662, 10.99530
109.5484, 11.35021
110.0305, 11.96963
110.5126, 12.48933
110.9947, 12.85423
111.4768, 13.06493
111.9590, 13.13084
112.4411, 12.94335
112.9232, 12.63738
113.4053, 12.39204
113.8874, 12.19802
114.3695, 12.09992
114.8517, 12.14590
115.3338, 12.41822
115.8159, 12.63597
116.2980, 12.52010
116.7801, 12.28449
117.2622, 12.39109
117.7444, 13.02677
118.2265, 14.05205
118.7086, 15.48372
119.1907, 17.92211
119.6728, 19.88089
120.1549, 20.18988
120.6371, 19.18720
121.1192, 18.23985
121.6013, 18.15911
122.0834, 18.55272
122.5655, 18.97952
123.0477, 19.15471
123.5298, 19.44274
124.0119, 20.26573
124.4940, 21.59324
124.9761, 23.00126
125.4582, 24.17370
125.9404, 25.17706
126.4225, 26.13082
126.9046, 27.14184
127.3867, 28.11316
127.8688, 28.86234
128.3509, 29.37655
128.8331, 29.79341
129.3152, 30.25774
129.7973, 30.75704
130.2794, 31.21736
130.7615, 31.39913
131.2436, 31.48364
131.7258, 32.19169
132.2079, 33.66532
132.6900, 35.42480
133.1721, 36.65358
133.6542, 37.33791
134.1364, 38.14400
134.6185, 39.50716
135.1006, 41.41241
135.5827, 43.26089
136.0648, 45.01166
136.5469, 46.69902
137.0291, 48.39112
137.5112, 50.06614
137.9933, 51.79284
138.4754, 53.79109
138.9575, 56.18330
139.4396, 57.95087
139.9218, 58.85102
140.4039, 59.03651
140.8860, 59.17003
141.3681, 59.17223
141.8502, 59.26350
142.3323, 59.64950
142.8145, 60.47884
143.2966, 61.21086
143.7787, 61.61548
144.2608, 61.71186
144.7429, 62.46737
145.2251, 64.33062
145.7072, 66.46071
146.1893, 68.05337
146.6714, 68.75605
147.1535, 69.44160
147.6356, 70.22339
148.1178, 71.08040
148.5999, 72.15128
149.0820, 73.50586
149.5641, 75.04218
150.0462, 76.63130
150.5283, 78.45705
151.0105, 80.13232
151.4926, 80.78420
151.9747, 80.89238
152.4568, 81.16528
152.9389, 81.62901
153.4210, 82.25652
153.9032, 83.02317
154.3853, 84.24656
154.8674, 85.31614
155.3495, 85.97890
155.8316, 85.97952
156.3138, 86.16485
156.7959, 86.68551
157.2780, 87.46858
157.7601, 88.37707
158.2422, 89.51905
158.7243, 90.68144
159.2065, 91.76912
159.6886, 92.72603
160.1707, 93.67872
160.6528, 94.58949
161.1349, 95.51115
161.6170, 96.58746
162.0992, 98.08424
162.5813, 99.62096
163.0634, 100.9338
163.5455, 101.7976
164.0276, 102.6588
164.5097, 103.7886
164.9919, 105.1079
165.4740, 106.3079
165.9561, 107.0745
166.4382, 107.7275
166.9203, 108.5805
167.4025, 110.0240
167.8846, 111.3817
168.3667, 112.1254
168.8488, 112.3460
169.3309, 112.6237
169.8130, 113.3194
170.2952, 114.2721
170.7773, 115.2723
171.2594, 116.2548
171.7415, 117.2593
172.2236, 118.2784
172.7057, 119.3197
173.1879, 120.5219
173.6700, 122.1833
174.1521, 124.0528
174.6342, 125.7125
175.1163, 126.9308
175.5984, 127.9128
176.0806, 128.9656
176.5627, 130.0990
177.0448, 130.9564
177.5269, 131.3969
178.0090, 131.3372
178.4911, 130.5814
178.9733, 128.8491
179.4554, 126.4491
179.9375, 123.7747
180.4196, 120.8491
180.9017, 117.7505
181.3839, 114.4296
181.8660, 110.9919
182.3481, 107.6812
182.8302, 104.5940
183.3123, 101.7406
183.7944, 99.16016
184.2766, 96.83360
184.7587, 94.75833
185.2408, 92.93114
185.7229, 91.34912
186.2050, 89.89017
186.6871, 88.45040
187.1693, 87.07345
187.6514, 86.06739
188.1335, 85.49001
188.6156, 85.06734
189.0977, 84.29825
189.5798, 83.21162
190.0620, 82.32176
190.5441, 82.02710
191.0262, 82.22164
191.5083, 82.19437
191.9904, 81.88003
192.4725, 81.39301
192.9547, 80.91605
193.4368, 80.44656
193.9189, 79.94531
194.4010, 79.33488
194.8831, 78.63117
195.3652, 78.08524
195.8474, 77.72572
196.3295, 77.51144
196.8116, 77.42606
197.2937, 77.49386
197.7758, 77.47195
198.2579, 77.13425
198.7401, 76.46940
199.2222, 76.03300
199.7043, 75.93398
200.1864, 76.01003
200.6685, 75.85007
201.1507, 75.39556
201.6328, 74.98024
202.1149, 74.82500
202.5970, 74.95428
203.0791, 75.10561
203.5612, 75.30088
204.0434, 75.47250
204.5255, 75.40221
205.0076, 75.03835
205.4897, 74.61382
205.9718, 74.24843
206.4539, 73.93658
206.9361, 73.71437
207.4182, 73.57045
207.9003, 73.52537
208.3824, 73.69594
208.8645, 74.18513
209.3466, 74.62386
209.8288, 74.75941
210.3109, 74.51559
210.7930, 74.29954
211.2751, 74.13777
211.7572, 74.03141
212.2393, 73.98957
212.7215, 74.03446
213.2036, 74.09472
213.6857, 74.13050
214.1678, 74.14431
214.6499, 74.10511
215.1321, 73.93680
215.6142, 73.71737
216.0963, 73.81484
216.5784, 74.33278
217.0605, 74.96516
217.5426, 75.57670
218.0248, 76.26991
218.5069, 76.59422
218.9890, 76.34956
219.4711, 75.69768
219.9532, 75.41405
220.4353, 75.61049
220.9175, 75.98650
221.3996, 76.34327
221.8817, 76.59299
222.3638, 77.04500
222.8459, 77.72726
223.3280, 78.63943
223.8102, 79.78065
224.2923, 81.42978
224.7744, 82.91224
225.2565, 83.69678
225.7386, 83.32332
226.2208, 83.37513
226.7029, 84.10680
227.1850, 85.38998
227.6671, 86.51525
228.1492, 87.35720
228.6313, 88.21866
229.1135, 89.31726
229.5956, 90.87704
230.0777, 92.18050
230.5598, 93.08428
231.0419, 93.68272
231.5240, 94.45186
232.0062, 95.41154
232.4883, 96.51622
232.9704, 97.75224
233.4525, 99.16646
233.9346, 100.5993
234.4167, 101.9964
234.8989, 103.3925
235.3810, 104.9704
235.8631, 106.9238
236.3452, 108.8294
236.8273, 110.3920
237.3095, 111.1947
237.7916, 112.5606
238.2737, 114.7353
238.7558, 117.5423
239.2379, 120.3043
239.7200, 123.0859
240.2022, 125.7358
240.6843, 128.1419
241.1664, 130.0245
241.6485, 132.2954
242.1306, 135.1580
242.6127, 138.4492
243.0949, 141.5268
243.5770, 144.7484
244.0591, 147.2787
244.5412, 148.6561
245.0233, 148.6828
245.5054, 148.0508
245.9876, 146.8030
246.4697, 144.9189
246.9518, 142.1983
247.4339, 138.2137
247.9160, 134.0139
248.3981, 130.0983
248.8803, 126.4164
249.3624, 123.0843
249.8445, 120.1922
250.3266, 117.6242
250.8087, 115.0138
251.2909, 112.1551
251.7730, 109.6168
252.2551, 107.7304
252.7372, 106.7393
253.2193, 105.7181
253.7014, 104.5696
254.1836, 103.4403
254.6657, 102.6843
255.1478, 102.3743
255.6299, 102.3109
256.1120, 102.4409
256.5941, 102.8241
257.0763, 103.2139
257.5584, 103.6182
258.0405, 104.0299
258.5226, 104.4415
259.0047, 104.8987
259.4868, 105.2670
259.9690, 105.4181
260.4511, 105.2203
260.9332, 105.4414
261.4153, 106.2355
261.8974, 107.3164
262.3795, 108.1745
262.8617, 108.7130
263.3438, 109.2791
263.8259, 110.0110
264.3080, 110.9335
264.7901, 111.8647
265.2722, 112.9316
265.7544, 113.8564
266.2365, 114.1566
266.7186, 113.6542
267.2007, 113.0732
267.6829, 112.6366
268.1650, 112.3501
268.6471, 112.0397
269.1292, 111.7435
269.6113, 111.3567
270.0934, 110.7070
270.5756, 109.7090
271.0577, 108.7507
271.5398, 107.9338
272.0219, 107.2497
272.5040, 106.6455
272.9861, 106.1464
273.4683, 105.6879
273.9504, 105.2036
274.4325, 104.6937
274.9146, 104.1555
275.3967, 103.5348
275.8788, 102.8647
276.3610, 102.4686
276.8431, 102.3768
277.3252, 102.4754
277.8073, 102.7491
278.2894, 103.2302
278.7715, 103.4989
279.2537, 103.3831
279.7358, 103.0145
280.2179, 103.0072
280.7000, 103.4418
281.1821, 103.8785
281.6642, 103.8382
282.1464, 103.3162
282.6285, 103.1715
283.1106, 103.6475
283.5927, 104.5002
284.0748, 105.0474
284.5569, 105.2595
285.0391, 105.4424
285.5212, 105.8595
286.0033, 106.4815
286.4854, 106.9685
286.9675, 107.2564
287.4496, 107.4190
287.9318, 107.5424
288.4139, 107.6260
288.8960, 107.8371
289.3781, 108.2954
289.8602, 108.9762
290.3424, 109.8288
290.8245, 110.9409
291.3066, 111.9941
291.7887, 112.3524
292.2708, 112.0874
292.7530, 111.8390
293.2351, 111.5870
293.7172, 112.1211
294.1993, 112.4813
294.6814, 112.6769
295.1635, 112.2151
295.6457, 112.6023
296.1278, 112.6492
296.6099, 112.6822
297.0920, 113.1888
297.5741, 112.8226
298.0562, 113.3217
298.5384, 113.4755
299.0205, 113.7873
299.5026, 113.7567
299.9847, 113.8319
300.4668, 114.1023
300.9489, 114.0286
301.4311, 113.8807
301.9132, 113.8937
302.3953, 113.6710
302.8774, 114.2480
303.3595, 114.6510
303.8416, 114.8894
304.3238, 114.4704
304.8059, 114.9004
305.2880, 114.9901
305.7701, 115.0659
306.2522, 115.6153
306.7343, 115.2919
307.2165, 115.8339
307.6986, 116.0304
308.1807, 116.3005
308.6628, 116.3276
309.1449, 115.9973
309.6270, 114.9573
310.1092, 113.4096
310.5913, 112.0377
311.0734, 111.3155
311.5555, 110.8743
312.0376, 110.4453
312.5197, 110.0355
313.0019, 109.4782
313.4840, 108.5553
313.9661, 107.4124
314.4482, 106.3397
314.9304, 105.6950
315.4125, 104.9929
315.8946, 103.8093
316.3767, 101.9353
316.8588, 100.3836
317.3409, 99.76919
317.8231, 99.65726
318.3052, 99.47539
318.7873, 98.95979
319.2694, 98.41468
319.7515, 97.97498
320.2336, 97.65688
320.7158, 97.31589
321.1979, 96.85449
321.6800, 96.38081
322.1621, 95.99407
322.6442, 96.00235
323.1263, 95.80120
323.6085, 95.07722
324.0906, 93.87887
324.5727, 92.97753
325.0548, 92.70678
325.5369, 92.63210
326.0190, 92.49274
326.5012, 92.28449
326.9833, 91.99281
327.4654, 91.64236
327.9475, 91.21590
328.4296, 90.64218
328.9117, 89.57116
329.3939, 88.66317
329.8760, 87.91881
330.3581, 88.09447
330.8402, 88.09621
331.3223, 87.93340
331.8044, 87.11311
332.2866, 87.14177
332.7687, 86.83022
333.2508, 86.50473
333.7329, 86.65291
334.2150, 85.92825
334.6971, 86.06892
335.1793, 85.86413
335.6614, 85.81746
336.1435, 85.31859
336.6256, 85.52711
337.1077, 85.62753
337.5899, 85.33509
338.0720, 84.52334
338.5541, 84.73037
339.0362, 84.76350
339.5183, 84.63206
340.0005, 83.84313
340.4826, 83.90321
340.9647, 83.62306
341.4468, 83.32895
341.9289, 83.50854
342.4110, 82.47906
342.8932, 82.89152
343.3753, 83.13006
343.8574, 83.20403
344.3395, 82.62054
344.8216, 82.88603
345.3037, 82.81129
345.7859, 82.72260
346.2680, 83.35181
346.7501, 83.44427
347.2322, 83.52279
347.7143, 84.07497
348.1964, 83.75433
348.6786, 84.29903
349.1607, 84.49830
349.6428, 84.85564
350.1249, 84.90331
350.6070, 85.27700
351.0891, 85.50182
351.5713, 85.30521
352.0534, 84.97535
352.5355, 84.95022
353.0176, 85.22398
353.4997, 85.60247
353.9818, 85.99238
354.4640, 86.37419
354.9461, 86.73507
355.4282, 87.13779
355.9103, 87.42740
356.3924, 87.31281
356.8745, 86.91512
357.3567, 86.71407
357.8388, 87.17893
358.3209, 87.84498
358.8030, 88.29433
359.2851, 88.37087
359.7672, 88.43982
360.2494, 88.93967
360.7315, 89.55062
361.2136, 89.67820
361.6957, 88.82492
362.1779, 87.66174
362.6600, 86.41846
363.1421, 85.07887
363.6242, 83.97077
364.1063, 83.26294
364.5884, 82.80244
365.0706, 82.43860
365.5527, 82.28891
366.0348, 82.07752
366.5169, 81.75134
366.9990, 81.30961
367.4811, 80.77242
367.9633, 79.81348
368.4454, 78.98199
368.9275, 78.61179
369.4096, 79.48192
369.8917, 79.73153
370.3738, 78.91368
370.8560, 77.46675
371.3381, 76.63532
371.8202, 76.71536
372.3023, 77.00283
372.7844, 77.28914
373.2665, 77.64023
373.7487, 77.69759
374.2308, 77.33200
374.7129, 76.80355
375.1950, 76.45509
375.6771, 76.32211
376.1592, 76.25475
376.6414, 76.20439
377.1235, 76.18069
377.6056, 76.32093
378.0877, 76.69051
378.5698, 77.01595
379.0519, 76.98296
379.5341, 76.58903
380.0162, 76.35750
380.4983, 76.39437
380.9804, 76.62252
381.4625, 76.86369
381.9446, 77.12180
382.4268, 77.45892
382.9089, 78.01612
383.3910, 78.69176
383.8731, 79.11164
384.3553, 79.19274
384.8374, 79.26823
385.3195, 79.84338
385.8016, 80.75032
386.2837, 81.50467
386.7658, 81.65968
387.2480, 81.64864
387.7301, 82.01517
388.2122, 82.75328
388.6943, 83.68948
389.1764, 84.78577
389.6585, 85.96944
390.1407, 87.12790
390.6228, 88.21949
391.1049, 89.29262
391.5870, 90.34099
392.0691, 91.38175
392.5512, 92.46691
393.0334, 93.64122
393.5155, 94.85300
393.9976, 96.03012
394.4797, 97.09229
394.9618, 98.36732
395.4439, 100.2132
395.9261, 102.2614
396.4082, 104.0150
396.8903, 104.6872
397.3724, 105.7541
397.8545, 107.9043
398.3366, 111.2065
398.8188, 113.9756
399.3009, 115.6832
399.7830, 117.0973
400.2651, 118.6861
400.7472, 120.4125
401.2293, 122.3761
401.7115, 124.6261
402.1936, 127.1203
402.6757, 129.7797
403.1578, 132.8094
403.6399, 135.6636
404.1220, 138.1246
404.6042, 140.2189
405.0863, 141.8134
405.5684, 142.7979
406.0505, 143.4334
406.5326, 144.0527
407.0147, 144.6790
407.4969, 145.1327
407.9790, 145.3933
408.4611, 145.4446
408.9432, 145.2345
409.4254, 144.7682
409.9075, 143.9944
410.3896, 142.7019
410.8717, 141.0166
411.3538, 139.5060
411.8359, 138.2958
412.3181, 137.2190
412.8002, 136.2451
413.2823, 135.2824
413.7644, 133.8902
414.2465, 131.3385
414.7286, 128.4478
415.2108, 126.3518
415.6929, 125.1381
416.1750, 124.0626
416.6571, 122.6438
417.1392, 121.0088
417.6213, 119.2828
418.1035, 117.6060
418.5856, 115.7664
419.0677, 113.5845
419.5498, 111.1199
420.0319, 108.6805
420.5140, 106.2972
420.9962, 104.0133
421.4783, 101.8579
421.9604, 99.87301
422.4425, 97.92885
422.9246, 96.00261
423.4067, 94.12175
423.8889, 92.29743
424.3710, 90.49183
424.8531, 88.79870
425.3352, 87.32195
425.8173, 86.06320
426.2994, 84.66019
426.7816, 82.86369
427.2637, 81.18797
427.7458, 79.99707
428.2279, 79.47665
428.7100, 78.97452
429.1921, 78.49683
429.6743, 77.98988
430.1564, 77.29624
430.6385, 76.34219
431.1206, 75.48723
431.6028, 74.90876
432.0849, 74.59042
432.5670, 74.22810
433.0491, 73.78600
433.5312, 73.44476
434.0133, 73.56348
434.4955, 74.03861
434.9776, 74.12562
435.4597, 73.49801
435.9418, 72.57155
436.4239, 72.01329
436.9060, 71.81052
437.3882, 71.84903
437.8703, 72.25719
438.3524, 72.79130
438.8345, 73.05785
439.3166, 72.97785
439.7987, 72.88442
440.2809, 73.01218
440.7630, 73.30580
441.2451, 73.67749
441.7272, 74.24766
442.2093, 74.74702
442.6914, 74.96326
443.1736, 74.94200
443.6557, 74.99317
444.1378, 75.31069
444.6199, 75.68339
445.1020, 75.96857
445.5841, 76.06303
446.0663, 76.23232
446.5484, 76.61609
447.0305, 77.07580
447.5126, 77.37945
447.9947, 77.39931
448.4768, 77.41741
448.9590, 77.58963
449.4411, 77.92609
449.9232, 77.77744
450.4053, 76.97117
450.8874, 75.92355
451.3695, 74.89878
451.8517, 73.85201
452.3338, 73.00444
452.8159, 72.41383
453.2980, 71.99770
453.7801, 71.54319
454.2622, 71.03822
454.7444, 70.72553
455.2265, 70.78014
455.7086, 71.12731
456.1907, 71.47998
456.6729, 71.84750
457.1550, 72.15646
457.6371, 72.18981
458.1192, 72.12041
458.6013, 72.41935
459.0834, 73.35039
459.5656, 74.40713
460.0477, 75.04157
460.5298, 75.34945
461.0119, 75.58345
461.4940, 75.60888
461.9761, 75.80264
462.4583, 76.56595
462.9404, 77.97785
463.4225, 79.34636
463.9046, 80.31682
464.3867, 81.11949
464.8688, 81.94887
465.3510, 82.83435
465.8331, 83.77927
466.3152, 84.68999
466.7973, 85.63753
467.2794, 86.87700
467.7615, 89.06444
468.2437, 90.93098
468.7258, 91.97090
469.2079, 91.94821
469.6900, 92.17094
470.1721, 92.87322
470.6542, 93.56137
471.1364, 93.71974
471.6185, 93.28854
472.1006, 92.55791
472.5827, 91.56029
473.0648, 90.30755
473.5469, 88.79996
474.0291, 87.02625
474.5112, 85.13420
474.9933, 83.14003
475.4754, 81.08467
475.9575, 79.09496
476.4396, 77.15541
476.9218, 75.43031
477.4039, 73.99608
477.8860, 72.92138
478.3681, 72.46681
478.8503, 73.24326
479.3324, 74.01854
479.8145, 73.24204
480.2966, 71.32346
480.7787, 69.81233
481.2608, 69.88175
481.7430, 70.35403
482.2251, 70.36022
482.7072, 69.69621
483.1893, 69.18710
483.6714, 69.32850
484.1535, 69.67238
484.6357, 69.76673
485.1178, 69.25392
485.5999, 68.81704
486.0820, 68.57646
486.5641, 68.49563
487.0462, 68.44783
487.5284, 68.52863
488.0105, 68.51454
488.4926, 68.28246
488.9747, 67.78207
489.4568, 67.40464
489.9389, 67.17286
490.4211, 67.02901
490.9032, 66.92920
491.3853, 66.87560
491.8674, 66.81035
492.3495, 66.70904
492.8316, 66.60424
493.3138, 66.58769
493.7959, 66.65020
494.2780, 66.69454
494.7601, 66.62165
495.2422, 66.50172
495.7243, 66.51400
496.2065, 66.67389
496.6886, 66.76059
497.1707, 66.39602
497.6528, 65.91186
498.1349, 65.78092
498.6170, 66.34972
499.0992, 66.66800
499.5813, 67.24395
500.0634, 67.64598
500.5455, 67.88345
501.0276, 67.46345
501.5097, 67.89243
501.9919, 67.98122
502.4740, 68.05602
502.9561, 68.60448
503.4382, 68.28012
503.9203, 68.82108
504.4025, 69.01665
504.8846, 69.37029
505.3667, 69.38157
505.8488, 69.49860
506.3309, 69.95808
506.8130, 70.22793
507.2952, 70.19985
507.7773, 70.38223
508.2594, 70.86792
508.7415, 71.43243
509.2236, 71.79575
509.7057, 71.94920
510.1879, 72.01506
510.6700, 72.00998
511.1521, 71.99483
511.6342, 72.17887
512.1163, 72.63090
512.5984, 73.14749
513.0806, 73.47030
513.5627, 73.69892
514.0448, 74.04154
514.5269, 74.76359
515.0090, 75.48640
515.4911, 75.88271
515.9733, 76.00945
516.4554, 76.25140
516.9375, 76.80153
517.4196, 77.48103
517.9017, 78.21600
518.3839, 79.08952
518.8660, 79.79039
519.3481, 80.11927
519.8302, 80.33208
520.3123, 80.70026
520.7944, 81.35206
521.2766, 81.91834
521.7587, 82.26538
522.2408, 82.49602
522.7229, 83.08245
523.2050, 84.13145
523.6871, 85.14698
524.1693, 85.85378
524.6514, 86.26649
525.1335, 86.68958
525.6156, 87.11793
526.0977, 87.60517
526.5798, 88.22612
527.0620, 88.95869
527.5441, 89.71781
528.0262, 90.45655
528.5083, 91.26603
528.9904, 92.21748
529.4725, 93.30509
529.9547, 94.51360
530.4368, 95.87684
530.9189, 97.31326
531.4010, 98.80921
531.8831, 100.3740
532.3652, 101.7853
532.8474, 102.7300
533.3295, 103.6887
533.8116, 104.9862
534.2937, 106.8053
534.7758, 108.7061
535.2579, 110.7393
535.7401, 112.8177
536.2222, 114.6935
536.7043, 116.1478
537.1865, 118.0172
537.6686, 120.6323
538.1507, 123.7943
538.6328, 126.3802
539.1149, 128.3197
539.5970, 130.2907
540.0792, 132.6301
540.5613, 135.3413
541.0434, 138.3782
541.5255, 141.7666
542.0076, 145.1925
542.4897, 148.3993
542.9719, 151.4378
543.4540, 154.4349
543.9361, 157.3270
544.4182, 160.2837
544.9003, 163.5141
545.3824, 166.8732
545.8646, 170.0409
546.3467, 172.5080
546.8288, 175.0933
547.3109, 178.5632
547.7930, 182.9359
548.2751, 186.0892
548.7573, 186.8384
549.2394, 186.9438
549.7215, 187.3854
550.2036, 188.6395
550.6857, 189.2015
551.1678, 189.1951
551.6500, 188.3707
552.1321, 186.3158
552.6142, 182.9300
553.0963, 178.9297
553.5784, 174.4108
554.0605, 169.4473
554.5427, 164.0871
555.0248, 158.3546
555.5069, 152.6651
555.9890, 147.3218
556.4711, 142.2167
556.9532, 137.1747
557.4354, 132.1887
557.9175, 127.3869
558.3996, 122.8566
558.8817, 118.6156
559.3638, 114.6877
559.8459, 111.1095
560.3281, 107.8585
560.8102, 105.0305
561.2923, 102.5307
561.7744, 100.2311
562.2565, 98.22150
562.7386, 96.28957
563.2208, 94.34502
563.7029, 92.42370
564.1850, 90.63339
564.6671, 88.94347
565.1492, 87.47279
565.6313, 86.33115
566.1135, 85.55637
566.5956, 84.70560
567.0777, 83.75468
567.5598, 82.83200
568.0419, 82.10175
568.5240, 81.52831
569.0062, 80.87458
569.4883, 80.06233
569.9704, 79.24615
570.4525, 78.66212
570.9346, 78.23771
571.4167, 77.81273
571.8989, 77.30882
572.3810, 76.77208
572.8631, 76.14664
573.3452, 75.47623
573.8273, 74.99987
574.3094, 75.07035
574.7916, 75.15923
575.2737, 74.94421
575.7558, 74.24664
576.2379, 73.73495
576.7200, 73.56298
577.2021, 73.47180
577.6843, 73.19933
578.1664, 72.61592
578.6485, 72.26054
579.1306, 72.24969
579.6127, 72.42091
580.0948, 72.47175
580.5770, 72.40235
581.0591, 72.23182
581.5412, 71.89232
582.0233, 71.49947
582.5054, 71.36965
582.9875, 71.46641
583.4697, 71.49748
583.9518, 71.14816
584.4340, 70.69287
584.9161, 70.44548
585.3982, 70.45887
585.8803, 70.50134
586.3624, 70.56153
586.8445, 70.54316
587.3267, 70.35630
587.8088, 69.83388
588.2909, 69.33350
588.7730, 68.86492
589.2551, 68.44983
589.7372, 68.12444
590.2194, 67.87653
590.7015, 67.75017
591.1836, 67.80625
591.6657, 67.99216
592.1478, 68.04708
592.6299, 67.96891
593.1121, 67.76912
593.5942, 67.37711
594.0763, 66.86127
594.5584, 66.47551
595.0405, 66.23275
595.5226, 66.06161
596.0048, 65.93169
596.4869, 65.82548
596.9690, 65.70657
597.4511, 65.54393
597.9332, 65.43067
598.4153, 65.50705
598.8975, 65.64614
599.3796, 65.65980
599.8617, 65.49348
600.3438, 65.20493
600.8259, 64.72852
601.3080, 64.12475
601.7902, 63.64007
602.2723, 63.34349
602.7544, 63.05154
603.2365, 62.64118
603.7186, 62.12149
604.2007, 61.94925
604.6829, 62.19149
605.1650, 62.46054
605.6471, 62.38960
606.1292, 62.06225
606.6113, 61.85052
607.0934, 61.81640
607.5756, 61.78655
608.0577, 61.59376
608.5398, 61.28302
609.0219, 60.92397
609.5040, 60.43605
609.9861, 60.04513
610.4683, 60.01393
610.9504, 60.16459
611.4325, 60.11095
611.9146, 59.41412
612.3967, 58.85491
612.8788, 58.71907
613.3610, 58.96916
613.8431, 59.18260
614.3252, 59.40724
614.8073, 59.51199
615.2894, 59.38889
615.7715, 59.02031
616.2537, 58.78662
616.7358, 58.72240
617.2179, 58.62797
617.7000, 58.15876
618.1821, 57.47178
618.6642, 57.17936
619.1464, 57.45350
619.6285, 57.86502
620.1106, 58.04955
620.5927, 58.05664
621.0748, 57.97273
621.5569, 57.81487
622.0391, 57.58801
622.5212, 57.20550
623.0033, 56.74455
623.4854, 56.44007
623.9675, 56.41258
624.4496, 56.47278
624.9318, 56.59137
625.4139, 56.76736
625.8960, 56.90786
626.3781, 56.99970
626.8602, 57.08566
627.3423, 57.22903
627.8245, 57.42397
628.3066, 57.43185
628.7887, 57.22694
629.2708, 56.96077
629.7529, 56.65036
630.2350, 56.41050
630.7172, 56.59467
631.1993, 57.48188
631.6815, 58.23700
632.1636, 57.83651
632.6457, 56.92497
633.1278, 56.52409
633.6099, 57.62766
634.0920, 58.59715
634.5742, 58.82986
635.0563, 58.49843
635.5384, 58.32381
636.0205, 58.51714
636.5026, 58.58602
636.9847, 58.28205
637.4669, 57.65367
637.9490, 57.49618
638.4311, 57.89243
638.9132, 58.38255
639.3953, 58.67376
639.8774, 58.80172
640.3596, 58.93584
640.8417, 59.08960
641.3238, 59.17331
641.8059, 59.00308
642.2880, 58.74289
642.7701, 58.64596
643.2523, 58.82795
643.7344, 59.00674
644.2165, 59.01937
644.6986, 58.95016
645.1807, 58.91131
645.6628, 58.90638
646.1450, 58.95982
646.6271, 59.09969
647.1092, 59.29298
647.5913, 59.46229
648.0734, 59.62685
648.5555, 59.70904
649.0377, 59.63511
649.5198, 59.46824
650.0019, 59.51082
650.4840, 59.76153
650.9661, 60.05192
651.4482, 60.35242
651.9304, 60.59601
652.4125, 60.61403
652.8946, 60.40593
653.3767, 60.22638
653.8588, 60.21395
654.3409, 60.32152
654.8231, 60.53204
655.3052, 60.89452
655.7873, 61.20575
656.2694, 61.39956
656.7515, 61.53288
657.2336, 61.64444
657.7158, 61.63876
658.1979, 61.84089
658.6800, 62.36340
659.1621, 63.00340
659.6442, 63.36996
660.1263, 63.45735
660.6085, 63.61047
661.0906, 63.97691
661.5727, 64.41116
662.0548, 64.62747
662.5369, 64.68117
663.0190, 64.78398
663.5012, 65.16468
663.9833, 65.54926
664.4654, 65.59341
664.9475, 65.36790
665.4296, 65.45979
665.9117, 66.49740
666.3939, 67.52782
666.8760, 67.99033
667.3581, 67.75468
667.8402, 67.85040
668.3223, 68.37280
668.8044, 69.07888
669.2866, 69.85806
669.7687, 70.72646
670.2508, 71.31892
670.7329, 71.57994
671.2150, 71.72647
671.6971, 71.93681
672.1793, 72.23105
672.6614, 72.68797
673.1435, 73.40129
673.6256, 74.08692
674.1077, 74.40377
674.5898, 74.57881
675.0720, 74.95817
675.5541, 76.01865
676.0362, 76.89053
676.5183, 77.14713
677.0004, 77.04082
677.4825, 77.27157
677.9647, 77.94035
678.4468, 78.76059
678.9290, 79.72539
679.4111, 80.77187
679.8932, 81.57430
680.3753, 82.10947
680.8574, 82.74217
681.3395, 83.83728
681.8217, 85.13663
682.3038, 86.02427
682.7859, 86.52749
683.2680, 86.99255
683.7501, 87.58418
684.2322, 88.28748
684.7144, 89.04612
685.1965, 89.79646
685.6786, 90.92989
686.1607, 93.03052
686.6428, 95.19987
687.1249, 96.79895
687.6071, 97.52674
688.0892, 98.30032
688.5713, 99.01006
689.0534, 99.94543
689.5355, 101.5934
690.0176, 103.9320
690.4998, 106.0574
690.9819, 107.7269
691.4640, 109.3582
691.9461, 111.3831
692.4282, 113.7688
692.9103, 116.4310
693.3925, 119.3722
693.8746, 122.5373
694.3567, 125.6910
694.8388, 129.0258
695.3209, 132.9955
695.8030, 137.9044
696.2852, 143.2563
696.7673, 148.9064
697.2494, 154.9303
697.7315, 161.4316
698.2136, 168.3726
698.6957, 175.9111
699.1779, 184.1285
699.6600, 193.0348
700.1421, 202.5786
700.6242, 212.7724
701.1063, 223.1403
701.5884, 233.2434
702.0706, 243.3897
702.5527, 253.9256
703.0348, 264.8782
703.5169, 276.2544
703.9990, 287.9193
704.4811, 300.0217
704.9633, 312.4984
705.4454, 325.4038
705.9275, 338.7452
706.4096, 352.3884
706.8917, 366.6010
707.3738, 381.8250
707.8560, 397.8878
708.3381, 414.1946
708.8202, 430.7356
709.3023, 447.3713
709.7844, 464.6708
710.2665, 481.8727
710.7487, 497.3866
711.2308, 510.7308
711.7129, 522.1234
712.1950, 532.7171
712.6771, 541.3218
713.1592, 546.1545
713.6414, 546.8942
714.1235, 543.4523
714.6056, 536.0434
715.0877, 524.2805
715.5698, 506.8693
716.0519, 482.5171
716.5341, 455.8798
717.0162, 427.7441
717.4983, 398.5108
717.9804, 369.6760
718.4625, 341.1018
718.9446, 314.2233
719.4268, 289.5033
719.9089, 267.0517
720.3910, 246.7643
720.8731, 228.7715
721.3552, 212.7651
721.8373, 199.1890
722.3195, 187.2530
722.8016, 176.8899
723.2837, 168.2299
723.7658, 160.0966
724.2479, 152.3674
724.7300, 145.3201
725.2122, 139.2232
725.6943, 134.0859
726.1765, 129.2112
726.6586, 124.5272
727.1407, 120.1992
727.6228, 116.2283
728.1049, 112.6536
728.5870, 109.7876
729.0692, 107.6672
729.5513, 105.6817
730.0334, 103.2592
730.5155, 100.8305
730.9976, 98.89861
731.4797, 97.70784
731.9619, 96.45647
732.4440, 94.96526
732.9261, 93.39316
733.4082, 91.78454
733.8903, 90.01134
734.3724, 88.71357
734.8546, 88.03674
735.3367, 87.59395
735.8188, 86.95171
736.3009, 86.12856
736.7830, 85.10654
737.2651, 83.72959
737.7473, 82.65964
738.2294, 83.15568
738.7115, 84.22502
739.1936, 84.36922
739.6757, 82.16048
740.1578, 80.18829
740.6400, 79.24361
741.1221, 78.96507
741.6042, 78.69085
742.0863, 78.40900
742.5684, 78.15620
743.0505, 77.94180
743.5327, 77.75251
744.0148, 77.55282
744.4969, 77.34679
744.9790, 77.16819
745.4611, 77.03637
745.9432, 76.92985
746.4254, 76.82771
746.9075, 76.72831
747.3896, 76.62790
747.8717, 76.53069
748.3538, 76.42863
748.8359, 76.30291
749.3181, 76.16577
749.8002, 76.06430
750.2823, 75.92458
750.7644, 75.95715
751.2465, 76.27065
751.7286, 76.80423
752.2108, 77.26962
752.6929, 77.66929
753.1750, 77.99966
753.6571, 78.17184
754.1392, 78.30922
754.6213, 78.60123
755.1035, 79.04367
755.5856, 79.59472
756.0677, 80.26324
756.5498, 81.00968
757.0319, 81.87920
757.5140, 82.87135
757.9962, 83.68403
758.4783, 84.19856
758.9604, 84.67400
759.4425, 85.19112
759.9246, 85.74862
760.4067, 86.51149
760.8889, 87.48343
761.3710, 88.60080
761.8531, 89.98444
762.3352, 91.42760
762.8173, 92.51174
763.2994, 93.21965
763.7816, 93.81095
764.2637, 94.40025
764.7458, 94.96084
765.2279, 95.47788
765.7100, 95.97093
766.1921, 96.34779
766.6743, 96.54739
767.1564, 96.70765
767.6385, 96.92503
768.1206, 97.21600
768.6027, 97.37322
769.0848, 97.35562
769.5670, 97.44386
770.0491, 98.06539
770.5312, 98.93709
771.0133, 99.41495
771.4954, 99.38094
771.9775, 99.44956
772.4597, 100.0371
772.9418, 100.8791
773.4240, 101.7609
773.9061, 102.6319
774.3882, 103.6020
774.8703, 104.7029
775.3524, 105.8686
775.8345, 107.0718
776.3167, 108.3245
776.7988, 109.4942
777.2809, 110.5707
777.7630, 111.5288
778.2451, 112.4588
778.7272, 113.2211
779.2094, 113.4905
779.6915, 113.1330
780.1736, 112.5953
780.6557, 112.2755
781.1378, 111.8388
781.6199, 110.9381
782.1021, 109.0807
782.5842, 107.5105
783.0663, 106.3469
783.5484, 105.3322
784.0305, 104.1801
784.5126, 102.8722
784.9948, 101.7359
785.4769, 100.8540
785.9590, 99.96162
786.4411, 98.62681
786.9232, 97.10020
787.4053, 95.83457
787.8875, 95.01795
788.3696, 94.24625
788.8517, 93.46392
789.3338, 92.53767
789.8159, 91.25755
790.2980, 88.96544
790.7802, 87.55208
791.2623, 87.40488
791.7444, 87.71712
792.2265, 87.41822
792.7086, 86.54488
793.1907, 85.80007
793.6729, 85.31586
794.1550, 84.89084
794.6371, 84.25682
795.1192, 83.53173
795.6013, 82.89321
796.0834, 82.35710
796.5656, 81.98270
797.0477, 81.99158
797.5298, 82.07639
798.0119, 81.82507
798.4940, 80.90417
798.9761, 80.45802
799.4583, 80.72066
799.9404, 81.20220
800.4225, 81.07387
800.9046, 80.49817
801.3867, 80.57166
801.8688, 81.70067
802.3510, 82.82101
802.8331, 82.72579
803.3152, 82.01261
803.7973, 81.50841
804.2794, 81.49932
804.7615, 81.59151
805.2437, 81.78834
805.7258, 82.00089
806.2079, 82.13782
806.6900, 82.19156
807.1721, 82.18391
807.6542, 82.09290
808.1364, 82.00715
808.6185, 82.04161
809.1006, 82.17825
809.5827, 82.38208
810.0648, 82.67416
810.5469, 82.93142
811.0291, 83.03902
811.5112, 83.07043
811.9933, 83.11229
812.4754, 83.18082
812.9575, 83.25488
813.4396, 83.26013
813.9218, 83.34085
814.4039, 83.70992
814.8860, 84.39568
815.3681, 84.98245
815.8502, 85.44189
816.3323, 85.73656
816.8145, 85.77174
817.2966, 85.62462
817.7787, 85.38203
818.2608, 84.97265
818.7429, 84.77995
819.2251, 85.29844
819.7072, 85.94844
820.1893, 86.12160
820.6714, 85.46457
821.1536, 85.08343
821.6357, 85.08796
822.1178, 85.16966
822.5999, 84.91272
823.0820, 84.39643
823.5641, 84.27420
824.0463, 84.68771
824.5284, 84.91743
825.0105, 83.98946
825.4926, 82.65667
825.9747, 81.83400
826.4568, 81.85859
826.9390, 81.81575
827.4211, 81.36683
827.9032, 80.88134
828.3853, 80.61654
828.8674, 80.63824
829.3495, 80.58914
829.8317, 80.47662
830.3138, 80.25300
830.7959, 79.76516
831.2780, 79.16232
831.7601, 78.77971
832.2422, 78.66269
832.7244, 78.61056
833.2065, 78.50075
833.6886, 78.40776
834.1707, 78.42155
834.6528, 78.61840
835.1349, 78.59486
835.6171, 78.17345
836.0992, 77.83369
836.5813, 77.98760
837.0634, 78.58627
837.5455, 78.82484
838.0276, 78.69614
838.5098, 78.60266
838.9919, 78.89832
839.4740, 79.36306
839.9561, 79.87059
840.4382, 80.40102
840.9203, 80.57414
841.4025, 80.06925
841.8846, 79.35127
842.3667, 78.59383
842.8488, 77.79883
843.3309, 77.08332
843.8130, 76.47578
844.2952, 75.79200
844.7773, 74.80489
845.2594, 73.69900
845.7415, 72.87301
846.2236, 72.31829
846.7057, 72.01234
847.1879, 72.03844
847.6700, 72.22191
848.1521, 72.52971
848.6342, 72.93517
849.1163, 73.24488
849.5984, 73.36064
850.0806, 73.55067
850.5627, 73.84970
851.0448, 74.30891
851.5269, 75.18321
852.0090, 76.42723
852.4911, 77.66759
852.9733, 78.47190
853.4554, 79.41560
853.9375, 81.14179
854.4196, 83.42528
854.9017, 85.71973
855.3839, 87.63870
855.8660, 89.80190
856.3481, 92.27660
856.8302, 95.08313
857.3123, 98.28026
857.7944, 101.8996
858.2766, 105.8362
858.7587, 110.0923
859.2408, 114.6736
859.7229, 119.6455
860.2050, 124.9144
860.6871, 130.1635
861.1693, 134.9640
861.6514, 140.2456
862.1335, 146.4985
862.6156, 153.3513
863.0977, 160.1489
863.5798, 166.8335
864.0620, 173.7749
864.5441, 181.0968
865.0262, 188.6433
865.5083, 196.4596
865.9904, 204.5166
866.4726, 212.9104
866.9547, 221.8398
867.4368, 230.4540
867.9189, 238.3577
868.4011, 245.6437
868.8832, 252.6069
869.3653, 259.8288
869.8474, 265.3427
870.3295, 269.0979
870.8116, 271.2159
871.2938, 271.7084
871.7759, 270.5858
872.2580, 268.1740
872.7401, 264.4671
873.2222, 258.9254
873.7043, 250.5731
874.1865, 240.5342
874.6686, 229.5566
875.1507, 217.6247
875.6328, 206.0087
876.1149, 194.9806
876.5970, 184.5020
877.0792, 174.5034
877.5613, 165.0310
878.0434, 156.5660
878.5255, 149.1408
879.0076, 142.5462
879.4897, 136.8735
879.9719, 131.9955
880.4540, 127.8904
880.9361, 124.4786
881.4182, 121.4855
881.9003, 118.8326
882.3824, 116.5486
882.8646, 114.6441
883.3467, 113.1100
883.8288, 112.0471
884.3109, 111.5681
884.7930, 110.8722
885.2751, 109.6714
885.7573, 108.2926
886.2394, 107.3806
886.7215, 106.7170
887.2036, 105.7664
887.6857, 104.1734
888.1678, 102.5520
888.6500, 101.3705
889.1321, 100.2229
889.6142, 98.52708
890.0963, 95.98045
890.5784, 93.74665
891.0605, 91.92111
891.5427, 90.33919
892.0248, 88.81330
892.5069, 87.33094
892.9890, 85.83990
893.4711, 84.34163
893.9532, 82.87988
894.4354, 81.66704
894.9175, 80.40107
895.3996, 78.73832
895.8817, 76.49174
896.3638, 74.65367
896.8459, 73.34257
897.3281, 72.22265
897.8102, 71.14900
898.2923, 70.10057
898.7744, 69.02029
899.2565, 67.90744
899.7386, 66.76680
900.2208, 65.39461
900.7029, 64.15876
901.1850, 63.37325
901.6671, 63.00002
902.1492, 62.64916
902.6313, 62.35258
903.1135, 61.94913
903.5956, 61.35122
904.0777, 60.64941
904.5598, 60.08908
905.0419, 59.65713
905.5240, 59.21785
906.0062, 58.67395
906.4883, 58.18200
906.9704, 57.88048
907.4525, 57.72782
907.9346, 57.65351
908.4167, 57.82302
908.8989, 57.80001
909.3810, 57.45008
909.8631, 57.02418
910.3452, 56.83346
910.8273, 56.86702
911.3094, 57.01860
911.7916, 57.30267
912.2737, 57.47308
912.7558, 57.14459
913.2380, 56.66939
913.7201, 56.47161
914.2022, 56.69256
914.6843, 56.73269
915.1664, 56.28908
915.6486, 55.91421
916.1307, 55.93609
916.6128, 56.32732
917.0949, 56.66965
917.5770, 56.96300
918.0591, 57.06364
918.5413, 56.68390
919.0234, 56.21149
919.5055, 56.04084
919.9876, 56.14048
920.4697, 56.32628
920.9518, 56.73246
921.4340, 56.98050
921.9161, 56.92819
922.3982, 56.70355
922.8803, 56.66175
923.3624, 56.79417
923.8445, 56.79604
924.3267, 56.52746
924.8088, 56.22345
925.2909, 56.09515
925.7730, 56.11507
926.2551, 56.24977
926.7372, 56.60133
927.2194, 56.87206
927.7015, 57.04057
928.1836, 57.11537
928.6657, 57.09033
929.1478, 56.96674
929.6299, 56.77350
930.1121, 56.50387
930.5942, 56.33569
931.0763, 56.53758
931.5584, 56.84956
932.0405, 56.93668
932.5226, 56.77329
933.0048, 56.80293
933.4869, 57.40711
933.9690, 57.86973
934.4511, 57.90202
934.9332, 57.59038
935.4153, 57.27522
935.8975, 56.96760
936.3796, 56.99133
936.8617, 57.80199
937.3438, 58.65288
937.8259, 58.73391
938.3080, 58.30006
938.7902, 57.85942
939.2723, 57.37061
939.7544, 57.12714
940.2365, 57.17114
940.7186, 57.44828
941.2007, 58.01974
941.6829, 58.83598
942.1650, 59.29450
942.6471, 59.30544
943.1292, 59.06079
943.6113, 58.43724
944.0934, 57.83642
944.5756, 57.70991
945.0577, 58.22445
945.5398, 58.58710
946.0219, 58.61711
946.5040, 58.68554
946.9861, 59.03625
947.4683, 59.59697
947.9504, 59.93188
948.4325, 60.04855
948.9146, 59.99073
949.3967, 59.50759
949.8788, 59.11328
950.3610, 59.32229
950.8431, 59.92970
951.3252, 60.31546
951.8073, 60.40432
952.2894, 60.27227
952.7715, 59.79732
953.2537, 59.31126
953.7358, 59.45609
954.2179, 60.08312
954.7000, 60.60301
955.1821, 60.88149
955.6642, 61.07662
956.1464, 61.23585
956.6285, 61.40173
957.1106, 61.62248
957.5927, 61.91827
958.0748, 62.19145
958.5569, 62.44886
959.0391, 62.66525
959.5212, 62.84887
960.0033, 62.97462
960.4855, 62.89072
960.9676, 62.64507
961.4497, 62.51215
961.9318, 62.77305
962.4139, 63.04321
962.8961, 63.05878
963.3782, 62.94336
963.8603, 63.05729
964.3424, 63.46190
964.8245, 63.85379
965.3066, 64.20655
965.7888, 64.44241
966.2709, 64.33438
966.7530, 64.05944
967.2351, 63.94141
967.7172, 64.04147
968.1993, 64.34377
968.6815, 65.07757
969.1636, 65.81792
969.6457, 66.26024
970.1278, 66.37310
970.6099, 66.57846
971.0920, 66.88628
971.5742, 67.13265
972.0563, 67.10612
972.5384, 67.01285
973.0205, 67.09943
973.5026, 67.35186
973.9847, 67.68928
974.4669, 68.36004
974.9490, 68.73934
975.4311, 68.57108
975.9132, 68.14754
976.3953, 68.09321
976.8774, 68.37941
977.3596, 68.56624
977.8417, 68.54602
978.3238, 68.45235
978.8059, 68.47431
979.2880, 68.45153
979.7701, 68.15797
980.2523, 67.39348
980.7344, 66.94387
981.2165, 66.90684
981.6986, 67.03965
982.1807, 67.28909
982.6628, 67.58258
983.1450, 67.51263
983.6271, 67.14021
984.1092, 66.84946
984.5913, 66.96659
985.0734, 67.11669
985.5555, 67.14891
986.0377, 67.04185
986.5198, 66.74448
987.0019, 66.13499
987.4840, 65.77563
987.9661, 65.81295
988.4482, 65.95338
988.9304, 65.84250
989.4125, 65.53482
989.8946, 65.05824
990.3767, 64.36103
990.8588, 63.89875
991.3409, 64.11164
991.8231, 64.38604
992.3052, 64.33974
992.7873, 63.99067
993.2694, 63.79253
993.7515, 63.74794
994.2336, 63.77295
994.7158, 63.87471
995.1979, 63.97285
995.6800, 63.92796
996.1621, 63.80983
996.6442, 63.78273
997.1263, 63.98946
997.6085, 64.15482
998.0906, 64.25639
998.5727, 64.30079
999.0548, 64.26278
999.5369, 64.16465
1000.019, 64.20232
1000.501, 64.41276
1000.983, 64.48529
1001.465, 63.99711
1001.948, 63.43780
1002.430, 63.22448
1002.912, 63.38446
1003.394, 63.41212
1003.876, 63.26057
1004.358, 63.13773
1004.840, 63.15685
1005.322, 63.21116
1005.804, 63.05256
1006.287, 62.76115
1006.769, 62.52918
1007.251, 62.44375
1007.733, 62.40559
1008.215, 62.38085
1008.697, 62.39162
1009.179, 62.49415
1009.661, 62.70983
1010.144, 62.70760
1010.626, 62.45896
1011.108, 62.25225
1011.590, 62.43850
1012.072, 62.69387
1012.554, 62.68900
1013.036, 62.43230
1013.518, 62.11867
1014.000, 61.55252
1014.483, 61.36106
1014.965, 61.85401
1015.447, 62.60722
1015.929, 62.76780
1016.411, 62.44249
1016.893, 61.96626
1017.375, 61.33055
1017.857, 60.88269
1018.340, 61.03926
1018.822, 61.33327
1019.304, 61.33229
1019.786, 60.97908
1020.268, 60.74487
1020.750, 60.63934
1021.232, 60.58687
1021.714, 60.55915
1022.196, 60.54285
1022.679, 60.48501
1023.161, 60.41974
1023.643, 60.44703
1024.125, 60.78512
1024.607, 60.96025
1025.089, 60.82244
1025.571, 60.57965
1026.053, 60.59436
1026.536, 60.80829
1027.018, 60.67186
1027.500, 60.09711
1027.982, 59.60863
1028.464, 59.79554
1028.946, 60.08324
1029.428, 59.91544
1029.910, 59.28009
1030.392, 59.16279
1030.875, 59.75310
1031.357, 60.14959
1031.839, 59.94534
1032.321, 59.50557
1032.803, 59.53928
1033.285, 59.82872
1033.767, 59.90593
1034.249, 59.51353
1034.732, 59.12349
1035.214, 58.76510
1035.696, 58.53228
1036.178, 58.53042
1036.660, 58.75710
1037.142, 59.00282
1037.624, 59.25605
1038.106, 59.34129
1038.589, 58.92139
1039.071, 58.48625
1039.553, 58.45866
1040.035, 58.72721
1040.517, 58.87722
1040.999, 58.87325
1041.481, 58.73813
1041.963, 58.36531
1042.445, 57.37260
1042.927, 57.81837
1043.410, 58.09033
1043.892, 58.19761
1044.374, 57.64743
1044.856, 57.94622
1045.338, 57.90478
1045.820, 57.84938
1046.302, 58.26768
1046.784, 57.81312
1047.267, 58.22398
1047.749, 58.28933
1048.231, 58.78510
1048.713, 58.23423
1049.195, 57.71973
1049.677, 57.91838
1050.159, 58.41000
1050.641, 58.58455
1051.124, 58.14322
1051.606, 58.17508
1052.088, 58.83802
1052.570, 59.40215
1053.052, 59.04551
1053.534, 58.32245
1054.016, 58.38383
1054.498, 59.07955
1054.980, 59.59126
1055.463, 59.50136
1055.945, 59.29022
1056.427, 58.98689
1056.909, 58.71848
1057.391, 58.76846
1057.873, 59.08459
1058.355, 59.21093
1058.837, 59.06063
1059.319, 58.91866
1059.802, 59.00776
1060.284, 59.19065
1060.766, 59.37809
1061.248, 59.56514
1061.730, 59.79296
1062.212, 60.10044
1062.694, 60.22754
1063.176, 59.99334
1063.659, 59.67855
1064.141, 59.69649
1064.623, 59.91796
1065.105, 60.13971
1065.587, 60.38178
1066.069, 60.42205
1066.551, 60.07965
1067.033, 59.79480
1067.516, 59.95453
1067.998, 60.45116
1068.480, 60.75344
1068.962, 60.86642
1069.444, 60.80968
1069.926, 60.36493
1070.408, 60.00457
1070.890, 59.99517
1071.372, 60.19751
1071.854, 60.44494
1072.337, 60.75325
1072.819, 60.92390
1073.301, 60.92646
1073.783, 60.89042
1074.265, 60.90118
1074.747, 60.95952
1075.229, 61.04773
1075.711, 61.17273
1076.194, 61.44976
1076.676, 62.01121
1077.158, 62.38738
1077.640, 62.41096
1078.122, 62.26176
1078.604, 62.17844
1079.086, 62.17657
1079.568, 62.31630
1080.051, 62.65814
1080.533, 62.94049
1081.015, 62.97993
1081.497, 63.03577
1081.979, 63.26279
1082.461, 63.61887
1082.943, 63.89412
1083.425, 64.07426
1083.907, 64.01598
1084.390, 63.40401
1084.872, 62.88352
1085.354, 63.03302
1085.836, 63.42517
1086.318, 63.46144
1086.800, 62.96910
1087.282, 62.85572
1087.764, 63.18162
1088.247, 63.51236
1088.729, 63.58715
1089.211, 63.41762
1089.693, 62.86452
1090.175, 62.05605
1090.657, 61.47816
1091.139, 61.23262
1091.621, 61.23024
1092.104, 61.58167
1092.586, 61.91668
1093.068, 61.62786
1093.550, 60.96531
1094.032, 60.46449
1094.514, 60.19029
1094.996, 60.09825
1095.478, 60.44319
1095.960, 60.64402
1096.443, 60.40300
1096.925, 59.91129
1097.407, 59.73259
1097.889, 59.83283
1098.371, 60.01154
1098.853, 60.29247
1099.335, 60.35606
1099.817, 59.69099
1100.299, 58.91565
1100.782, 58.59486
1101.264, 58.74065
1101.746, 58.94427
1102.228, 59.21653
1102.710, 59.42249
1103.192, 59.55420
1103.674, 59.50793
1104.156, 58.96579
1104.639, 58.22915
1105.121, 57.79101
1105.603, 57.84583
1106.085, 58.03931
1106.567, 58.44352
1107.049, 58.78438
1107.531, 58.78139
1108.013, 58.59142
1108.495, 58.52048
1108.978, 58.54921
1109.460, 58.57261
1109.942, 58.64568
1110.424, 58.56128
1110.906, 58.20636
1111.388, 57.79073
1111.870, 57.48934
1112.352, 57.35624
1112.834, 57.82367
1113.317, 58.89824
1113.799, 59.61153
1114.281, 58.92973
1114.763, 58.25114
1115.245, 58.33789
1115.727, 58.89477
1116.209, 59.23833
1116.691, 59.37185
1117.174, 59.26564
1117.656, 58.88172
1118.138, 58.44416
1118.620, 58.00577
1119.102, 57.70335
1119.584, 57.78483
1120.066, 58.22642
1120.548, 58.19564
1121.031, 57.60235
1121.513, 57.17929
1121.995, 57.26658
1122.477, 57.50100
1122.959, 57.35171
1123.441, 57.09764
1123.923, 57.16225
1124.405, 57.80028
1124.887, 58.24839
1125.370, 58.50129
1125.852, 58.54491
1126.334, 58.24953
1126.816, 57.82475
1127.298, 57.73481
1127.780, 57.86942
1128.262, 57.96650
1128.744, 57.96710
1129.227, 57.85444
1129.709, 57.52660
1130.191, 57.25481
1130.673, 57.33400
1131.155, 57.66232
1131.637, 57.84891
1132.119, 57.90298
1132.601, 57.93402
1133.083, 57.97266
1133.566, 58.02794
1134.048, 58.11620
1134.530, 58.21004
1135.012, 58.29141
1135.494, 58.35340
1135.976, 58.27441
1136.458, 58.04610
1136.940, 57.92002
1137.422, 58.27989
1137.905, 58.58657
1138.387, 58.33688
1138.869, 57.82484
1139.351, 57.83484
1139.833, 58.39131
1140.315, 58.89995
1140.797, 59.25956
1141.279, 59.52746
1141.762, 59.68590
1142.244, 59.83226
1142.726, 60.08429
1143.208, 60.43034
1143.690, 60.65646
1144.172, 60.74672
1144.654, 60.77591
1145.136, 60.71990
1145.619, 60.73794
1146.101, 61.06704
1146.583, 61.56021
1147.065, 62.05666
1147.547, 62.53251
1148.029, 62.97488
1148.511, 63.37218
1148.993, 63.77958
1149.475, 64.25928
1149.958, 64.70732
1150.440, 64.88457
1150.922, 64.92856
1151.404, 65.10057
1151.886, 65.55470
1152.368, 65.92326
1152.850, 66.17974
1153.332, 66.35812
1153.814, 66.44829
1154.297, 66.49355
1154.779, 66.68212
1155.261, 66.91926
1155.743, 66.93327
1156.225, 66.60677
1156.707, 66.03940
1157.189, 65.13230
1157.671, 64.20061
1158.154, 63.52379
1158.636, 63.04687
1159.118, 62.62135
1159.600, 62.20886
1160.082, 61.61838
1160.564, 60.41925
1161.046, 59.47992
1161.528, 59.10991
1162.010, 59.01253
1162.493, 58.89003
1162.975, 58.74705
1163.457, 58.61062
1163.939, 58.48170
1164.421, 58.35765
1164.903, 58.29813
1165.385, 58.16966
1165.867, 57.86334
1166.349, 57.48520
1166.832, 57.18361
1167.314, 56.95996
1167.796, 56.90422
1168.278, 57.02740
1168.760, 57.13369
1169.242, 56.92750
1169.724, 56.81950
1170.206, 57.22781
1170.689, 57.88446
1171.171, 58.15816
1171.653, 58.05332
1172.135, 57.55841
1172.617, 56.59594
1173.099, 55.90219
1173.581, 56.40496
1174.063, 57.15199
1174.546, 57.37193
1175.028, 57.17660
1175.510, 57.14765
1175.992, 57.29203
1176.474, 57.44788
1176.956, 57.59727
1177.438, 57.65083
1177.920, 57.35051
1178.402, 57.04415
1178.885, 57.16981
1179.367, 57.70680
1179.849, 57.77933
1180.331, 57.34049
1180.813, 56.94588
1181.295, 56.78418
1181.777, 56.74687
1182.259, 56.79081
1182.742, 56.85419
1183.224, 56.85580
1183.706, 56.78019
1184.188, 56.73935
1184.670, 56.71746
1185.152, 56.86497
1185.634, 57.34996
1186.116, 57.85273
1186.599, 57.99042
1187.081, 57.92419
1187.563, 57.85425
1188.045, 57.79657
1188.527, 57.80838
1189.009, 57.92139
1189.491, 57.90281
1189.973, 57.53242
1190.455, 57.07529
1190.938, 56.78044
1191.420, 56.65492
1191.902, 56.74247
1192.384, 57.19532
1192.866, 57.42109
1193.348, 57.39710
1193.830, 57.25747
1194.312, 56.99144
1194.794, 56.74154
1195.277, 56.66133
1195.759, 56.74465
1196.241, 57.01270
1196.723, 57.78335
1197.205, 57.90474
1197.687, 57.21436
1198.169, 56.53292
1198.651, 56.54582
1199.134, 56.90919
1199.616, 57.31550
1200.098, 57.68609
1200.580, 57.82093
1201.062, 57.60320
1201.544, 57.32234
1202.026, 56.93406
1202.508, 56.72203
1202.990, 57.10150
1203.473, 57.68517
1203.955, 58.04174
1204.437, 58.16364
1204.919, 58.06153
1205.401, 57.59835
1205.883, 57.27136
1206.365, 57.12259
1206.847, 57.08588
1207.329, 57.18232
1207.812, 57.29357
1208.294, 57.26715
1208.776, 57.11738
1209.258, 56.90550
1209.740, 56.48448
1210.222, 56.47591
1210.704, 57.05650
1211.186, 57.62225
1211.669, 57.43776
1212.151, 56.96940
1212.633, 56.81337
1213.115, 56.93433
1213.597, 56.89740
1214.079, 56.39956
1214.561, 57.22099
1215.043, 57.69783
1215.526, 58.00093
1216.008, 58.13931
1216.490, 57.62019
1216.972, 57.95008
1217.454, 57.93971
1217.936, 57.91541
1218.418, 58.36477
1218.900, 57.60474
1219.382, 57.68457
1219.865, 57.70103
1220.347, 57.85846
1220.829, 58.04480
1221.311, 58.13531
1221.793, 58.12489
1222.275, 58.10073
1222.757, 58.09134
1223.239, 57.93509
1223.722, 57.55548
1224.204, 57.23950
1224.686, 57.40401
1225.168, 57.72051
1225.650, 57.85831
1226.132, 57.79951
1226.614, 57.72248
1227.096, 57.61076
1227.578, 57.58975
1228.061, 57.70086
1228.543, 57.83600
1229.025, 57.95039
1229.507, 57.97865
1229.989, 57.76090
1230.471, 57.34848
1230.953, 57.27045
1231.435, 57.57320
1231.917, 57.80391
1232.400, 57.86633
1232.882, 57.79366
1233.364, 57.40597
1233.846, 57.06768
1234.328, 57.21043
1234.810, 57.73910
1235.292, 57.99985
1235.774, 57.98048
1236.257, 57.94108
1236.739, 57.94437
1237.221, 57.93941
1237.703, 57.84874
1238.185, 57.76224
1238.667, 57.81859
1239.149, 57.94946
1239.631, 57.69821
1240.114, 57.09853
1240.596, 57.06722
1241.078, 57.93014
1241.560, 58.79933
1242.042, 59.17279
1242.524, 59.13324
1243.006, 58.55600
1243.488, 57.67401
1243.970, 57.38881
1244.453, 57.63211
1244.935, 57.87699
1245.417, 57.99549
1245.899, 58.12216
1246.381, 58.44799
1246.863, 58.68878
1247.345, 58.70506
1247.827, 58.52578
1248.309, 58.11373
1248.792, 57.57033
1249.274, 57.35832
1249.756, 57.62581
1250.238, 57.98751
1250.720, 58.56315
1251.202, 58.79036
1251.684, 58.26665
1252.166, 57.40525
1252.649, 57.19759
1253.131, 57.55396
1253.613, 57.93157
1254.095, 58.34536
1254.577, 58.58525
1255.059, 58.66056
1255.541, 58.07841
1256.023, 58.34524
1256.505, 58.27184
1256.988, 58.18452
1257.470, 58.57084
1257.952, 58.08431
1258.434, 58.46312
1258.916, 58.49651
1259.398, 58.68798
1259.880, 58.40479
1260.362, 58.12936
1260.844, 57.86238
1261.327, 57.92152
1261.809, 58.12756
1262.291, 58.15790
1262.773, 57.93363
1263.255, 58.03180
1263.737, 58.62349
1264.219, 58.98409
1264.701, 58.80017
1265.184, 58.51960
1265.666, 58.82595
1266.148, 59.28500
1266.630, 59.33727
1267.112, 58.91434
1267.594, 58.66695
1268.076, 58.60071
1268.558, 58.69642
1269.041, 59.01849
1269.523, 59.22845
1270.005, 58.68083
1270.487, 58.11122
1270.969, 58.43786
1271.451, 59.43614
1271.933, 59.71546
1272.415, 59.28570
1272.897, 58.91238
1273.380, 58.79550
1273.862, 58.69239
1274.344, 58.36604
1274.826, 58.05446
1275.308, 57.87923
1275.790, 57.84226
1276.272, 58.01867
1276.754, 58.35603
1277.237, 58.55589
1277.719, 58.53893
1278.201, 58.54007
1278.683, 58.74274
1279.165, 58.91645
1279.647, 58.97848
1280.129, 58.94854
1280.611, 58.79871
1281.094, 58.60506
1281.576, 58.62299
1282.058, 58.90601
1282.540, 59.05290
1283.022, 58.96104
1283.504, 58.62758
1283.986, 57.88034
1284.468, 57.24632
1284.950, 57.64763
1285.432, 58.67144
1285.915, 59.81294
1286.397, 60.98576
1286.879, 61.66630
1287.361, 61.79504
1287.843, 61.53720
1288.325, 60.85546
1288.807, 60.08673
1289.289, 59.51715
1289.772, 59.14203
1290.254, 59.03970
1290.736, 59.16007
1291.218, 59.12241
1291.700, 58.90089
1292.182, 58.75356
1292.664, 58.72021
1293.146, 58.79836
1293.629, 59.07515
1294.111, 59.37568
1294.593, 59.62620
1295.075, 59.79142
1295.557, 59.72463
1296.039, 59.45958
1296.521, 59.43309
1297.003, 59.69590
1297.485, 59.81204
1297.968, 59.22576
1298.450, 58.80304
1298.932, 58.88921
1299.414, 59.23132
1299.896, 59.56171
1300.378, 59.81392
1300.860, 59.63747
1301.342, 59.08714
1301.824, 58.81132
1302.307, 58.94177
##END=



