##NAMES=Polylithionite
##RRUFFID=R060215
##IDEAL CHEMISTRY=KLi_2_AlSi_4_O_10_F_2_
##LOCALITY=Mont Saint-Hilaire, Rouville County, Quebec, Canada
##OWNER=RRUFF
##SOURCE=Royal Ontario Museum
##DESCRIPTION=Tan to colorless micaceous fragment
##STATUS=The identification of this mineral has been confirmed by X-ray diffraction and chemical analysis
##URL=rruff.info/R060215
##MEASURED CHEMISTRY=(K_0.99_Na_0.01_)Li_2.00_(Al_0.88_Ti_0.06_Mg_0.06_)Si_4.00_O_10_(F_0.89_(OH)_0.11_)_2_
92.07813, 19.32864
92.56024, 19.78883
93.04236, 19.47929
93.52448, 18.58602
94.00659, 17.79693
94.48871, 17.53800
94.97083, 17.67900
95.45294, 17.92426
95.93506, 18.31302
96.41718, 18.65117
96.89929, 18.54032
97.38141, 17.97669
97.86353, 17.30723
98.34564, 16.67052
98.82776, 16.08734
99.30988, 15.82617
99.79199, 16.05070
100.2741, 16.58940
100.7562, 16.74419
101.2383, 16.40849
101.7205, 15.98453
102.2026, 15.87516
102.6847, 16.19338
103.1668, 16.38297
103.6489, 16.26134
104.1310, 15.81749
104.6132, 15.63454
105.0953, 15.85095
105.5774, 16.19946
106.0595, 16.32338
106.5416, 15.98717
107.0237, 15.79397
107.5059, 15.97682
107.9880, 16.78526
108.4701, 17.18028
108.9522, 16.85538
109.4343, 16.17716
109.9164, 15.80573
110.3986, 16.16710
110.8807, 16.48340
111.3628, 16.51680
111.8449, 16.09822
112.3270, 15.66328
112.8091, 15.09594
113.2913, 14.51009
113.7734, 14.21665
114.2555, 14.48009
114.7376, 14.90526
115.2197, 15.28071
115.7018, 15.53179
116.1840, 15.77514
116.6661, 16.03977
117.1482, 16.32106
117.6303, 16.59384
118.1124, 16.73173
118.5945, 16.91282
119.0767, 17.28687
119.5588, 17.80573
120.0409, 18.60715
120.5230, 19.92167
121.0051, 21.71443
121.4872, 23.43237
121.9694, 24.60820
122.4515, 25.51634
122.9336, 26.54163
123.4157, 27.68057
123.8978, 29.08603
124.3799, 30.94002
124.8621, 33.26530
125.3442, 35.83412
125.8263, 38.80994
126.3084, 41.92398
126.7905, 44.52876
127.2726, 45.96334
127.7548, 46.74442
128.2369, 47.68534
128.7190, 48.86826
129.2011, 50.12798
129.6832, 51.15452
130.1653, 52.00670
130.6474, 53.09413
131.1296, 54.75113
131.6117, 56.84851
132.0938, 59.01644
132.5759, 61.25024
133.0580, 63.48247
133.5401, 65.40691
134.0223, 67.01630
134.5044, 68.87312
134.9865, 71.47680
135.4686, 74.83300
135.9507, 78.07120
136.4328, 80.89634
136.9150, 83.68328
137.3971, 87.96268
137.8792, 94.18068
138.3613, 100.2629
138.8434, 104.3355
139.3255, 106.0437
139.8077, 107.6753
140.2898, 109.7168
140.7719, 112.0636
141.2540, 113.7928
141.7361, 114.5404
142.2182, 115.2387
142.7004, 116.8727
143.1825, 119.8238
143.6646, 122.7506
144.1467, 125.2882
144.6288, 127.4393
145.1109, 129.6871
145.5931, 132.0117
146.0752, 134.4637
146.5573, 137.1582
147.0394, 140.1603
147.5215, 143.2954
148.0036, 146.5038
148.4858, 149.8964
148.9679, 153.1026
149.4500, 155.8855
149.9321, 158.5676
150.4142, 161.5591
150.8963, 164.4836
151.3785, 168.1324
151.8606, 172.9012
152.3427, 179.8218
152.8248, 185.6358
153.3069, 189.4794
153.7890, 192.2812
154.2712, 195.0640
154.7533, 197.4372
155.2354, 199.9884
155.7175, 202.6362
156.1996, 205.4307
156.6817, 208.1013
157.1639, 210.5970
157.6460, 212.9578
158.1281, 215.2080
158.6102, 216.5414
159.0923, 218.3457
159.5744, 221.3722
160.0566, 226.2922
160.5387, 231.4490
161.0208, 236.4377
161.5029, 241.3066
161.9850, 246.1854
162.4671, 251.1094
162.9493, 256.0768
163.4314, 261.0687
163.9135, 265.8937
164.3956, 270.9939
164.8777, 276.7184
165.3598, 282.9551
165.8420, 289.2426
166.3241, 295.3149
166.8062, 301.3575
167.2883, 307.5513
167.7704, 314.2815
168.2525, 320.8268
168.7346, 326.7202
169.2168, 332.0370
169.6989, 337.2664
170.1810, 342.5671
170.6631, 347.9814
171.1452, 353.5715
171.6273, 358.9322
172.1095, 364.7307
172.5916, 371.6929
173.0737, 379.7575
173.5558, 388.2422
174.0379, 397.0967
174.5201, 405.9562
175.0022, 414.3926
175.4843, 422.2571
175.9664, 429.6715
176.4485, 437.2437
176.9306, 445.0243
177.4128, 450.8297
177.8949, 452.6244
178.3770, 451.0425
178.8591, 447.5217
179.3412, 443.0731
179.8233, 436.8807
180.3055, 427.3665
180.7876, 414.3807
181.2697, 399.5215
181.7518, 383.2907
182.2339, 366.2241
182.7160, 349.4640
183.1982, 333.4331
183.6803, 318.1809
184.1624, 303.8073
184.6445, 290.3268
185.1266, 278.1147
185.6087, 267.7997
186.0909, 259.1539
186.5730, 251.5467
187.0551, 244.6314
187.5372, 238.4979
188.0193, 233.3427
188.5014, 229.2692
188.9836, 225.8036
189.4657, 222.1927
189.9478, 218.5052
190.4299, 215.1922
190.9120, 212.7158
191.3941, 210.9065
191.8763, 208.6690
192.3584, 205.8515
192.8405, 203.0315
193.3226, 201.0693
193.8047, 199.9782
194.2868, 198.9243
194.7690, 197.6057
195.2511, 196.0232
195.7332, 193.9659
196.2153, 191.2667
196.6974, 188.4641
197.1795, 186.5244
197.6617, 185.4634
198.1438, 184.8804
198.6259, 184.9351
199.1080, 185.6277
199.5901, 185.3173
200.0722, 183.7201
200.5544, 181.5049
201.0365, 179.8486
201.5186, 178.7708
202.0007, 178.0334
202.4828, 177.5399
202.9649, 177.2876
203.4471, 177.3423
203.9292, 177.8377
204.4113, 178.4721
204.8934, 178.6098
205.3755, 178.1456
205.8576, 177.5993
206.3398, 177.2319
206.8219, 177.0867
207.3040, 176.8022
207.7861, 176.3155
208.2682, 175.7486
208.7503, 175.3718
209.2325, 175.2375
209.7146, 175.1434
210.1967, 174.9059
210.6788, 174.3882
211.1609, 174.4916
211.6430, 175.5479
212.1252, 176.9936
212.6073, 177.3894
213.0894, 176.2674
213.5715, 175.3199
214.0536, 175.4386
214.5357, 177.0299
215.0179, 178.1829
215.5000, 178.8511
215.9821, 179.1098
216.4642, 178.9585
216.9463, 177.9600
217.4284, 177.4875
217.9105, 178.3875
218.3927, 181.3826
218.8748, 183.2411
219.3569, 183.5031
219.8390, 182.8810
220.3211, 182.9265
220.8032, 183.7749
221.2854, 185.0469
221.7675, 186.7533
222.2496, 189.2369
222.7317, 190.9754
223.2138, 191.5919
223.6959, 191.6457
224.1781, 192.3996
224.6602, 194.1145
225.1423, 196.0651
225.6244, 197.9180
226.1065, 199.6177
226.5886, 201.4650
227.0708, 203.5191
227.5529, 205.7061
228.0350, 207.8416
228.5171, 209.7417
228.9992, 211.9421
229.4813, 214.7629
229.9635, 218.5692
230.4456, 221.7935
230.9277, 224.0757
231.4098, 225.9304
231.8919, 228.4039
232.3740, 231.7821
232.8562, 235.2929
233.3383, 238.6212
233.8204, 241.5872
234.3025, 244.9810
234.7846, 248.9646
235.2667, 253.2963
235.7489, 257.3845
236.2310, 260.7480
236.7131, 264.6393
237.1952, 269.6839
237.6773, 276.2267
238.1594, 282.3206
238.6416, 287.4252
239.1237, 292.4144
239.6058, 298.6932
240.0879, 306.7505
240.5700, 315.4307
241.0521, 324.4038
241.5343, 333.4872
242.0164, 343.3314
242.4985, 354.2237
242.9806, 365.6773
243.4627, 377.1126
243.9448, 389.0655
244.4270, 400.0998
244.9091, 410.0652
245.3912, 419.2533
245.8733, 425.9296
246.3554, 430.3507
246.8375, 432.1185
247.3197, 430.5873
247.8018, 425.0283
248.2839, 417.4333
248.7660, 407.8682
249.2481, 395.9768
249.7302, 384.6797
250.2124, 374.0645
250.6945, 363.8863
251.1766, 353.6337
251.6587, 342.8730
252.1408, 332.8903
252.6229, 323.9427
253.1051, 315.9762
253.5872, 309.0901
254.0693, 303.5318
254.5514, 298.6422
255.0335, 293.6655
255.5156, 288.2875
255.9978, 283.6116
256.4799, 279.8745
256.9620, 277.0592
257.4441, 274.8236
257.9262, 273.2666
258.4083, 272.1511
258.8904, 271.3366
259.3726, 270.9400
259.8547, 270.5243
260.3368, 269.9584
260.8189, 269.2743
261.3010, 268.8568
261.7831, 268.6270
262.2653, 268.7842
262.7474, 269.6164
263.2295, 271.5029
263.7116, 272.9642
264.1937, 273.6661
264.6758, 273.7711
265.1580, 274.2308
265.6401, 275.1057
266.1222, 276.2237
266.6043, 277.5828
267.0864, 279.4073
267.5685, 280.6971
268.0507, 281.2622
268.5328, 281.2550
269.0149, 281.2838
269.4970, 281.4468
269.9791, 281.4167
270.4612, 281.0500
270.9434, 280.3867
271.4255, 279.1489
271.9076, 277.1430
272.3897, 274.6537
272.8718, 272.4229
273.3539, 270.5325
273.8361, 268.6182
274.3182, 266.3751
274.8003, 263.7083
275.2824, 261.5143
275.7645, 259.9086
276.2466, 258.7059
276.7288, 257.5598
277.2109, 256.4614
277.6930, 255.4666
278.1751, 254.4826
278.6572, 253.4690
279.1393, 253.3348
279.6215, 254.3566
280.1036, 255.7345
280.5857, 256.1104
281.0678, 255.3705
281.5499, 254.7661
282.0320, 254.8454
282.5142, 255.5586
282.9963, 256.1701
283.4784, 256.5988
283.9605, 257.1761
284.4426, 258.4979
284.9247, 260.5831
285.4069, 262.3966
285.8890, 263.3945
286.3711, 263.8156
286.8532, 264.9301
287.3353, 266.8018
287.8174, 269.0126
288.2996, 271.1826
288.7817, 273.3184
289.2638, 275.3686
289.7459, 277.2557
290.2280, 279.0778
290.7101, 281.1196
291.1923, 283.3892
291.6744, 285.9177
292.1565, 289.0899
292.6386, 292.6937
293.1207, 295.5809
293.6028, 297.2892
294.0850, 298.4115
294.5671, 300.2416
295.0492, 302.7296
295.5313, 305.0996
296.0134, 306.8161
296.4955, 307.9609
296.9777, 308.7315
297.4598, 309.1266
297.9419, 309.2058
298.4240, 308.7915
298.9061, 308.0139
299.3882, 307.5459
299.8704, 308.3087
300.3525, 309.5810
300.8346, 309.7526
301.3167, 308.4205
301.7988, 307.0189
302.2809, 307.2725
302.7631, 308.7629
303.2452, 310.2490
303.7273, 311.2027
304.2094, 311.7382
304.6915, 311.7447
305.1736, 311.1483
305.6558, 310.8813
306.1379, 312.3942
306.6200, 314.7788
307.1021, 316.3217
307.5842, 315.6912
308.0663, 314.2824
308.5485, 313.4225
309.0306, 313.1029
309.5127, 312.6764
309.9948, 311.3570
310.4769, 309.7614
310.9590, 308.7283
311.4412, 309.6013
311.9233, 310.0637
312.4054, 308.0621
312.8875, 304.0018
313.3696, 300.0707
313.8517, 297.8483
314.3339, 296.1562
314.8160, 293.9350
315.2981, 290.6703
315.7802, 287.2890
316.2623, 284.1359
316.7444, 281.2282
317.2266, 278.5458
317.7087, 276.1855
318.1908, 274.0175
318.6729, 272.0170
319.1550, 270.3603
319.6371, 268.3822
320.1193, 265.4171
320.6014, 262.0580
321.0835, 259.2330
321.5656, 257.5800
322.0477, 256.2244
322.5298, 254.8245
323.0120, 253.3407
323.4941, 251.8498
323.9762, 250.4332
324.4583, 248.9889
324.9404, 247.4077
325.4225, 245.6862
325.9047, 243.7988
326.3868, 241.5958
326.8689, 239.0386
327.3510, 236.9845
327.8331, 235.9104
328.3152, 235.1173
328.7974, 234.1226
329.2795, 232.6531
329.7616, 231.2907
330.2437, 230.0690
330.7258, 228.9929
331.2079, 228.0671
331.6901, 227.3533
332.1722, 226.7243
332.6543, 226.1380
333.1364, 225.7723
333.6185, 225.0915
334.1006, 223.8280
334.5828, 222.3210
335.0649, 221.4502
335.5470, 221.5586
336.0291, 221.6763
336.5112, 221.3306
336.9933, 220.2973
337.4755, 220.0429
337.9576, 220.9541
338.4397, 222.2016
338.9218, 222.5684
339.4039, 221.7636
339.8860, 221.1309
340.3681, 221.1323
340.8503, 221.7052
341.3324, 221.9826
341.8145, 221.9359
342.2966, 221.6853
342.7787, 221.2368
343.2608, 220.5744
343.7430, 220.1800
344.2251, 220.2859
344.7072, 220.6269
345.1893, 220.3048
345.6714, 219.2600
346.1535, 218.2617
346.6357, 218.0232
347.1178, 218.3836
347.5999, 218.4013
348.0820, 217.9897
348.5641, 217.1545
349.0462, 215.4612
349.5284, 213.0919
350.0105, 211.3616
350.4926, 211.4391
350.9747, 212.5850
351.4568, 213.1100
351.9389, 212.8948
352.4211, 212.5408
352.9032, 212.6962
353.3853, 213.1945
353.8674, 213.6299
354.3495, 213.7014
354.8316, 213.7194
355.3138, 214.1317
355.7959, 214.8996
356.2780, 215.6007
356.7601, 215.7125
357.2422, 215.6668
357.7243, 216.0476
358.2065, 217.2050
358.6886, 218.5238
359.1707, 219.6590
359.6528, 220.6245
360.1349, 221.4630
360.6170, 222.3218
361.0992, 222.9767
361.5813, 223.2683
362.0634, 223.1501
362.5455, 222.7250
363.0276, 221.8896
363.5097, 220.7985
363.9919, 219.6829
364.4740, 218.8721
364.9561, 217.8106
365.4382, 216.1867
365.9203, 213.9305
366.4024, 211.7400
366.8846, 209.4871
367.3667, 207.4777
367.8488, 205.9595
368.3309, 205.7742
368.8130, 205.1699
369.2951, 203.6934
369.7773, 201.4841
370.2594, 199.5685
370.7415, 197.9785
371.2236, 196.6432
371.7057, 195.5497
372.1878, 194.9302
372.6700, 194.0893
373.1521, 192.8557
373.6342, 191.4821
374.1163, 190.4632
374.5984, 189.8824
375.0805, 189.5110
375.5627, 189.3036
376.0448, 189.2703
376.5269, 189.2638
377.0090, 189.2982
377.4911, 189.3300
377.9732, 189.2952
378.4554, 189.1757
378.9375, 189.1075
379.4196, 189.1396
379.9017, 189.2349
380.3838, 189.1307
380.8659, 188.7610
381.3481, 188.7195
381.8302, 189.7339
382.3123, 191.6172
382.7944, 192.9432
383.2765, 193.4921
383.7586, 193.6478
384.2408, 193.7949
384.7229, 193.9886
385.2050, 194.5770
385.6871, 195.8880
386.1692, 197.6651
386.6513, 199.5363
387.1335, 201.4813
387.6156, 203.4004
388.0977, 204.9686
388.5798, 206.4422
389.0619, 208.3248
389.5440, 210.8445
390.0262, 213.7632
390.5083, 216.9603
390.9904, 220.4339
391.4725, 224.0438
391.9546, 227.7837
392.4367, 231.5701
392.9189, 235.3908
393.4010, 239.2489
393.8831, 243.0639
394.3652, 246.4156
394.8473, 249.7106
395.3294, 253.6574
395.8116, 258.6523
396.2937, 264.1690
396.7758, 270.1212
397.2579, 276.5450
397.7400, 282.9471
398.2221, 288.6161
398.7043, 294.4883
399.1864, 301.3063
399.6685, 310.4665
400.1506, 319.0207
400.6327, 326.1327
401.1148, 332.2412
401.5970, 339.5210
402.0791, 348.5797
402.5612, 357.9983
403.0433, 367.1758
403.5254, 376.0590
404.0075, 384.8597
404.4897, 393.5869
404.9718, 402.2383
405.4539, 410.9749
405.9360, 420.1707
406.4181, 428.3580
406.9002, 435.0755
407.3824, 440.3910
407.8645, 445.5203
408.3466, 450.5499
408.8287, 455.0605
409.3108, 458.8979
409.7929, 462.0070
410.2751, 463.7094
410.7572, 463.8163
411.2393, 462.6229
411.7214, 460.6979
412.2035, 458.0096
412.6856, 454.3307
413.1678, 449.0257
413.6499, 442.7093
414.1320, 436.8122
414.6141, 431.4140
415.0962, 425.7759
415.5783, 418.9428
416.0605, 411.3717
416.5426, 403.7700
417.0247, 396.2030
417.5068, 388.8739
417.9889, 382.2111
418.4710, 376.0578
418.9532, 369.4965
419.4353, 361.9258
419.9174, 353.8544
420.3995, 345.7690
420.8816, 337.6534
421.3637, 329.5397
421.8459, 321.2550
422.3280, 313.0319
422.8101, 305.1087
423.2922, 297.9282
423.7743, 290.7674
424.2564, 283.4755
424.7386, 276.0735
425.2207, 268.5538
425.7028, 260.2166
426.1849, 252.2957
426.6670, 245.6525
427.1491, 241.4561
427.6313, 236.6731
428.1134, 230.6984
428.5955, 224.1655
429.0776, 218.8911
429.5597, 215.3472
430.0418, 212.0042
430.5240, 208.1652
431.0061, 203.7715
431.4882, 199.8583
431.9703, 196.4634
432.4524, 193.5186
432.9345, 190.9589
433.4167, 188.7906
433.8988, 187.0052
434.3809, 185.7210
434.8630, 184.7541
435.3451, 183.6588
435.8272, 182.4416
436.3094, 181.3081
436.7915, 180.4715
437.2736, 179.8124
437.7557, 179.0528
438.2378, 178.1570
438.7199, 177.2091
439.2020, 176.0069
439.6841, 174.8271
440.1663, 174.2365
440.6484, 175.1282
441.1305, 176.2269
441.6126, 176.2821
442.0947, 175.4787
442.5768, 174.9438
443.0590, 175.4091
443.5411, 176.2960
444.0232, 177.1833
444.5053, 178.0327
444.9874, 178.7828
445.4695, 179.2446
445.9517, 179.6172
446.4338, 180.2283
446.9159, 181.3677
447.3980, 182.5281
447.8801, 183.6087
448.3622, 184.6180
448.8444, 185.4162
449.3265, 185.7176
449.8086, 186.0635
450.2907, 186.9013
450.7728, 188.8438
451.2549, 189.8922
451.7371, 189.7051
452.2192, 188.7148
452.7013, 187.8316
453.1834, 187.0980
453.6655, 186.3421
454.1476, 185.4514
454.6298, 184.4576
455.1119, 183.6463
455.5940, 183.0076
456.0761, 182.6338
456.5582, 182.6926
457.0403, 183.1274
457.5225, 183.6161
458.0046, 184.0131
458.4867, 184.5659
458.9688, 185.7022
459.4509, 187.3387
459.9330, 189.0860
460.4152, 190.8065
460.8973, 192.5072
461.3794, 194.0357
461.8615, 195.3941
462.3436, 197.1342
462.8257, 199.8269
463.3079, 203.0406
463.7900, 206.2889
464.2721, 209.4241
464.7542, 212.6294
465.2363, 215.8336
465.7184, 219.1514
466.2006, 222.9079
466.6827, 227.5133
467.1648, 232.2873
467.6469, 236.9916
468.1290, 241.6639
468.6111, 246.0367
469.0933, 250.2752
469.5754, 254.1370
470.0575, 257.5024
470.5396, 260.5085
471.0217, 262.7517
471.5038, 264.2573
471.9860, 264.9644
472.4681, 264.6946
472.9502, 263.4303
473.4323, 261.2383
473.9144, 258.2118
474.3965, 254.3352
474.8787, 249.1613
475.3608, 242.5351
475.8429, 235.4247
476.3250, 228.8286
476.8071, 222.7186
477.2892, 216.8873
477.7714, 211.1872
478.2535, 205.9857
478.7356, 201.9641
479.2177, 198.9757
479.6998, 196.4731
480.1819, 194.2204
480.6641, 192.2027
481.1462, 190.4505
481.6283, 188.9625
482.1104, 187.6492
482.5925, 186.4846
483.0746, 185.4606
483.5568, 184.5640
484.0389, 183.5994
484.5210, 182.9880
485.0031, 183.1067
485.4852, 183.7082
485.9673, 184.0234
486.4495, 183.7651
486.9316, 183.3567
487.4137, 182.8770
487.8958, 182.2574
488.3779, 181.9193
488.8600, 182.0742
489.3422, 182.2804
489.8243, 182.1356
490.3064, 181.5691
490.7885, 180.8790
491.2706, 180.0580
491.7527, 179.1706
492.2349, 178.3528
492.7170, 177.6148
493.1991, 176.9104
493.6812, 176.1829
494.1633, 175.4754
494.6454, 174.9478
495.1276, 174.6079
495.6097, 174.4079
496.0918, 174.3814
496.5739, 174.4594
497.0560, 174.4945
497.5381, 174.4407
498.0203, 174.3662
498.5024, 174.3347
498.9845, 174.3295
499.4666, 174.3120
499.9487, 174.1022
500.4308, 174.0090
500.9130, 174.2821
501.3951, 174.9258
501.8772, 175.5231
502.3593, 175.8941
502.8414, 176.2057
503.3235, 176.5685
503.8057, 176.9648
504.2878, 177.4546
504.7699, 178.0221
505.2520, 178.6867
505.7341, 179.5089
506.2162, 180.6292
506.6984, 181.6118
507.1805, 182.2842
507.6626, 182.6879
508.1447, 183.2700
508.6268, 184.0884
509.1089, 184.8616
509.5911, 185.2823
510.0732, 185.4032
510.5553, 185.8259
511.0374, 186.6099
511.5195, 187.6537
512.0016, 188.8427
512.4838, 190.1924
512.9659, 191.7368
513.4480, 193.7434
513.9301, 195.7450
514.4122, 197.2006
514.8943, 198.1836
515.3765, 198.9986
515.8586, 199.4414
516.3407, 200.0366
516.8228, 201.2197
517.3049, 203.1155
517.7870, 205.2014
518.2692, 207.3232
518.7513, 209.5165
519.2334, 211.8078
519.7155, 214.4660
520.1976, 216.9083
520.6797, 219.0006
521.1619, 220.8348
521.6440, 222.6253
522.1261, 224.2392
522.6082, 226.0234
523.0903, 228.1846
523.5724, 230.7369
524.0546, 232.8352
524.5367, 234.2340
525.0188, 235.9090
525.5009, 239.1567
525.9830, 243.7973
526.4651, 247.3499
526.9473, 249.2191
527.4294, 250.6621
527.9115, 253.5265
528.3936, 257.4835
528.8757, 261.5167
529.3578, 265.1365
529.8400, 268.5660
530.3221, 271.7516
530.8042, 274.7851
531.2863, 278.4545
531.7684, 283.4462
532.2505, 289.0464
532.7327, 294.6718
533.2148, 300.1450
533.6969, 305.8902
534.1790, 311.8705
534.6611, 318.2113
535.1432, 324.9469
535.6254, 332.0392
536.1075, 339.7545
536.5896, 348.2090
537.0717, 357.3071
537.5538, 366.2018
538.0359, 374.6700
538.5181, 383.6332
539.0002, 393.5610
539.4823, 404.4141
539.9644, 416.0862
540.4465, 428.6664
540.9286, 441.6295
541.4108, 454.1932
541.8929, 466.7053
542.3750, 480.2714
542.8571, 495.2362
543.3392, 510.7969
543.8214, 526.3066
544.3035, 541.7170
544.7856, 557.4407
545.2677, 574.4020
545.7498, 591.1281
546.2319, 606.0281
546.7141, 619.3900
547.1962, 632.9897
547.6783, 648.9536
548.1604, 664.2102
548.6425, 677.4774
549.1246, 688.6146
549.6068, 697.3931
550.0889, 703.7535
550.5710, 707.8007
551.0531, 709.6967
551.5352, 710.0385
552.0173, 706.8673
552.4995, 699.6557
552.9816, 689.0573
553.4637, 676.7857
553.9458, 662.9661
554.4279, 646.5879
554.9100, 626.4868
555.3922, 603.5301
555.8743, 580.8262
556.3564, 558.5626
556.8385, 536.5748
557.3206, 514.2608
557.8027, 492.3943
558.2849, 471.8984
558.7670, 452.9622
559.2491, 435.1307
559.7312, 418.2730
560.2133, 402.4051
560.6954, 387.5938
561.1776, 374.1400
561.6597, 361.6623
562.1418, 349.9594
562.6239, 339.0794
563.1060, 329.4541
563.5881, 321.8437
564.0703, 314.7011
564.5524, 307.3586
565.0345, 299.7792
565.5166, 293.3319
565.9987, 288.2694
566.4808, 283.8972
566.9630, 279.6658
567.4451, 275.5899
567.9272, 271.7647
568.4093, 268.1972
568.8914, 264.7970
569.3735, 261.2394
569.8557, 257.6542
570.3378, 254.4993
570.8199, 252.0297
571.3020, 250.0130
571.7841, 248.3656
572.2662, 246.9935
572.7484, 245.5561
573.2305, 243.6509
573.7126, 241.7635
574.1947, 240.2156
574.6768, 239.0567
575.1589, 238.0246
575.6411, 237.2813
576.1232, 236.4973
576.6053, 235.4293
577.0874, 233.6123
577.5695, 232.2633
578.0516, 231.6830
578.5338, 231.3847
579.0159, 230.5575
579.4980, 228.9550
579.9801, 227.8114
580.4622, 227.6564
580.9443, 227.9872
581.4265, 227.0111
581.9086, 224.7331
582.3907, 222.6914
582.8728, 222.1342
583.3549, 222.3340
583.8370, 221.6277
584.3192, 220.0008
584.8013, 218.2789
585.2834, 217.0060
585.7655, 215.9895
586.2476, 215.0040
586.7297, 213.9781
587.2118, 213.0482
587.6939, 212.5978
588.1760, 212.1546
588.6581, 211.1171
589.1403, 208.5943
589.6224, 206.3959
590.1045, 204.7996
590.5866, 203.7080
591.0687, 202.8936
591.5508, 202.6588
592.0330, 202.0109
592.5151, 200.3549
592.9972, 197.8292
593.4793, 196.1372
593.9614, 195.3575
594.4435, 194.8224
594.9257, 194.1799
595.4078, 193.3651
595.8899, 192.0069
596.3720, 189.9879
596.8541, 188.0610
597.3362, 187.0460
597.8184, 186.5607
598.3005, 186.0265
598.7826, 185.2724
599.2647, 184.4319
599.7468, 183.6845
600.2289, 182.8918
600.7111, 181.7436
601.1932, 179.1803
601.6753, 177.3149
602.1574, 177.1280
602.6395, 178.4456
603.1216, 178.7930
603.6038, 177.8656
604.0859, 176.5180
604.5680, 175.0657
605.0501, 173.4749
605.5322, 172.3190
606.0143, 171.6798
606.4965, 171.0580
606.9786, 169.7628
607.4607, 168.0415
607.9428, 166.7227
608.4249, 166.0459
608.9070, 165.5737
609.3892, 164.9342
609.8713, 164.1621
610.3534, 163.3012
610.8355, 162.2046
611.3176, 161.2133
611.7997, 160.5075
612.2819, 160.0436
612.7640, 159.6238
613.2461, 159.3420
613.7282, 158.9707
614.2103, 158.4184
614.6924, 157.6873
615.1746, 156.8911
615.6567, 155.9512
616.1388, 155.1045
616.6209, 154.6199
617.1030, 154.5213
617.5851, 153.8974
618.0673, 152.5865
618.5494, 151.2913
619.0315, 151.1190
619.5136, 151.6743
619.9957, 151.7857
620.4778, 150.9891
620.9600, 150.0056
621.4421, 149.4936
621.9242, 149.2971
622.4063, 149.1040
622.8884, 148.6580
623.3705, 148.3168
623.8527, 148.3618
624.3348, 148.7066
624.8169, 148.7381
625.2990, 148.0257
625.7811, 147.3777
626.2632, 147.1000
626.7454, 147.2162
627.2275, 147.3243
627.7096, 147.4605
628.1917, 147.4958
628.6738, 147.2668
629.1559, 146.8047
629.6381, 146.4857
630.1202, 146.3742
630.6023, 146.2538
631.0844, 145.7600
631.5665, 145.0874
632.0486, 144.6363
632.5308, 144.5361
633.0129, 144.6802
633.4950, 145.1691
633.9771, 145.8292
634.4592, 146.3368
634.9413, 146.5149
635.4235, 146.6012
635.9056, 146.6714
636.3877, 146.7131
636.8698, 146.6478
637.3519, 146.4537
637.8340, 146.1770
638.3162, 145.7830
638.7983, 145.2739
639.2804, 144.9662
639.7625, 144.8446
640.2446, 144.9910
640.7267, 145.6504
641.2089, 146.6457
641.6910, 147.3880
642.1731, 147.8178
642.6552, 148.0184
643.1373, 147.7757
643.6194, 147.4471
644.1016, 147.5683
644.5837, 148.6655
645.0658, 149.5733
645.5479, 149.7712
646.0300, 149.4689
646.5121, 148.9950
646.9943, 147.8664
647.4764, 147.2138
647.9585, 147.2311
648.4406, 147.8312
648.9227, 148.8541
649.4048, 150.5282
649.8870, 151.7770
650.3691, 151.9886
650.8512, 151.4538
651.3333, 151.3609
651.8154, 151.7105
652.2975, 152.4451
652.7797, 154.1193
653.2618, 155.9050
653.7439, 156.4055
654.2260, 155.4655
654.7081, 154.5811
655.1902, 154.6629
655.6724, 155.1916
656.1545, 155.7321
656.6366, 156.1542
657.1187, 156.6915
657.6008, 157.4653
658.0829, 158.3115
658.5651, 159.0647
659.0472, 159.6812
659.5293, 160.3078
660.0114, 160.9595
660.4935, 161.6335
660.9756, 162.3363
661.4578, 163.0599
661.9399, 163.7556
662.4220, 164.3049
662.9041, 164.9115
663.3862, 165.9795
663.8683, 167.4156
664.3505, 168.8716
664.8326, 170.2542
665.3147, 171.4915
665.7968, 172.3944
666.2789, 172.9921
666.7610, 173.8701
667.2432, 175.5287
667.7253, 177.1996
668.2074, 178.4335
668.6895, 179.0457
669.1716, 180.1860
669.6537, 182.0019
670.1359, 184.0702
670.6180, 186.1456
671.1001, 188.2013
671.5822, 189.8956
672.0643, 191.1432
672.5464, 192.2808
673.0286, 193.6819
673.5107, 195.2565
673.9928, 196.8187
674.4749, 198.2362
674.9570, 199.7932
675.4391, 201.7344
675.9213, 203.9214
676.4034, 206.1327
676.8855, 208.2029
677.3676, 210.3456
677.8497, 212.6304
678.3318, 215.0109
678.8140, 217.4453
679.2961, 220.0017
679.7782, 222.4507
680.2603, 224.6669
680.7424, 226.7250
681.2245, 229.1696
681.7067, 232.0144
682.1888, 234.9910
682.6709, 237.8553
683.1530, 240.7933
683.6351, 244.3137
684.1172, 248.3450
684.5994, 252.3642
685.0815, 255.7792
685.5636, 259.1657
686.0457, 262.9239
686.5278, 267.0024
687.0099, 271.7638
687.4921, 277.7444
687.9742, 284.0739
688.4563, 290.1147
688.9384, 295.6451
689.4205, 301.5177
689.9026, 307.7876
690.3848, 314.4746
690.8669, 321.3612
691.3490, 328.6122
691.8311, 337.2694
692.3132, 347.7230
692.7953, 358.9800
693.2775, 370.0694
693.7596, 381.1194
694.2417, 392.4831
694.7238, 403.4185
695.2059, 415.5527
695.6880, 429.6923
696.1702, 445.5997
696.6523, 463.1037
697.1344, 482.3833
697.6165, 503.0148
698.0986, 524.5536
698.5807, 547.3279
699.0629, 573.1480
699.5450, 602.5536
700.0271, 634.0535
700.5092, 667.1181
700.9913, 701.9603
701.4734, 739.6116
701.9556, 779.9799
702.4377, 821.8005
702.9198, 863.6204
703.4019, 906.8870
703.8840, 952.9691
704.3661, 1002.184
704.8483, 1054.140
705.3304, 1109.017
705.8125, 1166.348
706.2946, 1225.598
706.7767, 1285.652
707.2589, 1351.193
707.7410, 1423.162
708.2231, 1498.376
708.7052, 1574.645
709.1873, 1651.956
709.6694, 1731.604
710.1516, 1814.621
710.6337, 1897.707
711.1158, 1978.907
711.5979, 2057.530
712.0800, 2130.761
712.5621, 2200.651
713.0443, 2260.197
713.5264, 2309.992
714.0085, 2344.876
714.4906, 2358.085
714.9727, 2347.577
715.4548, 2314.362
715.9370, 2257.728
716.4191, 2180.180
716.9012, 2083.073
717.3833, 1963.635
717.8654, 1837.422
718.3475, 1705.579
718.8297, 1572.087
719.3118, 1443.845
719.7939, 1321.844
720.2760, 1208.755
720.7581, 1107.820
721.2402, 1016.535
721.7224, 933.9053
722.2045, 859.8644
722.6866, 794.1825
723.1687, 739.5196
723.6508, 690.6130
724.1329, 645.9402
724.6151, 605.5955
725.0972, 569.3217
725.5793, 537.9534
726.0614, 509.7807
726.5435, 484.3943
727.0256, 461.9555
727.5078, 441.3732
727.9899, 422.4746
728.4720, 405.4854
728.9541, 391.2387
729.4362, 378.7055
729.9183, 366.1856
730.4005, 353.5927
730.8826, 341.8667
731.3647, 331.9388
731.8468, 322.9111
732.3289, 314.1473
732.8110, 305.3629
733.2932, 297.3697
733.7753, 290.4159
734.2574, 283.9932
734.7395, 277.6753
735.2216, 271.3087
735.7037, 265.8994
736.1859, 261.6239
736.6680, 257.8191
737.1501, 253.6160
737.6322, 249.1564
738.1143, 244.9981
738.5964, 241.3011
739.0786, 237.7189
739.5607, 233.6671
740.0428, 229.6325
740.5249, 226.3377
741.0070, 224.4448
741.4891, 222.6917
741.9713, 220.9440
742.4534, 219.1912
742.9355, 217.4032
743.4176, 215.5116
743.8997, 213.8128
744.3818, 212.4580
744.8640, 211.2163
745.3461, 209.5278
745.8282, 207.4724
746.3103, 205.5988
746.7924, 204.0450
747.2745, 202.8563
747.7567, 202.2099
748.2388, 201.9742
748.7209, 201.8284
749.2030, 201.6040
749.6851, 201.4951
750.1672, 201.6198
750.6494, 201.9254
751.1315, 202.2274
751.6136, 202.5744
752.0957, 202.7780
752.5778, 202.6262
753.0599, 202.3360
753.5421, 202.8848
754.0242, 204.2193
754.5063, 205.5674
754.9884, 206.2211
755.4705, 206.7952
755.9526, 208.1216
756.4348, 210.1055
756.9169, 212.1541
757.3990, 213.6061
757.8811, 215.3963
758.3632, 218.2071
758.8453, 222.0477
759.3275, 225.4630
759.8096, 228.0782
760.2917, 230.8895
760.7738, 234.5389
761.2559, 238.8590
761.7380, 242.6968
762.2202, 246.0180
762.7023, 249.4778
763.1844, 253.8283
763.6665, 258.5246
764.1486, 262.9563
764.6307, 267.0692
765.1129, 270.5587
765.5950, 273.0871
766.0771, 275.0864
766.5592, 276.8055
767.0413, 278.2868
767.5234, 279.4046
768.0056, 280.1003
768.4877, 280.5261
768.9698, 280.5139
769.4519, 280.0826
769.9340, 280.7362
770.4161, 282.5456
770.8983, 284.9446
771.3804, 287.3009
771.8625, 289.9709
772.3446, 293.7591
772.8267, 298.8507
773.3088, 303.7183
773.7910, 307.0381
774.2731, 310.1939
774.7552, 314.3504
775.2373, 320.1867
775.7194, 325.4318
776.2015, 330.1519
776.6837, 334.1804
777.1658, 337.4254
777.6479, 339.8866
778.1300, 341.6909
778.6121, 342.8875
779.0942, 343.1388
779.5764, 342.2116
780.0585, 340.0975
780.5406, 336.5886
781.0227, 331.3919
781.5048, 325.8821
781.9869, 320.8470
782.4691, 315.7505
782.9512, 310.0897
783.4332, 303.5548
783.9153, 296.9583
784.3975, 290.2172
784.8796, 283.7609
785.3617, 278.2308
785.8438, 273.5952
786.3259, 268.9136
786.8080, 264.0467
787.2902, 259.1529
787.7723, 254.3472
788.2544, 249.6076
788.7365, 244.9260
789.2186, 240.0450
789.7007, 235.7828
790.1829, 232.6769
790.6650, 230.1619
791.1471, 227.6556
791.6292, 224.9603
792.1113, 222.6895
792.5934, 220.9607
793.0756, 219.4175
793.5577, 217.5129
794.0398, 215.3398
794.5219, 213.4411
795.0040, 211.9070
795.4861, 210.5865
795.9683, 209.1798
796.4504, 207.9195
796.9325, 207.1204
797.4146, 207.1254
797.8967, 207.1016
798.3788, 206.9899
798.8610, 206.6616
799.3431, 205.8849
799.8252, 204.3307
800.3073, 203.5487
800.7894, 203.8826
801.2715, 204.4542
801.7537, 204.0307
802.2358, 202.8603
802.7179, 201.7980
803.2000, 201.0386
803.6821, 200.4025
804.1642, 199.6076
804.6464, 198.9149
805.1285, 198.6709
805.6106, 199.6155
806.0927, 199.8814
806.5748, 199.0101
807.0569, 197.6977
807.5391, 196.5952
808.0212, 195.7130
808.5033, 195.0195
808.9854, 194.5104
809.4675, 194.1979
809.9496, 194.3183
810.4318, 194.6138
810.9139, 194.4588
811.3960, 193.5741
811.8781, 192.7178
812.3602, 192.1453
812.8423, 191.9124
813.3245, 192.0949
813.8066, 192.8318
814.2887, 193.7683
814.7708, 194.9447
815.2529, 196.2454
815.7350, 197.5774
816.2172, 198.9343
816.6993, 200.1658
817.1814, 201.2112
817.6635, 202.3193
818.1456, 203.9560
818.6277, 205.7192
819.1099, 206.9570
819.5920, 207.2652
820.0741, 207.8573
820.5562, 209.8520
821.0383, 211.8305
821.5204, 212.5882
822.0026, 211.7564
822.4847, 210.6951
822.9668, 209.3716
823.4489, 207.9575
823.9310, 206.4768
824.4131, 205.0546
824.8953, 204.0836
825.3774, 203.5958
825.8595, 203.7925
826.3416, 204.8638
826.8237, 206.6629
827.3058, 208.9962
827.7880, 211.6189
828.2701, 215.4870
828.7522, 221.2212
829.2343, 227.5227
829.7164, 233.3952
830.1985, 238.6996
830.6807, 244.6701
831.1628, 251.3464
831.6449, 258.1837
832.1270, 264.1690
832.6091, 270.1166
833.0912, 277.1023
833.5734, 285.1441
834.0555, 294.6105
834.5376, 305.3081
835.0197, 317.6294
835.5018, 332.0740
835.9839, 348.5694
836.4661, 366.7687
836.9482, 386.7659
837.4303, 408.2196
837.9124, 431.2476
838.3945, 455.5970
838.8766, 480.1162
839.3588, 504.9666
839.8409, 529.6591
840.3230, 556.8987
840.8051, 581.7947
841.2872, 601.9159
841.7693, 617.0396
842.2515, 620.0741
842.7336, 608.6642
843.2157, 585.5391
843.6978, 548.8505
844.1799, 499.7610
844.6620, 452.2025
845.1442, 406.3326
845.6263, 365.3969
846.1084, 330.9854
846.5905, 303.0130
847.0726, 282.3517
847.5547, 268.3447
848.0369, 257.9477
848.5190, 250.8307
849.0011, 245.9129
849.4832, 243.0464
849.9653, 242.0218
850.4474, 241.9849
850.9296, 242.9517
851.4117, 244.8424
851.8938, 247.6092
852.3759, 251.3189
852.8580, 256.3293
853.3401, 262.4916
853.8223, 268.9053
854.3044, 274.4410
854.7865, 280.8115
855.2686, 289.4496
855.7507, 299.7829
856.2328, 310.6292
856.7150, 320.6089
857.1971, 332.6786
857.6792, 347.2703
858.1613, 364.0385
858.6434, 382.2648
859.1255, 401.8112
859.6077, 423.0504
860.0898, 445.5109
860.5719, 469.9003
861.0540, 496.7438
861.5361, 525.9083
862.0182, 557.7815
862.5004, 592.7616
862.9825, 629.5707
863.4646, 666.9706
863.9467, 706.3856
864.4288, 749.4769
864.9109, 797.1092
865.3931, 845.7850
865.8752, 895.6556
866.3573, 946.2741
866.8394, 999.1427
867.3215, 1052.696
867.8036, 1104.299
868.2858, 1153.618
868.7679, 1200.059
869.2500, 1246.877
869.7321, 1288.952
870.2142, 1321.654
870.6964, 1345.463
871.1785, 1360.613
871.6606, 1367.010
872.1427, 1364.747
872.6248, 1353.961
873.1069, 1334.480
873.5891, 1305.152
874.0712, 1265.741
874.5533, 1218.858
875.0354, 1163.373
875.5175, 1103.405
875.9996, 1040.430
876.4818, 974.7572
876.9639, 910.4177
877.4460, 847.1447
877.9281, 786.5231
878.4102, 728.8975
878.8923, 674.2486
879.3745, 624.1011
879.8566, 578.2360
880.3387, 536.5842
880.8208, 499.4919
881.3029, 466.3120
881.7850, 436.6120
882.2672, 410.1909
882.7493, 386.9507
883.2314, 366.9477
883.7135, 349.9286
884.1956, 336.1517
884.6777, 325.0279
885.1599, 315.1437
885.6420, 306.5168
886.1241, 298.8687
886.6062, 292.1635
887.0883, 286.2544
887.5704, 281.2080
888.0526, 276.7124
888.5347, 272.2279
889.0168, 267.4670
889.4989, 262.8250
889.9810, 258.6144
890.4631, 254.5199
890.9453, 250.1611
891.4274, 245.4739
891.9095, 240.7343
892.3916, 235.9440
892.8737, 231.0904
893.3558, 226.0808
893.8380, 221.0150
894.3201, 216.0904
894.8022, 211.3127
895.2843, 206.5613
895.7664, 201.4313
896.2485, 196.5173
896.7307, 192.2823
897.2128, 188.8181
897.6949, 185.2170
898.1770, 181.3062
898.6591, 177.8249
899.1412, 175.5863
899.6234, 174.1068
900.1055, 171.8147
900.5876, 168.8007
901.0697, 165.7761
901.5518, 163.2002
902.0339, 160.7917
902.5161, 158.3176
902.9982, 155.8594
903.4803, 153.9220
903.9624, 152.6524
904.4445, 151.6207
904.9266, 150.7815
905.4088, 150.0278
905.8909, 149.0225
906.3730, 147.8464
906.8551, 146.8513
907.3372, 146.2982
907.8193, 145.7847
908.3015, 144.9297
908.7836, 143.9602
909.2657, 143.2732
909.7478, 143.0504
910.2299, 142.8753
910.7120, 142.8191
911.1942, 142.6410
911.6763, 141.8381
912.1584, 140.5797
912.6405, 139.7654
913.1226, 139.5694
913.6047, 139.5713
914.0869, 139.4743
914.5690, 139.3989
915.0511, 139.5195
915.5332, 139.9936
916.0153, 140.0783
916.4974, 139.6620
916.9796, 139.0111
917.4617, 138.1108
917.9438, 137.0610
918.4259, 136.6961
918.9080, 136.9699
919.3901, 137.2990
919.8723, 137.3122
920.3544, 137.2170
920.8365, 137.2562
921.3186, 137.3656
921.8007, 137.1333
922.2828, 136.0758
922.7650, 135.4041
923.2471, 135.5468
923.7292, 136.1392
924.2113, 136.2188
924.6934, 135.8678
925.1755, 135.6675
925.6577, 135.8453
926.1398, 136.1675
926.6219, 136.4546
927.1040, 136.7526
927.5861, 137.1252
928.0682, 138.0357
928.5504, 138.2709
929.0325, 137.5169
929.5146, 136.5284
929.9967, 136.0711
930.4788, 136.0966
930.9609, 136.2171
931.4431, 136.4047
931.9252, 136.6642
932.4073, 137.1679
932.8894, 137.6306
933.3715, 137.7553
933.8536, 137.4869
934.3358, 137.3230
934.8179, 137.3002
935.3000, 137.3954
935.7821, 137.6806
936.2642, 138.0565
936.7463, 138.0350
937.2285, 137.6724
937.7106, 137.3649
938.1927, 137.2670
938.6748, 137.3459
939.1569, 137.7480
939.6390, 138.2874
940.1212, 138.5258
940.6033, 138.1030
941.0854, 137.9397
941.5675, 138.2066
942.0496, 138.6558
942.5317, 138.9051
943.0139, 138.9998
943.4960, 139.1615
943.9781, 139.4431
944.4602, 139.7214
944.9423, 139.8145
945.4244, 139.9185
945.9066, 140.2620
946.3887, 141.0075
946.8708, 141.3992
947.3529, 141.2322
947.8350, 141.1896
948.3171, 141.8297
948.7993, 142.9306
949.2814, 143.6824
949.7635, 144.1010
950.2456, 144.3249
950.7277, 144.0530
951.2098, 143.9804
951.6920, 144.5777
952.1741, 145.7285
952.6562, 146.9635
953.1383, 148.4467
953.6204, 149.4715
954.1025, 149.7274
954.5847, 149.7784
955.0668, 150.7559
955.5489, 152.2923
956.0310, 153.3580
956.5131, 153.4932
956.9952, 153.7125
957.4774, 154.7385
957.9595, 155.9524
958.4416, 156.7711
958.9237, 157.0467
959.4058, 157.6143
959.8879, 158.5400
960.3701, 159.4425
960.8522, 159.9199
961.3343, 160.2121
961.8164, 160.8090
962.2985, 161.6815
962.7806, 162.5435
963.2628, 163.0480
963.7449, 163.7467
964.2270, 164.8421
964.7091, 166.3026
965.1912, 168.2652
965.6733, 170.8578
966.1555, 172.5571
966.6376, 172.7439
967.1197, 172.4469
967.6018, 173.0259
968.0839, 174.0705
968.5660, 174.8548
969.0482, 174.8844
969.5303, 175.3910
970.0124, 176.9783
970.4945, 178.7702
970.9766, 180.1547
971.4587, 181.1108
971.9409, 182.1104
972.4230, 183.1583
972.9051, 184.0373
973.3872, 184.3558
973.8693, 184.5919
974.3514, 185.3839
974.8336, 186.6084
975.3157, 187.3274
975.7978, 186.9796
976.2799, 186.7136
976.7620, 186.8476
977.2441, 187.1701
977.7263, 187.2417
978.2084, 187.0670
978.6905, 186.6335
979.1726, 185.8633
979.6547, 185.0449
980.1368, 184.5307
980.6190, 184.0171
981.1010, 183.1156
981.5831, 181.5526
982.0652, 180.3222
982.5474, 179.5048
983.0295, 178.8057
983.5116, 177.9951
983.9937, 177.1266
984.4758, 176.3816
984.9579, 175.7463
985.4401, 175.1181
985.9222, 174.4792
986.4043, 173.7927
986.8864, 172.9450
987.3685, 172.0398
987.8506, 171.3729
988.3328, 170.9578
988.8149, 170.7557
989.2970, 170.8143
989.7791, 170.9319
990.2612, 170.9592
990.7433, 170.8170
991.2255, 170.2864
991.7076, 169.0594
992.1897, 168.2480
992.6718, 168.4854
993.1539, 168.8350
993.6360, 168.6343
994.1182, 167.9012
994.6003, 167.8818
995.0824, 168.5611
995.5645, 168.9198
996.0466, 167.9089
996.5287, 166.6259
997.0109, 165.9726
997.4930, 165.8611
997.9751, 165.8938
998.4572, 166.2251
998.9393, 166.3045
999.4214, 166.0308
999.9036, 165.4998
1000.386, 164.7468
1000.868, 163.8701
1001.350, 163.1721
1001.832, 162.7053
1002.314, 162.5049
1002.796, 162.9075
1003.278, 163.3540
1003.760, 163.4481
1004.243, 163.1914
1004.725, 162.4438
1005.207, 161.0607
1005.689, 159.9849
1006.171, 159.9512
1006.653, 160.3697
1007.135, 160.2446
1007.617, 159.7640
1008.100, 159.4312
1008.582, 159.7100
1009.064, 159.7987
1009.546, 159.6037
1010.028, 159.1052
1010.510, 158.0417
1010.992, 156.4715
1011.474, 155.7531
1011.956, 156.0829
1012.439, 156.5446
1012.921, 156.3974
1013.403, 155.9948
1013.885, 155.6047
1014.367, 155.2571
1014.849, 155.0127
1015.331, 154.9826
1015.813, 154.7795
1016.296, 154.1755
1016.778, 153.3927
1017.260, 152.9522
1017.742, 152.7741
1018.224, 152.6126
1018.706, 152.3460
1019.188, 152.1324
1019.670, 152.0440
1020.152, 152.0347
1020.635, 152.0899
1021.117, 152.2498
1021.599, 152.1859
1022.081, 151.8834
1022.563, 151.4419
1023.045, 150.7433
1023.527, 150.0855
1024.009, 149.9080
1024.492, 150.1396
1024.974, 150.2451
1025.456, 149.9783
1025.938, 149.7845
1026.420, 149.8376
1026.902, 149.9133
1027.384, 149.5462
1027.866, 148.8133
1028.349, 147.9865
1028.831, 147.0885
1029.313, 146.3161
1029.795, 145.6427
1030.277, 145.2575
1030.759, 145.4495
1031.241, 146.2860
1031.723, 146.6512
1032.205, 146.4934
1032.688, 146.2081
1033.170, 146.0612
1033.652, 145.8857
1034.134, 145.2842
1034.616, 144.4582
1035.098, 143.8975
1035.580, 144.1046
1036.062, 144.1057
1036.544, 143.6520
1037.027, 143.0987
1037.509, 142.9253
1037.991, 143.0675
1038.473, 143.0854
1038.955, 142.9394
1039.437, 142.7364
1039.919, 142.3011
1040.401, 142.0556
1040.884, 142.5299
1041.366, 143.5747
1041.848, 143.9107
1042.330, 143.3745
1042.812, 142.8358
1043.294, 142.5261
1043.776, 142.3848
1044.258, 142.4949
1044.740, 142.6471
1045.223, 142.4267
1045.705, 141.5071
1046.187, 140.8463
1046.669, 140.5660
1047.151, 140.6543
1047.633, 141.2449
1048.115, 142.2475
1048.597, 142.9942
1049.079, 143.4810
1049.562, 143.6375
1050.044, 143.0845
1050.526, 142.5294
1051.008, 142.4626
1051.490, 142.6881
1051.972, 142.7740
1052.454, 142.6711
1052.936, 142.6008
1053.419, 142.5943
1053.901, 142.5815
1054.383, 142.4097
1054.865, 142.2261
1055.347, 142.2908
1055.829, 142.6231
1056.311, 142.8303
1056.793, 142.4590
1057.276, 142.4794
1057.758, 143.4526
1058.240, 144.8065
1058.722, 144.7391
1059.204, 143.5807
1059.686, 142.7968
1060.168, 143.0056
1060.650, 143.1883
1061.132, 142.3197
1061.615, 141.4385
1062.097, 141.6476
1062.579, 143.1581
1063.061, 143.7574
1063.543, 143.3472
1064.025, 142.9751
1064.507, 143.5673
1064.989, 144.3700
1065.471, 144.2915
1065.954, 143.6805
1066.436, 143.4157
1066.918, 144.2022
1067.400, 144.5511
1067.882, 144.1742
1068.364, 143.6783
1068.846, 143.7951
1069.328, 144.3793
1069.811, 145.0208
1070.293, 145.6790
1070.775, 146.3681
1071.257, 147.3692
1071.739, 148.0896
1072.221, 148.0859
1072.703, 147.6572
1073.185, 147.8014
1073.667, 148.5076
1074.150, 149.1951
1074.632, 149.7165
1075.114, 150.1388
1075.596, 150.5449
1076.078, 150.8687
1076.560, 150.9780
1077.042, 150.7755
1077.524, 150.9194
1078.006, 151.5657
1078.489, 151.9880
1078.971, 151.5367
1079.453, 150.8354
1079.935, 151.1151
1080.417, 152.1306
1080.899, 153.2861
1081.381, 154.7966
1081.863, 155.7938
1082.345, 156.0566
1082.828, 155.9807
1083.310, 155.8625
1083.792, 155.7212
1084.274, 155.6822
1084.756, 155.7505
1085.238, 155.9162
1085.720, 156.5253
1086.202, 156.8726
1086.685, 156.2896
1087.167, 155.2065
1087.649, 154.6929
1088.131, 154.8332
1088.613, 154.7248
1089.095, 154.1911
1089.577, 153.5285
1090.059, 153.0413
1090.542, 152.5896
1091.024, 151.9770
1091.506, 151.1674
1091.988, 150.5945
1092.470, 150.4425
1092.952, 150.0340
1093.434, 148.9488
1093.916, 147.7239
1094.398, 147.5354
1094.880, 147.9962
1095.363, 148.2606
1095.845, 148.0907
1096.327, 147.7297
1096.809, 147.0798
1097.291, 146.4457
1097.773, 146.0813
1098.255, 145.9142
1098.737, 145.2903
1099.220, 144.3071
1099.702, 143.5612
1100.184, 143.6161
1100.666, 143.7238
1101.148, 143.5192
1101.630, 143.1346
1102.112, 142.7583
1102.594, 142.3854
1103.077, 142.0269
1103.559, 141.6730
1104.041, 141.4690
1104.523, 141.7052
1105.005, 142.0052
1105.487, 141.9908
1105.969, 141.7068
1106.451, 141.4759
1106.933, 141.3136
1107.416, 141.2227
1107.898, 141.2163
1108.380, 141.2332
1108.862, 141.1567
1109.344, 141.0620
1109.826, 141.1482
1110.308, 141.4638
1110.790, 141.4760
1111.272, 140.6299
1111.755, 140.1231
1112.237, 140.4769
1112.719, 141.3154
1113.201, 141.6955
1113.683, 141.7228
1114.165, 141.7796
1114.647, 142.0443
1115.129, 142.1522
1115.612, 141.7486
1116.094, 141.3021
1116.576, 141.1369
1117.058, 141.2335
1117.540, 141.2535
1118.022, 141.2054
1118.504, 141.2083
1118.986, 141.2983
1119.469, 141.4865
1119.951, 141.9504
1120.433, 142.4332
1120.915, 142.5480
1121.397, 142.2003
1121.879, 141.8371
1122.361, 141.4463
1122.843, 141.2426
1123.325, 141.7016
1123.807, 142.1921
1124.290, 141.8393
1124.772, 140.9250
1125.254, 140.5278
1125.736, 141.0397
1126.218, 141.2980
1126.700, 141.1063
1127.182, 140.8430
1127.664, 141.0019
1128.147, 141.3585
1128.629, 141.5087
1129.111, 141.4356
1129.593, 141.4229
1130.075, 141.4492
1130.557, 141.7435
1131.039, 142.5660
1131.521, 143.4090
1132.004, 143.0015
1132.486, 141.8523
1132.968, 141.4806
1133.450, 142.2820
1133.932, 143.0881
1134.414, 143.5029
1134.896, 143.6470
1135.378, 143.4379
1135.860, 143.0521
1136.343, 143.3307
1136.825, 144.1713
1137.307, 144.9405
1137.789, 145.4414
1138.271, 145.8021
1138.753, 145.9146
1139.235, 146.0618
1139.717, 146.4853
1140.199, 147.1879
1140.682, 147.9470
1141.164, 148.7532
1141.646, 149.4591
1142.128, 149.8512
1142.610, 150.2654
1143.092, 150.9227
1143.574, 151.8007
1144.056, 152.8757
1144.539, 154.2059
1145.021, 155.5192
1145.503, 156.8080
1145.985, 158.1067
1146.467, 159.2485
1146.949, 160.5512
1147.431, 162.5598
1147.913, 165.0032
1148.396, 167.0906
1148.878, 168.3474
1149.360, 170.2766
1149.842, 173.2124
1150.324, 176.1772
1150.806, 178.0582
1151.288, 179.3405
1151.770, 180.4576
1152.252, 181.5562
1152.734, 183.4409
1153.217, 187.0376
1153.699, 190.1222
1154.181, 192.2986
1154.663, 193.7795
1155.145, 194.8489
1155.627, 195.4987
1156.109, 195.8714
1156.591, 195.9901
1157.074, 195.0305
1157.556, 191.7693
1158.038, 188.5186
1158.520, 186.0035
1159.002, 183.7419
1159.484, 180.5486
1159.966, 176.7116
1160.448, 173.1243
1160.931, 170.0212
1161.413, 166.9347
1161.895, 163.5484
1162.377, 160.3487
1162.859, 157.5557
1163.341, 155.1354
1163.823, 152.8135
1164.305, 150.7052
1164.787, 149.4857
1165.270, 149.8279
1165.752, 149.9240
1166.234, 148.5117
1166.716, 146.7825
1167.198, 145.6389
1167.680, 145.0108
1168.162, 143.7977
1168.644, 142.1022
1169.126, 140.9776
1169.609, 141.2004
1170.091, 141.6605
1170.573, 141.8102
1171.055, 141.7774
1171.537, 141.7219
1172.019, 141.6519
1172.501, 141.4309
1172.983, 141.0635
1173.466, 140.6443
1173.948, 140.0247
1174.430, 139.5947
1174.912, 139.9710
1175.394, 140.5596
1175.876, 140.2982
1176.358, 138.9534
1176.840, 138.3160
1177.323, 138.4809
1177.805, 138.7666
1178.287, 138.7958
1178.769, 138.6061
1179.251, 137.8570
1179.733, 136.9890
1180.215, 137.2292
1180.697, 139.0153
1181.179, 139.6841
1181.661, 138.8865
1182.144, 137.8311
1182.626, 137.5209
1183.108, 137.5304
1183.590, 137.4392
1184.072, 137.2905
1184.554, 137.3961
1185.036, 137.8650
1185.518, 138.1698
1186.001, 138.2334
1186.483, 138.1175
1186.965, 137.7820
1187.447, 137.3800
1187.929, 137.0449
1188.411, 136.7998
1188.893, 136.6882
1189.375, 136.7170
1189.858, 136.8800
1190.340, 137.2252
1190.822, 137.5408
1191.304, 137.6191
1191.786, 137.4911
1192.268, 137.0984
1192.750, 136.4323
1193.232, 136.0488
1193.714, 135.9984
1194.197, 136.1647
1194.679, 136.6086
1195.161, 137.0056
1195.643, 136.7348
1196.125, 136.2125
1196.607, 136.0237
1197.089, 136.3034
1197.571, 136.5951
1198.053, 136.9356
1198.536, 137.0805
1199.018, 136.8774
1199.500, 136.5640
1199.982, 136.5871
1200.464, 136.7183
1200.946, 136.5697
1201.428, 135.9613
1201.910, 135.5203
1202.393, 135.2257
1202.875, 135.2536
1203.357, 135.8202
1203.839, 136.5664
1204.321, 136.9460
1204.803, 137.0583
1205.285, 137.0465
1205.767, 136.8256
1206.250, 136.8840
1206.732, 137.3987
1207.214, 137.6521
1207.696, 136.9358
1208.178, 136.0202
1208.660, 136.5835
1209.142, 137.8803
1209.624, 138.4770
1210.106, 137.5747
1210.589, 136.8627
1211.071, 136.3665
1211.553, 136.0391
1212.035, 135.9052
1212.517, 135.8748
1212.999, 135.7865
1213.481, 135.6806
1213.963, 135.6395
1214.445, 135.6015
1214.928, 135.9000
1215.410, 136.7686
1215.892, 137.2426
1216.374, 135.9637
1216.856, 134.2422
1217.338, 134.5695
1217.820, 136.1245
1218.302, 136.8425
1218.785, 135.2801
1219.267, 134.9637
1219.749, 136.3386
1220.231, 137.7171
1220.713, 137.5516
1221.195, 136.6865
1221.677, 136.2046
1222.159, 136.0751
1222.641, 136.1509
1223.124, 136.5027
1223.606, 136.8359
1224.088, 137.1550
1224.570, 137.3921
1225.052, 137.4439
1225.534, 137.4115
1226.016, 137.4619
1226.498, 137.5448
1226.980, 137.4599
1227.463, 137.1348
1227.945, 136.8105
1228.427, 136.5043
1228.909, 136.2058
1229.391, 135.8899
1229.873, 135.5864
1230.355, 135.2165
1230.837, 134.8910
1231.320, 135.0428
1231.802, 135.9035
1232.284, 136.4600
1232.766, 136.6201
1233.248, 136.4081
1233.730, 135.3823
1234.212, 134.3736
1234.694, 134.4837
1235.177, 135.3908
1235.659, 135.6021
1236.141, 134.8704
1236.623, 134.4985
1237.105, 134.6575
1237.587, 135.1087
1238.069, 135.9983
1238.551, 136.7659
1239.033, 136.7198
1239.516, 136.0932
1239.998, 135.9087
1240.480, 136.2230
1240.962, 136.4683
1241.444, 136.5534
1241.926, 136.6815
1242.408, 137.1832
1242.890, 137.6536
1243.372, 137.8237
1243.855, 137.6927
1244.337, 137.1344
1244.819, 136.1195
1245.301, 135.9271
1245.783, 136.8092
1246.265, 137.5969
1246.747, 137.1405
1247.229, 136.5134
1247.712, 136.4555
1248.194, 136.7531
1248.676, 136.9269
1249.158, 136.9836
1249.640, 136.9530
1250.122, 136.8369
1250.604, 136.7482
1251.086, 136.6505
1251.568, 136.7431
1252.051, 137.2791
1252.533, 137.9617
1253.015, 138.1513
1253.497, 137.8885
1253.979, 137.2240
1254.461, 136.1390
1254.943, 135.4455
1255.425, 135.8576
1255.907, 136.4634
1256.390, 136.9550
1256.872, 137.3325
1257.354, 137.5845
1257.836, 137.7241
1258.318, 137.7604
1258.800, 137.6925
1259.282, 137.7217
1259.764, 138.2959
1260.247, 138.4425
1260.729, 137.7171
1261.211, 136.7262
1261.693, 136.5822
1262.175, 136.9685
1262.657, 137.1829
1263.139, 137.1282
1263.621, 137.2187
1264.104, 137.7222
1264.586, 138.0181
1265.068, 137.8763
1265.550, 137.6536
1266.032, 138.0876
1266.514, 138.6905
1266.996, 138.5313
1267.478, 137.5379
1267.960, 137.0775
1268.443, 137.4209
1268.925, 137.7811
1269.407, 138.0159
1269.889, 138.0641
1270.371, 137.5696
1270.853, 137.0422
1271.335, 137.2228
1271.817, 138.0941
1272.299, 138.4218
1272.782, 138.0990
1273.264, 137.7938
1273.746, 137.6134
1274.228, 137.6855
1274.710, 138.5600
1275.192, 139.3822
1275.674, 139.1727
1276.156, 138.2288
1276.639, 137.8784
1277.121, 138.1254
1277.603, 138.7551
1278.085, 139.7942
1278.567, 140.4681
1279.049, 139.8775
1279.531, 139.0300
1280.013, 138.4670
1280.495, 138.1538
1280.978, 138.0299
1281.460, 138.0821
1281.942, 138.2806
1282.424, 138.6310
1282.906, 138.8570
1283.388, 138.5370
1283.870, 138.4278
1284.352, 138.9107
1284.834, 139.6246
1285.317, 139.8180
1285.799, 139.6599
1286.281, 139.6006
1286.763, 139.6981
1287.245, 139.7936
1287.727, 139.8822
1288.209, 139.9052
1288.691, 139.8990
1289.173, 139.7123
1289.656, 138.8554
1290.138, 137.8030
1290.620, 137.3585
1291.102, 137.5694
1291.584, 137.8499
1292.066, 138.0794
1292.548, 138.5664
1293.030, 139.4535
1293.513, 140.2375
1293.995, 140.2461
1294.477, 139.9509
1294.959, 139.8479
1295.441, 139.9063
1295.923, 139.7307
1296.405, 139.2784
1296.887, 138.9322
1297.370, 138.7360
1297.852, 138.8019
1298.334, 139.6206
1298.816, 140.3669
1299.298, 140.2186
1299.780, 139.6241
1300.262, 139.5644
1300.744, 139.9898
1301.226, 140.2840
1301.708, 140.3810
1302.191, 140.5475
1302.673, 141.0649
1303.155, 141.4605
1303.637, 141.5423
1304.119, 141.2480
##END=



