##NAMES=Portlandite
##RRUFFID=R070210
##IDEAL CHEMISTRY=Ca(OH)_2_
##LOCALITY=N'Chwaning II mine, Kalahari Manganese Field, northern Cape Province, South Africa
##OWNER=RRUFF
##SOURCE=Michael Scott
##DESCRIPTION=White flexible platy crystals associated with calcite
##STATUS=The identification of this mineral has been confirmed by X-ray diffraction and chemical analysis
##URL=rruff.info/R070210
##MEASURED CHEMISTRY=Ca_1.00_(OH)_2_
160.2684, 7005.357
160.7505, 7032.885
161.2326, 7058.283
161.7148, 7083.725
162.1969, 7107.737
162.6790, 7133.309
163.1611, 7162.993
163.6432, 7206.386
164.1253, 7247.440
164.6075, 7274.684
165.0896, 7287.601
165.5717, 7302.636
166.0538, 7330.554
166.5359, 7366.132
167.0180, 7401.890
167.5002, 7435.204
167.9823, 7467.533
168.4644, 7498.427
168.9465, 7527.048
169.4286, 7559.843
169.9107, 7610.770
170.3929, 7669.568
170.8750, 7715.950
171.3571, 7729.936
171.8392, 7729.850
172.3213, 7734.206
172.8034, 7745.159
173.2856, 7760.899
173.7677, 7780.929
174.2498, 7804.793
174.7319, 7830.506
175.2140, 7859.168
175.6961, 7888.424
176.1783, 7914.302
176.6604, 7935.036
177.1425, 7953.535
177.6246, 7974.872
178.1067, 7997.958
178.5888, 8017.133
179.0710, 8022.822
179.5531, 8021.307
180.0352, 8027.338
180.5173, 8048.338
180.9994, 8074.433
181.4815, 8087.943
181.9637, 8089.310
182.4458, 8088.641
182.9279, 8094.068
183.4100, 8104.572
183.8921, 8115.634
184.3742, 8121.016
184.8564, 8128.315
185.3385, 8160.271
185.8206, 8218.955
186.3027, 8280.451
186.7848, 8322.840
187.2669, 8347.135
187.7491, 8362.794
188.2312, 8371.259
188.7133, 8373.559
189.1954, 8369.140
189.6775, 8355.117
190.1596, 8347.606
190.6418, 8375.769
191.1239, 8438.364
191.6060, 8489.767
192.0881, 8506.463
192.5702, 8492.541
193.0524, 8480.637
193.5345, 8468.177
194.0166, 8464.347
194.4987, 8490.347
194.9808, 8548.439
195.4629, 8602.391
195.9451, 8633.494
196.4272, 8642.565
196.9093, 8648.267
197.3914, 8649.672
197.8735, 8650.088
198.3556, 8654.997
198.8378, 8664.246
199.3199, 8678.639
199.8020, 8702.277
200.2841, 8736.225
200.7662, 8760.437
201.2483, 8773.028
201.7305, 8775.935
202.2126, 8768.967
202.6947, 8746.906
203.1768, 8734.469
203.6589, 8752.640
204.1410, 8807.291
204.6232, 8848.821
205.1053, 8869.436
205.5874, 8875.629
206.0695, 8890.162
206.5516, 8916.649
207.0337, 8941.986
207.5159, 8955.879
207.9980, 8955.164
208.4801, 8956.430
208.9622, 8960.276
209.4443, 8967.660
209.9264, 8985.821
210.4086, 9020.727
210.8907, 9054.517
211.3728, 9072.205
211.8549, 9069.882
212.3370, 9064.059
212.8191, 9051.503
213.3013, 9035.482
213.7834, 9047.177
214.2655, 9100.444
214.7476, 9159.308
215.2297, 9190.985
215.7118, 9186.743
216.1940, 9179.746
216.6761, 9173.213
217.1582, 9167.488
217.6403, 9173.294
218.1224, 9196.751
218.6045, 9223.464
219.0867, 9239.028
219.5688, 9238.820
220.0509, 9237.697
220.5330, 9236.300
221.0151, 9234.354
221.4972, 9245.745
221.9794, 9279.279
222.4615, 9316.432
222.9436, 9335.445
223.4257, 9323.447
223.9078, 9320.578
224.3899, 9340.949
224.8721, 9388.133
225.3542, 9412.677
225.8363, 9399.727
226.3184, 9378.419
226.8005, 9386.594
227.2827, 9445.236
227.7648, 9493.003
228.2469, 9511.535
228.7290, 9496.148
229.2111, 9486.649
229.6932, 9479.906
230.1754, 9481.671
230.6575, 9502.625
231.1396, 9558.334
231.6217, 9605.409
232.1038, 9631.108
232.5859, 9632.109
233.0681, 9627.995
233.5502, 9611.127
234.0323, 9594.607
234.5144, 9599.541
234.9965, 9640.384
235.4786, 9678.259
235.9608, 9700.976
236.4429, 9705.018
236.9250, 9707.470
237.4071, 9699.027
237.8892, 9694.850
238.3713, 9723.247
238.8535, 9810.434
239.3356, 9886.235
239.8177, 9925.718
240.2998, 9918.274
240.7819, 9915.021
241.2640, 9916.440
241.7462, 9921.708
242.2283, 9928.302
242.7104, 9930.529
243.1925, 9943.646
243.6746, 9976.013
244.1567, 10037.17
244.6389, 10083.98
245.1210, 10106.10
245.6031, 10119.92
246.0852, 10155.78
246.5673, 10225.85
247.0494, 10297.17
247.5316, 10356.61
248.0137, 10397.38
248.4958, 10449.75
248.9779, 10516.56
249.4600, 10593.17
249.9421, 10668.52
250.4243, 10738.27
250.9064, 10815.47
251.3885, 10908.09
251.8706, 11025.70
252.3527, 11130.23
252.8348, 11229.69
253.3170, 11311.13
253.7991, 11349.13
254.2812, 11340.05
254.7633, 11293.70
255.2454, 11205.42
255.7275, 11060.37
256.2097, 10930.60
256.6918, 10816.82
257.1739, 10719.27
257.6560, 10637.95
258.1381, 10574.90
258.6202, 10523.75
259.1024, 10483.07
259.5845, 10455.60
260.0666, 10428.45
260.5487, 10399.39
261.0308, 10372.44
261.5129, 10353.02
261.9951, 10339.98
262.4772, 10337.72
262.9593, 10351.76
263.4414, 10388.25
263.9235, 10412.66
264.4056, 10424.83
264.8878, 10425.25
265.3699, 10409.34
265.8520, 10365.68
266.3341, 10338.11
266.8162, 10351.18
267.2983, 10414.83
267.7805, 10453.29
268.2626, 10459.90
268.7447, 10448.27
269.2268, 10439.70
269.7089, 10433.55
270.1910, 10432.88
270.6732, 10441.88
271.1553, 10462.45
271.6374, 10471.25
272.1195, 10463.00
272.6016, 10450.74
273.0837, 10459.58
273.5659, 10494.86
274.0480, 10523.90
274.5301, 10528.89
275.0122, 10508.39
275.4943, 10507.00
275.9764, 10529.01
276.4586, 10562.02
276.9407, 10589.65
277.4228, 10611.65
277.9049, 10627.75
278.3870, 10634.48
278.8691, 10632.53
279.3513, 10640.42
279.8334, 10661.68
280.3155, 10683.74
280.7976, 10683.08
281.2798, 10658.16
281.7619, 10647.31
282.2440, 10676.83
282.7261, 10738.18
283.2082, 10759.54
283.6903, 10732.84
284.1725, 10695.76
284.6546, 10700.33
285.1367, 10744.73
285.6188, 10781.33
286.1009, 10784.77
286.5830, 10765.95
287.0652, 10776.95
287.5473, 10821.84
288.0294, 10871.58
288.5115, 10894.02
288.9936, 10891.48
289.4757, 10881.93
289.9579, 10863.49
290.4400, 10844.27
290.9221, 10850.32
291.4042, 10883.16
291.8863, 10922.37
292.3684, 10948.91
292.8506, 10964.57
293.3327, 10977.68
293.8148, 10991.69
294.2969, 11004.42
294.7790, 11010.85
295.2611, 11010.96
295.7433, 11009.69
296.2254, 11011.56
296.7075, 11015.49
297.1896, 11018.09
297.6717, 11016.31
298.1538, 11014.55
298.6360, 11021.15
299.1181, 11035.46
299.6002, 11049.23
300.0823, 11053.32
300.5644, 11052.79
301.0465, 11056.60
301.5287, 11064.99
302.0108, 11081.30
302.4929, 11117.83
302.9750, 11170.33
303.4571, 11212.37
303.9392, 11214.87
304.4214, 11199.87
304.9035, 11198.39
305.3856, 11224.31
305.8677, 11255.14
306.3498, 11273.08
306.8319, 11279.70
307.3141, 11280.80
307.7962, 11271.53
308.2783, 11262.17
308.7604, 11264.72
309.2425, 11287.53
309.7246, 11309.41
310.2068, 11311.50
310.6889, 11301.46
311.1710, 11299.12
311.6531, 11323.67
312.1352, 11353.75
312.6173, 11371.73
313.0995, 11369.55
313.5816, 11370.09
314.0637, 11387.78
314.5458, 11415.45
315.0279, 11439.76
315.5100, 11456.17
315.9922, 11467.42
316.4743, 11472.88
316.9564, 11469.89
317.4385, 11471.81
317.9206, 11488.36
318.4027, 11511.23
318.8849, 11528.81
319.3670, 11533.60
319.8491, 11536.43
320.3312, 11540.63
320.8133, 11546.33
321.2954, 11554.27
321.7776, 11565.70
322.2597, 11579.05
322.7418, 11592.61
323.2239, 11604.06
323.7060, 11617.77
324.1881, 11634.86
324.6703, 11655.47
325.1524, 11678.10
325.6345, 11709.38
326.1166, 11738.81
326.5987, 11758.11
327.0808, 11750.44
327.5630, 11752.50
328.0451, 11774.53
328.5272, 11815.10
329.0093, 11842.12
329.4914, 11838.46
329.9735, 11836.16
330.4557, 11858.72
330.9378, 11936.11
331.4199, 11985.06
331.9020, 11987.86
332.3841, 11955.56
332.8662, 11941.45
333.3484, 11947.93
333.8305, 11969.18
334.3126, 12006.46
334.7947, 12069.61
335.2768, 12114.79
335.7589, 12129.21
336.2411, 12130.26
336.7232, 12165.51
337.2053, 12244.08
337.6874, 12329.48
338.1695, 12408.17
338.6516, 12480.00
339.1338, 12536.11
339.6159, 12566.49
340.0980, 12596.05
340.5801, 12673.21
341.0622, 12804.52
341.5443, 12932.26
342.0265, 13033.04
342.5086, 13108.96
342.9907, 13183.04
343.4728, 13250.88
343.9549, 13331.80
344.4370, 13453.46
344.9192, 13612.11
345.4013, 13779.48
345.8834, 13941.34
346.3655, 14104.01
346.8476, 14271.62
347.3297, 14442.70
347.8119, 14638.19
348.2940, 14881.60
348.7761, 15165.32
349.2582, 15461.36
349.7403, 15773.49
350.2225, 16089.89
350.7046, 16381.97
351.1867, 16657.71
351.6688, 16958.63
352.1509, 17328.20
352.6331, 17739.33
353.1152, 18157.57
353.5973, 18591.05
354.0794, 19000.03
354.5615, 19356.83
355.0436, 19661.62
355.5258, 19914.90
356.0079, 20142.37
356.4900, 20304.33
356.9721, 20364.12
357.4542, 20310.03
357.9363, 20174.39
358.4185, 19959.77
358.9006, 19677.49
359.3827, 19347.13
359.8648, 18944.11
360.3469, 18520.53
360.8290, 18096.85
361.3112, 17671.04
361.7933, 17263.46
362.2754, 16873.41
362.7575, 16504.07
363.2396, 16157.42
363.7217, 15836.00
364.2039, 15540.01
364.6860, 15267.46
365.1681, 15017.31
365.6502, 14802.05
366.1323, 14640.50
366.6144, 14501.78
367.0966, 14364.20
367.5787, 14215.29
368.0608, 14083.69
368.5429, 13974.57
369.0250, 13884.89
369.5071, 13802.23
369.9893, 13732.12
370.4714, 13662.96
370.9535, 13586.00
371.4356, 13485.36
371.9177, 13417.04
372.3998, 13395.82
372.8820, 13400.05
373.3641, 13380.24
373.8462, 13327.02
374.3283, 13274.25
374.8104, 13235.41
375.2925, 13210.95
375.7747, 13193.03
376.2568, 13184.38
376.7389, 13176.58
377.2210, 13156.56
377.7031, 13123.35
378.1852, 13091.78
378.6674, 13063.41
379.1495, 13040.38
379.6316, 13035.25
380.1137, 13049.99
380.5958, 13065.10
381.0779, 13061.67
381.5601, 13042.36
382.0422, 13019.53
382.5243, 12991.66
383.0064, 12966.57
383.4885, 12959.26
383.9706, 12968.05
384.4528, 12980.94
384.9349, 12996.42
385.4170, 13009.08
385.8991, 13006.58
386.3812, 12981.59
386.8633, 12959.34
387.3455, 12971.84
387.8276, 13005.47
388.3097, 13029.30
388.7918, 13015.04
389.2739, 12992.58
389.7560, 12985.76
390.2382, 12997.20
390.7203, 13014.91
391.2024, 13042.37
391.6845, 13069.12
392.1666, 13083.40
392.6487, 13068.14
393.1309, 13051.76
393.6130, 13048.02
394.0951, 13055.58
394.5772, 13057.15
395.0593, 13038.17
395.5414, 13018.25
396.0236, 13009.85
396.5057, 13016.67
396.9878, 13032.75
397.4699, 13066.89
397.9520, 13111.19
398.4341, 13140.77
398.9163, 13152.15
399.3984, 13152.21
399.8805, 13140.58
400.3626, 13109.00
400.8447, 13089.66
401.3268, 13080.89
401.8090, 13085.63
402.2911, 13113.36
402.7732, 13178.63
403.2553, 13227.37
403.7374, 13238.99
404.2195, 13216.32
404.7017, 13213.67
405.1838, 13237.22
405.6659, 13264.15
406.1480, 13273.64
406.6301, 13265.59
407.1122, 13250.43
407.5944, 13222.69
408.0765, 13196.53
408.5586, 13215.32
409.0407, 13278.19
409.5228, 13337.98
410.0049, 13361.70
410.4871, 13357.79
410.9692, 13347.56
411.4513, 13331.39
411.9334, 13316.00
412.4155, 13302.55
412.8976, 13294.99
413.3798, 13304.52
413.8619, 13359.45
414.3440, 13420.58
414.8261, 13441.90
415.3082, 13422.68
415.7903, 13401.84
416.2725, 13406.70
416.7546, 13423.30
417.2367, 13436.00
417.7188, 13436.92
418.2009, 13435.92
418.6830, 13438.27
419.1652, 13442.58
419.6473, 13443.71
420.1294, 13428.75
420.6115, 13418.36
421.0937, 13425.38
421.5758, 13461.32
422.0579, 13493.22
422.5400, 13517.68
423.0221, 13535.45
423.5042, 13547.99
423.9864, 13542.33
424.4685, 13546.21
424.9506, 13573.20
425.4327, 13626.70
425.9148, 13652.40
426.3969, 13633.70
426.8791, 13606.10
427.3612, 13602.44
427.8433, 13632.83
428.3254, 13655.18
428.8075, 13662.15
429.2896, 13657.65
429.7718, 13654.94
430.2539, 13654.65
430.7360, 13652.81
431.2181, 13642.77
431.7002, 13625.94
432.1823, 13622.85
432.6645, 13634.67
433.1466, 13659.84
433.6287, 13712.14
434.1108, 13782.29
434.5929, 13822.20
435.0750, 13784.00
435.5572, 13714.88
436.0393, 13702.49
436.5214, 13744.65
437.0035, 13795.60
437.4856, 13813.72
437.9677, 13819.70
438.4499, 13845.04
438.9320, 13912.19
439.4141, 13975.92
439.8962, 14005.02
440.3783, 14005.54
440.8604, 13993.92
441.3426, 13964.18
441.8247, 13934.42
442.3068, 13913.88
442.7889, 13903.52
443.2710, 13902.84
443.7531, 13926.57
444.2353, 13954.11
444.7174, 13963.10
445.1995, 13919.79
445.6816, 13891.06
446.1637, 13892.79
446.6458, 13922.09
447.1280, 13950.15
447.6101, 13979.38
448.0922, 14004.79
448.5743, 14022.63
449.0564, 14029.30
449.5385, 14039.55
450.0207, 14058.06
450.5028, 14076.41
450.9849, 14073.07
451.4670, 14041.46
451.9491, 14022.16
452.4312, 14038.08
452.9134, 14082.78
453.3955, 14102.33
453.8776, 14093.54
454.3597, 14081.95
454.8418, 14099.31
455.3239, 14137.15
455.8061, 14157.62
456.2882, 14145.80
456.7703, 14123.18
457.2524, 14115.65
457.7345, 14122.62
458.2166, 14141.90
458.6988, 14182.55
459.1809, 14229.57
459.6630, 14268.42
460.1451, 14298.60
460.6272, 14315.89
461.1093, 14304.75
461.5915, 14283.08
462.0736, 14273.34
462.5557, 14291.10
463.0378, 14314.04
463.5199, 14337.12
464.0020, 14359.46
464.4842, 14376.63
464.9663, 14388.31
465.4484, 14393.92
465.9305, 14392.48
466.4126, 14376.23
466.8947, 14366.44
467.3769, 14362.72
467.8590, 14365.57
468.3411, 14376.87
468.8232, 14400.84
469.3053, 14425.16
469.7874, 14448.81
470.2696, 14471.28
470.7517, 14482.19
471.2338, 14479.59
471.7159, 14471.44
472.1980, 14460.83
472.6801, 14448.03
473.1623, 14447.06
473.6444, 14462.42
474.1265, 14485.37
474.6086, 14500.06
475.0907, 14508.02
475.5728, 14519.26
476.0550, 14546.69
476.5371, 14578.20
477.0192, 14593.17
477.5013, 14590.91
477.9834, 14581.12
478.4655, 14557.16
478.9477, 14534.50
479.4298, 14534.72
479.9119, 14581.95
480.3940, 14631.03
480.8761, 14658.97
481.3582, 14670.16
481.8404, 14676.79
482.3225, 14682.60
482.8046, 14684.89
483.2867, 14679.52
483.7688, 14660.06
484.2509, 14654.17
484.7331, 14673.29
485.2152, 14702.38
485.6973, 14729.00
486.1794, 14758.73
486.6615, 14775.67
487.1436, 14772.48
487.6258, 14754.65
488.1079, 14747.94
488.5900, 14753.78
489.0721, 14767.08
489.5542, 14786.11
490.0363, 14810.96
490.5185, 14840.67
491.0006, 14877.98
491.4827, 14910.09
491.9648, 14916.18
492.4470, 14900.21
492.9291, 14881.77
493.4112, 14857.47
493.8933, 14843.39
494.3754, 14879.77
494.8575, 14958.09
495.3397, 15022.60
495.8218, 15030.31
496.3039, 15008.75
496.7860, 14983.86
497.2681, 14955.49
497.7502, 14938.89
498.2324, 14945.63
498.7145, 14967.85
499.1966, 14994.98
499.6787, 15037.76
500.1608, 15070.88
500.6429, 15084.03
501.1251, 15078.13
501.6072, 15070.36
502.0893, 15057.04
502.5714, 15046.35
503.0535, 15041.42
503.5356, 15040.10
504.0178, 15050.58
504.4999, 15077.74
504.9820, 15112.23
505.4641, 15140.67
505.9462, 15162.29
506.4283, 15182.11
506.9105, 15204.04
507.3926, 15224.53
507.8747, 15225.66
508.3568, 15206.44
508.8389, 15186.05
509.3210, 15172.10
509.8032, 15167.82
510.2853, 15189.13
510.7674, 15245.27
511.2495, 15295.82
511.7316, 15287.23
512.2137, 15243.01
512.6959, 15211.18
513.1780, 15213.67
513.6601, 15233.41
514.1422, 15268.14
514.6243, 15314.46
515.1064, 15350.80
515.5886, 15369.20
516.0707, 15374.70
516.5528, 15367.08
517.0349, 15330.57
517.5170, 15313.89
517.9991, 15336.04
518.4813, 15375.01
518.9634, 15403.66
519.4455, 15418.15
519.9276, 15428.84
520.4097, 15437.75
520.8918, 15444.49
521.3740, 15444.05
521.8561, 15431.53
522.3382, 15428.05
522.8203, 15456.91
523.3024, 15514.79
523.7845, 15543.87
524.2667, 15536.03
524.7488, 15518.64
525.2309, 15527.76
525.7130, 15556.26
526.1951, 15579.05
526.6772, 15585.32
527.1594, 15583.92
527.6415, 15583.04
528.1236, 15582.85
528.6057, 15583.95
529.0878, 15583.79
529.5699, 15586.97
530.0521, 15600.43
530.5342, 15629.82
531.0163, 15648.08
531.4984, 15627.36
531.9805, 15599.50
532.4626, 15598.24
532.9448, 15664.72
533.4269, 15714.08
533.9090, 15733.83
534.3911, 15729.26
534.8732, 15716.93
535.3553, 15684.34
535.8375, 15667.64
536.3196, 15690.15
536.8017, 15755.12
537.2838, 15792.58
537.7659, 15797.32
538.2480, 15792.91
538.7302, 15808.13
539.2123, 15839.19
539.6944, 15857.97
540.1765, 15855.15
540.6586, 15843.41
541.1407, 15835.58
541.6229, 15832.90
542.1050, 15839.47
542.5871, 15867.63
543.0692, 15899.43
543.5513, 15917.22
544.0334, 15920.02
544.5156, 15922.14
544.9977, 15927.54
545.4798, 15936.57
545.9619, 15949.73
546.4440, 15971.15
546.9261, 15990.67
547.4083, 16004.23
547.8904, 16015.66
548.3725, 16031.83
548.8546, 16056.48
549.3367, 16080.64
549.8188, 16107.20
550.3010, 16133.92
550.7831, 16127.36
551.2652, 16076.23
551.7473, 16029.36
552.2294, 16028.61
552.7115, 16068.64
553.1937, 16095.91
553.6758, 16104.57
554.1579, 16107.14
554.6400, 16113.82
555.1221, 16126.54
555.6042, 16151.57
556.0864, 16205.18
556.5685, 16258.17
557.0506, 16276.26
557.5327, 16267.91
558.0148, 16264.14
558.4969, 16292.13
558.9791, 16320.32
559.4612, 16322.37
559.9433, 16285.93
560.4254, 16274.08
560.9075, 16326.74
561.3896, 16392.89
561.8718, 16427.53
562.3539, 16407.86
562.8360, 16395.00
563.3181, 16393.43
563.8002, 16401.39
564.2823, 16415.78
564.7645, 16437.29
565.2466, 16462.08
565.7287, 16493.32
566.2108, 16526.85
566.6929, 16537.60
567.1750, 16524.63
567.6572, 16507.93
568.1393, 16493.05
568.6214, 16488.46
569.1035, 16518.81
569.5856, 16597.01
570.0677, 16673.87
570.5499, 16716.42
571.0320, 16729.74
571.5141, 16722.44
571.9962, 16671.29
572.4783, 16626.38
572.9604, 16604.15
573.4426, 16604.42
573.9247, 16624.32
574.4068, 16696.17
574.8889, 16757.27
575.3710, 16776.57
575.8531, 16739.76
576.3353, 16738.35
576.8174, 16789.38
577.2995, 16850.52
577.7816, 16881.73
578.2637, 16880.61
578.7458, 16871.44
579.2280, 16854.78
579.7101, 16837.00
580.1922, 16825.88
580.6743, 16822.41
581.1564, 16832.09
581.6385, 16869.87
582.1207, 16915.67
582.6028, 16940.42
583.0849, 16946.36
583.5670, 16952.90
584.0491, 16974.17
584.5313, 16998.82
585.0134, 17017.68
585.4955, 17027.44
585.9776, 17037.55
586.4597, 17050.69
586.9418, 17065.24
587.4240, 17079.05
587.9061, 17088.76
588.3882, 17103.55
588.8703, 17129.19
589.3524, 17159.25
589.8345, 17172.66
590.3167, 17164.92
590.7988, 17158.27
591.2809, 17168.28
591.7630, 17188.28
592.2451, 17172.57
592.7272, 17119.21
593.2094, 17077.39
593.6915, 17096.05
594.1736, 17153.75
594.6557, 17213.17
595.1378, 17269.33
595.6199, 17317.58
596.1021, 17352.57
596.5842, 17377.56
597.0663, 17397.29
597.5485, 17416.11
598.0306, 17426.68
598.5127, 17421.67
598.9948, 17405.06
599.4769, 17393.86
599.9590, 17385.66
600.4412, 17387.04
600.9233, 17403.61
601.4054, 17437.09
601.8875, 17457.45
602.3696, 17458.91
602.8517, 17461.12
603.3339, 17484.69
603.8160, 17527.55
604.2981, 17559.00
604.7802, 17573.57
605.2623, 17582.53
605.7444, 17598.60
606.2266, 17620.56
606.7087, 17644.51
607.1908, 17673.88
607.6729, 17700.17
608.1550, 17712.13
608.6371, 17714.71
609.1193, 17724.54
609.6014, 17749.48
610.0835, 17782.21
610.5656, 17827.02
611.0477, 17889.49
611.5298, 17917.86
612.0120, 17878.53
612.4941, 17836.73
612.9762, 17841.30
613.4583, 17913.23
613.9404, 17952.17
614.4225, 17944.50
614.9047, 17919.61
615.3868, 17919.51
615.8689, 17942.61
616.3510, 17967.64
616.8331, 17987.41
617.3152, 18007.17
617.7974, 18037.69
618.2795, 18076.06
618.7616, 18112.52
619.2437, 18149.92
619.7258, 18177.04
620.2079, 18178.63
620.6901, 18154.36
621.1722, 18139.44
621.6543, 18152.48
622.1364, 18174.38
622.6185, 18193.67
623.1006, 18212.82
623.5828, 18221.70
624.0649, 18213.13
624.5470, 18200.84
625.0291, 18200.49
625.5112, 18212.68
625.9933, 18235.55
626.4755, 18273.03
626.9576, 18314.86
627.4397, 18337.52
627.9218, 18343.11
628.4039, 18347.66
628.8860, 18364.97
629.3682, 18382.70
629.8503, 18376.28
630.3324, 18349.96
630.8145, 18336.00
631.2966, 18362.86
631.7787, 18402.21
632.2609, 18436.06
632.7430, 18463.06
633.2251, 18480.65
633.7072, 18478.16
634.1893, 18472.01
634.6714, 18475.67
635.1536, 18491.94
635.6357, 18511.64
636.1178, 18532.67
636.5999, 18558.11
637.0820, 18601.76
637.5641, 18665.05
638.0463, 18703.40
638.5284, 18690.44
639.0105, 18654.43
639.4926, 18655.30
639.9747, 18687.20
640.4568, 18716.05
640.9390, 18717.61
641.4211, 18709.18
641.9032, 18705.86
642.3853, 18708.76
642.8674, 18713.57
643.3495, 18722.27
643.8317, 18729.81
644.3138, 18731.72
644.7959, 18717.44
645.2780, 18717.98
645.7601, 18742.02
646.2422, 18773.23
646.7244, 18792.68
647.2065, 18798.39
647.6886, 18800.97
648.1707, 18800.84
648.6528, 18800.36
649.1349, 18805.04
649.6171, 18814.24
650.0992, 18823.54
650.5813, 18826.79
651.0634, 18831.55
651.5455, 18852.22
652.0276, 18885.21
652.5098, 18910.16
652.9919, 18916.21
653.4740, 18910.94
653.9561, 18891.39
654.4382, 18850.52
654.9203, 18838.21
655.4025, 18884.59
655.8846, 18941.69
656.3667, 18977.78
656.8488, 18986.94
657.3309, 18992.90
657.8130, 18996.81
658.2952, 18997.21
658.7773, 18988.29
659.2594, 18971.34
659.7415, 18962.72
660.2236, 18966.91
660.7057, 18981.06
661.1879, 19008.41
661.6700, 19043.12
662.1521, 19068.47
662.6342, 19062.96
663.1163, 19057.13
663.5984, 19072.70
664.0806, 19107.32
664.5627, 19138.39
665.0448, 19170.29
665.5269, 19187.32
666.0090, 19175.76
666.4911, 19127.70
666.9733, 19113.62
667.4554, 19145.14
667.9375, 19187.62
668.4196, 19214.47
668.9017, 19226.05
669.3839, 19230.56
669.8660, 19227.55
670.3481, 19223.17
670.8302, 19226.43
671.3123, 19233.57
671.7944, 19235.86
672.2766, 19226.52
672.7587, 19218.27
673.2408, 19222.94
673.7229, 19234.21
674.2050, 19239.80
674.6871, 19225.67
675.1693, 19216.99
675.6514, 19223.14
676.1335, 19241.11
676.6156, 19256.22
677.0977, 19269.40
677.5798, 19277.62
678.0620, 19279.58
678.5441, 19275.35
679.0262, 19261.80
679.5083, 19237.96
679.9904, 19219.15
680.4725, 19224.46
680.9547, 19241.11
681.4368, 19242.68
681.9189, 19223.79
682.4010, 19212.53
682.8831, 19239.10
683.3652, 19277.41
683.8474, 19300.69
684.3295, 19293.83
684.8116, 19286.21
685.2937, 19280.22
685.7758, 19276.57
686.2579, 19276.07
686.7401, 19277.85
687.2222, 19287.01
687.7043, 19310.65
688.1864, 19336.25
688.6685, 19325.38
689.1506, 19280.81
689.6328, 19247.26
690.1149, 19250.05
690.5970, 19271.84
691.0791, 19291.79
691.5612, 19309.07
692.0433, 19319.04
692.5255, 19318.51
693.0076, 19310.79
693.4897, 19294.60
693.9718, 19268.67
694.4539, 19250.79
694.9360, 19249.93
695.4182, 19251.64
695.9003, 19247.35
696.3824, 19233.98
696.8645, 19229.98
697.3466, 19239.08
697.8287, 19247.72
698.3109, 19236.19
698.7930, 19209.52
699.2751, 19196.73
699.7572, 19206.07
700.2393, 19218.62
700.7214, 19216.11
701.2036, 19202.96
701.6857, 19186.53
702.1678, 19169.32
702.6499, 19149.38
703.1320, 19118.66
703.6141, 19084.81
704.0963, 19067.42
704.5784, 19073.72
705.0605, 19086.54
705.5426, 19107.27
706.0247, 19131.43
706.5068, 19137.42
706.9890, 19123.91
707.4711, 19103.88
707.9532, 19074.94
708.4353, 19046.46
708.9174, 19050.09
709.3995, 19082.66
709.8817, 19113.42
710.3638, 19121.94
710.8459, 19118.59
711.3280, 19112.08
711.8101, 19103.63
712.2922, 19089.35
712.7744, 19060.00
713.2565, 19030.36
713.7386, 19009.83
714.2207, 19000.29
714.7028, 18996.08
715.1849, 18999.93
715.6671, 19004.27
716.1492, 18994.74
716.6313, 18973.89
717.1134, 18976.11
717.5955, 19013.46
718.0776, 19055.22
718.5598, 19065.33
719.0419, 19051.95
719.5240, 19030.32
720.0061, 18992.87
720.4882, 18964.12
720.9703, 18959.28
721.4525, 18970.90
721.9346, 18982.10
722.4167, 18998.21
722.8988, 19003.47
723.3809, 18990.62
723.8630, 18914.28
724.3452, 18962.25
724.8273, 18988.40
725.3094, 18993.91
725.7915, 18916.95
726.2736, 18946.49
726.7557, 18933.34
727.2379, 18918.45
727.7200, 18962.97
728.2021, 18898.01
728.6842, 18941.59
729.1663, 18941.84
729.6484, 18961.92
730.1306, 18939.06
730.6127, 18929.47
731.0948, 18962.83
731.5769, 18972.40
732.0590, 18944.60
732.5411, 18965.95
733.0233, 18899.48
733.5054, 18910.07
733.9875, 18953.90
734.4696, 18928.26
734.9517, 18950.38
735.4338, 18954.32
735.9160, 18875.57
736.3981, 18940.61
736.8802, 18889.29
737.3623, 18878.63
737.8444, 18898.77
738.3266, 18917.70
738.8087, 18916.52
739.2908, 18909.22
739.7729, 18917.22
740.2551, 18956.05
740.7372, 18983.58
741.2193, 18995.20
741.7014, 18992.88
742.1835, 18971.53
742.6656, 18930.85
743.1478, 18915.72
743.6299, 18955.66
744.1120, 19009.71
744.5941, 19008.31
745.0762, 18965.60
745.5583, 18925.36
746.0405, 18896.98
746.5226, 18888.80
747.0047, 18921.95
747.4868, 18986.06
747.9689, 19021.22
748.4510, 18996.78
748.9332, 18972.79
749.4153, 18968.43
749.8974, 18981.87
750.3795, 18991.90
750.8616, 18998.59
751.3438, 19001.40
751.8259, 18999.07
752.3080, 18992.78
752.7901, 18985.05
753.2722, 18975.96
753.7543, 18965.59
754.2365, 18942.20
754.7186, 18925.63
755.2007, 18935.30
755.6828, 18978.09
756.1649, 19018.94
756.6470, 19070.90
757.1292, 19102.96
757.6113, 19088.51
758.0934, 19009.61
758.5755, 18967.43
759.0576, 18967.50
759.5397, 18984.72
760.0219, 18998.16
760.5040, 19007.41
760.9861, 19008.88
761.4682, 19000.41
761.9503, 18993.20
762.4324, 18998.67
762.9146, 19009.31
763.3967, 19016.34
763.8788, 19016.50
764.3609, 19014.79
764.8430, 19012.35
765.3251, 19008.20
765.8073, 18996.06
766.2894, 18965.87
766.7715, 18972.96
767.2536, 19037.95
767.7357, 19118.83
768.2178, 19143.94
768.7000, 19122.69
769.1821, 19093.32
769.6642, 19064.83
770.1463, 19038.02
770.6284, 19007.80
771.1105, 18980.49
771.5927, 18968.31
772.0748, 18986.69
772.5569, 19007.44
773.0390, 19027.08
773.5211, 19043.84
774.0032, 19052.08
774.4854, 19049.93
774.9675, 19046.16
775.4496, 19043.09
775.9317, 19040.32
776.4138, 19032.57
776.8959, 19022.46
777.3781, 19023.63
777.8602, 19061.41
778.3423, 19098.91
778.8244, 19098.00
779.3065, 19067.89
779.7886, 19048.64
780.2708, 19062.98
780.7529, 19079.21
781.2350, 19086.99
781.7171, 19087.19
782.1992, 19086.66
782.6813, 19083.62
783.1635, 19087.26
783.6456, 19112.65
784.1277, 19146.76
784.6098, 19133.48
785.0919, 19079.08
785.5740, 19044.74
786.0562, 19085.68
786.5383, 19151.88
787.0204, 19212.19
787.5025, 19264.15
787.9846, 19283.46
788.4667, 19227.59
788.9489, 19173.35
789.4310, 19158.88
789.9131, 19188.24
790.3952, 19174.56
790.8773, 19107.19
791.3594, 19046.93
791.8416, 19047.96
792.3237, 19090.31
792.8058, 19124.27
793.2879, 19147.56
793.7700, 19162.87
794.2521, 19171.12
794.7343, 19172.92
795.2164, 19163.23
795.6985, 19133.62
796.1806, 19130.90
796.6627, 19174.13
797.1448, 19228.38
797.6270, 19278.31
798.1091, 19328.14
798.5912, 19330.17
799.0733, 19276.04
799.5554, 19217.57
800.0375, 19208.89
800.5197, 19230.91
801.0018, 19249.22
801.4839, 19259.29
801.9660, 19263.83
802.4481, 19260.52
802.9302, 19254.89
803.4124, 19250.43
803.8945, 19241.76
804.3766, 19251.22
804.8587, 19295.95
805.3408, 19336.18
805.8229, 19325.04
806.3051, 19263.05
806.7872, 19235.07
807.2693, 19252.13
807.7514, 19279.57
808.2335, 19284.18
808.7156, 19274.88
809.1978, 19262.17
809.6799, 19243.20
810.1620, 19238.10
810.6441, 19268.05
811.1262, 19308.78
811.6083, 19336.74
812.0905, 19350.29
812.5726, 19351.86
813.0547, 19335.49
813.5368, 19318.70
814.0189, 19323.91
814.5010, 19347.93
814.9832, 19373.98
815.4653, 19400.92
815.9474, 19421.54
816.4295, 19436.14
816.9116, 19437.83
817.3937, 19414.02
817.8759, 19335.51
818.3580, 19283.58
818.8401, 19294.11
819.3222, 19326.29
819.8043, 19343.22
820.2864, 19341.43
820.7686, 19339.78
821.2507, 19339.21
821.7328, 19341.19
822.2149, 19344.25
822.6970, 19351.50
823.1791, 19375.04
823.6613, 19424.76
824.1434, 19466.19
824.6255, 19461.98
825.1076, 19443.23
825.5897, 19444.63
826.0718, 19521.29
826.5540, 19543.02
827.0361, 19480.64
827.5182, 19396.95
828.0003, 19372.84
828.4824, 19407.62
828.9645, 19419.82
829.4467, 19391.55
829.9288, 19363.57
830.4109, 19391.93
830.8930, 19448.14
831.3751, 19487.83
831.8572, 19492.35
832.3394, 19495.33
832.8215, 19514.04
833.3036, 19533.90
833.7857, 19538.78
834.2678, 19523.79
834.7499, 19508.19
835.2321, 19493.78
835.7142, 19477.61
836.1963, 19442.54
836.6784, 19400.78
837.1605, 19409.30
837.6426, 19492.22
838.1248, 19564.82
838.6069, 19537.94
839.0890, 19475.82
839.5711, 19451.73
840.0532, 19517.71
840.5353, 19551.85
841.0175, 19522.51
841.4996, 19484.40
841.9817, 19501.39
842.4638, 19576.74
842.9459, 19623.91
843.4280, 19632.60
843.9102, 19623.98
844.3923, 19614.66
844.8744, 19605.76
845.3565, 19600.40
845.8386, 19601.27
846.3207, 19597.66
846.8029, 19574.66
847.2850, 19552.22
847.7671, 19547.17
848.2492, 19561.57
848.7313, 19592.69
849.2134, 19649.61
849.6956, 19699.44
850.1777, 19704.78
850.6598, 19675.57
851.1419, 19639.24
851.6240, 19596.33
852.1061, 19574.41
852.5883, 19621.28
853.0704, 19682.14
853.5525, 19700.89
854.0346, 19643.82
854.5167, 19625.89
854.9988, 19675.35
855.4810, 19736.05
855.9631, 19769.69
856.4452, 19775.99
856.9273, 19774.44
857.4094, 19765.05
857.8915, 19754.22
858.3737, 19748.46
858.8558, 19744.22
859.3379, 19737.24
859.8200, 19727.05
860.3021, 19714.52
860.7842, 19693.02
861.2664, 19675.88
861.7485, 19671.69
862.2306, 19681.99
862.7127, 19687.24
863.1948, 19684.65
863.6769, 19689.51
864.1591, 19721.65
864.6412, 19767.31
865.1233, 19793.34
865.6054, 19799.96
866.0875, 19802.31
866.5696, 19811.70
867.0518, 19817.93
867.5339, 19813.96
868.0160, 19798.65
868.4981, 19778.57
868.9802, 19742.48
869.4623, 19726.35
869.9445, 19761.44
870.4266, 19829.63
870.9087, 19838.12
871.3908, 19792.29
871.8729, 19748.70
872.3550, 19746.98
872.8372, 19757.55
873.3193, 19749.22
873.8014, 19727.91
874.2835, 19730.79
874.7656, 19795.82
875.2477, 19850.16
875.7299, 19869.27
876.2120, 19865.26
876.6941, 19897.78
877.1762, 19966.63
877.6583, 20001.69
878.1404, 19951.98
878.6226, 19873.31
879.1047, 19826.88
879.5869, 19811.22
880.0690, 19821.33
880.5511, 19894.89
881.0332, 19948.25
881.5153, 19944.06
881.9974, 19908.19
882.4796, 19891.53
882.9617, 19897.01
883.4438, 19904.11
883.9259, 19905.48
884.4080, 19911.31
884.8901, 19951.52
885.3723, 20007.90
885.8544, 20036.28
886.3365, 20003.01
886.8186, 19968.64
887.3007, 19960.64
887.7828, 19967.11
888.2650, 19970.51
888.7471, 19965.88
889.2292, 19972.84
889.7113, 19998.36
890.1934, 20023.70
890.6755, 20013.25
891.1577, 19982.38
891.6398, 19987.03
892.1219, 20046.66
892.6040, 20094.45
893.0861, 20068.04
893.5682, 20016.73
894.0504, 19987.19
894.5325, 19995.77
895.0146, 20000.27
895.4967, 19995.08
895.9788, 19996.07
896.4609, 20027.92
896.9431, 20081.57
897.4252, 20088.21
897.9073, 20043.55
898.3894, 20011.15
898.8715, 20061.54
899.3536, 20128.65
899.8358, 20153.83
900.3179, 20127.76
900.8000, 20105.82
901.2821, 20093.61
901.7642, 20086.86
902.2463, 20081.79
902.7285, 20080.00
903.2106, 20100.36
903.6927, 20141.61
904.1748, 20173.02
904.6569, 20166.11
905.1390, 20147.72
905.6212, 20148.16
906.1033, 20162.19
906.5854, 20164.73
907.0675, 20127.60
907.5496, 20105.21
908.0317, 20121.49
908.5139, 20156.88
908.9960, 20140.27
909.4781, 20071.44
909.9602, 20029.29
910.4423, 20049.53
910.9244, 20096.84
911.4066, 20138.67
911.8887, 20174.66
912.3708, 20204.72
912.8529, 20218.72
913.3350, 20240.39
913.8171, 20293.88
914.2993, 20342.63
914.7814, 20326.43
915.2635, 20238.38
915.7456, 20179.96
916.2277, 20169.45
916.7098, 20173.89
917.1920, 20147.33
917.6741, 20114.13
918.1562, 20114.01
918.6383, 20164.80
919.1204, 20213.15
919.6025, 20253.44
920.0847, 20276.76
920.5668, 20272.84
921.0489, 20236.09
921.5310, 20209.22
922.0131, 20191.68
922.4952, 20188.62
922.9774, 20219.50
923.4595, 20260.14
923.9416, 20271.96
924.4237, 20254.25
924.9058, 20234.33
925.3879, 20205.17
925.8701, 20195.72
926.3522, 20226.47
926.8343, 20289.86
927.3164, 20322.24
927.7985, 20321.29
928.2806, 20312.37
928.7628, 20305.43
929.2449, 20298.81
929.7270, 20284.46
930.2091, 20268.05
930.6912, 20264.61
931.1733, 20291.83
931.6555, 20319.70
932.1376, 20345.45
932.6197, 20363.56
933.1018, 20360.31
933.5839, 20331.69
934.0660, 20311.51
934.5482, 20306.09
935.0303, 20309.75
935.5124, 20320.54
935.9945, 20333.65
936.4766, 20339.41
936.9587, 20331.46
937.4409, 20327.88
937.9230, 20329.24
938.4051, 20341.67
938.8872, 20378.71
939.3693, 20454.35
939.8514, 20458.96
940.3336, 20381.73
940.8157, 20312.61
941.2978, 20348.96
941.7799, 20429.07
942.2620, 20463.95
942.7441, 20449.46
943.2263, 20424.74
943.7084, 20371.53
944.1905, 20348.87
944.6726, 20395.62
945.1547, 20494.73
945.6368, 20535.82
946.1190, 20516.56
946.6011, 20482.57
947.0832, 20445.17
947.5653, 20413.99
948.0474, 20404.90
948.5295, 20411.55
949.0117, 20419.15
949.4938, 20411.96
949.9759, 20419.49
950.4580, 20449.75
950.9401, 20494.80
951.4222, 20551.20
951.9044, 20619.99
952.3865, 20652.22
952.8686, 20635.74
953.3507, 20602.44
953.8328, 20578.52
954.3149, 20561.69
954.7971, 20548.83
955.2792, 20539.00
955.7613, 20536.09
956.2434, 20546.35
956.7255, 20556.56
957.2076, 20559.01
957.6898, 20553.82
958.1719, 20542.77
958.6540, 20525.95
959.1361, 20515.79
959.6182, 20524.71
960.1003, 20541.03
960.5825, 20557.46
961.0646, 20572.65
961.5467, 20580.66
962.0288, 20567.52
962.5109, 20568.27
962.9930, 20598.28
963.4752, 20641.00
963.9573, 20651.38
964.4394, 20634.27
964.9215, 20620.56
965.4036, 20622.90
965.8857, 20626.70
966.3679, 20612.03
966.8500, 20595.14
967.3321, 20598.97
967.8142, 20660.20
968.2963, 20676.40
968.7784, 20631.22
969.2606, 20572.89
969.7427, 20547.72
970.2248, 20550.40
970.7069, 20567.07
971.1890, 20596.33
971.6711, 20620.42
972.1533, 20617.57
972.6354, 20613.76
973.1175, 20632.99
973.5996, 20674.64
974.0817, 20685.52
974.5638, 20651.61
975.0460, 20639.12
975.5281, 20693.22
976.0102, 20769.77
976.4923, 20764.81
976.9744, 20702.16
977.4565, 20651.71
977.9387, 20648.26
978.4208, 20657.15
978.9029, 20669.49
979.3850, 20686.07
979.8671, 20711.33
980.3492, 20749.11
980.8314, 20771.39
981.3135, 20774.00
981.7956, 20765.96
982.2777, 20746.68
982.7598, 20727.89
983.2419, 20733.00
983.7241, 20770.36
984.2062, 20788.67
984.6883, 20745.03
985.1704, 20707.30
985.6525, 20709.40
986.1346, 20746.57
986.6168, 20768.57
987.0989, 20775.72
987.5810, 20778.60
988.0631, 20783.23
988.5452, 20786.39
989.0273, 20785.37
989.5095, 20780.48
989.9916, 20771.72
990.4737, 20735.39
990.9558, 20737.93
991.4379, 20806.62
991.9200, 20889.32
992.4022, 20892.74
992.8843, 20836.35
993.3664, 20806.51
993.8485, 20822.37
994.3306, 20846.21
994.8127, 20858.31
995.2949, 20862.72
995.7770, 20860.54
996.2591, 20850.37
996.7412, 20849.07
997.2233, 20860.40
997.7054, 20866.78
998.1876, 20844.40
998.6697, 20814.88
999.1518, 20839.02
999.6339, 20902.07
1000.116, 20945.31
1000.598, 20934.89
1001.080, 20908.54
1001.562, 20859.35
1002.044, 20811.68
1002.527, 20819.51
1003.009, 20888.42
1003.491, 20928.54
1003.973, 20919.02
1004.455, 20894.40
1004.937, 20887.35
1005.419, 20890.46
1005.901, 20896.34
1006.384, 20906.07
1006.866, 20907.02
1007.348, 20888.20
1007.830, 20875.48
1008.312, 20888.12
1008.794, 20920.04
1009.276, 20934.15
1009.758, 20932.19
1010.240, 20929.16
1010.723, 20926.00
1011.205, 20932.28
1011.687, 20971.36
1012.169, 21022.68
1012.651, 21027.74
1013.133, 20958.70
1013.615, 20926.21
1014.097, 20954.20
1014.580, 21003.82
1015.062, 21021.23
1015.544, 21020.82
1016.026, 21033.75
1016.508, 21070.19
1016.990, 21092.40
1017.472, 21072.58
1017.954, 21045.28
1018.436, 21028.18
1018.919, 21021.32
1019.401, 21020.78
1019.883, 21026.53
1020.365, 21049.05
1020.847, 21122.35
1021.329, 21192.05
1021.811, 21193.13
1022.293, 21148.63
1022.776, 21115.59
1023.258, 21115.33
1023.740, 21108.10
1024.222, 21083.90
1024.704, 21061.86
1025.186, 21081.04
1025.668, 21125.02
1026.150, 21130.43
1026.632, 21085.46
1027.115, 21045.19
1027.597, 21049.02
1028.079, 21063.92
1028.561, 21068.14
1029.043, 21061.75
1029.525, 21051.55
1030.007, 21035.20
1030.489, 21036.87
1030.972, 21079.39
1031.454, 21132.95
1031.936, 21152.35
1032.418, 21151.64
1032.900, 21160.72
1033.382, 21217.26
1033.864, 21241.66
1034.346, 21212.73
1034.828, 21168.46
1035.311, 21149.58
1035.793, 21153.60
1036.275, 21170.26
1036.757, 21198.94
1037.239, 21218.81
1037.721, 21207.66
1038.203, 21188.92
1038.685, 21176.04
1039.167, 21170.12
1039.650, 21175.51
1040.132, 21197.27
1040.614, 21207.05
1041.096, 21191.32
1041.578, 21165.30
1042.060, 21147.35
1042.542, 21138.55
1043.024, 21140.95
1043.507, 21156.07
1043.989, 21181.95
1044.471, 21231.86
1044.953, 21276.74
1045.435, 21294.29
1045.917, 21285.76
1046.399, 21261.18
1046.881, 21221.91
1047.364, 21189.97
1047.846, 21184.64
1048.328, 21187.66
1048.810, 21180.40
1049.292, 21170.50
1049.774, 21193.42
1050.256, 21266.06
1050.738, 21309.51
1051.220, 21301.95
1051.703, 21275.88
1052.185, 21278.24
1052.667, 21294.63
1053.149, 21299.21
1053.631, 21283.18
1054.113, 21273.05
1054.595, 21272.36
1055.077, 21284.21
1055.559, 21320.41
1056.042, 21372.44
1056.524, 21371.04
1057.006, 21323.74
1057.488, 21292.17
1057.970, 21322.46
1058.452, 21366.09
1058.934, 21402.73
1059.416, 21428.79
1059.899, 21437.34
1060.381, 21423.04
1060.863, 21409.12
1061.345, 21395.27
1061.827, 21391.31
1062.309, 21420.33
1062.791, 21459.27
1063.273, 21472.29
1063.755, 21456.79
1064.238, 21436.04
1064.720, 21398.35
1065.202, 21382.21
1065.684, 21411.77
1066.166, 21461.51
1066.648, 21445.81
1067.130, 21381.41
1067.612, 21344.37
1068.094, 21360.90
1068.577, 21405.71
1069.059, 21512.38
1069.541, 21606.23
1070.023, 21607.25
1070.505, 21490.42
1070.987, 21427.71
1071.469, 21421.85
1071.951, 21435.04
1072.434, 21449.51
1072.916, 21462.37
1073.398, 21463.55
1073.880, 21459.64
1074.362, 21473.92
1074.844, 21535.42
1075.326, 21572.61
1075.808, 21567.07
1076.291, 21551.94
1076.773, 21586.85
1077.255, 21649.05
1077.737, 21668.79
1078.219, 21634.49
1078.701, 21592.26
1079.183, 21548.94
1079.665, 21521.81
1080.147, 21524.46
1080.630, 21549.71
1081.112, 21546.61
1081.594, 21516.88
1082.076, 21516.16
1082.558, 21580.60
1083.040, 21652.67
1083.522, 21682.80
1084.004, 21688.49
1084.486, 21691.77
1084.969, 21692.89
1085.451, 21698.90
1085.933, 21710.69
1086.415, 21723.90
1086.897, 21749.64
1087.379, 21767.36
1087.861, 21723.12
1088.343, 21633.62
1088.826, 21571.57
1089.308, 21577.81
1089.790, 21597.90
1090.272, 21626.85
1090.754, 21658.24
1091.236, 21689.75
1091.718, 21716.22
1092.200, 21703.50
1092.682, 21642.88
1093.165, 21598.02
1093.647, 21623.59
1094.129, 21664.39
1094.611, 21675.59
1095.093, 21627.75
1095.575, 21705.87
1096.057, 21751.27
1096.539, 21765.70
1097.022, 21656.43
1097.504, 21706.89
1097.986, 21693.34
1098.468, 21677.16
1098.950, 21750.11
1099.432, 21658.83
1099.914, 21730.36
1100.396, 21736.90
1100.879, 21773.20
1101.361, 21745.07
1101.843, 21736.84
1102.325, 21793.04
1102.807, 21813.56
1103.289, 21778.02
1103.771, 21816.20
1104.253, 21722.67
1104.735, 21744.71
1105.218, 21816.63
1105.700, 21784.32
1106.182, 21823.68
1106.664, 21835.74
1107.146, 21723.78
1107.628, 21827.51
1108.110, 21769.14
1108.592, 21782.62
1109.074, 21794.00
1109.557, 21802.71
1110.039, 21804.77
1110.521, 21800.13
1111.003, 21792.94
1111.485, 21781.39
1111.967, 21777.12
1112.449, 21800.42
1112.931, 21831.79
1113.414, 21847.68
1113.896, 21840.22
1114.378, 21850.98
1114.860, 21886.95
1115.342, 21909.98
1115.824, 21887.40
1116.306, 21848.35
1116.788, 21832.45
1117.271, 21837.30
1117.753, 21857.53
1118.235, 21907.14
1118.717, 21952.98
1119.199, 22005.01
1119.681, 22031.02
1120.163, 21976.28
1120.645, 21873.23
1121.127, 21815.14
1121.609, 21804.12
1122.092, 21816.37
1122.574, 21870.28
1123.056, 21907.88
1123.538, 21900.01
1124.020, 21873.50
1124.502, 21886.76
1124.984, 21934.09
1125.466, 21966.84
1125.949, 21974.99
1126.431, 21975.19
1126.913, 21972.32
1127.395, 21971.52
1127.877, 21985.74
1128.359, 22009.40
1128.841, 21980.06
1129.323, 21892.74
1129.806, 21844.08
1130.288, 21881.23
1130.770, 21944.81
1131.252, 21987.42
1131.734, 22014.15
1132.216, 22031.08
1132.698, 22041.18
1133.180, 22031.34
1133.662, 21996.26
1134.145, 21963.93
1134.627, 21956.19
1135.109, 21959.24
1135.591, 21945.71
1136.073, 21925.57
1136.555, 21924.34
1137.037, 21971.19
1137.519, 22005.62
1138.001, 22024.58
1138.484, 22029.38
1138.966, 22006.21
1139.448, 21973.67
1139.930, 21989.56
1140.412, 22049.81
1140.894, 22089.11
1141.376, 22055.42
1141.858, 22029.88
1142.341, 22035.54
1142.823, 22058.77
1143.305, 22077.68
1143.787, 22092.45
1144.269, 22105.92
1144.751, 22119.30
1145.233, 22122.78
1145.715, 22101.28
1146.198, 22077.53
1146.680, 22062.08
1147.162, 22054.92
1147.644, 22059.18
1148.126, 22074.00
1148.608, 22085.91
1149.090, 22086.35
1149.572, 22094.70
1150.054, 22142.84
1150.536, 22193.48
1151.019, 22209.88
1151.501, 22189.56
1151.983, 22162.44
1152.465, 22127.78
1152.947, 22101.20
1153.429, 22090.05
1153.911, 22091.96
1154.393, 22112.14
1154.876, 22141.66
1155.358, 22165.87
1155.840, 22187.34
1156.322, 22191.58
1156.804, 22176.34
1157.286, 22154.76
1157.768, 22125.72
1158.250, 22104.66
1158.733, 22116.18
1159.215, 22153.49
1159.697, 22191.07
1160.179, 22236.81
1160.661, 22253.11
1161.143, 22227.10
1161.625, 22195.00
1162.107, 22207.87
1162.589, 22238.80
1163.072, 22231.69
1163.554, 22186.60
1164.036, 22177.52
1164.518, 22261.89
1165.000, 22314.80
1165.482, 22296.09
1165.964, 22248.50
1166.446, 22250.00
1166.928, 22282.71
1167.411, 22309.08
1167.893, 22322.88
1168.375, 22324.93
1168.857, 22316.05
1169.339, 22292.29
1169.821, 22241.30
1170.303, 22182.08
1170.785, 22177.21
1171.268, 22212.07
1171.750, 22237.89
1172.232, 22234.52
1172.714, 22232.64
1173.196, 22241.27
1173.678, 22259.63
1174.160, 22300.95
1174.642, 22353.74
1175.125, 22308.80
1175.607, 22189.42
1176.089, 22126.53
1176.571, 22233.84
1177.053, 22341.57
1177.535, 22378.36
1178.017, 22377.67
1178.499, 22362.70
1178.981, 22333.64
1179.464, 22311.26
1179.946, 22296.62
1180.428, 22301.65
1180.910, 22351.66
1181.392, 22403.70
1181.874, 22443.35
1182.356, 22466.40
1182.838, 22460.08
1183.320, 22422.65
1183.803, 22411.96
1184.285, 22433.33
1184.767, 22452.03
1185.249, 22428.24
1185.731, 22405.86
1186.213, 22423.14
1186.695, 22465.05
1187.177, 22492.33
1187.660, 22505.75
1188.142, 22481.74
1188.624, 22409.79
1189.106, 22356.02
1189.588, 22399.29
1190.070, 22468.17
1190.552, 22509.92
1191.034, 22523.11
1191.516, 22519.95
1191.999, 22498.54
1192.481, 22473.22
1192.963, 22440.25
1193.445, 22431.17
1193.927, 22529.77
1194.409, 22632.72
1194.891, 22609.13
1195.373, 22448.45
1195.855, 22386.31
1196.338, 22433.66
1196.820, 22482.84
1197.302, 22494.64
1197.784, 22485.15
1198.266, 22449.81
1198.748, 22415.06
1199.230, 22422.63
1199.712, 22487.85
1200.195, 22509.60
1200.677, 22479.73
1201.159, 22465.05
1201.641, 22518.45
1202.123, 22583.32
1202.605, 22586.10
1203.087, 22558.70
1203.569, 22556.57
1204.052, 22603.01
1204.534, 22620.08
1205.016, 22604.88
1205.498, 22578.49
1205.980, 22535.22
1206.462, 22504.86
1206.944, 22550.19
1207.426, 22630.41
1207.908, 22641.19
1208.391, 22522.19
1208.873, 22497.37
1209.355, 22592.18
1209.837, 22692.89
1210.319, 22691.40
1210.801, 22651.57
1211.283, 22640.26
1211.765, 22653.14
1212.247, 22669.18
1212.730, 22694.27
1213.212, 22693.61
1213.694, 22658.62
1214.176, 22621.45
1214.658, 22614.83
1215.140, 22621.46
1215.622, 22617.34
1216.104, 22606.40
1216.587, 22621.09
1217.069, 22676.39
1217.551, 22706.85
1218.033, 22697.30
1218.515, 22680.54
1218.997, 22696.02
1219.479, 22722.43
1219.961, 22739.37
1220.443, 22743.95
1220.926, 22730.89
1221.408, 22692.73
1221.890, 22669.17
1222.372, 22671.78
1222.854, 22683.75
1223.336, 22690.72
1223.818, 22692.11
1224.300, 22684.33
1224.782, 22666.70
1225.265, 22658.75
1225.747, 22662.49
1226.229, 22664.33
1226.711, 22655.30
1227.193, 22656.00
1227.675, 22717.54
1228.157, 22787.72
1228.639, 22791.59
1229.122, 22712.44
1229.604, 22690.11
1230.086, 22733.29
1230.568, 22774.46
1231.050, 22786.64
1231.532, 22787.76
1232.014, 22785.51
1232.496, 22791.46
1232.979, 22830.32
1233.461, 22911.59
1233.943, 22936.04
1234.425, 22897.76
1234.907, 22860.25
1235.389, 22855.10
1235.871, 22860.69
1236.353, 22860.65
1236.835, 22855.24
1237.318, 22840.68
1237.800, 22812.39
1238.282, 22819.41
1238.764, 22864.14
1239.246, 22892.64
1239.728, 22853.45
1240.210, 22812.60
1240.692, 22828.86
1241.175, 22876.41
1241.657, 22924.79
1242.139, 22980.05
1242.621, 22984.63
1243.103, 22938.11
1243.585, 22884.05
1244.067, 22823.26
1244.549, 22791.18
1245.031, 22836.23
1245.514, 22911.71
1245.996, 22953.05
1246.478, 22958.67
1246.960, 22943.76
1247.442, 22910.34
1247.924, 22894.26
1248.406, 22938.50
1248.888, 22984.75
1249.370, 22996.93
1249.853, 22994.09
1250.335, 23000.45
1250.817, 23015.67
1251.299, 23038.84
1251.781, 23067.96
1252.263, 23077.50
1252.745, 23025.70
1253.227, 22981.59
1253.710, 22983.61
1254.192, 23003.69
1254.674, 23005.13
1255.156, 22992.12
1255.638, 22997.79
1256.120, 23022.48
1256.602, 23045.48
1257.084, 23054.97
1257.567, 23061.48
1258.049, 23070.55
1258.531, 23076.37
1259.013, 23065.55
1259.495, 23044.65
1259.977, 23041.31
1260.459, 23055.55
1260.941, 23063.25
1261.423, 23029.88
1261.906, 23023.73
1262.388, 23068.01
1262.870, 23131.27
1263.352, 23179.44
1263.834, 23207.83
1264.316, 23191.30
1264.798, 23133.23
1265.280, 23099.42
1265.762, 23141.96
1266.245, 23152.37
1266.727, 23097.55
1267.209, 23036.11
1267.691, 23067.24
1268.173, 23137.43
1268.655, 23149.47
1269.137, 23099.56
1269.619, 23080.08
1270.102, 23110.28
1270.584, 23148.31
1271.066, 23191.33
1271.548, 23219.19
1272.030, 23181.11
1272.512, 23129.55
1272.994, 23139.72
1273.476, 23210.71
1273.958, 23229.85
1274.441, 23178.55
1274.923, 23156.51
1275.405, 23191.33
1275.887, 23234.74
1276.369, 23229.70
1276.851, 23214.20
1277.333, 23233.37
1277.815, 23278.67
1278.297, 23279.81
1278.780, 23233.81
1279.262, 23213.75
1279.744, 23242.58
1280.226, 23261.38
1280.708, 23192.66
1281.190, 23123.71
1281.672, 23120.85
1282.154, 23168.69
1282.637, 23221.13
1283.119, 23276.82
1283.601, 23320.85
1284.083, 23350.49
1284.565, 23370.03
1285.047, 23382.20
1285.529, 23383.24
1286.011, 23367.22
1286.494, 23343.39
1286.976, 23343.67
1287.458, 23358.95
1287.940, 23351.00
1288.422, 23305.78
1288.904, 23291.18
1289.386, 23374.56
1289.868, 23434.61
1290.350, 23425.21
##END=



