##NAMES=Posnjakite
##RRUFFID=R110172
##IDEAL CHEMISTRY=Cu^2+^_4_S^6+^O_4_(OH)_6_&#183;H_2_O
##LOCALITY=Yellow Rose of Texas mine, Animas District, San Juan County, Colorado, USA
##OWNER=RRUFF
##SOURCE=George Stevens
##DESCRIPTION=Blocky light blue crystals associated with dark blue linarite
##STATUS=The identification of this mineral has been confirmed by single-crystal X-ray diffraction.
##URL=rruff.info/R110172
216.9539, 40.07843
217.4360, 39.08039
217.9181, 39.45699
218.4002, 40.31815
218.8823, 40.76383
219.3644, 40.57359
219.8466, 40.19550
220.3287, 40.24895
220.8108, 40.81181
221.2929, 41.34919
221.7750, 41.96415
222.2571, 42.45126
222.7393, 42.46131
223.2214, 41.86991
223.7035, 41.11420
224.1856, 40.65887
224.6677, 40.46971
225.1498, 40.61902
225.6320, 41.34282
226.1141, 42.36574
226.5962, 43.24368
227.0783, 43.89415
227.5604, 44.43396
228.0425, 45.05916
228.5247, 45.71912
229.0068, 46.12405
229.4889, 46.01406
229.9710, 45.58032
230.4531, 45.25362
230.9352, 45.11744
231.4174, 45.00240
231.8995, 44.88238
232.3816, 44.70523
232.8637, 44.28954
233.3458, 43.22056
233.8279, 41.81199
234.3101, 41.12864
234.7922, 41.50661
235.2743, 42.13068
235.7564, 42.58909
236.2385, 42.91744
236.7206, 43.18393
237.2028, 43.40354
237.6849, 43.58843
238.1670, 43.82442
238.6491, 44.28453
239.1312, 44.51231
239.6133, 44.03924
240.0955, 43.27478
240.5776, 42.94866
241.0597, 43.64996
241.5418, 45.09153
242.0239, 45.85158
242.5060, 45.51987
242.9882, 45.00799
243.4703, 44.55145
243.9524, 44.11633
244.4345, 43.61609
244.9166, 42.97826
245.3987, 42.26339
245.8809, 41.76561
246.3630, 41.50497
246.8451, 41.47803
247.3272, 41.80237
247.8093, 42.30894
248.2914, 42.84230
248.7736, 43.33905
249.2557, 43.72212
249.7378, 43.65631
250.2199, 42.53007
250.7020, 41.70069
251.1841, 41.54346
251.6663, 41.70758
252.1484, 41.76881
252.6305, 41.52032
253.1126, 41.07418
253.5947, 40.78161
254.0768, 40.96984
254.5590, 40.91459
255.0411, 40.44105
255.5232, 39.75663
256.0053, 39.06885
256.4874, 38.46817
256.9695, 37.93156
257.4517, 37.40170
257.9338, 36.23382
258.4159, 35.91750
258.8980, 37.20502
259.3801, 39.02626
259.8622, 40.31344
260.3444, 40.69316
260.8265, 40.44069
261.3086, 40.05265
261.7907, 39.29878
262.2728, 38.78047
262.7549, 38.66654
263.2371, 38.71050
263.7192, 38.75154
264.2013, 38.73442
264.6834, 38.53145
265.1655, 37.91800
265.6476, 36.64594
266.1298, 35.54689
266.6119, 34.31758
267.0940, 33.43783
267.5761, 33.50774
268.0582, 34.61628
268.5403, 36.15577
269.0225, 37.53588
269.5046, 38.80708
269.9867, 39.39058
270.4688, 38.88374
270.9509, 37.92209
271.4330, 36.92247
271.9152, 35.96244
272.3973, 35.13485
272.8794, 34.50414
273.3615, 34.10125
273.8436, 34.02918
274.3257, 34.68043
274.8079, 35.38691
275.2900, 35.57463
275.7721, 35.23618
276.2542, 34.78731
276.7363, 34.52257
277.2184, 34.42656
277.7006, 34.26805
278.1827, 33.86593
278.6648, 33.54652
279.1469, 33.56778
279.6290, 33.90509
280.1111, 34.37351
280.5933, 34.99236
281.0754, 35.60400
281.5575, 35.76353
282.0396, 35.14843
282.5217, 34.48001
283.0038, 34.25882
283.4860, 34.39930
283.9681, 34.42551
284.4502, 34.03814
284.9323, 33.48220
285.4144, 33.27069
285.8965, 33.49757
286.3787, 33.81497
286.8608, 34.15963
287.3429, 34.46844
287.8250, 34.48248
288.3071, 34.02121
288.7892, 33.35069
289.2714, 32.79774
289.7535, 32.33346
290.2356, 32.12368
290.7177, 32.38752
291.1998, 32.96902
291.6819, 33.47934
292.1641, 33.86423
292.6462, 34.09326
293.1283, 34.14096
293.6104, 34.02398
294.0925, 33.74438
294.5746, 33.00103
295.0568, 32.14566
295.5389, 32.03093
296.0210, 32.99508
296.5031, 33.98157
296.9852, 33.91262
297.4673, 33.11640
297.9495, 32.42603
298.4316, 32.21900
298.9137, 32.23094
299.3958, 32.11730
299.8779, 31.88562
300.3600, 31.43943
300.8422, 30.24547
301.3243, 28.86032
301.8064, 28.36995
302.2885, 29.60558
302.7706, 31.25033
303.2527, 31.63487
303.7349, 30.66095
304.2170, 29.85624
304.6991, 30.04071
305.1812, 30.77911
305.6633, 31.57959
306.1454, 32.55196
306.6276, 33.15858
307.1097, 32.63483
307.5918, 31.06278
308.0739, 29.86221
308.5560, 29.56209
309.0381, 29.82678
309.5203, 30.31693
310.0024, 31.05998
310.4845, 31.67269
310.9666, 31.81375
311.4487, 31.57309
311.9308, 31.35664
312.4130, 31.13741
312.8951, 31.13299
313.3772, 31.86753
313.8593, 33.16790
314.3414, 33.78059
314.8235, 32.34343
315.3057, 29.78764
315.7878, 28.62976
316.2699, 29.46470
316.7520, 30.78250
317.2341, 31.64212
317.7162, 32.13897
318.1984, 32.42178
318.6805, 32.40440
319.1626, 32.26459
319.6447, 32.35544
320.1268, 32.75932
320.6089, 32.97838
321.0911, 32.51628
321.5732, 31.74716
322.0553, 31.17803
322.5374, 30.93753
323.0195, 30.87377
323.5016, 30.76001
323.9838, 30.59185
324.4659, 30.80336
324.9480, 31.96567
325.4301, 33.30050
325.9122, 33.80923
326.3943, 33.32639
326.8765, 32.64126
327.3586, 32.38068
327.8407, 32.43926
328.3228, 32.17039
328.8049, 31.16998
329.2870, 30.16572
329.7692, 29.89361
330.2513, 30.30083
330.7334, 30.93530
331.2155, 31.97339
331.6976, 33.04819
332.1797, 33.14693
332.6619, 31.88273
333.1440, 30.43398
333.6261, 29.64581
334.1082, 29.39533
334.5903, 29.52479
335.0724, 30.38705
335.5546, 31.40738
336.0367, 31.81871
336.5188, 31.58076
337.0009, 31.10747
337.4830, 30.48522
337.9651, 29.82211
338.4473, 29.30775
338.9294, 28.93243
339.4115, 28.75741
339.8936, 28.89488
340.3757, 29.31388
340.8578, 29.81512
341.3400, 30.46739
341.8221, 31.00950
342.3042, 30.99102
342.7863, 30.29242
343.2684, 29.72974
343.7505, 29.98000
344.2327, 30.65188
344.7148, 30.69923
345.1969, 29.73572
345.6790, 28.55904
346.1611, 28.09164
346.6432, 28.22494
347.1254, 28.52518
347.6075, 29.00002
348.0896, 29.52423
348.5717, 29.95523
349.0538, 30.28363
349.5359, 30.51096
350.0181, 30.65533
350.5002, 30.68876
350.9823, 30.54761
351.4644, 30.14509
351.9465, 29.63836
352.4286, 28.96686
352.9108, 28.21905
353.3929, 27.84819
353.8750, 28.18312
354.3571, 28.93018
354.8392, 29.35602
355.3214, 29.39950
355.8035, 29.32793
356.2856, 29.09055
356.7677, 28.82744
357.2498, 28.90361
357.7319, 29.48852
358.2141, 30.05857
358.6962, 29.73722
359.1783, 28.29885
359.6604, 27.42039
360.1425, 27.71634
360.6246, 28.38791
361.1068, 28.70570
361.5889, 28.60394
362.0710, 28.40043
362.5531, 28.35630
363.0352, 28.46949
363.5173, 28.51099
363.9995, 28.47702
364.4816, 28.38392
364.9637, 28.07502
365.4458, 27.70178
365.9279, 27.72180
366.4100, 28.44551
366.8922, 29.55258
367.3743, 29.96778
367.8564, 29.15164
368.3385, 28.46126
368.8206, 28.12447
369.3027, 27.97690
369.7849, 27.84016
370.2670, 27.66366
370.7491, 27.49899
371.2312, 27.42554
371.7133, 27.49628
372.1954, 27.49740
372.6776, 27.11554
373.1597, 26.92583
373.6418, 27.57872
374.1239, 28.85070
374.6060, 29.80171
375.0881, 29.62765
375.5703, 28.37178
376.0524, 27.56724
376.5345, 27.37539
377.0166, 27.42851
377.4987, 28.06923
377.9808, 28.79628
378.4630, 28.78130
378.9451, 27.63663
379.4272, 25.92701
379.9093, 25.01493
380.3914, 25.48274
380.8735, 25.81380
381.3557, 25.61363
381.8378, 25.50253
382.3199, 26.21332
382.8020, 27.68788
383.2841, 28.98525
383.7662, 28.85260
384.2484, 26.93177
384.7305, 26.09761
385.2126, 27.73425
385.6947, 29.15940
386.1768, 29.41349
386.6589, 28.81115
387.1411, 28.06183
387.6232, 27.53980
388.1053, 27.25776
388.5874, 27.35237
389.0695, 28.28790
389.5516, 28.69773
390.0338, 27.68378
390.5159, 26.39867
390.9980, 25.98628
391.4801, 26.75558
391.9622, 27.94161
392.4443, 28.64353
392.9265, 28.82126
393.4086, 28.89589
393.8907, 28.86053
394.3728, 28.77769
394.8549, 28.63610
395.3370, 28.46713
395.8192, 28.37429
396.3013, 28.43504
396.7834, 28.62250
397.2655, 28.81734
397.7476, 28.94914
398.2297, 29.27251
398.7119, 30.31315
399.1940, 31.50821
399.6761, 32.02872
400.1582, 31.44712
400.6403, 30.63229
401.1224, 30.46852
401.6046, 30.92293
402.0867, 31.52262
402.5688, 32.42226
403.0509, 33.05307
403.5330, 32.40497
404.0151, 30.42448
404.4973, 29.30068
404.9794, 30.73426
405.4615, 33.43587
405.9436, 35.20617
406.4257, 35.74878
406.9078, 35.64564
407.3900, 35.06877
407.8721, 34.16879
408.3542, 33.70996
408.8363, 33.97065
409.3184, 34.48517
409.8005, 35.13965
410.2827, 35.83779
410.7648, 36.15590
411.2469, 35.78522
411.7290, 35.17396
412.2111, 35.47380
412.6932, 37.23920
413.1754, 38.39548
413.6575, 38.04676
414.1396, 37.20780
414.6217, 36.97687
415.1038, 37.52131
415.5859, 38.27770
416.0681, 38.71759
416.5502, 38.82188
417.0323, 38.74084
417.5144, 38.38288
417.9965, 37.96893
418.4786, 37.52892
418.9608, 37.10563
419.4429, 36.72393
419.9250, 36.38902
420.4071, 36.17659
420.8892, 36.31366
421.3713, 37.14004
421.8535, 37.81307
422.3356, 38.06999
422.8177, 38.34111
423.2998, 39.18628
423.7819, 40.53548
424.2640, 41.60432
424.7462, 41.42416
425.2283, 39.85791
425.7104, 39.07972
426.1925, 39.71195
426.6746, 40.51704
427.1567, 41.23159
427.6389, 41.86579
428.1210, 42.45325
428.6031, 43.00063
429.0852, 43.55139
429.5673, 44.28935
430.0494, 45.40144
430.5316, 46.03488
431.0137, 45.36158
431.4958, 44.55980
431.9779, 44.43483
432.4600, 45.01101
432.9421, 45.68049
433.4243, 46.08497
433.9064, 46.22154
434.3885, 45.98454
434.8706, 45.13704
435.3527, 44.45816
435.8348, 44.58192
436.3170, 45.18663
436.7991, 45.80351
437.2812, 46.45075
437.7633, 46.88672
438.2454, 46.72565
438.7275, 46.06462
439.2097, 45.61709
439.6918, 45.72331
440.1739, 46.00733
440.6560, 45.75574
441.1381, 44.87703
441.6202, 44.51405
442.1024, 45.57671
442.5845, 46.99517
443.0666, 47.49959
443.5487, 47.00180
444.0308, 46.19216
444.5129, 45.51166
444.9951, 44.97245
445.4772, 44.62761
445.9593, 44.60664
446.4414, 44.59980
446.9235, 44.55001
447.4056, 44.44535
447.8878, 44.30737
448.3699, 44.13948
448.8520, 43.83485
449.3341, 43.18907
449.8162, 41.97107
450.2983, 41.08203
450.7805, 40.70062
451.2626, 40.43121
451.7447, 39.86875
452.2268, 39.22871
452.7089, 39.19621
453.1910, 40.34199
453.6732, 42.22136
454.1553, 42.91045
454.6374, 41.76217
455.1195, 40.46118
455.6016, 38.87392
456.0837, 37.52779
456.5659, 37.09620
457.0480, 37.60460
457.5301, 38.16819
458.0122, 37.76023
458.4943, 36.40258
458.9764, 35.36123
459.4586, 34.89996
459.9407, 34.42179
460.4228, 33.31141
460.9049, 32.01994
461.3870, 31.46358
461.8691, 32.34203
462.3513, 33.45264
462.8334, 33.08906
463.3155, 31.32103
463.7976, 30.00551
464.2797, 29.88607
464.7618, 30.26783
465.2440, 30.18782
465.7261, 29.62924
466.2082, 29.36748
466.6903, 29.92907
467.1724, 30.78334
467.6545, 31.36974
468.1367, 31.63098
468.6188, 31.53189
469.1009, 30.94416
469.5830, 30.00206
470.0651, 29.37396
470.5472, 29.27115
471.0294, 29.17141
471.5115, 28.83715
471.9936, 28.47721
472.4757, 28.35564
472.9578, 28.53918
473.4399, 28.93862
473.9221, 29.50550
474.4042, 30.35224
474.8863, 30.68937
475.3684, 30.29013
475.8505, 29.69187
476.3326, 28.73749
476.8148, 27.79152
477.2969, 27.52552
477.7790, 28.28792
478.2611, 29.52918
478.7432, 30.04386
479.2253, 29.55478
479.7075, 29.11658
480.1896, 28.91693
480.6717, 28.73794
481.1538, 28.37752
481.6359, 27.90274
482.1180, 27.61037
482.6002, 27.79357
483.0823, 28.27473
483.5644, 28.52704
484.0465, 28.47613
484.5286, 28.46622
485.0107, 28.70413
485.4929, 29.03662
485.9750, 29.30960
486.4571, 29.51981
486.9392, 29.59838
487.4213, 29.46291
487.9034, 29.17056
488.3856, 28.75885
488.8677, 28.18830
489.3498, 27.84631
489.8319, 28.15031
490.3140, 29.06110
490.7961, 29.77093
491.2783, 30.25274
491.7604, 30.57160
492.2425, 30.72894
492.7246, 30.75165
493.2067, 30.61591
493.6888, 30.31313
494.1710, 30.06216
494.6531, 30.22533
495.1352, 30.97579
495.6173, 31.60767
496.0994, 32.39194
496.5815, 32.81844
497.0637, 32.29836
497.5458, 31.24749
498.0279, 30.58298
498.5100, 30.85218
498.9921, 31.65705
499.4742, 31.96837
499.9564, 31.55841
500.4385, 31.22660
500.9206, 31.11126
501.4027, 31.08511
501.8848, 31.13035
502.3669, 31.21380
502.8491, 31.22302
503.3312, 30.93227
503.8133, 30.54464
504.2954, 30.74979
504.7775, 31.72363
505.2596, 32.44848
505.7418, 32.33319
506.2239, 31.74796
506.7060, 31.16567
507.1881, 30.54622
507.6702, 30.20627
508.1523, 30.52621
508.6345, 31.15664
509.1166, 31.52030
509.5987, 31.53220
510.0808, 31.39170
510.5629, 31.26423
511.0450, 31.13236
511.5272, 30.81401
512.0093, 30.32688
512.4914, 29.65958
512.9735, 28.43244
513.4556, 27.17403
513.9377, 26.67687
514.4199, 27.11142
514.9020, 27.86995
515.3841, 28.21146
515.8662, 28.09641
516.3483, 27.83707
516.8304, 26.93608
517.3126, 26.42865
517.7947, 27.05137
518.2768, 28.11975
518.7589, 28.57516
519.2410, 27.97727
519.7231, 26.97820
520.2053, 26.62665
520.6874, 27.00322
521.1695, 26.80767
521.6516, 25.50242
522.1337, 24.05059
522.6158, 22.97962
523.0980, 22.27904
523.5801, 21.93640
524.0622, 22.06574
524.5443, 22.43698
525.0264, 22.92333
525.5085, 23.48424
525.9907, 23.87147
526.4728, 24.02180
526.9549, 23.90848
527.4370, 23.32261
527.9191, 22.07964
528.4012, 21.52992
528.8834, 22.33820
529.3655, 23.42529
529.8476, 24.24488
530.3297, 24.71403
530.8118, 24.69570
531.2939, 24.07963
531.7761, 23.17222
532.2582, 22.77108
532.7403, 23.22478
533.2224, 23.55755
533.7045, 23.61081
534.1866, 23.67685
534.6688, 24.12218
535.1509, 24.75804
535.6330, 24.97050
536.1151, 24.22676
536.5972, 22.96352
537.0793, 22.42123
537.5615, 22.80772
538.0436, 23.07485
538.5257, 22.93953
539.0078, 22.53840
539.4899, 21.78071
539.9720, 20.71760
540.4542, 20.11892
540.9363, 20.87019
541.4184, 22.05482
541.9005, 22.21193
542.3826, 21.34779
542.8647, 20.57785
543.3469, 20.43508
543.8290, 20.80489
544.3111, 21.50665
544.7932, 22.93421
545.2753, 23.73277
545.7574, 23.35502
546.2396, 22.53025
546.7217, 21.77654
547.2038, 21.17144
547.6859, 20.66252
548.1680, 20.21312
548.6501, 19.82192
549.1323, 19.43995
549.6144, 18.67559
550.0965, 18.64712
550.5786, 20.15474
551.0607, 21.81727
551.5428, 22.62060
552.0250, 22.54264
552.5071, 22.18621
552.9892, 21.82019
553.4713, 21.55626
553.9534, 21.91098
554.4355, 23.10667
554.9177, 23.75165
555.3998, 22.88646
555.8819, 21.46878
556.3640, 20.79251
556.8461, 20.93874
557.3282, 21.30264
557.8104, 22.15792
558.2925, 22.81187
558.7746, 21.96156
559.2567, 19.80499
559.7388, 18.42740
560.2209, 19.26694
560.7031, 21.47167
561.1852, 22.31774
561.6673, 20.09635
562.1494, 18.91428
562.6315, 19.68944
563.1136, 20.84279
563.5958, 21.35533
564.0779, 21.16237
564.5600, 20.50693
565.0421, 19.41814
565.5242, 18.24427
566.0063, 18.35050
566.4885, 20.35800
566.9706, 21.82639
567.4527, 21.69768
567.9348, 21.18338
568.4169, 21.02179
568.8990, 21.24158
569.3812, 21.61376
569.8633, 22.40117
570.3454, 23.06966
570.8275, 22.54180
571.3096, 20.91809
571.7917, 19.72760
572.2739, 19.68545
572.7560, 20.28604
573.2381, 20.65089
573.7202, 20.72250
574.2023, 20.81163
574.6844, 20.93462
575.1666, 21.09532
575.6487, 21.23785
576.1308, 21.42058
576.6129, 21.86469
577.0950, 22.70849
577.5771, 23.63227
578.0593, 23.90941
578.5414, 23.34661
579.0235, 22.66166
579.5056, 21.61051
579.9877, 20.70113
580.4698, 20.12876
580.9520, 19.88485
581.4341, 19.91628
581.9162, 20.23206
582.3983, 20.74615
582.8804, 21.54324
583.3625, 22.55530
583.8447, 22.92889
584.3268, 22.26422
584.8089, 21.37345
585.2910, 21.11822
585.7731, 21.43488
586.2552, 21.66699
586.7374, 21.39141
587.2195, 21.40221
587.7016, 22.49333
588.1837, 24.05172
588.6658, 24.99640
589.1479, 25.00926
589.6301, 24.52741
590.1122, 23.99312
590.5943, 23.33817
591.0764, 23.31744
591.5585, 24.71644
592.0406, 25.84371
592.5228, 26.29990
593.0049, 26.27340
593.4870, 25.84868
593.9691, 25.07049
594.4512, 24.42174
594.9333, 24.52062
595.4155, 25.16333
595.8976, 25.40698
596.3797, 25.11246
596.8618, 24.81630
597.3439, 24.86738
597.8260, 25.11649
598.3082, 25.18795
598.7903, 25.02321
599.2724, 24.83052
599.7545, 24.62630
600.2366, 24.45827
600.7188, 24.43856
601.2009, 24.53258
601.6830, 24.49850
602.1651, 24.13452
602.6472, 23.61038
603.1293, 23.60827
603.6115, 24.71437
604.0936, 25.25130
604.5757, 24.71150
605.0578, 23.98148
605.5399, 23.54359
606.0220, 23.39575
606.5042, 23.33658
606.9863, 23.24681
607.4684, 23.19973
607.9505, 23.36683
608.4326, 23.74100
608.9147, 24.03623
609.3969, 24.21015
609.8790, 24.21950
610.3611, 23.84103
610.8432, 23.13072
611.3253, 22.90151
611.8074, 23.85733
612.2896, 24.66793
612.7717, 24.43595
613.2538, 23.64032
613.7359, 23.15860
614.2180, 23.23340
614.7001, 23.39410
615.1823, 23.04903
615.6644, 22.16147
616.1465, 21.52025
616.6286, 21.06827
617.1107, 20.97417
617.5928, 21.63821
618.0750, 22.45000
618.5571, 22.73088
619.0392, 22.36661
619.5213, 21.88759
620.0034, 21.60514
620.4855, 21.51567
620.9677, 21.65741
621.4498, 22.03810
621.9319, 22.47600
622.4140, 22.96852
622.8961, 23.37183
623.3782, 23.29789
623.8604, 22.52553
624.3425, 22.03839
624.8246, 22.10691
625.3067, 22.35312
625.7888, 22.63454
626.2709, 22.87436
626.7531, 22.99866
627.2352, 22.97321
627.7173, 22.73769
628.1994, 22.00072
628.6815, 20.51637
629.1636, 19.92924
629.6458, 20.99980
630.1279, 22.12358
630.6100, 22.65149
631.0921, 22.65221
631.5742, 22.14727
632.0563, 20.94964
632.5385, 19.83633
633.0206, 19.25730
633.5027, 19.18669
633.9848, 19.88551
634.4669, 21.35195
634.9490, 22.32596
635.4312, 21.78374
635.9133, 20.07727
636.3954, 18.86456
636.8775, 18.50892
637.3596, 18.19431
637.8417, 17.68426
638.3239, 17.38291
638.8060, 17.76346
639.2881, 18.63681
639.7702, 19.36389
640.2523, 19.54651
640.7344, 19.41243
641.2166, 19.44274
641.6987, 19.65695
642.1808, 19.50895
642.6629, 18.58740
643.1450, 17.77205
643.6271, 18.08671
644.1093, 19.21541
644.5914, 20.02085
645.0735, 20.16306
645.5556, 20.16204
646.0377, 20.53368
646.5198, 20.79671
647.0020, 19.87418
647.4841, 17.77529
647.9662, 16.04929
648.4483, 16.17549
648.9304, 17.84754
649.4125, 18.91468
649.8947, 19.23812
650.3768, 19.18153
650.8589, 18.36583
651.3410, 17.56337
651.8231, 17.42143
652.3052, 17.84668
652.7874, 18.17185
653.2695, 17.94778
653.7516, 17.56934
654.2337, 17.55187
654.7158, 17.81994
655.1979, 17.97180
655.6801, 17.85469
656.1622, 17.85126
656.6443, 18.52802
657.1264, 19.96700
657.6085, 20.42661
658.0906, 18.97111
658.5728, 17.85116
659.0549, 17.91929
659.5370, 18.38676
660.0191, 18.33937
660.5012, 17.70652
660.9833, 17.16127
661.4655, 17.30286
661.9476, 17.92268
662.4297, 18.32691
662.9118, 18.46026
663.3939, 18.89667
663.8760, 20.26510
664.3582, 21.46101
664.8403, 20.69155
665.3224, 18.15484
665.8045, 16.61272
666.2866, 17.10969
666.7687, 18.06886
667.2509, 18.90757
667.7330, 19.52625
668.2151, 19.69461
668.6972, 19.40807
669.1793, 19.14189
669.6614, 19.47611
670.1436, 20.32944
670.6257, 20.48736
671.1078, 19.57038
671.5899, 18.74385
672.0720, 18.31406
672.5541, 18.10782
673.0363, 18.10479
673.5184, 18.25978
674.0005, 18.24369
674.4826, 17.56874
674.9647, 16.93693
675.4468, 17.34674
675.9290, 18.39511
676.4111, 18.69995
676.8932, 17.81617
677.3753, 16.78336
677.8574, 16.87704
678.3395, 18.15609
678.8217, 19.03467
679.3038, 19.37313
679.7859, 19.46218
680.2680, 19.15973
680.7501, 18.75756
681.2322, 18.48984
681.7144, 18.38998
682.1965, 18.39180
682.6786, 18.52131
683.1607, 18.68019
683.6428, 18.65740
684.1249, 18.48329
684.6071, 18.49341
685.0892, 18.87523
685.5713, 19.13238
686.0534, 18.57035
686.5355, 17.10778
687.0176, 16.36027
687.4998, 16.58664
687.9819, 17.12779
688.4640, 18.06561
688.9461, 19.08289
689.4282, 20.05318
689.9103, 20.83790
690.3925, 21.04369
690.8746, 20.19132
691.3567, 18.73045
691.8388, 17.63592
692.3209, 16.90314
692.8030, 16.74624
693.2852, 17.50591
693.7673, 18.31659
694.2494, 18.00639
694.7315, 16.71067
695.2136, 16.50019
695.6957, 18.79013
696.1779, 20.55203
696.6600, 20.46382
697.1421, 19.47791
697.6242, 18.40799
698.1063, 17.52769
698.5884, 17.09437
699.0706, 17.40349
699.5527, 18.12661
700.0348, 18.12822
700.5169, 17.16758
700.9990, 17.17043
701.4811, 19.24760
701.9633, 21.35098
702.4454, 21.50227
702.9275, 20.22191
703.4096, 19.18496
703.8917, 18.82058
704.3738, 18.44339
704.8560, 17.49796
705.3381, 16.53319
705.8202, 16.26559
706.3023, 16.69884
706.7844, 17.33908
707.2665, 17.86398
707.7487, 18.29861
708.2308, 18.81484
708.7129, 19.59954
709.1950, 19.49642
709.6771, 17.50566
710.1592, 15.75131
710.6414, 15.88810
711.1235, 17.18391
711.6056, 18.09256
712.0877, 18.21429
712.5698, 18.27673
713.0519, 18.95390
713.5341, 19.56397
714.0162, 18.90164
714.4983, 17.25663
714.9804, 16.23688
715.4625, 16.78928
715.9446, 18.26868
716.4268, 19.34454
716.9089, 19.96125
717.3910, 20.45999
717.8731, 21.07374
718.3552, 21.25052
718.8373, 20.31925
719.3195, 18.98761
719.8016, 18.31380
720.2837, 18.53423
720.7658, 18.88508
721.2479, 19.12579
721.7300, 19.22551
722.2122, 19.12446
722.6943, 18.84887
723.1764, 18.38866
723.6585, 17.73176
724.1406, 17.25850
724.6227, 17.73001
725.1049, 19.36563
725.5870, 19.80220
726.0691, 18.14841
726.5512, 16.73528
727.0333, 16.32374
727.5154, 16.54247
727.9976, 17.19500
728.4797, 18.24024
728.9618, 19.22358
729.4439, 20.16909
729.9260, 20.78254
730.4081, 20.50525
730.8903, 19.71486
731.3724, 19.44903
731.8545, 19.96771
732.3366, 20.36422
732.8187, 19.54053
733.3008, 17.67323
733.7830, 16.91870
734.2651, 17.68108
734.7472, 18.69127
735.2293, 20.45492
735.7114, 21.71711
736.1935, 21.08991
736.6757, 19.03442
737.1578, 17.69832
737.6399, 18.18021
738.1220, 18.98486
738.6041, 19.09656
739.0862, 18.88874
739.5684, 19.05652
740.0505, 19.62571
740.5326, 19.94654
741.0147, 19.48791
741.4968, 18.61384
741.9789, 18.50739
742.4611, 19.45229
742.9432, 20.12124
743.4253, 20.36143
743.9074, 20.33124
744.3895, 19.98121
744.8716, 19.47606
745.3538, 19.13936
745.8359, 19.08402
746.3180, 18.98926
746.8001, 18.36871
747.2822, 17.88705
747.7643, 18.54186
748.2465, 19.98355
748.7286, 20.99045
749.2107, 21.00333
749.6928, 20.47976
750.1749, 19.94651
750.6570, 19.37052
751.1392, 19.65870
751.6213, 21.44145
752.1034, 22.62245
752.5855, 21.86612
753.0676, 20.42756
753.5497, 19.89416
754.0319, 20.31366
754.5140, 20.57865
754.9961, 20.37170
755.4782, 19.99259
755.9603, 19.35984
756.4424, 18.77988
756.9246, 18.88750
757.4067, 19.69355
757.8888, 20.35013
758.3709, 20.05980
758.8530, 19.14177
759.3351, 18.70151
759.8173, 18.79731
760.2994, 18.84518
760.7815, 18.58990
761.2636, 18.50574
761.7457, 19.15484
762.2278, 20.35006
762.7100, 21.17338
763.1921, 21.60918
763.6742, 21.66434
764.1563, 21.12049
764.6384, 20.37455
765.1205, 19.36260
765.6027, 18.45707
766.0848, 18.69100
766.5669, 20.61265
767.0490, 22.70689
767.5311, 22.88220
768.0132, 21.42759
768.4954, 19.73187
768.9775, 17.77326
769.4596, 16.48794
769.9417, 16.38786
770.4238, 17.12739
770.9059, 18.27170
771.3881, 20.14609
771.8702, 21.02941
772.3523, 19.96523
772.8344, 19.08737
773.3165, 19.34130
773.7986, 20.04064
774.2808, 20.44695
774.7629, 20.43175
775.2450, 20.20974
775.7271, 19.71375
776.2092, 19.29524
776.6913, 19.62557
777.1735, 20.51935
777.6556, 21.31495
778.1377, 21.87815
778.6198, 21.86537
779.1019, 20.80274
779.5840, 19.04515
780.0662, 18.46998
780.5483, 19.83914
781.0304, 20.95144
781.5125, 21.80339
781.9946, 22.24210
782.4767, 22.07664
782.9589, 21.47082
783.4410, 20.61180
783.9231, 19.41546
784.4052, 18.62879
784.8873, 19.01670
785.3694, 19.84745
785.8516, 20.30166
786.3337, 20.37769
786.8158, 20.23937
787.2979, 19.95726
787.7800, 19.74183
788.2621, 19.94348
788.7443, 20.53582
789.2264, 20.64950
789.7085, 20.06566
790.1906, 19.61923
790.6727, 19.66825
791.1548, 19.83623
791.6370, 19.73098
792.1191, 19.39206
792.6012, 19.09566
793.0833, 18.81989
793.5654, 18.66868
794.0475, 18.68169
794.5297, 18.83859
795.0118, 19.13468
795.4939, 19.55650
795.9760, 20.13199
796.4581, 20.91538
796.9402, 21.60453
797.4224, 21.54630
797.9045, 20.90693
798.3866, 20.99549
798.8687, 22.04487
799.3508, 22.60753
799.8329, 21.78622
800.3151, 20.28766
800.7972, 19.38074
801.2793, 19.11046
801.7614, 19.26835
802.2435, 20.26138
802.7256, 21.14168
803.2078, 21.60434
803.6899, 21.83926
804.1720, 22.01888
804.6541, 22.17939
805.1362, 22.33863
805.6183, 22.54332
806.1005, 22.70651
806.5826, 22.59440
807.0647, 22.40091
807.5468, 22.66701
808.0289, 23.43280
808.5110, 24.18776
808.9932, 24.60933
809.4753, 24.64716
809.9574, 24.01760
810.4395, 22.41590
810.9216, 21.57598
811.4037, 22.12988
811.8859, 22.53958
812.3680, 21.64411
812.8501, 20.32705
813.3322, 19.89309
813.8143, 20.49702
814.2964, 21.23976
814.7786, 22.48245
815.2607, 23.20777
815.7428, 22.35310
816.2249, 20.83018
816.7070, 19.81428
817.1891, 19.58277
817.6713, 19.95189
818.1534, 20.95551
818.6355, 22.21102
819.1176, 23.09225
819.5997, 23.58125
820.0818, 23.43187
820.5640, 22.54170
821.0461, 21.49271
821.5282, 20.58774
822.0103, 19.94290
822.4924, 19.94706
822.9745, 20.98536
823.4567, 21.81667
823.9388, 22.55573
824.4209, 22.96283
824.9030, 22.73244
825.3851, 22.23645
825.8672, 21.92736
826.3494, 21.87113
826.8315, 21.89761
827.3136, 22.05485
827.7957, 22.14198
828.2778, 21.77924
828.7599, 21.29404
829.2421, 21.42537
829.7242, 22.21074
830.2063, 22.88781
830.6884, 22.85300
831.1705, 22.38327
831.6526, 22.15805
832.1348, 22.18603
832.6169, 22.21197
833.0990, 22.20331
833.5811, 22.20331
834.0632, 22.24497
834.5453, 22.30647
835.0275, 22.34695
835.5096, 22.38185
835.9917, 22.34192
836.4738, 21.88131
836.9559, 21.75236
837.4380, 22.70643
837.9202, 23.84461
838.4023, 24.09943
838.8844, 23.41730
839.3665, 22.59450
839.8486, 21.91285
840.3307, 21.45597
840.8129, 21.42925
841.2950, 21.65249
841.7771, 21.79691
842.2592, 21.80535
842.7413, 21.72847
843.2234, 21.60464
843.7056, 21.37458
844.1877, 20.79592
844.6698, 19.79955
845.1519, 19.36865
845.6340, 19.63692
846.1161, 20.19858
846.5983, 21.05910
847.0804, 21.96671
847.5625, 22.65826
848.0446, 23.15704
848.5267, 23.08989
849.0089, 21.70938
849.4910, 20.70532
849.9731, 20.74893
850.4552, 21.21101
850.9373, 21.58863
851.4194, 21.85033
851.9016, 22.17392
852.3837, 22.69132
852.8658, 23.09617
853.3479, 23.12284
853.8300, 22.84389
854.3121, 22.08527
854.7943, 21.07008
855.2764, 21.02452
855.7585, 22.49321
856.2406, 23.93940
856.7227, 23.07207
857.2048, 20.17150
857.6870, 19.05485
858.1691, 20.22280
858.6512, 21.21555
859.1333, 21.33197
859.6154, 21.26013
860.0975, 21.75969
860.5797, 21.55682
861.0618, 21.18807
861.5439, 21.31390
862.0260, 20.33138
862.5081, 19.91583
862.9902, 20.01161
863.4724, 21.20628
863.9545, 22.64719
864.4366, 22.79963
864.9187, 21.33044
865.4008, 19.96943
865.8829, 20.03440
866.3651, 20.66257
866.8472, 20.95609
867.3293, 20.99430
867.8114, 21.06691
868.2935, 21.20643
868.7756, 21.14050
869.2578, 20.66174
869.7399, 19.83881
870.2220, 18.45926
870.7041, 16.42006
871.1862, 16.53096
871.6683, 19.75879
872.1505, 22.40131
872.6326, 22.27073
873.1147, 20.79585
873.5968, 20.40918
874.0789, 21.40558
874.5610, 21.90051
875.0432, 21.53694
875.5253, 21.16422
876.0074, 21.06612
876.4895, 20.96033
876.9716, 20.46322
877.4537, 19.72226
877.9359, 19.33188
878.4180, 19.60164
878.9001, 19.97720
879.3822, 20.20174
879.8643, 20.29154
880.3464, 20.13123
880.8286, 19.86601
881.3107, 19.96829
881.7928, 20.57069
882.2749, 21.05804
882.7570, 20.63919
883.2391, 19.64297
883.7213, 19.08791
884.2034, 18.95774
884.6855, 19.01596
885.1676, 19.21976
885.6497, 19.56622
886.1318, 20.13466
886.6140, 20.75347
887.0961, 20.77254
887.5782, 19.74455
888.0603, 19.28283
888.5424, 19.78881
889.0245, 20.31946
889.5067, 20.56267
889.9888, 20.59313
890.4709, 20.44279
890.9530, 20.11711
891.4351, 19.83218
891.9172, 19.32422
892.3994, 19.24737
892.8815, 20.60095
893.3636, 21.95526
893.8457, 21.62274
894.3278, 20.01604
894.8099, 18.71865
895.2921, 18.40912
895.7742, 18.50360
896.2563, 18.43042
896.7384, 18.40628
897.2205, 19.02300
897.7026, 20.06605
898.1848, 20.68796
898.6669, 20.61789
899.1490, 19.90512
899.6311, 18.40227
900.1132, 16.54988
900.5953, 16.25003
901.0775, 17.68088
901.5596, 18.61301
902.0417, 18.68283
902.5238, 18.39425
903.0059, 17.89455
903.4880, 17.38220
903.9702, 17.31250
904.4523, 17.87604
904.9344, 18.11322
905.4165, 17.58756
905.8986, 17.30167
906.3807, 17.74807
906.8629, 18.30775
907.3450, 18.45059
907.8271, 18.21745
908.3092, 17.91491
908.7913, 17.59344
909.2734, 17.26681
909.7556, 16.65735
910.2377, 16.28914
910.7198, 17.01871
911.2019, 18.24332
911.6840, 18.55008
912.1661, 17.62465
912.6483, 16.86230
913.1304, 17.80231
913.6125, 19.27611
914.0946, 19.16814
914.5767, 17.97765
915.0588, 17.25237
915.5410, 17.25738
916.0231, 17.73993
916.5052, 18.60742
916.9873, 19.47679
917.4694, 19.52157
917.9515, 18.70457
918.4337, 18.07534
918.9158, 17.64979
919.3979, 17.32543
919.8800, 16.97365
920.3621, 16.93022
920.8442, 17.76679
921.3264, 19.32679
921.8085, 19.90523
922.2906, 18.54151
922.7727, 17.76999
923.2548, 18.31670
923.7369, 18.78097
924.2191, 18.10693
924.7012, 17.11726
925.1833, 17.28955
925.6654, 18.85462
926.1475, 19.82493
926.6296, 19.14844
927.1118, 18.27637
927.5939, 17.60306
928.0760, 17.35485
928.5581, 17.98239
929.0402, 19.25120
929.5223, 20.48638
930.0045, 21.47441
930.4866, 21.81878
930.9687, 20.64697
931.4508, 18.91268
931.9329, 18.11689
932.4150, 18.09778
932.8972, 18.22106
933.3793, 18.26577
933.8614, 18.04675
934.3435, 17.32357
934.8256, 16.40619
935.3077, 16.07238
935.7899, 16.29299
936.2720, 16.80482
936.7541, 17.64654
937.2362, 17.79944
937.7183, 16.51251
938.2004, 15.09386
938.6826, 15.69976
939.1647, 18.40239
939.6468, 19.74066
940.1289, 19.16086
940.6110, 18.55318
941.0931, 18.22598
941.5753, 18.00857
942.0574, 17.62818
942.5395, 17.29824
943.0216, 17.74176
943.5037, 19.60785
943.9858, 20.25653
944.4680, 17.87980
944.9501, 16.19992
945.4322, 17.41880
945.9143, 19.42663
946.3964, 19.89845
946.8785, 18.98545
947.3607, 18.49657
947.8428, 19.30593
948.3249, 20.03876
948.8070, 19.55392
949.2891, 18.99749
949.7712, 19.82392
950.2534, 21.31694
950.7355, 21.74114
951.2176, 20.77233
951.6997, 19.92359
952.1818, 20.50491
952.6639, 21.60327
953.1461, 21.99071
953.6282, 21.91953
954.1103, 21.86773
954.5924, 21.94742
955.0745, 22.37420
955.5566, 23.26541
956.0388, 24.20778
956.5209, 24.54963
957.0030, 25.23405
957.4851, 25.72550
957.9672, 25.93799
958.4493, 26.57107
958.9315, 26.53345
959.4136, 26.85534
959.8957, 28.41494
960.3778, 30.63434
960.8599, 31.97493
961.3420, 32.20591
961.8242, 32.63733
962.3063, 33.00711
962.7884, 34.32421
963.2705, 37.71326
963.7526, 41.12496
964.2347, 42.33993
964.7169, 41.66637
965.1990, 41.38115
965.6811, 41.29224
966.1632, 41.90697
966.6453, 44.02605
967.1274, 45.92847
967.6096, 46.42175
968.0917, 46.57726
968.5738, 48.08197
969.0559, 50.92632
969.5380, 52.75700
970.0201, 52.24665
970.5023, 51.66930
970.9844, 51.94036
971.4665, 52.36173
971.9486, 52.37948
972.4307, 52.09680
972.9128, 51.88073
973.3950, 51.81907
973.8771, 51.48228
974.3592, 50.48561
974.8413, 49.22921
975.3234, 48.04911
975.8055, 46.84251
976.2877, 45.34621
976.7698, 43.65446
977.2519, 42.15915
977.7340, 41.04285
978.2161, 40.17377
978.6982, 39.71403
979.1804, 39.24951
979.6625, 37.74982
980.1446, 35.55165
980.6267, 33.88399
981.1088, 32.96251
981.5909, 32.02636
982.0731, 30.53510
982.5552, 28.84497
983.0373, 27.52493
983.5194, 26.57302
984.0015, 25.86279
984.4836, 25.39280
984.9658, 25.93941
985.4479, 27.90601
985.9300, 29.43630
986.4121, 28.68818
986.8942, 26.34960
987.3763, 24.91044
987.8585, 24.50659
988.3406, 24.12043
988.8227, 23.70615
989.3048, 23.24258
989.7869, 22.55863
990.2690, 22.15772
990.7512, 22.85367
991.2333, 24.48635
991.7154, 24.96796
992.1975, 23.53126
992.6796, 22.57565
993.1617, 22.57261
993.6439, 22.63781
994.1260, 22.26082
994.6081, 21.76615
995.0902, 21.67541
995.5723, 22.00858
996.0544, 22.13940
996.5366, 21.82568
997.0187, 21.62290
997.5008, 21.68605
997.9829, 21.81739
998.4650, 22.16478
998.9471, 22.38858
999.4293, 21.64260
999.9114, 19.73367
1000.393, 18.79074
1000.876, 20.37594
1001.358, 21.79939
1001.840, 21.79655
1002.322, 21.26650
1002.804, 20.92583
1003.286, 20.76407
1003.768, 20.55554
1004.250, 20.23966
1004.733, 19.87956
1005.215, 19.55809
1005.697, 19.15396
1006.179, 18.35115
1006.661, 17.55707
1007.143, 17.26877
1007.625, 17.50108
1008.107, 18.18607
1008.589, 19.35049
1009.072, 20.19938
1009.554, 19.53552
1010.036, 18.62515
1010.518, 19.42783
1011.000, 20.99389
1011.482, 21.12655
1011.964, 19.80654
1012.446, 18.97012
1012.929, 19.74221
1013.411, 20.68204
1013.893, 19.57298
1014.375, 17.62478
1014.857, 17.55157
1015.339, 18.85951
1015.821, 19.62029
1016.303, 19.41926
1016.785, 18.90177
1017.268, 18.47897
1017.750, 18.15352
1018.232, 17.93673
1018.714, 17.81705
1019.196, 17.73548
1019.678, 17.69665
1020.160, 17.74479
1020.642, 17.89344
1021.125, 18.21635
1021.607, 18.82604
1022.089, 19.46267
1022.571, 19.41020
1023.053, 18.72165
1023.535, 18.51728
1024.017, 18.86187
1024.499, 18.99022
1024.981, 18.62696
1025.464, 18.26154
1025.946, 18.37286
1026.428, 18.76118
1026.910, 18.78762
1027.392, 18.41856
1027.874, 17.94256
1028.356, 17.27598
1028.838, 16.97099
1029.321, 17.26207
1029.803, 17.87332
1030.285, 18.61145
1030.767, 19.40021
1031.249, 19.93988
1031.731, 20.32342
1032.213, 20.02537
1032.695, 18.69287
1033.177, 17.53478
1033.660, 16.94313
1034.142, 16.79987
1034.624, 17.10031
1035.106, 17.74165
1035.588, 18.05198
1036.070, 17.79753
1036.552, 17.78048
1037.034, 18.13251
1037.516, 18.52046
1037.999, 18.80906
1038.481, 19.08708
1038.963, 19.44402
1039.445, 19.87489
1039.927, 20.34916
1040.409, 21.15252
1040.891, 21.49042
1041.373, 20.95806
1041.855, 20.47320
1042.338, 20.41978
1042.820, 20.53971
1043.302, 20.45198
1043.784, 20.24204
1044.266, 20.58712
1044.748, 22.43534
1045.230, 23.27038
1045.712, 21.91296
1046.195, 20.78289
1046.677, 21.06290
1047.159, 21.88657
1047.641, 22.35595
1048.123, 22.47783
1048.605, 22.62137
1049.087, 23.06755
1049.569, 23.09680
1050.052, 22.37372
1050.534, 21.48825
1051.016, 20.19291
1051.498, 19.23589
1051.980, 19.87197
1052.462, 21.75720
1052.944, 22.62383
1053.426, 21.52978
1053.908, 20.51052
1054.391, 19.93058
1054.873, 19.63823
1055.355, 19.52958
1055.837, 19.68368
1056.319, 20.47428
1056.801, 21.67792
1057.283, 22.17212
1057.765, 21.30736
1058.248, 20.64114
1058.730, 20.88413
1059.212, 21.15044
1059.694, 20.68180
1060.176, 20.15252
1060.658, 20.61580
1061.140, 21.81990
1061.622, 22.38832
1062.104, 21.88348
1062.587, 20.91222
1063.069, 18.91521
1063.551, 17.39876
1064.033, 17.55435
1064.515, 18.45226
1064.997, 19.21404
1065.479, 19.66943
1065.961, 19.67725
1066.443, 18.98912
1066.926, 18.60407
1067.408, 19.43274
1067.890, 20.10692
1068.372, 19.67437
1068.854, 18.74093
1069.336, 17.93903
1069.818, 17.31811
1070.300, 16.58265
1070.782, 15.44905
1071.265, 15.18348
1071.747, 17.34197
1072.229, 19.37510
1072.711, 19.62054
1073.193, 19.02838
1073.675, 18.56007
1074.157, 18.24761
1074.639, 17.67003
1075.122, 16.60959
1075.604, 16.08551
1076.086, 16.93521
1076.568, 18.01324
1077.050, 18.86934
1077.532, 19.44022
1078.014, 19.48695
1078.496, 19.24996
1078.979, 19.37904
1079.461, 20.07347
1079.943, 20.47595
1080.425, 19.97573
1080.907, 19.34488
1081.389, 18.91088
1081.871, 18.63143
1082.353, 18.50504
1082.835, 18.47911
1083.318, 18.44945
1083.800, 18.39380
1084.282, 18.42966
1084.764, 18.83242
1085.246, 19.05101
1085.728, 18.67332
1086.210, 18.12043
1086.692, 17.94970
1087.175, 17.79653
1087.657, 16.57771
1088.139, 14.26801
1088.621, 13.16306
1089.103, 14.89975
1089.585, 17.00331
1090.067, 19.36342
1090.549, 20.73821
1091.031, 19.03822
1091.514, 16.30918
1091.996, 15.98561
1092.478, 18.17547
1092.960, 19.63065
1093.442, 18.93967
1093.924, 17.98087
1094.406, 17.11233
1094.888, 16.56691
1095.370, 16.46232
1095.853, 16.78978
1096.335, 17.92316
1096.817, 19.55465
1097.299, 20.15832
1097.781, 18.84154
1098.263, 17.74531
1098.745, 17.38251
1099.227, 17.60269
1099.709, 19.06559
1100.192, 20.50811
1100.674, 20.27819
1101.156, 18.85419
1101.638, 18.24780
1102.120, 19.19567
1102.602, 19.58922
1103.084, 18.05096
1103.566, 16.97561
1104.049, 17.78298
1104.531, 19.01805
1105.013, 19.55910
1105.495, 19.49705
1105.977, 19.12538
1106.459, 18.36258
1106.941, 18.09902
1107.423, 18.91192
1107.906, 19.64224
1108.388, 19.97375
1108.870, 20.13716
1109.352, 20.47238
1109.834, 20.66085
1110.316, 19.85269
1110.798, 17.91165
1111.280, 17.11344
1111.762, 18.49816
1112.245, 19.72725
1112.727, 21.09364
1113.209, 21.58750
1113.691, 19.75322
1114.173, 17.38346
1114.655, 17.04119
1115.137, 18.52819
1115.619, 19.01148
1116.102, 17.40762
1116.584, 16.73670
1117.066, 17.85448
1117.548, 18.68937
1118.030, 18.37814
1118.512, 17.63978
1118.994, 16.91453
1119.476, 16.36609
1119.958, 16.75423
1120.441, 18.67123
1120.923, 19.57605
1121.405, 18.90509
1121.887, 18.48517
1122.369, 19.00272
1122.851, 19.44357
1123.333, 18.86464
1123.815, 17.90447
1124.297, 18.11258
1124.780, 19.65908
1125.262, 20.06857
1125.744, 18.92813
1126.226, 18.23903
1126.708, 18.53176
1127.190, 18.57813
1127.672, 17.48310
1128.154, 16.36910
1128.636, 17.06474
1129.119, 19.23874
1129.601, 20.08382
1130.083, 19.52668
1130.565, 18.20631
1131.047, 15.99422
1131.529, 14.95809
1132.011, 16.05237
1132.493, 17.77541
1132.976, 18.67517
1133.458, 18.90382
1133.940, 18.81449
1134.422, 18.43432
1134.904, 18.04998
1135.386, 17.68680
1135.868, 17.70263
1136.350, 18.17664
1136.833, 18.12271
1137.315, 16.73057
1137.797, 15.15388
1138.279, 15.71084
1138.761, 17.61793
1139.243, 18.01553
1139.725, 17.25777
1140.207, 16.93804
1140.689, 17.26533
1141.172, 17.58426
1141.654, 17.58457
1142.136, 17.58494
1142.618, 18.03463
1143.100, 18.57566
1143.582, 18.45803
1144.064, 18.03249
1144.546, 18.10455
1145.029, 18.56341
1145.511, 18.74374
1145.993, 18.50518
1146.475, 18.45658
1146.957, 19.14997
1147.439, 19.83907
1147.921, 19.61127
1148.403, 19.11157
1148.885, 19.29010
1149.368, 19.69685
1149.850, 19.24090
1150.332, 18.07515
1150.814, 17.57581
1151.296, 18.45237
1151.778, 19.17090
1152.260, 18.70170
1152.742, 17.88928
1153.224, 16.95807
1153.707, 16.26285
1154.189, 16.29600
1154.671, 16.80941
1155.153, 17.16520
1155.635, 17.23270
1156.117, 17.49863
1156.599, 18.71679
1157.081, 19.29975
1157.563, 17.98151
1158.046, 16.72596
1158.528, 17.20114
1159.010, 18.18200
1159.492, 17.69837
1159.974, 15.93727
1160.456, 15.27090
1160.938, 16.51397
1161.420, 17.64557
1161.903, 18.98389
1162.385, 19.62564
1162.867, 18.88093
1163.349, 17.85487
1163.831, 17.27460
1164.313, 17.11915
1164.795, 17.45058
1165.277, 18.41552
1165.760, 18.56156
1166.242, 17.52849
1166.724, 16.79313
1167.206, 16.51937
1167.688, 16.85176
1168.170, 18.07092
1168.652, 19.36897
1169.134, 19.71970
1169.616, 19.24027
1170.099, 18.20827
1170.581, 16.60385
1171.063, 16.42811
1171.545, 17.81561
1172.027, 18.34718
1172.509, 17.27463
1172.991, 16.16332
1173.473, 16.24005
1173.956, 16.76485
1174.438, 16.36482
1174.920, 15.39222
1175.402, 15.01794
1175.884, 15.10280
1176.366, 15.01963
1176.848, 14.77493
1177.330, 15.02113
1177.813, 16.01232
1178.295, 17.02524
1178.777, 17.62419
1179.259, 17.61267
1179.741, 15.95571
1180.223, 14.10049
1180.705, 14.60986
1181.187, 16.46091
1181.669, 17.27732
1182.151, 16.68032
1182.634, 15.61034
1183.116, 14.25706
1183.598, 13.39848
1184.080, 13.90323
1184.562, 14.58358
1185.044, 14.52136
1185.526, 14.33111
1186.008, 14.68304
1186.490, 15.45979
1186.973, 16.37548
1187.455, 17.41837
1187.937, 17.87830
1188.419, 17.24617
1188.901, 16.57472
1189.383, 15.70720
1189.865, 15.26466
1190.347, 15.99806
1190.830, 16.96778
1191.312, 16.98519
1191.794, 17.63472
1192.276, 18.35003
1192.758, 18.29489
1193.240, 19.28274
1193.722, 19.64518
1194.204, 18.99452
1194.687, 16.82580
1195.169, 15.02680
1195.651, 14.92621
1196.133, 13.56432
1196.615, 14.75876
1197.097, 13.20220
1197.579, 13.20948
1198.061, 14.67654
1198.543, 15.47927
1199.026, 15.47196
1199.508, 15.76696
1199.990, 16.70616
1200.472, 17.28652
1200.954, 16.60040
1201.436, 15.65936
1201.918, 16.41707
1202.400, 15.75749
1202.883, 15.47365
1203.365, 15.63123
1203.847, 14.75175
1204.329, 14.69473
1204.811, 14.41584
1205.293, 13.55915
1205.775, 13.14264
1206.257, 14.20074
1206.740, 15.47509
1207.222, 16.40523
1207.704, 16.79950
1208.186, 16.00898
1208.668, 14.85100
1209.150, 14.51351
1209.632, 15.00150
1210.114, 15.60383
1210.596, 16.26058
1211.078, 16.70138
1211.561, 16.97936
1212.043, 16.89297
1212.525, 16.13691
1213.007, 15.25468
1213.489, 14.50478
1213.971, 13.90491
1214.453, 13.46735
1214.935, 13.19910
1215.417, 13.23748
1215.900, 13.62035
1216.382, 14.22397
1216.864, 15.15132
1217.346, 15.79343
1217.828, 15.94112
1218.310, 15.84480
1218.792, 15.67862
1219.274, 15.44662
1219.757, 15.00364
1220.239, 14.52804
1220.721, 15.14287
1221.203, 16.54743
1221.685, 17.23753
1222.167, 17.10508
1222.649, 16.66896
1223.131, 16.14831
1223.614, 15.70801
1224.096, 15.47120
1224.578, 15.37078
1225.060, 15.54543
1225.542, 15.62528
1226.024, 14.75019
1226.506, 13.72672
1226.988, 14.06714
1227.470, 15.41651
1227.953, 16.28462
1228.435, 16.25121
1228.917, 15.91175
1229.399, 15.10586
1229.881, 14.59030
1230.363, 14.99242
1230.845, 15.31696
1231.327, 14.98297
1231.810, 14.25287
1232.292, 13.13223
1232.774, 11.89919
1233.256, 11.71054
1233.738, 12.87467
1234.220, 13.78169
1234.702, 14.43947
1235.184, 14.76344
1235.667, 14.65172
1236.149, 14.51603
1236.631, 14.54507
1237.113, 14.78084
1237.595, 15.36383
1238.077, 16.03405
1238.559, 15.80734
1239.041, 16.17462
1239.523, 16.16444
1240.005, 15.89792
1240.488, 15.96063
1240.970, 15.12101
1241.452, 14.78229
1241.934, 15.64059
1242.416, 16.80059
1242.898, 17.93521
1243.380, 18.40418
1243.862, 16.71987
1244.344, 14.75020
1244.827, 14.90091
1245.309, 16.16918
1245.791, 16.71432
1246.273, 16.35844
1246.755, 15.81694
1247.237, 15.19555
1247.719, 14.65603
1248.201, 13.87075
1248.684, 13.68016
1249.166, 14.92280
1249.648, 16.15817
1250.130, 16.67626
1250.612, 16.61155
1251.094, 15.91996
1251.576, 16.37655
1252.058, 14.92277
1252.541, 16.48053
1253.023, 17.27186
1253.505, 17.19254
1253.987, 16.88004
1254.469, 16.47861
1254.951, 15.97878
1255.433, 15.34806
1255.915, 15.15677
1256.397, 16.55591
1256.880, 18.22311
1257.362, 16.86190
1257.844, 14.22122
1258.326, 14.02593
1258.808, 15.48751
1259.290, 16.05846
1259.772, 15.47212
1260.254, 15.14104
1260.737, 15.65467
1261.219, 16.30800
1261.701, 17.36856
1262.183, 17.62026
1262.665, 15.49736
1263.147, 13.38511
1263.629, 13.26731
1264.111, 14.07358
1264.594, 14.08345
1265.076, 13.49444
1265.558, 13.78964
1266.040, 15.30623
1266.522, 16.51678
1267.004, 17.45401
1267.486, 17.95735
1267.968, 17.95715
1268.450, 17.62499
1268.932, 16.97487
1269.415, 16.57097
1269.897, 17.20020
1270.379, 16.45223
1270.861, 17.59862
1271.343, 16.09927
1271.825, 15.69060
1272.307, 16.15243
1272.789, 16.60037
1273.271, 16.91274
1273.754, 17.52608
1274.236, 18.57725
1274.718, 19.02883
1275.200, 17.71158
1275.682, 16.34494
1276.164, 15.82849
1276.646, 15.75910
1277.128, 16.25569
1277.611, 16.72197
1278.093, 16.16748
1278.575, 16.74735
1279.057, 16.94466
1279.539, 16.77958
1280.021, 17.43555
1280.503, 16.67459
1280.985, 16.28250
1281.468, 16.64567
1281.950, 16.48931
1282.432, 15.20258
1282.914, 14.06794
1283.396, 14.15774
1283.878, 15.02855
1284.360, 15.95774
1284.842, 16.95898
1285.324, 18.06247
##END=



