##NAMES=Potassic-magnesio-fluoro-arfvedsonite
##RRUFFID=R060915
##IDEAL CHEMISTRY=KNa_2_(Mg_4_Fe^3+^)Si_8_O_22_F_2_
##LOCALITY=Kipawa, Quebec, Canada
##OWNER=RRUFF
##SOURCE=Royal Ontario Museum
##DESCRIPTION=Dark blue-green amphibole with pronounced cleavage, associated with white albite and red eudialyte
##STATUS=The identification of this mineral has been confirmed by X-ray diffraction and chemical analysis
##URL=rruff.info/R060915
##MEASURED CHEMISTRY=(K_0.44_Na_0.41_[box]_0.15_)_Σ=1_(Na_1.79_Ca_0.21_)_Σ=2_(Mg_3.10_Fe^3+^_0.82_Fe^2+^_0.54_Ca_0.27_Mn_0.15_Al_0.11_Ti_0.01_)_Σ=5_Si_8.00_O_22_(F_1.52_(OH)_0.48_)_Σ=2_
159.1325, 1570.337
159.6146, 1571.359
160.0968, 1578.773
160.5789, 1599.924
161.0610, 1622.191
161.5431, 1633.147
162.0252, 1632.383
162.5073, 1633.165
162.9895, 1648.956
163.4716, 1682.050
163.9537, 1712.493
164.4358, 1736.147
164.9179, 1759.065
165.4000, 1788.438
165.8822, 1825.055
166.3643, 1860.817
166.8464, 1887.529
167.3285, 1904.665
167.8106, 1920.915
168.2927, 1940.984
168.7749, 1958.449
169.2570, 1964.706
169.7391, 1958.069
170.2212, 1948.667
170.7033, 1947.492
171.1854, 1954.247
171.6676, 1957.590
172.1497, 1954.927
172.6318, 1948.404
173.1139, 1940.627
173.5960, 1932.047
174.0781, 1921.249
174.5603, 1905.432
175.0424, 1885.121
175.5245, 1866.188
176.0066, 1850.395
176.4887, 1836.383
176.9708, 1821.439
177.4530, 1804.419
177.9351, 1790.077
178.4172, 1785.202
178.8993, 1788.222
179.3814, 1790.973
179.8635, 1793.710
180.3457, 1794.221
180.8278, 1787.150
181.3099, 1769.889
181.7920, 1752.832
182.2741, 1748.782
182.7562, 1754.936
183.2384, 1759.907
183.7205, 1757.136
184.2026, 1752.167
184.6847, 1755.527
185.1668, 1770.682
185.6489, 1786.116
186.1311, 1789.520
186.6132, 1783.564
187.0953, 1776.444
187.5774, 1764.132
188.0595, 1753.901
188.5416, 1761.879
189.0238, 1794.894
189.5059, 1828.774
189.9880, 1840.150
190.4701, 1834.354
190.9522, 1825.629
191.4343, 1813.992
191.9165, 1803.417
192.3986, 1800.937
192.8807, 1808.042
193.3628, 1820.257
193.8449, 1837.335
194.3270, 1857.350
194.8092, 1873.666
195.2913, 1881.570
195.7734, 1885.328
196.2555, 1891.823
196.7376, 1901.734
197.2197, 1913.579
197.7019, 1928.632
198.1840, 1945.242
198.6661, 1958.030
199.1482, 1964.036
199.6303, 1965.750
200.1124, 1967.331
200.5946, 1969.508
201.0767, 1969.448
201.5588, 1958.587
202.0409, 1943.072
202.5230, 1938.147
203.0051, 1958.785
203.4873, 1988.415
203.9694, 2001.333
204.4515, 1993.627
204.9336, 1983.627
205.4157, 1987.274
205.8978, 1998.416
206.3800, 2003.754
206.8621, 1993.338
207.3442, 1978.335
207.8263, 1975.622
208.3084, 1987.403
208.7905, 1997.738
209.2727, 1991.218
209.7548, 1975.926
210.2369, 1968.613
210.7190, 1978.408
211.2011, 1994.327
211.6832, 2003.458
212.1654, 2005.098
212.6475, 2006.952
213.1296, 2016.039
213.6117, 2028.054
214.0938, 2033.830
214.5760, 2025.226
215.0581, 2015.662
215.5402, 2019.192
216.0223, 2036.098
216.5044, 2056.434
216.9865, 2077.953
217.4687, 2098.470
217.9508, 2113.785
218.4329, 2119.834
218.9150, 2124.761
219.3971, 2139.594
219.8792, 2163.445
220.3614, 2176.547
220.8435, 2163.072
221.3256, 2135.240
221.8077, 2119.157
222.2898, 2118.400
222.7719, 2125.026
223.2541, 2137.892
223.7362, 2155.435
224.2183, 2166.465
224.7004, 2163.743
225.1825, 2153.216
225.6646, 2148.387
226.1468, 2153.334
226.6289, 2155.167
227.1110, 2142.001
227.5931, 2118.358
228.0752, 2101.954
228.5573, 2101.272
229.0395, 2108.882
229.5216, 2111.512
230.0037, 2108.718
230.4858, 2103.400
230.9679, 2095.003
231.4500, 2084.976
231.9322, 2077.785
232.4143, 2076.182
232.8964, 2075.138
233.3785, 2064.675
233.8606, 2042.682
234.3427, 2024.418
234.8249, 2017.429
235.3070, 2016.702
235.7891, 2014.329
236.2712, 2008.619
236.7533, 1999.759
237.2354, 1986.729
237.7176, 1968.799
238.1997, 1952.891
238.6818, 1939.211
239.1639, 1928.612
239.6460, 1922.536
240.1281, 1921.321
240.6103, 1923.340
241.0924, 1929.286
241.5745, 1940.834
242.0566, 1940.464
242.5387, 1913.010
243.0208, 1881.564
243.5030, 1870.148
243.9851, 1880.319
244.4672, 1892.172
244.9493, 1886.981
245.4314, 1862.328
245.9135, 1842.706
246.3957, 1826.352
246.8778, 1816.174
247.3599, 1818.359
247.8420, 1830.629
248.3241, 1841.096
248.8062, 1840.466
249.2884, 1828.828
249.7705, 1819.713
250.2526, 1816.994
250.7347, 1812.579
251.2168, 1799.738
251.6989, 1781.861
252.1811, 1769.018
252.6632, 1768.623
253.1453, 1777.803
253.6274, 1776.203
254.1095, 1755.523
254.5916, 1735.005
255.0738, 1718.044
255.5559, 1704.525
256.0380, 1694.364
256.5201, 1687.683
257.0022, 1683.447
257.4843, 1678.393
257.9665, 1671.127
258.4486, 1664.774
258.9307, 1663.063
259.4128, 1660.930
259.8949, 1651.813
260.3770, 1633.500
260.8592, 1610.595
261.3413, 1591.685
261.8234, 1580.281
262.3055, 1567.568
262.7876, 1551.768
263.2697, 1535.881
263.7519, 1522.266
264.2340, 1511.390
264.7161, 1502.146
265.1982, 1493.417
265.6803, 1485.728
266.1624, 1476.846
266.6446, 1463.985
267.1267, 1452.396
267.6088, 1445.638
268.0909, 1443.171
268.5730, 1441.767
269.0551, 1438.778
269.5373, 1434.292
270.0194, 1427.216
270.5015, 1416.241
270.9836, 1403.596
271.4657, 1389.218
271.9478, 1373.594
272.4300, 1357.127
272.9121, 1338.529
273.3942, 1319.464
273.8763, 1310.104
274.3584, 1315.313
274.8405, 1324.289
275.3227, 1338.728
275.8048, 1353.044
276.2869, 1358.267
276.7690, 1347.548
277.2511, 1330.261
277.7332, 1330.103
278.2154, 1357.095
278.6975, 1373.961
279.1796, 1355.317
279.6617, 1328.016
280.1438, 1319.269
280.6259, 1338.951
281.1081, 1364.643
281.5902, 1367.123
282.0723, 1344.105
282.5544, 1326.313
283.0365, 1323.411
283.5186, 1327.834
284.0008, 1334.706
284.4829, 1343.834
284.9650, 1350.799
285.4471, 1353.446
285.9292, 1351.532
286.4113, 1342.030
286.8935, 1318.540
287.3756, 1296.845
287.8577, 1292.602
288.3398, 1303.929
288.8219, 1318.599
289.3040, 1334.454
289.7862, 1349.753
290.2683, 1359.788
290.7504, 1362.580
291.2325, 1368.465
291.7146, 1391.194
292.1967, 1425.922
292.6789, 1448.669
293.1610, 1446.758
293.6431, 1438.155
294.1252, 1436.371
294.6073, 1441.602
295.0894, 1451.447
295.5716, 1466.053
296.0537, 1483.861
296.5358, 1497.388
297.0179, 1503.651
297.5000, 1509.306
297.9821, 1515.144
298.4643, 1522.277
298.9464, 1534.708
299.4285, 1555.179
299.9106, 1578.196
300.3927, 1590.352
300.8748, 1582.421
301.3570, 1578.666
301.8391, 1584.457
302.3212, 1594.113
302.8033, 1602.093
303.2854, 1606.936
303.7675, 1609.974
304.2497, 1612.820
304.7318, 1614.714
305.2139, 1618.861
305.6960, 1625.156
306.1781, 1633.461
306.6602, 1645.695
307.1424, 1660.451
307.6245, 1673.367
308.1066, 1680.540
308.5887, 1681.877
309.0708, 1681.901
309.5529, 1678.737
310.0351, 1676.145
310.5172, 1674.672
310.9993, 1674.470
311.4814, 1675.557
311.9635, 1677.884
312.4456, 1681.664
312.9278, 1688.423
313.4099, 1702.439
313.8920, 1711.026
314.3741, 1707.269
314.8562, 1699.956
315.3383, 1697.897
315.8205, 1703.777
316.3026, 1711.236
316.7847, 1710.104
317.2668, 1698.500
317.7489, 1694.300
318.2310, 1706.524
318.7132, 1722.261
319.1953, 1732.538
319.6774, 1737.253
320.1595, 1742.214
320.6416, 1752.238
321.1237, 1765.769
321.6059, 1777.879
322.0880, 1789.801
322.5701, 1796.682
323.0522, 1789.669
323.5343, 1774.071
324.0164, 1764.498
324.4986, 1768.427
324.9807, 1778.349
325.4628, 1787.171
325.9449, 1794.748
326.4270, 1799.612
326.9091, 1799.537
327.3913, 1796.580
327.8734, 1797.651
328.3555, 1808.479
328.8376, 1815.399
329.3197, 1807.269
329.8018, 1791.159
330.2840, 1783.883
330.7661, 1792.984
331.2482, 1806.957
331.7303, 1804.233
332.2124, 1773.659
332.6945, 1752.054
333.1767, 1749.017
333.6588, 1751.415
334.1409, 1748.096
334.6230, 1737.506
335.1051, 1724.011
335.5872, 1711.202
336.0694, 1698.635
336.5515, 1691.194
337.0336, 1689.723
337.5157, 1691.736
337.9979, 1700.630
338.4800, 1712.106
338.9621, 1717.483
339.4442, 1710.814
339.9263, 1695.899
340.4084, 1687.927
340.8906, 1691.357
341.3727, 1694.804
341.8548, 1694.603
342.3369, 1694.446
342.8190, 1699.563
343.3011, 1711.269
343.7833, 1722.238
344.2654, 1719.410
344.7475, 1699.569
345.2296, 1692.269
345.7117, 1710.634
346.1938, 1734.196
346.6760, 1750.807
347.1581, 1760.919
347.6402, 1770.003
348.1223, 1782.891
348.6044, 1797.200
349.0865, 1805.061
349.5687, 1803.846
350.0508, 1804.227
350.5329, 1816.984
351.0150, 1836.028
351.4971, 1848.592
351.9792, 1849.890
352.4614, 1846.678
352.9435, 1839.263
353.4256, 1830.142
353.9077, 1833.519
354.3898, 1859.481
354.8719, 1895.495
355.3541, 1913.420
355.8362, 1909.650
356.3183, 1902.688
356.8004, 1891.850
357.2825, 1882.165
357.7646, 1880.730
358.2468, 1888.564
358.7289, 1899.808
359.2110, 1908.666
359.6931, 1915.122
360.1752, 1918.580
360.6573, 1916.615
361.1395, 1914.543
361.6216, 1917.624
362.1037, 1922.437
362.5858, 1918.955
363.0679, 1899.387
363.5500, 1871.666
364.0322, 1868.428
364.5143, 1911.839
364.9964, 1945.726
365.4785, 1959.291
365.9606, 1962.941
366.4427, 1964.335
366.9249, 1965.798
367.4070, 1968.174
367.8891, 1973.647
368.3712, 1982.699
368.8533, 1987.644
369.3354, 1985.400
369.8176, 1981.415
370.2997, 1977.115
370.7818, 1973.518
371.2639, 1973.853
371.7460, 1982.339
372.2281, 1994.828
372.7103, 2003.489
373.1924, 2007.663
373.6745, 2012.920
374.1566, 2024.851
374.6387, 2038.798
375.1208, 2044.689
375.6030, 2038.604
376.0851, 2030.476
376.5672, 2023.632
377.0493, 2018.690
377.5314, 2018.405
378.0135, 2024.316
378.4957, 2030.614
378.9778, 2028.735
379.4599, 2015.051
379.9420, 2004.163
380.4241, 2001.202
380.9063, 1997.127
381.3884, 1985.197
381.8705, 1966.146
382.3526, 1943.820
382.8347, 1920.139
383.3168, 1896.185
383.7990, 1882.171
384.2811, 1893.880
384.7632, 1896.712
385.2453, 1876.067
385.7274, 1848.840
386.2095, 1835.501
386.6917, 1842.324
387.1738, 1855.197
387.6559, 1852.851
388.1380, 1832.093
388.6201, 1815.792
389.1022, 1810.443
389.5844, 1805.824
390.0665, 1793.001
390.5486, 1775.010
391.0307, 1764.015
391.5128, 1773.401
391.9949, 1792.204
392.4771, 1796.828
392.9592, 1785.402
393.4413, 1771.921
393.9234, 1761.970
394.4055, 1755.494
394.8876, 1752.296
395.3698, 1755.107
395.8519, 1755.922
396.3340, 1747.651
396.8161, 1734.899
397.2982, 1727.459
397.7803, 1728.211
398.2625, 1732.125
398.7446, 1733.227
399.2267, 1730.870
399.7088, 1727.541
400.1909, 1726.729
400.6730, 1721.882
401.1552, 1705.616
401.6373, 1681.827
402.1194, 1660.945
402.6015, 1649.807
403.0836, 1646.073
403.5657, 1640.418
404.0479, 1630.009
404.5300, 1622.189
405.0121, 1624.066
405.4942, 1624.749
405.9763, 1610.254
406.4584, 1579.820
406.9406, 1552.773
407.4227, 1555.862
407.9048, 1587.417
408.3869, 1598.269
408.8690, 1573.244
409.3511, 1547.719
409.8333, 1544.021
410.3154, 1555.139
410.7975, 1566.598
411.2796, 1574.339
411.7617, 1579.910
412.2438, 1584.713
412.7260, 1588.714
413.2081, 1591.919
413.6902, 1594.645
414.1723, 1596.063
414.6544, 1593.124
415.1365, 1583.152
415.6187, 1579.016
416.1008, 1578.993
416.5829, 1588.430
417.0650, 1624.677
417.5471, 1682.465
418.0292, 1722.966
418.5114, 1710.521
418.9935, 1648.742
419.4756, 1610.621
419.9577, 1616.804
420.4398, 1623.370
420.9219, 1626.128
421.4041, 1624.067
421.8862, 1614.436
422.3683, 1596.702
422.8504, 1578.196
423.3325, 1570.707
423.8146, 1576.265
424.2968, 1577.515
424.7789, 1573.989
425.2610, 1564.479
425.7431, 1545.157
426.2252, 1519.288
426.7073, 1496.631
427.1895, 1483.685
427.6716, 1474.809
428.1537, 1462.107
428.6358, 1445.588
429.1179, 1429.341
429.6000, 1414.958
430.0822, 1402.008
430.5643, 1389.273
431.0464, 1376.009
431.5285, 1364.959
432.0106, 1359.548
432.4927, 1355.254
432.9749, 1347.189
433.4570, 1334.783
433.9391, 1319.122
434.4212, 1299.519
434.9033, 1276.287
435.3854, 1267.324
435.8676, 1291.295
436.3497, 1307.888
436.8318, 1307.307
437.3139, 1295.872
437.7960, 1278.180
438.2781, 1256.436
438.7603, 1238.151
439.2424, 1236.658
439.7245, 1254.334
440.2066, 1266.230
440.6887, 1269.965
441.1708, 1267.695
441.6530, 1258.759
442.1351, 1245.223
442.6172, 1232.937
443.0993, 1225.769
443.5814, 1219.613
444.0635, 1206.325
444.5457, 1187.163
445.0278, 1176.896
445.5099, 1183.595
445.9920, 1199.255
446.4741, 1210.042
446.9562, 1217.154
447.4384, 1217.263
447.9205, 1202.933
448.4026, 1186.131
448.8847, 1177.414
449.3668, 1177.000
449.8489, 1179.966
450.3311, 1183.165
450.8132, 1186.206
451.2953, 1186.391
451.7774, 1184.044
452.2595, 1178.013
452.7416, 1160.807
453.2238, 1144.469
453.7059, 1142.150
454.1880, 1155.782
454.6701, 1172.408
455.1522, 1178.561
455.6343, 1175.370
456.1165, 1174.501
456.5986, 1178.063
457.0807, 1180.607
457.5628, 1176.982
458.0449, 1170.174
458.5270, 1165.740
459.0092, 1166.642
459.4913, 1167.303
459.9734, 1161.233
460.4555, 1152.002
460.9376, 1149.487
461.4197, 1156.962
461.9019, 1168.229
462.3840, 1175.682
462.8661, 1178.784
463.3482, 1179.763
463.8303, 1175.975
464.3124, 1172.872
464.7946, 1174.574
465.2767, 1178.701
465.7588, 1179.746
466.2409, 1174.762
466.7230, 1167.639
467.2051, 1167.722
467.6873, 1178.631
468.1694, 1184.299
468.6515, 1175.037
469.1336, 1166.521
469.6157, 1170.036
470.0978, 1183.195
470.5800, 1193.674
471.0621, 1192.900
471.5442, 1186.668
472.0263, 1182.413
472.5084, 1180.184
472.9905, 1183.801
473.4727, 1198.552
473.9548, 1216.516
474.4369, 1218.554
474.9190, 1198.692
475.4011, 1184.392
475.8832, 1181.637
476.3654, 1185.653
476.8475, 1195.630
477.3296, 1209.230
477.8117, 1218.892
478.2938, 1218.050
478.7759, 1209.599
479.2581, 1210.483
479.7402, 1228.550
480.2223, 1243.623
480.7044, 1254.996
481.1865, 1260.944
481.6686, 1257.010
482.1508, 1243.868
482.6329, 1232.016
483.1150, 1233.042
483.5971, 1242.387
484.0792, 1243.493
484.5613, 1234.395
485.0435, 1223.794
485.5256, 1217.436
486.0077, 1212.670
486.4898, 1202.256
486.9719, 1180.595
487.4540, 1163.588
487.9362, 1161.305
488.4183, 1165.465
488.9004, 1164.506
489.3825, 1156.774
489.8646, 1148.869
490.3467, 1146.932
490.8289, 1150.924
491.3110, 1155.510
491.7931, 1162.192
492.2752, 1167.634
492.7573, 1172.685
493.2394, 1175.560
493.7216, 1172.349
494.2037, 1162.490
494.6858, 1154.130
495.1679, 1157.246
495.6500, 1170.099
496.1321, 1180.303
496.6143, 1186.732
497.0964, 1191.252
497.5785, 1193.495
498.0606, 1194.867
498.5427, 1198.905
499.0248, 1207.990
499.5070, 1216.685
499.9891, 1222.615
500.4712, 1226.343
500.9533, 1227.624
501.4355, 1226.667
501.9176, 1227.038
502.3997, 1233.211
502.8818, 1245.768
503.3639, 1252.970
503.8460, 1248.985
504.3282, 1246.119
504.8103, 1246.117
505.2924, 1249.062
505.7745, 1255.626
506.2566, 1265.955
506.7387, 1277.169
507.2209, 1287.762
507.7030, 1297.173
508.1851, 1299.875
508.6672, 1292.580
509.1493, 1285.792
509.6314, 1285.878
510.1136, 1292.010
510.5957, 1302.447
511.0778, 1325.138
511.5599, 1340.903
512.0420, 1332.864
512.5241, 1314.922
513.0062, 1309.012
513.4883, 1319.673
513.9705, 1336.814
514.4526, 1350.178
514.9347, 1359.668
515.4168, 1369.398
515.8989, 1382.250
516.3810, 1391.633
516.8632, 1392.654
517.3453, 1391.230
517.8274, 1394.538
518.3095, 1404.301
518.7916, 1415.153
519.2737, 1421.893
519.7559, 1425.260
520.2380, 1428.025
520.7201, 1429.866
521.2022, 1433.305
521.6843, 1440.788
522.1664, 1451.092
522.6486, 1459.622
523.1307, 1464.765
523.6128, 1470.669
524.0949, 1478.063
524.5770, 1487.245
525.0591, 1501.317
525.5413, 1519.178
526.0234, 1531.730
526.5055, 1528.921
526.9876, 1513.176
527.4697, 1512.923
527.9518, 1542.905
528.4340, 1563.888
528.9161, 1556.769
529.3982, 1544.653
529.8803, 1551.562
530.3624, 1580.079
530.8445, 1606.638
531.3267, 1612.824
531.8088, 1606.754
532.2909, 1602.686
532.7730, 1601.289
533.2551, 1609.325
533.7372, 1635.426
534.2194, 1669.171
534.7015, 1679.056
535.1836, 1642.470
535.6657, 1627.114
536.1478, 1654.781
536.6299, 1694.408
537.1121, 1726.361
537.5942, 1747.958
538.0763, 1761.372
538.5584, 1767.219
539.0405, 1768.023
539.5226, 1771.179
540.0048, 1777.606
540.4869, 1783.011
540.9690, 1788.204
541.4511, 1790.323
541.9332, 1785.511
542.4153, 1774.744
542.8975, 1766.086
543.3796, 1764.555
543.8617, 1764.791
544.3438, 1761.480
544.8259, 1755.564
545.3080, 1750.513
545.7902, 1747.667
546.2723, 1746.543
546.7544, 1746.694
547.2365, 1749.336
547.7186, 1749.134
548.2007, 1744.469
548.6829, 1738.956
549.1650, 1733.469
549.6471, 1728.200
550.1292, 1722.498
550.6113, 1715.743
551.0934, 1711.498
551.5756, 1717.531
552.0577, 1731.527
552.5398, 1736.252
553.0219, 1727.751
553.5040, 1714.649
553.9861, 1701.198
554.4683, 1688.361
554.9504, 1680.152
555.4325, 1674.508
555.9146, 1676.079
556.3967, 1698.014
556.8788, 1721.832
557.3610, 1722.176
557.8431, 1697.405
558.3252, 1668.759
558.8073, 1654.997
559.2894, 1654.727
559.7715, 1659.112
560.2537, 1675.220
560.7358, 1680.608
561.2179, 1660.983
561.7000, 1632.384
562.1821, 1604.874
562.6642, 1579.546
563.1464, 1561.590
563.6285, 1559.725
564.1106, 1562.733
564.5927, 1555.748
565.0748, 1540.263
565.5569, 1527.794
566.0391, 1524.074
566.5212, 1524.991
567.0033, 1522.372
567.4854, 1514.993
567.9675, 1506.851
568.4496, 1498.465
568.9318, 1488.910
569.4139, 1474.129
569.8960, 1458.546
570.3781, 1451.388
570.8602, 1457.824
571.3423, 1467.918
571.8245, 1471.182
572.3066, 1467.858
572.7887, 1457.010
573.2708, 1435.839
573.7529, 1418.024
574.2350, 1417.448
574.7172, 1430.981
575.1993, 1433.019
575.6814, 1417.572
576.1635, 1398.958
576.6456, 1372.431
577.1277, 1349.464
577.6099, 1345.625
578.0920, 1360.025
578.5741, 1375.371
579.0562, 1377.944
579.5383, 1369.406
580.0204, 1355.699
580.5026, 1335.617
580.9847, 1314.332
581.4668, 1290.107
581.9489, 1268.415
582.4310, 1256.128
582.9132, 1253.123
583.3953, 1249.109
583.8774, 1244.190
584.3596, 1234.529
584.8417, 1210.059
585.3238, 1178.895
585.8059, 1162.926
586.2880, 1170.557
586.7701, 1185.787
587.2523, 1185.394
587.7344, 1167.877
588.2165, 1143.772
588.6986, 1100.196
589.1807, 1067.213
589.6628, 1060.608
590.1450, 1067.925
590.6271, 1074.459
591.1092, 1077.974
591.5913, 1074.670
592.0734, 1058.233
592.5555, 1034.870
593.0377, 1012.453
593.5198, 992.3145
594.0019, 979.6617
594.4840, 979.0087
594.9661, 985.6060
595.4482, 984.7350
595.9304, 966.0408
596.4125, 957.9990
596.8946, 972.0209
597.3767, 985.2584
597.8588, 981.1311
598.3409, 966.0284
598.8231, 958.4907
599.3052, 970.1924
599.7873, 984.3762
600.2694, 978.2286
600.7515, 956.5005
601.2336, 940.3672
601.7158, 934.1566
602.1979, 932.5183
602.6800, 931.5475
603.1621, 931.1933
603.6442, 930.6938
604.1263, 927.7164
604.6085, 927.6678
605.0906, 934.3143
605.5727, 942.2215
606.0548, 947.9905
606.5369, 950.4362
607.0190, 947.9083
607.5012, 936.3676
607.9833, 921.8630
608.4654, 920.2200
608.9475, 931.7363
609.4296, 937.7068
609.9117, 930.6673
610.3939, 920.2130
610.8760, 917.5823
611.3581, 923.4467
611.8402, 926.7663
612.3223, 925.9609
612.8044, 924.0827
613.2866, 920.7488
613.7687, 917.7617
614.2508, 917.9236
614.7329, 921.5551
615.2150, 925.7950
615.6971, 928.6633
616.1793, 929.7792
616.6614, 925.3965
617.1435, 913.3680
617.6256, 906.9709
618.1077, 914.3325
618.5898, 926.9738
619.0720, 931.5632
619.5541, 927.0958
620.0362, 926.1895
620.5183, 937.6176
621.0004, 946.6331
621.4825, 939.7195
621.9647, 924.8156
622.4468, 917.7267
622.9289, 923.7479
623.4110, 934.2319
623.8931, 936.9751
624.3752, 932.3271
624.8574, 937.5449
625.3395, 959.0939
625.8216, 972.8305
626.3037, 962.4821
626.7858, 940.5778
627.2679, 927.2274
627.7501, 923.8600
628.2322, 923.5305
628.7143, 926.5707
629.1964, 930.1736
629.6785, 932.5682
630.1606, 933.6506
630.6428, 932.8017
631.1249, 929.7544
631.6070, 927.6122
632.0891, 931.7806
632.5712, 942.6412
633.0533, 953.9029
633.5355, 967.8264
634.0176, 977.2825
634.4997, 975.7058
634.9818, 968.2227
635.4639, 962.9424
635.9460, 960.6122
636.4282, 959.4932
636.9103, 957.5262
637.3924, 957.7004
637.8745, 966.1198
638.3566, 979.1793
638.8387, 985.5252
639.3209, 979.2854
639.8030, 968.2144
640.2851, 967.1562
640.7672, 977.5192
641.2493, 981.4344
641.7314, 973.1068
642.2136, 967.4153
642.6957, 976.8555
643.1778, 993.3112
643.6599, 1001.747
644.1420, 997.7812
644.6241, 995.3414
645.1063, 1000.823
645.5884, 1008.626
646.0705, 1014.337
646.5526, 1017.670
647.0347, 1018.774
647.5168, 1017.542
647.9990, 1016.565
648.4811, 1022.470
648.9632, 1036.486
649.4453, 1040.761
649.9274, 1028.103
650.4095, 1017.725
650.8917, 1023.190
651.3738, 1038.201
651.8559, 1049.696
652.3380, 1056.255
652.8201, 1061.350
653.3022, 1063.130
653.7844, 1066.052
654.2665, 1075.877
654.7486, 1090.349
655.2307, 1102.270
655.7128, 1107.947
656.1949, 1110.362
656.6771, 1113.205
657.1592, 1116.411
657.6413, 1124.649
658.1234, 1139.498
658.6055, 1156.371
659.0876, 1174.412
659.5698, 1192.175
660.0519, 1206.083
660.5340, 1214.810
661.0161, 1223.200
661.4982, 1233.141
661.9803, 1242.338
662.4625, 1244.752
662.9446, 1245.432
663.4267, 1256.873
663.9088, 1284.989
664.3909, 1319.813
664.8730, 1346.477
665.3552, 1366.243
665.8373, 1392.609
666.3194, 1428.317
666.8015, 1461.158
667.2836, 1480.406
667.7657, 1494.653
668.2479, 1525.952
668.7300, 1581.710
669.2121, 1633.504
669.6942, 1668.413
670.1763, 1709.142
670.6584, 1770.539
671.1406, 1846.719
671.6227, 1925.698
672.1048, 2003.108
672.5869, 2083.596
673.0690, 2169.572
673.5511, 2262.617
674.0333, 2368.763
674.5154, 2488.892
674.9975, 2611.425
675.4796, 2729.209
675.9617, 2847.977
676.4438, 2977.905
676.9260, 3120.103
677.4081, 3272.664
677.8902, 3440.445
678.3723, 3612.144
678.8544, 3792.234
679.3365, 3969.960
679.8187, 4127.685
680.3008, 4261.577
680.7829, 4391.649
681.2650, 4542.242
681.7471, 4693.824
682.2292, 4818.857
682.7114, 4914.041
683.1935, 4967.529
683.6756, 4972.926
684.1577, 4945.643
684.6398, 4911.021
685.1219, 4875.395
685.6041, 4776.687
686.0862, 4572.473
686.5683, 4363.343
687.0504, 4178.009
687.5325, 3998.052
688.0146, 3803.053
688.4968, 3591.828
688.9789, 3382.781
689.4610, 3177.029
689.9431, 2981.948
690.4252, 2802.145
690.9073, 2637.973
691.3895, 2492.378
691.8716, 2364.739
692.3537, 2251.452
692.8358, 2149.486
693.3179, 2058.335
693.8000, 1970.572
694.2822, 1884.132
694.7643, 1807.458
695.2464, 1745.496
695.7285, 1691.676
696.2106, 1639.924
696.6927, 1590.535
697.1749, 1547.437
697.6570, 1515.792
698.1391, 1484.842
698.6212, 1445.995
699.1033, 1407.851
699.5854, 1383.323
700.0676, 1371.161
700.5497, 1357.504
701.0318, 1331.864
701.5139, 1301.582
701.9960, 1281.945
702.4781, 1272.693
702.9603, 1263.739
703.4424, 1254.184
703.9245, 1241.590
704.4066, 1222.181
704.8887, 1198.402
705.3708, 1181.084
705.8530, 1173.420
706.3351, 1167.537
706.8172, 1166.899
707.2993, 1164.482
707.7814, 1153.685
708.2635, 1138.064
708.7457, 1125.653
709.2278, 1119.578
709.7099, 1116.162
710.1920, 1114.225
710.6741, 1111.830
711.1563, 1103.801
711.6384, 1090.517
712.1205, 1077.609
712.6026, 1067.648
713.0847, 1061.477
713.5668, 1061.479
714.0490, 1069.609
714.5311, 1074.716
715.0132, 1076.321
715.4953, 1075.439
715.9774, 1070.985
716.4595, 1065.145
716.9417, 1060.948
717.4238, 1058.860
717.9059, 1054.424
718.3880, 1040.490
718.8701, 1029.014
719.3522, 1032.618
719.8344, 1043.945
720.3165, 1048.870
720.7986, 1043.986
721.2807, 1036.395
721.7628, 1032.287
722.2449, 1031.306
722.7271, 1033.038
723.2092, 1037.837
723.6913, 1040.692
724.1734, 1039.619
724.6555, 1037.964
725.1376, 1040.935
725.6198, 1047.891
726.1019, 1043.683
726.5840, 1014.359
727.0661, 994.1029
727.5482, 993.3657
728.0303, 999.1116
728.5125, 1003.644
728.9946, 1005.715
729.4767, 1004.884
729.9588, 999.5324
730.4409, 995.0848
730.9230, 998.2505
731.4052, 1005.666
731.8873, 1010.751
732.3694, 1012.799
732.8515, 1013.065
733.3336, 1012.118
733.8157, 1010.598
734.2979, 1010.742
734.7800, 1014.268
735.2621, 1009.790
735.7442, 986.2216
736.2263, 973.2327
736.7084, 998.3760
737.1906, 1035.094
737.6727, 1043.392
738.1548, 1016.339
738.6369, 998.8731
739.1190, 1011.805
739.6011, 1026.255
740.0833, 1024.810
740.5654, 1013.767
741.0475, 1003.008
741.5296, 995.1198
742.0117, 988.0338
742.4938, 978.4985
742.9760, 969.6524
743.4581, 971.2350
743.9402, 981.5708
744.4223, 984.1369
744.9044, 973.7000
745.3865, 962.7256
745.8687, 963.9932
746.3508, 974.7633
746.8329, 974.3348
747.3150, 951.4479
747.7971, 937.7297
748.2792, 943.3162
748.7614, 951.7145
749.2435, 954.8487
749.7256, 953.8281
750.2077, 952.3506
750.6898, 951.9991
751.1719, 949.1180
751.6541, 936.2902
752.1362, 924.2442
752.6183, 928.7174
753.1004, 943.6315
753.5825, 948.3979
754.0646, 934.6473
754.5468, 918.5566
755.0289, 927.6696
755.5110, 954.8386
755.9931, 951.3911
756.4752, 913.4590
756.9573, 888.9209
757.4395, 899.4102
757.9216, 921.5161
758.4037, 925.0305
758.8858, 908.3679
759.3679, 897.1380
759.8500, 892.6280
760.3322, 892.1682
760.8143, 901.0309
761.2964, 909.3248
761.7785, 907.3696
762.2606, 897.2369
762.7427, 889.9005
763.2249, 890.6776
763.7070, 892.9447
764.1891, 893.4899
764.6712, 892.1898
765.1533, 887.8673
765.6354, 881.3193
766.1176, 875.6885
766.5997, 872.7479
767.0818, 871.2186
767.5639, 869.1229
768.0460, 866.5270
768.5281, 864.0891
769.0103, 861.7157
769.4924, 860.6389
769.9745, 862.4323
770.4566, 864.0782
770.9387, 859.4974
771.4208, 845.8027
771.9030, 841.9268
772.3851, 858.6176
772.8672, 871.2814
773.3493, 873.3456
773.8314, 869.7415
774.3135, 863.1422
774.7957, 854.8340
775.2778, 848.9853
775.7599, 849.2531
776.2420, 849.9403
776.7241, 846.2797
777.2062, 841.0297
777.6884, 837.2122
778.1705, 835.7187
778.6526, 838.5403
779.1347, 847.5892
779.6168, 856.7540
780.0989, 851.7773
780.5811, 835.1265
781.0632, 833.5659
781.5453, 851.1864
782.0274, 865.1047
782.5095, 863.7411
782.9916, 853.4272
783.4738, 843.8738
783.9559, 834.2386
784.4380, 829.7972
784.9201, 834.8663
785.4022, 839.5846
785.8843, 841.7267
786.3665, 842.5750
786.8486, 843.4739
787.3307, 844.3108
787.8128, 843.7132
788.2949, 838.6126
788.7770, 835.1085
789.2592, 837.7910
789.7413, 843.0822
790.2234, 847.2039
790.7055, 849.7693
791.1876, 851.8831
791.6697, 854.2457
792.1519, 855.7084
792.6340, 854.9520
793.1161, 851.9849
793.5982, 845.3926
794.0803, 835.2615
794.5624, 828.6232
795.0446, 828.9831
795.5267, 832.8588
796.0088, 835.5117
796.4909, 837.0533
796.9730, 835.4893
797.4551, 828.1946
797.9373, 822.9924
798.4194, 822.8719
798.9015, 824.7599
799.3836, 827.0566
799.8657, 829.2644
800.3478, 828.5672
800.8300, 821.5121
801.3121, 815.6448
801.7942, 812.4457
802.2763, 811.7454
802.7584, 814.8817
803.2405, 820.1833
803.7227, 824.3850
804.2048, 826.2723
804.6869, 826.1176
805.1690, 822.4713
805.6511, 817.8554
806.1332, 815.8710
806.6154, 816.6774
807.0975, 821.3624
807.5796, 830.0934
808.0617, 836.9875
808.5438, 834.2693
809.0259, 824.6224
809.5081, 823.9986
809.9902, 834.0005
810.4723, 841.1257
810.9544, 842.0277
811.4365, 840.7731
811.9186, 839.4758
812.4008, 838.8540
812.8829, 842.1364
813.3650, 854.6146
813.8471, 861.9660
814.3292, 861.6998
814.8113, 859.2044
815.2935, 857.3410
815.7756, 854.5696
816.2577, 846.9487
816.7398, 833.5511
817.2219, 824.4659
817.7040, 826.2964
818.1862, 831.2524
818.6683, 834.1661
819.1504, 836.5265
819.6325, 841.9983
820.1146, 850.1185
820.5967, 855.7013
821.0789, 854.8585
821.5610, 850.5046
822.0431, 845.6509
822.5252, 841.0154
823.0073, 840.0624
823.4894, 842.8605
823.9716, 844.2480
824.4537, 841.2479
824.9358, 836.5215
825.4179, 835.2017
825.9000, 837.7877
826.3821, 835.9274
826.8643, 827.0727
827.3464, 821.4364
827.8285, 823.3722
828.3106, 828.5195
828.7927, 832.8562
829.2748, 836.3348
829.7570, 838.2682
830.2391, 836.3506
830.7212, 836.2294
831.2033, 838.2468
831.6854, 842.6085
832.1675, 854.9185
832.6497, 868.4218
833.1318, 866.6877
833.6139, 841.8214
834.0960, 822.9323
834.5781, 833.5587
835.0602, 848.3459
835.5424, 842.3333
836.0245, 824.8947
836.5066, 814.0795
836.9887, 814.6241
837.4708, 822.8336
837.9529, 840.0386
838.4351, 857.5328
838.9172, 857.0155
839.3993, 843.4912
839.8814, 835.6602
840.3635, 836.3594
840.8456, 840.5623
841.3278, 845.5964
841.8099, 850.2587
842.2920, 852.1860
842.7741, 851.3062
843.2562, 847.6862
843.7383, 839.4109
844.2205, 835.6483
844.7026, 842.5679
845.1847, 851.2704
845.6668, 850.0441
846.1489, 838.7466
846.6310, 832.9747
847.1132, 834.0554
847.5953, 838.9307
848.0774, 853.8926
848.5595, 866.2762
849.0416, 865.6142
849.5237, 856.8363
850.0059, 851.2980
850.4880, 851.2162
850.9701, 853.6883
851.4522, 862.5436
851.9343, 868.7048
852.4164, 864.0566
852.8986, 853.3888
853.3807, 842.1428
853.8628, 832.5622
854.3449, 828.8393
854.8270, 835.9954
855.3091, 847.0725
855.7913, 856.9963
856.2734, 863.7344
856.7555, 859.2407
857.2376, 845.7063
857.7197, 839.7300
858.2018, 850.5850
858.6840, 866.5098
859.1661, 868.7686
859.6482, 859.5493
860.1303, 852.1183
860.6124, 846.5450
861.0945, 849.1873
861.5767, 863.5737
862.0588, 879.6434
862.5409, 888.0312
863.0230, 888.8724
863.5051, 881.2004
863.9872, 857.0921
864.4694, 849.6918
864.9515, 873.0991
865.4336, 896.2610
865.9157, 901.1024
866.3978, 894.4106
866.8799, 889.8350
867.3621, 888.7675
867.8442, 883.6740
868.3263, 864.0187
868.8084, 853.2259
869.2905, 864.7762
869.7726, 883.5508
870.2548, 898.5793
870.7369, 907.8221
871.2190, 908.2706
871.7011, 893.2026
872.1832, 880.6870
872.6653, 882.4164
873.1475, 887.7010
873.6296, 884.0592
874.1117, 877.0804
874.5938, 881.7132
875.0759, 901.5548
875.5580, 919.9144
876.0402, 920.1202
876.5223, 914.1857
877.0044, 916.8065
877.4865, 925.7203
877.9686, 939.0024
878.4507, 954.1235
878.9329, 959.8781
879.4150, 948.3087
879.8971, 930.2145
880.3792, 922.5552
880.8613, 924.3972
881.3434, 931.9933
881.8256, 944.9681
882.3077, 958.5327
882.7898, 971.2115
883.2719, 981.6295
883.7540, 988.2949
884.2361, 991.4142
884.7183, 990.9636
885.2004, 984.3513
885.6825, 988.0099
886.1646, 1010.180
886.6467, 1028.125
887.1288, 1026.623
887.6110, 1013.283
888.0931, 1003.327
888.5752, 995.4712
889.0573, 996.3558
889.5394, 1014.245
890.0215, 1029.516
890.5037, 1034.312
890.9858, 1037.394
891.4679, 1047.544
891.9500, 1062.755
892.4321, 1072.935
892.9142, 1074.657
893.3964, 1075.168
893.8785, 1073.134
894.3606, 1073.306
894.8427, 1080.466
895.3248, 1090.804
895.8069, 1100.159
896.2891, 1107.307
896.7712, 1108.308
897.2533, 1093.131
897.7354, 1080.401
898.2175, 1086.237
898.6996, 1098.865
899.1818, 1102.176
899.6639, 1098.713
900.1460, 1103.027
900.6281, 1121.786
901.1102, 1142.617
901.5923, 1156.955
902.0745, 1164.174
902.5566, 1158.714
903.0387, 1146.103
903.5208, 1142.504
904.0029, 1150.395
904.4850, 1155.863
904.9672, 1146.985
905.4493, 1134.176
905.9314, 1139.561
906.4135, 1158.034
906.8956, 1166.309
907.3777, 1163.188
907.8599, 1160.443
908.3420, 1162.922
908.8241, 1168.157
909.3062, 1173.400
909.7883, 1178.637
910.2704, 1184.080
910.7526, 1189.841
911.2347, 1193.681
911.7168, 1194.314
912.1990, 1198.071
912.6811, 1211.169
913.1632, 1226.057
913.6453, 1225.867
914.1274, 1207.268
914.6096, 1194.315
915.0917, 1185.552
915.5738, 1186.745
916.0559, 1206.963
916.5380, 1227.461
917.0201, 1230.219
917.5023, 1218.772
917.9844, 1211.329
918.4665, 1208.221
918.9486, 1208.527
919.4307, 1215.418
919.9128, 1221.957
920.3950, 1224.699
920.8771, 1226.336
921.3592, 1230.943
921.8413, 1238.413
922.3234, 1242.289
922.8055, 1241.909
923.2877, 1237.541
923.7698, 1221.337
924.2519, 1208.834
924.7340, 1214.571
925.2161, 1230.294
925.6982, 1240.608
926.1804, 1242.381
926.6625, 1240.542
927.1446, 1232.163
927.6267, 1226.288
928.1088, 1229.942
928.5909, 1237.271
929.0731, 1241.520
929.5552, 1243.193
930.0373, 1247.612
930.5194, 1258.036
931.0015, 1264.376
931.4836, 1252.653
931.9658, 1239.834
932.4479, 1247.294
932.9300, 1264.241
933.4121, 1270.887
933.8942, 1264.210
934.3763, 1252.355
934.8585, 1237.891
935.3406, 1227.027
935.8227, 1231.228
936.3048, 1241.101
936.7869, 1240.062
937.2690, 1230.129
937.7512, 1220.783
938.2333, 1215.303
938.7154, 1213.043
939.1975, 1215.335
939.6796, 1217.605
940.1617, 1209.078
940.6439, 1193.749
941.1260, 1185.167
941.6081, 1183.844
942.0902, 1180.216
942.5723, 1169.724
943.0544, 1161.479
943.5366, 1169.949
944.0187, 1188.730
944.5008, 1194.914
944.9829, 1189.000
945.4650, 1171.362
945.9471, 1142.201
946.4293, 1121.114
946.9114, 1121.090
947.3935, 1131.361
947.8756, 1130.458
948.3577, 1119.355
948.8398, 1123.143
949.3220, 1142.922
949.8041, 1162.233
950.2862, 1178.002
950.7683, 1183.870
951.2504, 1172.487
951.7325, 1151.568
952.2147, 1144.220
952.6968, 1153.371
953.1789, 1154.244
953.6610, 1144.198
954.1431, 1134.456
954.6252, 1127.254
955.1074, 1125.882
955.5895, 1134.954
956.0716, 1152.348
956.5537, 1166.596
957.0358, 1176.947
957.5179, 1187.287
958.0001, 1199.295
958.4822, 1208.057
958.9643, 1211.956
959.4464, 1210.638
959.9285, 1200.554
960.4106, 1182.661
960.8928, 1180.904
961.3749, 1205.519
961.8570, 1224.354
962.3391, 1228.797
962.8212, 1235.921
963.3033, 1261.795
963.7855, 1290.136
964.2676, 1292.260
964.7497, 1264.749
965.2318, 1249.697
965.7139, 1250.133
966.1960, 1258.487
966.6782, 1285.619
967.1603, 1308.284
967.6424, 1302.967
968.1245, 1287.712
968.6066, 1300.245
969.0887, 1349.298
969.5709, 1381.316
970.0530, 1383.554
970.5351, 1382.391
971.0172, 1375.839
971.4993, 1375.025
971.9814, 1394.509
972.4636, 1424.418
972.9457, 1440.357
973.4278, 1436.634
973.9099, 1433.486
974.3920, 1431.812
974.8741, 1433.426
975.3563, 1441.414
975.8384, 1450.820
976.3205, 1457.489
976.8026, 1461.908
977.2847, 1466.146
977.7668, 1469.478
978.2490, 1475.902
978.7311, 1489.647
979.2132, 1502.654
979.6953, 1513.813
980.1774, 1520.642
980.6595, 1516.481
981.1417, 1505.484
981.6238, 1504.900
982.1059, 1525.745
982.5880, 1538.077
983.0701, 1523.760
983.5522, 1509.425
984.0344, 1513.307
984.5165, 1522.613
984.9986, 1522.363
985.4807, 1512.206
985.9628, 1498.738
986.4449, 1479.232
986.9271, 1466.944
987.4092, 1475.165
987.8913, 1482.759
988.3734, 1474.973
988.8555, 1459.239
989.3376, 1444.221
989.8198, 1431.659
990.3019, 1422.274
990.7840, 1418.209
991.2661, 1413.697
991.7482, 1405.321
992.2303, 1396.742
992.7125, 1394.903
993.1946, 1392.169
993.6767, 1370.814
994.1588, 1333.568
994.6409, 1315.350
995.1230, 1345.064
995.6052, 1367.464
996.0873, 1347.098
996.5694, 1319.962
997.0515, 1312.800
997.5336, 1317.810
998.0157, 1322.731
998.4979, 1324.492
998.9800, 1319.925
999.4621, 1300.670
999.9442, 1286.197
1000.426, 1291.321
1000.908, 1299.589
1001.391, 1296.325
1001.873, 1287.621
1002.355, 1284.634
1002.837, 1288.974
1003.319, 1294.378
1003.801, 1298.404
1004.283, 1302.664
1004.765, 1309.923
1005.247, 1315.871
1005.730, 1317.729
1006.212, 1315.482
1006.694, 1308.322
1007.176, 1296.754
1007.658, 1286.340
1008.140, 1278.488
1008.622, 1273.668
1009.104, 1273.513
1009.587, 1275.135
1010.069, 1276.606
1010.551, 1278.014
1011.033, 1281.682
1011.515, 1287.156
1011.997, 1285.847
1012.479, 1267.524
1012.961, 1251.103
1013.443, 1244.220
1013.926, 1242.996
1014.408, 1248.575
1014.890, 1255.723
1015.372, 1256.169
1015.854, 1248.980
1016.336, 1241.135
1016.818, 1232.324
1017.300, 1227.297
1017.783, 1234.195
1018.265, 1239.248
1018.747, 1229.089
1019.229, 1211.745
1019.711, 1200.044
1020.193, 1195.658
1020.675, 1193.231
1021.157, 1192.616
1021.639, 1191.460
1022.122, 1185.574
1022.604, 1182.437
1023.086, 1194.051
1023.568, 1207.955
1024.050, 1202.068
1024.532, 1176.040
1025.014, 1158.198
1025.496, 1162.770
1025.979, 1166.479
1026.461, 1161.841
1026.943, 1156.150
1027.425, 1154.730
1027.907, 1154.373
1028.389, 1147.699
1028.871, 1135.587
1029.353, 1133.609
1029.835, 1155.667
1030.318, 1171.051
1030.800, 1167.277
1031.282, 1163.524
1031.764, 1176.062
1032.246, 1189.966
1032.728, 1182.078
1033.210, 1154.646
1033.692, 1139.981
1034.174, 1148.424
1034.657, 1158.586
1035.139, 1171.075
1035.621, 1181.695
1036.103, 1190.145
1036.585, 1194.708
1037.067, 1192.433
1037.549, 1184.115
1038.031, 1175.400
1038.514, 1162.989
1038.996, 1156.420
1039.478, 1162.550
1039.960, 1165.293
1040.442, 1154.010
1040.924, 1142.146
1041.406, 1143.161
1041.888, 1154.609
1042.370, 1165.802
1042.853, 1181.815
1043.335, 1183.921
1043.817, 1158.120
1044.299, 1144.763
1044.781, 1163.681
1045.263, 1187.694
1045.745, 1194.386
1046.227, 1187.439
1046.709, 1177.195
1047.192, 1159.404
1047.674, 1157.914
1048.156, 1180.722
1048.638, 1197.165
1049.120, 1197.304
1049.602, 1194.173
1050.084, 1197.676
1050.566, 1204.450
1051.049, 1205.556
1051.531, 1199.897
1052.013, 1203.766
1052.495, 1219.904
1052.977, 1231.730
1053.459, 1236.397
1053.941, 1232.071
1054.423, 1215.206
1054.906, 1195.742
1055.388, 1191.680
1055.870, 1202.052
1056.352, 1216.061
1056.834, 1233.922
1057.316, 1241.021
1057.798, 1234.343
1058.280, 1230.995
1058.762, 1240.660
1059.245, 1252.160
1059.727, 1248.501
1060.209, 1235.574
1060.691, 1238.753
1061.173, 1254.971
1061.655, 1261.031
1062.137, 1255.659
1062.619, 1257.263
1063.101, 1273.514
1063.584, 1291.047
1064.066, 1295.378
1064.548, 1293.354
1065.030, 1297.682
1065.512, 1307.811
1065.994, 1326.239
1066.476, 1349.229
1066.958, 1359.286
1067.441, 1352.840
1067.923, 1351.375
1068.405, 1374.555
1068.887, 1401.795
1069.369, 1404.946
1069.851, 1395.445
1070.333, 1384.804
1070.815, 1379.079
1071.297, 1394.240
1071.780, 1428.373
1072.262, 1454.108
1072.744, 1454.970
1073.226, 1451.060
1073.708, 1459.272
1074.190, 1470.341
1074.672, 1475.240
1075.154, 1476.820
1075.636, 1478.964
1076.119, 1482.624
1076.601, 1488.742
1077.083, 1498.282
1077.565, 1506.212
1078.047, 1508.025
1078.529, 1509.970
1079.011, 1521.759
1079.494, 1530.300
1079.976, 1518.409
1080.458, 1493.966
1080.940, 1476.522
1081.422, 1469.754
1081.904, 1467.205
1082.386, 1477.118
1082.868, 1477.332
1083.350, 1447.129
1083.833, 1420.757
1084.315, 1428.073
1084.797, 1448.962
1085.279, 1449.895
1085.761, 1429.285
1086.243, 1413.296
1086.725, 1407.117
1087.207, 1396.552
1087.689, 1375.001
1088.172, 1358.625
1088.654, 1358.910
1089.136, 1360.298
1089.618, 1343.914
1090.100, 1314.748
1090.582, 1298.272
1091.064, 1297.417
1091.546, 1297.152
1092.029, 1297.226
1092.511, 1298.344
1092.993, 1301.485
1093.475, 1302.137
1093.957, 1296.027
1094.439, 1287.060
1094.921, 1285.722
1095.403, 1290.978
1095.885, 1280.736
1096.368, 1255.995
1096.850, 1245.495
1097.332, 1253.934
1097.814, 1258.381
1098.296, 1246.073
1098.778, 1232.487
1099.260, 1240.782
1099.742, 1259.014
1100.224, 1254.890
1100.707, 1237.013
1101.189, 1232.199
1101.671, 1239.120
1102.153, 1238.377
1102.635, 1224.445
1103.117, 1213.568
1103.599, 1220.631
1104.081, 1230.589
1104.564, 1227.703
1105.046, 1217.225
1105.528, 1199.609
1106.010, 1182.461
1106.492, 1182.764
1106.974, 1198.491
1107.456, 1205.177
1107.938, 1189.107
1108.421, 1175.969
1108.903, 1185.084
1109.385, 1194.765
1109.867, 1189.574
1110.349, 1179.338
1110.831, 1172.333
1111.313, 1169.772
1111.795, 1172.979
1112.277, 1183.375
1112.760, 1190.918
1113.242, 1195.249
1113.724, 1194.810
1114.206, 1184.951
1114.688, 1175.003
1115.170, 1167.882
1115.652, 1165.203
1116.134, 1170.849
1116.616, 1184.053
1117.099, 1192.742
1117.581, 1196.929
1118.063, 1196.223
1118.545, 1189.283
1119.027, 1181.170
1119.509, 1172.649
1119.991, 1166.874
1120.473, 1166.929
1120.956, 1170.958
1121.438, 1175.104
1121.920, 1179.210
1122.402, 1179.970
1122.884, 1177.370
1123.366, 1169.553
1123.848, 1156.840
1124.330, 1150.300
1124.813, 1156.189
1125.295, 1164.859
1125.777, 1163.121
1126.259, 1157.711
1126.741, 1164.490
1127.223, 1176.566
1127.705, 1176.292
1128.187, 1167.533
1128.669, 1169.548
1129.151, 1185.753
1129.634, 1195.718
1130.116, 1181.701
1130.598, 1169.505
1131.080, 1183.453
1131.562, 1203.119
1132.044, 1213.947
1132.526, 1216.874
1133.008, 1212.427
1133.491, 1202.825
1133.973, 1193.620
1134.455, 1185.571
1134.937, 1180.277
1135.419, 1175.667
1135.901, 1177.212
1136.383, 1196.373
1136.865, 1212.051
1137.348, 1204.965
1137.830, 1188.039
1138.312, 1179.610
1138.794, 1179.640
1139.276, 1188.772
1139.758, 1213.822
1140.240, 1225.524
1140.722, 1217.853
1141.204, 1212.000
1141.687, 1216.245
1142.169, 1221.973
1142.651, 1221.637
1143.133, 1217.171
1143.615, 1210.468
1144.097, 1203.038
1144.579, 1211.566
1145.061, 1232.918
1145.543, 1241.471
1146.026, 1234.605
1146.508, 1230.921
1146.990, 1239.360
1147.472, 1249.446
1147.954, 1250.371
1148.436, 1247.365
1148.918, 1245.948
1149.400, 1246.506
1149.883, 1251.860
1150.365, 1258.856
1150.847, 1260.122
1151.329, 1255.265
1151.811, 1251.433
1152.293, 1252.016
1152.775, 1252.805
1153.257, 1246.564
1153.740, 1246.509
1154.222, 1268.653
1154.704, 1292.452
1155.186, 1297.920
1155.668, 1290.171
1156.150, 1282.757
1156.632, 1276.004
1157.114, 1273.571
1157.596, 1278.028
1158.078, 1281.507
1158.561, 1283.891
1159.043, 1283.495
1159.525, 1278.902
1160.007, 1272.537
1160.489, 1265.877
1160.971, 1261.003
1161.453, 1264.725
1161.935, 1276.734
1162.418, 1295.779
1162.900, 1319.985
1163.382, 1326.512
1163.864, 1312.086
1164.346, 1292.535
1164.828, 1275.825
1165.310, 1267.543
1165.792, 1280.522
1166.275, 1297.328
1166.757, 1287.255
1167.239, 1268.499
1167.721, 1268.890
1168.203, 1283.789
1168.685, 1300.437
1169.167, 1315.017
1169.649, 1325.044
1170.131, 1328.979
1170.614, 1329.780
1171.096, 1321.082
1171.578, 1319.147
1172.060, 1342.440
1172.542, 1365.931
1173.024, 1365.233
1173.506, 1349.924
1173.988, 1342.641
1174.470, 1343.991
1174.953, 1338.519
1175.435, 1318.000
1175.917, 1318.296
1176.399, 1351.585
1176.881, 1369.422
1177.363, 1350.709
1177.845, 1328.504
1178.327, 1331.646
1178.810, 1350.020
1179.292, 1364.936
1179.774, 1375.877
1180.256, 1380.100
1180.738, 1378.069
1181.220, 1367.909
1181.702, 1352.853
1182.184, 1348.869
1182.667, 1361.133
1183.149, 1372.077
1183.631, 1365.507
1184.113, 1358.005
1184.595, 1367.365
1185.077, 1379.005
1185.559, 1378.852
1186.041, 1372.277
1186.523, 1364.250
1187.005, 1357.913
1187.488, 1361.554
1187.970, 1380.065
1188.452, 1392.610
1188.934, 1402.010
1189.416, 1395.163
1189.898, 1351.413
1190.380, 1322.936
1190.862, 1342.685
1191.345, 1376.201
1191.827, 1383.932
1192.309, 1372.005
1192.791, 1362.641
1193.273, 1355.837
1193.755, 1353.859
1194.237, 1356.513
1194.719, 1361.256
1195.202, 1367.074
1195.684, 1368.898
1196.166, 1364.156
1196.648, 1360.965
1197.130, 1369.376
1197.612, 1381.297
1198.094, 1388.303
1198.576, 1391.271
1199.058, 1390.637
1199.541, 1387.167
1200.023, 1381.043
1200.505, 1373.111
1200.987, 1366.277
1201.469, 1361.496
1201.951, 1357.142
1202.433, 1354.699
1202.915, 1349.914
1203.397, 1335.519
1203.880, 1326.224
1204.362, 1334.513
1204.844, 1346.057
1205.326, 1340.174
1205.808, 1322.140
1206.290, 1323.307
1206.772, 1345.886
1207.254, 1336.473
1207.737, 1294.493
1208.219, 1281.882
1208.701, 1310.413
1209.183, 1340.372
1209.665, 1350.472
1210.147, 1351.220
1210.629, 1352.728
1211.111, 1352.578
1211.594, 1345.147
1212.076, 1335.942
1212.558, 1332.870
1213.040, 1333.432
1213.522, 1330.409
1214.004, 1325.116
1214.486, 1329.454
1214.968, 1351.601
1215.450, 1361.855
1215.932, 1340.002
1216.415, 1324.741
1216.897, 1329.967
1217.379, 1337.629
1217.861, 1340.102
1218.343, 1339.249
1218.825, 1337.342
1219.307, 1333.911
1219.789, 1325.224
1220.272, 1311.472
1220.754, 1308.261
1221.236, 1315.000
1221.718, 1320.524
1222.200, 1323.121
1222.682, 1328.099
1223.164, 1337.743
1223.646, 1346.450
1224.129, 1349.865
1224.611, 1349.191
1225.093, 1341.333
1225.575, 1334.240
1226.057, 1336.638
1226.539, 1344.917
1227.021, 1356.028
1227.503, 1367.442
1227.985, 1373.025
1228.468, 1370.584
1228.950, 1370.312
1229.432, 1377.804
1229.914, 1378.253
1230.396, 1365.174
1230.878, 1357.417
1231.360, 1364.587
1231.842, 1372.136
1232.324, 1366.360
1232.807, 1353.941
1233.289, 1348.392
1233.771, 1348.802
1234.253, 1353.311
1234.735, 1359.742
1235.217, 1360.392
1235.699, 1355.310
1236.181, 1344.907
1236.664, 1331.718
1237.146, 1332.494
1237.628, 1363.241
1238.110, 1389.092
1238.592, 1382.650
1239.074, 1373.159
1239.556, 1380.268
1240.038, 1389.518
1240.521, 1383.007
1241.003, 1372.197
1241.485, 1381.080
1241.967, 1407.174
1242.449, 1420.186
1242.931, 1416.775
1243.413, 1418.655
1243.895, 1427.725
1244.377, 1426.075
1244.859, 1409.436
1245.342, 1402.712
1245.824, 1420.000
1246.306, 1442.733
1246.788, 1452.052
1247.270, 1452.379
1247.752, 1446.260
1248.234, 1438.009
1248.716, 1432.524
1249.199, 1429.773
1249.681, 1429.227
1250.163, 1430.628
1250.645, 1433.389
1251.127, 1437.203
1251.609, 1443.743
1252.091, 1457.497
1252.573, 1467.190
1253.056, 1472.264
1253.538, 1471.400
1254.020, 1461.537
1254.502, 1452.264
1254.984, 1451.306
1255.466, 1457.748
1255.948, 1473.822
1256.430, 1494.238
1256.912, 1494.723
1257.395, 1482.321
1257.877, 1478.425
1258.359, 1483.259
1258.841, 1489.008
##END=



