##NAMES=Potassic-arfvedsonite
##RRUFFID=R050516
##IDEAL CHEMISTRY=KNa_2_Fe^2+^_4_Fe^3+^Si_8_O_22_(OH)_2_
##LOCALITY=Red Wine complex, Labrador, Newfoundland, Canada
##OWNER=RRUFF
##SOURCE=Frank Hawthorne
##DESCRIPTION=Black fragments, structure is published in Can Min 14 (1976) 346-356
##STATUS=The identification of this mineral is confirmed by single-crystal X-ray diffraction and chemical analysis.
##URL=rruff.info/R050516
##MEASURED CHEMISTRY=(K_0.72_Na_0.25_[box]_0.03_)Na_2.00_(Fe^2+^_3.75_Ca_0.15_Mg_0.10_)_Î£=4_(Fe^3+^_0.55_Al_0.30_Ti_0.10_Mn_0.05_)Si_8_O_22_(OH)_2_
90.92609, 0.0000000E+00
91.40820, 17.92971
91.89032, 18.23826
92.37244, 18.11821
92.85455, 17.62764
93.33667, 17.11440
93.81879, 16.83333
94.30090, 16.72865
94.78302, 16.63408
95.26514, 16.54682
95.74725, 16.42376
96.22937, 16.11895
96.71149, 15.61863
97.19360, 15.12342
97.67572, 14.81349
98.15784, 14.69247
98.63995, 14.67500
99.12207, 14.79381
99.60419, 15.01956
100.0863, 15.11992
100.5684, 15.11486
101.0505, 14.94269
101.5327, 14.29868
102.0148, 12.83871
102.4969, 12.10889
102.9790, 12.95813
103.4611, 15.89013
103.9432, 17.50341
104.4253, 17.28666
104.9075, 16.01562
105.3896, 15.23550
105.8717, 15.18620
106.3538, 15.29298
106.8359, 15.34052
107.3180, 15.25734
107.8002, 15.23298
108.2823, 15.16435
108.7644, 15.13360
109.2465, 15.44654
109.7286, 16.67481
110.2107, 17.83109
110.6929, 18.51031
111.1750, 18.19976
111.6571, 17.96075
112.1392, 17.62781
112.6213, 17.30166
113.1034, 17.70026
113.5856, 19.69416
114.0677, 22.06110
114.5498, 23.91221
115.0319, 24.40121
115.5140, 25.00133
115.9961, 26.14386
116.4783, 27.83542
116.9604, 29.72876
117.4425, 31.76131
117.9246, 33.93378
118.4067, 36.22675
118.8888, 38.67706
119.3710, 41.23589
119.8531, 43.81972
120.3352, 46.38950
120.8173, 49.22402
121.2994, 52.84248
121.7815, 56.80409
122.2637, 60.35693
122.7458, 62.89418
123.2279, 64.93534
123.7100, 66.98509
124.1921, 69.13343
124.6742, 71.13575
125.1564, 72.69191
125.6385, 73.89397
126.1206, 75.03835
126.6027, 75.64561
127.0848, 76.40604
127.5669, 78.70930
128.0491, 83.11091
128.5312, 88.39282
129.0133, 92.92329
129.4954, 96.73058
129.9775, 100.4551
130.4596, 104.6919
130.9418, 109.2325
131.4239, 113.3508
131.9060, 116.7062
132.3881, 119.7640
132.8702, 123.7666
133.3523, 128.8131
133.8345, 133.7402
134.3166, 137.3747
134.7987, 139.7561
135.2808, 142.2510
135.7629, 145.1826
136.2450, 148.5063
136.7272, 152.0529
137.2093, 155.9905
137.6914, 159.7015
138.1735, 162.5116
138.6556, 164.2966
139.1377, 165.7481
139.6199, 167.1784
140.1020, 168.5723
140.5841, 168.8156
141.0662, 167.4598
141.5483, 165.5540
142.0304, 164.3030
142.5126, 163.6135
142.9947, 163.7597
143.4768, 164.4628
143.9589, 165.5120
144.4410, 166.6269
144.9231, 167.7011
145.4053, 168.9081
145.8874, 170.5813
146.3695, 173.0365
146.8516, 175.5025
147.3337, 177.8167
147.8158, 180.3855
148.2980, 181.8873
148.7801, 181.4704
149.2622, 180.1647
149.7443, 180.0509
150.2264, 182.3041
150.7085, 184.6729
151.1907, 186.3422
151.6728, 186.5820
152.1549, 187.4146
152.6370, 189.2595
153.1191, 191.7382
153.6012, 193.8764
154.0834, 195.6052
154.5655, 196.9721
155.0476, 198.0417
155.5297, 199.1978
156.0118, 199.5177
156.4939, 198.3625
156.9761, 196.1592
157.4582, 194.3632
157.9403, 193.1252
158.4224, 192.4819
158.9045, 192.4684
159.3866, 193.5690
159.8688, 194.7372
160.3509, 195.4557
160.8330, 195.9051
161.3151, 196.9341
161.7972, 199.3051
162.2793, 202.1299
162.7615, 204.7408
163.2436, 207.7151
163.7257, 209.7286
164.2078, 209.7418
164.6899, 208.0241
165.1720, 206.4664
165.6541, 206.1619
166.1363, 206.3938
166.6184, 206.4548
167.1005, 206.0588
167.5826, 205.4575
168.0647, 204.7580
168.5468, 203.9646
169.0290, 203.1359
169.5111, 202.2393
169.9932, 201.3441
170.4753, 200.5392
170.9574, 200.5203
171.4395, 200.1982
171.9217, 198.2476
172.4038, 194.6774
172.8859, 191.3014
173.3680, 189.4626
173.8501, 188.7790
174.3322, 188.5405
174.8144, 188.9382
175.2965, 189.4082
175.7786, 189.1346
176.2607, 188.0826
176.7428, 186.9573
177.2249, 186.2141
177.7071, 185.8710
178.1892, 185.9560
178.6713, 187.1560
179.1534, 188.6031
179.6355, 188.6858
180.1176, 187.2519
180.5998, 185.4291
181.0819, 184.2295
181.5640, 183.5909
182.0461, 183.2551
182.5282, 183.1779
183.0103, 183.3112
183.4925, 183.5381
183.9746, 183.8417
184.4567, 184.2977
184.9388, 185.2479
185.4209, 186.5735
185.9030, 187.4894
186.3852, 187.4346
186.8673, 186.6510
187.3494, 185.9640
187.8315, 185.4238
188.3136, 184.9408
188.7957, 184.1662
189.2779, 183.1604
189.7600, 182.6702
190.2421, 183.5323
190.7242, 185.4194
191.2063, 186.3291
191.6884, 185.9536
192.1706, 185.1276
192.6527, 185.2090
193.1348, 186.2106
193.6169, 187.2471
194.0990, 187.9319
194.5811, 188.2679
195.0633, 188.3291
195.5454, 188.0329
196.0275, 187.6220
196.5096, 187.5589
196.9917, 187.8615
197.4738, 188.2854
197.9560, 188.9491
198.4381, 189.8584
198.9202, 189.8204
199.4023, 188.5181
199.8844, 186.6318
200.3665, 185.5782
200.8487, 185.4747
201.3308, 185.4712
201.8129, 185.1364
202.2950, 184.4471
202.7771, 183.7035
203.2592, 182.8006
203.7414, 181.9639
204.2235, 181.8890
204.7056, 182.8698
205.1877, 183.4743
205.6698, 182.6744
206.1519, 180.1142
206.6341, 178.5089
207.1162, 178.1480
207.5983, 178.6184
208.0804, 179.0628
208.5625, 179.4754
209.0446, 179.8634
209.5268, 180.3190
210.0089, 180.9641
210.4910, 181.0347
210.9731, 180.2802
211.4552, 179.1009
211.9373, 178.4884
212.4195, 178.6071
212.9016, 178.8800
213.3837, 178.9649
213.8658, 178.6776
214.3479, 178.9438
214.8300, 180.0119
215.3121, 181.5117
215.7943, 182.5022
216.2764, 182.7649
216.7585, 182.9558
217.2406, 183.4526
217.7227, 184.5132
218.2048, 184.9903
218.6870, 184.6808
219.1691, 183.8771
219.6512, 183.1914
220.1333, 182.4774
220.6154, 182.1483
221.0975, 182.5256
221.5797, 184.0938
222.0618, 184.9105
222.5439, 184.7023
223.0260, 183.8765
223.5081, 183.3226
223.9902, 183.1187
224.4724, 183.0676
224.9545, 183.0739
225.4366, 183.0637
225.9187, 183.3856
226.4008, 184.3461
226.8829, 185.5019
227.3651, 185.8392
227.8472, 184.8627
228.3293, 183.8976
228.8114, 183.5295
229.2935, 184.0981
229.7757, 184.1731
230.2578, 183.4539
230.7399, 182.3824
231.2220, 181.8490
231.7041, 182.1444
232.1862, 182.5132
232.6684, 182.6883
233.1505, 182.6087
233.6326, 182.5329
234.1147, 182.5170
234.5968, 182.4737
235.0789, 182.2190
235.5611, 181.5801
236.0432, 181.0166
236.5253, 180.7263
237.0074, 180.8645
237.4895, 180.7178
237.9716, 180.1681
238.4538, 179.4078
238.9359, 178.7463
239.4180, 178.2264
239.9001, 177.7261
240.3822, 177.2039
240.8643, 176.6548
241.3465, 176.1208
241.8286, 175.5406
242.3107, 175.0173
242.7928, 174.7831
243.2749, 175.3115
243.7570, 175.2905
244.2392, 174.1366
244.7213, 171.5239
245.2034, 169.7801
245.6855, 169.2806
246.1676, 169.3208
246.6497, 169.0457
247.1319, 168.4021
247.6140, 167.5354
248.0961, 166.3885
248.5782, 164.8963
249.0603, 163.7221
249.5424, 162.9337
250.0246, 162.3908
250.5067, 161.9741
250.9888, 161.8494
251.4709, 161.5164
251.9530, 160.7863
252.4351, 159.6218
252.9173, 158.6769
253.3994, 157.9254
253.8815, 157.3942
254.3636, 157.1739
254.8457, 157.5115
255.3278, 157.6051
255.8100, 157.2580
256.2921, 156.4776
256.7742, 155.6935
257.2563, 154.8524
257.7384, 154.0799
258.2205, 153.5275
258.7026, 153.3223
259.1848, 153.0094
259.6669, 152.5007
260.1490, 151.8171
260.6311, 151.1552
261.1132, 150.5024
261.5953, 149.8996
262.0775, 149.4235
262.5596, 149.1723
263.0417, 148.7226
263.5238, 147.8858
264.0059, 146.8090
264.4880, 146.2416
264.9702, 146.4194
265.4523, 146.6498
265.9344, 146.4912
266.4165, 145.8622
266.8986, 145.0861
267.3807, 144.0203
267.8629, 142.8787
268.3450, 142.4749
268.8271, 143.1416
269.3092, 143.7198
269.7913, 143.4693
270.2734, 142.1585
270.7556, 141.2029
271.2377, 140.7726
271.7198, 140.6434
272.2019, 140.2953
272.6840, 139.6999
273.1661, 138.9940
273.6483, 138.1319
274.1304, 137.0430
274.6125, 136.4389
275.0946, 136.4564
275.5767, 136.7948
276.0588, 136.9566
276.5410, 136.9284
277.0231, 136.7724
277.5052, 136.4532
277.9873, 135.9615
278.4694, 135.6141
278.9515, 135.4167
279.4337, 135.3421
279.9158, 135.4633
280.3979, 135.8245
280.8800, 135.9013
281.3621, 135.3778
281.8442, 134.3386
282.3264, 133.5996
282.8085, 133.1973
283.2906, 132.9795
283.7727, 132.7513
284.2548, 132.5125
284.7369, 132.4677
285.2191, 132.7648
285.7012, 133.2936
286.1833, 133.6566
286.6654, 133.8649
287.1475, 133.8379
287.6296, 133.2796
288.1118, 132.2692
288.5939, 131.6916
289.0760, 131.8732
289.5581, 132.5211
290.0402, 132.9285
290.5223, 133.0904
291.0045, 133.1742
291.4866, 133.1911
291.9687, 133.2027
292.4508, 133.5886
292.9329, 134.6020
293.4150, 135.7305
293.8972, 136.0258
294.3793, 135.5462
294.8614, 134.9554
295.3435, 134.5488
295.8256, 134.3694
296.3077, 134.6396
296.7899, 135.4965
297.2720, 136.4782
297.7541, 136.9576
298.2362, 137.0023
298.7183, 136.9186
299.2004, 136.7475
299.6826, 136.5874
300.1647, 136.6132
300.6468, 136.8386
301.1289, 137.2353
301.6110, 137.9671
302.0931, 138.8692
302.5753, 139.5317
303.0574, 139.5092
303.5395, 139.2431
304.0216, 139.3642
304.5037, 139.8955
304.9858, 140.4273
305.4680, 140.5141
305.9501, 140.3823
306.4322, 140.4199
306.9143, 140.8899
307.3964, 141.5044
307.8785, 142.1216
308.3607, 142.7142
308.8428, 143.0476
309.3249, 142.4778
309.8070, 141.7336
310.2891, 141.7217
310.7712, 143.1905
311.2534, 144.8219
311.7355, 145.7127
312.2176, 146.0003
312.6997, 146.1663
313.1818, 146.3241
313.6639, 146.5434
314.1461, 146.9128
314.6282, 147.5458
315.1103, 148.1135
315.5924, 148.4499
316.0745, 148.6018
316.5566, 148.6711
317.0388, 148.6036
317.5209, 148.5344
318.0030, 148.5977
318.4851, 148.8931
318.9672, 148.9764
319.4493, 148.3549
319.9315, 147.5254
320.4136, 147.1401
320.8957, 148.0869
321.3778, 148.8769
321.8599, 148.9002
322.3420, 148.0633
322.8242, 147.1991
323.3063, 146.1619
323.7884, 145.3243
324.2705, 145.0111
324.7526, 146.0949
325.2347, 146.8394
325.7169, 146.7504
326.1990, 145.8954
326.6811, 145.1309
327.1632, 144.6187
327.6453, 144.1422
328.1274, 143.5810
328.6096, 142.6327
329.0917, 141.9705
329.5738, 141.7374
330.0559, 141.8177
330.5380, 141.8403
331.0201, 141.7766
331.5023, 141.6872
331.9844, 141.6155
332.4665, 141.6543
332.9486, 141.4649
333.4307, 140.8936
333.9128, 140.1739
334.3950, 139.7011
334.8771, 139.4822
335.3592, 139.5011
335.8413, 139.8766
336.3234, 140.6950
336.8055, 140.9355
337.2877, 140.3021
337.7698, 139.4967
338.2519, 139.3352
338.7340, 139.9855
339.2161, 140.6270
339.6982, 141.0533
340.1803, 141.3211
340.6624, 141.7963
341.1446, 142.5544
341.6267, 143.2895
342.1088, 143.6903
342.5909, 143.7336
343.0730, 144.0746
343.5551, 144.8901
344.0373, 145.9417
344.5194, 146.6943
345.0015, 147.1501
345.4836, 147.3894
345.9657, 147.2739
346.4478, 146.9184
346.9300, 147.0242
347.4121, 147.7145
347.8942, 148.5743
348.3763, 149.0274
348.8584, 149.1366
349.3405, 149.2791
349.8227, 149.6743
350.3048, 150.2120
350.7869, 150.6786
351.2690, 151.0745
351.7511, 151.4000
352.2332, 151.8410
352.7154, 152.2031
353.1975, 152.0343
353.6796, 150.9302
354.1617, 149.5017
354.6438, 148.2989
355.1259, 147.3289
355.6081, 146.6409
356.0902, 146.5463
356.5723, 146.6259
357.0544, 146.3683
357.5365, 145.5717
358.0186, 144.6604
358.5008, 143.8822
358.9829, 143.2030
359.4650, 142.5505
359.9471, 142.0740
360.4292, 141.4828
360.9113, 140.4342
361.3935, 138.8009
361.8756, 137.5212
362.3577, 137.3479
362.8398, 137.6086
363.3219, 137.5390
363.8040, 136.6334
364.2862, 135.6594
364.7683, 134.7806
365.2504, 134.0102
365.7325, 133.4829
366.2146, 133.3691
366.6967, 133.4080
367.1789, 133.4375
367.6610, 133.7819
368.1431, 133.7096
368.6252, 132.8648
369.1073, 131.5213
369.5894, 130.5588
370.0716, 129.9669
370.5537, 129.7602
371.0358, 130.0396
371.5179, 131.0998
372.0000, 131.7409
372.4821, 131.8309
372.9643, 131.5861
373.4464, 131.2445
373.9285, 130.6653
374.4106, 130.3130
374.8927, 130.4518
375.3748, 131.0420
375.8570, 130.8734
376.3391, 129.5924
376.8212, 128.2851
377.3033, 127.9539
377.7854, 128.7526
378.2675, 129.3970
378.7497, 129.6898
379.2318, 129.7566
379.7139, 130.0110
380.1960, 130.4902
380.6781, 130.7054
381.1602, 130.3217
381.6424, 129.4027
382.1245, 128.2245
382.6066, 126.6969
383.0887, 125.3104
383.5708, 124.8169
384.0529, 125.0609
384.5351, 125.2688
385.0172, 125.1423
385.4993, 124.7807
385.9814, 124.2550
386.4635, 123.5809
386.9456, 123.0043
387.4278, 122.8151
387.9099, 122.8417
388.3920, 122.8385
388.8741, 122.8392
389.3562, 122.6197
389.8383, 121.7558
390.3205, 120.4704
390.8026, 119.4159
391.2847, 119.1927
391.7668, 119.1682
392.2489, 118.9036
392.7310, 118.3546
393.2132, 117.5062
393.6953, 115.9334
394.1774, 114.2014
394.6595, 112.9851
395.1416, 112.8510
395.6237, 112.9376
396.1059, 113.0973
396.5880, 113.2983
397.0701, 113.2010
397.5522, 112.5294
398.0343, 111.6800
398.5164, 110.8851
398.9986, 110.1013
399.4807, 109.4576
399.9628, 108.9790
400.4449, 108.6404
400.9270, 108.4046
401.4091, 108.5282
401.8913, 108.4199
402.3734, 107.7743
402.8555, 106.4079
403.3376, 105.5735
403.8197, 105.4758
404.3018, 105.6692
404.7840, 105.6743
405.2661, 105.4262
405.7482, 105.2149
406.2303, 105.1118
406.7124, 105.0814
407.1945, 104.9774
407.6767, 104.7974
408.1588, 104.5479
408.6409, 104.0182
409.1230, 103.2719
409.6051, 103.3987
410.0872, 104.7042
410.5694, 106.2642
411.0515, 106.4795
411.5336, 105.5670
412.0157, 104.8649
412.4978, 105.3257
412.9799, 106.2921
413.4621, 106.3201
413.9442, 105.4304
414.4263, 104.4785
414.9084, 104.0855
415.3905, 104.1075
415.8727, 104.3240
416.3548, 104.7456
416.8369, 105.2366
417.3190, 105.7087
417.8011, 106.1610
418.2832, 106.6000
418.7654, 107.2859
419.2475, 107.7743
419.7296, 107.6115
420.2117, 106.6215
420.6938, 105.8115
421.1759, 105.8277
421.6581, 106.1269
422.1402, 106.1332
422.6223, 105.2394
423.1044, 104.5349
423.5865, 104.2834
424.0686, 104.4613
424.5508, 104.8480
425.0329, 105.9222
425.5150, 106.7962
425.9971, 107.0267
426.4792, 106.1516
426.9613, 105.6166
427.4435, 105.7203
427.9256, 106.0043
428.4077, 105.6690
428.8898, 104.3251
429.3719, 103.2183
429.8540, 102.6878
430.3362, 102.7039
430.8183, 102.9147
431.3004, 103.4201
431.7825, 103.8292
432.2646, 103.8110
432.7467, 103.3667
433.2289, 102.6651
433.7110, 101.6015
434.1931, 100.5343
434.6752, 100.2046
435.1573, 100.5602
435.6394, 101.0384
436.1216, 101.5355
436.6036, 101.9156
437.0858, 101.7246
437.5679, 100.9383
438.0500, 100.1968
438.5321, 100.1847
439.0142, 100.5780
439.4963, 100.8195
439.9785, 100.6542
440.4606, 100.4118
440.9427, 100.4652
441.4248, 100.6804
441.9069, 100.6549
442.3890, 100.1115
442.8712, 99.32534
443.3533, 98.30266
443.8354, 96.88760
444.3175, 96.06385
444.7996, 96.61816
445.2817, 97.74362
445.7639, 98.60126
446.2460, 98.89368
446.7281, 99.07317
447.2102, 99.28724
447.6923, 99.48975
448.1744, 99.33585
448.6566, 98.35706
449.1387, 97.50991
449.6208, 97.28352
450.1029, 98.00564
450.5850, 98.32790
451.0671, 98.07730
451.5493, 97.60126
452.0314, 97.39864
452.5135, 97.52782
452.9956, 97.66619
453.4777, 97.63304
453.9598, 97.55851
454.4420, 98.26220
454.9241, 99.85623
455.4062, 101.1512
455.8883, 100.8560
456.3704, 99.39305
456.8525, 98.75520
457.3347, 99.27570
457.8168, 100.2253
458.2989, 100.9284
458.7810, 101.3551
459.2631, 101.3951
459.7452, 100.6272
460.2274, 99.67266
460.7095, 99.24777
461.1916, 99.29663
461.6737, 99.44387
462.1558, 99.51164
462.6379, 99.54503
463.1201, 99.60989
463.6022, 99.79851
464.0843, 99.82862
464.5664, 99.35460
465.0485, 98.69243
465.5306, 98.34677
466.0128, 98.76501
466.4949, 99.18677
466.9770, 99.39807
467.4591, 99.38668
467.9412, 99.30846
468.4233, 99.12656
468.9055, 98.91626
469.3876, 98.71420
469.8697, 98.50473
470.3518, 98.33008
470.8339, 98.13843
471.3160, 98.02232
471.7982, 98.19766
472.2803, 98.74577
472.7624, 99.26762
473.2445, 99.64677
473.7266, 99.88792
474.2087, 99.93542
474.6909, 99.75696
475.1730, 99.64900
475.6551, 100.0509
476.1372, 100.7814
476.6193, 101.0288
477.1014, 100.5818
477.5836, 99.90022
478.0657, 99.46239
478.5478, 99.24007
479.0299, 99.15812
479.5120, 99.34251
479.9941, 99.54143
480.4763, 99.36341
480.9584, 98.87008
481.4405, 98.69186
481.9226, 99.43587
482.4047, 100.4874
482.8868, 101.3964
483.3690, 102.1747
483.8511, 102.5750
484.3332, 102.1904
484.8153, 101.4504
485.2974, 101.0468
485.7795, 101.3947
486.2617, 101.7595
486.7438, 102.0043
487.2259, 102.1301
487.7080, 102.1520
488.1901, 101.8463
488.6722, 101.7268
489.1544, 102.2358
489.6365, 103.6890
490.1186, 104.4664
490.6007, 104.3307
491.0828, 103.7832
491.5649, 103.6327
492.0471, 103.9014
492.5292, 104.0895
493.0113, 104.0207
493.4934, 103.7636
493.9755, 103.4617
494.4576, 103.1198
494.9398, 102.8049
495.4219, 102.4029
495.9040, 102.1006
496.3861, 102.2793
496.8682, 103.0194
497.3503, 104.0312
497.8325, 105.5488
498.3146, 107.0846
498.7967, 107.9127
499.2788, 107.1561
499.7609, 106.1681
500.2430, 105.4842
500.7252, 105.1019
501.2073, 104.9710
501.6894, 105.2903
502.1715, 105.6918
502.6536, 105.9798
503.1357, 106.0262
503.6179, 106.2938
504.1000, 107.0748
504.5821, 107.8946
505.0642, 108.2555
505.5463, 107.9247
506.0284, 107.6229
506.5106, 107.3649
506.9927, 107.2346
507.4748, 107.6266
507.9569, 108.6690
508.4390, 109.6043
508.9211, 109.9709
509.4033, 109.8474
509.8854, 109.8832
510.3675, 110.0841
510.8496, 110.3935
511.3317, 110.8331
511.8138, 111.3415
512.2960, 111.7189
512.7781, 111.8583
513.2602, 112.0028
513.7423, 112.5123
514.2244, 113.2345
514.7065, 113.7975
515.1887, 113.8429
515.6708, 113.8129
516.1529, 113.9612
516.6350, 114.2994
517.1171, 114.7854
517.5992, 115.5607
518.0814, 116.3698
518.5635, 117.0382
519.0456, 117.4173
519.5277, 117.8697
520.0098, 118.4815
520.4919, 119.1433
520.9741, 119.6789
521.4562, 119.9829
521.9383, 120.3634
522.4204, 120.9134
522.9025, 121.5997
523.3846, 122.2158
523.8668, 122.7464
524.3489, 123.2493
524.8310, 123.7706
525.3131, 124.3052
525.7952, 124.7773
526.2773, 125.1754
526.7595, 125.5742
527.2416, 126.1514
527.7237, 126.7949
528.2058, 127.2114
528.6879, 127.2312
529.1700, 127.1036
529.6522, 126.9491
530.1343, 126.8297
530.6164, 126.9186
531.0985, 127.7686
531.5806, 128.4900
532.0627, 128.3115
532.5449, 127.1124
533.0270, 126.3595
533.5091, 126.8938
533.9912, 127.7486
534.4733, 128.2349
534.9554, 128.0208
535.4376, 127.8129
535.9197, 127.4576
536.4018, 127.1812
536.8839, 127.4693
537.3660, 128.6147
537.8481, 129.5311
538.3303, 129.8836
538.8124, 129.7752
539.2945, 129.7788
539.7766, 129.9111
540.2587, 130.0147
540.7408, 129.9435
541.2230, 129.7508
541.7051, 129.6701
542.1872, 129.7380
542.6693, 129.7585
543.1514, 129.4184
543.6335, 128.9121
544.1157, 128.5723
544.5978, 128.4200
545.0799, 128.5828
545.5620, 129.5551
546.0441, 130.9333
546.5262, 131.7186
547.0084, 130.9740
547.4905, 130.0677
547.9726, 129.4514
548.4547, 129.1477
548.9368, 129.3372
549.4189, 130.6554
549.9011, 131.9573
550.3832, 132.5716
550.8653, 132.1940
551.3474, 131.7924
551.8295, 131.2759
552.3116, 130.8597
552.7938, 130.9099
553.2759, 131.4650
553.7580, 132.1296
554.2401, 132.8768
554.7222, 133.6022
555.2043, 134.0195
555.6865, 134.1430
556.1686, 134.1612
556.6507, 134.3203
557.1328, 134.3964
557.6149, 133.8016
558.0970, 132.4989
558.5792, 131.6173
559.0613, 132.4400
559.5434, 133.8601
560.0255, 134.7348
560.5076, 134.4769
560.9897, 134.2167
561.4719, 134.3035
561.9540, 134.6229
562.4361, 134.9813
562.9182, 135.3044
563.4003, 135.7309
563.8824, 136.4140
564.3646, 137.2680
564.8467, 137.7131
565.3288, 137.6659
565.8109, 137.3725
566.2930, 136.7824
566.7751, 135.8646
567.2573, 135.7050
567.7394, 136.4251
568.2215, 137.3323
568.7036, 137.7240
569.1857, 137.6987
569.6678, 137.6063
570.1500, 137.4670
570.6321, 137.4161
571.1142, 137.7640
571.5963, 138.3210
572.0784, 138.6581
572.5605, 138.5291
573.0427, 138.1774
573.5248, 137.6041
574.0069, 136.8781
574.4890, 136.3698
574.9711, 136.4926
575.4532, 136.6313
575.9354, 136.4918
576.4175, 136.0244
576.8996, 135.3819
577.3817, 134.3310
577.8638, 133.3413
578.3459, 132.9198
578.8281, 133.2999
579.3102, 133.3045
579.7923, 132.7587
580.2744, 131.8510
580.7565, 130.8162
581.2386, 129.6735
581.7208, 128.7973
582.2029, 128.5089
582.6850, 128.4404
583.1671, 127.8183
583.6492, 126.7387
584.1313, 125.7748
584.6134, 125.3194
585.0955, 125.1224
585.5776, 125.0119
586.0598, 124.9881
586.5419, 124.8347
587.0240, 124.4316
587.5061, 123.8776
587.9882, 123.2502
588.4703, 122.3958
588.9525, 121.7044
589.4346, 121.3190
589.9167, 121.0458
590.3988, 120.5879
590.8809, 119.9600
591.3630, 119.0852
591.8452, 117.8114
592.3273, 116.3194
592.8094, 115.3664
593.2915, 114.9805
593.7736, 114.6726
594.2557, 114.1604
594.7379, 113.5137
595.2200, 112.9284
595.7021, 112.4132
596.1842, 111.8235
596.6663, 110.8680
597.1484, 109.8492
597.6306, 109.2150
598.1127, 109.2705
598.5948, 109.1023
599.0769, 108.0657
599.5590, 106.6408
600.0411, 105.4259
600.5233, 104.3691
601.0054, 103.7679
601.4875, 103.9595
601.9696, 104.6315
602.4517, 104.8362
602.9338, 104.4400
603.4160, 103.8668
603.8981, 103.2500
604.3802, 102.5796
604.8623, 101.6771
605.3444, 100.4742
605.8265, 99.52077
606.3087, 99.46410
606.7908, 99.97323
607.2729, 100.1475
607.7550, 99.90337
608.2371, 99.34989
608.7192, 98.17049
609.2014, 96.87573
609.6835, 96.22730
610.1656, 97.00729
610.6477, 97.53506
611.1298, 96.77026
611.6119, 95.31372
612.0941, 94.22599
612.5762, 93.99860
613.0583, 93.85629
613.5404, 93.67372
614.0225, 93.45202
614.5046, 93.16568
614.9868, 92.78260
615.4689, 92.41508
615.9510, 92.15528
616.4331, 91.98985
616.9152, 91.53631
617.3973, 90.75236
617.8795, 90.06297
618.3616, 89.92594
618.8437, 90.17477
619.3258, 90.47914
619.8079, 90.83920
620.2900, 91.01088
620.7722, 90.59126
621.2543, 89.90934
621.7364, 89.43459
622.2185, 89.45806
622.7006, 89.52711
623.1827, 89.43147
623.6649, 89.27568
624.1470, 89.31324
624.6291, 89.85469
625.1112, 90.25156
625.5933, 90.44679
626.0754, 90.40495
626.5576, 89.66579
627.0397, 87.90676
627.5218, 86.50163
628.0039, 86.33909
628.4860, 87.28252
628.9681, 88.38722
629.4503, 89.70661
629.9324, 90.44237
630.4145, 89.22166
630.8966, 87.11779
631.3787, 86.04932
631.8608, 86.50211
632.3430, 87.41134
632.8251, 88.56822
633.3072, 89.58266
633.7893, 89.99184
634.2714, 88.70143
634.7535, 87.92149
635.2357, 88.61636
635.7178, 90.06660
636.1999, 90.59061
636.6820, 89.56233
637.1641, 88.74101
637.6462, 88.55407
638.1284, 88.93645
638.6105, 89.72627
639.0926, 90.99960
639.5747, 91.99651
640.0568, 92.08252
640.5389, 91.55446
641.0211, 91.29037
641.5032, 91.29830
641.9853, 91.28159
642.4674, 90.75871
642.9495, 90.21434
643.4316, 90.30393
643.9138, 91.33072
644.3959, 92.17493
644.8780, 92.14137
645.3601, 91.78853
645.8422, 91.66666
646.3243, 91.84407
646.8065, 92.28503
647.2886, 93.15697
647.7707, 94.20090
648.2528, 95.00933
648.7349, 95.59428
649.2170, 95.81743
649.6992, 95.45260
650.1813, 94.87660
650.6634, 95.15897
651.1455, 96.23104
651.6276, 97.39046
652.1097, 98.27173
652.5919, 99.02019
653.0740, 99.81879
653.5561, 100.6678
654.0382, 101.5738
654.5203, 102.6531
655.0024, 103.6916
655.4846, 104.4559
655.9667, 104.7768
656.4488, 105.5284
656.9309, 107.0869
657.4130, 108.8994
657.8951, 110.6376
658.3773, 112.2762
658.8594, 113.8953
659.3415, 115.5272
659.8236, 117.0840
660.3057, 118.3544
660.7878, 119.3698
661.2700, 120.5769
661.7521, 122.0463
662.2342, 123.8070
662.7163, 126.0435
663.1984, 128.6235
663.6805, 131.2442
664.1627, 133.7275
664.6448, 136.2160
665.1269, 138.8463
665.6090, 141.5723
666.0911, 144.1536
666.5732, 146.3515
667.0554, 148.6149
667.5375, 151.2136
668.0196, 154.1459
668.5017, 156.4684
668.9838, 157.8852
669.4659, 159.4181
669.9481, 162.0544
670.4302, 165.6362
670.9123, 167.7428
671.3944, 168.2823
671.8765, 168.0968
672.3586, 167.9781
672.8408, 167.6750
673.3229, 166.7072
673.8050, 164.9402
674.2871, 162.7724
674.7692, 160.4870
675.2513, 157.9597
675.7335, 155.0335
676.2156, 151.3574
676.6977, 147.7789
677.1798, 144.2917
677.6619, 141.0145
678.1440, 138.1469
678.6262, 135.9265
679.1083, 133.4059
679.5904, 130.1394
680.0725, 126.6587
680.5546, 124.3179
681.0367, 123.0516
681.5189, 121.7241
682.0010, 119.6617
682.4831, 117.3071
682.9652, 115.2228
683.4473, 113.4228
683.9294, 111.7925
684.4116, 110.3135
684.8937, 108.9815
685.3758, 107.7588
685.8579, 106.6518
686.3400, 105.7601
686.8221, 105.5183
687.3043, 105.1309
687.7864, 104.1250
688.2685, 102.2936
688.7506, 101.0085
689.2327, 100.3335
689.7148, 100.0077
690.1970, 99.92432
690.6791, 100.0211
691.1612, 99.85022
691.6433, 99.31657
692.1254, 98.78101
692.6075, 98.71812
693.0897, 98.86468
693.5718, 98.78899
694.0539, 98.25303
694.5360, 97.70090
695.0181, 97.28019
695.5002, 96.97995
695.9824, 96.77390
696.4645, 96.78217
696.9466, 96.70711
697.4287, 96.41336
697.9108, 96.05936
698.3929, 96.13761
698.8751, 96.76566
699.3572, 97.11387
699.8393, 96.77245
700.3214, 96.08714
700.8035, 96.06331
701.2856, 96.55098
701.7678, 96.67960
702.2499, 95.43797
702.7320, 93.96745
703.2141, 93.48270
703.6962, 93.85857
704.1783, 93.96365
704.6605, 92.88718
705.1426, 91.86014
705.6247, 91.57499
706.1068, 92.12948
706.5889, 92.52158
707.0710, 92.63833
707.5532, 92.78059
708.0353, 93.28001
708.5174, 94.13721
708.9995, 94.38895
709.4816, 93.98093
709.9637, 93.21597
710.4459, 92.04213
710.9280, 90.80250
711.4101, 90.23820
711.8922, 90.57014
712.3743, 91.03713
712.8564, 91.21012
713.3386, 91.23661
713.8207, 91.26791
714.3028, 91.18242
714.7849, 91.35011
715.2670, 92.14455
715.7491, 92.97346
716.2313, 92.98933
716.7134, 91.94532
717.1955, 91.08497
717.6776, 90.56187
718.1597, 90.38882
718.6418, 90.84339
719.1240, 91.74792
719.6061, 92.24354
720.0882, 91.76614
720.5703, 91.03606
721.0524, 90.65173
721.5345, 90.59020
722.0167, 90.79667
722.4988, 91.81279
722.9809, 92.51212
723.4630, 92.16383
723.9451, 91.05164
724.4272, 90.65888
724.9094, 91.42049
725.3915, 92.06937
725.8736, 92.11260
726.3557, 91.67330
726.8378, 91.39463
727.3199, 91.27532
727.8021, 91.28956
728.2842, 91.60242
728.7663, 91.96004
729.2484, 91.90694
729.7305, 91.45723
730.2126, 90.90686
730.6948, 90.15767
731.1769, 89.56491
731.6590, 89.47678
732.1411, 90.04012
732.6232, 90.30466
733.1053, 89.98263
733.5875, 89.60735
734.0696, 89.51762
734.5517, 89.76493
735.0338, 89.87289
735.5159, 89.81059
735.9980, 89.75584
736.4802, 90.14548
736.9623, 90.66688
737.4444, 90.22556
737.9265, 88.54007
738.4086, 87.10255
738.8907, 87.40295
739.3729, 88.39256
739.8550, 88.92476
740.3371, 88.49923
740.8192, 88.14698
741.3013, 88.14482
741.7834, 88.23311
742.2656, 88.15199
742.7477, 87.82680
743.2298, 87.57393
743.7119, 87.41432
744.1940, 87.35879
744.6761, 87.42660
745.1583, 87.61565
745.6404, 87.96730
746.1225, 88.62830
746.6046, 89.13548
747.0867, 89.00587
747.5688, 88.41489
748.0510, 87.66724
748.5331, 86.30827
749.0152, 85.44030
749.4973, 85.97520
749.9794, 87.07029
750.4615, 86.90678
750.9437, 84.66933
751.4258, 83.26004
751.9079, 83.51554
752.3900, 84.77930
752.8721, 85.50736
753.3542, 85.72675
753.8364, 85.79967
754.3185, 85.83903
754.8006, 85.84273
755.2827, 85.75758
755.7648, 85.62819
756.2469, 85.58611
756.7291, 85.93443
757.2112, 86.12849
757.6933, 85.69031
758.1754, 84.81931
758.6575, 84.71289
759.1396, 85.93188
759.6218, 86.77013
760.1039, 86.47677
760.5860, 85.36976
761.0681, 84.88359
761.5502, 85.00966
762.0323, 85.29997
762.5145, 85.66622
762.9966, 85.95110
763.4787, 85.91549
763.9608, 85.58780
764.4429, 85.15907
764.9250, 84.42901
765.4072, 83.88145
765.8893, 83.81348
766.3714, 84.25706
766.8535, 84.79359
767.3356, 85.64433
767.8177, 86.18163
768.2999, 85.91921
768.7820, 84.97584
769.2641, 84.72023
769.7462, 85.17485
770.2283, 85.49509
770.7104, 84.78170
771.1926, 83.68734
771.6747, 83.11015
772.1568, 83.10273
772.6389, 83.29954
773.1210, 83.70937
773.6031, 84.12278
774.0853, 84.40425
774.5674, 84.52610
775.0495, 84.66056
775.5316, 84.88995
776.0137, 84.99263
776.4958, 84.69847
776.9780, 84.04397
777.4601, 83.90250
777.9422, 84.31277
778.4243, 84.78172
778.9064, 84.86365
779.3885, 84.76795
779.8707, 84.83267
780.3528, 85.12129
780.8349, 85.20750
781.3170, 84.68227
781.7991, 84.03819
782.2812, 83.59531
782.7633, 83.32605
783.2454, 83.45532
783.7275, 84.23889
784.2097, 84.92407
784.6918, 84.66411
785.1739, 83.60254
785.6560, 83.13140
786.1381, 83.35085
786.6202, 83.98013
787.1024, 85.39977
787.5845, 86.77922
788.0666, 86.76270
788.5487, 84.75883
789.0308, 83.37138
789.5129, 84.35812
789.9951, 85.75077
790.4772, 85.91500
790.9593, 84.15607
791.4414, 83.18494
791.9235, 83.13929
792.4056, 83.52409
792.8878, 83.98038
793.3699, 84.47083
793.8520, 84.78258
794.3341, 84.88167
794.8162, 84.94702
795.2983, 85.24138
795.7805, 85.53693
796.2626, 85.52225
796.7447, 84.97494
797.2268, 84.65054
797.7089, 85.09555
798.1910, 85.57011
798.6732, 85.40205
799.1553, 84.19473
799.6374, 84.00290
800.1195, 85.15334
800.6016, 86.41523
801.0837, 86.23621
801.5659, 85.10764
802.0480, 84.60503
802.5301, 85.00988
803.0122, 85.57738
803.4943, 85.83949
803.9764, 85.94611
804.4586, 86.05172
804.9407, 86.22616
805.4228, 86.27470
805.9049, 85.99358
806.3870, 85.77547
806.8691, 86.07058
807.3513, 87.00173
807.8334, 87.21962
808.3155, 86.54191
808.7976, 85.73495
809.2797, 85.67679
809.7618, 86.05397
810.2440, 86.24815
810.7261, 86.14007
811.2082, 86.00881
811.6903, 85.88423
812.1724, 85.88428
812.6545, 86.15461
813.1367, 86.93044
813.6188, 87.36836
814.1009, 87.26546
814.5830, 87.14681
815.0651, 87.67916
815.5472, 88.77608
816.0294, 89.01457
816.5115, 88.23595
816.9936, 87.30933
817.4757, 86.94052
817.9578, 86.95501
818.4399, 87.22543
818.9221, 87.79781
819.4042, 88.22276
819.8863, 88.15556
820.3684, 88.03529
820.8505, 88.16415
821.3326, 88.59676
821.8148, 89.10490
822.2969, 89.74920
822.7790, 90.26356
823.2611, 90.25529
823.7432, 89.92300
824.2253, 89.98537
824.7075, 90.50245
825.1896, 90.92708
825.6717, 90.63864
826.1538, 90.23622
826.6359, 90.28905
827.1180, 90.99184
827.6002, 91.40921
828.0823, 91.20104
828.5644, 91.00532
829.0465, 91.22652
829.5286, 91.87551
830.0107, 92.39256
830.4929, 92.77190
830.9750, 93.06680
831.4571, 93.33867
831.9392, 93.54250
832.4213, 93.53828
832.9034, 93.33270
833.3856, 93.22988
833.8677, 93.45763
834.3498, 93.75917
834.8319, 94.00311
835.3140, 94.18443
835.7961, 94.31511
836.2783, 94.36360
836.7604, 94.44601
837.2425, 94.65900
837.7246, 94.95725
838.2067, 95.06266
838.6888, 95.01358
839.1710, 95.19038
839.6531, 96.29076
840.1352, 97.36925
840.6173, 97.46629
841.0994, 96.66749
841.5815, 96.19417
842.0637, 96.59946
842.5458, 96.96495
843.0279, 96.96701
843.5100, 96.68758
843.9921, 96.66676
844.4742, 96.91575
844.9564, 97.16194
845.4385, 97.30586
845.9206, 97.34034
846.4027, 97.10326
846.8848, 96.72160
847.3669, 96.62614
847.8491, 97.39462
848.3312, 98.08963
848.8133, 98.17400
849.2954, 97.88347
849.7775, 98.03589
850.2596, 98.81756
850.7418, 99.44328
851.2239, 99.65285
851.7060, 99.62334
852.1881, 99.67912
852.6702, 99.82783
853.1523, 100.1070
853.6345, 100.6021
854.1166, 101.1398
854.5987, 101.6624
855.0808, 102.1285
855.5629, 102.4702
856.0450, 102.5632
856.5272, 102.6706
857.0093, 102.7471
857.4914, 102.9203
857.9735, 103.5749
858.4556, 104.6636
858.9377, 105.2476
859.4199, 104.9729
859.9020, 104.5918
860.3841, 104.8904
860.8662, 105.6300
861.3483, 106.4940
861.8304, 107.5699
862.3126, 108.4320
862.7947, 108.7435
863.2768, 108.9423
863.7589, 109.4467
864.2410, 110.3524
864.7231, 111.0386
865.2053, 111.4434
865.6874, 111.7353
866.1695, 112.0632
866.6516, 112.4239
867.1337, 112.8444
867.6158, 113.3442
868.0980, 113.7536
868.5801, 113.7424
869.0622, 113.7816
869.5443, 114.3152
870.0264, 115.5108
870.5085, 116.4548
870.9907, 117.1659
871.4728, 117.5651
871.9549, 117.2945
872.4370, 116.6349
872.9191, 116.9488
873.4012, 118.1962
873.8834, 119.2140
874.3655, 118.7597
874.8476, 118.1194
875.3297, 118.4474
875.8118, 119.7691
876.2939, 120.4008
876.7761, 119.8850
877.2582, 119.2074
877.7403, 118.6832
878.2224, 118.2903
878.7045, 117.9226
879.1866, 117.5838
879.6688, 117.3526
880.1509, 117.3456
880.6330, 117.4052
881.1151, 117.3050
881.5972, 117.1383
882.0793, 117.1716
882.5615, 118.0942
883.0436, 118.4221
883.5257, 117.5014
884.0078, 116.0111
884.4899, 115.6738
884.9720, 116.5806
885.4542, 116.8312
885.9363, 115.7312
886.4184, 114.2743
886.9005, 113.6249
887.3826, 113.5922
887.8647, 113.9087
888.3469, 114.9583
888.8290, 115.5417
889.3111, 114.7941
889.7932, 113.7036
890.2753, 113.2480
890.7574, 113.5407
891.2396, 114.0576
891.7217, 114.8725
892.2038, 115.4772
892.6859, 115.0985
893.1680, 114.1606
893.6501, 113.5034
894.1323, 113.2497
894.6144, 113.1181
895.0965, 113.0191
895.5786, 112.9474
896.0607, 112.9614
896.5428, 113.1127
897.0250, 112.7986
897.5071, 111.8110
897.9892, 111.0621
898.4713, 111.4919
898.9534, 112.5455
899.4355, 112.4125
899.9177, 111.2685
900.3998, 110.3255
900.8819, 110.3586
901.3640, 110.7565
901.8461, 111.3690
902.3282, 112.0925
902.8104, 112.4532
903.2925, 112.3525
903.7746, 112.0817
904.2567, 111.6352
904.7388, 111.1667
905.2209, 111.0194
905.7031, 111.1674
906.1852, 111.5337
906.6673, 112.3418
907.1494, 112.9802
907.6315, 112.8867
908.1136, 112.4116
908.5958, 112.0992
909.0779, 111.9794
909.5600, 112.1035
910.0421, 112.5461
910.5242, 113.1133
911.0063, 113.6096
911.4885, 114.0283
911.9706, 114.4121
912.4527, 114.7956
912.9348, 114.8419
913.4169, 113.7699
913.8990, 112.5677
914.3812, 112.2088
914.8633, 113.0685
915.3454, 113.6683
915.8275, 113.8452
916.3096, 113.9468
916.7917, 114.2355
917.2739, 114.6428
917.7560, 114.6236
918.2381, 114.2161
918.7202, 113.9004
919.2023, 114.4656
919.6844, 114.8421
920.1666, 113.7170
920.6487, 111.4894
921.1308, 110.4207
921.6129, 111.9142
922.0950, 112.6974
922.5771, 111.7014
923.0593, 109.8013
923.5414, 109.3722
924.0235, 110.1799
924.5056, 110.5541
924.9877, 109.7860
925.4698, 108.7538
925.9520, 108.1298
926.4341, 107.7475
926.9162, 107.3796
927.3983, 106.9404
927.8804, 106.5938
928.3625, 106.4472
928.8447, 106.2435
929.3268, 105.5750
929.8089, 104.5444
930.2910, 103.9925
930.7731, 104.0049
931.2552, 104.0762
931.7374, 103.7718
932.2195, 103.3614
932.7016, 103.0687
933.1837, 102.9259
933.6658, 102.7983
934.1479, 102.5516
934.6301, 102.5431
935.1122, 103.1101
935.5943, 103.9994
936.0764, 103.9114
936.5585, 102.9921
937.0406, 102.3348
937.5228, 102.9109
938.0049, 103.6033
938.4870, 103.4022
938.9691, 102.6940
939.4512, 102.4292
939.9333, 103.1673
940.4155, 103.5535
940.8976, 103.3162
941.3797, 102.8318
941.8618, 102.7742
942.3439, 103.0187
942.8260, 102.8334
943.3082, 101.9479
943.7903, 101.3657
944.2724, 102.1350
944.7545, 103.3938
945.2366, 104.4236
945.7188, 105.1692
946.2009, 105.4012
946.6830, 104.9021
947.1651, 104.3791
947.6472, 104.3288
948.1293, 104.6398
948.6115, 104.8608
949.0936, 105.0034
949.5757, 105.1591
950.0578, 105.4684
950.5399, 105.7263
951.0220, 105.6697
951.5042, 105.4374
951.9863, 105.6211
952.4684, 106.3950
952.9505, 107.1645
953.4326, 107.8668
953.9147, 108.3828
954.3969, 108.2650
954.8790, 107.8005
955.3611, 107.8256
955.8432, 108.7438
956.3253, 109.7259
956.8074, 110.3275
957.2896, 110.7891
957.7717, 111.3247
958.2538, 111.8750
958.7359, 112.8049
959.2180, 114.2145
959.7001, 115.5424
960.1823, 116.1367
960.6644, 116.3877
961.1465, 117.1336
961.6286, 118.3469
962.1107, 119.5025
962.5928, 120.5786
963.0750, 121.2903
963.5571, 121.3111
964.0392, 120.8926
964.5213, 120.9931
965.0034, 121.6741
965.4855, 122.3082
965.9677, 122.6346
966.4498, 122.9929
966.9319, 123.9568
967.4140, 125.2671
967.8961, 126.4810
968.3782, 127.7331
968.8604, 128.3859
969.3425, 127.7392
969.8246, 127.0231
970.3067, 127.4417
970.7888, 129.0534
971.2709, 129.7063
971.7531, 129.2834
972.2352, 128.8593
972.7173, 129.4364
973.1994, 130.3470
973.6815, 130.8844
974.1636, 131.0455
974.6458, 131.3563
975.1279, 132.3204
975.6100, 132.7949
976.0921, 132.2663
976.5742, 131.1822
977.0563, 130.8636
977.5385, 131.1815
978.0206, 131.3770
978.5027, 131.2097
978.9848, 130.7989
979.4669, 129.8144
979.9490, 128.8300
980.4311, 128.6619
980.9132, 130.1731
981.3953, 130.7328
981.8774, 130.1468
982.3596, 129.1070
982.8417, 128.0368
983.3238, 127.0304
983.8059, 126.5137
984.2880, 126.4522
984.7701, 126.2391
985.2523, 125.3438
985.7344, 124.3822
986.2165, 123.7087
986.6986, 123.2529
987.1807, 122.7009
987.6628, 122.0308
988.1450, 121.4277
988.6271, 120.9773
989.1092, 120.5580
989.5913, 120.1120
990.0734, 119.5375
990.5555, 118.5869
991.0377, 116.8440
991.5198, 115.4842
992.0019, 115.0200
992.4840, 114.8302
992.9661, 114.5074
993.4482, 114.0504
993.9304, 113.4656
994.4125, 112.7435
994.8946, 112.1119
995.3767, 111.8034
995.8588, 111.5911
996.3409, 111.2727
996.8231, 110.8553
997.3052, 110.4242
997.7873, 109.9312
998.2694, 109.5204
998.7515, 109.2119
999.2336, 109.0140
999.7158, 109.0206
1000.198, 109.1664
1000.680, 109.2462
1001.162, 109.2632
1001.644, 109.0028
1002.126, 108.0631
1002.608, 106.9628
1003.091, 106.1347
1003.573, 105.5418
1004.055, 105.5698
1004.537, 106.3852
1005.019, 107.0262
1005.501, 106.5229
1005.983, 105.5861
1006.465, 105.5973
1006.948, 106.3110
1007.430, 106.7576
1007.912, 106.4852
1008.394, 105.9358
1008.876, 105.0092
1009.358, 104.0495
1009.840, 103.7174
1010.322, 103.9961
1010.804, 104.3801
1011.287, 104.8390
1011.769, 105.0801
1012.251, 104.5472
1012.733, 103.8343
1013.215, 103.5269
1013.697, 103.7489
1014.179, 104.2208
1014.661, 105.2196
1015.143, 105.7967
1015.626, 105.2878
1016.108, 104.1144
1016.590, 103.3802
1017.072, 103.0900
1017.554, 103.2354
1018.036, 104.5195
1018.518, 105.4218
1019.000, 105.0428
1019.483, 104.0255
1019.965, 103.2359
1020.447, 102.7081
1020.929, 102.1202
1021.411, 101.3872
1021.893, 100.9840
1022.375, 101.8665
1022.857, 103.0562
1023.339, 103.1109
1023.822, 101.9772
1024.304, 101.2999
1024.786, 101.9345
1025.268, 102.4379
1025.750, 102.3535
1026.232, 101.8929
1026.714, 101.5660
1027.196, 101.3747
1027.679, 101.3517
1028.161, 101.5983
1028.643, 101.8009
1029.125, 101.5159
1029.607, 101.2204
1030.089, 101.5510
1030.571, 102.8989
1031.053, 103.2725
1031.536, 102.5103
1032.018, 101.5448
1032.500, 100.9208
1032.982, 100.6063
1033.464, 100.6356
1033.946, 100.9522
1034.428, 101.3291
1034.910, 101.9766
1035.392, 102.2588
1035.875, 101.8269
1036.357, 101.1852
1036.839, 101.3341
1037.321, 102.1654
1037.803, 102.6650
1038.285, 102.6468
1038.767, 102.4673
1039.249, 102.3611
1039.731, 102.2563
1040.214, 101.9664
1040.696, 101.4555
1041.178, 101.6733
1041.660, 102.8460
1042.142, 103.9231
1042.624, 104.5833
1043.106, 104.7242
1043.588, 103.7373
1044.071, 102.1506
1044.553, 101.1561
1045.035, 101.3573
1045.517, 101.9299
1045.999, 103.1347
1046.481, 104.1985
1046.963, 104.1546
1047.445, 103.1111
1047.927, 102.9675
1048.410, 103.7602
1048.892, 104.4992
1049.374, 104.2896
1049.856, 103.9423
1050.338, 104.1087
1050.820, 104.1016
1051.302, 104.1533
1051.784, 104.6156
1052.266, 104.6441
1052.749, 105.2172
1053.231, 105.9318
1053.713, 106.2617
1054.195, 106.3336
1054.677, 106.2713
1055.159, 106.0094
1055.641, 106.1619
1056.123, 107.4971
1056.606, 108.5628
1057.088, 108.5175
1057.570, 107.6559
1058.052, 107.7204
1058.534, 108.5607
1059.016, 109.2107
1059.498, 109.0754
1059.980, 108.8112
1060.463, 108.7867
1060.945, 108.8997
1061.427, 108.9803
1061.909, 108.9441
1062.391, 109.2480
1062.873, 109.9837
1063.355, 110.5867
1063.837, 110.4540
1064.319, 109.9543
1064.802, 109.4430
1065.284, 108.9972
1065.766, 108.9149
1066.248, 109.8876
1066.730, 110.3531
1067.212, 109.8970
1067.694, 108.9658
1068.176, 108.2776
1068.658, 107.8204
1069.141, 107.6525
1069.623, 107.8432
1070.105, 107.8853
1070.587, 107.0888
1071.069, 106.4120
1071.551, 106.7162
1072.033, 107.8697
1072.515, 107.8470
1072.998, 106.6090
1073.480, 105.3992
1073.962, 104.7533
1074.444, 104.4039
1074.926, 104.0388
1075.408, 103.7946
1075.890, 103.9366
1076.372, 105.2778
1076.854, 105.3434
1077.337, 103.7248
1077.819, 101.9308
1078.301, 101.2815
1078.783, 101.3661
1079.265, 101.2830
1079.747, 101.0460
1080.229, 100.8603
1080.711, 100.9057
1081.193, 100.9004
1081.676, 100.7812
1082.158, 100.5668
1082.640, 100.2140
1083.122, 99.75658
1083.604, 99.56131
1084.086, 99.69388
1084.568, 99.89182
1085.050, 100.0389
1085.532, 100.1076
1086.015, 100.2001
1086.497, 100.2539
1086.979, 99.50060
1087.461, 97.74619
1087.943, 96.52934
1088.425, 96.48527
1088.907, 96.91786
1089.389, 96.96873
1089.872, 96.88942
1090.354, 97.07310
1090.836, 97.77059
1091.318, 98.24545
1091.800, 98.40176
1092.282, 98.46838
1092.764, 98.59792
1093.246, 98.73913
1093.729, 98.68569
1094.211, 98.49626
1094.693, 98.39334
1095.175, 98.71230
1095.657, 98.81164
1096.139, 98.34402
1096.621, 97.72746
1097.103, 97.42241
1097.585, 97.41420
1098.068, 97.33195
1098.550, 97.15885
1099.032, 97.08418
1099.514, 97.68604
1099.996, 98.02036
1100.478, 97.01599
1100.960, 95.19469
1101.442, 94.59871
1101.924, 95.47775
1102.407, 96.09866
1102.889, 96.11082
1103.371, 95.91863
1103.853, 96.12302
1104.335, 96.30094
1104.817, 95.79990
1105.299, 94.43552
1105.781, 93.65974
1106.264, 93.90799
1106.746, 93.88278
1107.228, 92.89478
1107.710, 91.59937
1108.192, 91.51257
1108.674, 92.13903
1109.156, 92.34353
1109.638, 91.67688
1110.120, 90.83245
1110.603, 89.79725
1111.085, 88.86624
1111.567, 88.23627
1112.049, 87.87834
1112.531, 87.61945
1113.013, 87.43145
1113.495, 87.11614
1113.977, 86.31090
1114.459, 85.64533
1114.942, 85.38388
1115.424, 85.46682
1115.906, 85.99812
1116.388, 87.10446
1116.870, 87.06749
1117.352, 85.75658
1117.834, 84.42530
1118.316, 84.06087
1118.799, 84.09185
1119.281, 84.21640
1119.763, 84.33414
1120.245, 84.12207
1120.727, 83.46667
1121.209, 82.85395
1121.691, 82.31934
1122.173, 82.01289
1122.656, 82.24505
1123.138, 82.74210
1123.620, 83.27242
1124.102, 83.81812
1124.584, 83.73682
1125.066, 82.62619
1125.548, 81.65067
1126.030, 81.20407
1126.512, 81.05253
1126.995, 80.79575
1127.477, 80.45213
1127.959, 79.98988
1128.441, 79.23790
1128.923, 78.99538
1129.405, 80.23792
1129.887, 81.18588
1130.369, 80.74416
1130.851, 79.30135
1131.334, 78.73356
1131.816, 78.87200
1132.298, 78.89045
1132.780, 78.28311
1133.262, 77.72442
1133.744, 77.61863
1134.226, 77.63420
1134.708, 77.45849
1135.191, 77.07795
1135.673, 76.65128
1136.155, 76.18550
1136.637, 75.98844
1137.119, 76.65158
1137.601, 77.25566
1138.083, 76.87098
1138.565, 77.38081
1139.047, 76.07870
1139.530, 77.26171
1140.012, 77.57657
1140.494, 76.79784
1140.976, 75.80507
1141.458, 75.45490
1141.940, 75.23849
1142.422, 74.41373
1142.904, 74.32835
1143.386, 74.34060
1143.869, 73.85332
1144.351, 74.47770
1144.833, 74.36430
1145.315, 73.89124
1145.797, 73.26958
1146.279, 72.73429
1146.761, 72.77962
1147.243, 73.48096
1147.726, 73.70164
1148.208, 73.06960
1148.690, 72.43252
1149.172, 72.05428
1149.654, 71.78331
1150.136, 71.20264
1150.618, 70.54272
1151.100, 70.30975
1151.583, 70.69984
1152.065, 71.16188
1152.547, 71.76821
1153.029, 72.10848
1153.511, 71.90589
1153.993, 71.33459
1154.475, 70.92256
1154.957, 70.63689
1155.439, 70.36097
1155.922, 70.00764
1156.404, 69.75724
1156.886, 70.11005
1157.368, 70.15653
1157.850, 68.97446
1158.332, 66.80717
1158.814, 66.16103
1159.296, 66.84531
1159.778, 67.61885
1160.261, 67.93364
1160.743, 68.06040
1161.225, 67.91359
1161.707, 67.78087
1162.189, 68.06752
1162.671, 68.79271
1163.153, 69.03593
1163.635, 68.77705
1164.118, 68.17567
1164.600, 66.76952
1165.082, 65.64790
1165.564, 65.79725
1166.046, 66.61894
1166.528, 66.99928
1167.010, 66.90858
1167.492, 66.62681
1167.974, 66.16628
1168.457, 65.68205
1168.939, 65.11518
1169.421, 64.73652
1169.903, 64.86308
1170.385, 65.38818
1170.867, 65.80040
1171.349, 66.12165
1171.831, 66.15025
1172.313, 65.79554
1172.796, 65.47330
1173.278, 65.87276
1173.760, 66.32500
1174.242, 66.06446
1174.724, 65.07351
1175.206, 64.35515
1175.688, 63.92178
1176.170, 63.86174
1176.653, 64.30939
1177.135, 64.79630
1177.617, 64.59642
1178.099, 64.16365
1178.581, 64.07837
1179.063, 64.46322
1179.545, 64.76863
1180.027, 64.93430
1180.510, 65.19925
1180.992, 65.75442
1181.474, 66.24799
1181.956, 65.99889
1182.438, 65.39570
1182.920, 65.07352
1183.402, 65.27078
1183.884, 65.24412
1184.366, 64.84696
1184.849, 64.59727
1185.331, 64.94583
1185.813, 65.36887
1186.295, 64.49849
1186.777, 63.08812
1187.259, 62.63201
1187.741, 64.29351
1188.223, 65.06028
1188.705, 64.46983
1189.188, 63.74716
1189.670, 63.65588
1190.152, 63.99318
1190.634, 64.51878
1191.116, 65.09739
1191.598, 65.40248
1192.080, 64.99250
1192.562, 64.87029
1193.045, 65.28622
1193.527, 65.57075
1194.009, 64.94821
1194.491, 63.88001
1194.973, 63.39821
1195.455, 63.43135
1195.937, 63.69172
1196.419, 64.42117
1196.901, 64.84514
1197.384, 64.80807
1197.866, 64.60078
1198.348, 64.52410
1198.830, 64.48742
1199.312, 64.17482
1199.794, 63.66139
1200.276, 63.35915
1200.758, 63.54803
1201.240, 63.82506
1201.723, 64.17756
1202.205, 64.50528
1202.687, 64.87082
1203.169, 65.06742
1203.651, 64.19493
1204.133, 62.40839
1204.615, 61.43550
1205.097, 62.96484
1205.580, 63.89528
1206.062, 63.40808
1206.544, 62.48069
1207.026, 62.66929
1207.508, 63.50259
1207.990, 63.72082
1208.472, 63.23496
1208.954, 62.94500
1209.437, 63.48867
1209.919, 63.85038
1210.401, 63.77431
1210.883, 63.44939
1211.365, 63.09899
1211.847, 62.77394
1212.329, 62.58885
1212.811, 62.56339
1213.293, 62.59756
1213.776, 62.72107
1214.258, 62.82077
1214.740, 62.88260
1215.222, 62.88279
1215.704, 62.68373
1216.186, 62.40845
1216.668, 62.35525
1217.150, 62.58940
1217.632, 62.88814
1218.115, 63.47115
1218.597, 63.63619
1219.079, 62.96004
1219.561, 61.99243
1220.043, 61.88530
1220.525, 62.33582
1221.007, 62.68690
1221.489, 62.79331
1221.972, 62.86678
1222.454, 62.95509
1222.936, 63.03428
1223.418, 63.16464
1223.900, 63.19197
1224.382, 62.59523
1224.864, 61.68981
1225.346, 61.20729
1225.828, 61.49827
1226.311, 61.34156
1226.793, 59.99536
1227.275, 59.45226
1227.757, 61.05399
1228.239, 63.49003
1228.721, 64.04109
1229.203, 63.33813
1229.685, 62.60734
1230.167, 62.10530
1230.650, 61.76917
1231.132, 61.69889
1231.614, 61.47371
1232.096, 60.62407
1232.578, 59.77288
1233.060, 60.57829
1233.542, 62.16591
1234.024, 62.77511
1234.507, 61.30672
1234.989, 60.75121
1235.471, 61.51294
1235.953, 62.27693
1236.435, 62.22060
1236.917, 61.80061
1237.399, 61.72576
1237.881, 61.86872
1238.364, 62.02657
1238.846, 62.30523
1239.328, 62.11219
1239.810, 61.28325
1240.292, 60.66283
1240.774, 61.06812
1241.256, 61.68132
1241.738, 61.10777
1242.220, 60.01757
1242.703, 59.65239
1243.185, 60.46447
1243.667, 61.20748
1244.149, 61.89762
1244.631, 62.38186
1245.113, 62.49306
1245.595, 62.39531
1246.077, 62.16223
1246.559, 61.87994
1247.042, 61.72415
1247.524, 61.80690
1248.006, 61.50829
1248.488, 60.77144
1248.970, 60.37298
1249.452, 61.38210
1249.934, 62.40270
1250.416, 61.90039
1250.899, 60.75838
1251.381, 60.44184
1251.863, 61.19478
1252.345, 61.47397
1252.827, 61.26924
1253.309, 61.13363
1253.791, 61.61729
1254.273, 62.09508
1254.755, 62.17762
1255.238, 61.96421
1255.720, 61.54439
1256.202, 60.89359
1256.684, 60.63332
1257.166, 60.76312
1257.648, 61.04236
1258.130, 61.61855
1258.612, 61.96553
1259.094, 61.48904
1259.577, 60.87101
1260.059, 60.97672
1260.541, 61.70959
1261.023, 61.52712
1261.505, 60.55369
1261.987, 60.04578
1262.469, 61.47020
1262.951, 62.44398
1263.434, 61.87915
1263.916, 60.91253
1264.398, 60.69193
1264.880, 61.03551
1265.362, 61.06370
1265.844, 60.84372
1266.326, 60.86879
1266.808, 61.81043
1267.291, 62.33722
1267.773, 62.11749
1268.255, 61.65497
1268.737, 61.47314
1269.219, 61.42759
1269.701, 61.06281
1270.183, 60.48057
1270.665, 60.11465
1271.147, 60.06976
1271.630, 60.40931
1272.112, 61.29447
1272.594, 62.10990
1273.076, 62.22464
1273.558, 61.93126
1274.040, 61.51002
1274.522, 61.08417
1275.004, 61.04329
1275.486, 61.82824
1275.969, 61.90257
1276.451, 61.07161
1276.933, 60.10455
1277.415, 59.54339
1277.897, 59.29702
1278.379, 59.44310
1278.861, 59.80888
1279.343, 59.93797
1279.825, 59.69114
1280.308, 59.97457
1280.790, 60.87455
1281.272, 61.42548
1281.754, 60.45971
1282.236, 59.34456
1282.718, 59.08713
1283.200, 59.31657
1283.682, 59.29061
1284.165, 58.98295
1284.647, 59.57585
1285.129, 61.03668
1285.611, 62.09770
1286.093, 61.54836
1286.575, 60.94698
1287.057, 61.21481
1287.539, 60.56894
1288.021, 61.16515
1288.504, 60.10727
1288.986, 59.74233
1289.468, 60.00820
1289.950, 60.24697
1290.432, 59.93179
1290.914, 59.89135
1291.396, 60.39167
1291.878, 60.99325
1292.360, 61.37120
1292.843, 61.49968
1293.325, 61.21360
1293.807, 60.60964
1294.289, 60.02663
1294.771, 59.38886
1295.253, 59.16399
1295.735, 59.51180
1296.217, 59.79759
1296.700, 59.29419
1297.182, 58.54155
1297.664, 58.24508
1298.146, 58.30724
1298.628, 58.48272
1299.110, 58.78404
1299.592, 59.02949
1300.074, 59.20321
1300.557, 59.43203
1301.039, 59.99075
1301.521, 60.45702
1302.003, 60.33747
1302.485, 59.97151
1302.967, 59.87909
1303.449, 60.09473
##END=



