##NAMES=Poughite
##RRUFFID=R080026
##IDEAL CHEMISTRY=Fe^3+^_2_(Te^4+^O_3_)_2_S^6+^O_4_&#183;3H_2_O
##LOCALITY=Mina Candelaria, Moctezuma, Sonora, Mexico
##OWNER=RRUFF
##SOURCE=William W. Pinch
##DESCRIPTION=Bright-yellow to honey-yellow drusy crusts associated with green emmonsite
##STATUS=The identification of this mineral has been confirmed only by X-ray diffraction
##URL=rruff.info/R080026
136.0440, 1916.410
136.5262, 1920.927
137.0083, 1924.944
137.4904, 1927.634
137.9725, 1929.460
138.4546, 1930.869
138.9367, 1932.011
139.4189, 1932.151
139.9010, 1929.633
140.3831, 1922.695
140.8652, 1916.081
141.3473, 1909.922
141.8294, 1904.622
142.3116, 1900.831
142.7937, 1898.884
143.2758, 1898.315
143.7579, 1897.053
144.2400, 1893.918
144.7221, 1891.345
145.2043, 1889.938
145.6864, 1889.317
146.1685, 1888.769
146.6506, 1887.774
147.1327, 1886.439
147.6148, 1886.179
148.0970, 1888.317
148.5791, 1890.049
149.0612, 1889.764
149.5433, 1887.745
150.0254, 1885.697
150.5075, 1884.924
150.9896, 1885.396
151.4718, 1885.704
151.9539, 1886.383
152.4360, 1886.562
152.9181, 1884.959
153.4002, 1881.257
153.8823, 1877.633
154.3645, 1876.156
154.8466, 1876.101
155.3287, 1876.252
155.8108, 1876.844
156.2929, 1877.299
156.7750, 1876.147
157.2572, 1872.658
157.7393, 1868.630
158.2214, 1864.692
158.7035, 1861.056
159.1856, 1858.277
159.6677, 1857.529
160.1499, 1858.592
160.6320, 1857.569
161.1141, 1853.710
161.5962, 1848.166
162.0783, 1840.255
162.5604, 1830.805
163.0426, 1821.956
163.5247, 1815.941
164.0068, 1813.466
164.4889, 1810.487
164.9710, 1806.462
165.4531, 1802.470
165.9353, 1798.730
166.4174, 1795.437
166.8995, 1792.867
167.3816, 1791.391
167.8637, 1791.247
168.3458, 1791.820
168.8280, 1793.835
169.3101, 1795.981
169.7922, 1797.003
170.2743, 1796.719
170.7564, 1796.262
171.2385, 1797.304
171.7207, 1800.337
172.2028, 1803.939
172.6849, 1807.911
173.1670, 1812.451
173.6491, 1818.259
174.1312, 1825.783
174.6133, 1833.405
175.0955, 1837.485
175.5776, 1837.265
176.0597, 1838.742
176.5418, 1844.067
177.0239, 1852.345
177.5060, 1862.034
177.9882, 1873.573
178.4703, 1884.999
178.9524, 1893.139
179.4345, 1897.564
179.9166, 1903.057
180.3987, 1913.029
180.8809, 1927.043
181.3630, 1941.104
181.8451, 1954.049
182.3272, 1966.758
182.8093, 1979.823
183.2914, 1993.251
183.7736, 2007.309
184.2557, 2022.809
184.7378, 2040.069
185.2199, 2055.996
185.7020, 2069.757
186.1841, 2081.866
186.6663, 2091.880
187.1484, 2099.795
187.6305, 2107.076
188.1126, 2115.682
188.5947, 2125.596
189.0768, 2136.857
189.5590, 2150.606
190.0411, 2164.766
190.5232, 2177.779
191.0053, 2189.212
191.4874, 2200.141
191.9695, 2212.793
192.4517, 2228.312
192.9338, 2243.716
193.4159, 2259.202
193.8980, 2274.454
194.3801, 2289.592
194.8622, 2304.668
195.3443, 2318.963
195.8265, 2330.860
196.3086, 2337.439
196.7907, 2344.884
197.2728, 2353.298
197.7549, 2362.589
198.2370, 2372.967
198.7192, 2384.542
199.2013, 2396.644
199.6834, 2407.212
200.1655, 2414.424
200.6476, 2422.829
201.1297, 2434.153
201.6119, 2446.968
202.0940, 2459.419
202.5761, 2471.087
203.0582, 2480.929
203.5403, 2486.013
204.0224, 2487.455
204.5046, 2484.033
204.9867, 2474.919
205.4688, 2460.602
205.9509, 2441.745
206.4330, 2417.715
206.9151, 2390.280
207.3973, 2362.692
207.8794, 2334.018
208.3615, 2307.696
208.8436, 2286.227
209.3257, 2269.140
209.8078, 2253.263
210.2900, 2236.596
210.7721, 2221.810
211.2542, 2211.772
211.7363, 2207.028
212.2184, 2205.275
212.7005, 2205.786
213.1827, 2208.575
213.6648, 2210.383
214.1469, 2209.230
214.6290, 2207.305
215.1111, 2206.232
215.5932, 2206.208
216.0754, 2207.198
216.5575, 2210.235
217.0396, 2216.078
217.5217, 2218.804
218.0038, 2215.395
218.4859, 2209.160
218.9680, 2201.398
219.4502, 2192.439
219.9323, 2182.811
220.4144, 2173.052
220.8965, 2163.076
221.3786, 2153.200
221.8607, 2143.889
222.3429, 2134.406
222.8250, 2124.435
223.3071, 2113.820
223.7892, 2102.478
224.2713, 2090.021
224.7534, 2075.531
225.2356, 2062.125
225.7177, 2050.489
226.1998, 2039.382
226.6819, 2027.977
227.1640, 2016.150
227.6461, 2004.307
228.1283, 1993.148
228.6104, 1982.627
229.0925, 1972.964
229.5746, 1963.758
230.0567, 1955.498
230.5388, 1948.358
231.0210, 1942.447
231.5031, 1937.920
231.9852, 1935.135
232.4673, 1935.765
232.9494, 1934.818
233.4315, 1930.024
233.9137, 1925.208
234.3958, 1923.644
234.8779, 1925.938
235.3600, 1929.890
235.8421, 1932.350
236.3242, 1931.814
236.8064, 1933.479
237.2885, 1938.452
237.7706, 1944.914
238.2527, 1951.597
238.7348, 1958.198
239.2169, 1964.565
239.6991, 1970.381
240.1812, 1975.449
240.6633, 1980.885
241.1454, 1987.100
241.6275, 1993.510
242.1096, 1999.837
242.5918, 2005.981
243.0739, 2011.568
243.5560, 2016.110
244.0381, 2019.562
244.5202, 2021.997
245.0023, 2022.988
245.4845, 2023.191
245.9666, 2023.777
246.4487, 2024.999
246.9308, 2024.822
247.4129, 2020.662
247.8950, 2012.854
248.3772, 2004.789
248.8593, 1996.065
249.3414, 1987.749
249.8235, 1981.661
250.3056, 1978.196
250.7877, 1974.588
251.2699, 1967.128
251.7520, 1957.460
252.2341, 1950.904
252.7162, 1950.600
253.1983, 1953.038
253.6804, 1953.559
254.1626, 1951.607
254.6447, 1950.368
255.1268, 1952.668
255.6089, 1957.173
256.0910, 1961.738
256.5731, 1965.580
257.0552, 1969.427
257.5374, 1974.198
258.0195, 1979.913
258.5016, 1986.448
258.9837, 1994.784
259.4658, 2003.669
259.9479, 2011.644
260.4301, 2018.318
260.9122, 2023.943
261.3943, 2028.805
261.8764, 2032.908
262.3585, 2036.305
262.8406, 2039.441
263.3228, 2041.644
263.8049, 2042.131
264.2870, 2040.666
264.7691, 2037.525
265.2512, 2033.397
265.7333, 2028.612
266.2155, 2021.115
266.6976, 2008.744
267.1797, 1994.069
267.6618, 1978.081
268.1439, 1960.949
268.6260, 1944.162
269.1082, 1929.753
269.5903, 1918.085
270.0724, 1906.707
270.5545, 1894.400
271.0366, 1882.769
271.5187, 1872.994
272.0009, 1865.213
272.4830, 1858.502
272.9651, 1851.867
273.4472, 1845.264
273.9293, 1839.033
274.4114, 1833.294
274.8936, 1827.889
275.3757, 1822.732
275.8578, 1817.852
276.3399, 1813.257
276.8220, 1809.047
277.3041, 1805.311
277.7863, 1801.465
278.2684, 1796.414
278.7505, 1792.207
279.2326, 1790.428
279.7147, 1790.444
280.1968, 1790.188
280.6790, 1787.917
281.1611, 1783.579
281.6432, 1778.695
282.1253, 1771.891
282.6074, 1765.857
283.0895, 1761.792
283.5717, 1759.138
284.0538, 1756.682
284.5359, 1753.520
285.0180, 1749.744
285.5001, 1746.423
285.9822, 1743.550
286.4644, 1741.236
286.9465, 1740.350
287.4286, 1739.878
287.9107, 1738.164
288.3928, 1734.110
288.8749, 1728.398
289.3571, 1724.069
289.8392, 1722.192
290.3213, 1720.419
290.8034, 1718.535
291.2855, 1716.480
291.7676, 1714.153
292.2498, 1711.508
292.7319, 1708.697
293.2140, 1706.112
293.6961, 1703.836
294.1782, 1701.673
294.6603, 1699.492
295.1425, 1697.473
295.6246, 1695.768
296.1067, 1694.428
296.5888, 1693.407
297.0709, 1692.630
297.5530, 1692.152
298.0351, 1691.856
298.5172, 1692.350
298.9994, 1692.578
299.4815, 1691.674
299.9636, 1689.575
300.4457, 1686.987
300.9278, 1684.789
301.4099, 1683.189
301.8921, 1681.298
302.3742, 1678.920
302.8563, 1676.453
303.3384, 1673.960
303.8205, 1671.526
304.3026, 1669.383
304.7848, 1667.846
305.2669, 1667.030
305.7490, 1665.427
306.2311, 1662.991
306.7132, 1659.875
307.1953, 1655.264
307.6775, 1649.974
308.1596, 1645.803
308.6417, 1644.164
309.1238, 1644.714
309.6059, 1643.828
310.0880, 1639.565
310.5702, 1635.928
311.0523, 1633.562
311.5344, 1632.281
312.0165, 1631.895
312.4986, 1632.345
312.9807, 1633.301
313.4629, 1633.746
313.9450, 1633.847
314.4271, 1633.084
314.9092, 1631.112
315.3913, 1628.447
315.8734, 1625.240
316.3556, 1621.622
316.8377, 1618.283
317.3198, 1616.614
317.8019, 1618.395
318.2840, 1618.597
318.7661, 1616.395
319.2483, 1613.416
319.7304, 1610.839
320.2125, 1608.807
320.6946, 1606.620
321.1767, 1603.377
321.6588, 1598.617
322.1410, 1594.536
322.6231, 1592.086
323.1052, 1589.323
323.5873, 1584.885
324.0694, 1579.192
324.5515, 1573.939
325.0337, 1570.697
325.5158, 1569.482
325.9979, 1566.158
326.4800, 1558.671
326.9621, 1551.263
327.4442, 1544.889
327.9264, 1539.348
328.4085, 1534.282
328.8906, 1529.519
329.3727, 1524.951
329.8548, 1520.121
330.3369, 1514.284
330.8191, 1509.215
331.3012, 1505.118
331.7833, 1501.834
332.2654, 1499.436
332.7475, 1497.907
333.2296, 1496.634
333.7118, 1494.332
334.1939, 1489.800
334.6760, 1486.584
335.1581, 1485.274
335.6402, 1484.705
336.1223, 1484.036
336.6045, 1483.177
337.0866, 1482.679
337.5687, 1483.472
338.0508, 1486.255
338.5329, 1486.890
339.0150, 1482.623
339.4972, 1478.888
339.9793, 1478.022
340.4614, 1479.584
340.9435, 1481.906
341.4256, 1483.775
341.9077, 1485.244
342.3898, 1486.953
342.8719, 1489.155
343.3541, 1491.360
343.8362, 1493.782
344.3183, 1496.066
344.8004, 1497.501
345.2825, 1497.659
345.7646, 1497.385
346.2468, 1499.018
346.7289, 1503.873
347.2110, 1508.220
347.6931, 1511.206
348.1752, 1513.780
348.6573, 1516.573
349.1395, 1519.787
349.6216, 1523.424
350.1037, 1527.587
350.5858, 1532.374
351.0679, 1537.192
351.5500, 1542.565
352.0322, 1547.443
352.5143, 1550.753
352.9964, 1552.927
353.4785, 1555.605
353.9606, 1560.203
354.4427, 1566.647
354.9249, 1573.510
355.4070, 1581.506
355.8891, 1588.985
356.3712, 1594.966
356.8533, 1600.201
357.3354, 1605.831
357.8176, 1612.366
358.2997, 1619.789
358.7818, 1628.158
359.2639, 1638.027
359.7460, 1647.626
360.2281, 1655.563
360.7103, 1663.517
361.1924, 1673.377
361.6745, 1685.647
362.1566, 1698.325
362.6387, 1708.709
363.1208, 1716.593
363.6030, 1725.027
364.0851, 1734.770
364.5672, 1745.032
365.0493, 1755.476
365.5314, 1765.986
366.0135, 1776.293
366.4957, 1785.744
366.9778, 1794.665
367.4599, 1804.754
367.9420, 1816.352
368.4241, 1828.552
368.9063, 1840.985
369.3884, 1853.567
369.8705, 1866.281
370.3526, 1879.192
370.8347, 1892.086
371.3168, 1905.037
371.7990, 1918.199
372.2811, 1930.135
372.7632, 1939.113
373.2453, 1947.160
373.7274, 1956.922
374.2095, 1969.148
374.6917, 1981.016
375.1738, 1990.800
375.6559, 1998.534
376.1380, 2004.402
376.6201, 2008.253
377.1022, 2010.526
377.5844, 2012.012
378.0665, 2012.704
378.5486, 2011.470
379.0307, 2008.652
379.5128, 2003.363
379.9949, 1993.451
380.4771, 1978.344
380.9592, 1962.262
381.4413, 1948.311
381.9234, 1935.779
382.4055, 1922.201
382.8876, 1907.937
383.3698, 1891.948
383.8519, 1872.715
384.3340, 1850.953
384.8161, 1829.034
385.2982, 1807.954
385.7803, 1787.527
386.2624, 1767.834
386.7445, 1748.719
387.2267, 1730.305
387.7088, 1712.391
388.1909, 1695.186
388.6730, 1679.082
389.1551, 1664.087
389.6372, 1650.119
390.1194, 1637.151
390.6015, 1625.383
391.0836, 1613.830
391.5657, 1600.896
392.0478, 1589.585
392.5299, 1582.691
393.0121, 1579.263
393.4942, 1575.826
393.9763, 1570.098
394.4584, 1562.670
394.9405, 1556.656
395.4226, 1553.064
395.9048, 1549.555
396.3869, 1545.782
396.8690, 1541.894
397.3511, 1537.690
397.8332, 1533.210
398.3153, 1529.389
398.7975, 1527.883
399.2796, 1530.171
399.7617, 1530.957
400.2438, 1529.025
400.7259, 1526.889
401.2080, 1525.957
401.6902, 1526.154
402.1723, 1526.652
402.6544, 1526.771
403.1365, 1526.584
403.6186, 1526.955
404.1007, 1527.900
404.5829, 1529.478
405.0650, 1532.309
405.5471, 1535.525
406.0292, 1538.094
406.5113, 1539.615
406.9934, 1540.524
407.4756, 1541.257
407.9577, 1541.094
408.4398, 1542.997
408.9219, 1549.512
409.4040, 1556.322
409.8861, 1561.199
410.3683, 1564.106
410.8504, 1566.150
411.3325, 1567.884
411.8146, 1569.431
412.2967, 1571.728
412.7788, 1575.136
413.2610, 1578.719
413.7431, 1582.793
414.2252, 1586.590
414.7073, 1588.857
415.1894, 1588.864
415.6715, 1587.992
416.1537, 1588.176
416.6358, 1589.493
417.1179, 1590.318
417.6000, 1590.064
418.0821, 1589.207
418.5642, 1588.486
419.0464, 1587.901
419.5285, 1586.440
420.0106, 1583.133
420.4927, 1578.630
420.9748, 1574.341
421.4569, 1570.413
421.9391, 1566.640
422.4212, 1563.676
422.9033, 1560.735
423.3854, 1555.250
423.8675, 1544.523
424.3496, 1533.506
424.8318, 1525.935
425.3139, 1521.019
425.7960, 1515.871
426.2781, 1509.175
426.7602, 1502.000
427.2423, 1496.647
427.7245, 1493.648
428.2066, 1490.241
428.6887, 1484.806
429.1708, 1479.412
429.6529, 1476.474
430.1350, 1476.133
430.6172, 1476.448
431.0992, 1475.733
431.5814, 1473.974
432.0635, 1472.740
432.5456, 1472.860
433.0277, 1472.479
433.5098, 1470.642
433.9919, 1467.997
434.4741, 1465.421
434.9562, 1463.277
435.4383, 1461.755
435.9204, 1461.395
436.4025, 1463.801
436.8846, 1464.260
437.3668, 1461.100
437.8489, 1457.674
438.3310, 1456.125
438.8131, 1456.333
439.2952, 1456.900
439.7773, 1456.713
440.2595, 1455.839
440.7416, 1454.961
441.2237, 1454.243
441.7058, 1453.256
442.1879, 1450.989
442.6700, 1448.822
443.1522, 1448.690
443.6343, 1451.286
444.1164, 1454.445
444.5985, 1455.144
445.0806, 1453.155
445.5627, 1451.739
446.0449, 1451.845
446.5270, 1452.131
447.0091, 1452.058
447.4912, 1451.491
447.9733, 1450.017
448.4554, 1447.112
448.9376, 1443.290
449.4197, 1439.430
449.9018, 1435.524
450.3839, 1431.496
450.8660, 1427.299
451.3481, 1422.939
451.8303, 1418.768
452.3124, 1415.394
452.7945, 1410.367
453.2766, 1400.987
453.7587, 1389.285
454.2408, 1379.507
454.7230, 1372.700
455.2051, 1366.552
455.6872, 1358.455
456.1693, 1348.241
456.6514, 1339.911
457.1335, 1333.730
457.6157, 1329.202
458.0978, 1326.887
458.5799, 1326.040
459.0620, 1325.032
459.5441, 1323.121
460.0262, 1320.393
460.5084, 1317.057
460.9905, 1312.007
461.4726, 1308.115
461.9547, 1306.087
462.4368, 1304.672
462.9189, 1302.858
463.4011, 1300.676
463.8832, 1299.008
464.3653, 1298.804
464.8474, 1299.894
465.3295, 1299.411
465.8116, 1295.495
466.2938, 1292.379
466.7759, 1291.602
467.2580, 1291.711
467.7401, 1290.904
468.2222, 1288.648
468.7043, 1286.326
469.1865, 1286.280
469.6686, 1288.816
470.1507, 1289.488
470.6328, 1286.854
471.1149, 1283.409
471.5970, 1279.787
472.0792, 1276.487
472.5613, 1274.776
473.0434, 1275.863
473.5255, 1278.207
474.0076, 1279.667
474.4897, 1280.230
474.9719, 1280.231
475.4540, 1279.497
475.9361, 1278.523
476.4182, 1278.236
476.9003, 1278.819
477.3824, 1278.773
477.8645, 1277.048
478.3466, 1274.591
478.8288, 1272.612
479.3109, 1271.255
479.7930, 1270.406
480.2751, 1270.160
480.7572, 1270.375
481.2393, 1269.857
481.7215, 1268.620
482.2036, 1266.771
482.6857, 1263.908
483.1678, 1260.613
483.6499, 1257.732
484.1320, 1255.487
484.6142, 1253.288
485.0963, 1250.368
485.5784, 1246.612
486.0605, 1242.634
486.5426, 1238.855
487.0247, 1234.404
487.5069, 1228.567
487.9890, 1221.888
488.4711, 1215.242
488.9532, 1209.085
489.4353, 1203.323
489.9174, 1197.725
490.3996, 1192.061
490.8817, 1187.440
491.3638, 1185.491
491.8459, 1183.496
492.3280, 1180.037
492.8102, 1175.149
493.2923, 1169.511
493.7744, 1162.582
494.2565, 1155.501
494.7386, 1151.247
495.2207, 1150.321
495.7029, 1149.100
496.1850, 1145.708
496.6671, 1141.184
497.1492, 1137.024
497.6313, 1133.164
498.1134, 1130.147
498.5956, 1128.848
499.0777, 1128.340
499.5598, 1127.231
500.0419, 1125.311
500.5240, 1122.721
501.0061, 1119.306
501.4883, 1115.223
501.9704, 1112.470
502.4525, 1112.405
502.9346, 1111.931
503.4167, 1109.689
503.8988, 1106.646
504.3810, 1104.143
504.8631, 1102.567
505.3452, 1101.372
505.8273, 1099.858
506.3094, 1097.997
506.7915, 1095.983
507.2737, 1093.470
507.7558, 1091.171
508.2379, 1089.356
508.7200, 1087.904
509.2021, 1086.679
509.6842, 1085.644
510.1664, 1084.563
510.6485, 1082.795
511.1306, 1080.116
511.6127, 1078.406
512.0948, 1078.829
512.5769, 1079.378
513.0590, 1078.708
513.5411, 1077.036
514.0233, 1075.219
514.5054, 1073.516
514.9875, 1071.963
515.4696, 1070.583
515.9517, 1069.386
516.4338, 1068.731
516.9160, 1069.264
517.3981, 1069.799
517.8802, 1067.953
518.3623, 1063.382
518.8444, 1059.274
519.3265, 1055.999
519.8087, 1053.718
520.2908, 1053.335
520.7729, 1054.370
521.2550, 1054.468
521.7371, 1051.955
522.2192, 1047.611
522.7014, 1044.535
523.1835, 1043.867
523.6656, 1043.038
524.1477, 1041.673
524.6298, 1040.324
525.1119, 1039.488
525.5941, 1039.144
526.0762, 1038.917
526.5583, 1038.582
527.0404, 1038.069
527.5225, 1036.768
528.0046, 1033.914
528.4868, 1031.782
528.9689, 1032.267
529.4510, 1033.051
529.9331, 1031.610
530.4152, 1027.543
530.8973, 1023.470
531.3795, 1021.642
531.8616, 1021.382
532.3437, 1020.702
532.8258, 1019.396
533.3079, 1017.926
533.7900, 1016.446
534.2722, 1015.047
534.7543, 1013.988
535.2364, 1013.551
535.7185, 1012.963
536.2006, 1011.781
536.6827, 1010.297
537.1649, 1008.711
537.6470, 1007.124
538.1291, 1006.227
538.6112, 1006.930
539.0933, 1009.273
539.5754, 1009.829
540.0576, 1007.267
540.5397, 1004.627
541.0218, 1002.191
541.5039, 1000.174
541.9860, 998.9073
542.4681, 998.4222
542.9503, 998.2373
543.4324, 997.8375
543.9145, 997.2188
544.3966, 996.5173
544.8787, 995.9604
545.3608, 994.9455
545.8430, 992.4070
546.3251, 989.5865
546.8072, 988.4189
547.2893, 989.7076
547.7714, 991.3387
548.2535, 991.4796
548.7357, 990.4627
549.2178, 989.4229
549.6999, 988.5704
550.1820, 987.5817
550.6641, 985.7956
551.1462, 983.5099
551.6284, 982.8068
552.1105, 985.4291
552.5926, 987.6899
553.0747, 987.9567
553.5568, 986.9901
554.0389, 985.7998
554.5211, 984.6838
555.0032, 983.6245
555.4853, 982.5798
555.9674, 981.5292
556.4495, 980.7274
556.9316, 980.5507
557.4138, 980.1914
557.8959, 979.2192
558.3780, 978.0751
558.8601, 977.2724
559.3422, 976.9650
559.8243, 976.9821
560.3065, 977.6132
560.7886, 978.7258
561.2707, 977.9032
561.7528, 973.9778
562.2349, 970.2517
562.7170, 969.1389
563.1992, 969.4692
563.6813, 969.5119
564.1634, 968.8570
564.6455, 968.2010
565.1276, 968.1035
565.6097, 968.2823
566.0919, 968.2087
566.5740, 967.7826
567.0561, 967.0828
567.5382, 966.0744
568.0203, 964.7892
568.5024, 964.0117
568.9846, 964.4376
569.4667, 964.4092
569.9488, 962.8751
570.4309, 961.0785
570.9130, 960.6171
571.3951, 961.6346
571.8773, 962.8114
572.3594, 962.9542
572.8415, 962.0699
573.3236, 960.0344
573.8057, 955.4966
574.2878, 952.2968
574.7700, 952.9324
575.2521, 954.7031
575.7342, 954.9181
576.2163, 953.1202
576.6984, 951.0057
577.1805, 949.8585
577.6627, 949.2025
578.1448, 947.7479
578.6269, 945.3471
579.1090, 943.6564
579.5911, 943.9854
580.0732, 945.5091
580.5554, 945.7051
581.0375, 943.9406
581.5196, 942.3994
582.0017, 941.2122
582.4838, 940.6082
582.9659, 941.3429
583.4481, 943.0211
583.9302, 944.0139
584.4123, 943.1124
584.8944, 940.8874
585.3765, 939.4664
585.8586, 939.2820
586.3408, 939.0143
586.8229, 937.9698
587.3050, 937.2502
587.7871, 937.9249
588.2692, 939.6562
588.7513, 941.0282
589.2334, 941.3731
589.7155, 940.7853
590.1976, 938.9669
590.6797, 935.9553
591.1619, 933.7461
591.6440, 933.1249
592.1261, 933.3349
592.6082, 933.6244
593.0903, 934.0085
593.5724, 933.9631
594.0546, 933.0596
594.5367, 932.0422
595.0188, 931.2851
595.5009, 930.7728
595.9830, 930.3896
596.4651, 930.0887
596.9473, 930.0330
597.4294, 930.6381
597.9115, 932.2944
598.3936, 932.6917
598.8757, 929.9096
599.3578, 927.8883
599.8400, 928.6248
600.3221, 930.5251
600.8042, 931.1926
601.2863, 929.8130
601.7684, 928.0519
602.2505, 927.8467
602.7327, 928.7817
603.2148, 928.7956
603.6969, 927.4239
604.1790, 926.2204
604.6611, 926.2015
605.1432, 927.1654
605.6254, 928.3105
606.1075, 929.8943
606.5896, 931.1838
607.0717, 931.5309
607.5538, 931.7146
608.0359, 932.7899
608.5181, 934.6818
609.0002, 936.4077
609.4823, 937.2669
609.9644, 937.3300
610.4465, 936.8040
610.9286, 934.9022
611.4108, 933.9600
611.8929, 934.7423
612.3750, 936.0572
612.8571, 937.3258
613.3392, 938.4619
613.8214, 939.4908
614.3035, 940.3838
614.7856, 941.2181
615.2677, 942.1739
615.7498, 943.2267
616.2319, 943.9942
616.7141, 944.2675
617.1962, 944.4444
617.6783, 944.9481
618.1604, 945.7881
618.6425, 946.8353
619.1246, 948.3613
619.6068, 949.7951
620.0889, 951.1783
620.5710, 952.1998
621.0531, 952.1903
621.5352, 951.0653
622.0173, 949.7398
622.4995, 949.3538
622.9816, 949.9082
623.4637, 949.8878
623.9458, 949.3505
624.4279, 948.1016
624.9100, 945.7704
625.3922, 942.9591
625.8743, 940.0904
626.3564, 937.2304
626.8385, 934.7356
627.3206, 932.6870
627.8027, 931.1907
628.2849, 930.6622
628.7670, 931.0343
629.2491, 931.1849
629.7312, 930.4657
630.2133, 929.4560
630.6954, 929.2816
631.1776, 930.2853
631.6597, 931.2987
632.1418, 931.9316
632.6239, 932.9523
633.1060, 935.0831
633.5881, 937.8278
634.0703, 940.1265
634.5524, 941.5374
635.0345, 942.9652
635.5166, 945.9196
635.9987, 950.4605
636.4808, 954.5479
636.9630, 957.8878
637.4451, 961.1871
637.9272, 964.8610
638.4093, 968.7656
638.8914, 972.5939
639.3735, 976.1661
639.8557, 980.2656
640.3378, 985.6691
640.8199, 991.6466
641.3020, 997.1376
641.7841, 1002.154
642.2662, 1007.509
642.7484, 1013.760
643.2305, 1020.508
643.7126, 1026.529
644.1947, 1030.771
644.6768, 1036.300
645.1589, 1044.200
645.6411, 1052.203
646.1232, 1058.632
646.6053, 1064.329
647.0874, 1071.356
647.5695, 1080.810
648.0516, 1090.984
648.5338, 1099.774
649.0159, 1107.448
649.4980, 1115.557
649.9801, 1124.547
650.4622, 1133.336
650.9443, 1141.000
651.4265, 1147.830
651.9086, 1155.364
652.3907, 1163.842
652.8728, 1172.585
653.3549, 1181.915
653.8370, 1191.160
654.3192, 1199.736
654.8013, 1207.646
655.2834, 1215.083
655.7655, 1222.161
656.2476, 1228.934
656.7297, 1235.629
657.2119, 1242.396
657.6940, 1248.295
658.1761, 1252.142
658.6582, 1256.322
659.1403, 1262.765
659.6224, 1270.649
660.1046, 1278.001
660.5867, 1284.469
661.0688, 1289.924
661.5509, 1293.977
662.0330, 1297.019
662.5151, 1299.140
662.9973, 1300.545
663.4794, 1303.139
663.9615, 1308.827
664.4436, 1316.536
664.9257, 1320.830
665.4078, 1319.037
665.8900, 1318.064
666.3721, 1319.163
666.8542, 1320.442
667.3363, 1320.947
667.8184, 1320.613
668.3005, 1319.709
668.7827, 1318.549
669.2648, 1316.474
669.7469, 1312.494
670.2290, 1306.806
670.7111, 1300.515
671.1932, 1293.823
671.6754, 1286.538
672.1575, 1278.431
672.6396, 1269.550
673.1217, 1260.222
673.6038, 1250.683
674.0859, 1240.487
674.5681, 1229.910
675.0502, 1218.326
675.5323, 1204.302
676.0144, 1188.635
676.4965, 1174.379
676.9786, 1163.723
677.4608, 1154.558
677.9428, 1141.846
678.4249, 1125.225
678.9070, 1111.012
679.3892, 1101.037
679.8713, 1092.189
680.3534, 1081.907
680.8355, 1070.863
681.3176, 1060.798
681.7997, 1052.140
682.2819, 1044.055
682.7640, 1036.680
683.2461, 1029.340
683.7282, 1020.829
684.2103, 1011.389
684.6924, 1002.759
685.1746, 996.1275
685.6567, 990.9318
686.1388, 985.9205
686.6209, 981.2457
687.1030, 976.2038
687.5851, 970.5984
688.0673, 964.7130
688.5494, 958.2537
689.0315, 951.7408
689.5136, 946.4826
689.9957, 943.5281
690.4778, 939.9093
690.9600, 932.4125
691.4421, 923.6475
691.9242, 917.9089
692.4063, 915.3875
692.8884, 913.4306
693.3705, 910.4016
693.8527, 906.6915
694.3348, 903.4666
694.8169, 901.2848
695.2990, 898.3056
695.7811, 893.6552
696.2632, 889.0442
696.7454, 885.2529
697.2275, 881.9684
697.7096, 878.5346
698.1917, 874.6531
698.6738, 871.1795
699.1559, 869.1741
699.6381, 867.9675
700.1202, 866.1505
700.6023, 863.6309
701.0844, 861.0801
701.5665, 858.8802
702.0486, 856.8325
702.5308, 854.4495
703.0129, 851.2454
703.4950, 848.9338
703.9771, 847.8814
704.4592, 847.2011
704.9413, 847.2735
705.4235, 847.1957
705.9056, 845.3958
706.3877, 841.4620
706.8698, 837.4863
707.3519, 835.3584
707.8340, 834.5873
708.3162, 834.1680
708.7983, 834.0610
709.2804, 833.3818
709.7625, 831.6619
710.2446, 829.3513
710.7267, 827.1466
711.2089, 825.1353
711.6910, 822.8643
712.1731, 819.9241
712.6552, 817.2152
713.1373, 815.1722
713.6194, 813.4812
714.1016, 811.7204
714.5837, 809.8068
715.0658, 807.9539
715.5479, 806.5880
716.0300, 805.3209
716.5121, 803.0006
716.9943, 799.6044
717.4764, 796.3490
717.9585, 793.5797
718.4406, 791.1458
718.9227, 788.8878
719.4048, 786.8061
719.8870, 785.0272
720.3691, 784.2811
720.8512, 782.9211
721.3333, 779.9023
721.8154, 776.4329
722.2975, 773.6920
722.7797, 771.7937
723.2618, 770.2257
723.7439, 768.7009
724.2260, 767.1929
724.7081, 765.4637
725.1902, 763.5417
725.6724, 762.5246
726.1545, 762.9844
726.6366, 763.3342
727.1187, 762.0498
727.6008, 759.4893
728.0829, 757.7843
728.5651, 758.0878
729.0472, 757.4777
729.5293, 754.6164
730.0114, 751.3647
730.4935, 748.9892
730.9756, 747.5156
731.4578, 746.5767
731.9399, 746.0067
732.4220, 745.7252
732.9041, 745.7410
733.3862, 746.0012
733.8683, 746.1906
734.3505, 746.4733
734.8326, 745.6577
735.3147, 742.2433
735.7968, 737.8562
736.2789, 736.4884
736.7610, 739.2418
737.2432, 741.0477
737.7253, 741.0039
738.2074, 740.3738
738.6895, 739.5449
739.1716, 738.7094
739.6537, 738.0471
740.1359, 737.6192
740.6180, 737.4213
741.1001, 737.7362
741.5822, 738.2678
742.0643, 737.7339
742.5464, 736.0461
743.0286, 734.5209
743.5107, 733.4991
743.9928, 733.0499
744.4749, 733.5085
744.9570, 734.9962
745.4391, 735.4940
745.9213, 733.9550
746.4034, 732.7620
746.8855, 732.7082
747.3676, 733.2319
747.8497, 733.9240
748.3318, 734.6298
748.8140, 735.1467
749.2961, 735.3054
749.7782, 735.2900
750.2603, 735.4460
750.7424, 735.7352
751.2245, 735.8762
751.7067, 735.8301
752.1888, 735.5525
752.6709, 734.9257
753.1530, 734.0771
753.6351, 733.5186
754.1172, 733.1974
754.5994, 733.2818
755.0815, 734.4867
755.5636, 735.4139
756.0457, 734.7142
756.5278, 733.2917
757.0099, 733.0298
757.4921, 734.6030
757.9742, 736.4651
758.4563, 736.9381
758.9384, 736.6637
759.4205, 737.4976
759.9026, 739.4226
760.3848, 740.5176
760.8669, 739.7809
761.3490, 738.4685
761.8311, 738.4532
762.3132, 739.8820
762.7953, 741.5346
763.2775, 744.0856
763.7596, 746.0047
764.2417, 746.2238
764.7238, 746.1972
765.2059, 747.5064
765.6880, 750.0323
766.1702, 752.2116
766.6523, 752.8863
767.1344, 753.2664
767.6165, 754.8326
768.0986, 757.1232
768.5807, 758.7310
769.0628, 759.4449
769.5449, 760.5580
770.0270, 763.1290
770.5092, 766.7323
770.9913, 769.9232
771.4734, 772.6605
771.9555, 775.0769
772.4376, 776.8911
772.9197, 778.6747
773.4019, 780.3986
773.8840, 782.3604
774.3661, 785.3174
774.8482, 789.6995
775.3303, 793.2411
775.8124, 793.6463
776.2946, 793.5280
776.7767, 795.9380
777.2588, 800.1916
777.7409, 804.0150
778.2230, 806.5864
778.7051, 808.5751
779.1873, 810.8072
779.6694, 813.2170
780.1515, 815.0870
780.6336, 816.2354
781.1157, 817.4335
781.5978, 818.9994
782.0800, 820.5838
782.5621, 822.0961
783.0442, 823.4224
783.5263, 823.9378
784.0084, 822.3881
784.4905, 821.5021
784.9727, 823.5603
785.4548, 825.8005
785.9369, 824.9850
786.4190, 821.6502
786.9011, 818.5842
787.3832, 817.2631
787.8654, 816.8322
788.3475, 815.9548
788.8296, 814.7511
789.3117, 814.4396
789.7938, 815.2702
790.2759, 815.8596
790.7581, 815.6472
791.2402, 814.6539
791.7223, 812.7410
792.2044, 809.5367
792.6865, 807.1095
793.1686, 805.6229
793.6508, 804.7003
794.1329, 804.7414
794.6150, 804.9738
795.0971, 804.4132
795.5792, 803.1317
796.0613, 802.3132
796.5435, 803.4084
797.0256, 804.2504
797.5077, 801.7052
797.9898, 796.7491
798.4719, 792.1329
798.9540, 788.3474
799.4362, 784.9832
799.9183, 781.8068
800.4004, 778.7178
800.8825, 775.4623
801.3646, 772.1113
801.8467, 768.3674
802.3289, 763.9617
802.8110, 759.4848
803.2931, 755.3746
803.7752, 751.2289
804.2573, 746.3300
804.7394, 740.5463
805.2216, 735.2333
805.7037, 731.3005
806.1858, 727.6094
806.6679, 723.1583
807.1500, 718.4000
807.6321, 714.2443
808.1143, 710.8193
808.5964, 707.5059
809.0785, 703.6917
809.5606, 699.7256
810.0427, 696.7338
810.5248, 694.7942
811.0070, 692.0226
811.4891, 687.7889
811.9712, 683.5486
812.4533, 680.1283
812.9354, 677.4901
813.4175, 675.7040
813.8997, 675.7025
814.3818, 674.3063
814.8639, 669.9509
815.3460, 665.6519
815.8281, 662.6436
816.3102, 660.7137
816.7924, 659.8846
817.2745, 659.9725
817.7566, 659.3961
818.2387, 656.2578
818.7208, 652.3039
819.2029, 650.2045
819.6851, 649.4654
820.1672, 648.4004
820.6493, 646.6157
821.1314, 644.7272
821.6135, 643.2750
822.0956, 642.0895
822.5778, 640.4437
823.0599, 638.0723
823.5420, 636.1258
824.0241, 634.9244
824.5062, 633.8648
824.9883, 632.8152
825.4705, 631.6285
825.9526, 629.8347
826.4347, 627.1437
826.9168, 625.3876
827.3989, 626.2430
827.8810, 627.0168
828.3632, 625.5042
828.8453, 622.9502
829.3274, 621.4892
829.8095, 621.4342
830.2916, 621.3829
830.7737, 620.1813
831.2559, 618.3890
831.7380, 617.0364
832.2201, 616.1111
832.7022, 615.7221
833.1843, 615.9783
833.6664, 615.8127
834.1486, 614.3976
834.6307, 612.1819
835.1128, 610.3815
835.5949, 609.0657
836.0770, 607.9640
836.5591, 607.1512
837.0413, 606.4705
837.5234, 606.2410
838.0055, 605.9045
838.4876, 604.5828
838.9697, 602.2891
839.4518, 600.4772
839.9340, 599.9659
840.4161, 599.8990
840.8982, 600.0643
841.3803, 600.0971
841.8624, 599.2401
842.3445, 597.6000
842.8267, 596.1843
843.3088, 595.6619
843.7909, 595.4681
844.2730, 594.2020
844.7551, 592.0359
845.2372, 591.9251
845.7194, 594.4694
846.2015, 596.3754
846.6836, 596.0349
847.1657, 594.3734
847.6478, 592.5739
848.1299, 590.4982
848.6121, 589.4513
849.0942, 590.4991
849.5763, 591.1396
850.0584, 590.9820
850.5405, 590.1976
851.0226, 588.5969
851.5048, 586.4875
851.9869, 584.6973
852.4690, 583.4257
852.9511, 582.7564
853.4332, 583.2277
853.9153, 584.0184
854.3975, 584.2919
854.8796, 583.9276
855.3617, 582.7130
855.8438, 580.6046
856.3259, 578.3660
856.8080, 576.9174
857.2901, 576.1351
857.7722, 575.2385
858.2543, 574.1710
858.7365, 573.8195
859.2186, 574.6266
859.7007, 575.5929
860.1828, 575.8586
860.6649, 575.5441
861.1470, 575.2830
861.6292, 575.4164
862.1113, 575.0361
862.5934, 573.5943
863.0755, 572.2425
863.5576, 571.5643
864.0397, 571.2875
864.5219, 571.0213
865.0040, 570.6971
865.4861, 570.3914
865.9682, 570.4666
866.4503, 570.2648
866.9324, 568.6667
867.4146, 566.6554
867.8967, 566.1804
868.3788, 567.2549
868.8609, 567.9457
869.3430, 566.8909
869.8251, 565.1764
870.3073, 565.0754
870.7894, 566.3350
871.2715, 566.2657
871.7536, 564.5228
872.2357, 563.0246
872.7178, 562.7911
873.2000, 562.8763
873.6821, 561.7106
874.1642, 559.0984
874.6463, 558.0958
875.1284, 560.4280
875.6105, 561.7614
876.0927, 560.8031
876.5748, 559.2793
877.0569, 558.0807
877.5390, 557.2936
878.0211, 557.0786
878.5032, 557.7784
878.9854, 558.1153
879.4675, 557.2963
879.9496, 556.1184
880.4317, 555.2209
880.9138, 554.4808
881.3959, 553.4218
881.8781, 552.0024
882.3602, 550.9552
882.8423, 551.1113
883.3244, 551.7607
883.8065, 551.3586
884.2886, 550.1807
884.7708, 549.6028
885.2529, 549.8523
885.7350, 550.5021
886.2171, 551.4211
886.6992, 552.1050
887.1813, 551.3030
887.6635, 548.6360
888.1456, 546.8713
888.6277, 546.4295
889.1098, 546.0573
889.5919, 545.1678
890.0740, 544.3400
890.5562, 544.3831
891.0383, 545.1403
891.5204, 545.4045
892.0025, 544.8928
892.4846, 544.1398
892.9667, 542.9763
893.4489, 541.8600
893.9310, 540.9191
894.4131, 540.3342
894.8952, 540.5618
895.3773, 541.7139
895.8594, 542.6588
896.3416, 542.7411
896.8237, 542.0728
897.3058, 540.0671
897.7879, 537.5660
898.2700, 536.9445
898.7521, 538.3607
899.2343, 539.3634
899.7164, 538.1478
900.1985, 535.8487
900.6806, 534.8810
901.1627, 535.1693
901.6448, 534.9990
902.1270, 534.1848
902.6091, 533.6064
903.0912, 533.7240
903.5733, 534.0607
904.0554, 534.0356
904.5375, 533.6516
905.0197, 532.9623
905.5018, 531.7336
905.9839, 530.6017
906.4660, 529.1965
906.9481, 528.3599
907.4302, 529.2864
907.9124, 530.9148
908.3945, 530.9363
908.8766, 528.6554
909.3587, 526.9020
909.8408, 526.9707
910.3229, 527.3049
910.8051, 527.0029
911.2872, 526.3809
911.7693, 525.8126
912.2514, 525.4009
912.7335, 525.2350
913.2156, 525.4579
913.6978, 525.6635
914.1799, 525.2171
914.6620, 524.5027
915.1441, 524.4467
915.6262, 524.9306
916.1083, 525.0306
916.5905, 524.3874
917.0726, 523.5510
917.5547, 523.1764
918.0368, 523.1396
918.5189, 522.7422
919.0010, 521.9316
919.4832, 521.7361
919.9653, 522.6210
920.4474, 522.9998
920.9295, 521.5797
921.4116, 519.1985
921.8937, 517.7955
922.3759, 517.5538
922.8580, 517.6151
923.3401, 518.4713
923.8222, 518.9294
924.3043, 518.7717
924.7864, 518.0435
925.2686, 516.2681
925.7507, 513.8624
926.2328, 512.5860
926.7149, 513.2136
927.1970, 514.0434
927.6791, 515.1885
928.1613, 515.7469
928.6434, 514.4908
929.1255, 512.4693
929.6076, 511.5005
930.0897, 511.8727
930.5718, 512.1271
931.0540, 511.1634
931.5361, 509.8623
932.0182, 509.0612
932.5003, 508.6201
932.9824, 508.3804
933.4645, 508.2517
933.9467, 507.9481
934.4288, 507.3304
934.9109, 506.7872
935.3930, 507.0290
935.8751, 507.7823
936.3572, 507.9215
936.8394, 507.4409
937.3215, 505.8558
937.8036, 502.8316
938.2857, 500.7732
938.7678, 501.8804
939.2499, 504.8080
939.7321, 505.4135
940.2142, 502.7660
940.6963, 501.6002
941.1784, 502.5487
941.6605, 503.6771
942.1426, 504.5871
942.6248, 505.0626
943.1069, 504.7376
943.5890, 503.6649
944.0711, 502.6718
944.5532, 501.3327
945.0353, 500.7119
945.5175, 501.7731
945.9996, 502.6518
946.4817, 502.1886
946.9637, 500.9765
947.4459, 499.7707
947.9280, 498.7200
948.4101, 498.2006
948.8922, 498.9132
949.3743, 499.5374
949.8564, 499.0123
950.3386, 498.2192
950.8207, 498.1299
951.3028, 498.6817
951.7849, 499.5304
952.2670, 500.5441
952.7491, 501.1100
953.2313, 500.4149
953.7134, 499.1100
954.1955, 498.0970
954.6776, 497.3128
955.1597, 496.2952
955.6418, 495.1127
956.1240, 494.9987
956.6061, 496.9102
957.0882, 499.2475
957.5703, 498.7076
958.0524, 495.8749
958.5345, 495.1375
959.0167, 496.6373
959.4988, 497.3591
959.9809, 496.1956
960.4630, 494.9807
960.9451, 495.4753
961.4272, 497.3032
961.9094, 499.0207
962.3915, 500.7535
962.8736, 501.7498
963.3557, 501.6239
963.8378, 501.5670
964.3199, 502.0047
964.8021, 502.8524
965.2842, 504.0353
965.7663, 505.5489
966.2484, 507.2515
966.7305, 509.5284
967.2126, 511.4173
967.6948, 512.3990
968.1769, 513.4700
968.6590, 515.2752
969.1411, 517.4328
969.6232, 519.2842
970.1053, 520.7477
970.5875, 522.5556
971.0696, 525.5743
971.5517, 528.1106
972.0338, 528.6349
972.5159, 529.1234
972.9980, 531.5128
973.4802, 535.3092
973.9623, 539.1124
974.4444, 542.5218
974.9265, 545.5050
975.4086, 547.3611
975.8907, 549.4684
976.3729, 553.9816
976.8550, 559.1155
977.3371, 561.9396
977.8192, 562.4632
978.3013, 562.7880
978.7834, 564.0607
979.2656, 564.3464
979.7477, 561.2455
980.2298, 555.7879
980.7119, 549.4553
981.1940, 542.5932
981.6761, 535.9947
982.1583, 529.8719
982.6404, 524.1053
983.1225, 518.5582
983.6046, 513.2842
984.0867, 508.2741
984.5688, 503.5596
985.0510, 499.4350
985.5331, 495.8999
986.0152, 493.3526
986.4973, 491.9829
986.9794, 491.0399
987.4615, 489.8629
987.9437, 488.5189
988.4258, 487.1695
988.9079, 485.7262
989.3900, 484.9365
989.8721, 484.9177
990.3542, 485.2842
990.8364, 485.9887
991.3185, 486.8352
991.8006, 487.6576
992.2827, 488.4276
992.7648, 488.8755
993.2469, 488.8251
993.7291, 488.8281
994.2112, 488.8506
994.6933, 489.0218
995.1754, 489.7218
995.6575, 490.3867
996.1396, 490.0521
996.6218, 488.7717
997.1039, 488.2535
997.5860, 488.7451
998.0681, 489.7321
998.5502, 491.7005
999.0323, 493.5604
999.5145, 494.3447
999.9966, 494.8495
1000.479, 496.5168
1000.961, 499.4246
1001.443, 501.4352
1001.925, 500.4969
1002.407, 500.5571
1002.889, 503.9842
1003.371, 508.0987
1003.854, 511.2722
1004.336, 513.3362
1004.818, 514.0338
1005.300, 513.4052
1005.782, 513.2286
1006.264, 515.5444
1006.746, 517.3110
1007.228, 516.4716
1007.710, 513.9594
1008.193, 510.2261
1008.675, 505.8942
1009.157, 502.1004
1009.639, 499.1701
1010.121, 496.3335
1010.603, 492.7987
1011.085, 489.2152
1011.567, 486.4396
1012.049, 484.0793
1012.532, 481.3402
1013.014, 478.3623
1013.496, 476.0519
1013.978, 474.7653
1014.460, 473.8970
1014.942, 473.0140
1015.424, 472.0005
1015.906, 470.2428
1016.389, 468.2365
1016.871, 467.8154
1017.353, 468.8846
1017.835, 469.0793
1018.317, 467.2223
1018.799, 464.9612
1019.281, 464.4480
1019.763, 465.1384
1020.245, 465.1847
1020.728, 464.7260
1021.210, 464.7514
1021.692, 465.4064
1022.174, 466.1008
1022.656, 466.5253
1023.138, 466.6262
1023.620, 466.1714
1024.102, 465.3207
1024.584, 465.3819
1025.067, 466.3827
1025.549, 466.5918
1026.031, 465.6230
1026.513, 464.5655
1026.995, 463.9931
1027.477, 463.9864
1027.959, 464.8998
1028.441, 466.6552
1028.924, 466.7184
1029.406, 464.5860
1029.888, 463.7661
1030.370, 465.2355
1030.852, 466.8651
1031.334, 467.3375
1031.816, 467.2384
1032.298, 467.6528
1032.781, 468.6125
1033.263, 469.3041
1033.745, 469.6264
1034.227, 469.9878
1034.709, 470.4450
1035.191, 470.9958
1035.673, 471.6817
1036.155, 472.4155
1036.637, 472.9557
1037.120, 473.2246
1037.602, 474.2152
1038.084, 476.7490
1038.566, 478.3211
1039.048, 477.9685
1039.530, 477.3998
1040.012, 477.7328
1040.494, 478.4286
1040.976, 478.4183
1041.459, 477.5403
1041.941, 477.2753
1042.423, 478.1361
1042.905, 478.8143
1043.387, 479.0748
1043.869, 479.1940
1044.351, 479.2940
1044.833, 479.3592
1045.316, 479.3367
1045.798, 479.2109
1046.280, 479.1906
1046.762, 479.6421
1047.244, 479.6814
1047.726, 478.8130
1048.208, 477.8832
1048.690, 477.4029
1049.172, 477.1596
1049.655, 476.9147
1050.137, 476.6549
1050.619, 475.9699
1051.101, 474.3522
1051.583, 472.9648
1052.065, 472.4047
1052.547, 471.7640
1053.029, 470.1783
1053.511, 468.3543
1053.994, 467.5521
1054.476, 467.8001
1054.958, 467.4767
1055.440, 465.7135
1055.922, 464.0920
1056.404, 463.1628
1056.886, 462.3191
1057.368, 461.3197
1057.851, 460.0945
1058.333, 458.3340
1058.815, 456.1518
1059.297, 454.6797
1059.779, 454.8988
1060.261, 454.7027
1060.743, 452.8297
1061.225, 450.9889
1061.708, 450.4991
1062.190, 450.5379
1062.672, 449.7456
1063.154, 448.2355
1063.636, 447.6238
1064.118, 449.2289
1064.600, 449.9463
1065.082, 447.6222
1065.564, 445.1436
1066.047, 444.3294
1066.529, 444.4497
1067.011, 444.5266
1067.493, 444.5199
1067.975, 444.9818
1068.457, 446.4317
1068.939, 447.2646
1069.421, 446.0460
1069.903, 444.8690
1070.386, 445.3621
1070.868, 446.4180
1071.350, 446.6931
1071.832, 446.2691
1072.314, 445.9751
1072.796, 446.0742
1073.278, 446.2231
1073.760, 446.4367
1074.243, 446.4601
1074.725, 445.6678
1075.207, 444.9638
1075.689, 445.7234
1076.171, 447.3593
1076.653, 447.9213
1077.135, 446.7391
1077.617, 446.0792
1078.099, 447.7018
1078.582, 449.2367
1079.064, 449.3038
1079.546, 448.6853
1080.028, 447.9167
1080.510, 447.2050
1080.992, 446.9034
1081.474, 447.0848
1081.956, 446.8941
1082.438, 445.2901
1082.921, 444.0724
1083.403, 444.1621
1083.885, 445.0321
1084.367, 446.8940
1084.849, 448.8969
1085.331, 449.4938
1085.813, 448.5362
1086.295, 447.7354
1086.777, 447.4735
1087.260, 447.9871
1087.742, 450.2212
1088.224, 452.4286
1088.706, 453.0150
1089.188, 452.8232
1089.670, 453.1313
1090.152, 454.0775
1090.634, 455.2012
1091.117, 456.5831
1091.599, 457.5763
1092.081, 457.1920
1092.563, 457.1411
1093.045, 459.0159
1093.527, 461.5041
1094.009, 462.7017
1094.491, 462.9410
1094.974, 464.3903
1095.456, 468.2310
1095.938, 470.9822
1096.420, 470.2892
1096.902, 469.5190
1097.384, 470.6588
1097.866, 472.3358
1098.348, 473.3749
1098.830, 473.7292
1099.313, 473.5539
1099.795, 472.8170
1100.277, 472.1118
1100.759, 471.3592
1101.241, 471.0080
1101.723, 471.8207
1102.205, 472.5322
1102.687, 472.1668
1103.169, 471.0053
1103.652, 469.7986
1104.134, 468.6303
1104.616, 466.4151
1105.098, 461.2116
1105.580, 457.4072
1106.062, 457.4549
1106.544, 457.6369
1107.026, 455.8801
1107.509, 452.9672
1107.991, 449.6548
1108.473, 446.1712
1108.955, 443.5453
1109.437, 442.6236
1109.919, 441.2378
1110.401, 438.9449
1110.883, 436.3640
1111.365, 432.9948
1111.848, 430.0493
1112.330, 428.9609
1112.812, 429.2772
1113.294, 429.2599
1113.776, 428.6396
1114.258, 428.2445
1114.740, 428.6521
1115.222, 428.5234
1115.704, 427.2478
1116.187, 425.6526
1116.669, 423.8755
1117.151, 422.3246
1117.633, 421.9741
1118.115, 423.0028
1118.597, 423.6275
1119.079, 423.8137
1119.561, 423.6340
1120.044, 422.8714
1120.526, 422.0830
1121.008, 421.4807
1121.490, 421.0664
1121.972, 420.8633
1122.454, 420.8604
1122.936, 420.9108
1123.418, 420.9678
1123.901, 421.2388
1124.383, 421.8295
1124.865, 422.4082
1125.347, 422.8601
1125.829, 423.2787
1126.311, 423.7833
1126.793, 424.2910
1127.275, 424.5392
1127.757, 424.4984
1128.240, 424.2953
1128.722, 423.7229
1129.204, 424.1543
1129.686, 426.1726
1130.168, 427.9972
1130.650, 428.4279
1131.132, 428.1770
1131.614, 428.4093
1132.096, 429.0695
1132.579, 429.5336
1133.061, 429.7784
1133.543, 430.9785
1134.025, 433.3772
1134.507, 434.4446
1134.989, 432.9668
1135.471, 431.2966
1135.953, 431.9932
1136.436, 434.1547
1136.918, 435.4359
1137.400, 435.9010
1137.882, 435.8394
1138.364, 435.3306
1138.846, 434.7686
1139.328, 434.2919
1139.810, 434.2460
1140.292, 434.9042
1140.775, 435.8028
1141.257, 436.2601
1141.739, 436.4164
1142.221, 436.6191
1142.703, 436.8398
1143.185, 437.0684
1143.667, 437.2305
1144.149, 436.9207
1144.631, 436.0013
1145.114, 435.2441
1145.596, 435.5333
1146.078, 436.1308
1146.560, 436.0242
1147.042, 435.5679
1147.524, 435.4551
1148.006, 435.4620
1148.488, 434.7699
1148.971, 433.3481
1149.453, 432.1782
1149.935, 431.8477
1150.417, 431.7197
1150.899, 431.1270
1151.381, 430.6664
1151.863, 431.4532
1152.345, 432.3519
1152.828, 431.3889
1153.310, 429.1272
1153.792, 427.9293
1154.274, 428.5390
1154.756, 428.7460
1155.238, 427.2569
1155.720, 425.4911
1156.202, 423.8442
1156.684, 422.4769
1157.167, 421.6828
1157.649, 421.1464
1158.131, 420.4292
1158.613, 419.4781
1159.095, 418.3187
1159.577, 416.5278
1160.059, 415.3491
1160.541, 415.5290
1161.023, 415.6634
1161.506, 415.4129
1161.988, 414.7019
1162.470, 412.9573
1162.952, 410.8011
1163.434, 410.0923
1163.916, 411.3114
1164.398, 411.3673
1164.880, 409.2833
1165.363, 408.1662
1165.845, 409.4186
1166.327, 409.7560
1166.809, 406.9381
1167.291, 403.2019
1167.773, 401.3959
1168.255, 401.2838
1168.737, 401.7090
1169.219, 402.9590
1169.702, 402.6100
1170.184, 400.2681
1170.666, 398.4215
1171.148, 397.8278
1171.630, 397.6145
1172.112, 397.1192
1172.594, 396.7126
1173.076, 397.3860
1173.558, 398.7314
1174.041, 398.0121
1174.523, 395.6169
1175.005, 394.5058
1175.487, 394.9199
1175.969, 395.2627
1176.451, 394.8742
1176.933, 393.9933
1177.415, 392.6613
1177.897, 391.4294
1178.380, 391.3214
1178.862, 391.8492
1179.344, 392.2022
1179.826, 392.3302
1180.308, 392.2007
1180.790, 391.8751
1181.272, 391.5589
1181.754, 391.3399
1182.237, 391.2867
1182.719, 391.8331
1183.201, 392.1366
1183.683, 391.1788
1184.165, 389.8428
1184.647, 389.0283
1185.129, 388.6491
1185.611, 388.3104
1186.094, 387.9804
1186.576, 388.0973
1187.058, 389.3154
1187.540, 389.9118
1188.022, 389.0226
1188.504, 387.7516
1188.986, 385.9211
1189.468, 384.5796
1189.950, 385.2482
1190.432, 387.0511
1190.915, 387.5408
1191.397, 386.3197
1191.879, 385.6112
1192.361, 385.9073
1192.843, 385.7702
1193.325, 384.8501
1193.807, 383.8253
1194.289, 382.8221
1194.772, 382.1632
1195.254, 382.3178
1195.736, 383.0092
1196.218, 383.1640
1196.700, 382.6938
1197.182, 382.6551
1197.664, 383.1253
1198.146, 383.0493
1198.629, 382.1795
1199.111, 381.2735
1199.593, 380.7419
1200.075, 380.5218
1200.557, 380.6432
1201.039, 380.8644
1201.521, 380.1684
1202.003, 379.1128
1202.485, 380.1577
1202.968, 382.6232
1203.450, 383.1491
1203.932, 381.2179
1204.414, 379.3759
1204.896, 379.0685
1205.378, 379.3294
1205.860, 379.4276
1206.342, 379.4361
1206.824, 379.3547
1207.307, 379.2875
1207.789, 379.6307
1208.271, 380.0063
1208.753, 379.4098
1209.235, 377.7800
1209.717, 376.5139
1210.199, 376.1928
1210.681, 376.1612
1211.164, 376.4427
1211.646, 376.6544
1212.128, 376.6948
1212.610, 376.5036
1213.092, 375.8955
1213.574, 375.0512
1214.056, 374.3817
1214.538, 373.8814
1215.021, 373.6891
1215.503, 374.0944
1215.985, 374.0862
1216.467, 373.2935
1216.949, 372.8155
1217.431, 373.2237
1217.913, 373.6952
1218.395, 373.4191
1218.877, 372.7451
1219.359, 372.7380
1219.842, 373.3081
1220.324, 372.2752
1220.806, 369.8158
1221.288, 368.9195
1221.770, 369.9243
1222.252, 371.2171
1222.734, 372.0931
1223.216, 372.3424
1223.699, 371.5805
1224.181, 370.6597
1224.663, 371.1426
1225.145, 372.0783
1225.627, 371.6010
1226.109, 370.4706
1226.591, 370.3729
1227.073, 371.2729
1227.556, 372.2160
1228.038, 372.8769
1228.520, 372.9741
1229.002, 371.6936
1229.484, 370.7072
1229.966, 371.0734
1230.448, 371.7558
1230.930, 372.3628
1231.412, 372.6290
1231.895, 372.0373
1232.377, 370.8544
1232.859, 370.1563
1233.341, 370.0217
1233.823, 370.4459
1234.305, 372.3786
1234.787, 372.8293
1235.269, 370.6835
1235.751, 368.5272
1236.234, 367.3986
1236.716, 367.2696
1237.198, 368.3790
1237.680, 370.0331
1238.162, 369.8980
1238.644, 368.0881
1239.126, 366.6611
1239.608, 365.6826
1240.091, 365.7892
1240.573, 366.8970
1241.055, 367.1517
1241.537, 365.7529
1242.019, 364.4561
1242.501, 365.0282
1242.983, 366.1597
1243.465, 366.1796
1243.948, 365.6760
1244.430, 365.3083
1244.912, 365.1143
1245.394, 365.0165
1245.876, 365.0594
1246.358, 365.5626
1246.840, 366.6577
1247.322, 367.1282
1247.804, 365.9301
1248.286, 364.8793
1248.769, 364.9047
1249.251, 364.8488
1249.733, 363.6608
1250.215, 362.4315
1250.697, 362.5761
1251.179, 363.5171
1251.661, 363.4722
1252.143, 362.2160
1252.626, 362.2047
1253.108, 363.8644
1253.590, 364.8094
1254.072, 364.6453
1254.554, 364.4442
1255.036, 364.6626
1255.518, 364.5878
1256.000, 363.5167
1256.483, 362.0663
1256.965, 361.3026
1257.447, 361.1263
1257.929, 361.5666
1258.411, 362.2806
1258.893, 362.3165
1259.375, 361.7314
1259.857, 361.0385
1260.339, 360.4510
1260.822, 360.2074
1261.304, 360.5570
1261.786, 360.9524
1262.268, 361.3969
1262.750, 361.3516
1263.232, 359.8185
1263.714, 358.2146
1264.196, 358.0180
1264.678, 358.7101
1265.161, 359.1673
1265.643, 359.3073
1266.125, 359.3798
1266.607, 359.4131
1267.089, 359.3229
1267.571, 359.0763
1268.053, 358.7721
1268.535, 358.4051
1269.017, 358.0966
1269.500, 357.9348
1269.982, 357.8026
1270.464, 357.4734
1270.946, 357.1294
1271.428, 357.6041
1271.910, 358.5586
1272.392, 358.4887
1272.874, 357.5794
1273.357, 356.7375
1273.839, 356.2050
1274.321, 356.1033
1274.803, 356.4792
1275.285, 356.6217
1275.767, 355.5665
1276.249, 354.6863
1276.731, 355.4702
1277.214, 356.2648
1277.696, 355.1642
1278.178, 353.7082
1278.660, 354.1956
1279.142, 356.0615
1279.624, 357.0187
1280.106, 356.8058
1280.588, 356.0563
1281.070, 354.1025
1281.552, 353.3286
1282.035, 354.3593
1282.517, 355.2193
1282.999, 355.2060
1283.481, 355.1501
1283.963, 355.8207
1284.445, 356.3754
1284.927, 354.9666
1285.409, 352.4445
1285.892, 352.1682
1286.374, 353.2488
1286.856, 353.2817
##END=



