##NAMES=Powellite
##RRUFFID=R050355
##IDEAL CHEMISTRY=CaMo^6+^O_4_
##LOCALITY=Nasik, India
##OWNER=RRUFF
##SOURCE=George Rossman
##DESCRIPTION=Light brown fragment
##STATUS=The identification of this mineral has been confirmed by X-ray diffraction and chemical analysis
##URL=rruff.info/R050355
##MEASURED CHEMISTRY=Ca_1.00_Mo_1.00_O_4_
128.0302, 1545.949
128.5123, 1560.368
128.9944, 1565.083
129.4765, 1561.537
129.9586, 1563.180
130.4407, 1579.810
130.9229, 1609.792
131.4050, 1647.605
131.8871, 1693.490
132.3692, 1744.410
132.8513, 1792.487
133.3334, 1834.554
133.8156, 1868.455
134.2977, 1900.245
134.7798, 1936.197
135.2619, 1967.225
135.7440, 1986.836
136.2261, 1999.964
136.7083, 2034.780
137.1904, 2095.302
137.6725, 2164.340
138.1546, 2222.160
138.6367, 2264.810
139.1188, 2318.957
139.6010, 2388.656
140.0831, 2473.313
140.5652, 2584.671
141.0473, 2722.071
141.5294, 2887.254
142.0115, 3093.386
142.4937, 3380.140
142.9758, 3622.531
143.4579, 3807.546
143.9400, 3960.191
144.4221, 3924.935
144.9042, 3628.626
145.3864, 3189.619
145.8685, 2811.210
146.3506, 2489.909
146.8327, 2226.788
147.3148, 2022.559
147.7969, 1895.346
148.2791, 1787.802
148.7612, 1699.457
149.2433, 1630.564
149.7254, 1581.253
150.2075, 1566.021
150.6896, 1557.879
151.1718, 1547.167
151.6539, 1528.488
152.1360, 1515.096
152.6181, 1510.282
153.1002, 1511.360
153.5823, 1510.327
154.0645, 1505.816
154.5466, 1499.654
155.0287, 1492.658
155.5108, 1483.059
155.9929, 1474.686
156.4750, 1465.209
156.9572, 1456.383
157.4393, 1455.872
157.9214, 1473.073
158.4035, 1494.308
158.8856, 1511.089
159.3677, 1527.661
159.8499, 1533.635
160.3320, 1517.754
160.8141, 1484.526
161.2962, 1461.088
161.7783, 1466.052
162.2604, 1480.836
162.7426, 1490.113
163.2247, 1485.452
163.7068, 1477.799
164.1889, 1469.830
164.6710, 1461.954
165.1531, 1458.170
165.6353, 1462.265
166.1174, 1470.842
166.5995, 1480.245
167.0816, 1493.379
167.5637, 1503.799
168.0458, 1505.181
168.5280, 1497.497
169.0101, 1490.766
169.4922, 1488.587
169.9743, 1491.831
170.4564, 1501.810
170.9385, 1530.674
171.4207, 1559.583
171.9028, 1568.387
172.3849, 1555.467
172.8670, 1541.484
173.3491, 1543.036
173.8312, 1554.778
174.3134, 1566.540
174.7955, 1573.691
175.2776, 1578.295
175.7597, 1581.779
176.2418, 1583.924
176.7239, 1587.649
177.2061, 1596.721
177.6882, 1609.814
178.1703, 1623.107
178.6524, 1633.643
179.1345, 1643.631
179.6166, 1656.571
180.0988, 1672.878
180.5809, 1691.598
181.0630, 1711.654
181.5451, 1733.322
182.0272, 1756.860
182.5093, 1782.117
182.9915, 1809.624
183.4736, 1840.802
183.9557, 1876.631
184.4378, 1913.845
184.9199, 1944.401
185.4020, 1969.863
185.8842, 2005.733
186.3663, 2069.135
186.8484, 2151.517
187.3305, 2218.337
187.8126, 2265.566
188.2947, 2302.454
188.7769, 2342.928
189.2590, 2386.824
189.7411, 2430.347
190.2232, 2475.270
190.7053, 2519.754
191.1874, 2551.236
191.6696, 2566.011
192.1517, 2573.307
192.6338, 2589.684
193.1159, 2615.318
193.5980, 2645.113
194.0801, 2676.112
194.5623, 2708.291
195.0444, 2742.907
195.5265, 2778.250
196.0086, 2818.229
196.4907, 2870.514
196.9728, 2935.147
197.4550, 3011.309
197.9371, 3099.304
198.4192, 3199.158
198.9013, 3307.101
199.3834, 3422.282
199.8655, 3545.262
200.3477, 3677.401
200.8298, 3816.795
201.3119, 3973.576
201.7940, 4165.667
202.2761, 4398.298
202.7582, 4609.455
203.2404, 4797.424
203.7225, 4958.182
204.2046, 5086.010
204.6867, 5187.293
205.1688, 5234.618
205.6509, 5211.110
206.1331, 5115.635
206.6152, 4954.287
207.0973, 4711.519
207.5794, 4411.522
208.0615, 4122.458
208.5436, 3839.179
209.0258, 3579.058
209.5079, 3354.827
209.9900, 3168.961
210.4721, 3011.364
210.9542, 2885.564
211.4363, 2785.990
211.9185, 2694.236
212.4006, 2609.333
212.8827, 2533.677
213.3648, 2470.926
213.8469, 2421.928
214.3290, 2380.451
214.8112, 2348.842
215.2933, 2323.915
215.7754, 2293.272
216.2575, 2255.962
216.7396, 2214.541
217.2217, 2169.581
217.7038, 2118.633
218.1860, 2072.489
218.6681, 2034.590
219.1502, 2001.879
219.6323, 1962.414
220.1144, 1911.482
220.5965, 1862.497
221.0787, 1823.698
221.5608, 1797.607
222.0429, 1775.473
222.5250, 1758.948
223.0071, 1745.882
223.4892, 1727.842
223.9714, 1699.059
224.4535, 1674.161
224.9356, 1662.311
225.4177, 1671.396
225.8998, 1674.472
226.3819, 1668.268
226.8641, 1655.393
227.3462, 1645.633
227.8283, 1642.645
228.3104, 1637.198
228.7925, 1622.959
229.2746, 1590.783
229.7568, 1570.441
230.2389, 1565.833
230.7210, 1573.059
231.2031, 1580.526
231.6852, 1589.823
232.1673, 1596.991
232.6495, 1599.596
233.1316, 1594.971
233.6137, 1591.895
234.0958, 1591.846
234.5779, 1593.235
235.0600, 1591.187
235.5422, 1582.784
236.0243, 1575.148
236.5064, 1571.733
236.9885, 1575.051
237.4706, 1576.866
237.9527, 1575.781
238.4349, 1573.543
238.9170, 1575.310
239.3991, 1585.980
239.8812, 1593.294
240.3633, 1590.241
240.8454, 1567.630
241.3276, 1558.192
241.8097, 1568.518
242.2918, 1589.691
242.7739, 1602.262
243.2560, 1603.557
243.7381, 1600.358
244.2203, 1594.206
244.7024, 1582.465
245.1845, 1575.181
245.6666, 1572.616
246.1487, 1574.398
246.6308, 1580.259
247.1130, 1592.500
247.5951, 1605.177
248.0772, 1617.128
248.5593, 1630.282
249.0414, 1634.941
249.5235, 1624.753
250.0057, 1610.061
250.4878, 1609.257
250.9699, 1631.962
251.4520, 1651.389
251.9341, 1657.825
252.4162, 1648.122
252.8984, 1641.235
253.3805, 1637.826
253.8626, 1636.711
254.3447, 1635.600
254.8268, 1631.901
255.3089, 1633.658
255.7911, 1645.681
256.2732, 1670.379
256.7553, 1684.635
257.2374, 1683.538
257.7195, 1676.853
258.2017, 1677.066
258.6838, 1687.794
259.1659, 1697.058
259.6480, 1700.839
260.1301, 1698.720
260.6122, 1701.577
261.0944, 1710.437
261.5765, 1723.073
262.0586, 1737.908
262.5407, 1756.396
263.0228, 1772.925
263.5049, 1785.633
263.9871, 1794.811
264.4692, 1804.857
264.9513, 1816.328
265.4334, 1827.939
265.9155, 1840.018
266.3976, 1854.666
266.8798, 1861.639
267.3619, 1857.145
267.8440, 1842.694
268.3261, 1829.849
268.8082, 1817.074
269.2903, 1809.110
269.7725, 1813.343
270.2546, 1834.660
270.7367, 1844.263
271.2188, 1833.253
271.7009, 1808.304
272.1830, 1799.958
272.6652, 1814.176
273.1473, 1828.808
273.6294, 1825.534
274.1115, 1799.729
274.5936, 1785.347
275.0757, 1788.597
275.5579, 1803.217
276.0400, 1810.383
276.5221, 1808.056
277.0042, 1806.440
277.4863, 1813.385
277.9684, 1829.894
278.4506, 1840.671
278.9327, 1843.825
279.4148, 1841.848
279.8969, 1837.907
280.3790, 1831.041
280.8611, 1829.024
281.3433, 1838.854
281.8254, 1860.456
282.3075, 1876.136
282.7896, 1885.252
283.2717, 1888.914
283.7538, 1885.568
284.2360, 1874.740
284.7181, 1869.316
285.2002, 1877.827
285.6823, 1898.448
286.1644, 1914.772
286.6465, 1926.330
287.1287, 1934.737
287.6108, 1940.325
288.0929, 1943.347
288.5750, 1948.805
289.0571, 1960.012
289.5392, 1975.212
290.0214, 1986.516
290.5035, 1993.418
290.9856, 2000.224
291.4677, 2010.946
291.9498, 2025.445
292.4319, 2042.851
292.9141, 2065.830
293.3962, 2090.119
293.8783, 2103.715
294.3604, 2106.410
294.8425, 2108.586
295.3246, 2120.300
295.8068, 2139.113
296.2889, 2155.834
296.7710, 2165.837
297.2531, 2175.907
297.7352, 2198.307
298.2173, 2231.974
298.6995, 2269.055
299.1816, 2304.042
299.6637, 2338.165
300.1458, 2373.055
300.6279, 2409.209
301.1100, 2446.454
301.5922, 2482.415
302.0743, 2518.262
302.5564, 2558.637
303.0385, 2607.620
303.5206, 2662.492
304.0027, 2719.898
304.4849, 2778.235
304.9670, 2841.564
305.4491, 2914.049
305.9312, 2993.990
306.4133, 3077.346
306.8954, 3160.144
307.3776, 3246.610
307.8597, 3341.284
308.3418, 3445.979
308.8239, 3551.547
309.3060, 3644.440
309.7881, 3735.881
310.2703, 3840.440
310.7524, 3976.021
311.2345, 4119.459
311.7166, 4251.389
312.1987, 4372.008
312.6808, 4495.442
313.1630, 4625.216
313.6451, 4764.839
314.1272, 4919.327
314.6093, 5097.089
315.0914, 5281.466
315.5735, 5464.181
316.0557, 5645.400
316.5378, 5826.210
317.0199, 5996.776
317.5020, 6172.256
317.9841, 6367.024
318.4662, 6586.944
318.9484, 6816.573
319.4305, 7060.065
319.9126, 7310.256
320.3947, 7548.299
320.8768, 7761.986
321.3589, 7967.328
321.8411, 8176.004
322.3232, 8398.078
322.8053, 8596.714
323.2874, 8769.053
323.7695, 8912.854
324.2516, 9024.563
324.7338, 9095.184
325.2159, 9141.403
325.6980, 9168.044
326.1801, 9175.836
326.6622, 9161.862
327.1443, 9132.273
327.6265, 9078.396
328.1086, 8991.066
328.5907, 8879.882
329.0728, 8725.805
329.5549, 8520.324
330.0370, 8262.079
330.5192, 7983.714
331.0013, 7668.578
331.4834, 7345.534
331.9655, 7031.411
332.4476, 6733.023
332.9297, 6429.599
333.4119, 6114.109
333.8940, 5792.605
334.3761, 5495.604
334.8582, 5231.556
335.3403, 4988.438
335.8224, 4761.961
336.3046, 4551.745
336.7867, 4357.944
337.2688, 4180.331
337.7509, 4017.899
338.2330, 3865.176
338.7151, 3723.953
339.1973, 3590.219
339.6794, 3460.329
340.1615, 3335.099
340.6436, 3219.757
341.1257, 3115.060
341.6078, 3021.214
342.0899, 2940.320
342.5721, 2874.381
343.0542, 2813.003
343.5363, 2753.490
344.0184, 2696.880
344.5005, 2647.196
344.9826, 2605.399
345.4648, 2566.509
345.9469, 2525.532
346.4290, 2482.812
346.9111, 2445.617
347.3932, 2415.380
347.8753, 2390.634
348.3575, 2370.457
348.8396, 2354.624
349.3217, 2339.999
349.8038, 2324.565
350.2859, 2308.861
350.7680, 2294.846
351.2502, 2283.335
351.7323, 2271.157
352.2144, 2252.944
352.6965, 2230.628
353.1786, 2210.590
353.6607, 2195.194
354.1429, 2184.240
354.6250, 2179.617
355.1071, 2181.652
355.5892, 2182.328
356.0713, 2172.187
356.5534, 2157.443
357.0356, 2147.291
357.5177, 2148.208
357.9998, 2152.273
358.4819, 2155.564
358.9640, 2157.761
359.4461, 2156.879
359.9283, 2150.031
360.4104, 2140.623
360.8925, 2131.125
361.3746, 2120.514
361.8567, 2112.560
362.3388, 2109.178
362.8210, 2109.583
363.3031, 2111.908
363.7852, 2117.339
364.2673, 2123.116
364.7494, 2127.653
365.2315, 2130.092
365.7137, 2133.853
366.1958, 2141.757
366.6779, 2150.538
367.1600, 2156.425
367.6421, 2157.884
368.1242, 2157.578
368.6064, 2152.368
369.0885, 2141.604
369.5706, 2143.279
370.0527, 2163.231
370.5348, 2191.082
371.0169, 2220.621
371.4991, 2251.306
371.9812, 2283.951
372.4633, 2317.552
372.9454, 2353.368
373.4275, 2395.197
373.9096, 2445.088
374.3918, 2498.331
374.8739, 2551.335
375.3560, 2603.522
375.8381, 2662.532
376.3202, 2732.978
376.8023, 2803.393
377.2845, 2851.235
377.7666, 2870.302
378.2487, 2899.043
378.7308, 2952.721
379.2129, 3027.538
379.6950, 3091.772
380.1772, 3144.108
380.6593, 3195.308
381.1414, 3254.321
381.6235, 3320.731
382.1056, 3395.864
382.5877, 3479.373
383.0699, 3571.741
383.5520, 3673.177
384.0341, 3784.580
384.5162, 3905.429
384.9983, 4030.777
385.4804, 4167.113
385.9626, 4331.924
386.4447, 4529.099
386.9268, 4742.924
387.4089, 4954.363
387.8910, 5170.944
388.3731, 5404.809
388.8553, 5674.335
389.3374, 5956.148
389.8195, 6246.212
390.3016, 6536.813
390.7837, 6774.229
391.2658, 6954.164
391.7480, 7047.437
392.2301, 7022.505
392.7122, 6855.748
393.1943, 6591.276
393.6764, 6211.458
394.1585, 5744.031
394.6407, 5275.896
395.1228, 4780.380
395.6049, 4333.267
396.0870, 3973.312
396.5691, 3724.458
397.0512, 3507.891
397.5334, 3305.492
398.0155, 3127.518
398.4976, 2989.243
398.9797, 2911.882
399.4618, 2851.677
399.9439, 2803.267
400.4261, 2766.558
400.9082, 2735.685
401.3903, 2717.156
401.8724, 2698.199
402.3545, 2670.114
402.8366, 2628.546
403.3188, 2588.040
403.8009, 2550.210
404.2830, 2513.571
404.7651, 2473.154
405.2472, 2426.872
405.7293, 2383.977
406.2115, 2349.353
406.6936, 2323.580
407.1757, 2296.267
407.6578, 2267.406
408.1399, 2236.854
408.6220, 2202.195
409.1042, 2163.611
409.5863, 2129.029
410.0684, 2099.994
410.5505, 2076.788
411.0326, 2061.715
411.5147, 2054.379
411.9969, 2044.730
412.4790, 2019.424
412.9611, 1986.655
413.4432, 1968.313
413.9253, 1969.622
414.4074, 1975.691
414.8896, 1969.311
415.3717, 1955.170
415.8538, 1944.307
416.3359, 1948.561
416.8180, 1954.291
417.3001, 1945.367
417.7823, 1922.067
418.2644, 1904.448
418.7465, 1911.232
419.2286, 1925.635
419.7107, 1930.839
420.1928, 1913.345
420.6750, 1898.397
421.1571, 1897.950
421.6392, 1907.473
422.1213, 1915.280
422.6034, 1918.198
423.0855, 1918.814
423.5677, 1918.887
424.0498, 1919.952
424.5319, 1915.367
425.0140, 1897.102
425.4961, 1876.522
425.9782, 1865.000
426.4604, 1866.060
426.9425, 1871.592
427.4246, 1885.188
427.9067, 1904.082
428.3888, 1905.853
428.8709, 1880.483
429.3531, 1855.728
429.8352, 1848.357
430.3173, 1862.544
430.7994, 1873.748
431.2815, 1881.531
431.7636, 1885.755
432.2458, 1883.826
432.7279, 1875.116
433.2100, 1870.776
433.6921, 1877.792
434.1742, 1891.723
434.6563, 1895.601
435.1385, 1889.274
435.6206, 1879.370
436.1027, 1867.859
436.5848, 1857.093
437.0669, 1854.901
437.5490, 1865.417
438.0312, 1878.260
438.5133, 1882.567
438.9954, 1879.808
439.4775, 1874.016
439.9596, 1862.622
440.4417, 1852.112
440.9239, 1848.660
441.4060, 1852.635
441.8881, 1859.815
442.3702, 1872.919
442.8523, 1885.646
443.3344, 1892.020
443.8166, 1888.795
444.2987, 1880.895
444.7808, 1863.967
445.2629, 1842.704
445.7450, 1830.816
446.2271, 1840.858
446.7093, 1852.482
447.1914, 1857.042
447.6735, 1850.369
448.1556, 1849.739
448.6377, 1861.398
449.1198, 1874.893
449.6020, 1878.750
450.0841, 1866.008
450.5662, 1858.342
451.0483, 1860.770
451.5304, 1870.690
452.0125, 1876.223
452.4947, 1876.460
452.9768, 1875.262
453.4589, 1874.040
453.9410, 1872.742
454.4231, 1874.905
454.9052, 1881.970
455.3874, 1888.039
455.8695, 1883.109
456.3516, 1868.874
456.8337, 1858.117
457.3158, 1855.724
457.7979, 1858.446
458.2801, 1860.410
458.7622, 1861.927
459.2443, 1865.310
459.7264, 1876.621
460.2085, 1889.027
460.6906, 1892.077
461.1728, 1882.615
461.6549, 1871.854
462.1370, 1866.921
462.6191, 1866.116
463.1012, 1867.094
463.5833, 1870.906
464.0655, 1874.499
464.5476, 1876.747
465.0297, 1877.609
465.5118, 1877.162
465.9939, 1872.762
466.4760, 1868.952
466.9582, 1868.444
467.4403, 1874.311
467.9224, 1878.250
468.4045, 1878.216
468.8866, 1876.936
469.3687, 1878.738
469.8509, 1886.822
470.3330, 1891.973
470.8151, 1890.868
471.2972, 1884.397
471.7793, 1882.638
472.2614, 1887.565
472.7436, 1891.831
473.2257, 1888.813
473.7078, 1878.317
474.1899, 1872.818
474.6720, 1874.387
475.1541, 1877.906
475.6363, 1873.207
476.1184, 1862.205
476.6005, 1857.443
477.0826, 1867.824
477.5647, 1885.125
478.0468, 1896.909
478.5290, 1903.355
479.0111, 1906.088
479.4932, 1902.690
479.9753, 1897.756
480.4574, 1897.509
480.9395, 1904.690
481.4217, 1911.172
481.9038, 1911.776
482.3859, 1908.488
482.8680, 1904.163
483.3501, 1897.574
483.8322, 1892.188
484.3144, 1889.170
484.7965, 1888.522
485.2786, 1889.467
485.7607, 1894.908
486.2428, 1899.476
486.7249, 1899.564
487.2071, 1888.201
487.6892, 1888.151
488.1713, 1907.815
488.6534, 1932.936
489.1355, 1942.244
489.6176, 1931.030
490.0998, 1917.568
490.5819, 1904.855
491.0640, 1893.391
491.5461, 1886.019
492.0282, 1882.874
492.5103, 1882.608
492.9925, 1886.736
493.4746, 1893.737
493.9567, 1893.326
494.4388, 1883.106
494.9209, 1874.305
495.4030, 1885.393
495.8852, 1908.117
496.3673, 1921.625
496.8494, 1911.068
497.3315, 1894.515
497.8136, 1887.626
498.2957, 1889.233
498.7779, 1894.902
499.2600, 1907.720
499.7421, 1920.037
500.2242, 1926.414
500.7063, 1925.589
501.1884, 1921.884
501.6706, 1912.253
502.1527, 1902.368
502.6348, 1898.142
503.1169, 1907.074
503.5990, 1913.725
504.0811, 1916.085
504.5633, 1914.940
505.0454, 1912.390
505.5275, 1904.949
506.0096, 1902.372
506.4917, 1911.330
506.9738, 1933.759
507.4560, 1943.757
507.9381, 1938.813
508.4202, 1928.199
508.9023, 1919.430
509.3844, 1912.660
509.8665, 1911.317
510.3487, 1917.302
510.8308, 1926.664
511.3129, 1934.663
511.7950, 1940.837
512.2772, 1942.982
512.7593, 1933.839
513.2414, 1923.280
513.7235, 1926.054
514.2056, 1941.714
514.6877, 1954.881
515.1699, 1952.370
515.6520, 1944.583
516.1341, 1941.684
516.6162, 1949.862
517.0983, 1955.197
517.5804, 1949.427
518.0626, 1938.629
518.5447, 1932.784
519.0268, 1938.143
519.5089, 1943.650
519.9910, 1947.539
520.4731, 1949.765
520.9553, 1948.799
521.4374, 1941.801
521.9195, 1935.888
522.4016, 1935.717
522.8837, 1942.747
523.3658, 1947.638
523.8480, 1949.599
524.3301, 1951.014
524.8122, 1958.236
525.2943, 1970.395
525.7764, 1971.175
526.2585, 1949.627
526.7407, 1921.805
527.2228, 1921.091
527.7049, 1943.118
528.1870, 1962.251
528.6691, 1956.587
529.1512, 1942.991
529.6334, 1943.490
530.1155, 1960.103
530.5976, 1974.280
531.0797, 1974.279
531.5618, 1966.732
532.0439, 1957.813
532.5261, 1944.251
533.0082, 1936.165
533.4903, 1938.570
533.9724, 1947.839
534.4545, 1956.333
534.9366, 1965.139
535.4188, 1970.975
535.9009, 1971.743
536.3830, 1967.643
536.8651, 1967.323
537.3472, 1972.822
537.8293, 1978.164
538.3115, 1978.873
538.7936, 1974.568
539.2757, 1971.693
539.7578, 1970.975
540.2399, 1970.629
540.7220, 1967.612
541.2042, 1962.530
541.6863, 1958.593
542.1684, 1956.554
542.6505, 1956.364
543.1326, 1960.990
543.6147, 1968.289
544.0969, 1970.111
544.5790, 1951.190
545.0611, 1931.721
545.5432, 1932.327
546.0253, 1955.757
546.5074, 1974.234
546.9896, 1967.055
547.4717, 1954.992
547.9538, 1955.227
548.4359, 1991.186
548.9180, 2011.291
549.4001, 2000.848
549.8823, 1975.721
550.3644, 1962.950
550.8465, 1968.740
551.3286, 1975.125
551.8107, 1977.946
552.2928, 1977.640
552.7750, 1977.027
553.2571, 1975.940
553.7392, 1975.366
554.2213, 1975.514
554.7034, 1976.579
555.1855, 1980.671
555.6677, 1988.367
556.1498, 1995.449
556.6319, 1997.826
557.1140, 1996.214
557.5961, 1991.129
558.0782, 1978.904
558.5604, 1969.693
559.0425, 1976.373
559.5246, 1992.333
560.0067, 2002.838
560.4888, 1996.744
560.9709, 1988.405
561.4531, 1983.620
561.9352, 1982.651
562.4173, 1983.672
562.8994, 1988.813
563.3815, 1993.987
563.8636, 1997.288
564.3458, 1998.536
564.8279, 1997.860
565.3100, 1993.326
565.7921, 1989.320
566.2742, 1992.835
566.7563, 2004.932
567.2385, 2014.403
567.7206, 2018.741
568.2027, 2019.203
568.6848, 2016.611
569.1669, 2011.561
569.6490, 2008.827
570.1312, 2015.643
570.6133, 2024.155
571.0954, 2020.476
571.5775, 2005.138
572.0596, 1991.458
572.5417, 1988.286
573.0239, 1990.226
573.5060, 1993.293
573.9881, 1997.983
574.4702, 2000.477
574.9523, 1996.570
575.4344, 1990.996
575.9166, 1989.762
576.3987, 1995.193
576.8808, 2002.676
577.3629, 2014.554
577.8450, 2027.884
578.3271, 2032.724
578.8093, 2027.393
579.2914, 2018.245
579.7735, 2004.843
580.2556, 1988.983
580.7377, 1985.300
581.2198, 1994.602
581.7020, 2007.479
582.1841, 2018.769
582.6662, 2027.425
583.1483, 2030.036
583.6304, 2025.235
584.1125, 2019.142
584.5947, 2015.531
585.0768, 2014.550
585.5589, 2016.528
586.0410, 2026.783
586.5231, 2034.251
587.0052, 2031.472
587.4873, 2022.218
587.9694, 2016.608
588.4515, 2016.708
588.9337, 2020.800
589.4158, 2031.961
589.8979, 2050.318
590.3800, 2054.137
590.8621, 2036.756
591.3442, 2016.506
591.8264, 2004.113
592.3085, 1999.630
592.7906, 2001.264
593.2727, 2010.035
593.7548, 2020.877
594.2369, 2028.478
594.7191, 2033.260
595.2012, 2037.282
595.6833, 2042.398
596.1654, 2044.295
596.6475, 2032.134
597.1296, 2013.046
597.6118, 2003.257
598.0939, 2021.565
598.5760, 2041.052
599.0581, 2044.549
599.5402, 2033.701
600.0223, 2027.558
600.5045, 2035.086
600.9866, 2044.269
601.4687, 2049.980
601.9508, 2051.854
602.4329, 2051.783
602.9150, 2049.313
603.3972, 2045.521
603.8793, 2039.788
604.3614, 2031.248
604.8435, 2030.735
605.3256, 2041.744
605.8077, 2055.861
606.2899, 2058.573
606.7720, 2052.064
607.2541, 2046.500
607.7362, 2045.527
608.2183, 2047.413
608.7004, 2052.717
609.1826, 2059.782
609.6647, 2062.674
610.1468, 2052.181
610.6289, 2041.684
611.1110, 2040.615
611.5931, 2049.790
612.0753, 2057.510
612.5574, 2061.888
613.0395, 2063.864
613.5216, 2063.815
614.0037, 2060.573
614.4858, 2058.499
614.9680, 2058.431
615.4501, 2058.375
615.9322, 2053.537
616.4143, 2043.157
616.8964, 2043.646
617.3785, 2061.907
617.8607, 2085.233
618.3428, 2090.187
618.8249, 2080.286
619.3070, 2070.224
619.7891, 2064.047
620.2712, 2063.007
620.7534, 2073.512
621.2355, 2092.245
621.7176, 2103.270
622.1997, 2091.035
622.6818, 2075.345
623.1639, 2067.597
623.6461, 2069.941
624.1282, 2072.033
624.6103, 2071.992
625.0924, 2072.113
625.5745, 2074.292
626.0566, 2080.644
626.5388, 2082.553
627.0209, 2078.523
627.5030, 2072.157
627.9851, 2069.037
628.4672, 2068.891
628.9493, 2064.821
629.4315, 2052.109
629.9136, 2040.343
630.3957, 2051.148
630.8778, 2076.344
631.3599, 2091.282
631.8420, 2070.302
632.3242, 2045.630
632.8063, 2044.566
633.2884, 2063.075
633.7705, 2077.002
634.2526, 2071.297
634.7347, 2064.747
635.2169, 2068.094
635.6990, 2084.537
636.1811, 2092.935
636.6632, 2088.529
637.1453, 2082.064
637.6274, 2081.572
638.1096, 2088.129
638.5917, 2092.900
639.0738, 2095.110
639.5559, 2096.604
640.0380, 2100.141
640.5201, 2105.155
641.0023, 2109.223
641.4844, 2111.984
641.9665, 2113.156
642.4486, 2113.515
642.9307, 2112.094
643.4128, 2106.821
643.8950, 2086.498
644.3771, 2072.156
644.8592, 2078.987
645.3413, 2102.407
645.8234, 2117.471
646.3055, 2112.266
646.7877, 2106.071
647.2698, 2104.747
647.7519, 2108.441
648.2340, 2113.020
648.7161, 2119.510
649.1982, 2124.009
649.6804, 2123.393
650.1625, 2117.957
650.6446, 2109.686
651.1267, 2098.291
651.6088, 2087.393
652.0909, 2076.778
652.5731, 2070.273
653.0552, 2077.269
653.5373, 2107.565
654.0194, 2133.129
654.5015, 2131.900
654.9836, 2116.563
655.4658, 2105.799
655.9479, 2106.728
656.4300, 2110.094
656.9121, 2115.882
657.3942, 2122.778
657.8763, 2127.286
658.3585, 2129.278
658.8406, 2128.848
659.3227, 2124.071
659.8048, 2116.902
660.2869, 2119.804
660.7690, 2133.143
661.2512, 2145.515
661.7333, 2146.730
662.2154, 2142.615
662.6975, 2146.357
663.1796, 2158.049
663.6617, 2166.157
664.1439, 2159.934
664.6260, 2148.216
665.1081, 2138.177
665.5902, 2130.649
666.0723, 2126.533
666.5544, 2129.119
667.0366, 2133.605
667.5187, 2135.576
668.0008, 2134.184
668.4829, 2131.939
668.9650, 2128.115
669.4471, 2124.626
669.9293, 2125.657
670.4114, 2131.302
670.8935, 2134.080
671.3756, 2131.309
671.8577, 2125.718
672.3398, 2118.051
672.8220, 2110.611
673.3041, 2111.344
673.7862, 2133.097
674.2683, 2156.818
674.7504, 2168.157
675.2325, 2168.951
675.7147, 2169.327
676.1968, 2178.384
676.6789, 2182.028
677.1610, 2168.928
677.6431, 2137.503
678.1252, 2126.303
678.6074, 2143.573
679.0895, 2165.874
679.5716, 2179.967
680.0537, 2185.964
680.5358, 2183.259
681.0179, 2170.619
681.5001, 2158.830
681.9822, 2163.220
682.4643, 2175.521
682.9464, 2176.856
683.4285, 2160.825
683.9106, 2146.468
684.3928, 2149.554
684.8749, 2161.077
685.3570, 2170.089
685.8391, 2171.304
686.3212, 2173.021
686.8033, 2179.997
687.2855, 2187.133
687.7676, 2185.643
688.2497, 2171.913
688.7318, 2157.914
689.2139, 2143.854
689.6960, 2132.783
690.1782, 2136.001
690.6603, 2152.784
691.1424, 2168.884
691.6245, 2178.623
692.1066, 2183.384
692.5887, 2184.173
693.0709, 2181.561
693.5530, 2177.953
694.0351, 2170.779
694.5172, 2166.207
694.9993, 2168.508
695.4814, 2178.035
695.9636, 2189.781
696.4457, 2211.188
696.9278, 2226.506
697.4099, 2226.180
697.8920, 2206.649
698.3741, 2195.547
698.8563, 2194.082
699.3384, 2197.327
699.8205, 2204.656
700.3026, 2213.767
700.7847, 2211.871
701.2668, 2196.260
701.7490, 2180.191
702.2311, 2174.999
702.7132, 2177.709
703.1953, 2185.228
703.6774, 2200.852
704.1595, 2212.531
704.6417, 2216.463
705.1238, 2213.592
705.6059, 2204.201
706.0880, 2174.513
706.5701, 2162.300
707.0522, 2178.183
707.5344, 2208.309
708.0165, 2223.917
708.4986, 2224.256
708.9807, 2221.203
709.4628, 2217.417
709.9449, 2213.278
710.4271, 2210.128
710.9092, 2207.421
711.3913, 2203.003
711.8734, 2190.791
712.3555, 2180.770
712.8376, 2181.952
713.3198, 2192.288
713.8019, 2201.073
714.2840, 2204.544
714.7661, 2206.818
715.2482, 2209.324
715.7303, 2212.050
716.2125, 2214.118
716.6946, 2215.147
717.1767, 2216.601
717.6588, 2220.508
718.1409, 2226.108
718.6230, 2226.898
719.1052, 2222.800
719.5873, 2216.912
720.0694, 2207.506
720.5515, 2199.691
721.0336, 2201.728
721.5157, 2215.729
721.9979, 2228.745
722.4800, 2234.975
722.9621, 2237.673
723.4442, 2239.499
723.9263, 2241.596
724.4084, 2240.324
724.8906, 2232.373
725.3727, 2224.918
725.8548, 2227.226
726.3369, 2240.364
726.8190, 2246.183
727.3011, 2241.287
727.7833, 2233.201
728.2654, 2230.244
728.7475, 2231.793
729.2296, 2237.458
729.7117, 2250.856
730.1938, 2260.417
730.6760, 2252.158
731.1581, 2236.497
731.6402, 2229.353
732.1223, 2244.487
732.6044, 2255.998
733.0865, 2258.408
733.5687, 2255.640
734.0508, 2256.814
734.5329, 2264.086
735.0150, 2265.503
735.4971, 2254.995
735.9792, 2240.117
736.4614, 2239.202
736.9435, 2250.063
737.4256, 2261.428
737.9077, 2270.270
738.3898, 2275.111
738.8719, 2272.081
739.3541, 2263.347
739.8362, 2256.563
740.3183, 2252.705
740.8004, 2253.004
741.2825, 2260.887
741.7646, 2274.834
742.2468, 2281.938
742.7289, 2279.543
743.2110, 2277.016
743.6931, 2280.295
744.1752, 2287.306
744.6573, 2282.973
745.1395, 2267.770
745.6216, 2256.733
746.1037, 2264.996
746.5858, 2280.971
747.0679, 2290.356
747.5500, 2292.656
748.0322, 2294.781
748.5143, 2302.624
748.9964, 2309.102
749.4785, 2308.916
749.9606, 2299.837
750.4427, 2294.554
750.9249, 2294.999
751.4070, 2295.809
751.8891, 2290.595
752.3712, 2279.598
752.8533, 2282.967
753.3354, 2302.594
753.8176, 2323.804
754.2997, 2333.703
754.7818, 2335.878
755.2639, 2334.709
755.7460, 2330.128
756.2281, 2327.210
756.7103, 2326.404
757.1924, 2329.823
757.6745, 2340.244
758.1566, 2366.781
758.6387, 2382.390
759.1208, 2383.606
759.6030, 2378.225
760.0851, 2372.855
760.5672, 2367.325
761.0493, 2366.508
761.5314, 2372.068
762.0135, 2377.474
762.4957, 2371.336
762.9778, 2360.140
763.4599, 2357.300
763.9420, 2370.467
764.4241, 2381.836
764.9063, 2378.163
765.3884, 2368.560
765.8705, 2364.214
766.3526, 2370.134
766.8347, 2376.542
767.3168, 2382.848
767.7990, 2389.760
768.2811, 2399.008
768.7632, 2410.791
769.2453, 2421.165
769.7274, 2429.529
770.2095, 2435.458
770.6917, 2439.104
771.1738, 2439.734
771.6559, 2434.746
772.1380, 2412.490
772.6201, 2399.708
773.1022, 2418.885
773.5844, 2455.431
774.0665, 2483.372
774.5486, 2491.070
775.0307, 2502.637
775.5128, 2523.883
775.9949, 2548.844
776.4771, 2560.440
776.9592, 2557.980
777.4413, 2566.907
777.9234, 2598.146
778.4055, 2639.086
778.8876, 2669.999
779.3698, 2694.881
779.8519, 2724.112
780.3340, 2765.575
780.8161, 2808.705
781.2982, 2845.519
781.7803, 2880.425
782.2625, 2926.507
782.7446, 2993.721
783.2267, 3054.972
783.7088, 3100.457
784.1909, 3138.981
784.6730, 3197.235
785.1552, 3275.262
785.6373, 3358.018
786.1194, 3435.007
786.6015, 3517.812
787.0836, 3625.401
787.5657, 3751.975
788.0479, 3881.405
788.5300, 3986.104
789.0121, 4109.496
789.4942, 4274.649
789.9763, 4474.624
790.4584, 4678.813
790.9406, 4889.965
791.4227, 5096.306
791.9048, 5299.340
792.3869, 5490.879
792.8690, 5655.126
793.3511, 5791.148
793.8333, 5865.190
794.3154, 5881.155
794.7975, 5810.839
795.2796, 5586.193
795.7617, 5239.141
796.2438, 4883.435
796.7260, 4534.306
797.2081, 4213.457
797.6902, 3932.363
798.1723, 3689.825
798.6544, 3480.264
799.1365, 3306.950
799.6187, 3161.906
800.1008, 3045.112
800.5829, 2953.100
801.0650, 2878.112
801.5471, 2819.610
802.0292, 2772.267
802.5114, 2732.656
802.9935, 2704.055
803.4756, 2699.079
803.9577, 2709.299
804.4398, 2706.924
804.9219, 2666.047
805.4041, 2630.842
805.8862, 2616.000
806.3683, 2616.795
806.8504, 2614.274
807.3325, 2608.228
807.8146, 2599.562
808.2968, 2587.462
808.7789, 2573.872
809.2610, 2561.772
809.7431, 2551.713
810.2252, 2545.913
810.7073, 2550.006
811.1895, 2554.622
811.6716, 2551.631
812.1537, 2543.838
812.6358, 2541.859
813.1179, 2550.674
813.6000, 2561.074
814.0822, 2572.616
814.5643, 2583.880
815.0464, 2586.816
815.5285, 2581.133
816.0106, 2582.726
816.4927, 2604.771
816.9749, 2630.796
817.4570, 2633.919
817.9391, 2619.955
818.4212, 2605.751
818.9033, 2590.717
819.3854, 2585.633
819.8676, 2603.183
820.3497, 2634.942
820.8318, 2651.552
821.3139, 2645.115
821.7960, 2641.853
822.2781, 2649.299
822.7603, 2662.755
823.2424, 2669.749
823.7245, 2671.741
824.2066, 2678.218
824.6887, 2696.910
825.1708, 2716.937
825.6530, 2727.007
826.1351, 2731.141
826.6172, 2737.948
827.0993, 2748.131
827.5814, 2764.069
828.0635, 2788.469
828.5457, 2817.646
829.0278, 2842.777
829.5099, 2861.814
829.9920, 2890.958
830.4741, 2936.427
830.9562, 2989.282
831.4384, 3031.368
831.9205, 3069.750
832.4026, 3122.796
832.8847, 3202.226
833.3668, 3291.606
833.8489, 3385.333
834.3311, 3482.859
834.8132, 3583.825
835.2953, 3692.590
835.7774, 3796.011
836.2595, 3892.588
836.7416, 3982.282
837.2238, 4056.726
837.7059, 4120.449
838.1880, 4205.887
838.6701, 4322.303
839.1522, 4458.033
839.6343, 4605.766
840.1165, 4764.002
840.5986, 4926.009
841.0807, 5062.091
841.5628, 5250.236
842.0449, 5520.935
842.5270, 5838.523
843.0092, 6170.874
843.4913, 6517.555
843.9734, 6880.497
844.4555, 7258.791
844.9376, 7657.445
845.4197, 8106.886
845.9019, 8575.136
846.3840, 9031.155
846.8661, 9497.229
847.3482, 9809.834
847.8303, 9938.721
848.3124, 9834.797
848.7946, 9416.521
849.2767, 8554.709
849.7588, 7727.921
850.2409, 6916.324
850.7230, 6176.992
851.2051, 5554.019
851.6873, 5049.847
852.1694, 4655.624
852.6515, 4371.321
853.1336, 4161.538
853.6157, 4016.472
854.0978, 3915.569
854.5800, 3841.813
855.0621, 3795.003
855.5442, 3757.623
856.0263, 3716.301
856.5084, 3695.024
856.9905, 3710.089
857.4727, 3761.397
857.9548, 3808.190
858.4369, 3849.402
858.9190, 3900.502
859.4011, 3969.594
859.8832, 4057.773
860.3654, 4162.438
860.8475, 4285.160
861.3296, 4437.162
861.8117, 4629.485
862.2938, 4848.055
862.7759, 5080.518
863.2581, 5328.853
863.7402, 5643.174
864.2223, 6031.617
864.7044, 6454.253
865.1865, 6894.458
865.6686, 7357.880
866.1508, 7851.916
866.6329, 8375.976
867.1150, 8908.663
867.5971, 9425.797
868.0792, 9961.912
868.5613, 10534.96
869.0435, 11145.51
869.5256, 11776.17
870.0077, 12381.91
870.4898, 13079.63
870.9719, 13901.90
871.4540, 14826.63
871.9362, 15796.79
872.4183, 16821.84
872.9004, 17975.47
873.3825, 19278.17
873.8646, 20722.34
874.3467, 22323.33
874.8289, 24058.24
875.3110, 25874.53
875.7931, 27815.71
876.2752, 29742.42
876.7573, 31746.64
877.2394, 33631.61
877.7216, 35294.40
878.2037, 36755.81
878.6858, 37469.87
879.1679, 37376.94
879.6500, 36503.34
880.1321, 34660.34
880.6143, 32142.32
881.0964, 29274.49
881.5785, 26003.99
882.0606, 22927.55
882.5427, 20185.99
883.0248, 17773.60
883.5070, 15701.55
883.9891, 13975.65
884.4712, 12499.53
884.9533, 11299.31
885.4354, 10278.25
885.9175, 9386.820
886.3997, 8613.455
886.8818, 7960.499
887.3639, 7420.236
887.8460, 6945.717
888.3281, 6536.880
888.8102, 6170.508
889.2924, 5838.539
889.7745, 5539.542
890.2566, 5272.570
890.7387, 5042.114
891.2208, 4835.925
891.7029, 4647.451
892.1851, 4479.099
892.6672, 4335.165
893.1493, 4213.070
893.6314, 4104.725
894.1135, 4008.039
894.5956, 3919.915
895.0778, 3840.915
895.5599, 3768.603
896.0420, 3699.287
896.5241, 3635.021
897.0062, 3566.198
897.4883, 3487.596
897.9705, 3409.846
898.4526, 3357.933
898.9347, 3326.549
899.4168, 3289.717
899.8989, 3236.881
900.3810, 3188.438
900.8632, 3162.078
901.3453, 3148.046
901.8274, 3135.062
902.3095, 3124.899
902.7916, 3108.265
903.2737, 3081.352
903.7559, 3053.252
904.2380, 3034.033
904.7201, 3022.084
905.2022, 3001.673
905.6843, 2971.901
906.1664, 2943.639
906.6486, 2924.865
907.1307, 2912.806
907.6128, 2907.136
908.0949, 2908.309
908.5770, 2904.693
909.0591, 2894.688
909.5413, 2879.574
910.0234, 2856.696
910.5055, 2828.858
910.9876, 2814.138
911.4697, 2812.129
911.9518, 2814.999
912.4340, 2824.318
912.9161, 2831.726
913.3982, 2823.452
913.8803, 2806.047
914.3624, 2797.835
914.8445, 2817.575
915.3267, 2828.937
915.8088, 2821.970
916.2909, 2806.046
916.7730, 2799.443
917.2551, 2802.008
917.7372, 2808.323
918.2194, 2818.850
918.7015, 2827.244
919.1836, 2822.902
919.6657, 2813.576
920.1478, 2811.278
920.6299, 2828.150
921.1121, 2830.637
921.5942, 2804.873
922.0763, 2773.989
922.5584, 2756.569
923.0405, 2753.105
923.5226, 2748.647
924.0048, 2742.843
924.4869, 2735.984
924.9690, 2728.863
925.4511, 2720.339
925.9332, 2707.080
926.4153, 2689.385
926.8975, 2677.115
927.3796, 2676.629
927.8617, 2678.216
928.3438, 2679.091
928.8259, 2679.387
929.3080, 2678.888
929.7902, 2677.652
930.2723, 2680.502
930.7544, 2695.079
931.2365, 2708.267
931.7186, 2703.229
932.2007, 2685.455
932.6829, 2666.263
933.1650, 2636.204
933.6471, 2623.224
934.1292, 2638.827
934.6113, 2664.956
935.0934, 2676.573
935.5756, 2673.885
936.0577, 2666.552
936.5398, 2655.221
937.0219, 2644.597
937.5040, 2639.795
937.9861, 2638.212
938.4683, 2636.805
938.9504, 2634.734
939.4325, 2634.844
939.9146, 2639.660
940.3967, 2644.079
940.8788, 2646.455
941.3610, 2646.463
941.8431, 2637.021
942.3252, 2618.550
942.8073, 2605.399
943.2894, 2612.891
943.7715, 2624.933
944.2537, 2625.275
944.7358, 2617.241
945.2179, 2614.223
945.7000, 2626.822
946.1821, 2633.579
946.6642, 2628.334
947.1464, 2617.666
947.6285, 2618.109
948.1106, 2627.425
948.5927, 2626.392
949.0748, 2606.034
949.5569, 2587.870
950.0391, 2590.637
950.5212, 2606.461
951.0033, 2628.003
951.4854, 2663.286
951.9675, 2680.837
952.4496, 2674.612
952.9318, 2660.640
953.4139, 2650.354
953.8960, 2642.992
954.3781, 2632.126
954.8602, 2618.284
955.3423, 2610.113
955.8245, 2615.213
956.3066, 2626.487
956.7887, 2644.914
957.2708, 2667.347
957.7529, 2671.991
958.2350, 2648.510
958.7172, 2631.066
959.1993, 2630.406
959.6814, 2638.992
960.1635, 2642.282
960.6456, 2641.130
961.1277, 2637.958
961.6099, 2632.900
962.0920, 2627.350
962.5741, 2617.523
963.0562, 2610.178
963.5383, 2614.304
964.0204, 2637.482
964.5026, 2650.104
964.9847, 2650.855
965.4668, 2644.796
965.9489, 2630.091
966.4310, 2613.941
966.9131, 2614.326
967.3953, 2630.909
967.8774, 2644.581
968.3595, 2645.774
968.8416, 2641.444
969.3237, 2630.816
969.8058, 2617.135
970.2880, 2617.548
970.7701, 2634.379
971.2522, 2644.950
971.7343, 2638.511
972.2164, 2627.404
972.6985, 2629.269
973.1807, 2639.610
973.6628, 2649.869
974.1449, 2659.865
974.6270, 2665.623
975.1091, 2663.945
975.5912, 2660.162
976.0734, 2660.415
976.5555, 2664.952
977.0376, 2659.167
977.5197, 2641.735
978.0018, 2628.840
978.4839, 2639.761
978.9661, 2657.542
979.4482, 2665.305
979.9303, 2662.402
980.4124, 2658.674
980.8945, 2653.680
981.3766, 2651.528
981.8588, 2655.158
982.3409, 2661.065
982.8230, 2656.677
983.3051, 2644.563
983.7872, 2638.695
984.2693, 2646.562
984.7515, 2657.150
985.2336, 2666.653
985.7157, 2672.575
986.1978, 2670.578
986.6799, 2653.475
987.1620, 2646.336
987.6442, 2652.278
988.1263, 2659.435
988.6084, 2654.184
989.0905, 2642.618
989.5726, 2640.922
990.0547, 2649.021
990.5369, 2656.921
991.0190, 2659.599
991.5011, 2660.731
991.9832, 2662.958
992.4653, 2665.111
992.9474, 2661.323
993.4296, 2650.623
993.9117, 2644.020
994.3938, 2646.207
994.8759, 2650.721
995.3580, 2648.600
995.8401, 2642.955
996.3223, 2638.463
996.8044, 2635.190
997.2865, 2635.846
997.7686, 2642.426
998.2507, 2650.733
998.7328, 2659.164
999.2150, 2667.387
999.6971, 2666.561
1000.179, 2657.070
1000.661, 2650.908
1001.143, 2661.388
1001.626, 2674.151
1002.108, 2677.115
1002.590, 2672.094
1003.072, 2670.963
1003.554, 2678.761
1004.036, 2679.169
1004.518, 2665.970
1005.000, 2649.289
1005.482, 2651.623
1005.965, 2664.193
1006.447, 2659.911
1006.929, 2625.441
1007.411, 2602.741
1007.893, 2625.919
1008.375, 2657.798
1008.857, 2669.509
1009.339, 2659.114
1009.822, 2656.880
1010.304, 2663.649
1010.786, 2669.338
1011.268, 2665.451
1011.750, 2658.324
1012.232, 2655.249
1012.714, 2655.636
1013.196, 2657.605
1013.678, 2659.834
1014.161, 2665.430
1014.643, 2678.239
1015.125, 2690.281
1015.607, 2684.148
1016.089, 2664.623
1016.571, 2665.408
1017.053, 2693.430
1017.535, 2718.733
1018.018, 2712.947
1018.500, 2699.531
1018.982, 2698.478
1019.464, 2711.383
1019.946, 2716.656
1020.428, 2713.546
1020.910, 2705.489
1021.392, 2692.832
1021.874, 2677.307
1022.357, 2655.222
1022.839, 2633.607
1023.321, 2629.805
1023.803, 2670.706
1024.285, 2700.317
1024.767, 2698.748
1025.249, 2685.540
1025.731, 2676.980
1026.214, 2673.011
1026.696, 2674.280
1027.178, 2680.999
1027.660, 2687.319
1028.142, 2687.852
1028.624, 2686.725
1029.106, 2687.398
1029.588, 2689.890
1030.070, 2692.434
1030.553, 2694.951
1031.035, 2697.310
1031.517, 2699.094
1031.999, 2701.360
1032.481, 2708.843
1032.963, 2718.091
1033.445, 2719.006
1033.927, 2706.100
1034.410, 2696.067
1034.892, 2699.025
1035.374, 2705.396
1035.856, 2709.036
1036.338, 2709.948
1036.820, 2708.479
1037.302, 2704.632
1037.784, 2699.752
1038.266, 2689.963
1038.749, 2683.504
1039.231, 2696.220
1039.713, 2718.279
1040.195, 2724.929
1040.677, 2694.740
1041.159, 2680.598
1041.641, 2691.628
1042.123, 2710.289
1042.605, 2713.302
1043.088, 2706.806
1043.570, 2710.951
1044.052, 2727.814
1044.534, 2738.354
1045.016, 2726.865
1045.498, 2711.699
1045.980, 2700.553
1046.462, 2693.783
1046.945, 2694.568
1047.427, 2703.267
1047.909, 2709.762
1048.391, 2710.865
1048.873, 2708.120
1049.355, 2698.611
1049.837, 2688.205
1050.319, 2684.912
1050.802, 2692.910
1051.284, 2703.717
1051.766, 2720.310
1052.248, 2732.359
1052.730, 2727.748
1053.212, 2713.358
1053.694, 2712.527
1054.176, 2722.508
1054.658, 2730.339
1055.141, 2727.734
1055.623, 2723.990
1056.105, 2721.863
1056.587, 2720.890
1057.069, 2721.144
1057.551, 2722.729
1058.033, 2720.951
1058.515, 2714.915
1058.997, 2708.226
1059.480, 2701.188
1059.962, 2697.115
1060.444, 2700.623
1060.926, 2712.131
1061.408, 2721.180
1061.890, 2726.870
1062.372, 2731.939
1062.854, 2738.156
1063.337, 2742.924
1063.819, 2739.982
1064.301, 2731.876
1064.783, 2723.126
1065.265, 2711.109
1065.747, 2708.393
1066.229, 2727.855
1066.711, 2749.252
1067.193, 2760.348
1067.676, 2761.418
1068.158, 2756.881
1068.640, 2747.390
1069.122, 2742.849
1069.604, 2756.600
1070.086, 2769.972
1070.568, 2769.095
1071.050, 2759.005
1071.532, 2750.826
1072.015, 2743.433
1072.497, 2744.383
1072.979, 2756.334
1073.461, 2768.419
1073.943, 2765.576
1074.425, 2757.544
1074.907, 2760.452
1075.389, 2774.874
1075.872, 2782.164
1076.354, 2774.425
1076.836, 2762.734
1077.318, 2747.002
1077.800, 2732.224
1078.282, 2734.097
1078.764, 2746.943
1079.246, 2748.281
1079.729, 2728.485
1080.211, 2710.313
1080.693, 2703.471
1081.175, 2705.926
1081.657, 2718.559
1082.139, 2741.344
1082.621, 2748.455
1083.103, 2739.642
1083.585, 2733.301
1084.068, 2743.452
1084.550, 2756.300
1085.032, 2758.079
1085.514, 2753.217
1085.996, 2749.705
1086.478, 2752.150
1086.960, 2745.982
1087.442, 2726.612
1087.924, 2711.662
1088.406, 2722.842
1088.889, 2747.641
1089.371, 2765.681
1089.853, 2775.883
1090.335, 2778.844
1090.817, 2766.645
1091.299, 2757.598
1091.781, 2756.223
1092.263, 2759.938
1092.746, 2767.279
1093.228, 2776.164
1093.710, 2773.623
1094.192, 2755.889
1094.674, 2742.178
1095.156, 2746.920
1095.638, 2758.302
1096.120, 2769.597
1096.603, 2780.369
1097.085, 2789.981
1097.567, 2798.461
1098.049, 2803.772
1098.531, 2803.424
1099.013, 2803.276
1099.495, 2813.419
1099.977, 2825.609
1100.459, 2828.511
1100.942, 2816.188
1101.424, 2808.094
1101.906, 2805.210
1102.388, 2803.399
1102.870, 2800.654
1103.352, 2796.760
1103.834, 2788.285
1104.316, 2778.211
1104.798, 2775.140
1105.281, 2792.102
1105.763, 2801.740
1106.245, 2798.292
1106.727, 2789.966
1107.209, 2783.427
1107.691, 2779.708
1108.173, 2786.850
1108.655, 2804.256
1109.138, 2817.000
1109.620, 2812.518
1110.102, 2805.979
1110.584, 2804.157
1111.066, 2805.336
1111.548, 2806.461
1112.030, 2807.481
1112.512, 2805.289
1112.995, 2798.734
1113.477, 2792.739
1113.959, 2790.119
1114.441, 2791.004
1114.923, 2799.045
1115.405, 2813.427
1115.887, 2812.077
1116.369, 2790.506
1116.851, 2779.683
1117.333, 2795.061
1117.816, 2816.737
1118.298, 2814.964
1118.780, 2803.656
1119.262, 2804.327
1119.744, 2828.700
1120.226, 2842.639
1120.708, 2844.027
1121.190, 2837.411
1121.673, 2820.631
1122.155, 2800.568
1122.637, 2793.843
1123.119, 2797.332
1123.601, 2802.393
1124.083, 2808.625
1124.565, 2811.918
1125.047, 2811.226
1125.530, 2808.298
1126.012, 2803.207
1126.494, 2796.988
1126.976, 2796.400
1127.458, 2801.004
1127.940, 2805.355
1128.422, 2804.130
1128.904, 2804.551
1129.386, 2812.543
1129.869, 2822.514
1130.351, 2823.888
1130.833, 2816.917
1131.315, 2818.959
1131.797, 2832.633
1132.279, 2844.344
1132.761, 2840.021
1133.243, 2832.614
1133.725, 2831.810
1134.208, 2836.557
1134.690, 2839.940
1135.172, 2842.011
1135.654, 2841.901
1136.136, 2838.761
1136.618, 2835.885
1137.100, 2836.669
1137.582, 2839.856
1138.065, 2845.577
1138.547, 2854.645
1139.029, 2856.262
1139.511, 2848.875
1139.993, 2837.997
1140.475, 2821.780
1140.957, 2809.698
1141.439, 2823.310
1141.922, 2849.629
1142.404, 2866.990
1142.886, 2869.419
1143.368, 2861.248
1143.850, 2835.179
1144.332, 2816.748
1144.814, 2828.538
1145.296, 2855.956
1145.778, 2861.494
1146.260, 2850.275
1146.743, 2837.412
1147.225, 2825.166
1147.707, 2817.325
1148.189, 2813.030
1148.671, 2814.277
1149.153, 2824.614
1149.635, 2842.194
1150.117, 2862.549
1150.600, 2883.609
1151.082, 2892.799
1151.564, 2874.429
1152.046, 2854.285
1152.528, 2840.527
1153.010, 2830.916
1153.492, 2821.214
1153.974, 2812.157
1154.457, 2814.344
1154.939, 2828.537
1155.421, 2842.140
1155.903, 2844.902
1156.385, 2846.268
1156.867, 2853.800
1157.349, 2863.494
1157.831, 2864.674
1158.313, 2857.135
1158.796, 2852.668
1159.278, 2852.972
1159.760, 2858.476
1160.242, 2878.082
1160.724, 2896.057
1161.206, 2896.557
1161.688, 2882.008
1162.170, 2873.589
1162.652, 2871.853
1163.135, 2869.166
1163.617, 2861.820
1164.099, 2858.208
1164.581, 2875.075
1165.063, 2895.211
1165.545, 2897.802
1166.027, 2878.775
1166.509, 2866.930
1166.992, 2862.428
1167.474, 2864.011
1167.956, 2872.636
1168.438, 2884.473
1168.920, 2900.877
1169.402, 2914.580
1169.884, 2913.873
1170.366, 2889.946
1170.849, 2872.077
1171.331, 2859.629
1171.813, 2855.913
1172.295, 2867.393
1172.777, 2884.275
1173.259, 2890.918
1173.741, 2890.807
1174.223, 2890.603
1174.705, 2891.391
1175.188, 2893.135
1175.670, 2895.165
1176.152, 2899.872
1176.634, 2912.474
1177.116, 2927.313
1177.598, 2934.453
1178.080, 2934.458
1178.562, 2929.583
1179.044, 2915.031
1179.527, 2904.068
1180.009, 2899.177
1180.491, 2894.768
1180.973, 2878.927
1181.455, 2861.620
1181.937, 2876.310
1182.419, 2914.879
1182.901, 2933.475
1183.384, 2886.005
1183.866, 2859.796
1184.348, 2875.514
1184.830, 2905.136
1185.312, 2914.973
1185.794, 2910.488
1186.276, 2902.218
1186.758, 2892.108
1187.240, 2890.721
1187.723, 2916.584
1188.205, 2932.237
1188.687, 2924.677
1189.169, 2908.273
1189.651, 2908.664
1190.133, 2919.680
1190.615, 2920.070
1191.097, 2907.003
1191.579, 2899.722
1192.062, 2913.346
1192.544, 2926.359
1193.026, 2932.541
1193.508, 2933.010
1193.990, 2925.931
1194.472, 2915.149
1194.954, 2915.293
1195.436, 2930.006
1195.919, 2946.493
1196.401, 2970.470
1196.883, 2980.520
1197.365, 2963.470
1197.847, 2930.065
1198.329, 2907.346
1198.811, 2895.457
1199.293, 2896.677
1199.776, 2914.774
1200.258, 2930.465
1200.740, 2932.635
1201.222, 2932.179
1201.704, 2934.429
1202.186, 2938.371
1202.668, 2939.195
1203.150, 2937.955
1203.632, 2939.686
1204.115, 2948.278
1204.597, 2953.294
1205.079, 2942.860
1205.561, 2934.947
1206.043, 2943.624
1206.525, 2963.218
1207.007, 2960.744
1207.489, 2941.172
1207.971, 2926.950
1208.454, 2929.646
1208.936, 2933.501
1209.418, 2933.652
1209.900, 2930.755
1210.382, 2923.558
1210.864, 2913.296
1211.346, 2908.928
1211.828, 2909.884
1212.311, 2913.623
1212.793, 2919.195
1213.275, 2927.161
1213.757, 2939.235
1214.239, 2952.522
1214.721, 2967.715
1215.203, 2983.006
1215.685, 2981.042
1216.167, 2964.788
1216.650, 2950.094
1217.132, 2946.671
1217.614, 2943.571
1218.096, 2934.360
1218.578, 2927.289
1219.060, 2931.062
1219.542, 2944.022
1220.024, 2958.103
1220.506, 2971.581
1220.989, 2976.283
1221.471, 2957.471
1221.953, 2943.377
1222.435, 2942.031
1222.917, 2948.328
1223.399, 2962.842
1223.881, 2981.293
1224.363, 2975.827
1224.846, 2950.497
1225.328, 2935.176
1225.810, 2956.524
1226.292, 2973.496
1226.774, 2973.920
1227.256, 2968.935
1227.738, 2974.306
1228.220, 2985.144
1228.703, 2979.610
1229.185, 2959.737
1229.667, 2947.338
1230.149, 2960.487
1230.631, 2971.460
1231.113, 2974.042
1231.595, 2972.040
1232.077, 2967.357
1232.559, 2962.610
1233.042, 2968.144
1233.524, 2982.859
1234.006, 2992.574
1234.488, 2986.798
1234.970, 2981.503
1235.452, 2979.796
1235.934, 2979.703
1236.416, 2978.826
1236.898, 2977.542
1237.381, 2976.765
1237.863, 2976.534
1238.345, 2976.146
1238.827, 2975.731
1239.309, 2974.410
1239.791, 2971.281
1240.273, 2968.935
1240.755, 2972.522
1241.238, 2978.656
1241.720, 2980.539
1242.202, 2977.970
1242.684, 2976.202
1243.166, 2975.734
1243.648, 2977.553
1244.130, 2982.737
1244.612, 2987.787
1245.094, 2982.611
1245.577, 2977.310
1246.059, 2993.476
1246.541, 3030.317
1247.023, 3045.084
1247.505, 3025.453
1247.987, 3011.312
1248.469, 3012.333
1248.951, 3016.531
1249.433, 3005.807
1249.916, 2991.905
1250.398, 2990.540
1250.880, 3002.165
1251.362, 3008.309
1251.844, 3007.161
1252.326, 3006.554
1252.808, 3008.975
1253.290, 3009.101
1253.773, 2995.290
1254.255, 2980.734
1254.737, 2979.668
1255.219, 2991.941
1255.701, 3003.813
1256.183, 3015.723
1256.665, 3023.138
1257.147, 3024.610
1257.630, 3023.437
1258.112, 3016.799
1258.594, 3013.692
1259.076, 3029.172
1259.558, 3055.627
1260.040, 3054.912
1260.522, 3027.514
1261.004, 3016.005
1261.486, 3032.198
1261.969, 3048.112
1262.451, 3040.792
1262.933, 3027.342
1263.415, 3016.815
1263.897, 3010.052
1264.379, 3010.075
1264.861, 3016.395
1265.343, 3028.940
1265.825, 3049.822
1266.308, 3058.478
1266.790, 3026.288
1267.272, 2997.503
1267.754, 2995.787
1268.236, 3010.340
1268.718, 3012.212
1269.200, 3005.714
1269.682, 3007.474
1270.165, 3021.658
1270.647, 3034.166
1271.129, 3040.895
1271.611, 3041.731
1272.093, 3034.294
1272.575, 3024.146
1273.057, 3022.533
1273.539, 3026.789
1274.021, 3031.218
1274.504, 3034.857
1274.986, 3039.037
1275.468, 3044.423
1275.950, 3050.050
1276.432, 3056.923
1276.914, 3061.237
1277.396, 3052.487
1277.878, 3039.613
##END=



