##NAMES=Powellite
##RRUFFID=R050355
##IDEAL CHEMISTRY=CaMo^6+^O_4_
##LOCALITY=Nasik, India
##OWNER=RRUFF
##SOURCE=George Rossman
##DESCRIPTION=Light brown fragment
##STATUS=The identification of this mineral has been confirmed by X-ray diffraction and chemical analysis
##URL=rruff.info/R050355
##MEASURED CHEMISTRY=Ca_1.00_Mo_1.00_O_4_
127.2358, 1722.363
127.7179, 1715.931
128.2001, 1703.220
128.6822, 1687.632
129.1643, 1670.523
129.6464, 1652.317
130.1285, 1639.403
130.6106, 1631.583
131.0928, 1629.827
131.5749, 1638.956
132.0570, 1655.081
132.5391, 1670.053
133.0212, 1676.201
133.5033, 1671.569
133.9855, 1671.625
134.4676, 1673.114
134.9497, 1680.588
135.4318, 1699.308
135.9139, 1728.634
136.3960, 1760.556
136.8782, 1784.388
137.3603, 1796.974
137.8424, 1821.544
138.3245, 1858.925
138.8066, 1909.066
139.2887, 1970.829
139.7709, 2042.917
140.2530, 2129.896
140.7351, 2250.300
141.2172, 2400.244
141.6993, 2535.091
142.1814, 2657.760
142.6636, 2754.920
143.1457, 2773.636
143.6278, 2678.755
144.1099, 2519.080
144.5920, 2327.273
145.0741, 2106.690
145.5563, 1895.958
146.0384, 1727.363
146.5205, 1603.118
147.0026, 1504.314
147.4847, 1437.637
147.9668, 1390.457
148.4490, 1362.936
148.9311, 1353.718
149.4132, 1352.161
149.8953, 1341.566
150.3774, 1314.198
150.8595, 1293.560
151.3417, 1281.535
151.8238, 1275.480
152.3059, 1274.622
152.7880, 1278.427
153.2701, 1285.031
153.7522, 1289.720
154.2344, 1293.662
154.7165, 1293.714
155.1986, 1286.351
155.6807, 1275.938
156.1628, 1267.467
156.6449, 1263.339
157.1271, 1263.274
157.6092, 1266.676
158.0913, 1280.408
158.5734, 1289.479
159.0555, 1283.664
159.5376, 1268.961
160.0198, 1262.472
160.5019, 1276.988
160.9840, 1305.055
161.4661, 1318.271
161.9482, 1307.876
162.4303, 1292.727
162.9125, 1284.001
163.3946, 1281.542
163.8767, 1282.496
164.3588, 1287.484
164.8409, 1294.309
165.3230, 1299.068
165.8052, 1299.454
166.2873, 1299.020
166.7694, 1302.682
167.2515, 1311.431
167.7336, 1321.013
168.2157, 1331.775
168.6979, 1341.547
169.1800, 1346.988
169.6621, 1345.086
170.1442, 1339.102
170.6263, 1338.931
171.1084, 1350.143
171.5906, 1358.273
172.0727, 1353.529
172.5548, 1344.208
173.0369, 1342.759
173.5190, 1358.359
174.0011, 1388.261
174.4833, 1409.135
174.9654, 1407.626
175.4475, 1409.924
175.9296, 1423.191
176.4117, 1444.293
176.8938, 1466.317
177.3760, 1483.475
177.8581, 1495.389
178.3402, 1517.800
178.8223, 1563.904
179.3044, 1606.375
179.7865, 1629.748
180.2687, 1639.499
180.7508, 1652.801
181.2329, 1683.966
181.7150, 1734.874
182.1971, 1791.225
182.6792, 1855.882
183.1614, 1922.566
183.6435, 1987.957
184.1256, 2051.730
184.6077, 2115.759
185.0898, 2182.810
185.5719, 2252.756
186.0540, 2316.130
186.5362, 2368.413
187.0183, 2416.406
187.5004, 2465.684
187.9825, 2516.973
188.4646, 2568.732
188.9467, 2622.824
189.4289, 2677.213
189.9110, 2723.167
190.3931, 2747.476
190.8752, 2765.458
191.3573, 2803.043
191.8394, 2866.861
192.3216, 2937.130
192.8037, 2998.286
193.2858, 3053.657
193.7679, 3111.184
194.2500, 3170.575
194.7321, 3234.264
195.2143, 3311.574
195.6964, 3405.241
196.1785, 3509.968
196.6606, 3616.118
197.1427, 3728.638
197.6248, 3857.704
198.1070, 4012.444
198.5891, 4191.127
199.0712, 4375.315
199.5533, 4551.433
200.0354, 4751.357
200.5175, 4987.953
200.9997, 5255.531
201.4818, 5543.745
201.9639, 5855.050
202.4460, 6191.821
202.9281, 6465.423
203.4102, 6689.082
203.8924, 6827.678
204.3745, 6869.068
204.8566, 6813.094
205.3387, 6658.507
205.8208, 6397.561
206.3029, 6018.998
206.7851, 5624.376
207.2672, 5182.505
207.7493, 4754.506
208.2314, 4355.551
208.7135, 3992.822
209.1956, 3676.027
209.6778, 3415.970
210.1599, 3218.670
210.6420, 3046.161
211.1241, 2901.602
211.6062, 2773.863
212.0883, 2659.489
212.5705, 2557.568
213.0526, 2465.905
213.5347, 2382.493
214.0168, 2308.372
214.4989, 2242.628
214.9810, 2190.024
215.4632, 2141.091
215.9453, 2092.343
216.4274, 2042.620
216.9095, 1987.317
217.3916, 1919.095
217.8737, 1838.069
218.3559, 1771.625
218.8380, 1726.150
219.3201, 1691.009
219.8022, 1659.368
220.2843, 1630.696
220.7664, 1601.102
221.2486, 1564.949
221.7307, 1524.660
222.2128, 1491.935
222.6949, 1472.422
223.1770, 1459.138
223.6591, 1445.293
224.1413, 1430.780
224.6234, 1414.943
225.1055, 1395.016
225.5876, 1373.598
226.0697, 1355.835
226.5518, 1344.969
227.0340, 1337.569
227.5161, 1328.544
227.9982, 1317.308
228.4803, 1306.456
228.9624, 1298.245
229.4445, 1291.229
229.9267, 1283.316
230.4088, 1273.236
230.8909, 1262.366
231.3730, 1253.590
231.8551, 1247.638
232.3372, 1242.025
232.8194, 1233.363
233.3015, 1225.051
233.7836, 1221.752
234.2657, 1226.428
234.7478, 1235.545
235.2299, 1241.374
235.7121, 1243.555
236.1942, 1242.829
236.6763, 1237.712
237.1584, 1231.021
237.6405, 1225.390
238.1227, 1221.812
238.6048, 1220.358
239.0869, 1221.973
239.5690, 1231.204
240.0511, 1235.173
240.5332, 1227.140
241.0154, 1215.435
241.4975, 1208.162
241.9796, 1208.773
242.4617, 1215.198
242.9438, 1223.120
243.4259, 1238.672
243.9081, 1245.248
244.3902, 1235.054
244.8723, 1218.974
245.3544, 1206.608
245.8365, 1201.721
246.3186, 1202.570
246.8007, 1205.372
247.2829, 1212.399
247.7650, 1218.112
248.2471, 1221.769
248.7292, 1224.355
249.2113, 1226.018
249.6934, 1226.984
250.1756, 1228.681
250.6577, 1234.309
251.1398, 1252.706
251.6219, 1261.555
252.1040, 1250.887
252.5861, 1236.367
253.0683, 1233.953
253.5504, 1247.701
254.0325, 1267.063
254.5146, 1274.348
254.9967, 1257.724
255.4788, 1250.739
255.9610, 1260.924
256.4431, 1276.289
256.9252, 1286.449
257.4073, 1289.016
257.8894, 1288.524
258.3716, 1291.396
258.8537, 1300.737
259.3358, 1304.546
259.8179, 1295.056
260.3000, 1284.680
260.7821, 1284.032
261.2643, 1294.957
261.7464, 1313.129
262.2285, 1335.597
262.7106, 1364.505
263.1927, 1385.281
263.6748, 1391.831
264.1570, 1393.831
264.6391, 1400.453
265.1212, 1412.373
265.6033, 1422.024
266.0854, 1421.216
266.5675, 1409.252
267.0497, 1400.562
267.5318, 1394.669
268.0139, 1392.714
268.4960, 1399.641
268.9781, 1414.786
269.4602, 1424.698
269.9424, 1416.330
270.4245, 1392.481
270.9066, 1377.368
271.3887, 1375.914
271.8708, 1380.029
272.3529, 1384.173
272.8351, 1388.358
273.3172, 1394.075
273.7993, 1402.317
274.2814, 1413.038
274.7635, 1425.446
275.2456, 1444.118
275.7278, 1459.296
276.2099, 1461.948
276.6920, 1453.426
277.1741, 1444.354
277.6562, 1437.896
278.1383, 1435.543
278.6204, 1439.120
279.1025, 1451.029
279.5847, 1463.728
280.0668, 1472.671
280.5489, 1478.197
281.0310, 1481.441
281.5131, 1480.135
281.9952, 1479.639
282.4774, 1487.726
282.9595, 1505.713
283.4416, 1524.207
283.9237, 1537.827
284.4058, 1547.305
284.8879, 1555.015
285.3701, 1558.774
285.8522, 1564.915
286.3343, 1581.048
286.8164, 1606.630
287.2985, 1632.191
287.7806, 1652.027
288.2628, 1667.835
288.7449, 1685.717
289.2270, 1708.936
289.7091, 1729.810
290.1912, 1738.968
290.6733, 1739.832
291.1555, 1745.281
291.6376, 1763.300
292.1197, 1789.847
292.6018, 1814.933
293.0839, 1835.744
293.5660, 1860.692
294.0482, 1899.720
294.5303, 1946.155
295.0124, 1988.128
295.4945, 2016.045
295.9766, 2039.143
296.4587, 2073.991
296.9409, 2122.233
297.4230, 2176.850
297.9051, 2237.017
298.3872, 2301.093
298.8693, 2367.239
299.3514, 2433.533
299.8336, 2504.255
300.3157, 2585.456
300.7978, 2678.211
301.2799, 2778.081
301.7620, 2887.351
302.2441, 3001.817
302.7263, 3119.632
303.2084, 3241.212
303.6905, 3362.653
304.1726, 3477.832
304.6547, 3585.873
305.1368, 3703.663
305.6190, 3842.511
306.1011, 3988.059
306.5832, 4126.795
307.0653, 4258.269
307.5474, 4394.170
308.0295, 4543.214
308.5117, 4704.718
308.9938, 4875.297
309.4759, 5057.166
309.9580, 5245.490
310.4401, 5435.438
310.9222, 5627.194
311.4044, 5822.522
311.8865, 6021.071
312.3686, 6222.730
312.8507, 6430.392
313.3328, 6643.357
313.8149, 6864.262
314.2971, 7088.006
314.7792, 7321.302
315.2613, 7579.463
315.7434, 7875.235
316.2255, 8197.788
316.7076, 8523.581
317.1898, 8852.765
317.6719, 9193.378
318.1540, 9558.438
318.6361, 9933.536
319.1182, 10307.33
319.6003, 10683.05
320.0825, 11043.24
320.5646, 11375.15
321.0467, 11684.39
321.5288, 11929.44
322.0109, 12078.58
322.4930, 12164.06
322.9752, 12206.94
323.4573, 12210.23
323.9394, 12163.94
324.4215, 12050.95
324.9036, 11872.87
325.3857, 11666.08
325.8679, 11421.78
326.3500, 11163.64
326.8321, 10915.77
327.3142, 10674.01
327.7963, 10413.57
328.2784, 10118.96
328.7606, 9792.158
329.2427, 9439.260
329.7248, 9058.346
330.2069, 8654.411
330.6890, 8214.694
331.1711, 7757.170
331.6533, 7317.475
332.1354, 6907.950
332.6175, 6528.094
333.0996, 6182.831
333.5817, 5878.940
334.0638, 5582.438
334.5460, 5268.799
335.0281, 4956.315
335.5102, 4667.289
335.9923, 4405.354
336.4744, 4169.012
336.9565, 3956.890
337.4387, 3770.481
337.9208, 3597.069
338.4029, 3437.132
338.8850, 3286.178
339.3671, 3137.296
339.8492, 2988.468
340.3314, 2854.448
340.8135, 2752.137
341.2956, 2676.344
341.7777, 2599.800
342.2598, 2515.887
342.7419, 2432.975
343.2241, 2356.027
343.7062, 2284.906
344.1883, 2221.845
344.6704, 2171.282
345.1525, 2128.913
345.6346, 2083.865
346.1168, 2033.026
346.5989, 1987.950
347.0810, 1964.746
347.5631, 1952.801
348.0452, 1932.965
348.5273, 1893.342
349.0095, 1850.141
349.4916, 1824.057
349.9737, 1815.611
350.4558, 1804.475
350.9379, 1776.672
351.4200, 1743.689
351.9022, 1725.454
352.3843, 1728.386
352.8664, 1730.837
353.3485, 1716.402
353.8306, 1689.014
354.3127, 1663.261
354.7949, 1641.077
355.2770, 1625.395
355.7591, 1622.694
356.2412, 1632.655
356.7233, 1639.507
357.2054, 1636.835
357.6876, 1627.809
358.1697, 1615.959
358.6518, 1601.110
359.1339, 1587.789
359.6160, 1579.900
360.0981, 1577.104
360.5803, 1577.559
361.0624, 1584.407
361.5445, 1591.945
362.0266, 1594.511
362.5087, 1592.755
362.9908, 1592.465
363.4730, 1597.554
363.9551, 1605.948
364.4372, 1610.328
364.9193, 1603.054
365.4014, 1604.381
365.8835, 1627.694
366.3657, 1664.939
366.8478, 1700.010
367.3299, 1727.262
367.8120, 1751.401
368.2941, 1777.551
368.7762, 1801.903
369.2584, 1843.736
369.7405, 1915.625
370.2226, 2000.256
370.7047, 2077.922
371.1868, 2147.518
371.6689, 2225.704
372.1511, 2331.510
372.6332, 2466.666
373.1153, 2581.999
373.5974, 2676.275
374.0795, 2755.399
374.5616, 2819.100
375.0438, 2870.040
375.5259, 2912.714
376.0080, 2947.822
376.4901, 2979.691
376.9722, 3023.870
377.4543, 3087.846
377.9365, 3153.985
378.4186, 3219.464
378.9007, 3286.780
379.3828, 3356.009
379.8649, 3427.828
380.3470, 3507.442
380.8292, 3602.100
381.3113, 3715.130
381.7934, 3836.892
382.2755, 3963.807
382.7576, 4101.251
383.2397, 4250.556
383.7219, 4412.940
384.2040, 4586.712
384.6861, 4767.859
385.1682, 4958.358
385.6503, 5186.040
386.1324, 5467.564
386.6146, 5770.164
387.0967, 6082.960
387.5788, 6413.767
388.0609, 6783.313
388.5430, 7198.830
389.0251, 7633.078
389.5073, 8048.031
389.9894, 8509.021
390.4715, 8801.640
390.9536, 8949.023
391.4357, 8928.443
391.9178, 8697.833
392.4000, 8269.938
392.8821, 7712.229
393.3642, 7062.136
393.8463, 6314.238
394.3284, 5614.875
394.8105, 4931.855
395.2927, 4337.731
395.7748, 3866.432
396.2569, 3494.868
396.7390, 3182.771
397.2211, 2913.464
397.7032, 2685.895
398.1854, 2503.089
398.6675, 2372.014
399.1496, 2263.230
399.6317, 2178.770
400.1138, 2106.595
400.5959, 2040.614
401.0780, 1979.670
401.5602, 1921.152
402.0423, 1860.923
402.5244, 1799.971
403.0065, 1748.758
403.4886, 1712.233
403.9707, 1680.961
404.4529, 1649.864
404.9350, 1618.465
405.4171, 1584.857
405.8992, 1544.717
406.3813, 1503.871
406.8634, 1472.372
407.3456, 1451.089
407.8277, 1430.777
408.3098, 1406.632
408.7919, 1380.571
409.2740, 1355.899
409.7561, 1332.759
410.2383, 1310.912
410.7204, 1289.428
411.2025, 1268.942
411.6846, 1250.630
412.1667, 1234.209
412.6488, 1221.522
413.1310, 1217.828
413.6131, 1222.876
414.0952, 1222.028
414.5773, 1206.101
415.0594, 1187.703
415.5415, 1180.204
416.0237, 1183.040
416.5058, 1185.036
416.9879, 1178.952
417.4700, 1165.939
417.9521, 1152.489
418.4342, 1133.191
418.9164, 1119.854
419.3985, 1117.509
419.8806, 1122.528
420.3627, 1131.596
420.8448, 1143.548
421.3269, 1154.102
421.8091, 1156.690
422.2912, 1148.505
422.7733, 1139.442
423.2554, 1127.134
423.7375, 1116.074
424.2196, 1110.030
424.7018, 1107.928
425.1839, 1105.542
425.6660, 1099.554
426.1481, 1090.940
426.6302, 1086.423
427.1123, 1093.674
427.5945, 1095.532
428.0766, 1084.002
428.5587, 1069.195
429.0408, 1061.615
429.5229, 1064.281
430.0050, 1071.952
430.4872, 1078.171
430.9693, 1083.403
431.4514, 1085.164
431.9335, 1079.847
432.4156, 1074.040
432.8977, 1071.145
433.3799, 1069.945
433.8620, 1066.448
434.3441, 1056.502
434.8262, 1043.937
435.3083, 1041.730
435.7904, 1055.185
436.2726, 1064.276
436.7547, 1055.503
437.2368, 1042.470
437.7189, 1038.132
438.2010, 1045.365
438.6831, 1054.002
439.1653, 1055.433
439.6474, 1050.719
440.1295, 1045.412
440.6116, 1040.112
441.0937, 1034.805
441.5758, 1026.879
442.0580, 1018.336
442.5401, 1016.636
443.0222, 1030.967
443.5043, 1048.168
443.9864, 1054.310
444.4685, 1050.335
444.9507, 1045.331
445.4328, 1043.118
445.9149, 1042.879
446.3970, 1042.883
446.8791, 1043.326
447.3612, 1043.438
447.8434, 1042.938
448.3255, 1042.029
448.8076, 1041.091
449.2897, 1040.151
449.7718, 1038.596
450.2539, 1035.622
450.7361, 1031.098
451.2182, 1028.073
451.7003, 1029.247
452.1824, 1028.765
452.6645, 1022.787
453.1466, 1014.072
453.6288, 1006.917
454.1109, 1003.187
454.5930, 1002.604
455.0751, 1005.162
455.5572, 1015.191
456.0393, 1019.652
456.5215, 1013.699
457.0036, 1007.241
457.4857, 1006.125
457.9678, 1010.012
458.4499, 1015.726
458.9320, 1021.775
459.4142, 1027.264
459.8963, 1026.438
460.3784, 1015.131
460.8605, 1004.839
461.3426, 994.2951
461.8247, 988.2471
462.3069, 994.8948
462.7890, 1016.213
463.2711, 1036.803
463.7532, 1037.994
464.2353, 1021.385
464.7174, 1009.532
465.1996, 1006.477
465.6817, 1006.177
466.1638, 1003.303
466.6459, 999.5737
467.1280, 999.8912
467.6101, 1010.757
468.0923, 1021.934
468.5744, 1018.968
469.0565, 1003.585
469.5386, 994.3101
470.0207, 1000.688
470.5028, 1013.981
470.9850, 1018.644
471.4671, 1013.920
471.9492, 1008.020
472.4313, 1001.421
472.9134, 995.5650
473.3955, 991.9117
473.8777, 990.6016
474.3598, 991.5975
474.8419, 995.7708
475.3240, 1002.308
475.8061, 1002.861
476.2882, 990.2069
476.7704, 981.3094
477.2525, 983.2019
477.7346, 989.0923
478.2167, 989.9224
478.6988, 983.6373
479.1809, 976.4575
479.6631, 977.3753
480.1452, 989.5362
480.6273, 993.5067
481.1094, 976.5515
481.5915, 964.4395
482.0736, 969.9719
482.5558, 985.4077
483.0379, 996.8970
483.5200, 997.7043
484.0021, 991.9966
484.4842, 987.3332
484.9663, 983.9122
485.4485, 980.4880
485.9306, 975.7921
486.4127, 971.9800
486.8948, 969.9921
487.3769, 970.0122
487.8590, 972.5629
488.3412, 982.0801
488.8233, 993.0677
489.3054, 992.5007
489.7875, 978.9466
490.2696, 967.4121
490.7517, 966.2997
491.2339, 971.7857
491.7160, 975.5311
492.1981, 977.2130
492.6802, 978.0599
493.1623, 978.7802
493.6444, 978.8887
494.1266, 977.3763
494.6087, 974.1028
495.0908, 970.1301
495.5729, 965.6637
496.0550, 960.8367
496.5371, 961.2302
497.0193, 975.1469
497.5014, 983.8664
497.9835, 977.1620
498.4656, 963.3790
498.9477, 954.6478
499.4298, 954.8391
499.9120, 958.4785
500.3941, 956.9741
500.8762, 947.2983
501.3583, 944.5825
501.8404, 956.6805
502.3225, 967.7621
502.8047, 973.0175
503.2868, 973.0118
503.7689, 968.6255
504.2510, 959.5993
504.7331, 949.3370
505.2152, 943.7908
505.6974, 943.1714
506.1795, 946.1230
506.6616, 956.4395
507.1437, 966.3950
507.6258, 969.5060
508.1079, 966.7941
508.5901, 964.2737
509.0722, 966.8603
509.5543, 970.3383
510.0364, 967.4387
510.5185, 958.2457
511.0006, 949.3379
511.4828, 942.3649
511.9649, 938.9340
512.4470, 943.6337
512.9291, 959.3287
513.4112, 971.8961
513.8933, 975.8173
514.3754, 975.9666
514.8575, 978.0625
515.3397, 982.1075
515.8218, 983.2797
516.3039, 977.5269
516.7860, 965.9865
517.2681, 957.0089
517.7502, 949.1925
518.2324, 945.9526
518.7145, 953.8489
519.1966, 962.7008
519.6787, 960.6068
520.1608, 947.0803
520.6429, 933.4995
521.1251, 931.9230
521.6072, 941.9621
522.0893, 950.2593
522.5714, 959.1602
523.0535, 962.2408
523.5356, 952.3845
524.0178, 938.5692
524.4999, 931.8322
524.9820, 935.3953
525.4641, 941.3411
525.9462, 943.4235
526.4283, 941.9155
526.9105, 937.1373
527.3926, 927.7487
527.8747, 919.2515
528.3568, 915.3032
528.8389, 915.8040
529.3210, 920.4731
529.8032, 935.3607
530.2853, 947.5071
530.7674, 947.2921
531.2495, 939.7505
531.7316, 934.5585
532.2137, 934.5244
532.6959, 937.2166
533.1780, 940.3308
533.6601, 944.8018
534.1422, 943.4828
534.6243, 930.6371
535.1064, 919.1880
535.5886, 913.3063
536.0707, 912.1984
536.5528, 914.7950
537.0349, 920.5587
537.5170, 928.0657
537.9991, 936.0272
538.4813, 945.6030
538.9634, 949.4862
539.4455, 942.9174
539.9276, 935.2963
540.4097, 928.9537
540.8918, 925.0064
541.3740, 926.6595
541.8561, 938.6179
542.3382, 949.2946
542.8203, 939.2554
543.3024, 911.4756
543.7845, 895.8731
544.2667, 903.0533
544.7488, 918.0428
545.2309, 925.0688
545.7130, 925.0302
546.1951, 925.1378
546.6772, 928.7101
547.1594, 930.6481
547.6415, 926.1116
548.1236, 917.3126
548.6057, 909.1456
549.0878, 903.4964
549.5699, 901.0740
550.0521, 903.7843
550.5342, 915.1691
551.0163, 920.6710
551.4984, 917.2330
551.9805, 911.9889
552.4626, 906.2193
552.9448, 901.2653
553.4269, 899.0451
553.9090, 900.5502
554.3911, 904.3161
554.8732, 907.2706
555.3553, 908.7839
555.8375, 914.4739
556.3196, 931.4233
556.8017, 945.1437
557.2838, 943.9083
557.7659, 932.3821
558.2480, 923.7586
558.7302, 923.9447
559.2123, 927.5190
559.6944, 930.6512
560.1765, 932.8404
560.6586, 930.6745
561.1407, 921.8611
561.6229, 912.7321
562.1050, 912.4564
562.5871, 923.1968
563.0692, 926.6037
563.5513, 915.6630
564.0334, 904.1986
564.5156, 898.1853
564.9977, 896.9043
565.4798, 899.8792
565.9619, 906.7252
566.4440, 912.8745
566.9261, 909.6239
567.4083, 892.7045
567.8904, 883.7346
568.3725, 888.7529
568.8546, 895.9304
569.3367, 903.2762
569.8188, 909.6084
570.3010, 913.6489
570.7831, 915.1056
571.2652, 913.4407
571.7473, 904.2645
572.2294, 889.4912
572.7115, 886.4076
573.1937, 902.0649
573.6758, 919.0955
574.1579, 923.0451
574.6400, 916.2006
575.1221, 907.3707
575.6042, 891.5858
576.0864, 880.5498
576.5685, 884.3073
577.0506, 895.4836
577.5327, 901.0725
578.0148, 898.0669
578.4969, 893.8206
578.9791, 896.7099
579.4612, 907.2011
579.9433, 913.0992
580.4254, 910.9345
580.9075, 908.1024
581.3896, 905.2891
581.8718, 902.8062
582.3539, 901.0406
582.8360, 900.0078
583.3181, 899.1359
583.8002, 897.3685
584.2823, 895.0338
584.7645, 894.9424
585.2466, 897.9968
585.7287, 900.7398
586.2108, 901.5012
586.6929, 900.8889
587.1750, 899.7044
587.6572, 897.9578
588.1393, 895.8111
588.6214, 891.3718
589.1035, 887.5608
589.5856, 890.6797
590.0677, 900.0669
590.5499, 905.2833
591.0320, 898.5952
591.5141, 884.0760
591.9962, 876.9656
592.4783, 886.3817
592.9604, 890.5604
593.4426, 884.4241
593.9247, 877.0582
594.4068, 874.6940
594.8889, 876.9814
595.3710, 880.6603
595.8531, 884.2555
596.3353, 886.6169
596.8174, 883.4606
597.2995, 873.0076
597.7816, 867.6409
598.2637, 872.8759
598.7458, 881.2259
599.2280, 886.4899
599.7101, 889.0865
600.1922, 891.3675
600.6743, 895.1129
601.1564, 897.9250
601.6385, 896.8545
602.1207, 893.1381
602.6028, 890.1777
603.0849, 889.0439
603.5670, 890.0014
604.0491, 894.4507
604.5313, 904.3472
605.0134, 905.1567
605.4955, 887.3352
605.9776, 872.6468
606.4597, 870.1962
606.9418, 873.8627
607.4240, 875.3566
607.9061, 872.3754
608.3882, 868.9313
608.8703, 869.8917
609.3524, 874.9000
609.8345, 879.8125
610.3167, 886.0200
610.7988, 888.4290
611.2809, 878.2443
611.7630, 865.6454
612.2451, 866.7010
612.7272, 886.3724
613.2094, 902.3084
613.6915, 901.1840
614.1736, 892.5027
614.6557, 887.9877
615.1378, 888.1239
615.6199, 887.9621
616.1021, 884.3850
616.5842, 878.7870
617.0663, 875.2241
617.5484, 875.3103
618.0305, 874.6906
618.5126, 871.5378
618.9948, 869.4216
619.4769, 872.7187
619.9590, 878.5457
620.4411, 879.5529
620.9232, 871.1965
621.4053, 859.7411
621.8875, 855.9553
622.3696, 859.6813
622.8517, 861.0461
623.3338, 858.1187
623.8159, 853.0375
624.2980, 845.0276
624.7802, 836.0491
625.2623, 833.0400
625.7444, 840.0437
626.2265, 848.9782
626.7086, 857.2921
627.1907, 864.8052
627.6729, 872.0641
628.1550, 878.7870
628.6371, 882.0398
629.1192, 878.4916
629.6013, 869.4360
630.0834, 866.0722
630.5656, 874.7253
631.0477, 878.4448
631.5298, 871.6983
632.0119, 862.1827
632.4940, 853.1347
632.9761, 846.1915
633.4583, 845.3905
633.9404, 857.7648
634.4225, 873.7541
634.9046, 875.9484
635.3867, 865.5568
635.8688, 858.7638
636.3510, 861.6918
636.8331, 867.3464
637.3152, 866.8625
637.7973, 859.3826
638.2794, 855.2829
638.7615, 857.9576
639.2437, 860.3749
639.7258, 859.9893
640.2079, 857.4082
640.6900, 851.8513
641.1721, 843.9874
641.6542, 839.4448
642.1364, 846.2921
642.6185, 863.0523
643.1006, 869.4361
643.5827, 861.3369
644.0648, 851.8509
644.5469, 841.5029
645.0291, 834.4149
645.5112, 836.5302
645.9933, 848.0914
646.4754, 857.8839
646.9575, 859.5358
647.4396, 857.8832
647.9218, 858.1545
648.4039, 859.8913
648.8860, 859.9081
649.3681, 856.7061
649.8502, 853.1339
650.3323, 854.4456
650.8145, 863.7825
651.2966, 863.3572
651.7787, 836.5507
652.2608, 819.5272
652.7429, 833.9261
653.2250, 859.4748
653.7072, 869.0427
654.1893, 856.2322
654.6714, 838.7192
655.1535, 832.8010
655.6356, 835.4919
656.1177, 836.9927
656.5999, 836.9689
657.0820, 836.0643
657.5641, 833.5233
658.0462, 831.2382
658.5283, 833.2845
659.0104, 840.2797
659.4926, 847.2154
659.9747, 855.3699
660.4568, 861.3918
660.9389, 862.5411
661.4210, 860.0189
661.9031, 856.3810
662.3853, 852.6301
662.8674, 848.0803
663.3495, 840.3638
663.8316, 828.8535
664.3137, 824.5690
664.7958, 831.0880
665.2780, 838.3314
665.7601, 844.5292
666.2422, 847.7379
666.7243, 843.4417
667.2064, 829.9801
667.6885, 820.1545
668.1707, 823.1207
668.6528, 830.7225
669.1349, 833.3965
669.6170, 831.8051
670.0991, 831.4218
670.5812, 834.8246
671.0634, 840.3821
671.5455, 845.7191
672.0276, 851.8145
672.5097, 853.8216
672.9918, 845.6570
673.4739, 840.0703
673.9561, 842.8932
674.4382, 849.6298
674.9203, 855.4767
675.4024, 859.1791
675.8845, 858.7257
676.3666, 846.0207
676.8488, 829.7741
677.3309, 833.8937
677.8130, 858.8845
678.2951, 875.3062
678.7772, 867.0790
679.2593, 846.7114
679.7415, 836.8101
680.2236, 841.0618
680.7057, 845.2186
681.1878, 852.1812
681.6699, 855.9781
682.1520, 852.1157
682.6342, 844.0286
683.1163, 836.0445
683.5984, 829.6823
684.0805, 826.0357
684.5626, 827.0263
685.0447, 831.9167
685.5269, 837.5505
686.0090, 844.6685
686.4911, 848.0142
686.9732, 842.9405
687.4553, 834.9820
687.9374, 834.8019
688.4196, 843.9224
688.9017, 846.3038
689.3838, 831.6792
689.8659, 817.4812
690.3480, 813.8655
690.8301, 818.0803
691.3123, 826.5840
691.7944, 837.4689
692.2765, 845.4527
692.7586, 842.7000
693.2407, 830.3690
693.7228, 825.6823
694.2050, 831.5600
694.6871, 837.1516
695.1692, 839.0588
695.6513, 838.5609
696.1334, 837.1596
696.6155, 834.8646
697.0977, 830.9943
697.5798, 821.2615
698.0619, 813.7111
698.5440, 817.0579
699.0261, 826.4463
699.5082, 831.5468
699.9904, 829.5359
700.4725, 825.3113
700.9546, 824.0589
701.4367, 825.5942
701.9188, 826.9753
702.4009, 827.3064
702.8831, 829.2863
703.3652, 837.7527
703.8473, 844.9728
704.3294, 843.1609
704.8115, 833.7000
705.2936, 826.8195
705.7758, 827.6136
706.2579, 831.4954
706.7400, 836.8137
707.2221, 841.9892
707.7042, 842.7200
708.1863, 838.2295
708.6685, 833.3156
709.1505, 832.8920
709.6326, 835.7477
710.1147, 832.2073
710.5969, 816.4792
711.0790, 805.0265
711.5611, 800.8029
712.0432, 800.4918
712.5253, 804.2091
713.0074, 810.2488
713.4896, 814.0786
713.9717, 813.0912
714.4538, 810.9677
714.9359, 811.0865
715.4180, 812.5194
715.9001, 813.1089
716.3823, 812.5361
716.8644, 811.5151
717.3465, 810.2191
717.8286, 809.3757
718.3107, 812.0672
718.7928, 822.7186
719.2750, 828.4047
719.7571, 825.8475
720.2392, 821.4672
720.7213, 817.0434
721.2034, 813.4209
721.6855, 811.8545
722.1677, 812.9845
722.6498, 815.0214
723.1319, 817.0326
723.6140, 818.7140
724.0961, 819.7395
724.5782, 819.9906
725.0604, 818.1918
725.5425, 813.2632
726.0246, 807.0464
726.5067, 803.3563
726.9888, 803.2030
727.4709, 802.5181
727.9531, 796.6381
728.4352, 795.5530
728.9173, 807.6511
729.3994, 824.0746
729.8815, 834.6223
730.3636, 836.9245
730.8458, 831.9321
731.3279, 813.0197
731.8100, 790.9232
732.2921, 785.9497
732.7742, 795.7067
733.2563, 801.1453
733.7385, 794.4382
734.2206, 787.6749
734.7027, 798.0977
735.1848, 827.7350
735.6669, 843.7817
736.1490, 833.4262
736.6312, 825.5446
737.1133, 826.6786
737.5954, 830.7037
738.0775, 832.9758
738.5596, 832.9174
739.0417, 831.3382
739.5239, 828.5742
740.0060, 824.5699
740.4881, 816.3160
740.9702, 806.7333
741.4523, 807.0737
741.9344, 819.5922
742.4166, 832.3459
742.8987, 835.7984
743.3808, 830.9127
743.8629, 821.7924
744.3450, 800.8548
744.8271, 789.6975
745.3093, 793.6954
745.7914, 802.9922
746.2735, 817.3098
746.7556, 832.0386
747.2377, 838.3003
747.7198, 831.8315
748.2020, 822.8179
748.6841, 817.1253
749.1662, 814.8442
749.6483, 817.8810
750.1304, 825.3283
750.6125, 831.0791
751.0947, 831.9824
751.5768, 829.6733
752.0589, 826.7433
752.5410, 822.6877
753.0231, 820.3845
753.5052, 819.6138
753.9874, 821.0210
754.4695, 828.5547
754.9516, 835.9728
755.4337, 834.4033
755.9158, 823.4561
756.3979, 816.3198
756.8801, 824.5729
757.3622, 834.8355
757.8443, 832.0560
758.3264, 821.3243
758.8085, 815.0214
759.2906, 816.3909
759.7728, 821.4297
760.2549, 826.6819
760.7370, 831.9703
761.2191, 836.0737
761.7012, 838.9092
762.1833, 840.8279
762.6655, 841.8973
763.1476, 842.0021
763.6297, 838.9056
764.1118, 834.8712
764.5939, 837.0138
765.0760, 852.0524
765.5582, 862.6039
766.0403, 853.7567
766.5224, 840.3399
767.0045, 841.8447
767.4866, 855.3375
767.9688, 862.4354
768.4509, 853.5408
768.9330, 840.0680
769.4151, 842.8153
769.8972, 862.6355
770.3793, 875.5919
770.8615, 879.6771
771.3436, 880.8453
771.8257, 879.0076
772.3078, 877.5760
772.7899, 882.9560
773.2720, 895.9762
773.7542, 904.5729
774.2363, 900.9787
774.7184, 899.0733
775.2005, 905.7621
775.6826, 918.3716
776.1647, 934.2431
776.6469, 952.0682
777.1290, 969.9864
777.6111, 986.6961
778.0932, 1002.183
778.5753, 1015.128
779.0574, 1025.758
779.5396, 1040.508
780.0217, 1061.721
780.5038, 1083.621
780.9859, 1102.415
781.4680, 1118.199
781.9501, 1131.503
782.4323, 1137.430
782.9144, 1149.105
783.3965, 1169.439
783.8786, 1193.244
784.3607, 1218.544
784.8428, 1245.022
785.3250, 1272.262
785.8071, 1300.143
786.2892, 1329.840
786.7713, 1358.292
787.2534, 1390.922
787.7355, 1439.630
788.2177, 1503.295
788.6998, 1572.946
789.1819, 1645.648
789.6640, 1720.323
790.1461, 1795.661
790.6282, 1871.671
791.1104, 1950.157
791.5925, 2040.198
792.0746, 2116.522
792.5567, 2191.972
793.0388, 2238.299
793.5209, 2232.458
794.0031, 2179.812
794.4852, 2099.655
794.9673, 1989.035
795.4494, 1868.742
795.9315, 1746.116
796.4136, 1625.216
796.8958, 1504.895
797.3779, 1390.034
797.8600, 1296.419
798.3421, 1232.439
798.8242, 1188.524
799.3063, 1151.549
799.7885, 1121.605
800.2706, 1090.810
800.7527, 1056.712
801.2348, 1029.896
801.7169, 1017.695
802.1990, 1012.096
802.6812, 1002.111
803.1633, 987.7662
803.6454, 975.2816
804.1275, 962.2597
804.6096, 954.8664
805.0917, 959.7350
805.5739, 968.5281
806.0560, 974.3411
806.5381, 975.5502
807.0202, 971.3553
807.5023, 960.0261
807.9844, 946.9722
808.4666, 937.5575
808.9487, 932.6815
809.4308, 939.2139
809.9129, 958.1725
810.3950, 971.6409
810.8771, 968.1200
811.3593, 955.8507
811.8414, 951.7160
812.3235, 958.2770
812.8056, 963.2711
813.2877, 964.3530
813.7698, 966.8193
814.2520, 973.8471
814.7341, 981.7564
815.2162, 986.3271
815.6983, 987.5593
816.1804, 989.5438
816.6625, 992.6711
817.1447, 998.4753
817.6268, 1011.698
818.1089, 1026.756
818.5910, 1033.366
819.0731, 1031.497
819.5552, 1029.726
820.0374, 1033.591
820.5195, 1041.275
821.0016, 1049.197
821.4837, 1057.334
821.9658, 1066.276
822.4479, 1075.550
822.9301, 1087.745
823.4122, 1106.844
823.8943, 1127.287
824.3764, 1137.575
824.8585, 1134.014
825.3406, 1139.991
825.8228, 1160.672
826.3049, 1185.600
826.7870, 1210.006
827.2691, 1237.797
827.7512, 1272.123
828.2333, 1313.856
828.7155, 1363.721
829.1976, 1423.216
829.6797, 1489.353
830.1618, 1553.980
830.6439, 1623.599
831.1260, 1716.526
831.6082, 1833.157
832.0903, 1955.825
832.5724, 2075.761
833.0545, 2191.312
833.5366, 2298.866
834.0187, 2398.323
834.5009, 2492.020
834.9830, 2579.991
835.4651, 2661.652
835.9472, 2723.129
836.4293, 2788.317
836.9114, 2884.854
837.3936, 3011.484
837.8757, 3146.275
838.3578, 3277.838
838.8399, 3427.534
839.3220, 3602.140
839.8041, 3800.447
840.2863, 4023.981
840.7684, 4270.217
841.2505, 4527.122
841.7326, 4786.692
842.2147, 5079.861
842.6968, 5435.874
843.1790, 5855.937
843.6611, 6353.898
844.1432, 6928.294
844.6253, 7569.438
845.1074, 8287.318
845.5895, 9000.605
846.0717, 9641.557
846.5538, 10209.29
847.0359, 10391.34
847.5180, 10125.04
848.0001, 9587.883
848.4822, 8638.473
848.9644, 7585.697
849.4465, 6570.570
849.9286, 5622.195
850.4107, 4808.023
850.8928, 4139.847
851.3749, 3605.302
851.8571, 3240.911
852.3392, 2969.288
852.8213, 2736.372
853.3034, 2542.594
853.7855, 2404.424
854.2676, 2325.834
854.7498, 2289.336
855.2319, 2289.211
855.7140, 2313.831
856.1961, 2333.262
856.6782, 2350.721
857.1603, 2390.665
857.6425, 2458.994
858.1246, 2546.406
858.6067, 2642.641
859.0888, 2754.087
859.5709, 2905.994
860.0530, 3102.023
860.5352, 3329.641
861.0173, 3579.688
861.4994, 3873.196
861.9815, 4221.746
862.4636, 4617.934
862.9457, 5061.275
863.4279, 5551.990
863.9100, 6053.758
864.3921, 6583.622
864.8742, 7096.267
865.3563, 7558.198
865.8384, 7993.466
866.3206, 8419.735
866.8027, 8846.828
867.2848, 9288.313
867.7669, 9745.842
868.2490, 10236.82
868.7311, 10772.10
869.2133, 11356.59
869.6954, 12008.36
870.1775, 12729.84
870.6596, 13510.56
871.1417, 14344.50
871.6238, 15247.45
872.1060, 16243.02
872.5881, 17329.90
873.0702, 18532.72
873.5523, 19843.93
874.0344, 21287.67
874.5165, 22877.82
874.9987, 24602.38
875.4808, 26580.41
875.9629, 28696.04
876.4450, 30636.67
876.9271, 32591.11
877.4092, 33925.69
877.8914, 34620.22
878.3735, 34561.08
878.8556, 33569.26
879.3377, 31825.63
879.8198, 29454.62
880.3019, 26547.41
880.7841, 23578.71
881.2662, 20741.90
881.7483, 18113.93
882.2304, 15761.25
882.7125, 13691.32
883.1946, 11948.93
883.6768, 10527.57
884.1589, 9326.821
884.6410, 8294.025
885.1231, 7409.997
885.6052, 6653.229
886.0873, 6024.498
886.5695, 5472.689
887.0516, 5004.370
887.5337, 4598.873
888.0158, 4262.482
888.4979, 3967.032
888.9800, 3678.325
889.4622, 3396.052
889.9443, 3155.020
890.4264, 2971.719
890.9085, 2805.665
891.3906, 2659.302
891.8727, 2523.171
892.3549, 2387.154
892.8370, 2258.180
893.3191, 2151.589
893.8012, 2071.698
894.2833, 2001.795
894.7654, 1940.120
895.2476, 1878.887
895.7297, 1807.634
896.2118, 1733.793
896.6939, 1670.945
897.1760, 1620.568
897.6581, 1573.471
898.1403, 1521.957
898.6224, 1473.291
899.1045, 1441.426
899.5866, 1422.725
900.0687, 1402.093
900.5508, 1377.832
901.0330, 1345.939
901.5151, 1302.842
901.9972, 1259.790
902.4793, 1234.193
902.9614, 1226.075
903.4435, 1217.941
903.9257, 1212.813
904.4078, 1198.915
904.8899, 1165.977
905.3720, 1133.645
905.8541, 1118.796
906.3362, 1116.391
906.8184, 1111.506
907.3005, 1104.592
907.7826, 1093.588
908.2647, 1073.733
908.7468, 1054.789
909.2289, 1040.570
909.7111, 1030.510
910.1932, 1025.199
910.6753, 1023.586
911.1574, 1019.611
911.6395, 1007.411
912.1216, 996.1537
912.6038, 995.5255
913.0859, 999.1295
913.5680, 996.6771
914.0501, 989.4408
914.5322, 986.1653
915.0143, 990.6108
915.4965, 997.1260
915.9786, 998.3891
916.4607, 996.2974
916.9428, 997.2704
917.4249, 1001.267
917.9070, 1010.035
918.3892, 1024.989
918.8713, 1032.981
919.3534, 1022.359
919.8355, 999.0963
920.3176, 981.8634
920.7997, 973.0371
921.2819, 960.5483
921.7640, 941.6843
922.2461, 924.2258
922.7282, 912.3870
923.2103, 902.5461
923.6924, 889.9048
924.1746, 874.6833
924.6567, 861.6429
925.1388, 849.7354
925.6209, 841.7704
926.1030, 841.3280
926.5851, 842.0634
927.0673, 839.6122
927.5494, 835.2622
928.0315, 831.7988
928.5136, 829.9102
928.9957, 828.5625
929.4778, 825.8252
929.9600, 824.8134
930.4421, 830.8195
930.9242, 838.8830
931.4063, 841.1382
931.8884, 837.2049
932.3705, 831.4874
932.8527, 826.3553
933.3348, 821.0273
933.8169, 812.3013
934.2990, 803.0551
934.7811, 803.5153
935.2632, 812.3685
935.7454, 817.7072
936.2275, 815.6223
936.7096, 809.5171
937.1917, 802.0614
937.6738, 794.2516
938.1559, 790.4798
938.6381, 791.4497
939.1202, 790.8149
939.6023, 787.7465
940.0844, 783.5510
940.5665, 778.1208
941.0486, 772.8998
941.5308, 769.8827
942.0129, 768.9294
942.4950, 771.8236
942.9771, 786.3535
943.4592, 792.8961
943.9413, 780.3944
944.4235, 767.5403
944.9056, 768.1674
945.3877, 776.4879
945.8698, 778.6772
946.3519, 770.9719
946.8340, 766.5822
947.3162, 774.2415
947.7983, 779.8732
948.2804, 773.3696
948.7625, 762.6851
949.2446, 757.3126
949.7267, 757.2102
950.2089, 756.0925
950.6910, 750.0547
951.1731, 746.1682
951.6552, 753.9031
952.1373, 764.0677
952.6194, 763.5953
953.1016, 756.0099
953.5837, 752.1021
954.0658, 754.5316
954.5479, 757.3575
955.0300, 755.6015
955.5121, 751.5450
955.9943, 749.6951
956.4763, 749.2432
956.9584, 745.9423
957.4406, 739.7435
957.9227, 736.7515
958.4048, 739.9369
958.8869, 745.5651
959.3690, 749.2415
959.8511, 750.7676
960.3333, 747.3225
960.8154, 737.7044
961.2975, 732.6417
961.7796, 735.3082
962.2617, 738.5876
962.7438, 738.0027
963.2260, 734.8529
963.7081, 731.8491
964.1902, 729.0694
964.6723, 725.9944
965.1544, 722.6799
965.6365, 718.9359
966.1187, 711.8885
966.6008, 707.1312
967.0829, 710.3834
967.5650, 719.2383
968.0471, 726.7135
968.5292, 733.8126
969.0114, 735.8693
969.4935, 728.5660
969.9756, 720.4474
970.4577, 713.4098
970.9398, 708.7881
971.4219, 709.6920
971.9041, 714.5749
972.3862, 715.6736
972.8683, 707.8297
973.3504, 701.4975
973.8325, 704.4403
974.3146, 709.0206
974.7968, 708.0155
975.2789, 703.7277
975.7610, 700.0946
976.2431, 698.5266
976.7252, 700.6927
977.2073, 710.0555
977.6895, 719.3970
978.1716, 719.9614
978.6537, 715.5320
979.1358, 713.0540
979.6179, 711.9387
980.1000, 706.2638
980.5822, 694.2546
981.0643, 683.2586
981.5464, 681.0261
982.0285, 684.7178
982.5106, 689.0208
982.9927, 693.5153
983.4749, 696.1389
983.9570, 696.6306
984.4391, 695.9148
984.9212, 694.4577
985.4033, 692.0214
985.8854, 687.4329
986.3676, 681.4440
986.8497, 682.2217
987.3318, 690.7310
987.8139, 693.9957
988.2960, 688.5215
988.7781, 682.1659
989.2603, 679.9109
989.7424, 680.3476
990.2245, 680.7628
990.7066, 681.3361
991.1887, 680.1572
991.6708, 675.8536
992.1530, 673.2585
992.6351, 674.5895
993.1172, 676.2205
993.5993, 674.2859
994.0814, 670.8212
994.5635, 673.1620
995.0457, 687.8400
995.5278, 689.8093
996.0099, 663.4949
996.4920, 644.8834
996.9741, 647.6317
997.4562, 657.7695
997.9384, 666.5002
998.4205, 672.6721
998.9026, 673.2895
999.3847, 664.8912
999.8668, 658.9506
1000.349, 657.9611
1000.831, 659.5797
1001.313, 664.6884
1001.795, 670.4296
1002.277, 674.6837
1002.760, 676.7822
1003.242, 675.3741
1003.724, 668.6050
1004.206, 661.9196
1004.688, 656.3585
1005.170, 653.2766
1005.652, 655.4393
1006.134, 659.8621
1006.616, 663.1631
1007.099, 664.1887
1007.581, 661.2471
1008.063, 651.6812
1008.545, 642.4695
1009.027, 638.7950
1009.509, 638.8482
1009.991, 641.2716
1010.473, 645.4125
1010.956, 652.1305
1011.438, 660.3944
1011.920, 663.1304
1012.402, 653.4923
1012.884, 641.2045
1013.366, 637.3664
1013.848, 639.8721
1014.330, 648.6360
1014.812, 659.9788
1015.295, 660.5803
1015.777, 647.5162
1016.259, 635.5440
1016.741, 638.2365
1017.223, 647.7708
1017.705, 649.9401
1018.187, 646.5811
1018.669, 642.9911
1019.151, 640.0670
1019.634, 640.2659
1020.116, 644.4478
1020.598, 650.4966
1021.080, 656.8951
1021.562, 662.3339
1022.044, 662.3057
1022.526, 657.3169
1023.008, 651.6034
1023.491, 645.5622
1023.973, 644.1409
1024.455, 649.8516
1024.937, 656.7833
1025.419, 658.1153
1025.901, 654.9158
1026.383, 652.1431
1026.865, 649.8964
1027.348, 645.6599
1027.830, 638.2369
1028.312, 634.9301
1028.794, 639.6701
1029.276, 647.9997
1029.758, 654.7355
1030.240, 659.8730
1030.722, 663.3257
1031.204, 665.5807
1031.687, 663.3049
1032.169, 654.3013
1032.651, 646.1328
1033.133, 642.0486
1033.615, 641.1579
1034.097, 643.2175
1034.579, 647.8026
1035.061, 647.7567
1035.543, 639.7840
1036.026, 636.3859
1036.508, 643.5950
1036.990, 645.6292
1037.472, 629.9780
1037.954, 610.8091
1038.436, 608.1489
1038.918, 621.2725
1039.400, 628.5790
1039.883, 625.6633
1040.365, 625.0784
1040.847, 628.9019
1041.329, 633.4497
1041.811, 640.7232
1042.293, 645.4190
1042.775, 636.9008
1043.257, 615.8206
1043.740, 607.3719
1044.222, 622.3866
1044.704, 633.2737
1045.186, 637.3275
1045.668, 638.5714
1046.150, 637.1651
1046.632, 634.9330
1047.114, 634.6201
1047.596, 635.9894
1048.078, 634.9337
1048.561, 627.3610
1049.043, 623.0496
1049.525, 624.2095
1050.007, 627.6376
1050.489, 634.9924
1050.971, 641.6882
1051.453, 641.2855
1051.935, 634.3977
1052.418, 628.9262
1052.900, 625.7926
1053.382, 624.7375
1053.864, 627.2668
1054.346, 630.0715
1054.828, 631.4981
1055.310, 632.2052
1055.792, 632.3906
1056.275, 632.5152
1056.757, 635.1420
1057.239, 645.4455
1057.721, 648.6494
1058.203, 634.6909
1058.685, 619.4899
1059.167, 608.5256
1059.649, 603.4348
1060.131, 608.4818
1060.614, 621.0508
1061.096, 629.6139
1061.578, 630.7233
1062.060, 628.7153
1062.542, 621.5896
1063.024, 615.7060
1063.506, 614.7738
1063.988, 616.9919
1064.470, 622.9974
1064.953, 630.1539
1065.435, 629.2931
1065.917, 614.6021
1066.399, 603.9382
1066.881, 605.8670
1067.363, 612.0639
1067.845, 622.5851
1068.327, 631.1699
1068.810, 627.8771
1069.292, 616.8679
1069.774, 613.5482
1070.256, 623.9448
1070.738, 631.6094
1071.220, 625.8011
1071.702, 619.5306
1072.184, 622.3066
1072.667, 626.9256
1073.149, 624.0751
1073.631, 616.5506
1074.113, 613.7711
1074.595, 618.5276
1075.077, 623.9271
1075.559, 629.9766
1076.041, 632.0394
1076.523, 622.4424
1077.005, 611.8829
1077.488, 612.4249
1077.970, 620.0401
1078.452, 624.4495
1078.934, 623.2086
1079.416, 618.9979
1079.898, 608.8605
1080.380, 601.2751
1080.862, 601.0484
1081.344, 604.9233
1081.827, 612.6226
1082.309, 621.1087
1082.791, 626.2691
1083.273, 627.1213
1083.755, 622.7432
1084.237, 607.2448
1084.719, 594.1922
1085.201, 591.6707
1085.684, 592.6075
1086.166, 591.0840
1086.648, 589.2244
1087.130, 592.1597
1087.612, 599.6616
1088.094, 604.3383
1088.576, 601.1416
1089.058, 599.2722
1089.541, 607.1055
1090.023, 613.0077
1090.505, 604.5336
1090.987, 591.8199
1091.469, 588.1380
1091.951, 593.9521
1092.433, 603.4880
1092.915, 618.5946
1093.397, 626.5500
1093.880, 616.1000
1094.362, 604.2418
1094.844, 599.3437
1095.326, 599.5551
1095.808, 604.5417
1096.290, 612.1008
1096.772, 616.6496
1097.254, 616.1486
1097.736, 616.1019
1098.219, 620.0088
1098.701, 622.6715
1099.183, 621.1365
1099.665, 617.8543
1100.147, 614.2428
1100.629, 610.9243
1101.111, 608.7025
1101.593, 607.7238
1102.076, 607.5561
1102.558, 610.6541
1103.040, 611.0135
1103.522, 602.3526
1104.004, 594.6592
1104.486, 597.3787
1104.968, 604.6332
1105.450, 605.6017
1105.932, 599.5108
1106.415, 596.7163
1106.897, 601.7023
1107.379, 606.3305
1107.861, 610.2422
1108.343, 612.0547
1108.825, 610.8096
1109.307, 607.2416
1109.789, 601.0319
1110.271, 592.9480
1110.754, 587.5104
1111.236, 585.3305
1111.718, 585.5140
1112.200, 589.0479
1112.682, 593.5569
1113.164, 603.3807
1113.646, 609.5019
1114.128, 600.2992
1114.611, 580.8581
1115.093, 568.2380
1115.575, 563.5397
1116.057, 563.0140
1116.539, 569.6912
1117.021, 575.9570
1117.503, 579.9728
1117.985, 583.6885
1118.468, 590.1844
1118.950, 596.1034
1119.432, 593.7936
1119.914, 582.0917
1120.396, 576.5995
1120.878, 581.3699
1121.360, 583.3406
1121.842, 578.2797
1122.324, 575.4127
1122.807, 580.3483
1123.289, 588.3513
1123.771, 594.0026
1124.253, 597.2335
1124.735, 597.5274
1125.217, 594.6254
1125.699, 589.1040
1126.181, 579.2123
1126.663, 572.4993
1127.146, 572.4041
1127.628, 573.9137
1128.110, 571.9351
1128.592, 568.7775
1129.074, 572.2612
1129.556, 583.5036
1130.038, 589.0773
1130.520, 588.4614
1131.003, 585.1536
1131.485, 579.4443
1131.967, 574.1088
1132.449, 570.5820
1132.931, 569.9722
1133.413, 575.1296
1133.895, 584.7392
1134.377, 589.5416
1134.859, 589.6634
1135.342, 587.2211
1135.824, 582.5786
1136.306, 580.7538
1136.788, 584.0645
1137.270, 586.3886
1137.752, 580.4151
1138.234, 570.5682
1138.716, 569.0474
1139.198, 573.3145
1139.681, 570.5292
1140.163, 561.9225
1140.645, 560.6186
1141.127, 569.3418
1141.609, 577.3875
1142.091, 577.4108
1142.573, 573.1039
1143.055, 566.9186
1143.538, 561.6347
1144.020, 566.3382
1144.502, 575.8011
1144.984, 574.4822
1145.466, 563.1086
1145.948, 555.4659
1146.430, 557.3931
1146.912, 562.3975
1147.395, 566.9554
1147.877, 569.1437
1148.359, 563.0502
1148.841, 555.8060
1149.323, 559.2657
1149.805, 569.6042
1150.287, 577.4279
1150.769, 580.0988
1151.251, 577.7637
1151.734, 567.8681
1152.216, 559.7151
1152.698, 559.2823
1153.180, 563.3257
1153.662, 573.9633
1154.144, 584.2176
1154.626, 583.2466
1155.108, 573.8398
1155.590, 568.3024
1156.073, 570.4154
1156.555, 573.0761
1157.037, 575.6779
1157.519, 575.8357
1158.001, 569.6179
1158.483, 563.5016
1158.965, 561.9016
1159.447, 564.0466
1159.930, 569.6415
1160.412, 578.4776
1160.894, 582.8741
1161.376, 575.1644
1161.858, 573.7536
1162.340, 592.3516
1162.822, 601.6490
1163.304, 580.4771
1163.786, 555.8959
1164.269, 555.4011
1164.751, 571.4561
1165.233, 577.6699
1165.715, 570.9027
1166.197, 568.4464
1166.679, 572.7177
1167.161, 574.1392
1167.643, 569.3331
1168.125, 565.5753
1168.608, 567.7336
1169.090, 572.0659
1169.572, 573.0785
1170.054, 571.0952
1170.536, 567.2751
1171.018, 561.2288
1171.500, 563.9053
1171.982, 576.6492
1172.465, 585.1226
1172.947, 584.2179
1173.429, 581.4351
1173.911, 583.1927
1174.393, 586.4352
1174.875, 584.5160
1175.357, 579.2384
1175.839, 578.1491
1176.322, 580.1508
1176.804, 579.5866
1177.286, 576.1164
1177.768, 573.9590
1178.250, 575.0295
1178.732, 577.8498
1179.214, 582.4522
1179.696, 586.0705
1180.178, 584.4414
1180.661, 579.7750
1181.143, 573.8558
1181.625, 568.3619
1182.107, 567.7935
1182.589, 571.4837
1183.071, 570.8730
1183.553, 560.0907
1184.035, 551.8660
1184.517, 556.5577
1185.000, 563.9799
1185.482, 568.9111
1185.964, 571.1956
1186.446, 569.4041
1186.928, 565.5663
1187.410, 564.4553
1187.892, 566.9695
1188.374, 567.5815
1188.857, 561.3170
1189.339, 558.5730
1189.821, 565.5118
1190.303, 571.6491
1190.785, 570.3209
1191.267, 566.9399
1191.749, 567.8381
1192.231, 571.6891
1192.714, 573.3161
1193.196, 572.2213
1193.678, 570.5717
1194.160, 567.2070
1194.642, 567.0931
1195.124, 573.2722
1195.606, 576.3249
1196.088, 569.5533
1196.570, 560.4138
1197.052, 559.7717
1197.535, 565.5113
1198.017, 566.0119
1198.499, 561.5282
1198.981, 564.6485
1199.463, 575.6818
1199.945, 581.2055
1200.427, 577.5950
1200.909, 572.9965
1201.392, 573.0704
1201.874, 574.6210
1202.356, 573.1807
1202.838, 569.8372
1203.320, 566.5222
1203.802, 563.3387
1204.284, 559.5132
1204.766, 556.0624
1205.249, 557.0939
1205.731, 563.2561
1206.213, 568.8903
1206.695, 571.5176
1207.177, 570.1118
1207.659, 559.3972
1208.141, 548.9177
1208.623, 547.5941
1209.105, 551.2095
1209.588, 556.6724
1210.070, 561.3650
1210.552, 558.7730
1211.034, 546.2555
1211.516, 539.4366
1211.998, 546.2461
1212.480, 552.8197
1212.962, 556.9663
1213.444, 558.7461
1213.927, 556.3120
1214.409, 553.1224
1214.891, 553.9160
1215.373, 557.0674
1215.855, 554.6209
1216.337, 543.9050
1216.819, 539.8362
1217.301, 544.2946
1217.784, 548.4113
1218.266, 550.7017
1218.748, 550.2840
1219.230, 545.8760
1219.712, 542.6785
1220.194, 548.3430
1220.676, 559.1718
1221.158, 563.9807
1221.641, 563.1151
1222.123, 556.4514
1222.605, 545.5979
1223.087, 537.7567
1223.569, 534.6104
1224.051, 534.5033
1224.533, 536.6243
1225.015, 539.1046
1225.497, 542.6573
1225.979, 542.9664
1226.462, 530.6212
1226.944, 515.2830
1227.426, 506.4505
1227.908, 506.2038
1228.390, 522.0505
1228.872, 550.2383
1229.354, 562.4958
1229.836, 541.3546
1230.319, 526.6317
1230.801, 538.6236
1231.283, 550.9823
1231.765, 554.3705
1232.247, 551.9331
1232.729, 540.1730
1233.211, 527.5487
1233.693, 531.2471
1234.176, 550.3995
1234.658, 558.5854
1235.140, 551.2890
1235.622, 546.8130
1236.104, 546.4825
1236.586, 546.8600
1237.068, 546.8724
1237.550, 547.6407
1238.032, 549.9299
1238.515, 553.7872
1238.997, 561.1366
1239.479, 569.0339
1239.961, 562.4813
1240.443, 545.5354
1240.925, 535.8903
1241.407, 534.6697
1241.889, 539.1345
1242.371, 547.4047
1242.854, 553.9454
1243.336, 555.5168
1243.818, 553.2684
1244.300, 544.3829
1244.782, 536.2995
1245.264, 537.6791
1245.746, 542.9675
1246.228, 545.9338
1246.711, 547.0509
1247.193, 550.1977
1247.675, 555.1306
1248.157, 552.8288
1248.639, 533.4536
1249.121, 522.2053
1249.603, 534.1986
1250.085, 539.9022
1250.568, 521.0069
1251.050, 504.6190
1251.532, 511.4166
1252.014, 528.8278
1252.496, 535.4412
1252.978, 532.6130
1253.460, 536.7856
1253.942, 549.2975
1254.424, 553.6970
1254.906, 548.7986
1255.389, 539.1489
1255.871, 526.1970
1256.353, 518.9652
1256.835, 523.6403
1257.317, 531.7083
1257.799, 532.1749
1258.281, 528.8469
1258.763, 527.8363
1259.246, 528.4901
1259.728, 529.6459
1260.210, 531.4368
1260.692, 536.5950
1261.174, 543.5309
1261.656, 542.4666
1262.138, 527.6065
1262.620, 515.0776
1263.103, 511.6599
1263.585, 513.1679
1264.067, 520.9332
1264.549, 529.5486
1265.031, 536.3236
1265.513, 541.0662
1265.995, 545.0613
1266.477, 547.1960
1266.959, 540.3963
1267.442, 520.0981
1267.924, 509.2857
1268.406, 508.1440
1268.888, 518.4180
1269.370, 542.9727
1269.852, 558.1141
1270.334, 551.3340
1270.816, 536.2247
1271.298, 525.8386
1271.781, 520.9341
1272.263, 526.4762
1272.745, 537.0928
1273.227, 538.1795
1273.709, 533.6639
##END=



