##NAMES=Prehnite
##RRUFFID=R040047
##IDEAL CHEMISTRY=Ca_2_Al(Si_3_Al)O_10_(OH)_2_
##LOCALITY=Mohave County, Arizona, USA
##OWNER=RRUFF
##SOURCE=University of Arizona Mineral Museum
##DESCRIPTION=Green coarsely crystalline massive
##STATUS=The identification of this mineral has been confirmed by X-ray diffraction and chemical analysis
##URL=rruff.info/R040047
##MEASURED CHEMISTRY=Light bands: Ca_2.01_(Al_1.61_Fe_0.43_)Si_3.08_O_10_(OH)_2_; Dark bands: Ca_1.99_(Al_1.82_Fe_0.19_)Si_3.04_O_10_(OH)_2_
144.1114, 2756.526
144.5935, 2753.406
145.0756, 2772.318
145.5577, 2804.676
146.0399, 2819.709
146.5220, 2799.469
147.0041, 2775.866
147.4862, 2772.647
147.9683, 2789.639
148.4504, 2817.352
148.9326, 2852.149
149.4147, 2895.638
149.8968, 2931.472
150.3789, 2953.466
150.8610, 2968.367
151.3431, 2976.081
151.8252, 2977.040
152.3074, 2977.747
152.7895, 2989.793
153.2716, 3022.022
153.7537, 3046.507
154.2358, 3054.098
154.7179, 3056.967
155.2001, 3065.516
155.6822, 3084.266
156.1643, 3110.408
156.6464, 3135.148
157.1285, 3151.427
157.6106, 3175.238
158.0928, 3208.023
158.5749, 3249.166
159.0570, 3295.588
159.5391, 3344.281
160.0212, 3397.487
160.5033, 3480.426
160.9855, 3612.596
161.4676, 3749.776
161.9497, 3887.810
162.4318, 4021.440
162.9139, 4143.728
163.3960, 4255.000
163.8782, 4352.196
164.3603, 4382.714
164.8424, 4342.071
165.3245, 4247.817
165.8066, 4092.287
166.2887, 3878.551
166.7709, 3654.235
167.2530, 3459.022
167.7351, 3293.426
168.2172, 3146.971
168.6993, 3018.848
169.1814, 2909.398
169.6636, 2819.775
170.1457, 2751.068
170.6278, 2699.015
171.1099, 2663.563
171.5920, 2641.868
172.0741, 2626.339
172.5563, 2617.047
173.0384, 2611.956
173.5205, 2603.446
174.0026, 2583.343
174.4847, 2570.345
174.9668, 2586.402
175.4490, 2628.886
175.9311, 2664.284
176.4132, 2661.863
176.8953, 2622.914
177.3774, 2596.601
177.8595, 2598.877
178.3417, 2611.142
178.8238, 2623.339
179.3059, 2634.222
179.7880, 2644.570
180.2701, 2653.290
180.7522, 2658.043
181.2344, 2671.517
181.7165, 2705.398
182.1986, 2742.080
182.6807, 2772.581
183.1628, 2794.086
183.6449, 2806.936
184.1271, 2808.178
184.6092, 2781.555
185.0913, 2777.129
185.5734, 2816.743
186.0555, 2868.038
186.5376, 2901.093
187.0198, 2903.916
187.5019, 2890.032
187.9840, 2895.460
188.4661, 2944.103
188.9482, 2983.133
189.4303, 3006.782
189.9125, 3019.508
190.3946, 3025.919
190.8767, 3028.303
191.3588, 3027.076
191.8409, 3024.124
192.3230, 3015.463
192.8052, 3009.496
193.2873, 3010.714
193.7694, 3015.489
194.2515, 3018.252
194.7336, 3016.142
195.2157, 3008.921
195.6979, 2992.781
196.1800, 2961.636
196.6621, 2930.143
197.1442, 2900.406
197.6263, 2874.021
198.1084, 2854.631
198.5906, 2844.678
199.0727, 2844.717
199.5548, 2851.318
200.0369, 2877.135
200.5190, 2898.244
201.0011, 2899.540
201.4833, 2881.654
201.9654, 2855.316
202.4475, 2823.462
202.9296, 2788.849
203.4117, 2768.606
203.8938, 2782.739
204.3760, 2799.359
204.8581, 2784.215
205.3402, 2733.842
205.8223, 2683.607
206.3044, 2663.641
206.7865, 2667.444
207.2687, 2672.792
207.7508, 2677.268
208.2329, 2680.411
208.7150, 2680.742
209.1971, 2677.289
209.6792, 2674.421
210.1614, 2676.221
210.6435, 2681.276
211.1256, 2686.853
211.6077, 2690.217
212.0898, 2693.594
212.5719, 2702.647
213.0541, 2719.978
213.5362, 2738.323
214.0183, 2754.737
214.5004, 2768.605
214.9825, 2777.676
215.4646, 2779.276
215.9468, 2774.684
216.4289, 2768.748
216.9110, 2759.798
217.3931, 2752.148
217.8752, 2753.553
218.3573, 2759.255
218.8395, 2755.660
219.3216, 2724.879
219.8037, 2670.318
220.2858, 2636.157
220.7679, 2643.763
221.2500, 2650.163
221.7322, 2636.405
222.2143, 2604.594
222.6964, 2564.425
223.1785, 2519.791
223.6606, 2470.072
224.1427, 2429.869
224.6249, 2407.912
225.1070, 2388.637
225.5891, 2365.432
226.0712, 2339.215
226.5533, 2314.919
227.0354, 2296.833
227.5176, 2285.290
227.9997, 2278.168
228.4818, 2280.397
228.9639, 2283.015
229.4460, 2282.711
229.9281, 2279.404
230.4103, 2274.494
230.8924, 2267.771
231.3745, 2256.323
231.8566, 2256.729
232.3387, 2285.177
232.8208, 2311.032
233.3030, 2321.551
233.7851, 2315.515
234.2672, 2297.309
234.7493, 2269.119
235.2314, 2223.950
235.7135, 2195.133
236.1957, 2187.233
236.6778, 2188.646
237.1599, 2197.144
237.6420, 2210.444
238.1241, 2223.861
238.6062, 2231.349
239.0884, 2229.319
239.5705, 2233.475
240.0526, 2251.519
240.5347, 2268.603
241.0168, 2273.542
241.4989, 2266.541
241.9811, 2257.804
242.4632, 2260.234
242.9453, 2281.645
243.4274, 2288.990
243.9095, 2276.076
244.3916, 2256.028
244.8738, 2231.433
245.3559, 2205.315
245.8380, 2187.239
246.3201, 2190.941
246.8022, 2230.430
247.2843, 2244.782
247.7665, 2216.296
248.2486, 2177.782
248.7307, 2149.362
249.2128, 2134.742
249.6949, 2130.347
250.1770, 2133.407
250.6592, 2147.718
251.1413, 2156.080
251.6234, 2155.813
252.1055, 2151.814
252.5876, 2145.827
253.0697, 2138.767
253.5519, 2133.659
254.0340, 2134.139
254.5161, 2141.875
254.9982, 2149.799
255.4803, 2162.938
255.9624, 2172.984
256.4445, 2169.333
256.9267, 2151.792
257.4088, 2135.259
257.8909, 2137.014
258.3730, 2163.123
258.8551, 2176.291
259.3372, 2164.750
259.8194, 2147.828
260.3015, 2139.324
260.7836, 2141.189
261.2657, 2151.305
261.7478, 2170.171
262.2299, 2199.838
262.7121, 2219.767
263.1942, 2222.917
263.6763, 2220.626
264.1584, 2221.740
264.6405, 2227.138
265.1227, 2232.622
265.6048, 2231.966
266.0869, 2224.944
266.5690, 2232.296
267.0511, 2272.131
267.5332, 2314.746
268.0154, 2331.046
268.4975, 2320.139
268.9796, 2308.986
269.4617, 2320.918
269.9438, 2356.446
270.4259, 2386.205
270.9081, 2401.390
271.3902, 2416.237
271.8723, 2444.822
272.3544, 2487.170
272.8365, 2527.982
273.3186, 2555.415
273.8008, 2569.990
274.2829, 2586.520
274.7650, 2615.801
275.2471, 2639.257
275.7292, 2635.971
276.2113, 2608.020
276.6935, 2584.395
277.1756, 2584.847
277.6577, 2608.322
278.1398, 2632.997
278.6219, 2659.544
279.1040, 2686.889
279.5862, 2717.668
280.0683, 2750.683
280.5504, 2775.181
281.0325, 2779.896
281.5146, 2771.315
281.9967, 2777.180
282.4789, 2811.320
282.9610, 2846.990
283.4431, 2864.325
283.9252, 2866.673
284.4073, 2872.894
284.8894, 2893.059
285.3716, 2924.565
285.8537, 2957.886
286.3358, 3003.284
286.8179, 3037.738
287.3000, 3039.802
287.7821, 3017.172
288.2643, 3004.065
288.7464, 3024.960
289.2285, 3056.705
289.7106, 3042.010
290.1927, 2959.495
290.6748, 2874.292
291.1570, 2820.558
291.6391, 2789.132
292.1212, 2751.480
292.6033, 2694.341
293.0854, 2628.076
293.5675, 2573.958
294.0497, 2533.604
294.5318, 2496.749
295.0139, 2459.289
295.4960, 2422.262
295.9781, 2387.801
296.4602, 2356.383
296.9424, 2328.298
297.4245, 2303.749
297.9066, 2280.706
298.3887, 2266.140
298.8708, 2267.280
299.3529, 2277.387
299.8351, 2284.275
300.3172, 2284.140
300.7993, 2282.407
301.2814, 2286.744
301.7635, 2296.955
302.2456, 2309.929
302.7278, 2324.524
303.2099, 2341.617
303.6920, 2362.623
304.1741, 2387.948
304.6562, 2416.052
305.1383, 2448.021
305.6205, 2484.455
306.1026, 2512.006
306.5847, 2514.563
307.0668, 2515.102
307.5489, 2540.376
308.0310, 2593.806
308.5132, 2654.143
308.9953, 2702.209
309.4774, 2737.361
309.9595, 2775.643
310.4416, 2813.937
310.9237, 2858.193
311.4059, 2919.335
311.8880, 2995.359
312.3701, 3065.035
312.8522, 3109.222
313.3343, 3129.619
313.8164, 3166.446
314.2986, 3237.649
314.7807, 3308.321
315.2628, 3360.467
315.7449, 3394.694
316.2270, 3418.394
316.7091, 3436.552
317.1913, 3447.072
317.6734, 3440.070
318.1555, 3404.644
318.6376, 3366.456
319.1197, 3343.366
319.6018, 3325.097
320.0840, 3282.914
320.5661, 3198.742
321.0482, 3089.447
321.5303, 3013.806
322.0124, 2989.848
322.4945, 2968.447
322.9767, 2940.887
323.4588, 2909.368
323.9409, 2874.309
324.4230, 2834.997
324.9051, 2798.895
325.3872, 2781.738
325.8694, 2796.613
326.3515, 2807.647
326.8336, 2810.698
327.3157, 2809.518
327.7978, 2808.282
328.2799, 2807.983
328.7621, 2806.315
329.2442, 2800.305
329.7263, 2790.163
330.2084, 2773.479
330.6905, 2743.177
331.1726, 2711.746
331.6548, 2691.308
332.1369, 2681.426
332.6190, 2669.343
333.1011, 2641.627
333.5832, 2595.490
334.0653, 2548.195
334.5475, 2497.603
335.0296, 2448.045
335.5117, 2397.438
335.9938, 2349.058
336.4759, 2311.411
336.9580, 2292.715
337.4402, 2292.544
337.9223, 2283.065
338.4044, 2251.232
338.8865, 2224.598
339.3686, 2213.869
339.8507, 2212.760
340.3329, 2209.781
340.8150, 2198.096
341.2971, 2180.272
341.7792, 2167.342
342.2613, 2164.584
342.7434, 2160.391
343.2256, 2150.338
343.7077, 2139.573
344.1898, 2133.246
344.6719, 2133.406
345.1540, 2139.249
345.6361, 2149.905
346.1183, 2169.012
346.6004, 2185.924
347.0825, 2202.027
347.5646, 2214.637
348.0467, 2220.644
348.5288, 2219.906
349.0110, 2216.478
349.4931, 2212.687
349.9752, 2204.602
350.4573, 2211.990
350.9394, 2251.692
351.4215, 2293.629
351.9037, 2328.183
352.3858, 2353.195
352.8679, 2367.033
353.3500, 2360.727
353.8321, 2335.534
354.3142, 2336.594
354.7964, 2385.202
355.2785, 2435.679
355.7606, 2473.311
356.2427, 2499.236
356.7248, 2516.208
357.2069, 2521.927
357.6891, 2522.053
358.1712, 2533.918
358.6533, 2563.049
359.1354, 2591.737
359.6175, 2612.507
360.0996, 2629.097
360.5818, 2645.727
361.0639, 2664.272
361.5460, 2681.973
362.0281, 2697.207
362.5102, 2710.928
362.9923, 2713.306
363.4745, 2688.528
363.9566, 2659.138
364.4387, 2648.081
364.9208, 2659.123
365.4029, 2676.842
365.8850, 2689.356
366.3672, 2698.303
366.8493, 2713.466
367.3314, 2738.763
367.8135, 2768.269
368.2956, 2798.263
368.7777, 2828.505
369.2599, 2852.508
369.7420, 2857.826
370.2241, 2857.750
370.7062, 2878.887
371.1883, 2927.589
371.6704, 2977.486
372.1526, 3003.312
372.6347, 3009.809
373.1168, 3024.543
373.5989, 3060.043
374.0810, 3098.304
374.5631, 3120.144
375.0453, 3127.965
375.5274, 3144.705
376.0095, 3187.584
376.4916, 3248.954
376.9737, 3295.258
377.4558, 3320.970
377.9380, 3340.303
378.4201, 3353.671
378.9022, 3364.755
379.3843, 3381.344
379.8664, 3406.938
380.3485, 3437.242
380.8307, 3462.719
381.3128, 3478.594
381.7949, 3498.739
382.2770, 3531.670
382.7591, 3565.106
383.2412, 3583.822
383.7234, 3586.392
384.2055, 3587.492
384.6876, 3606.367
385.1697, 3652.684
385.6518, 3674.105
386.1339, 3664.170
386.6161, 3640.264
387.0982, 3608.671
387.5803, 3570.291
388.0624, 3524.776
388.5445, 3471.536
389.0266, 3410.668
389.5088, 3344.691
389.9909, 3276.632
390.4730, 3198.942
390.9551, 3098.810
391.4372, 2992.523
391.9193, 2900.292
392.4015, 2830.987
392.8836, 2777.541
393.3657, 2726.888
393.8478, 2683.010
394.3299, 2632.770
394.8120, 2560.246
395.2942, 2490.901
395.7763, 2445.048
396.2584, 2424.422
396.7405, 2411.359
397.2226, 2388.531
397.7047, 2355.957
398.1869, 2324.233
398.6690, 2292.765
399.1511, 2263.956
399.6332, 2236.698
400.1153, 2212.652
400.5974, 2196.453
401.0796, 2195.980
401.5617, 2203.488
402.0438, 2198.684
402.5259, 2176.786
403.0080, 2161.853
403.4901, 2182.531
403.9723, 2214.045
404.4544, 2214.905
404.9365, 2159.839
405.4186, 2103.066
405.9007, 2098.155
406.3828, 2135.154
406.8650, 2158.254
407.3471, 2142.975
407.8292, 2110.929
408.3113, 2097.621
408.7934, 2105.085
409.2755, 2115.459
409.7577, 2126.086
410.2398, 2135.364
410.7219, 2139.596
411.2040, 2138.123
411.6861, 2136.791
412.1682, 2141.774
412.6504, 2154.103
413.1325, 2164.712
413.6146, 2176.733
414.0967, 2184.378
414.5788, 2181.590
415.0609, 2171.279
415.5431, 2161.615
416.0252, 2157.340
416.5073, 2158.094
416.9894, 2162.166
417.4715, 2175.174
417.9536, 2184.835
418.4358, 2188.067
418.9179, 2188.279
419.4000, 2187.994
419.8821, 2188.332
420.3642, 2190.978
420.8463, 2198.707
421.3285, 2212.640
421.8106, 2228.677
422.2927, 2255.155
422.7748, 2276.297
423.2569, 2280.781
423.7390, 2271.865
424.2212, 2262.306
424.7033, 2261.806
425.1854, 2268.994
425.6675, 2274.680
426.1496, 2273.642
426.6317, 2280.443
427.1139, 2310.096
427.5960, 2346.542
428.0781, 2368.390
428.5602, 2365.923
429.0423, 2353.023
429.5244, 2345.187
430.0066, 2342.460
430.4887, 2343.291
430.9708, 2350.456
431.4529, 2357.995
431.9350, 2359.654
432.4171, 2355.289
432.8993, 2348.101
433.3814, 2338.459
433.8635, 2327.316
434.3456, 2316.414
434.8277, 2306.093
435.3098, 2295.265
435.7920, 2282.511
436.2741, 2268.038
436.7562, 2255.071
437.2383, 2241.968
437.7204, 2232.010
438.2025, 2231.258
438.6847, 2235.701
439.1668, 2232.608
439.6489, 2214.554
440.1310, 2188.399
440.6131, 2173.007
441.0952, 2187.588
441.5774, 2185.581
442.0595, 2150.605
442.5416, 2106.444
443.0237, 2072.306
443.5058, 2052.593
443.9879, 2044.537
444.4701, 2047.573
444.9522, 2065.035
445.4343, 2069.635
445.9164, 2050.610
446.3985, 2029.342
446.8806, 2008.820
447.3628, 1991.412
447.8449, 1980.320
448.3270, 1977.628
448.8091, 1981.248
449.2912, 1987.080
449.7733, 1997.194
450.2555, 2003.629
450.7376, 1998.207
451.2197, 1992.133
451.7018, 1995.059
452.1839, 2008.444
452.6660, 2023.295
453.1482, 2032.011
453.6303, 2035.950
454.1124, 2040.973
454.5945, 2047.322
455.0766, 2055.896
455.5587, 2071.055
456.0409, 2089.793
456.5230, 2101.969
457.0051, 2095.225
457.4872, 2088.801
457.9693, 2105.802
458.4514, 2141.456
458.9336, 2166.819
459.4156, 2165.823
459.8978, 2148.693
460.3799, 2143.201
460.8620, 2157.792
461.3441, 2166.020
461.8262, 2158.699
462.3083, 2145.229
462.7905, 2135.435
463.2726, 2131.048
463.7547, 2127.688
464.2368, 2120.139
464.7189, 2107.172
465.2010, 2100.935
465.6832, 2114.011
466.1653, 2120.047
466.6474, 2102.721
467.1295, 2074.193
467.6116, 2053.895
468.0938, 2051.716
468.5759, 2063.307
469.0580, 2081.376
469.5401, 2110.955
470.0222, 2132.777
470.5043, 2134.498
470.9865, 2133.889
471.4686, 2143.835
471.9507, 2164.392
472.4328, 2183.979
472.9149, 2194.510
473.3970, 2197.124
473.8792, 2194.642
474.3613, 2185.243
474.8434, 2176.556
475.3255, 2173.161
475.8076, 2174.109
476.2897, 2177.533
476.7719, 2180.897
477.2540, 2189.597
477.7361, 2212.713
478.2182, 2244.797
478.7003, 2269.686
479.1824, 2281.861
479.6646, 2284.306
480.1467, 2279.781
480.6288, 2263.937
481.1109, 2255.310
481.5930, 2261.251
482.0751, 2269.707
482.5573, 2271.992
483.0394, 2268.433
483.5215, 2264.304
484.0036, 2263.666
484.4857, 2265.490
484.9678, 2262.590
485.4500, 2244.285
485.9321, 2235.824
486.4142, 2244.482
486.8963, 2261.827
487.3784, 2282.406
487.8605, 2303.903
488.3427, 2321.880
488.8248, 2328.430
489.3069, 2322.778
489.7890, 2324.375
490.2711, 2335.677
490.7532, 2352.883
491.2354, 2375.435
491.7175, 2401.562
492.1996, 2427.654
492.6817, 2453.421
493.1638, 2477.285
493.6459, 2494.220
494.1281, 2505.217
494.6102, 2524.641
495.0923, 2561.301
495.5744, 2605.143
496.0565, 2636.242
496.5386, 2650.168
497.0208, 2673.580
497.5029, 2717.563
497.9850, 2770.931
498.4671, 2822.075
498.9492, 2870.261
499.4313, 2923.167
499.9135, 2988.537
500.3956, 3064.314
500.8777, 3126.125
501.3598, 3148.041
501.8419, 3186.873
502.3240, 3259.099
502.8062, 3349.393
503.2883, 3440.205
503.7704, 3526.351
504.2525, 3616.559
504.7346, 3729.107
505.2167, 3869.496
505.6989, 3987.550
506.1810, 4057.041
506.6631, 4132.622
507.1452, 4240.820
507.6273, 4374.066
508.1094, 4514.645
508.5916, 4654.194
509.0737, 4798.553
509.5558, 4959.459
510.0379, 5135.549
510.5200, 5304.799
511.0021, 5459.112
511.4843, 5603.253
511.9664, 5743.879
512.4485, 5880.956
512.9306, 6016.203
513.4127, 6156.795
513.8948, 6290.788
514.3770, 6406.779
514.8591, 6504.253
515.3412, 6587.613
515.8233, 6660.512
516.3054, 6721.921
516.7875, 6763.072
517.2697, 6788.293
517.7518, 6786.446
518.2339, 6758.140
518.7160, 6701.195
519.1981, 6610.294
519.6802, 6485.781
520.1624, 6338.552
520.6445, 6176.922
521.1266, 6000.594
521.6087, 5822.394
522.0908, 5646.384
522.5729, 5463.609
523.0551, 5262.950
523.5372, 5055.938
524.0193, 4862.444
524.5014, 4690.079
524.9835, 4527.146
525.4656, 4358.366
525.9478, 4187.853
526.4299, 4035.426
526.9120, 3910.361
527.3941, 3795.995
527.8762, 3671.124
528.3583, 3534.910
528.8405, 3413.104
529.3226, 3309.812
529.8047, 3219.656
530.2868, 3138.681
530.7689, 3067.487
531.2510, 3009.253
531.7332, 2966.137
532.2153, 2933.425
532.6974, 2899.953
533.1795, 2866.733
533.6616, 2830.746
534.1437, 2792.036
534.6259, 2750.863
535.1080, 2704.774
535.5901, 2655.813
536.0722, 2610.530
536.5543, 2572.065
537.0364, 2541.662
537.5186, 2525.991
538.0007, 2528.769
538.4828, 2532.390
538.9649, 2537.060
539.4470, 2534.745
539.9291, 2514.883
540.4113, 2475.073
540.8934, 2430.315
541.3755, 2383.615
541.8576, 2338.351
542.3397, 2303.615
542.8218, 2279.844
543.3040, 2251.415
543.7861, 2204.973
544.2682, 2143.417
544.7503, 2091.699
545.2324, 2050.033
545.7145, 2016.310
546.1967, 1996.525
546.6788, 1981.516
547.1609, 1961.644
547.6430, 1934.916
548.1251, 1905.487
548.6072, 1877.762
549.0894, 1851.761
549.5715, 1824.863
550.0536, 1789.537
550.5357, 1764.644
551.0178, 1761.168
551.4999, 1769.290
551.9821, 1776.232
552.4642, 1778.674
552.9463, 1778.139
553.4284, 1778.243
553.9105, 1776.987
554.3926, 1764.619
554.8748, 1737.174
555.3569, 1706.221
555.8390, 1680.784
556.3211, 1661.208
556.8032, 1648.340
557.2853, 1646.523
557.7675, 1646.776
558.2496, 1647.399
558.7317, 1646.658
559.2138, 1639.491
559.6959, 1624.464
560.1780, 1610.324
560.6602, 1612.731
561.1423, 1639.350
561.6244, 1651.830
562.1065, 1634.970
562.5886, 1618.383
563.0707, 1614.447
563.5529, 1617.651
564.0350, 1616.553
564.5171, 1605.316
564.9992, 1590.819
565.4813, 1582.689
565.9634, 1580.485
566.4456, 1577.385
566.9277, 1572.716
567.4098, 1565.176
567.8919, 1548.552
568.3740, 1524.472
568.8561, 1513.154
569.3383, 1526.707
569.8204, 1545.420
570.3025, 1560.611
570.7846, 1570.599
571.2667, 1570.227
571.7488, 1557.052
572.2310, 1540.653
572.7131, 1539.286
573.1952, 1561.181
573.6773, 1575.940
574.1594, 1580.885
574.6415, 1581.821
575.1237, 1578.966
575.6058, 1574.180
576.0879, 1571.083
576.5700, 1572.253
577.0521, 1573.721
577.5342, 1565.656
578.0164, 1547.961
578.4985, 1543.736
578.9806, 1566.026
579.4627, 1591.923
579.9448, 1595.326
580.4269, 1578.954
580.9091, 1563.539
581.3912, 1551.472
581.8733, 1542.972
582.3554, 1537.725
582.8375, 1536.111
583.3196, 1539.546
583.8018, 1548.708
584.2839, 1561.337
584.7660, 1573.802
585.2481, 1586.625
585.7302, 1597.615
586.2123, 1605.492
586.6945, 1612.975
587.1766, 1622.075
587.6587, 1631.526
588.1408, 1637.817
588.6229, 1638.006
589.1050, 1638.699
589.5872, 1651.517
590.0693, 1675.980
590.5514, 1697.122
591.0335, 1712.694
591.5156, 1722.772
591.9977, 1723.202
592.4799, 1715.894
592.9620, 1716.584
593.4441, 1738.372
593.9262, 1757.845
594.4083, 1755.178
594.8904, 1741.204
595.3726, 1738.003
595.8547, 1753.315
596.3368, 1779.222
596.8189, 1806.576
597.3010, 1839.113
597.7831, 1854.989
598.2653, 1829.196
598.7474, 1812.656
599.2295, 1827.730
599.7116, 1860.523
600.1937, 1890.537
600.6758, 1911.027
601.1580, 1923.690
601.6401, 1925.303
602.1222, 1919.197
602.6043, 1923.826
603.0864, 1944.892
603.5685, 1966.437
604.0507, 1976.240
604.5328, 1974.259
605.0149, 1967.285
605.4970, 1944.712
605.9791, 1929.588
606.4612, 1939.492
606.9434, 1957.101
607.4255, 1959.593
607.9076, 1942.334
608.3897, 1916.776
608.8718, 1893.822
609.3539, 1873.508
609.8361, 1858.352
610.3182, 1851.647
610.8003, 1844.582
611.2824, 1837.914
611.7645, 1827.632
612.2466, 1806.247
612.7288, 1771.519
613.2109, 1740.707
613.6930, 1733.153
614.1751, 1734.677
614.6572, 1715.003
615.1393, 1672.164
615.6215, 1633.062
616.1036, 1614.724
616.5857, 1612.169
617.0678, 1606.942
617.5499, 1594.881
618.0320, 1585.995
618.5142, 1580.697
618.9963, 1578.708
619.4784, 1582.164
619.9605, 1589.133
620.4426, 1593.702
620.9247, 1591.454
621.4069, 1584.490
621.8890, 1576.416
622.3711, 1565.613
622.8532, 1564.607
623.3353, 1588.273
623.8174, 1610.987
624.2996, 1600.480
624.7817, 1559.502
625.2638, 1531.807
625.7459, 1540.652
626.2280, 1556.948
626.7101, 1557.981
627.1923, 1547.919
627.6744, 1538.629
628.1565, 1534.763
628.6386, 1536.323
629.1207, 1544.894
629.6028, 1564.611
630.0850, 1574.570
630.5671, 1567.568
631.0492, 1557.703
631.5313, 1547.791
632.0134, 1538.276
632.4955, 1528.663
632.9777, 1518.256
633.4598, 1511.053
633.9419, 1516.207
634.4240, 1528.085
634.9061, 1525.206
635.3882, 1502.989
635.8704, 1479.299
636.3525, 1466.061
636.8346, 1462.657
637.3167, 1465.350
637.7988, 1481.740
638.2809, 1493.286
638.7631, 1493.774
639.2452, 1490.201
639.7273, 1489.529
640.2094, 1491.878
640.6915, 1492.408
641.1736, 1487.070
641.6558, 1477.313
642.1379, 1467.757
642.6200, 1457.921
643.1021, 1450.489
643.5842, 1447.144
644.0663, 1445.763
644.5485, 1443.484
645.0306, 1440.390
645.5127, 1439.793
645.9948, 1447.756
646.4769, 1454.117
646.9590, 1446.449
647.4412, 1430.760
647.9233, 1422.643
648.4054, 1428.211
648.8875, 1441.984
649.3696, 1458.119
649.8517, 1480.051
650.3339, 1485.559
650.8160, 1453.102
651.2981, 1429.735
651.7802, 1439.668
652.2623, 1464.381
652.7444, 1476.393
653.2266, 1467.204
653.7087, 1455.643
654.1908, 1459.637
654.6729, 1471.103
655.1550, 1468.296
655.6371, 1449.252
656.1193, 1438.648
656.6014, 1455.344
657.0835, 1490.517
657.5656, 1510.413
658.0477, 1496.272
658.5298, 1492.315
659.0120, 1506.557
659.4941, 1524.553
659.9762, 1535.469
660.4583, 1541.169
660.9404, 1551.162
661.4225, 1573.085
661.9047, 1597.694
662.3868, 1605.982
662.8689, 1598.711
663.3510, 1599.851
663.8331, 1617.247
664.3152, 1638.110
664.7974, 1649.116
665.2795, 1650.940
665.7616, 1658.948
666.2437, 1678.903
666.7258, 1698.764
667.2079, 1713.812
667.6901, 1726.396
668.1722, 1739.116
668.6543, 1752.678
669.1364, 1767.391
669.6185, 1785.047
670.1006, 1804.044
670.5828, 1813.956
671.0649, 1812.527
671.5470, 1808.847
672.0291, 1796.585
672.5112, 1791.078
672.9933, 1814.620
673.4755, 1868.529
673.9576, 1911.002
674.4397, 1927.930
674.9218, 1930.846
675.4039, 1922.265
675.8860, 1907.628
676.3682, 1897.513
676.8503, 1896.081
677.3324, 1900.954
677.8145, 1909.873
678.2966, 1923.859
678.7787, 1933.638
679.2609, 1937.122
679.7430, 1939.356
680.2251, 1940.977
680.7072, 1943.142
681.1893, 1948.852
681.6714, 1959.755
682.1536, 1965.825
682.6357, 1960.344
683.1178, 1947.355
683.5999, 1931.567
684.0820, 1913.412
684.5641, 1891.855
685.0463, 1865.608
685.5284, 1838.208
686.0105, 1818.479
686.4926, 1810.296
686.9747, 1800.583
687.4568, 1794.753
687.9390, 1781.688
688.4211, 1750.441
688.9032, 1709.901
689.3853, 1676.979
689.8674, 1657.725
690.3495, 1643.385
690.8317, 1627.289
691.3138, 1610.484
691.7959, 1595.052
692.2780, 1581.371
692.7601, 1570.260
693.2422, 1563.937
693.7244, 1559.102
694.2065, 1542.193
694.6886, 1497.588
695.1707, 1466.578
695.6528, 1456.128
696.1349, 1453.357
696.6171, 1455.855
697.0992, 1459.344
697.5813, 1454.267
698.0634, 1432.735
698.5455, 1409.126
699.0276, 1401.643
699.5098, 1406.234
699.9919, 1407.822
700.4740, 1403.363
700.9561, 1399.058
701.4382, 1400.912
701.9203, 1407.528
702.4025, 1407.749
702.8846, 1395.200
703.3667, 1384.600
703.8488, 1382.104
704.3309, 1377.842
704.8130, 1357.319
705.2952, 1326.859
705.7773, 1311.150
706.2594, 1329.953
706.7415, 1361.333
707.2236, 1376.577
707.7057, 1376.831
708.1879, 1366.371
708.6700, 1344.196
709.1521, 1322.658
709.6342, 1314.014
710.1163, 1317.608
710.5984, 1318.839
711.0806, 1312.831
711.5627, 1311.010
712.0448, 1319.033
712.5269, 1329.032
713.0090, 1333.760
713.4911, 1333.459
713.9733, 1333.798
714.4554, 1339.844
714.9375, 1346.763
715.4196, 1346.474
715.9017, 1339.567
716.3839, 1328.407
716.8660, 1311.422
717.3481, 1300.647
717.8302, 1310.825
718.3123, 1341.823
718.7944, 1360.726
719.2766, 1362.926
719.7587, 1360.155
720.2408, 1348.248
720.7229, 1336.542
721.2050, 1333.439
721.6871, 1339.183
722.1693, 1348.984
722.6514, 1363.240
723.1335, 1376.206
723.6156, 1375.392
724.0977, 1363.005
724.5798, 1355.407
725.0620, 1357.150
725.5441, 1363.407
726.0262, 1369.462
726.5083, 1375.328
726.9904, 1383.314
727.4725, 1398.417
727.9547, 1409.129
728.4368, 1411.227
728.9189, 1409.841
729.4010, 1408.530
729.8831, 1408.062
730.3652, 1408.550
730.8474, 1410.003
731.3295, 1412.521
731.8116, 1417.724
732.2937, 1424.569
732.7758, 1426.565
733.2579, 1421.402
733.7401, 1416.615
734.2222, 1420.126
734.7043, 1431.521
735.1864, 1440.925
735.6685, 1450.998
736.1506, 1455.214
736.6328, 1447.957
737.1149, 1438.349
737.5970, 1431.670
738.0791, 1429.190
738.5612, 1432.372
739.0433, 1444.225
739.5255, 1459.296
740.0076, 1474.013
740.4897, 1486.929
740.9718, 1491.633
741.4539, 1486.624
741.9360, 1481.265
742.4182, 1485.116
742.9003, 1496.133
743.3824, 1495.242
743.8645, 1466.410
744.3466, 1453.476
744.8287, 1480.157
745.3109, 1507.614
745.7930, 1506.158
746.2751, 1481.946
746.7572, 1463.378
747.2393, 1464.225
747.7214, 1469.677
748.2036, 1464.168
748.6857, 1455.563
749.1678, 1464.221
749.6499, 1491.169
750.1320, 1511.087
750.6141, 1502.871
751.0963, 1475.150
751.5784, 1463.762
752.0605, 1477.473
752.5426, 1482.441
753.0247, 1464.417
753.5068, 1447.507
753.9890, 1447.678
754.4711, 1460.353
754.9532, 1473.067
755.4353, 1484.872
755.9174, 1493.393
756.3995, 1497.431
756.8817, 1497.531
757.3638, 1489.634
757.8459, 1477.222
758.3280, 1475.635
758.8101, 1495.588
759.2922, 1525.078
759.7744, 1536.833
760.2565, 1528.602
760.7386, 1525.013
761.2207, 1530.178
761.7028, 1536.649
762.1849, 1540.564
762.6671, 1542.201
763.1492, 1541.221
763.6313, 1531.526
764.1134, 1533.323
764.5955, 1560.147
765.0776, 1592.286
765.5598, 1617.705
766.0419, 1635.822
766.5240, 1647.483
767.0061, 1652.842
767.4882, 1658.332
767.9703, 1675.458
768.4525, 1700.917
768.9346, 1713.588
769.4167, 1710.489
769.8988, 1710.043
770.3809, 1722.304
770.8630, 1741.602
771.3452, 1757.163
771.8273, 1768.604
772.3094, 1777.232
772.7915, 1788.682
773.2736, 1791.257
773.7557, 1770.254
774.2379, 1742.108
774.7200, 1730.857
775.2021, 1741.370
775.6842, 1752.970
776.1663, 1745.967
776.6484, 1732.678
777.1306, 1736.783
777.6127, 1754.347
778.0948, 1763.126
778.5769, 1755.088
779.0590, 1736.675
779.5411, 1714.833
780.0233, 1689.558
780.5054, 1665.866
780.9875, 1643.052
781.4696, 1623.129
781.9517, 1606.784
782.4338, 1593.290
782.9160, 1584.473
783.3981, 1579.191
783.8802, 1569.162
784.3623, 1547.378
784.8444, 1524.445
785.3265, 1507.422
785.8087, 1493.590
786.2908, 1478.020
786.7729, 1460.308
787.2550, 1444.093
787.7371, 1432.495
788.2192, 1424.107
788.7014, 1415.583
789.1835, 1407.047
789.6656, 1396.827
790.1477, 1383.961
790.6298, 1370.684
791.1119, 1355.918
791.5941, 1342.138
792.0762, 1340.346
792.5583, 1368.804
793.0404, 1379.986
793.5225, 1349.083
794.0046, 1314.357
794.4868, 1304.434
794.9689, 1312.778
795.4510, 1318.427
795.9331, 1312.204
796.4152, 1304.785
796.8973, 1312.804
797.3795, 1327.212
797.8616, 1318.476
798.3437, 1286.594
798.8258, 1269.258
799.3079, 1287.975
799.7900, 1320.742
800.2722, 1325.884
800.7543, 1294.640
801.2364, 1276.799
801.7185, 1279.717
802.2006, 1286.388
802.6827, 1295.386
803.1649, 1302.763
803.6470, 1303.027
804.1291, 1295.695
804.6112, 1288.643
805.0933, 1285.256
805.5754, 1282.774
806.0576, 1276.027
806.5397, 1269.818
807.0218, 1276.418
807.5039, 1296.336
807.9860, 1312.401
808.4681, 1308.591
808.9503, 1289.986
809.4324, 1268.923
809.9145, 1244.499
810.3966, 1236.039
810.8787, 1253.568
811.3608, 1273.171
811.8430, 1274.484
812.3251, 1259.634
812.8072, 1244.043
813.2893, 1215.370
813.7714, 1203.612
814.2535, 1228.980
814.7357, 1255.577
815.2178, 1257.362
815.6999, 1241.825
816.1820, 1229.960
816.6641, 1229.678
817.1462, 1232.853
817.6284, 1236.704
818.1105, 1237.932
818.5926, 1226.412
819.0747, 1205.387
819.5568, 1193.947
820.0389, 1201.299
820.5211, 1217.358
821.0032, 1227.236
821.4853, 1230.888
821.9674, 1228.028
822.4495, 1214.812
822.9316, 1205.141
823.4138, 1208.346
823.8959, 1214.207
824.3780, 1207.432
824.8601, 1187.640
825.3422, 1174.808
825.8243, 1176.045
826.3065, 1178.708
826.7886, 1177.240
827.2707, 1175.115
827.7528, 1178.531
828.2349, 1186.127
828.7170, 1188.411
829.1992, 1177.967
829.6813, 1162.270
830.1633, 1146.547
830.6454, 1133.909
831.1276, 1139.623
831.6097, 1165.078
832.0918, 1185.922
832.5739, 1185.082
833.0560, 1169.398
833.5381, 1156.242
834.0203, 1143.342
834.5024, 1141.594
834.9845, 1160.228
835.4666, 1177.166
835.9487, 1178.133
836.4308, 1172.059
836.9130, 1172.117
837.3951, 1180.315
837.8772, 1187.533
838.3593, 1196.768
838.8414, 1198.983
839.3235, 1181.666
839.8057, 1156.847
840.2878, 1142.877
840.7699, 1143.322
841.2520, 1147.048
841.7341, 1143.874
842.2162, 1139.285
842.6984, 1148.181
843.1805, 1166.256
843.6626, 1168.275
844.1447, 1147.926
844.6268, 1124.618
845.1089, 1113.818
845.5911, 1114.439
846.0732, 1123.179
846.5553, 1147.811
847.0374, 1158.767
847.5195, 1141.345
848.0016, 1124.496
848.4838, 1125.158
848.9659, 1137.822
849.4480, 1154.377
849.9301, 1179.573
850.4122, 1191.616
850.8943, 1177.031
851.3765, 1154.720
851.8586, 1131.373
852.3407, 1111.739
852.8228, 1103.768
853.3049, 1108.910
853.7870, 1117.077
854.2692, 1117.191
854.7513, 1115.560
855.2334, 1126.501
855.7155, 1147.139
856.1976, 1164.749
856.6797, 1175.961
857.1619, 1178.658
857.6440, 1169.213
858.1261, 1150.884
858.6082, 1141.282
859.0903, 1142.511
859.5724, 1145.779
860.0546, 1151.224
860.5367, 1156.858
861.0188, 1164.345
861.5009, 1170.551
861.9830, 1166.009
862.4651, 1141.034
862.9473, 1128.856
863.4294, 1151.939
863.9115, 1172.957
864.3936, 1163.631
864.8757, 1139.397
865.3578, 1126.427
865.8400, 1131.218
866.3221, 1141.558
866.8042, 1150.959
867.2863, 1158.982
867.7684, 1164.935
868.2505, 1168.995
868.7327, 1172.823
869.2148, 1176.483
869.6969, 1175.185
870.1790, 1163.999
870.6611, 1145.821
871.1432, 1127.902
871.6254, 1108.243
872.1075, 1107.891
872.5896, 1138.796
873.0717, 1166.277
873.5538, 1165.286
874.0359, 1145.977
874.5181, 1136.218
875.0002, 1141.730
875.4823, 1144.093
875.9644, 1138.317
876.4465, 1134.963
876.9286, 1139.225
877.4108, 1147.907
877.8929, 1157.573
878.3750, 1167.530
878.8571, 1176.329
879.3392, 1186.471
879.8214, 1192.164
880.3035, 1186.035
880.7856, 1173.510
881.2677, 1161.730
881.7498, 1152.758
882.2319, 1148.474
882.7141, 1150.960
883.1962, 1156.098
883.6783, 1154.935
884.1604, 1149.078
884.6425, 1150.939
885.1246, 1162.448
885.6068, 1169.750
886.0889, 1164.246
886.5710, 1153.406
887.0531, 1151.658
887.5352, 1161.116
888.0173, 1167.570
888.4995, 1169.413
888.9816, 1171.025
889.4637, 1172.942
889.9458, 1175.870
890.4279, 1180.750
890.9100, 1187.455
891.3922, 1194.302
891.8743, 1202.243
892.3564, 1208.787
892.8385, 1216.738
893.3206, 1220.099
893.8027, 1210.858
894.2849, 1192.603
894.7670, 1174.210
895.2491, 1157.773
895.7312, 1150.345
896.2133, 1164.560
896.6954, 1187.672
897.1776, 1200.879
897.6597, 1204.780
898.1418, 1203.834
898.6239, 1200.118
899.1060, 1201.422
899.5881, 1220.311
900.0703, 1250.097
900.5524, 1256.047
901.0345, 1236.598
901.5166, 1230.333
901.9987, 1249.786
902.4808, 1268.057
902.9630, 1258.722
903.4451, 1232.918
903.9272, 1239.056
904.4093, 1306.489
904.8914, 1344.553
905.3735, 1325.052
905.8557, 1306.732
906.3378, 1326.163
906.8199, 1356.021
907.3020, 1351.399
907.7841, 1303.848
908.2662, 1274.486
908.7484, 1291.789
909.2305, 1314.250
909.7126, 1320.729
910.1947, 1321.690
910.6768, 1332.547
911.1589, 1352.096
911.6411, 1364.502
912.1232, 1356.912
912.6053, 1348.909
913.0874, 1363.829
913.5695, 1390.060
914.0516, 1408.104
914.5338, 1417.009
915.0159, 1422.717
915.4980, 1427.946
915.9801, 1434.434
916.4622, 1445.547
916.9443, 1460.313
917.4265, 1472.312
917.9086, 1481.445
918.3907, 1488.036
918.8728, 1490.643
919.3549, 1497.448
919.8370, 1517.036
920.3192, 1547.738
920.8013, 1578.445
921.2834, 1611.796
921.7655, 1638.733
922.2476, 1652.511
922.7297, 1667.317
923.2119, 1689.204
923.6940, 1717.948
924.1761, 1755.606
924.6582, 1806.470
925.1403, 1847.415
925.6224, 1863.541
926.1046, 1882.933
926.5867, 1917.788
927.0688, 1961.825
927.5509, 2009.955
928.0330, 2060.332
928.5151, 2110.454
928.9973, 2165.901
929.4794, 2209.572
929.9615, 2217.336
930.4436, 2213.789
930.9257, 2230.393
931.4078, 2265.823
931.8900, 2305.368
932.3721, 2342.682
932.8542, 2377.495
933.3363, 2412.388
933.8184, 2443.927
934.3005, 2460.269
934.7827, 2463.511
935.2648, 2468.830
935.7469, 2480.413
936.2290, 2487.362
936.7111, 2478.248
937.1932, 2459.631
937.6754, 2457.748
938.1575, 2476.110
938.6396, 2479.939
939.1217, 2461.074
939.6038, 2443.202
940.0859, 2442.816
940.5681, 2446.578
941.0502, 2428.877
941.5323, 2384.610
942.0144, 2345.031
942.4965, 2306.808
942.9786, 2278.299
943.4608, 2269.653
943.9429, 2263.884
944.4250, 2248.083
944.9071, 2223.080
945.3892, 2194.226
945.8713, 2156.205
946.3535, 2124.917
946.8356, 2117.565
947.3177, 2105.282
947.7998, 2058.252
948.2819, 1996.221
948.7640, 1956.239
949.2462, 1946.458
949.7283, 1937.212
950.2104, 1906.215
950.6925, 1872.805
951.1746, 1859.575
951.6567, 1853.257
952.1389, 1828.789
952.6210, 1786.618
953.1031, 1748.731
953.5852, 1728.521
954.0673, 1714.805
954.5494, 1688.429
955.0316, 1657.902
955.5137, 1652.900
955.9958, 1669.349
956.4779, 1669.504
956.9600, 1639.400
957.4421, 1594.339
957.9243, 1546.973
958.4064, 1502.005
958.8885, 1486.447
959.3706, 1502.453
959.8527, 1508.228
960.3348, 1496.122
960.8170, 1475.389
961.2991, 1449.408
961.7812, 1423.092
962.2633, 1409.278
962.7454, 1412.144
963.2275, 1407.559
963.7097, 1387.607
964.1918, 1375.922
964.6739, 1386.671
965.1560, 1402.100
965.6381, 1402.454
966.1202, 1389.202
966.6024, 1381.936
967.0845, 1382.823
967.5666, 1386.487
968.0487, 1394.266
968.5308, 1402.799
969.0129, 1411.148
969.4951, 1418.615
969.9772, 1423.893
970.4593, 1426.534
970.9414, 1430.179
971.4235, 1431.809
971.9056, 1439.612
972.3878, 1466.584
972.8699, 1495.945
973.3520, 1508.586
973.8341, 1505.614
974.3162, 1499.087
974.7983, 1492.263
975.2805, 1489.979
975.7626, 1496.526
976.2447, 1509.153
976.7268, 1526.451
977.2089, 1546.718
977.6910, 1567.170
978.1732, 1586.867
978.6553, 1605.499
979.1374, 1623.570
979.6195, 1639.528
980.1016, 1648.510
980.5837, 1653.654
981.0659, 1666.433
981.5480, 1686.412
982.0301, 1698.325
982.5122, 1693.972
982.9943, 1687.274
983.4764, 1704.613
983.9586, 1738.541
984.4407, 1740.214
984.9228, 1710.223
985.4049, 1687.492
985.8870, 1682.182
986.3691, 1682.981
986.8513, 1681.110
987.3334, 1677.628
987.8155, 1676.217
988.2976, 1677.642
988.7797, 1677.379
989.2618, 1678.363
989.7440, 1665.275
990.2261, 1624.354
990.7082, 1579.687
991.1903, 1563.787
991.6724, 1575.667
992.1545, 1571.818
992.6367, 1544.762
993.1188, 1517.099
993.6009, 1489.734
994.0830, 1464.227
994.5651, 1440.169
995.0472, 1419.160
995.5294, 1406.529
996.0115, 1406.784
996.4936, 1395.818
996.9757, 1360.991
997.4578, 1330.155
997.9399, 1313.963
998.4221, 1302.120
998.9042, 1282.770
999.3863, 1259.815
999.8684, 1249.766
1000.351, 1265.061
1000.833, 1270.630
1001.315, 1247.638
1001.797, 1221.965
1002.279, 1210.300
1002.761, 1204.713
1003.243, 1190.087
1003.725, 1166.715
1004.207, 1154.676
1004.690, 1171.305
1005.172, 1188.969
1005.654, 1192.343
1006.136, 1188.355
1006.618, 1180.419
1007.100, 1171.823
1007.582, 1168.302
1008.064, 1171.486
1008.547, 1175.682
1009.029, 1177.059
1009.511, 1177.145
1009.993, 1178.150
1010.475, 1178.662
1010.957, 1174.184
1011.439, 1166.364
1011.921, 1164.936
1012.403, 1175.604
1012.886, 1184.990
1013.368, 1174.005
1013.850, 1154.047
1014.332, 1145.902
1014.814, 1147.197
1015.296, 1147.901
1015.778, 1145.865
1016.260, 1145.803
1016.742, 1151.584
1017.225, 1160.090
1017.707, 1168.106
1018.189, 1174.094
1018.671, 1169.285
1019.153, 1155.064
1019.635, 1148.307
1020.117, 1155.221
1020.599, 1162.174
1021.082, 1153.881
1021.564, 1135.836
1022.046, 1125.456
1022.528, 1122.534
1023.010, 1125.513
1023.492, 1134.447
1023.974, 1142.449
1024.456, 1146.673
1024.938, 1144.381
1025.421, 1128.711
1025.903, 1101.749
1026.385, 1090.473
1026.867, 1096.348
1027.349, 1104.148
1027.831, 1110.744
1028.313, 1120.391
1028.795, 1137.321
1029.278, 1156.719
1029.760, 1168.331
1030.242, 1172.326
1030.724, 1165.437
1031.206, 1141.808
1031.688, 1128.810
1032.170, 1138.475
1032.652, 1150.827
1033.135, 1147.678
1033.617, 1133.627
1034.099, 1126.895
1034.581, 1133.080
1035.063, 1129.421
1035.545, 1108.424
1036.027, 1092.184
1036.509, 1086.627
1036.991, 1092.137
1037.474, 1115.214
1037.956, 1152.370
1038.438, 1166.647
1038.920, 1141.064
1039.402, 1125.602
1039.884, 1129.661
1040.366, 1134.294
1040.848, 1126.439
1041.330, 1117.583
1041.813, 1128.148
1042.295, 1159.963
1042.777, 1171.350
1043.259, 1141.968
1043.741, 1122.253
1044.223, 1123.107
1044.705, 1128.173
1045.187, 1128.918
1045.670, 1127.847
1046.152, 1130.208
1046.634, 1137.085
1047.116, 1140.511
1047.598, 1136.698
1048.080, 1133.699
1048.562, 1134.901
1049.044, 1136.029
1049.526, 1133.295
1050.009, 1128.324
1050.491, 1123.710
1050.973, 1117.562
1051.455, 1121.586
1051.937, 1152.554
1052.419, 1175.003
1052.901, 1169.984
1053.383, 1156.619
1053.865, 1149.924
1054.348, 1149.745
1054.830, 1151.451
1055.312, 1153.375
1055.794, 1159.927
1056.276, 1179.697
1056.758, 1195.404
1057.240, 1194.000
1057.722, 1187.930
1058.205, 1189.107
1058.687, 1198.142
1059.169, 1213.094
1059.651, 1241.160
1060.133, 1256.311
1060.615, 1236.478
1061.097, 1216.701
1061.579, 1221.041
1062.062, 1235.102
1062.544, 1239.341
1063.026, 1233.395
1063.508, 1230.401
1063.990, 1234.111
1064.472, 1241.977
1064.954, 1258.383
1065.436, 1273.067
1065.918, 1275.919
1066.401, 1274.123
1066.883, 1281.299
1067.365, 1297.289
1067.847, 1303.613
1068.329, 1279.753
1068.811, 1266.288
1069.293, 1291.722
1069.775, 1323.818
1070.257, 1337.155
1070.740, 1339.714
1071.222, 1349.770
1071.704, 1369.300
1072.186, 1379.131
1072.668, 1360.303
1073.150, 1344.412
1073.632, 1346.251
1074.114, 1357.359
1074.597, 1376.741
1075.079, 1397.547
1075.561, 1407.447
1076.043, 1404.375
1076.525, 1403.679
1077.007, 1417.302
1077.489, 1428.245
1077.971, 1423.868
1078.453, 1416.643
1078.936, 1420.294
1079.418, 1429.301
1079.900, 1428.535
1080.382, 1414.611
1080.864, 1407.224
1081.346, 1421.219
1081.828, 1436.532
1082.310, 1452.405
1082.792, 1456.338
1083.275, 1426.943
1083.757, 1378.692
1084.239, 1344.401
1084.721, 1332.406
1085.203, 1322.085
1085.685, 1304.008
1086.167, 1285.924
1086.649, 1271.494
1087.131, 1259.407
1087.614, 1249.201
1088.096, 1239.947
1088.578, 1230.247
1089.060, 1219.813
1089.542, 1207.932
1090.024, 1188.385
1090.506, 1174.520
1090.988, 1180.213
1091.471, 1188.872
1091.953, 1182.411
1092.435, 1166.046
1092.917, 1157.106
1093.399, 1161.062
1093.881, 1158.420
1094.363, 1134.654
1094.845, 1111.682
1095.328, 1100.105
1095.810, 1094.049
1096.292, 1089.521
1096.774, 1085.472
1097.256, 1079.877
1097.738, 1071.279
1098.220, 1068.813
1098.702, 1085.859
1099.184, 1096.390
1099.667, 1079.789
1100.149, 1059.832
1100.631, 1063.031
1101.113, 1079.332
1101.595, 1078.822
1102.077, 1052.243
1102.559, 1032.777
1103.041, 1028.205
1103.523, 1032.672
1104.006, 1053.315
1104.488, 1073.793
1104.970, 1080.760
1105.452, 1076.728
1105.934, 1068.193
1106.416, 1053.987
1106.898, 1045.826
1107.380, 1056.222
1107.863, 1058.912
1108.345, 1038.331
1108.827, 1014.219
1109.309, 996.8219
1109.791, 988.8140
1110.273, 998.4407
1110.755, 1033.767
1111.237, 1050.438
1111.719, 1025.694
1112.202, 1007.944
1112.684, 1014.318
1113.166, 1025.242
1113.648, 1027.481
1114.130, 1024.179
1114.612, 1022.817
1115.094, 1024.126
1115.576, 1024.451
1116.058, 1021.352
1116.541, 1021.218
1117.023, 1032.375
1117.505, 1037.920
1117.987, 1022.074
1118.469, 996.1891
1118.951, 982.5251
1119.433, 982.0909
1119.915, 987.2567
1120.398, 1004.710
1120.880, 1013.385
1121.362, 1005.195
1121.844, 995.3489
1122.326, 992.1818
1122.808, 993.8583
1123.290, 998.2227
1123.772, 1005.678
1124.255, 1005.861
1124.737, 994.3222
1125.219, 989.5650
1125.701, 994.5516
1126.183, 1007.211
1126.665, 1030.310
1127.147, 1052.600
1127.629, 1055.084
1128.111, 1039.196
1128.594, 1033.338
1129.076, 1040.081
1129.558, 1038.131
1130.040, 1022.147
1130.522, 1012.808
1131.004, 1021.896
1131.486, 1035.900
1131.968, 1036.234
1132.450, 1026.065
1132.933, 1022.761
1133.415, 1026.281
1133.897, 1033.408
1134.379, 1043.895
1134.861, 1049.281
1135.343, 1045.732
1135.825, 1038.275
1136.307, 1031.911
1136.790, 1026.713
1137.272, 1022.922
1137.754, 1020.479
1138.236, 1019.477
1138.718, 1019.648
1139.200, 1017.888
1139.682, 1013.372
1140.164, 1012.737
1140.646, 1023.742
1141.129, 1037.806
1141.611, 1039.250
1142.093, 1031.601
1142.575, 1022.208
1143.057, 1012.411
1143.539, 1004.021
1144.021, 997.6595
1144.503, 993.3581
1144.985, 990.3875
1145.468, 992.1162
1145.950, 1010.396
1146.432, 1030.490
1146.914, 1026.576
1147.396, 1007.459
1147.878, 991.7530
1148.360, 984.1893
1148.842, 985.1904
1149.325, 997.3804
1149.807, 1007.656
1150.289, 1003.000
1150.771, 994.3494
1151.253, 990.5110
1151.735, 990.1929
1152.217, 990.4948
1152.699, 991.7576
1153.182, 998.7744
1153.664, 1016.198
1154.146, 1022.621
1154.628, 995.4699
1155.110, 969.2988
1155.592, 965.5713
1156.074, 970.7156
1156.556, 971.6398
1157.038, 969.5529
1157.521, 972.0800
1158.003, 982.0988
1158.485, 985.4994
1158.967, 970.0055
1159.449, 960.3297
1159.931, 968.2609
1160.413, 979.4899
1160.895, 983.2156
1161.377, 984.0647
1161.860, 993.9545
1162.342, 1015.089
1162.824, 1021.201
1163.306, 1003.498
1163.788, 986.3028
1164.270, 968.5322
1164.752, 957.3406
1165.234, 957.0431
1165.717, 964.1193
1166.199, 975.7939
1166.681, 990.9221
1167.163, 998.4973
1167.645, 997.0269
1168.127, 994.7441
1168.609, 992.3347
1169.091, 987.8801
1169.573, 979.8895
1170.056, 973.3715
1170.538, 974.3246
1171.020, 978.3607
1171.502, 967.9151
1171.984, 944.9473
1172.466, 948.0940
1172.948, 977.2654
1173.430, 999.3333
1173.912, 1005.549
1174.395, 1001.976
1174.877, 991.5981
1175.359, 981.5647
1175.841, 986.7225
1176.323, 999.6757
1176.805, 999.7549
1177.287, 990.7922
1177.769, 984.3864
1178.252, 982.8739
1178.734, 987.4265
1179.216, 998.8507
1179.698, 1005.717
1180.180, 992.2982
1180.662, 973.6274
1181.144, 963.0285
1181.626, 960.5636
1182.109, 970.8696
1182.591, 988.1171
1183.073, 998.3707
1183.555, 998.1575
1184.037, 996.6722
1184.519, 1002.826
1185.001, 1003.379
1185.483, 981.8087
1185.965, 961.9223
1186.448, 966.0975
1186.930, 981.7158
1187.412, 989.1387
1187.894, 987.0735
1188.376, 985.5732
1188.858, 990.1925
1189.340, 988.6092
1189.822, 968.6362
1190.304, 955.5143
1190.787, 964.4965
1191.269, 979.3144
1191.751, 987.9218
1192.233, 990.6433
1192.715, 987.2187
1193.197, 973.9600
1193.679, 972.4711
1194.161, 989.2906
1194.644, 997.6859
1195.126, 990.0362
1195.608, 979.0881
1196.090, 972.4452
1196.572, 968.0355
1197.054, 962.3716
1197.536, 955.6849
1198.018, 948.5500
1198.500, 941.2634
1198.983, 940.2659
1199.465, 946.2054
1199.947, 956.8415
1200.429, 971.2715
1200.911, 980.7011
1201.393, 974.5008
1201.875, 962.1165
1202.357, 961.3189
1202.839, 967.2270
1203.322, 969.6407
1203.804, 968.9289
1204.286, 966.5963
1204.768, 964.4047
1205.250, 970.3325
1205.732, 992.4764
1206.214, 1007.957
1206.696, 990.2133
1207.179, 966.6542
1207.661, 959.2271
1208.143, 962.2327
1208.625, 974.3156
1209.107, 988.0026
1209.589, 982.2802
1210.071, 948.1668
1210.553, 929.4248
1211.036, 952.4741
1211.518, 973.0222
1212.000, 975.0822
1212.482, 973.1889
1212.964, 977.8331
1213.446, 983.8345
1213.928, 981.5303
1214.410, 971.5349
1214.892, 968.7050
1215.375, 978.9368
1215.857, 979.0673
1216.339, 962.3257
1216.821, 953.2451
1217.303, 963.1758
1217.785, 974.0723
1218.267, 968.6356
1218.749, 955.0197
1219.231, 955.3763
1219.714, 968.2994
1220.196, 971.1578
1220.678, 965.0624
1221.160, 966.3928
1221.642, 977.1167
1222.124, 981.0703
1222.606, 969.4905
1223.088, 956.1620
1223.571, 958.5911
1224.053, 966.9163
1224.535, 964.7944
1225.017, 957.7877
1225.499, 953.1807
1225.981, 952.8291
1226.463, 961.5402
1226.945, 978.4353
1227.427, 988.2021
1227.910, 978.5478
1228.392, 969.8834
1228.874, 976.6088
1229.356, 984.0728
1229.838, 979.6501
1230.320, 972.7968
1230.802, 978.2874
1231.284, 991.4767
1231.766, 991.3198
1232.249, 968.4478
1232.731, 959.0430
1233.213, 979.1558
1233.695, 984.8024
1234.177, 954.4803
1234.659, 935.7824
1235.141, 963.2222
1235.623, 1002.611
1236.106, 1002.254
1236.588, 970.0385
1237.070, 961.4262
1237.552, 977.1226
1238.034, 982.7580
1238.516, 976.0382
1238.998, 971.1871
1239.480, 972.6363
1239.963, 977.2188
1240.445, 982.6468
1240.927, 989.2635
1241.409, 1002.696
1241.891, 1014.297
1242.373, 1000.873
1242.855, 976.0037
1243.337, 969.6935
1243.819, 980.2394
1244.302, 988.1639
1244.784, 986.7681
1245.266, 980.3092
1245.748, 961.3091
1246.230, 951.1981
1246.712, 976.2346
1247.194, 998.3042
1247.676, 977.0679
1248.158, 942.3525
1248.641, 938.6043
1249.123, 964.4694
1249.605, 986.8293
1250.087, 1008.811
1250.569, 1014.353
1251.051, 993.6625
1251.533, 977.5767
1252.015, 974.0930
1252.498, 975.7845
1252.980, 979.2304
1253.462, 981.3218
1253.944, 975.3057
1254.426, 963.6608
1254.908, 965.1376
1255.390, 977.3669
1255.872, 975.1467
1256.354, 958.5947
1256.837, 949.4312
1257.319, 954.4346
1257.801, 964.3054
1258.283, 974.1857
1258.765, 978.3249
1259.247, 962.2949
1259.729, 943.8654
1260.211, 948.5118
1260.693, 963.0291
1261.176, 967.1570
1261.658, 961.0574
1262.140, 952.5897
1262.622, 943.0566
1263.104, 941.3472
1263.586, 959.1122
1264.068, 972.1785
1264.550, 970.7841
1265.033, 966.7458
1265.515, 964.2347
1265.997, 964.4515
##END=



