##NAMES=Prehnite
##RRUFFID=R050410
##IDEAL CHEMISTRY=Ca_2_Al(Si_3_Al)O_10_(OH)_2_
##LOCALITY=Topel, Namibia
##OWNER=RRUFF
##SOURCE=John Lucking
##DESCRIPTION=Aggregate of pale green prismatic crystals
##STATUS=The identification of this mineral has been confirmed by X-ray diffraction and chemical analysis
##URL=rruff.info/R050410
##MEASURED CHEMISTRY=Ca_1.98_Al_0.99_(Si_3.02_Al_0.99_)O_10_(OH)_2
92.35352, 26.13551
92.83563, 25.35596
93.31775, 25.02452
93.79987, 25.31233
94.28198, 26.07108
94.76410, 26.87825
95.24622, 27.63459
95.72833, 28.40946
96.21045, 29.31479
96.69257, 30.35398
97.17468, 31.52793
97.65680, 32.73921
98.13892, 33.99797
98.62103, 35.65324
99.10315, 37.77684
99.58527, 40.35675
100.0674, 43.24004
100.5495, 46.41079
101.0316, 49.86664
101.5137, 53.46293
101.9958, 57.09444
102.4780, 61.32174
102.9601, 66.35033
103.4422, 72.25777
103.9243, 78.42671
104.4064, 84.88268
104.8885, 91.61574
105.3707, 98.79437
105.8528, 106.5118
106.3349, 114.4620
106.8170, 122.5690
107.2991, 131.4116
107.7813, 139.2916
108.2634, 145.6306
108.7455, 150.9576
109.2276, 156.8141
109.7097, 163.3243
110.1918, 170.3369
110.6740, 177.8013
111.1561, 186.4978
111.6382, 194.7686
112.1203, 202.1181
112.6024, 208.8022
113.0845, 215.9600
113.5667, 223.6002
114.0488, 231.8356
114.5309, 240.8367
115.0130, 250.7185
115.4951, 261.2164
115.9772, 272.3913
116.4594, 284.3251
116.9415, 296.5638
117.4236, 308.9479
117.9057, 321.5622
118.3878, 334.4412
118.8699, 347.1861
119.3521, 360.6475
119.8342, 375.4179
120.3163, 391.5419
120.7984, 408.8594
121.2805, 429.9583
121.7626, 452.0188
122.2448, 470.2203
122.7269, 481.9211
123.2090, 488.8550
123.6911, 492.2904
124.1732, 492.0609
124.6553, 489.5862
125.1375, 485.6078
125.6196, 480.3172
126.1017, 474.3208
126.5838, 466.4837
127.0659, 458.4063
127.5480, 452.8570
128.0302, 450.2193
128.5123, 450.1400
128.9944, 452.9335
129.4765, 458.3799
129.9586, 464.4199
130.4407, 469.0097
130.9229, 472.7820
131.4050, 478.6208
131.8871, 487.7001
132.3692, 498.4376
132.8513, 506.7344
133.3334, 511.5826
133.8156, 514.0414
134.2977, 517.4640
134.7798, 523.5104
135.2619, 528.4525
135.7440, 531.1782
136.2261, 532.1951
136.7083, 533.9375
137.1904, 536.4003
137.6725, 539.6039
138.1546, 543.8800
138.6367, 549.5083
139.1188, 554.8188
139.6010, 559.6431
140.0831, 563.9813
140.5652, 566.8054
141.0473, 567.4368
141.5294, 567.5546
142.0115, 569.2164
142.4937, 572.4924
142.9758, 577.0190
143.4579, 582.3910
143.9400, 588.0348
144.4221, 597.0587
144.9042, 610.0206
145.3864, 625.9437
145.8685, 643.3160
146.3506, 665.5193
146.8327, 684.8228
147.3148, 698.7427
147.7969, 705.4258
148.2791, 710.7662
148.7612, 714.1204
149.2433, 716.2070
149.7254, 718.7278
150.2075, 722.5203
150.6896, 726.0242
151.1718, 728.5798
151.6539, 728.6486
152.1360, 730.0400
152.6181, 733.1077
153.1002, 737.5804
153.5823, 742.6400
154.0645, 747.8049
154.5466, 753.8795
155.0287, 761.2470
155.5108, 771.8373
155.9929, 781.5631
156.4750, 787.9783
156.9572, 792.4028
157.4393, 800.1591
157.9214, 812.2328
158.4035, 828.0900
158.8856, 847.4025
159.3677, 868.5340
159.8499, 894.7241
160.3320, 925.3220
160.8141, 960.7281
161.2962, 1004.430
161.7783, 1057.992
162.2604, 1119.853
162.7426, 1188.722
163.2247, 1281.092
163.7068, 1365.681
164.1889, 1447.040
164.6710, 1520.741
165.1531, 1536.316
165.6353, 1435.147
166.1174, 1274.414
166.5995, 1115.652
167.0816, 961.2184
167.5637, 830.1273
168.0458, 738.2496
168.5280, 686.3837
169.0101, 652.6734
169.4922, 630.8532
169.9743, 617.5391
170.4564, 608.2097
170.9385, 602.7050
171.4207, 599.3627
171.9028, 596.9630
172.3849, 595.4918
172.8670, 594.6332
173.3491, 594.1187
173.8312, 594.0325
174.3134, 594.5399
174.7955, 595.4535
175.2776, 597.1053
175.7597, 600.0040
176.2418, 604.2690
176.7239, 609.2455
177.2061, 614.4813
177.6882, 620.0597
178.1703, 626.0887
178.6524, 633.2634
179.1345, 640.8451
179.6166, 647.3741
180.0988, 652.7169
180.5809, 657.6392
181.0630, 663.1129
181.5451, 669.0040
182.0272, 674.5398
182.5093, 679.1763
182.9915, 683.2321
183.4736, 687.3340
183.9557, 691.5268
184.4378, 695.8810
184.9199, 700.2321
185.4020, 704.6377
185.8842, 710.1392
186.3663, 717.8851
186.8484, 727.2974
187.3305, 736.1899
187.8126, 744.6654
188.2947, 752.1512
188.7769, 757.5067
189.2590, 760.8052
189.7411, 763.4424
190.2232, 765.5330
190.7053, 767.3698
191.1874, 770.8262
191.6696, 776.1001
192.1517, 783.0338
192.6338, 791.7501
193.1159, 802.2980
193.5980, 813.3233
194.0801, 824.4550
194.5623, 835.5710
195.0444, 845.7843
195.5265, 855.2570
196.0086, 863.3154
196.4907, 868.3976
196.9728, 870.3789
197.4550, 870.4338
197.9371, 868.3002
198.4192, 863.9125
198.9013, 861.4235
199.3834, 861.3708
199.8655, 863.2093
200.3477, 866.2401
200.8298, 870.9008
201.3119, 874.7200
201.7940, 876.0126
202.2761, 874.5869
202.7582, 872.9193
203.2404, 871.3568
203.7225, 869.6042
204.2046, 866.8903
204.6867, 863.2378
205.1688, 858.5620
205.6509, 853.0222
206.1331, 846.7334
206.6152, 838.6263
207.0973, 828.2580
207.5794, 816.1986
208.0615, 803.9198
208.5436, 791.0651
209.0258, 778.8699
209.5079, 767.8994
209.9900, 757.9217
210.4721, 750.3591
210.9542, 745.3806
211.4363, 742.8632
211.9185, 742.5703
212.4006, 744.8325
212.8827, 748.6178
213.3648, 752.9493
213.8469, 757.2530
214.3290, 764.4579
214.8112, 775.6345
215.2933, 789.6412
215.7754, 802.7274
216.2575, 814.3273
216.7396, 826.1112
217.2217, 839.4035
217.7038, 855.3805
218.1860, 869.3410
218.6681, 881.5645
219.1502, 891.4047
219.6323, 896.3505
220.1144, 896.5197
220.5965, 891.5565
221.0787, 880.7194
221.5608, 862.3746
222.0429, 842.6341
222.5250, 821.3866
223.0071, 799.0692
223.4892, 777.9105
223.9714, 757.1735
224.4535, 738.4664
224.9356, 722.4875
225.4177, 709.7822
225.8998, 698.7286
226.3819, 689.1563
226.8641, 681.1459
227.3462, 675.5270
227.8283, 673.4163
228.3104, 671.9808
228.7925, 669.6428
229.2746, 665.2698
229.7568, 662.5303
230.2389, 661.9435
230.7210, 662.9759
231.2031, 664.0259
231.6852, 665.2075
232.1673, 666.2289
232.6495, 666.8341
233.1316, 666.4872
233.6137, 666.9213
234.0958, 668.2411
234.5779, 670.3473
235.0600, 673.0522
235.5422, 676.9417
236.0243, 680.6323
236.5064, 683.4020
236.9885, 684.4773
237.4706, 686.4105
237.9527, 689.7007
238.4349, 693.6937
238.9170, 696.5701
239.3991, 697.2379
239.8812, 698.4243
240.3633, 701.6327
240.8454, 708.6740
241.3276, 713.1700
241.8097, 714.2805
242.2918, 713.0992
242.7739, 712.0892
243.2560, 712.1597
243.7381, 710.9963
244.2203, 707.5455
244.7024, 700.9720
245.1845, 694.4758
245.6666, 688.1756
246.1487, 681.9124
246.6308, 675.0991
247.1130, 666.9208
247.5951, 659.4991
248.0772, 653.7371
248.5593, 649.9883
249.0414, 646.4669
249.5235, 643.0939
250.0057, 639.9976
250.4878, 637.3698
250.9699, 635.4098
251.4520, 633.5311
251.9341, 631.3888
252.4162, 628.6673
252.8984, 627.2144
253.3805, 627.3781
253.8626, 628.5491
254.3447, 629.9012
254.8268, 631.6578
255.3089, 633.1883
255.7911, 634.3109
256.2732, 635.0209
256.7553, 635.2952
257.2374, 634.5309
257.7195, 633.9327
258.2017, 635.2253
258.6838, 639.5167
259.1659, 643.1686
259.6480, 645.0150
260.1301, 644.9357
260.6122, 645.9646
261.0944, 648.5080
261.5765, 651.6727
262.0586, 654.5200
262.5407, 656.8902
263.0228, 659.3479
263.5049, 661.8298
263.9871, 664.3939
264.4692, 667.9775
264.9513, 673.0234
265.4334, 678.4349
265.9155, 683.0923
266.3976, 686.3752
266.8798, 690.8138
267.3619, 697.3148
267.8440, 705.5248
268.3261, 711.9478
268.8082, 716.0161
269.2903, 719.4675
269.7725, 723.6315
270.2546, 728.5820
270.7367, 733.6574
271.2188, 738.7982
271.7009, 743.9312
272.1830, 748.9432
272.6652, 753.8827
273.1473, 758.4543
273.6294, 762.2853
274.1115, 765.1516
274.5936, 768.7036
275.0757, 773.3605
275.5579, 778.6523
276.0400, 782.7191
276.5221, 785.0477
277.0042, 788.1945
277.4863, 794.0544
277.9684, 802.8502
278.4506, 811.2079
278.9327, 818.8278
279.4148, 825.9920
279.8969, 833.2684
280.3790, 840.6751
280.8611, 848.1011
281.3433, 855.9421
281.8254, 864.2150
282.3075, 870.4791
282.7896, 874.3195
283.2717, 877.0302
283.7538, 880.7888
284.2360, 885.6567
284.7181, 890.1071
285.2002, 893.3374
285.6823, 895.4707
286.1644, 897.9149
286.6465, 900.9432
287.1287, 903.2001
287.6108, 903.1993
288.0929, 900.9366
288.5750, 896.3448
289.0571, 888.7666
289.5392, 878.7776
290.0214, 869.0732
290.5035, 859.8498
290.9856, 849.7034
291.4677, 836.1637
291.9498, 819.8527
292.4319, 805.0912
292.9141, 793.3441
293.3962, 783.7644
293.8783, 774.1067
294.3604, 764.4011
294.8425, 756.0992
295.3246, 750.4789
295.8068, 747.2291
296.2889, 745.3707
296.7710, 744.5956
297.2531, 745.1527
297.7352, 747.5043
298.2173, 751.5920
298.6995, 757.1118
299.1816, 764.2076
299.6637, 772.5305
300.1458, 781.2312
300.6279, 790.3004
301.1100, 799.5377
301.5922, 808.5303
302.0743, 817.3527
302.5564, 826.2994
303.0385, 835.9227
303.5206, 845.6780
304.0027, 854.7692
304.4849, 862.7671
304.9670, 871.0432
305.4491, 880.6206
305.9312, 891.3864
306.4133, 903.0763
306.8954, 915.7401
307.3776, 929.2033
307.8597, 942.9496
308.3418, 957.0316
308.8239, 972.0521
309.3060, 988.1297
309.7881, 1005.671
310.2703, 1024.767
310.7524, 1044.046
311.2345, 1066.163
311.7166, 1093.924
312.1987, 1127.174
312.6808, 1160.948
313.1630, 1190.667
313.6451, 1220.408
314.1272, 1254.877
314.6093, 1301.112
315.0914, 1346.737
315.5735, 1386.687
316.0557, 1420.930
316.5378, 1449.337
317.0199, 1475.492
317.5020, 1493.625
317.9841, 1499.673
318.4662, 1491.100
318.9484, 1472.372
319.4305, 1442.294
319.9126, 1402.895
320.3947, 1359.484
320.8768, 1309.123
321.3589, 1258.542
321.8411, 1210.300
322.3232, 1164.020
322.8053, 1123.123
323.2874, 1089.096
323.7695, 1060.717
324.2516, 1036.053
324.7338, 1015.501
325.2159, 997.9680
325.6980, 983.1935
326.1801, 971.1533
326.6622, 961.7148
327.1443, 955.9518
327.6265, 952.2308
328.1086, 948.8962
328.5907, 944.0281
329.0728, 941.7164
329.5549, 943.3939
330.0370, 949.1226
330.5192, 954.2518
331.0013, 959.8890
331.4834, 964.0462
331.9655, 965.4077
332.4476, 963.5553
332.9297, 959.5847
333.4119, 953.4869
333.8940, 945.3444
334.3761, 935.4997
334.8582, 924.1222
335.3403, 911.1285
335.8224, 896.0124
336.3046, 877.2715
336.7867, 860.6954
337.2688, 846.2819
337.7509, 834.0466
338.2330, 823.8167
338.7151, 815.8441
339.1973, 809.3236
339.6794, 803.8646
340.1615, 799.4963
340.6436, 796.7272
341.1257, 795.8136
341.6078, 796.0280
342.0899, 796.6317
342.5721, 797.6471
343.0542, 798.7728
343.5363, 799.9091
344.0184, 801.0900
344.5005, 802.4072
344.9826, 803.8267
345.4648, 805.5858
345.9469, 807.9346
346.4290, 810.8542
346.9111, 813.9879
347.3932, 817.3668
347.8753, 820.7899
348.3575, 823.5155
348.8396, 825.6135
349.3217, 828.2049
349.8038, 832.2300
350.2859, 837.2603
350.7680, 842.2866
351.2502, 847.1676
351.7323, 852.0785
352.2144, 856.9250
352.6965, 861.9342
353.1786, 867.6533
353.6607, 874.6450
354.1429, 882.3904
354.6250, 890.1564
355.1071, 897.9075
355.5892, 906.2474
356.0713, 916.3318
356.5534, 927.1791
357.0356, 937.3381
357.5177, 946.4982
357.9998, 954.6637
358.4819, 962.2225
358.9640, 968.9303
359.4461, 973.1464
359.9283, 973.7178
360.4104, 971.5792
360.8925, 967.4469
361.3746, 961.2531
361.8567, 953.4534
362.3388, 942.5151
362.8210, 930.0947
363.3031, 919.7059
363.7852, 912.7933
364.2673, 907.8885
364.7494, 904.2733
365.2315, 901.7129
365.7137, 901.0169
366.1958, 902.3055
366.6779, 905.5613
367.1600, 910.7778
367.6421, 918.7526
368.1242, 927.8615
368.6064, 937.6261
369.0885, 948.0573
369.5706, 960.1803
370.0527, 975.3757
370.5348, 991.2690
371.0169, 1006.471
371.4991, 1019.803
371.9812, 1034.265
372.4633, 1050.847
372.9454, 1068.745
373.4275, 1084.852
373.9096, 1099.266
374.3918, 1112.030
374.8739, 1122.173
375.3560, 1128.514
375.8381, 1138.260
376.3202, 1152.130
376.8023, 1168.305
377.2845, 1183.929
377.7666, 1198.578
378.2487, 1214.269
378.7308, 1231.116
379.2129, 1249.388
379.6950, 1269.422
380.1772, 1291.399
380.6593, 1315.012
381.1414, 1339.988
381.6235, 1366.261
382.1056, 1395.584
382.5877, 1428.465
383.0699, 1464.016
383.5520, 1500.985
384.0341, 1539.572
384.5162, 1578.336
384.9983, 1618.085
385.4804, 1657.503
385.9626, 1695.785
386.4447, 1733.961
386.9268, 1764.996
387.4089, 1783.936
387.8910, 1790.420
388.3731, 1783.147
388.8553, 1759.704
389.3374, 1723.462
389.8195, 1674.177
390.3016, 1613.228
390.7837, 1550.165
391.2658, 1488.759
391.7480, 1429.985
392.2301, 1374.996
392.7122, 1325.747
393.1943, 1278.179
393.6764, 1229.726
394.1585, 1181.500
394.6407, 1137.582
395.1228, 1099.129
395.6049, 1065.160
396.0870, 1035.073
396.5691, 1009.410
397.0512, 986.3600
397.5334, 965.6141
398.0155, 947.1955
398.4976, 931.3895
398.9797, 919.5168
399.4618, 908.6871
399.9439, 898.2705
400.4261, 888.2614
400.9082, 879.4971
401.3903, 872.3029
401.8724, 866.0189
402.3545, 860.2651
402.8366, 855.2936
403.3188, 850.4379
403.8009, 845.7643
404.2830, 841.1422
404.7651, 836.0653
405.2472, 830.2405
405.7293, 824.9393
406.2115, 820.5276
406.6936, 817.0306
407.1757, 815.2159
407.6578, 815.5404
408.1399, 816.3167
408.6220, 815.4523
409.1042, 812.9872
409.5863, 810.6398
410.0684, 808.9352
410.5505, 807.5831
411.0326, 805.5410
411.5147, 802.8403
411.9969, 800.6683
412.4790, 800.3549
412.9611, 801.1515
413.4432, 801.2186
413.9253, 800.2119
414.4074, 798.8691
414.8896, 798.0916
415.3717, 797.6010
415.8538, 796.7401
416.3359, 794.6327
416.8180, 792.3806
417.3001, 790.9560
417.7823, 790.3559
418.2644, 790.2740
418.7465, 790.5617
419.2286, 791.2398
419.7107, 792.3837
420.1928, 794.7997
420.6750, 796.6130
421.1571, 796.6556
421.6392, 795.5147
422.1213, 794.7172
422.6034, 794.0541
423.0855, 794.3392
423.5677, 796.3151
424.0498, 800.8390
424.5319, 804.1273
425.0140, 805.2650
425.4961, 805.3763
425.9782, 805.5739
426.4604, 805.7586
426.9425, 806.1901
427.4246, 806.7734
427.9067, 807.6000
428.3888, 809.3313
428.8709, 812.3934
429.3531, 815.6017
429.8352, 818.2307
430.3173, 820.0143
430.7994, 822.4429
431.2815, 825.7440
431.7636, 829.3627
432.2458, 832.3026
432.7279, 834.5164
433.2100, 836.6490
433.6921, 838.7092
434.1742, 840.8908
434.6563, 843.9352
435.1385, 847.8895
435.6206, 852.2429
436.1027, 856.7690
436.5848, 861.3708
437.0669, 865.8424
437.5490, 870.2650
438.0312, 874.2948
438.5133, 877.4686
438.9954, 879.9762
439.4775, 882.3268
439.9596, 885.4283
440.4417, 888.1046
440.9239, 889.3398
441.4060, 889.0841
441.8881, 887.7017
442.3702, 885.3484
442.8523, 882.0143
443.3344, 877.6553
443.8166, 871.8881
444.2987, 865.5203
444.7808, 858.2863
445.2629, 850.5574
445.7450, 843.3793
446.2271, 836.5966
446.7093, 830.8788
447.1914, 826.7291
447.6735, 824.7223
448.1556, 822.3541
448.6377, 818.9700
449.1198, 815.6818
449.6020, 813.6340
450.0841, 813.2097
450.5662, 813.3304
451.0483, 813.9523
451.5304, 815.0039
452.0125, 816.1442
452.4947, 817.3846
452.9768, 818.7086
453.4589, 820.0328
453.9410, 821.3577
454.4231, 823.1968
454.9052, 825.6818
455.3874, 828.3369
455.8695, 830.1627
456.3516, 831.4066
456.8337, 833.9308
457.3158, 839.1255
457.7979, 845.3263
458.2801, 849.4323
458.7622, 851.6625
459.2443, 853.6621
459.7264, 856.5765
460.2085, 859.9157
460.6906, 862.9982
461.1728, 865.7003
461.6549, 868.3046
462.1370, 870.9562
462.6191, 873.6195
463.1012, 876.1776
463.5833, 878.7266
464.0655, 881.0355
464.5476, 882.5871
465.0297, 883.5392
465.5118, 885.3260
465.9939, 889.3322
466.4760, 893.4918
466.9582, 896.6241
467.4403, 898.0146
467.9224, 899.5233
468.4045, 901.3593
468.8866, 903.2524
469.3687, 904.8683
469.8509, 906.2337
470.3330, 907.1981
470.8151, 907.4858
471.2972, 907.2366
471.7793, 908.0172
472.2614, 910.2004
472.7436, 912.4445
473.2257, 913.5574
473.7078, 913.5150
474.1899, 914.2956
474.6720, 916.0007
475.1541, 918.6836
475.6363, 922.7261
476.1184, 927.9653
476.6005, 933.3882
477.0826, 938.6798
477.5647, 943.8427
478.0468, 948.7655
478.5290, 953.5179
479.0111, 958.7375
479.4932, 965.4761
479.9753, 972.6771
480.4574, 979.1722
480.9395, 984.7986
481.4217, 989.5978
481.9038, 993.5463
482.3859, 996.6190
482.8680, 998.7098
483.3501, 1000.222
483.8322, 1000.308
484.3144, 998.2828
484.7965, 994.2623
485.2786, 989.8702
485.7607, 984.2082
486.2428, 979.1618
486.7249, 975.6367
487.2071, 973.9700
487.6892, 973.1969
488.1713, 973.5205
488.6534, 974.6105
489.1355, 975.8364
489.6176, 976.7899
490.0998, 979.2311
490.5819, 983.8039
491.0640, 990.2543
491.5461, 997.1064
492.0282, 1004.380
492.5103, 1012.279
492.9925, 1020.988
493.4746, 1030.515
493.9567, 1039.847
494.4388, 1048.812
494.9209, 1058.782
495.4030, 1071.715
495.8852, 1086.934
496.3673, 1103.164
496.8494, 1120.088
497.3315, 1137.439
497.8136, 1154.275
498.2957, 1171.159
498.7779, 1189.751
499.2600, 1210.997
499.7421, 1234.457
500.2242, 1260.067
500.7063, 1288.380
501.1884, 1317.488
501.6706, 1345.153
502.1527, 1373.929
502.6348, 1405.959
503.1169, 1442.316
503.5990, 1481.072
504.0811, 1521.938
504.5633, 1564.668
505.0454, 1609.590
505.5275, 1656.258
506.0096, 1704.572
506.4917, 1754.174
506.9738, 1805.451
507.4560, 1858.622
507.9381, 1913.853
508.4202, 1970.510
508.9023, 2027.894
509.3844, 2086.036
509.8665, 2145.557
510.3487, 2206.646
510.8308, 2269.042
511.3129, 2332.749
511.7950, 2397.556
512.2772, 2462.417
512.7593, 2526.236
513.2414, 2589.994
513.7235, 2656.556
514.2056, 2725.796
514.6877, 2794.162
515.1699, 2859.856
515.6520, 2923.367
516.1341, 2985.626
516.6162, 3049.452
517.0983, 3107.012
517.5804, 3157.780
518.0626, 3200.665
518.5447, 3233.896
519.0268, 3258.652
519.5089, 3271.933
519.9910, 3275.472
520.4731, 3268.802
520.9553, 3241.690
521.4374, 3190.153
521.9195, 3124.792
522.4016, 3050.095
522.8837, 2965.947
523.3658, 2876.525
523.8480, 2781.193
524.3301, 2681.754
524.8122, 2579.738
525.2943, 2475.922
525.7764, 2375.456
526.2585, 2278.974
526.7407, 2187.649
527.2228, 2101.691
527.7049, 2020.753
528.1870, 1945.419
528.6691, 1874.020
529.1512, 1808.372
529.6334, 1751.180
530.1155, 1702.219
530.5976, 1657.956
531.0797, 1615.247
531.5618, 1575.922
532.0439, 1542.354
532.5261, 1516.168
533.0082, 1493.648
533.4903, 1473.646
533.9724, 1456.407
534.4545, 1441.999
534.9366, 1431.816
535.4188, 1423.059
535.9009, 1415.471
536.3830, 1409.042
536.8651, 1402.696
537.3472, 1396.147
537.8293, 1390.320
538.3115, 1386.603
538.7936, 1385.354
539.2757, 1381.643
539.7578, 1375.165
540.2399, 1366.511
540.7220, 1356.389
541.2042, 1344.789
541.6863, 1330.951
542.1684, 1314.192
542.6505, 1295.387
543.1326, 1275.766
543.6147, 1255.219
544.0969, 1232.751
544.5790, 1206.844
545.0611, 1179.901
545.5432, 1153.789
546.0253, 1128.774
546.5074, 1104.410
546.9896, 1079.708
547.4717, 1056.293
547.9538, 1035.496
548.4359, 1018.385
548.9180, 1002.781
549.4001, 988.6589
549.8823, 975.7642
550.3644, 963.7582
550.8465, 952.6924
551.3286, 942.1766
551.8107, 931.9319
552.2928, 922.0699
552.7750, 913.9766
553.2571, 907.8887
553.7392, 902.1993
554.2213, 895.3975
554.7034, 887.9459
555.1855, 882.6379
555.6677, 879.8527
556.1498, 877.3084
556.6319, 871.5158
557.1140, 864.3120
557.5961, 859.8695
558.0782, 861.0400
558.5604, 862.5042
559.0425, 859.4194
559.5246, 853.3624
560.0067, 847.8410
560.4888, 844.1609
560.9709, 841.4987
561.4531, 840.0054
561.9352, 839.6428
562.4173, 838.5345
562.8994, 835.7484
563.3815, 832.7112
563.8636, 830.0697
564.3458, 827.8635
564.8279, 826.0566
565.3100, 824.7921
565.7921, 823.7328
566.2742, 822.4946
566.7563, 821.0729
567.2385, 819.4360
567.7206, 817.4098
568.2027, 815.3917
568.6848, 814.4789
569.1669, 814.5343
569.6490, 814.6378
570.1312, 814.1047
570.6133, 813.4039
571.0954, 813.2347
571.5775, 813.5886
572.0596, 814.1406
572.5417, 815.0932
573.0239, 815.9116
573.5060, 815.9584
573.9881, 814.6373
574.4702, 813.9005
574.9523, 814.6808
575.4344, 816.2407
575.9166, 817.6339
576.3987, 818.4822
576.8808, 819.6017
577.3629, 821.1483
577.8450, 823.0280
578.3271, 825.0009
578.8093, 827.1467
579.2914, 829.0897
579.7735, 830.4056
580.2556, 831.2531
580.7377, 833.1429
581.2198, 836.1019
581.7020, 839.6281
582.1841, 843.7501
582.6662, 848.0558
583.1483, 851.4154
583.6304, 853.4279
584.1125, 855.5912
584.5947, 859.4844
585.0768, 864.3146
585.5589, 868.9186
586.0410, 872.5902
586.5231, 876.3408
587.0052, 880.4645
587.4873, 884.9984
587.9694, 889.9315
588.4515, 895.6093
588.9337, 901.4113
589.4158, 907.0424
589.8979, 912.5024
590.3800, 918.6359
590.8621, 925.6138
591.3442, 932.9749
591.8264, 940.3789
592.3085, 947.8406
592.7906, 955.4093
593.2727, 963.1499
593.7548, 970.7518
594.2369, 977.7736
594.7191, 984.4154
595.2012, 991.4281
595.6833, 999.3400
596.1654, 1007.093
596.6475, 1013.950
597.1296, 1019.723
597.6118, 1024.144
598.0939, 1025.538
598.5760, 1026.946
599.0581, 1030.307
599.5402, 1035.414
600.0223, 1040.316
600.5045, 1044.134
600.9866, 1048.073
601.4687, 1052.834
601.9508, 1058.726
602.4329, 1064.105
602.9150, 1068.696
603.3972, 1073.102
603.8793, 1077.897
604.3614, 1083.156
604.8435, 1088.270
605.3256, 1093.273
605.8077, 1097.714
606.2899, 1101.181
606.7720, 1103.514
607.2541, 1103.825
607.7362, 1101.307
608.2183, 1097.097
608.7004, 1092.884
609.1826, 1088.209
609.6647, 1081.634
610.1468, 1072.072
610.6289, 1060.553
611.1110, 1047.376
611.5931, 1032.383
612.0753, 1017.609
612.5574, 1002.646
613.0395, 988.5197
613.5216, 975.8341
614.0037, 964.7831
614.4858, 954.3286
614.9680, 944.2930
615.4501, 935.0782
615.9322, 927.2861
616.4143, 920.9831
616.8964, 915.1042
617.3785, 909.3734
617.8607, 904.2036
618.3428, 900.2428
618.8249, 897.4561
619.3070, 895.7091
619.7891, 895.2876
620.2712, 895.6346
620.7534, 896.6520
621.2355, 898.1243
621.7176, 898.9717
622.1997, 897.8295
622.6818, 896.6263
623.1639, 896.5487
623.6461, 897.8766
624.1282, 899.1161
624.6103, 900.1807
625.0924, 901.0624
625.5745, 901.6632
626.0566, 901.6698
626.5388, 902.4144
627.0209, 904.2777
627.5030, 906.2326
627.9851, 906.6338
628.4672, 905.5558
628.9493, 904.8512
629.4315, 905.1196
629.9136, 905.6362
630.3957, 905.5374
630.8778, 904.7955
631.3599, 903.3215
631.8420, 899.8451
632.3242, 896.6296
632.8063, 896.3967
633.2884, 898.3979
633.7705, 898.4232
634.2526, 893.2710
634.7347, 887.3000
635.2169, 882.5692
635.6990, 879.4688
636.1811, 875.9624
636.6632, 871.5003
637.1453, 867.3046
637.6274, 864.3751
638.1096, 862.8590
638.5917, 861.5633
639.0738, 860.6351
639.5559, 859.2574
640.0380, 855.8446
640.5201, 850.8986
641.0023, 846.7790
641.4844, 844.2557
641.9665, 842.3371
642.4486, 839.9753
642.9307, 837.3424
643.4128, 834.8484
643.8950, 832.8583
644.3771, 830.8486
644.8592, 828.3249
645.3413, 825.4852
645.8234, 823.2366
646.3055, 821.9154
646.7877, 821.0889
647.2698, 820.6984
647.7519, 820.7499
648.2340, 820.8958
648.7161, 820.9808
649.1982, 821.5596
649.6804, 823.7346
650.1625, 827.1479
650.6446, 828.1097
651.1267, 826.2233
651.6088, 823.5358
652.0909, 821.5872
652.5731, 820.4591
653.0552, 820.3853
653.5373, 821.7150
654.0194, 823.4207
654.5015, 825.0468
654.9836, 826.6259
655.4658, 828.2127
655.9479, 830.0984
656.4300, 831.6888
656.9121, 832.7570
657.3942, 833.4713
657.8763, 834.1201
658.3585, 834.2184
658.8406, 835.4582
659.3227, 838.8826
659.8048, 843.8512
660.2869, 846.3949
660.7690, 846.3809
661.2512, 847.0601
661.7333, 851.6384
662.2154, 857.9808
662.6975, 861.5626
663.1796, 862.2977
663.6617, 863.2033
664.1439, 866.8528
664.6260, 871.3214
665.1081, 874.8143
665.5902, 876.6380
666.0723, 878.8295
666.5544, 882.6566
667.0366, 886.6504
667.5187, 889.3301
668.0008, 889.2007
668.4829, 891.0732
668.9650, 895.8532
669.4471, 901.9910
669.9293, 906.9963
670.4114, 910.8578
670.8935, 915.1602
671.3756, 920.4647
671.8577, 926.2113
672.3398, 930.8553
672.8220, 935.0915
673.3041, 941.2062
673.7862, 951.7430
674.2683, 963.3314
674.7504, 974.0871
675.2325, 983.9343
675.7147, 992.5140
676.1968, 998.1005
676.6789, 1004.034
677.1610, 1011.682
677.6431, 1021.143
678.1252, 1031.103
678.6074, 1041.981
679.0895, 1052.424
679.5716, 1060.987
680.0537, 1067.745
680.5358, 1076.152
681.0179, 1086.380
681.5001, 1097.213
681.9822, 1108.067
682.4643, 1118.457
682.9464, 1127.131
683.4285, 1133.906
683.9106, 1139.152
684.3928, 1143.446
684.8749, 1146.302
685.3570, 1147.231
685.8391, 1145.539
686.3212, 1142.638
686.8033, 1139.214
687.2855, 1134.526
687.7676, 1127.149
688.2497, 1116.137
688.7318, 1104.588
689.2139, 1093.146
689.6960, 1081.452
690.1782, 1068.734
690.6603, 1055.028
691.1424, 1041.016
691.6245, 1026.420
692.1066, 1011.868
692.5887, 998.4572
693.0709, 986.0680
693.5530, 974.1188
694.0351, 962.2881
694.5172, 950.9398
694.9993, 940.1605
695.4814, 929.9445
695.9636, 920.8036
696.4457, 914.0558
696.9278, 907.1312
697.4099, 898.3207
697.8920, 886.8563
698.3741, 879.0439
698.8563, 875.6834
699.3384, 873.5150
699.8205, 869.4964
700.3026, 864.1377
700.7847, 859.6526
701.2668, 856.3039
701.7490, 853.6123
702.2311, 851.6234
702.7132, 849.8356
703.1953, 847.5221
703.6774, 844.2905
704.1595, 840.9542
704.6417, 837.1847
705.1238, 833.6789
705.6059, 831.5243
706.0880, 831.6708
706.5701, 831.6120
707.0522, 831.1925
707.5344, 830.3843
708.0165, 828.9012
708.4986, 826.6670
708.9807, 825.0275
709.4628, 824.5127
709.9449, 824.6608
710.4271, 824.7603
710.9092, 824.7995
711.3913, 824.7391
711.8734, 824.8073
712.3555, 824.5596
712.8376, 823.1761
713.3198, 821.0170
713.8019, 819.8763
714.2840, 821.6324
714.7661, 823.0881
715.2482, 822.8553
715.7303, 821.0109
716.2125, 819.8978
716.6946, 819.7813
717.1767, 819.6499
717.6588, 818.5250
718.1409, 816.6904
718.6230, 816.7767
719.1052, 818.8350
719.5873, 820.8397
720.0694, 820.8367
720.5515, 820.0092
721.0336, 819.8727
721.5157, 820.6603
721.9979, 821.7212
722.4800, 823.2982
722.9621, 824.6796
723.4442, 825.1665
723.9263, 823.7091
724.4084, 823.6025
724.8906, 825.5092
725.3727, 827.9840
725.8548, 829.5165
726.3369, 830.0410
726.8190, 830.7687
727.3011, 831.8573
727.7833, 833.0579
728.2654, 833.6945
728.7475, 834.1957
729.2296, 835.7207
729.7117, 839.1360
730.1938, 842.5044
730.6760, 844.3833
731.1581, 845.3659
731.6402, 846.3976
732.1223, 846.2152
732.6044, 848.0530
733.0865, 853.4398
733.5687, 860.6410
734.0508, 866.0696
734.5329, 869.5157
735.0150, 871.9632
735.4971, 873.1442
735.9792, 874.1307
736.4614, 877.9132
736.9435, 883.9449
737.4256, 889.4035
737.9077, 892.0124
738.3898, 894.1063
738.8719, 897.6683
739.3541, 902.4826
739.8362, 907.7531
740.3183, 914.0451
740.8004, 919.8826
741.2825, 924.6066
741.7646, 928.3291
742.2468, 931.6537
742.7289, 934.3331
743.2110, 937.1867
743.6931, 940.6595
744.1752, 944.6293
744.6573, 948.2479
745.1395, 951.5112
745.6216, 955.2705
746.1037, 960.6573
746.5858, 966.5511
747.0679, 971.6486
747.5500, 975.8976
748.0322, 979.3512
748.5143, 981.4175
748.9964, 983.1864
749.4785, 985.5133
749.9606, 988.7821
750.4427, 990.8837
750.9249, 991.7360
751.4070, 991.6199
751.8891, 990.5501
752.3712, 988.5311
752.8533, 986.5540
753.3354, 984.6828
753.8176, 982.3403
754.2997, 978.7266
754.7818, 974.3947
755.2639, 969.8644
755.7460, 965.0747
756.2281, 961.3341
756.7103, 959.4378
757.1924, 958.8856
757.6745, 959.4219
758.1566, 962.1919
758.6387, 963.5773
759.1208, 962.6569
759.6030, 961.4724
760.0851, 962.1413
760.5672, 964.7059
761.0493, 967.8649
761.5314, 971.5389
762.0135, 975.4590
762.4957, 978.9418
762.9778, 982.4885
763.4599, 987.0916
763.9420, 992.9664
764.4241, 999.9580
764.9063, 1008.322
765.3884, 1017.618
765.8705, 1027.311
766.3526, 1037.145
766.8347, 1047.803
767.3168, 1060.428
767.7990, 1073.014
768.2811, 1082.078
768.7632, 1087.417
769.2453, 1093.552
769.7274, 1101.378
770.2095, 1110.187
770.6917, 1119.427
771.1738, 1128.775
771.6559, 1137.742
772.1380, 1146.714
772.6201, 1154.330
773.1022, 1158.879
773.5844, 1161.728
774.0665, 1165.297
774.5486, 1171.783
775.0307, 1176.219
775.5128, 1177.685
775.9949, 1176.980
776.4771, 1175.530
776.9592, 1173.300
777.4413, 1171.344
777.9234, 1170.141
778.4055, 1169.086
778.8876, 1167.393
779.3698, 1165.097
779.8519, 1162.270
780.3340, 1159.267
780.8161, 1155.440
781.2982, 1150.733
781.7803, 1144.951
782.2625, 1137.424
782.7446, 1127.472
783.2267, 1117.107
783.7088, 1106.816
784.1909, 1096.281
784.6730, 1084.409
785.1552, 1071.161
785.6373, 1057.347
786.1194, 1042.863
786.6015, 1028.617
787.0836, 1016.582
787.5657, 1006.108
788.0479, 995.4510
788.5300, 983.0443
789.0121, 971.3273
789.4942, 961.2653
789.9763, 952.8719
790.4584, 946.0881
790.9406, 941.5458
791.4227, 937.4733
791.9048, 933.5910
792.3869, 929.7762
792.8690, 925.3054
793.3511, 920.2428
793.8333, 916.1385
794.3154, 914.3812
794.7975, 913.3995
795.2796, 911.3101
795.7617, 908.4005
796.2438, 905.6801
796.7260, 903.6844
797.2081, 901.8117
797.6902, 899.7378
798.1723, 897.6125
798.6544, 895.9922
799.1365, 894.9230
799.6187, 894.3181
800.1008, 894.3445
800.5829, 894.6916
801.0650, 894.3005
801.5471, 893.2871
802.0292, 892.4069
802.5114, 891.9681
802.9935, 891.9155
803.4756, 892.4315
803.9577, 893.3196
804.4398, 893.9425
804.9219, 893.9341
805.4041, 893.8065
805.8862, 893.7248
806.3683, 893.6459
806.8504, 893.5939
807.3325, 893.7921
807.8146, 892.8030
808.2968, 889.5112
808.7789, 885.1672
809.2610, 882.7744
809.7431, 881.9030
810.2252, 880.7902
810.7073, 878.4075
811.1895, 875.5978
811.6716, 872.7923
812.1537, 869.9825
812.6358, 867.0669
813.1179, 863.3434
813.6000, 860.5070
814.0822, 859.2845
814.5643, 859.1256
815.0464, 858.0242
815.5285, 855.9735
816.0106, 853.7654
816.4927, 851.4549
816.9749, 849.4545
817.4570, 848.5964
817.9391, 848.5920
818.4212, 848.5845
818.9033, 848.6017
819.3854, 848.0918
819.8676, 846.3127
820.3497, 843.7753
820.8318, 842.2557
821.3139, 842.1838
821.7960, 842.1183
822.2781, 841.6506
822.7603, 841.0164
823.2424, 840.9342
823.7245, 841.2802
824.2066, 841.2639
824.6887, 840.3945
825.1708, 839.2485
825.6530, 838.4422
826.1351, 837.7512
826.6172, 836.7043
827.0993, 834.2137
827.5814, 832.5648
828.0635, 832.6369
828.5457, 833.6066
829.0278, 833.7518
829.5099, 832.9928
829.9920, 831.8596
830.4741, 830.1996
830.9562, 828.7881
831.4384, 829.3705
831.9205, 831.1923
832.4026, 832.2868
832.8847, 831.3044
833.3668, 830.3418
833.8489, 830.2806
834.3311, 830.9769
834.8132, 832.2622
835.2953, 834.5045
835.7774, 836.5688
836.2595, 838.5685
836.7416, 840.0040
837.2238, 839.8071
837.7059, 838.1326
838.1880, 836.4828
838.6701, 835.2124
839.1522, 833.9860
839.6343, 831.9266
840.1165, 829.8761
840.5986, 829.1489
841.0807, 831.2689
841.5628, 832.7904
842.0449, 832.7838
842.5270, 832.0462
843.0092, 831.2476
843.4913, 830.3438
843.9734, 829.6906
844.4555, 829.3807
844.9376, 829.1019
845.4197, 828.0497
845.9019, 826.8391
846.3840, 826.9716
846.8661, 829.0422
847.3482, 830.9446
847.8303, 831.4167
848.3124, 831.2316
848.7946, 830.9801
849.2767, 830.3682
849.7588, 830.7415
850.2409, 832.5056
850.7230, 834.4800
851.2051, 835.5677
851.6873, 835.8910
852.1694, 836.3522
852.6515, 837.0050
853.1336, 837.6370
853.6157, 838.1507
854.0978, 838.5021
854.5800, 838.5803
855.0621, 838.3224
855.5442, 838.2298
856.0263, 838.3786
856.5084, 838.7567
856.9905, 839.3778
857.4727, 840.2462
857.9548, 841.6180
858.4369, 843.6349
858.9190, 844.7473
859.4011, 842.7285
859.8832, 839.6779
860.3654, 839.3265
860.8475, 841.4481
861.3296, 843.2082
861.8117, 843.2440
862.2938, 842.6774
862.7759, 841.7236
863.2581, 840.5220
863.7402, 840.0934
864.2223, 840.6450
864.7044, 841.2563
865.1865, 841.5431
865.6686, 841.6156
866.1508, 841.7159
866.6329, 841.8414
867.1150, 841.9953
867.5971, 842.1738
868.0792, 842.3751
868.5613, 842.2903
869.0435, 842.1992
869.5256, 843.1180
870.0077, 846.4285
870.4898, 848.2406
870.9719, 847.4158
871.4540, 845.1383
871.9362, 844.0236
872.4183, 843.9303
872.9004, 843.6432
873.3825, 842.5529
873.8646, 841.6525
874.3467, 842.1375
874.8289, 843.3813
875.3110, 844.4300
875.7931, 845.1112
876.2752, 845.4125
876.7573, 845.1671
877.2394, 844.7281
877.7216, 844.5072
878.2037, 844.5161
878.6858, 844.5092
879.1679, 844.4261
879.6500, 844.4857
880.1321, 845.0509
880.6143, 845.8652
881.0964, 846.6408
881.5785, 847.4207
882.0606, 847.7230
882.5427, 846.7186
883.0248, 845.7059
883.5070, 845.5615
883.9891, 846.3771
884.4712, 847.5802
884.9533, 849.2355
885.4354, 850.8696
885.9175, 852.0695
886.3997, 852.9821
886.8818, 853.9069
887.3639, 854.8428
887.8460, 855.6401
888.3281, 856.1966
888.8102, 856.5887
889.2924, 856.5656
889.7745, 856.2212
890.2566, 857.0418
890.7387, 859.4518
891.2208, 861.7459
891.7029, 863.2267
892.1851, 864.1216
892.6672, 865.0599
893.1493, 865.9891
893.6314, 866.6507
894.1135, 866.3275
894.5956, 866.3096
895.0778, 867.4930
895.5599, 869.5360
896.0420, 871.5438
896.5241, 873.5669
897.0062, 875.3318
897.4883, 876.7038
897.9705, 877.9069
898.4526, 879.2997
898.9347, 880.8613
899.4168, 882.4523
899.8989, 883.9984
900.3810, 885.7388
900.8632, 887.9315
901.3453, 890.4080
901.8274, 893.0414
902.3095, 896.0287
902.7916, 898.6290
903.2737, 900.7424
903.7559, 902.6257
904.2380, 904.1305
904.7201, 905.4347
905.2022, 908.6213
905.6843, 913.8125
906.1664, 918.7419
906.6486, 921.3558
907.1307, 922.9108
907.6128, 924.3998
908.0949, 925.9093
908.5770, 927.7357
909.0591, 929.7247
909.5413, 932.3612
910.0234, 936.2386
910.5055, 940.9872
910.9876, 943.9476
911.4697, 945.2269
911.9518, 946.7570
912.4340, 949.7429
912.9161, 953.4113
913.3982, 956.7045
913.8803, 959.9801
914.3624, 964.2112
914.8445, 970.7428
915.3267, 976.8511
915.8088, 981.7998
916.2909, 986.2461
916.7730, 991.4427
917.2551, 997.4025
917.7372, 1003.768
918.2194, 1010.432
918.7015, 1017.689
919.1836, 1025.865
919.6657, 1034.834
920.1478, 1044.467
920.6299, 1055.060
921.1121, 1065.727
921.5942, 1076.523
922.0763, 1087.372
922.5584, 1097.770
923.0405, 1107.625
923.5226, 1120.199
924.0048, 1135.612
924.4869, 1152.337
924.9690, 1170.266
925.4511, 1188.336
925.9332, 1204.928
926.4153, 1220.080
926.8975, 1235.324
927.3796, 1251.118
927.8617, 1267.035
928.3438, 1283.260
928.8259, 1299.561
929.3080, 1315.189
929.7902, 1330.198
930.2723, 1344.289
930.7544, 1357.902
931.2365, 1369.682
931.7186, 1376.899
932.2007, 1381.099
932.6829, 1385.424
933.1650, 1391.503
933.6471, 1396.902
934.1292, 1400.961
934.6113, 1404.524
935.0934, 1408.964
935.5756, 1414.302
936.0577, 1418.038
936.5398, 1419.519
937.0219, 1421.208
937.5040, 1425.457
937.9861, 1431.278
938.4683, 1437.700
938.9504, 1444.738
939.4325, 1451.381
939.9146, 1457.696
940.3967, 1463.129
940.8788, 1467.467
941.3610, 1470.681
941.8431, 1472.721
942.3252, 1473.599
942.8073, 1473.255
943.2894, 1471.544
943.7715, 1468.706
944.2537, 1464.484
944.7358, 1459.235
945.2179, 1454.183
945.7000, 1450.550
946.1821, 1445.741
946.6642, 1438.851
947.1464, 1430.891
947.6285, 1424.117
948.1106, 1418.336
948.5927, 1412.244
949.0748, 1405.427
949.5569, 1398.506
950.0391, 1392.391
950.5212, 1386.271
951.0033, 1379.336
951.4854, 1371.436
951.9675, 1362.475
952.4496, 1352.329
952.9318, 1341.348
953.4139, 1329.987
953.8960, 1318.069
954.3781, 1304.204
954.8602, 1288.568
955.3423, 1272.629
955.8245, 1257.341
956.3066, 1242.164
956.7887, 1226.427
957.2708, 1210.270
957.7529, 1195.325
958.2350, 1182.022
958.7172, 1168.693
959.1993, 1154.596
959.6814, 1140.382
960.1635, 1127.655
960.6456, 1116.150
961.1277, 1105.134
961.6099, 1094.073
962.0920, 1083.989
962.5741, 1076.103
963.0562, 1069.132
963.5383, 1061.581
964.0204, 1052.467
964.5026, 1045.513
964.9847, 1041.197
965.4668, 1037.629
965.9489, 1032.933
966.4310, 1027.821
966.9131, 1023.378
967.3953, 1019.745
967.8774, 1017.194
968.3595, 1016.126
968.8416, 1015.988
969.3237, 1016.648
969.8058, 1018.008
970.2880, 1019.746
970.7701, 1021.857
971.2522, 1024.435
971.7343, 1027.336
972.2164, 1031.044
972.6985, 1036.768
973.1807, 1043.786
973.6628, 1050.607
974.1449, 1056.255
974.6270, 1062.687
975.1091, 1069.882
975.5912, 1078.422
976.0734, 1089.446
976.5555, 1102.987
977.0376, 1115.014
977.5197, 1125.102
978.0018, 1135.523
978.4839, 1148.354
978.9661, 1162.413
979.4482, 1176.493
979.9303, 1190.579
980.4124, 1205.760
980.8945, 1223.989
981.3766, 1240.713
981.8588, 1254.143
982.3409, 1265.729
982.8230, 1279.914
983.3051, 1296.125
983.7872, 1311.440
984.2693, 1324.966
984.7515, 1336.962
985.2336, 1347.176
985.7157, 1356.136
986.1978, 1364.592
986.6799, 1373.794
987.1620, 1379.674
987.6442, 1381.599
988.1263, 1381.946
988.6084, 1383.469
989.0905, 1384.907
989.5726, 1383.019
990.0547, 1377.797
990.5369, 1370.933
991.0190, 1363.736
991.5011, 1354.660
991.9832, 1342.452
992.4653, 1327.871
992.9474, 1313.041
993.4296, 1298.321
993.9117, 1280.947
994.3938, 1259.382
994.8759, 1236.470
995.3580, 1215.769
995.8401, 1196.533
996.3223, 1176.825
996.8044, 1155.652
997.2865, 1135.053
997.7686, 1114.567
998.2507, 1095.334
998.7328, 1078.331
999.2150, 1063.615
999.6971, 1049.231
1000.179, 1035.419
1000.661, 1022.979
1001.143, 1013.316
1001.626, 1004.624
1002.108, 995.1131
1002.590, 985.2072
1003.072, 976.8304
1003.554, 970.9416
1004.036, 964.6411
1004.518, 957.0076
1005.000, 949.4508
1005.482, 944.8483
1005.965, 942.3211
1006.447, 939.6378
1006.929, 936.1384
1007.411, 933.0024
1007.893, 931.2653
1008.375, 929.6959
1008.857, 927.2421
1009.339, 923.7585
1009.822, 921.1261
1010.304, 919.3734
1010.786, 918.2116
1011.268, 917.9303
1011.750, 917.8483
1012.232, 916.8312
1012.714, 915.2719
1013.196, 914.3010
1013.678, 915.1502
1014.161, 915.3521
1014.643, 914.2778
1015.125, 912.7420
1015.607, 912.1331
1016.089, 912.2210
1016.571, 911.4797
1017.053, 909.6462
1017.535, 907.5367
1018.018, 905.3331
1018.500, 903.4598
1018.982, 902.4308
1019.464, 902.2964
1019.946, 901.6105
1020.428, 900.1198
1020.910, 899.0915
1021.392, 899.3488
1021.874, 900.0912
1022.357, 899.7962
1022.839, 898.7420
1023.321, 897.5580
1023.803, 895.8218
1024.285, 894.9274
1024.767, 895.9410
1025.249, 897.2985
1025.731, 897.5045
1026.214, 896.5480
1026.696, 895.2702
1027.178, 893.6761
1027.660, 892.8683
1028.142, 894.4725
1028.624, 896.6293
1029.106, 897.8006
1029.588, 897.9792
1030.070, 897.9225
1030.553, 897.6716
1031.035, 897.1782
1031.517, 896.1105
1031.999, 895.3327
1032.481, 896.7489
1032.963, 899.6638
1033.445, 902.4451
1033.927, 904.8929
1034.410, 906.4759
1034.892, 905.5822
1035.374, 904.9030
1035.856, 906.5975
1036.338, 910.7540
1036.820, 913.0177
1037.302, 913.3273
1037.784, 913.2492
1038.266, 913.2729
1038.749, 913.7377
1039.231, 915.6393
1039.713, 918.2036
1040.195, 919.4790
1040.677, 918.2902
1041.159, 917.2786
1041.641, 916.7025
1042.123, 916.2677
1042.605, 915.8450
1043.088, 915.2438
1043.570, 913.6193
1044.052, 910.8869
1044.534, 908.7044
1045.016, 908.5255
1045.498, 908.5682
1045.980, 907.9095
1046.462, 906.7033
1046.945, 905.6418
1047.427, 904.7231
1047.909, 903.8134
1048.391, 902.6353
1048.873, 902.0267
1049.355, 903.1993
1049.837, 905.3693
1050.319, 907.4562
1050.802, 908.9450
1051.284, 911.2121
1051.766, 914.5394
1052.248, 917.9647
1052.730, 920.5751
1053.212, 922.7357
1053.694, 925.6586
1054.176, 929.2141
1054.658, 932.8099
1055.141, 935.7832
1055.623, 939.1769
1056.105, 943.8454
1056.587, 948.9017
1057.069, 952.8019
1057.551, 955.4819
1058.033, 959.2955
1058.515, 964.6432
1058.997, 970.2867
1059.480, 975.7911
1059.962, 980.6470
1060.444, 984.0949
1060.926, 986.0406
1061.408, 988.5927
1061.890, 992.2952
1062.372, 995.3101
1062.854, 996.8016
1063.337, 997.5575
1063.819, 998.5432
1064.301, 1000.010
1064.783, 1002.637
1065.265, 1007.229
1065.747, 1011.514
1066.229, 1013.857
1066.711, 1016.641
1067.193, 1021.440
1067.676, 1028.155
1068.158, 1035.982
1068.640, 1044.878
1069.122, 1053.710
1069.604, 1061.881
1070.086, 1069.770
1070.568, 1077.689
1071.050, 1085.687
1071.532, 1093.786
1072.015, 1102.202
1072.497, 1110.009
1072.979, 1116.977
1073.461, 1124.293
1073.943, 1133.361
1074.425, 1143.501
1074.907, 1153.811
1075.389, 1164.165
1075.872, 1175.479
1076.354, 1188.377
1076.836, 1201.618
1077.318, 1215.017
1077.800, 1228.211
1078.282, 1241.544
1078.764, 1254.423
1079.246, 1265.060
1079.729, 1273.348
1080.211, 1278.336
1080.693, 1279.443
1081.175, 1276.874
1081.657, 1271.427
1082.139, 1263.119
1082.621, 1249.548
1083.103, 1230.552
1083.585, 1209.658
1084.068, 1188.131
1084.550, 1166.151
1085.032, 1143.393
1085.514, 1120.589
1085.996, 1099.760
1086.478, 1081.844
1086.960, 1064.007
1087.442, 1045.886
1087.924, 1028.720
1088.406, 1013.546
1088.889, 1000.228
1089.371, 988.4748
1089.853, 978.1613
1090.335, 968.6270
1090.817, 959.2096
1091.299, 951.2096
1091.781, 944.9843
1092.263, 940.1854
1092.746, 936.8338
1093.228, 934.5099
1093.710, 931.0479
1094.192, 925.9374
1094.674, 921.0344
1095.156, 917.5487
1095.638, 914.6547
1096.120, 911.7739
1096.603, 908.9544
1097.085, 906.9005
1097.567, 905.6423
1098.049, 904.1066
1098.531, 901.7949
1099.013, 899.2528
1099.495, 896.3466
1099.977, 893.8687
1100.459, 893.0316
1100.942, 894.9865
1101.424, 895.5557
1101.906, 894.6000
1102.388, 892.7150
1102.870, 889.8743
1103.352, 886.5812
1103.834, 883.3234
1104.316, 880.3999
1104.798, 878.7371
1105.281, 880.2246
1105.763, 880.6788
1106.245, 878.9855
1106.727, 876.9613
1107.209, 877.0970
1107.691, 878.7006
1108.173, 878.6979
1108.655, 877.0065
1109.138, 875.1688
1109.620, 873.9248
1110.102, 872.8735
1110.584, 871.7999
1111.066, 870.7827
1111.548, 869.7402
1112.030, 868.6841
1112.512, 869.2596
1112.995, 872.0920
1113.477, 874.2932
1113.959, 872.5687
1114.441, 869.7074
1114.923, 867.9876
1115.405, 867.5233
1115.887, 867.3424
1116.369, 867.4944
1116.851, 867.6492
1117.333, 867.7567
1117.816, 867.6813
1118.298, 866.8248
1118.780, 865.8494
1119.262, 865.8136
1119.744, 867.4288
1120.226, 868.5175
1120.708, 868.9138
1121.190, 869.0353
1121.673, 869.1199
1122.155, 869.1161
1122.637, 868.6523
1123.119, 867.9940
1123.601, 867.8701
1124.083, 869.1966
1124.565, 870.1769
1125.047, 870.3030
1125.530, 870.3097
1126.012, 870.9724
1126.494, 872.1384
1126.976, 872.8338
1127.458, 873.1165
1127.940, 873.7401
1128.422, 875.2314
1128.904, 877.0588
1129.386, 879.2947
1129.869, 881.5359
1130.351, 882.5643
1130.833, 882.4391
1131.315, 885.9193
1131.797, 893.8714
1132.279, 899.8960
1132.761, 896.5747
1133.243, 891.5165
1133.725, 890.4431
1134.208, 892.7194
1134.690, 894.1291
1135.172, 894.6533
1135.654, 894.2994
1136.136, 892.8475
1136.618, 891.3675
1137.100, 891.6035
1137.582, 892.1136
1138.065, 890.9830
1138.547, 887.6354
1139.029, 886.1545
1139.511, 887.4578
1139.993, 887.5503
1140.475, 884.4030
1140.957, 879.9341
1141.439, 876.8242
1141.922, 874.6578
1142.404, 872.5798
1142.886, 869.9869
1143.368, 868.9113
1143.850, 870.4334
1144.332, 871.3546
1144.814, 869.2471
1145.296, 865.3519
1145.778, 862.6492
1146.260, 860.9027
1146.743, 859.3420
1147.225, 857.2578
1147.707, 856.0084
1148.189, 856.0756
1148.671, 856.5317
1149.153, 856.4943
1149.635, 856.1286
1150.117, 856.5281
1150.600, 857.5265
1151.082, 857.8109
1151.564, 856.3905
1152.046, 854.5018
1152.528, 852.0867
1153.010, 849.8658
1153.492, 849.0922
1153.974, 849.6004
1154.457, 849.3488
1154.939, 848.1740
1155.421, 847.0143
1155.903, 846.4484
1156.385, 846.1359
1156.867, 845.6721
1157.349, 845.3649
1157.831, 846.2316
1158.313, 848.2949
1158.796, 849.8304
1159.278, 850.5897
1159.760, 850.4684
1160.242, 848.2411
1160.724, 846.0242
1161.206, 845.7318
1161.688, 847.1788
1162.170, 848.8206
1162.652, 850.8173
1163.135, 851.1717
1163.617, 848.8291
1164.099, 846.3433
1164.581, 846.7357
1165.063, 848.1598
1165.545, 848.5419
1166.027, 847.5349
1166.509, 847.3244
1166.992, 848.1191
1167.474, 848.4305
1167.956, 847.2889
1168.438, 846.0226
1168.920, 847.0301
1169.402, 848.7281
1169.884, 848.6530
1170.366, 845.3701
1170.849, 843.6416
1171.331, 843.7733
1171.813, 844.4261
1172.295, 844.9505
1172.777, 845.4492
1173.259, 846.2191
1173.741, 847.0716
1174.223, 847.6069
1174.705, 847.5157
1175.188, 847.5243
1175.670, 847.8411
1176.152, 847.7324
1176.634, 845.8880
1177.116, 843.5978
1177.598, 843.9182
1178.080, 845.9795
1178.562, 847.1058
1179.044, 845.2009
1179.527, 844.2217
1180.009, 844.7666
1180.491, 845.6680
1180.973, 845.9987
1181.455, 845.7821
1181.937, 844.6344
1182.419, 842.8641
1182.901, 841.8994
1183.384, 843.2632
1183.866, 844.1499
1184.348, 844.0150
1184.830, 843.4542
1185.312, 843.0861
1185.794, 842.9139
1186.276, 843.0492
1186.758, 843.4525
1187.240, 843.6528
1187.723, 842.5301
1188.205, 842.5184
1188.687, 844.7236
1189.169, 847.5184
1189.651, 848.1411
1190.133, 847.1299
1190.615, 846.1146
1191.097, 845.2985
1191.579, 844.2250
1192.062, 840.8890
1192.544, 839.7758
1193.026, 843.5258
1193.508, 849.0754
1193.990, 849.0850
1194.472, 845.1113
1194.954, 842.8334
1195.436, 843.5217
1195.919, 843.6516
1196.401, 840.2887
1196.883, 837.6284
1197.365, 837.5712
1197.847, 839.2979
1198.329, 840.8516
1198.811, 842.1191
1199.293, 842.6141
1199.776, 842.1016
1200.258, 841.3527
1200.740, 840.0374
1201.222, 839.3172
1201.704, 839.7717
1202.186, 841.2472
1202.668, 844.0665
1203.150, 847.4935
1203.632, 848.2175
1204.115, 843.8865
1204.597, 840.5522
1205.079, 842.3447
1205.561, 844.6776
1206.043, 844.8198
1206.525, 843.2821
1207.007, 842.5807
1207.489, 842.5613
1207.971, 842.4595
1208.454, 841.7172
1208.936, 841.3732
1209.418, 842.5358
1209.900, 843.5981
1210.382, 843.3339
1210.864, 842.0011
1211.346, 841.4393
1211.828, 841.5131
1212.311, 841.5909
1212.793, 841.1665
1213.275, 841.0428
1213.757, 841.7987
1214.239, 842.7046
1214.721, 843.4163
1215.203, 843.8528
1215.685, 842.7489
1216.167, 840.5413
1216.650, 839.5187
1217.132, 842.0490
1217.614, 844.3784
1218.096, 846.0754
1218.578, 846.3424
1219.060, 843.3006
1219.542, 837.8271
1220.024, 836.4708
1220.506, 838.6371
1220.989, 840.3084
1221.471, 838.5983
1221.953, 837.3347
1222.435, 837.9340
1222.917, 839.0314
1223.399, 839.2614
1223.881, 838.7741
1224.363, 838.0441
1224.846, 837.2173
1225.328, 837.0553
1225.810, 838.4485
1226.292, 839.9264
1226.774, 841.4747
1227.256, 842.4873
1227.738, 841.6740
1228.220, 839.7497
1228.703, 839.4476
1229.185, 840.7103
1229.667, 842.0930
1230.149, 843.0677
1230.631, 843.8114
1231.113, 843.9132
1231.595, 844.4828
1232.077, 848.3651
1232.559, 853.5728
1233.042, 853.5861
1233.524, 848.6437
1234.006, 844.4248
1234.488, 843.7002
1234.970, 843.4749
1235.452, 843.3573
1235.934, 843.1776
1236.416, 842.7238
1236.898, 842.0426
1237.381, 840.8561
1237.863, 839.3290
1238.345, 839.0044
1238.827, 841.6997
1239.309, 843.7165
1239.791, 844.4381
1240.273, 844.3589
1240.755, 844.1471
1241.238, 843.6232
1241.720, 842.0768
1242.202, 839.6125
1242.684, 838.1605
1243.166, 838.4839
1243.648, 838.9471
1244.130, 839.2325
1244.612, 839.5697
1245.094, 840.5499
1245.577, 841.6212
1246.059, 841.8336
1246.541, 841.1637
1247.023, 840.5715
1247.505, 839.8218
1247.987, 840.1757
1248.469, 842.1517
1248.951, 844.3688
1249.433, 845.0584
1249.916, 844.9884
1250.398, 844.9783
1250.880, 845.1111
1251.362, 845.3010
1251.844, 845.6214
1252.326, 845.6159
1252.808, 845.0785
1253.290, 844.6732
1253.773, 845.4626
1254.255, 846.4842
1254.737, 846.9694
1255.219, 846.7758
1255.701, 845.3667
1256.183, 842.4520
1256.665, 841.0150
1257.147, 841.9172
1257.630, 843.4253
1258.112, 844.1967
1258.594, 844.6681
1259.076, 845.2516
1259.558, 845.8695
1260.040, 846.0101
1260.522, 845.6787
1261.004, 845.4484
1261.486, 845.4417
1261.969, 845.5555
1262.451, 845.8152
1262.933, 846.0574
1263.415, 846.0734
1263.897, 846.0104
1264.379, 846.6012
1264.861, 847.6810
1265.343, 847.9183
1265.825, 846.9313
1266.308, 845.8666
1266.790, 845.2627
1267.272, 844.9207
1267.754, 844.7560
1268.236, 844.7495
1268.718, 844.8522
1269.200, 845.0680
1269.682, 845.5553
1270.165, 846.4385
1270.647, 846.6583
1271.129, 844.7361
1271.611, 843.4534
1272.093, 844.0366
1272.575, 845.2910
1273.057, 844.5262
1273.539, 842.6390
1274.021, 841.7702
1274.504, 842.3800
1274.986, 842.4969
1275.468, 841.1620
1275.950, 840.5679
1276.432, 841.4525
1276.914, 843.2047
1277.396, 845.8214
1277.878, 848.2228
1278.360, 848.4304
1278.843, 846.0674
1279.325, 844.4712
1279.807, 843.8833
1280.289, 843.8743
1280.771, 844.3927
1281.253, 845.2399
1281.735, 846.6828
1282.217, 847.9883
1282.700, 848.1063
1283.182, 847.0837
1283.664, 846.7197
1284.146, 847.0124
1284.628, 848.1639
1285.110, 850.5487
1285.592, 852.1896
1286.074, 850.3873
1286.557, 847.9839
1287.039, 847.4370
1287.521, 848.1602
1288.003, 847.5275
1288.485, 845.7430
1288.967, 845.5815
1289.449, 847.8781
1289.931, 849.7998
1290.413, 849.0336
1290.896, 848.0859
1291.378, 848.3441
1291.860, 849.1917
1292.342, 849.1084
1292.824, 848.2715
1293.306, 846.9694
1293.788, 845.1720
1294.270, 844.4912
1294.752, 847.1384
1295.235, 848.8203
1295.717, 848.0068
1296.199, 846.3295
1296.681, 846.9160
1297.163, 848.5233
1297.645, 848.6413
1298.127, 846.9615
1298.609, 846.3099
1299.092, 847.4557
1299.574, 848.1779
1300.056, 847.9110
1300.538, 847.3420
1301.020, 847.5003
1301.502, 847.7310
1301.984, 847.0270
1302.466, 845.4943
1302.948, 845.0415
1303.431, 845.8587
1303.913, 846.5685
1304.395, 847.0602
1304.877, 846.8275
##END=



