##NAMES=Preobrazhenskite
##RRUFFID=R090040
##IDEAL CHEMISTRY=Mg_3_B_11_O_15_(OH)_9_
##LOCALITY=Inder B deposit and salt dome, Atyrau Oblast, Kazakhstan
##OWNER=RRUFF
##SOURCE=Herb Obodda
##DESCRIPTION=Colorless crystal fragment
##STATUS=The identification of this mineral has been confirmed by single-crystal X-ray diffraction.
##URL=rruff.info/R090040
92.06543, 12253.95
92.54755, 12082.44
93.02966, 12099.73
93.51178, 12322.79
93.99390, 12495.87
94.47601, 12613.21
94.95813, 12685.70
95.44025, 12725.65
95.92236, 12741.85
96.40448, 12729.29
96.88660, 12701.99
97.36871, 12664.34
97.85082, 12623.25
98.33294, 12584.67
98.81506, 12542.44
99.29717, 12471.65
99.77929, 12400.22
100.2614, 12332.29
100.7435, 12264.04
101.2256, 12185.14
101.7078, 12102.00
102.1899, 12032.26
102.6720, 11978.59
103.1541, 11939.46
103.6362, 11909.46
104.1183, 11887.84
104.6005, 11872.44
105.0826, 11861.75
105.5647, 11855.22
106.0468, 11852.72
106.5289, 11858.51
107.0110, 11861.31
107.4931, 11853.32
107.9753, 11832.24
108.4574, 11802.75
108.9395, 11773.20
109.4216, 11737.96
109.9037, 11711.37
110.3858, 11694.18
110.8680, 11684.89
111.3501, 11683.10
111.8322, 11688.80
112.3143, 11700.60
112.7964, 11710.39
113.2785, 11723.30
113.7607, 11729.13
114.2428, 11724.14
114.7249, 11709.55
115.2070, 11687.76
115.6891, 11658.48
116.1712, 11622.33
116.6534, 11596.47
117.1355, 11588.00
117.6176, 11584.05
118.0997, 11573.37
118.5818, 11554.56
119.0639, 11537.26
119.5461, 11532.42
120.0282, 11536.70
120.5103, 11541.62
120.9924, 11546.14
121.4745, 11549.48
121.9566, 11549.00
122.4388, 11541.33
122.9209, 11534.64
123.4030, 11534.11
123.8851, 11538.84
124.3672, 11545.89
124.8493, 11555.64
125.3315, 11568.81
125.8136, 11573.72
126.2957, 11560.29
126.7778, 11544.71
127.2599, 11532.20
127.7420, 11523.93
128.2242, 11518.83
128.7063, 11515.88
129.1884, 11516.20
129.6705, 11516.37
130.1526, 11515.49
130.6347, 11514.92
131.1169, 11515.12
131.5990, 11516.37
132.0811, 11519.41
132.5632, 11526.00
133.0453, 11540.98
133.5274, 11553.89
134.0096, 11561.19
134.4917, 11566.79
134.9738, 11576.81
135.4559, 11594.69
135.9380, 11617.80
136.4201, 11636.52
136.9023, 11647.07
137.3844, 11659.44
137.8665, 11679.24
138.3486, 11705.13
138.8307, 11730.97
139.3128, 11753.09
139.7950, 11772.87
140.2771, 11793.86
140.7592, 11819.56
141.2413, 11843.28
141.7234, 11859.28
142.2055, 11867.69
142.6877, 11867.11
143.1698, 11856.88
143.6519, 11837.26
144.1340, 11805.68
144.6161, 11757.72
145.0982, 11698.95
145.5803, 11643.40
146.0625, 11591.15
146.5446, 11542.58
147.0267, 11495.83
147.5088, 11452.17
147.9909, 11413.55
148.4730, 11381.56
148.9552, 11355.95
149.4373, 11332.62
149.9194, 11310.43
150.4015, 11291.70
150.8836, 11277.21
151.3657, 11266.84
151.8479, 11260.24
152.3300, 11257.66
152.8121, 11260.15
153.2942, 11259.79
153.7763, 11253.64
154.2584, 11247.75
154.7406, 11245.50
155.2227, 11246.89
155.7048, 11249.28
156.1869, 11249.42
156.6690, 11245.77
157.1511, 11246.50
157.6333, 11254.12
158.1154, 11264.56
158.5975, 11275.70
159.0796, 11287.25
159.5617, 11296.08
160.0438, 11295.61
160.5260, 11285.14
161.0081, 11279.21
161.4902, 11285.86
161.9723, 11298.61
162.4544, 11306.25
162.9365, 11306.79
163.4187, 11300.16
163.9008, 11285.23
164.3829, 11262.58
164.8650, 11238.84
165.3471, 11215.61
165.8292, 11193.53
166.3113, 11177.13
166.7935, 11168.91
167.2756, 11166.03
167.7577, 11167.88
168.2398, 11174.06
168.7219, 11179.22
169.2040, 11177.01
169.6862, 11165.96
170.1683, 11157.18
170.6504, 11156.95
171.1325, 11156.37
171.6146, 11149.91
172.0967, 11136.67
172.5789, 11120.38
173.0610, 11106.15
173.5431, 11094.09
174.0252, 11084.08
174.5073, 11075.55
174.9894, 11068.84
175.4716, 11064.29
175.9537, 11062.01
176.4358, 11061.72
176.9179, 11063.19
177.4000, 11071.94
177.8821, 11074.49
178.3643, 11066.18
178.8464, 11053.83
179.3285, 11044.32
179.8106, 11040.47
180.2927, 11040.35
180.7748, 11038.77
181.2570, 11036.08
181.7391, 11031.64
182.2212, 11023.32
182.7033, 11013.53
183.1854, 11005.82
183.6675, 11001.73
184.1497, 11000.86
184.6318, 11002.37
185.1139, 11006.95
185.5960, 11012.03
186.0781, 11018.64
186.5602, 11025.35
187.0423, 11027.36
187.5245, 11020.41
188.0066, 11008.98
188.4887, 11003.65
188.9708, 11005.47
189.4529, 11010.93
189.9350, 11021.06
190.4172, 11034.93
190.8993, 11043.15
191.3814, 11037.82
191.8635, 11025.96
192.3456, 11017.51
192.8277, 11013.37
193.3099, 11012.93
193.7920, 11017.48
194.2741, 11028.07
194.7562, 11035.92
195.2383, 11035.55
195.7204, 11031.42
196.2026, 11026.36
196.6847, 11020.67
197.1668, 11015.65
197.6489, 11013.48
198.1310, 11015.11
198.6131, 11017.21
199.0953, 11019.57
199.5774, 11021.68
200.0595, 11022.96
200.5416, 11023.15
201.0237, 11022.74
201.5058, 11023.62
201.9880, 11030.22
202.4701, 11029.41
202.9522, 11014.47
203.4343, 10994.09
203.9164, 10976.70
204.3985, 10966.10
204.8807, 10960.46
205.3628, 10954.36
205.8449, 10945.22
206.3270, 10939.21
206.8091, 10939.47
207.2912, 10942.18
207.7733, 10942.66
208.2555, 10938.47
208.7376, 10931.39
209.2197, 10927.99
209.7018, 10933.45
210.1839, 10937.01
210.6660, 10936.65
211.1482, 10933.97
211.6303, 10931.33
212.1124, 10929.96
212.5945, 10929.32
213.0766, 10926.85
213.5587, 10918.34
214.0409, 10913.02
214.5230, 10914.25
215.0051, 10919.73
215.4872, 10925.73
215.9693, 10930.64
216.4514, 10934.28
216.9336, 10935.66
217.4157, 10931.95
217.8978, 10930.08
218.3799, 10934.22
218.8620, 10942.12
219.3441, 10947.48
219.8263, 10946.14
220.3084, 10941.72
220.7905, 10944.36
221.2726, 10958.45
221.7547, 10971.24
222.2368, 10973.78
222.7190, 10968.82
223.2011, 10968.06
223.6832, 10978.21
224.1653, 10994.16
224.6474, 11005.32
225.1295, 11010.03
225.6117, 11014.01
226.0938, 11021.38
226.5759, 11031.69
227.0580, 11041.20
227.5401, 11048.43
228.0222, 11054.08
228.5043, 11058.15
228.9865, 11059.52
229.4686, 11063.74
229.9507, 11077.91
230.4328, 11101.91
230.9149, 11122.34
231.3970, 11133.87
231.8792, 11140.65
232.3613, 11145.86
232.8434, 11149.73
233.3255, 11153.05
233.8076, 11157.65
234.2897, 11164.04
234.7719, 11166.30
235.2540, 11163.06
235.7361, 11154.78
236.2182, 11141.49
236.7003, 11123.15
237.1824, 11099.96
237.6646, 11070.12
238.1467, 11031.58
238.6288, 10996.91
239.1109, 10969.41
239.5930, 10945.07
240.0751, 10921.21
240.5573, 10897.78
241.0394, 10877.29
241.5215, 10863.63
242.0036, 10858.54
242.4857, 10852.77
242.9678, 10844.98
243.4500, 10837.01
243.9321, 10829.06
244.4142, 10821.56
244.8963, 10815.57
245.3784, 10812.87
245.8605, 10814.87
246.3427, 10815.12
246.8248, 10814.37
247.3069, 10811.60
247.7890, 10805.74
248.2711, 10797.13
248.7532, 10787.26
249.2354, 10777.61
249.7175, 10768.49
250.1996, 10758.64
250.6817, 10744.94
251.1638, 10733.42
251.6459, 10727.67
252.1281, 10727.17
252.6102, 10728.78
253.0923, 10729.63
253.5744, 10729.67
254.0565, 10728.81
254.5386, 10728.27
255.0208, 10725.79
255.5029, 10717.50
255.9850, 10705.48
256.4671, 10696.62
256.9492, 10697.58
257.4313, 10709.69
257.9135, 10715.65
258.3956, 10712.46
258.8777, 10707.56
259.3598, 10703.40
259.8419, 10700.19
260.3240, 10697.73
260.8062, 10696.27
261.2883, 10695.78
261.7704, 10691.32
262.2525, 10677.46
262.7346, 10666.08
263.2167, 10664.98
263.6989, 10670.77
264.1810, 10673.96
264.6631, 10668.18
265.1452, 10654.53
265.6273, 10642.62
266.1094, 10629.46
266.5916, 10620.77
267.0737, 10620.47
267.5558, 10626.39
268.0379, 10633.61
268.5200, 10639.69
269.0021, 10644.87
269.4843, 10650.17
269.9664, 10656.99
270.4485, 10662.22
270.9306, 10664.47
271.4127, 10664.38
271.8948, 10663.32
272.3770, 10661.96
272.8591, 10659.80
273.3412, 10654.89
273.8233, 10644.90
274.3054, 10637.28
274.7875, 10635.62
275.2697, 10637.71
275.7518, 10639.56
276.2339, 10639.75
276.7160, 10639.14
277.1981, 10639.96
277.6802, 10643.33
278.1623, 10643.63
278.6444, 10636.75
279.1266, 10626.33
279.6087, 10618.67
280.0908, 10615.64
280.5729, 10614.76
281.0550, 10612.56
281.5371, 10608.95
282.0193, 10606.86
282.5014, 10609.36
282.9835, 10613.09
283.4656, 10612.49
283.9477, 10606.05
284.4298, 10598.54
284.9120, 10595.51
285.3941, 10596.27
285.8762, 10596.13
286.3583, 10591.95
286.8404, 10587.31
287.3225, 10586.80
287.8047, 10591.01
288.2868, 10597.34
288.7689, 10604.79
289.2510, 10612.81
289.7331, 10619.58
290.2152, 10623.31
290.6974, 10626.54
291.1795, 10633.34
291.6616, 10643.99
292.1437, 10651.42
292.6258, 10649.77
293.1079, 10641.90
293.5901, 10635.01
294.0722, 10630.25
294.5543, 10626.18
295.0364, 10622.71
295.5185, 10619.64
296.0006, 10613.44
296.4828, 10600.43
296.9649, 10584.39
297.4470, 10571.71
297.9291, 10562.53
298.4112, 10556.81
298.8933, 10558.61
299.3755, 10565.79
299.8576, 10564.46
300.3397, 10546.08
300.8218, 10521.02
301.3039, 10502.83
301.7860, 10491.77
302.2682, 10485.27
302.7503, 10486.06
303.2324, 10491.00
303.7145, 10487.91
304.1966, 10470.51
304.6787, 10450.55
305.1609, 10441.59
305.6430, 10442.29
306.1251, 10441.81
306.6072, 10433.17
307.0893, 10420.35
307.5714, 10412.64
308.0536, 10412.49
308.5357, 10413.46
309.0178, 10408.54
309.4999, 10400.08
309.9820, 10394.75
310.4641, 10397.46
310.9463, 10403.44
311.4284, 10405.40
311.9105, 10402.59
312.3926, 10399.01
312.8747, 10395.45
313.3568, 10393.25
313.8390, 10395.46
314.3211, 10405.65
314.8032, 10417.33
315.2853, 10424.10
315.7674, 10425.91
316.2495, 10424.94
316.7317, 10420.08
317.2138, 10414.05
317.6959, 10411.22
318.1780, 10412.84
318.6601, 10415.07
319.1422, 10415.00
319.6243, 10412.88
320.1064, 10410.55
320.5886, 10407.81
321.0707, 10405.94
321.5528, 10406.40
322.0349, 10409.22
322.5170, 10413.00
322.9991, 10417.95
323.4813, 10423.33
323.9634, 10426.25
324.4455, 10424.52
324.9276, 10423.97
325.4097, 10431.04
325.8918, 10444.53
326.3740, 10459.69
326.8561, 10475.47
327.3382, 10491.81
327.8203, 10508.63
328.3024, 10525.99
328.7845, 10544.06
329.2667, 10564.03
329.7488, 10584.84
330.2309, 10603.78
330.7130, 10615.97
331.1951, 10629.10
331.6772, 10652.75
332.1594, 10686.73
332.6415, 10719.80
333.1236, 10746.13
333.6057, 10767.55
334.0878, 10790.36
334.5699, 10820.45
335.0521, 10841.12
335.5342, 10840.64
336.0163, 10821.25
336.4984, 10792.63
336.9805, 10758.33
337.4626, 10715.48
337.9448, 10657.53
338.4269, 10581.66
338.9090, 10510.22
339.3911, 10451.82
339.8732, 10403.73
340.3553, 10361.89
340.8375, 10325.83
341.3196, 10294.69
341.8017, 10267.68
342.2838, 10244.63
342.7659, 10227.54
343.2480, 10222.15
343.7302, 10219.89
344.2123, 10210.54
344.6944, 10193.47
345.1765, 10176.91
345.6586, 10167.64
346.1407, 10164.38
346.6229, 10157.34
347.1050, 10142.18
347.5871, 10127.10
348.0692, 10116.99
348.5513, 10111.22
349.0334, 10107.45
349.5156, 10105.61
349.9977, 10103.97
350.4798, 10097.48
350.9619, 10083.47
351.4440, 10070.96
351.9261, 10064.19
352.4083, 10060.55
352.8904, 10055.34
353.3725, 10047.00
353.8546, 10038.08
354.3367, 10032.33
354.8188, 10030.49
355.3010, 10028.94
355.7831, 10027.27
356.2652, 10025.83
356.7473, 10026.09
357.2294, 10027.80
357.7115, 10027.22
358.1937, 10020.38
358.6758, 10006.91
359.1579, 9996.518
359.6400, 9987.656
360.1221, 9982.902
360.6042, 9988.405
361.0863, 9999.521
361.5685, 10003.41
362.0506, 9991.861
362.5327, 9969.515
363.0148, 9955.572
363.4969, 9955.767
363.9790, 9956.611
364.4612, 9958.221
364.9433, 9958.779
365.4254, 9954.814
365.9075, 9945.396
366.3896, 9934.915
366.8717, 9930.651
367.3539, 9936.795
367.8360, 9939.959
368.3181, 9935.850
368.8002, 9932.262
369.2823, 9934.966
369.7644, 9943.826
370.2466, 9954.641
370.7287, 9963.547
371.2108, 9970.286
371.6929, 9979.294
372.1750, 10001.63
372.6571, 10014.26
373.1393, 10004.42
373.6214, 9980.943
374.1035, 9958.596
374.5856, 9945.442
375.0677, 9939.562
375.5498, 9934.603
376.0320, 9928.312
376.5141, 9926.760
376.9962, 9935.909
377.4783, 9946.412
377.9604, 9948.924
378.4425, 9941.684
378.9247, 9931.457
379.4068, 9927.317
379.8889, 9930.636
380.3710, 9935.411
380.8531, 9943.590
381.3352, 9951.509
381.8174, 9957.579
382.2995, 9961.980
382.7816, 9965.582
383.2637, 9968.582
383.7458, 9971.323
384.2279, 9976.311
384.7101, 9985.059
385.1922, 9993.859
385.6743, 10003.44
386.1564, 10011.78
386.6385, 10016.04
387.1206, 10014.74
387.6028, 10010.85
388.0849, 10009.25
388.5670, 10010.57
389.0491, 10011.18
389.5312, 10011.60
390.0133, 10009.89
390.4955, 10003.56
390.9776, 9992.799
391.4597, 9981.904
391.9418, 9976.919
392.4239, 9975.731
392.9060, 9964.975
393.3882, 9939.309
393.8703, 9911.701
394.3524, 9888.632
394.8345, 9869.933
395.3166, 9855.927
395.7987, 9848.704
396.2809, 9844.747
396.7630, 9840.385
397.2451, 9835.740
397.7272, 9828.226
398.2093, 9815.767
398.6914, 9800.032
399.1736, 9783.359
399.6557, 9764.707
400.1378, 9748.358
400.6199, 9737.298
401.1020, 9730.456
401.5841, 9725.559
402.0662, 9722.724
402.5483, 9719.754
403.0305, 9713.381
403.5126, 9703.844
403.9947, 9695.541
404.4768, 9687.982
404.9589, 9682.786
405.4410, 9682.527
405.9232, 9686.856
406.4053, 9692.182
406.8874, 9696.960
407.3695, 9700.551
407.8516, 9700.101
408.3337, 9693.591
408.8159, 9686.038
409.2980, 9677.066
409.7801, 9668.506
410.2622, 9664.103
410.7443, 9665.210
411.2264, 9668.355
411.7086, 9668.126
412.1907, 9663.919
412.6728, 9657.096
413.1549, 9645.488
413.6370, 9633.060
414.1191, 9622.312
414.6013, 9613.313
415.0834, 9604.605
415.5655, 9594.687
416.0476, 9583.839
416.5297, 9577.896
417.0118, 9585.894
417.4940, 9588.475
417.9761, 9579.511
418.4582, 9564.360
418.9403, 9548.512
419.4224, 9534.200
419.9045, 9523.017
420.3867, 9518.631
420.8688, 9524.956
421.3509, 9527.788
421.8330, 9524.435
422.3151, 9519.529
422.7972, 9515.077
423.2794, 9511.293
423.7615, 9507.669
424.2436, 9503.859
424.7257, 9499.876
425.2078, 9495.830
425.6899, 9492.009
426.1721, 9487.550
426.6542, 9480.779
427.1363, 9473.756
427.6184, 9469.069
428.1005, 9467.682
428.5826, 9467.949
429.0648, 9468.877
429.5469, 9470.514
430.0290, 9469.166
430.5111, 9462.253
430.9932, 9453.994
431.4753, 9448.493
431.9575, 9445.401
432.4396, 9441.724
432.9217, 9434.693
433.4038, 9426.691
433.8859, 9421.732
434.3680, 9420.153
434.8502, 9420.578
435.3323, 9423.083
435.8144, 9426.853
436.2965, 9429.536
436.7786, 9430.655
437.2607, 9431.276
437.7429, 9433.128
438.2250, 9434.833
438.7071, 9431.886
439.1892, 9422.079
439.6713, 9411.734
440.1534, 9410.766
440.6356, 9422.288
441.1177, 9428.948
441.5998, 9424.129
442.0819, 9418.685
442.5640, 9422.135
443.0461, 9432.880
443.5282, 9441.656
444.0103, 9441.639
444.4925, 9435.152
444.9746, 9435.224
445.4567, 9446.278
445.9388, 9458.622
446.4209, 9474.860
446.9030, 9489.998
447.3852, 9497.879
447.8673, 9497.444
448.3494, 9494.661
448.8315, 9498.736
449.3136, 9513.639
449.7957, 9515.099
450.2779, 9491.079
450.7600, 9465.030
451.2421, 9442.968
451.7242, 9424.886
452.2063, 9409.940
452.6884, 9398.422
453.1706, 9388.041
453.6527, 9372.483
454.1348, 9348.950
454.6169, 9329.405
455.0990, 9317.679
455.5811, 9310.701
456.0633, 9309.249
456.5454, 9312.652
457.0275, 9313.479
457.5096, 9303.949
457.9917, 9287.256
458.4738, 9274.128
458.9560, 9264.869
459.4381, 9260.232
459.9202, 9265.015
460.4023, 9274.212
460.8844, 9278.130
461.3665, 9272.176
461.8487, 9264.706
462.3308, 9263.051
462.8129, 9265.234
463.2950, 9263.505
463.7771, 9254.121
464.2592, 9243.220
464.7414, 9241.075
465.2235, 9249.624
465.7056, 9252.254
466.1877, 9241.906
466.6698, 9228.911
467.1519, 9220.984
467.6341, 9218.159
468.1162, 9217.824
468.5983, 9218.783
469.0804, 9220.299
469.5625, 9218.766
470.0446, 9211.548
470.5268, 9204.719
471.0089, 9199.919
471.4910, 9195.092
471.9731, 9187.144
472.4552, 9176.159
472.9373, 9166.408
473.4195, 9163.514
473.9016, 9168.373
474.3837, 9167.522
474.8658, 9156.028
475.3479, 9143.739
475.8300, 9132.213
476.3122, 9121.879
476.7943, 9113.229
477.2764, 9106.610
477.7585, 9100.764
478.2406, 9093.579
478.7227, 9084.881
479.2049, 9076.590
479.6870, 9069.384
480.1691, 9062.373
480.6512, 9054.474
481.1333, 9046.109
481.6154, 9039.078
482.0976, 9033.943
482.5797, 9030.872
483.0618, 9031.552
483.5439, 9036.191
484.0260, 9038.210
484.5081, 9033.656
484.9902, 9024.909
485.4724, 9016.943
485.9545, 9009.311
486.4366, 9003.584
486.9187, 9002.335
487.4008, 9002.341
487.8829, 8998.441
488.3651, 8990.078
488.8472, 8981.927
489.3293, 8978.269
489.8114, 8979.021
490.2935, 8978.953
490.7756, 8977.175
491.2578, 8975.749
491.7399, 8976.637
492.2220, 8977.718
492.7041, 8975.996
493.1862, 8970.538
493.6683, 8962.987
494.1505, 8955.385
494.6326, 8947.316
495.1147, 8941.025
495.5968, 8935.042
496.0789, 8932.471
496.5610, 8938.412
497.0432, 8948.158
497.5253, 8952.834
498.0074, 8947.429
498.4895, 8935.984
498.9716, 8924.989
499.4537, 8914.072
499.9359, 8906.134
500.4180, 8905.544
500.9001, 8904.686
501.3822, 8894.554
501.8643, 8876.456
502.3464, 8863.950
502.8286, 8868.419
503.3107, 8879.974
503.7928, 8882.951
504.2749, 8876.854
504.7570, 8870.652
505.2391, 8869.327
505.7213, 8870.899
506.2034, 8869.965
506.6855, 8865.168
507.1676, 8861.366
507.6497, 8861.790
508.1318, 8862.815
508.6140, 8860.284
509.0961, 8853.707
509.5782, 8844.839
510.0603, 8834.647
510.5424, 8823.368
511.0245, 8816.380
511.5067, 8817.953
511.9888, 8818.690
512.4709, 8819.105
512.9530, 8816.900
513.4351, 8808.422
513.9172, 8793.282
514.3994, 8776.394
514.8815, 8763.177
515.3636, 8753.683
515.8457, 8747.109
516.3278, 8745.533
516.8099, 8744.274
517.2921, 8741.979
517.7742, 8738.616
518.2563, 8734.279
518.7384, 8729.105
519.2205, 8722.479
519.7026, 8712.429
520.1848, 8699.604
520.6669, 8689.232
521.1490, 8682.487
521.6311, 8678.153
522.1132, 8676.619
522.5953, 8677.104
523.0775, 8675.067
523.5596, 8668.650
524.0417, 8660.404
524.5238, 8650.632
525.0059, 8640.431
525.4880, 8632.221
525.9702, 8626.911
526.4523, 8625.051
526.9344, 8628.671
527.4165, 8644.288
527.8986, 8647.471
528.3807, 8627.296
528.8629, 8606.012
529.3450, 8597.261
529.8271, 8597.413
530.3092, 8595.254
530.7913, 8584.157
531.2734, 8568.789
531.7556, 8561.030
532.2377, 8563.963
532.7198, 8565.858
533.2019, 8563.615
533.6840, 8561.083
534.1661, 8561.205
534.6483, 8563.194
535.1304, 8563.347
535.6125, 8558.572
536.0946, 8551.237
536.5767, 8545.367
537.0588, 8540.968
537.5410, 8537.476
538.0231, 8534.729
538.5052, 8532.771
538.9873, 8532.417
539.4694, 8534.271
539.9515, 8533.336
540.4337, 8524.309
540.9158, 8514.494
541.3979, 8512.827
541.8800, 8518.229
542.3621, 8522.195
542.8442, 8519.515
543.3264, 8511.651
543.8085, 8503.465
544.2906, 8491.774
544.7726, 8484.542
545.2548, 8484.819
545.7369, 8487.262
546.2190, 8488.709
546.7011, 8488.608
547.1832, 8487.139
547.6653, 8484.012
548.1475, 8480.009
548.6296, 8478.713
549.1117, 8481.589
549.5938, 8483.278
550.0759, 8479.080
550.5580, 8475.179
551.0402, 8478.236
551.5223, 8488.143
552.0044, 8495.012
552.4865, 8490.122
552.9686, 8479.572
553.4507, 8474.639
553.9329, 8475.806
554.4150, 8476.881
554.8971, 8474.425
555.3792, 8469.895
555.8613, 8467.063
556.3434, 8466.349
556.8256, 8465.844
557.3077, 8465.356
557.7898, 8464.784
558.2719, 8464.665
558.7540, 8464.561
559.2361, 8462.944
559.7183, 8458.793
560.2004, 8452.211
560.6825, 8443.045
561.1646, 8427.556
561.6467, 8416.156
562.1288, 8413.021
562.6110, 8411.268
563.0931, 8405.981
563.5752, 8397.183
564.0573, 8387.990
564.5394, 8381.287
565.0215, 8375.388
565.5037, 8364.504
565.9858, 8347.240
566.4679, 8334.186
566.9500, 8331.303
567.4321, 8332.984
567.9142, 8331.182
568.3964, 8325.537
568.8785, 8321.480
569.3606, 8322.429
569.8427, 8324.693
570.3248, 8324.216
570.8069, 8321.296
571.2891, 8318.759
571.7712, 8318.251
572.2533, 8318.721
572.7354, 8317.589
573.2175, 8313.891
573.6996, 8310.102
574.1818, 8304.457
574.6639, 8300.226
575.1460, 8300.479
575.6281, 8303.854
576.1102, 8306.729
576.5923, 8307.029
577.0745, 8305.431
577.5566, 8303.321
578.0387, 8300.734
578.5208, 8297.512
579.0029, 8293.024
579.4850, 8288.581
579.9672, 8285.697
580.4493, 8283.865
580.9314, 8280.866
581.4135, 8276.144
581.8956, 8269.712
582.3777, 8260.920
582.8599, 8250.303
583.3420, 8239.557
583.8241, 8229.134
584.3062, 8219.323
584.7883, 8210.198
585.2704, 8201.296
585.7526, 8196.021
586.2347, 8200.107
586.7168, 8201.458
587.1989, 8191.441
587.6810, 8176.264
588.1631, 8166.674
588.6453, 8166.448
589.1274, 8169.287
589.6095, 8165.602
590.0916, 8154.344
590.5737, 8146.373
591.0558, 8143.962
591.5380, 8141.679
592.0201, 8138.083
592.5022, 8132.687
592.9843, 8124.000
593.4664, 8110.670
593.9485, 8097.969
594.4307, 8089.789
594.9128, 8085.400
595.3949, 8084.006
595.8770, 8085.666
596.3591, 8086.889
596.8412, 8085.103
597.3234, 8080.570
597.8055, 8074.992
598.2876, 8066.326
598.7697, 8059.517
599.2518, 8057.421
599.7339, 8056.190
600.2161, 8051.548
600.6982, 8043.570
601.1803, 8035.604
601.6624, 8029.830
602.1445, 8026.573
602.6266, 8028.725
603.1088, 8039.945
603.5909, 8046.761
604.0730, 8041.350
604.5551, 8033.222
605.0372, 8029.683
605.5193, 8030.506
606.0015, 8030.212
606.4836, 8025.967
606.9657, 8019.318
607.4478, 8011.106
607.9299, 8001.872
608.4120, 7995.046
608.8942, 7992.668
609.3763, 7991.220
609.8584, 7984.885
610.3405, 7971.588
610.8226, 7961.401
611.3047, 7958.095
611.7869, 7954.029
612.2690, 7943.894
612.7511, 7931.202
613.2332, 7921.826
613.7153, 7917.996
614.1974, 7917.544
614.6796, 7918.100
615.1617, 7919.761
615.6438, 7920.619
616.1259, 7920.890
616.6080, 7919.821
617.0901, 7916.873
617.5723, 7912.354
618.0544, 7905.783
618.5365, 7895.722
619.0186, 7888.437
619.5007, 7890.519
619.9828, 7896.416
620.4650, 7896.954
620.9471, 7891.329
621.4292, 7883.927
621.9113, 7877.093
622.3934, 7871.479
622.8755, 7869.837
623.3577, 7877.349
623.8398, 7881.456
624.3219, 7882.125
624.8040, 7879.398
625.2861, 7870.542
625.7682, 7858.237
626.2504, 7849.313
626.7325, 7848.198
627.2145, 7851.481
627.6967, 7854.259
628.1788, 7856.726
628.6609, 7853.686
629.1430, 7840.834
629.6251, 7827.434
630.1072, 7823.630
630.5894, 7826.634
631.0715, 7826.394
631.5536, 7819.769
632.0357, 7811.321
632.5178, 7800.594
632.9999, 7790.448
633.4821, 7786.587
633.9642, 7789.722
634.4463, 7794.237
634.9284, 7795.018
635.4105, 7792.184
635.8926, 7787.157
636.3748, 7777.023
636.8569, 7769.497
637.3390, 7768.047
637.8211, 7767.890
638.3032, 7764.789
638.7853, 7758.815
639.2675, 7753.444
639.7496, 7751.041
640.2317, 7750.459
640.7138, 7750.570
641.1959, 7751.204
641.6780, 7749.989
642.1602, 7745.856
642.6423, 7740.144
643.1244, 7734.022
643.6065, 7727.125
644.0886, 7722.968
644.5707, 7725.829
645.0529, 7726.673
645.5350, 7718.169
646.0171, 7706.792
646.4992, 7702.803
646.9813, 7708.448
647.4634, 7716.077
647.9456, 7717.419
648.4277, 7712.931
648.9098, 7707.642
649.3919, 7700.335
649.8740, 7695.421
650.3561, 7696.008
650.8383, 7699.031
651.3204, 7701.705
651.8025, 7703.937
652.2846, 7704.376
652.7667, 7702.833
653.2488, 7698.998
653.7310, 7690.823
654.2131, 7679.917
654.6952, 7671.298
655.1773, 7667.086
655.6594, 7665.935
656.1415, 7666.139
656.6237, 7668.549
657.1058, 7668.460
657.5879, 7662.793
658.0700, 7658.008
658.5521, 7656.192
659.0342, 7656.070
659.5164, 7656.118
659.9985, 7655.954
660.4806, 7655.808
660.9627, 7656.358
661.4448, 7656.932
661.9269, 7655.952
662.4091, 7653.318
662.8912, 7649.673
663.3733, 7645.334
663.8554, 7640.061
664.3375, 7633.022
664.8196, 7622.532
665.3018, 7615.329
665.7839, 7612.906
666.2660, 7612.444
666.7481, 7614.501
667.2302, 7616.931
667.7123, 7615.811
668.1945, 7609.799
668.6766, 7602.673
669.1587, 7600.670
669.6408, 7603.121
670.1229, 7598.443
670.6050, 7584.013
671.0872, 7569.414
671.5693, 7559.158
672.0514, 7551.848
672.5335, 7544.903
673.0156, 7538.049
673.4977, 7532.613
673.9799, 7530.032
674.4620, 7528.144
674.9441, 7525.849
675.4262, 7522.618
675.9083, 7517.767
676.3904, 7510.962
676.8726, 7501.874
677.3547, 7488.511
677.8368, 7469.039
678.3189, 7457.973
678.8010, 7460.595
679.2831, 7464.135
679.7653, 7464.958
680.2474, 7463.260
680.7295, 7458.542
681.2116, 7450.504
681.6937, 7442.772
682.1758, 7437.273
682.6580, 7433.284
683.1401, 7430.515
683.6222, 7428.545
684.1043, 7425.104
684.5864, 7418.849
685.0685, 7412.435
685.5507, 7410.994
686.0328, 7416.883
686.5149, 7418.167
686.9970, 7409.861
687.4791, 7402.399
687.9612, 7398.207
688.4434, 7396.794
688.9255, 7398.583
689.4076, 7403.491
689.8897, 7406.721
690.3718, 7404.494
690.8539, 7398.075
691.3361, 7388.297
691.8182, 7375.545
692.3003, 7366.123
692.7824, 7363.270
693.2645, 7363.620
693.7466, 7361.749
694.2288, 7356.834
694.7109, 7353.268
695.1930, 7352.711
695.6751, 7351.555
696.1572, 7349.039
696.6393, 7344.945
697.1215, 7338.521
697.6036, 7329.853
698.0857, 7321.094
698.5678, 7313.359
699.0499, 7307.081
699.5320, 7303.866
700.0142, 7303.813
700.4963, 7304.866
700.9784, 7307.317
701.4605, 7308.681
701.9426, 7305.279
702.4247, 7296.477
702.9069, 7287.336
703.3890, 7276.204
703.8711, 7266.787
704.3532, 7261.195
704.8353, 7257.842
705.3174, 7254.901
705.7996, 7251.959
706.2817, 7249.365
706.7638, 7247.549
707.2459, 7246.317
707.7280, 7244.760
708.2101, 7242.739
708.6923, 7242.417
709.1743, 7246.582
709.6564, 7249.288
710.1385, 7241.353
710.6207, 7224.037
711.1028, 7213.903
711.5849, 7216.136
712.0670, 7220.705
712.5491, 7227.421
713.0313, 7232.303
713.5134, 7227.995
713.9955, 7215.799
714.4776, 7207.027
714.9597, 7211.197
715.4418, 7222.739
715.9240, 7225.727
716.4061, 7218.855
716.8882, 7215.208
717.3703, 7219.812
717.8524, 7224.153
718.3345, 7219.866
718.8167, 7209.447
719.2988, 7201.385
719.7809, 7198.592
720.2630, 7194.974
720.7451, 7185.796
721.2272, 7176.751
721.7094, 7175.932
722.1915, 7181.343
722.6736, 7182.690
723.1557, 7173.389
723.6378, 7159.432
724.1199, 7153.043
724.6021, 7154.714
725.0842, 7157.263
725.5663, 7160.641
726.0484, 7163.541
726.5305, 7164.932
727.0126, 7165.277
727.4948, 7165.981
727.9769, 7168.366
728.4590, 7167.107
728.9411, 7155.603
729.4232, 7143.974
729.9053, 7140.760
730.3875, 7144.697
730.8696, 7151.719
731.3517, 7160.028
731.8338, 7168.265
732.3159, 7174.778
732.7980, 7179.576
733.2802, 7182.883
733.7623, 7185.406
734.2444, 7184.249
734.7265, 7174.460
735.2086, 7163.064
735.6907, 7160.720
736.1729, 7168.166
736.6550, 7174.086
737.1371, 7175.689
737.6192, 7175.659
738.1013, 7172.488
738.5834, 7169.911
739.0656, 7176.229
739.5477, 7191.954
740.0298, 7205.169
740.5119, 7202.515
740.9940, 7189.057
741.4761, 7187.760
741.9583, 7201.244
742.4404, 7211.512
742.9225, 7212.914
743.4046, 7210.936
743.8867, 7208.950
744.3688, 7207.610
744.8510, 7211.310
745.3331, 7227.048
745.8152, 7239.614
746.2973, 7240.811
746.7794, 7238.708
747.2615, 7241.304
747.7437, 7248.953
748.2258, 7258.868
748.7079, 7270.005
749.1900, 7279.377
749.6721, 7280.152
750.1542, 7272.505
750.6364, 7266.671
751.1185, 7264.786
751.6006, 7261.411
752.0827, 7251.062
752.5648, 7237.500
753.0469, 7231.707
753.5291, 7237.687
754.0112, 7239.846
754.4933, 7236.028
754.9754, 7227.909
755.4575, 7213.472
755.9396, 7196.362
756.4218, 7183.099
756.9039, 7175.556
757.3860, 7168.437
757.8681, 7155.312
758.3502, 7138.083
758.8323, 7123.766
759.3145, 7112.490
759.7966, 7102.255
760.2787, 7092.870
760.7608, 7083.030
761.2429, 7070.510
761.7250, 7054.843
762.2072, 7042.445
762.6893, 7036.991
763.1714, 7029.938
763.6535, 7016.636
764.1356, 7002.815
764.6177, 6994.421
765.0999, 6990.920
765.5820, 6986.930
766.0641, 6978.914
766.5462, 6969.821
767.0283, 6963.462
767.5104, 6959.262
767.9926, 6955.346
768.4747, 6951.353
768.9568, 6947.956
769.4389, 6946.024
769.9210, 6944.517
770.4031, 6939.847
770.8853, 6927.940
771.3674, 6920.857
771.8495, 6922.811
772.3316, 6924.894
772.8137, 6923.352
773.2958, 6919.636
773.7780, 6916.068
774.2601, 6913.210
774.7422, 6910.665
775.2243, 6908.255
775.7064, 6906.064
776.1885, 6904.573
776.6707, 6903.453
777.1528, 6900.894
777.6349, 6896.272
778.1170, 6892.591
778.5991, 6893.747
779.0812, 6899.431
779.5634, 6904.159
780.0455, 6909.338
780.5276, 6910.095
781.0097, 6900.674
781.4918, 6890.453
781.9739, 6887.513
782.4561, 6890.141
782.9382, 6890.913
783.4203, 6886.299
783.9024, 6882.270
784.3845, 6882.396
784.8666, 6884.167
785.3488, 6884.983
785.8309, 6884.598
786.3130, 6883.677
786.7951, 6882.604
787.2772, 6881.235
787.7593, 6878.805
788.2415, 6875.417
788.7236, 6874.644
789.2057, 6877.643
789.6878, 6879.393
790.1699, 6875.917
790.6520, 6871.218
791.1342, 6873.157
791.6162, 6883.412
792.0983, 6889.608
792.5804, 6888.361
793.0626, 6886.066
793.5447, 6883.217
794.0268, 6881.826
794.5089, 6885.725
794.9910, 6894.075
795.4731, 6899.993
795.9553, 6897.903
796.4374, 6892.305
796.9195, 6890.461
797.4016, 6891.257
797.8837, 6889.390
798.3658, 6883.806
798.8480, 6878.620
799.3301, 6877.953
799.8122, 6878.435
800.2943, 6868.063
800.7764, 6837.732
801.2585, 6816.096
801.7407, 6811.297
802.2228, 6806.884
802.7049, 6796.146
803.1870, 6782.439
803.6691, 6770.362
804.1512, 6760.729
804.6334, 6753.219
805.1155, 6747.506
805.5976, 6744.175
806.0797, 6746.142
806.5618, 6750.432
807.0439, 6750.324
807.5261, 6744.292
808.0082, 6736.553
808.4903, 6730.846
808.9724, 6726.874
809.4545, 6724.560
809.9366, 6724.820
810.4188, 6719.493
810.9009, 6703.843
811.3830, 6688.943
811.8651, 6684.859
812.3472, 6687.920
812.8293, 6684.472
813.3115, 6669.838
813.7936, 6658.762
814.2757, 6653.292
814.7578, 6651.987
815.2399, 6657.132
815.7220, 6664.791
816.2042, 6668.859
816.6863, 6667.656
817.1684, 6664.123
817.6505, 6660.555
818.1326, 6656.437
818.6147, 6650.083
819.0969, 6642.038
819.5790, 6634.894
820.0611, 6629.298
820.5432, 6626.576
821.0253, 6628.710
821.5074, 6634.517
821.9896, 6635.991
822.4717, 6630.906
822.9538, 6626.501
823.4359, 6623.346
823.9180, 6621.268
824.4001, 6622.333
824.8823, 6623.856
825.3644, 6619.642
825.8465, 6606.625
826.3286, 6596.832
826.8107, 6596.738
827.2928, 6599.963
827.7750, 6602.193
828.2571, 6603.529
828.7392, 6605.668
829.2213, 6608.734
829.7034, 6609.404
830.1855, 6603.221
830.6677, 6593.195
831.1498, 6588.202
831.6319, 6588.110
832.1140, 6588.579
832.5961, 6588.873
833.0782, 6588.437
833.5604, 6587.000
834.0425, 6584.357
834.5246, 6579.485
835.0067, 6568.875
835.4888, 6562.030
835.9709, 6560.432
836.4531, 6560.705
836.9352, 6564.507
837.4173, 6567.885
837.8994, 6563.975
838.3815, 6551.421
838.8636, 6540.320
839.3458, 6536.221
839.8279, 6535.397
840.3100, 6535.907
840.7921, 6536.718
841.2742, 6535.860
841.7563, 6533.100
842.2385, 6530.233
842.7206, 6529.190
843.2027, 6527.953
843.6848, 6519.537
844.1669, 6503.745
844.6490, 6494.298
845.1312, 6494.184
845.6133, 6496.033
846.0954, 6496.128
846.5775, 6494.747
847.0596, 6492.493
847.5417, 6489.406
848.0239, 6485.104
848.5060, 6476.419
848.9881, 6470.323
849.4702, 6471.414
849.9523, 6474.623
850.4344, 6474.151
850.9166, 6469.993
851.3987, 6466.826
851.8808, 6467.807
852.3629, 6469.166
852.8450, 6467.777
853.3271, 6464.720
853.8093, 6461.750
854.2914, 6458.989
854.7735, 6454.955
855.2556, 6448.732
855.7377, 6443.222
856.2198, 6445.001
856.7020, 6453.573
857.1841, 6454.513
857.6662, 6445.702
858.1483, 6440.420
858.6304, 6446.166
859.1125, 6452.641
859.5947, 6445.803
860.0768, 6425.524
860.5589, 6413.908
861.0410, 6414.596
861.5231, 6418.400
862.0052, 6428.378
862.4874, 6437.315
862.9695, 6440.151
863.4516, 6438.191
863.9337, 6434.702
864.4158, 6430.283
864.8979, 6426.138
865.3801, 6423.028
865.8622, 6420.589
866.3443, 6419.641
866.8264, 6418.878
867.3085, 6414.870
867.7906, 6406.945
868.2728, 6398.021
868.7549, 6390.141
869.2370, 6384.240
869.7191, 6384.390
870.2012, 6390.524
870.6833, 6393.293
871.1655, 6390.703
871.6476, 6386.576
872.1297, 6382.853
872.6118, 6380.093
873.0939, 6380.037
873.5760, 6384.459
874.0581, 6386.267
874.5402, 6384.234
875.0223, 6380.928
875.5045, 6375.812
875.9866, 6370.561
876.4687, 6366.909
876.9508, 6364.837
877.4329, 6362.815
877.9150, 6359.543
878.3972, 6357.286
878.8793, 6357.939
879.3614, 6359.781
879.8435, 6362.056
880.3256, 6363.656
880.8077, 6361.537
881.2899, 6354.250
881.7720, 6346.683
882.2541, 6344.104
882.7362, 6345.849
883.2183, 6352.602
883.7004, 6363.254
884.1826, 6365.020
884.6647, 6352.992
885.1468, 6342.504
885.6289, 6350.107
886.1110, 6371.021
886.5931, 6379.066
887.0753, 6370.176
887.5574, 6360.453
888.0395, 6350.194
888.5216, 6340.913
889.0037, 6332.772
889.4858, 6326.391
889.9680, 6323.546
890.4501, 6325.235
890.9322, 6324.378
891.4143, 6315.418
891.8964, 6309.225
892.3785, 6313.020
892.8607, 6319.993
893.3428, 6321.542
893.8249, 6318.856
894.3070, 6321.087
894.7891, 6334.981
895.2712, 6347.396
895.7534, 6345.628
896.2355, 6335.264
896.7176, 6322.375
897.1997, 6309.062
897.6818, 6299.632
898.1639, 6295.726
898.6461, 6294.932
899.1282, 6295.109
899.6103, 6295.853
900.0924, 6294.971
900.5745, 6292.343
901.0566, 6291.432
901.5388, 6293.515
902.0209, 6294.925
902.5030, 6292.820
902.9851, 6288.249
903.4672, 6284.013
903.9493, 6279.249
904.4315, 6277.118
904.9136, 6280.089
905.3957, 6282.411
905.8778, 6282.257
906.3599, 6280.659
906.8420, 6278.263
907.3242, 6275.239
907.8063, 6272.459
908.2884, 6270.787
908.7705, 6268.521
909.2526, 6264.353
909.7347, 6259.955
910.2169, 6256.800
910.6990, 6254.675
911.1811, 6252.882
911.6632, 6251.200
912.1453, 6249.292
912.6274, 6247.666
913.1096, 6245.150
913.5917, 6238.581
914.0738, 6229.770
914.5559, 6224.119
915.0380, 6222.539
915.5201, 6222.284
916.0023, 6221.655
916.4844, 6219.742
916.9665, 6212.436
917.4486, 6199.827
917.9307, 6198.035
918.4128, 6210.189
918.8950, 6218.429
919.3771, 6214.542
919.8592, 6205.940
920.3413, 6201.773
920.8234, 6201.891
921.3055, 6200.538
921.7877, 6197.893
922.2698, 6193.525
922.7519, 6185.127
923.2340, 6177.378
923.7161, 6172.648
924.1982, 6170.283
924.6804, 6169.457
925.1625, 6170.439
925.6446, 6170.625
926.1267, 6169.102
926.6088, 6166.901
927.0909, 6163.432
927.5731, 6160.258
928.0552, 6159.577
928.5373, 6160.905
929.0194, 6161.587
929.5015, 6160.135
929.9836, 6158.688
930.4658, 6160.411
930.9479, 6162.428
931.4300, 6159.023
931.9121, 6152.288
932.3942, 6149.597
932.8763, 6152.930
933.3585, 6157.542
933.8406, 6159.753
934.3227, 6159.061
934.8048, 6152.566
935.2869, 6141.189
935.7690, 6133.311
936.2512, 6130.212
936.7333, 6128.067
937.2154, 6124.653
937.6975, 6121.614
938.1796, 6122.041
938.6617, 6126.143
939.1439, 6128.515
939.6260, 6129.366
940.1081, 6127.497
940.5902, 6120.018
941.0723, 6113.494
941.5544, 6115.069
942.0366, 6121.454
942.5187, 6120.886
943.0008, 6109.626
943.4829, 6100.825
943.9650, 6095.904
944.4471, 6092.453
944.9293, 6089.956
945.4114, 6088.253
945.8935, 6087.872
946.3756, 6088.406
946.8577, 6087.658
947.3398, 6084.513
947.8220, 6080.820
948.3041, 6076.865
948.7862, 6073.337
949.2683, 6071.242
949.7504, 6069.971
950.2325, 6067.982
950.7147, 6065.002
951.1968, 6062.787
951.6789, 6062.674
952.1610, 6063.936
952.6431, 6067.193
953.1252, 6070.611
953.6074, 6069.032
954.0895, 6063.028
954.5716, 6058.981
955.0537, 6060.105
955.5358, 6062.911
956.0179, 6062.178
956.5000, 6059.007
956.9821, 6059.573
957.4642, 6063.574
957.9464, 6063.225
958.4285, 6056.222
958.9106, 6050.442
959.3927, 6052.449
959.8748, 6058.646
960.3569, 6059.242
960.8391, 6053.117
961.3212, 6047.692
961.8033, 6042.907
962.2854, 6039.337
962.7675, 6037.939
963.2496, 6036.847
963.7318, 6033.684
964.2139, 6028.991
964.6960, 6026.700
965.1781, 6027.811
965.6602, 6029.739
966.1423, 6031.992
966.6245, 6035.482
967.1066, 6043.160
967.5887, 6050.699
968.0708, 6052.027
968.5529, 6047.068
969.0350, 6042.514
969.5172, 6040.138
969.9993, 6037.736
970.4814, 6033.431
970.9635, 6029.898
971.4456, 6029.663
971.9277, 6031.653
972.4099, 6033.867
972.8920, 6035.796
973.3741, 6037.448
973.8562, 6038.872
974.3383, 6040.030
974.8204, 6041.412
975.3026, 6042.235
975.7847, 6040.986
976.2668, 6038.130
976.7489, 6035.497
977.2310, 6033.908
977.7131, 6032.755
978.1953, 6032.397
978.6774, 6031.483
979.1595, 6025.089
979.6416, 6016.328
980.1237, 6016.103
980.6058, 6025.476
981.0880, 6035.106
981.5701, 6038.987
982.0522, 6039.656
982.5343, 6042.061
983.0164, 6045.156
983.4985, 6041.545
983.9807, 6031.454
984.4628, 6025.010
984.9449, 6025.342
985.4270, 6028.519
985.9091, 6031.519
986.3912, 6034.048
986.8734, 6035.208
987.3555, 6034.964
987.8376, 6033.196
988.3197, 6028.964
988.8018, 6027.310
989.2839, 6031.036
989.7661, 6036.368
990.2482, 6040.320
990.7303, 6042.224
991.2124, 6036.460
991.6945, 6017.783
992.1766, 6003.668
992.6588, 5995.078
993.1409, 5990.829
993.6230, 5991.417
994.1051, 5995.294
994.5872, 6002.439
995.0693, 6012.701
995.5515, 6016.463
996.0336, 6007.483
996.5157, 6001.006
996.9978, 6002.196
997.4799, 6002.571
997.9620, 5995.310
998.4442, 5985.495
998.9263, 5981.213
999.4084, 5983.299
999.8905, 5985.192
1000.373, 5985.142
1000.855, 5984.911
1001.337, 5986.110
1001.819, 5986.507
1002.301, 5983.290
1002.783, 5978.259
1003.265, 5975.007
1003.747, 5974.363
1004.230, 5974.314
1004.712, 5973.384
1005.194, 5973.232
1005.676, 5977.188
1006.158, 5980.874
1006.640, 5978.089
1007.122, 5970.587
1007.604, 5964.110
1008.086, 5960.646
1008.569, 5958.796
1009.051, 5957.618
1009.533, 5957.392
1010.015, 5960.675
1010.497, 5964.105
1010.979, 5961.104
1011.461, 5952.183
1011.943, 5942.276
1012.426, 5933.718
1012.908, 5926.672
1013.390, 5920.914
1013.872, 5917.081
1014.354, 5917.698
1014.836, 5921.043
1015.318, 5921.408
1015.800, 5918.479
1016.282, 5917.490
1016.765, 5921.523
1017.247, 5926.540
1017.729, 5927.489
1018.211, 5924.592
1018.693, 5916.436
1019.175, 5904.432
1019.657, 5898.900
1020.139, 5901.751
1020.622, 5905.108
1021.104, 5903.799
1021.586, 5900.047
1022.068, 5897.986
1022.550, 5897.348
1023.032, 5894.958
1023.514, 5890.815
1023.996, 5885.217
1024.478, 5877.888
1024.961, 5873.206
1025.443, 5874.746
1025.925, 5879.818
1026.407, 5882.646
1026.889, 5883.207
1027.371, 5881.933
1027.853, 5878.500
1028.335, 5874.919
1028.818, 5871.499
1029.300, 5868.703
1029.782, 5866.962
1030.264, 5865.974
1030.746, 5864.975
1031.228, 5863.774
1031.710, 5863.676
1032.192, 5865.282
1032.674, 5865.966
1033.156, 5864.093
1033.639, 5863.274
1034.121, 5868.217
1034.603, 5875.214
1035.085, 5872.210
1035.567, 5853.671
1036.049, 5846.780
1036.531, 5858.761
1037.013, 5868.559
1037.496, 5870.305
1037.978, 5868.597
1038.460, 5866.952
1038.942, 5864.744
1039.424, 5859.556
1039.906, 5849.130
1040.388, 5842.639
1040.870, 5842.948
1041.353, 5843.007
1041.835, 5840.014
1042.317, 5837.122
1042.799, 5836.308
1043.281, 5837.544
1043.763, 5841.226
1044.245, 5849.071
1044.727, 5854.187
1045.209, 5855.576
1045.692, 5855.236
1046.174, 5853.253
1046.656, 5850.182
1047.138, 5846.273
1047.620, 5841.674
1048.102, 5836.020
1048.584, 5827.829
1049.066, 5824.250
1049.548, 5830.943
1050.031, 5836.198
1050.513, 5835.570
1050.995, 5832.626
1051.477, 5828.858
1051.959, 5825.399
1052.441, 5825.244
1052.923, 5830.093
1053.405, 5831.422
1053.888, 5821.439
1054.370, 5815.328
1054.852, 5824.050
1055.334, 5834.231
1055.816, 5834.335
1056.298, 5826.960
1056.780, 5819.437
1057.262, 5812.908
1057.745, 5807.368
1058.227, 5801.456
1058.709, 5798.361
1059.191, 5801.188
1059.673, 5805.904
1060.155, 5811.132
1060.637, 5814.951
1061.119, 5812.734
1061.601, 5803.019
1062.083, 5796.917
1062.566, 5802.221
1063.048, 5806.716
1063.530, 5804.360
1064.012, 5799.461
1064.494, 5794.452
1064.976, 5790.298
1065.458, 5789.314
1065.940, 5791.899
1066.423, 5790.542
1066.905, 5777.481
1067.387, 5766.152
1067.869, 5764.198
1068.351, 5765.146
1068.833, 5762.866
1069.315, 5759.605
1069.797, 5762.061
1070.280, 5770.811
1070.762, 5774.189
1071.244, 5762.006
1071.726, 5750.535
1072.208, 5747.093
1072.690, 5747.479
1073.172, 5751.421
1073.654, 5755.233
1074.136, 5751.274
1074.619, 5739.830
1075.101, 5734.191
1075.583, 5745.266
1076.065, 5753.773
1076.547, 5746.751
1077.029, 5737.313
1077.511, 5736.249
1077.993, 5739.253
1078.475, 5738.056
1078.958, 5732.565
1079.440, 5730.320
1079.922, 5735.643
1080.404, 5741.128
1080.886, 5743.433
1081.368, 5744.462
1081.850, 5746.963
1082.332, 5748.196
1082.814, 5742.416
1083.297, 5731.336
1083.779, 5724.879
1084.261, 5728.189
1084.743, 5730.158
1085.225, 5724.369
1085.707, 5717.098
1086.189, 5709.427
1086.671, 5704.698
1087.154, 5708.345
1087.636, 5718.148
1088.118, 5726.396
1088.600, 5731.130
1089.082, 5733.169
1089.564, 5731.476
1090.046, 5728.892
1090.528, 5725.890
1091.010, 5723.685
1091.493, 5723.973
1091.975, 5725.888
1092.457, 5727.790
1092.939, 5729.523
1093.421, 5728.125
1093.903, 5719.376
1094.385, 5711.244
1094.867, 5706.746
1095.349, 5704.893
1095.832, 5706.067
1096.314, 5708.681
1096.796, 5709.670
1097.278, 5708.599
1097.760, 5709.385
1098.242, 5718.548
1098.724, 5722.386
1099.206, 5710.856
1099.689, 5698.353
1100.171, 5694.400
1100.653, 5696.008
1101.135, 5699.560
1101.617, 5704.008
1102.099, 5705.032
1102.581, 5699.323
1103.063, 5694.116
1103.546, 5690.628
1104.028, 5688.569
1104.510, 5689.833
1104.992, 5690.933
1105.474, 5686.126
1105.956, 5677.188
1106.438, 5673.672
1106.920, 5679.146
1107.402, 5684.417
1107.885, 5688.550
1108.367, 5691.537
1108.849, 5693.570
1109.331, 5694.265
1109.813, 5692.457
1110.295, 5689.171
1110.777, 5687.265
1111.259, 5687.333
1111.741, 5687.241
1112.224, 5686.836
1112.706, 5686.424
1113.188, 5688.649
1113.670, 5688.387
1114.152, 5679.942
1114.634, 5667.948
1115.116, 5660.100
1115.598, 5656.509
1116.081, 5656.339
1116.563, 5661.705
1117.045, 5666.847
1117.527, 5670.617
1118.009, 5675.134
1118.491, 5684.881
1118.973, 5692.263
1119.455, 5685.210
1119.938, 5665.990
1120.420, 5656.464
1120.902, 5660.263
1121.384, 5664.863
1121.866, 5671.057
1122.348, 5675.169
1122.830, 5674.284
1123.312, 5674.146
1123.794, 5681.821
1124.276, 5678.918
1124.759, 5677.961
1125.241, 5679.243
1125.723, 5671.522
1126.205, 5672.199
1126.687, 5669.909
1127.169, 5660.653
1127.651, 5653.247
1128.133, 5654.165
1128.616, 5659.204
1129.098, 5660.789
1129.580, 5659.157
1130.062, 5658.443
1130.544, 5658.789
1131.026, 5658.619
1131.508, 5657.833
1131.990, 5654.487
1132.473, 5647.133
1132.955, 5640.260
1133.437, 5638.817
1133.919, 5642.603
1134.401, 5653.963
1134.883, 5671.537
1135.365, 5677.145
1135.847, 5670.235
1136.329, 5662.914
1136.812, 5659.017
1137.294, 5657.130
1137.776, 5656.430
1138.258, 5655.712
1138.740, 5651.359
1139.222, 5652.809
1139.704, 5646.672
1140.186, 5653.049
1140.668, 5656.389
1141.151, 5655.655
1141.633, 5655.374
1142.115, 5657.858
1142.597, 5660.995
1143.079, 5663.164
1143.561, 5663.807
1144.043, 5659.626
1144.525, 5654.252
1145.008, 5657.691
1145.490, 5666.780
1145.972, 5667.731
1146.454, 5657.456
1146.936, 5648.866
1147.418, 5651.845
1147.900, 5657.732
1148.382, 5658.683
1148.865, 5657.680
1149.347, 5658.793
1149.829, 5656.880
1150.311, 5658.083
1150.793, 5652.601
1151.275, 5647.583
1151.757, 5644.128
1152.239, 5643.553
1152.721, 5650.291
1153.203, 5655.814
1153.686, 5651.632
1154.168, 5645.858
1154.650, 5648.202
1155.132, 5655.493
1155.614, 5659.049
1156.096, 5657.228
1156.578, 5655.439
1157.060, 5656.087
1157.543, 5655.696
1158.025, 5651.159
1158.507, 5647.705
1158.989, 5649.419
1159.471, 5653.230
1159.953, 5655.718
1160.435, 5656.700
1160.917, 5656.111
1161.400, 5652.620
1161.882, 5650.345
1162.364, 5649.042
1162.846, 5649.337
1163.328, 5651.747
1163.810, 5655.395
1164.292, 5660.884
1164.774, 5666.136
1165.256, 5666.087
1165.739, 5660.195
1166.221, 5658.917
1166.703, 5664.179
1167.185, 5666.875
1167.667, 5665.753
1168.149, 5661.786
1168.631, 5654.132
1169.113, 5648.677
1169.595, 5652.936
1170.078, 5663.272
1170.560, 5667.190
1171.042, 5664.797
1171.524, 5657.374
1172.006, 5645.323
1172.488, 5639.538
1172.970, 5642.732
1173.452, 5649.747
1173.934, 5657.626
1174.417, 5663.464
1174.899, 5661.781
1175.381, 5655.500
1175.863, 5652.724
1176.345, 5651.972
1176.827, 5648.049
1177.309, 5641.536
1177.791, 5637.190
1178.274, 5636.713
1178.756, 5639.463
1179.238, 5645.753
1179.720, 5653.086
1180.202, 5660.104
1180.684, 5665.522
1181.166, 5668.312
1181.648, 5668.054
1182.130, 5662.590
1182.613, 5653.444
1183.095, 5646.093
1183.577, 5642.502
1184.059, 5640.947
1184.541, 5641.272
1185.023, 5642.462
1185.505, 5645.188
1185.987, 5647.343
1186.469, 5646.239
1186.952, 5643.782
1187.434, 5644.364
1187.916, 5647.913
1188.398, 5647.080
1188.880, 5634.844
1189.362, 5628.264
1189.844, 5631.486
1190.326, 5637.521
1190.809, 5646.224
1191.291, 5654.530
1191.773, 5661.161
1192.255, 5664.790
1192.737, 5661.289
1193.219, 5649.587
1193.701, 5642.875
1194.183, 5642.382
1194.666, 5641.955
1195.148, 5640.192
1195.630, 5641.433
1196.112, 5648.568
1196.594, 5655.573
1197.076, 5656.024
1197.558, 5651.028
1198.040, 5641.002
1198.522, 5627.565
1199.005, 5627.580
1199.487, 5622.077
1199.969, 5617.610
1200.451, 5625.713
1200.933, 5618.845
1201.415, 5630.742
1201.897, 5646.312
1202.379, 5649.157
1202.861, 5644.834
1203.344, 5640.268
1203.826, 5636.079
1204.308, 5633.136
1204.790, 5631.549
1205.272, 5632.186
1205.754, 5634.506
1206.236, 5634.898
1206.718, 5631.060
1207.201, 5626.927
1207.683, 5624.576
1208.165, 5623.151
1208.647, 5621.977
1209.129, 5621.539
1209.611, 5623.815
1210.093, 5626.806
1210.575, 5625.687
1211.057, 5619.746
1211.540, 5615.396
1212.022, 5613.380
1212.504, 5613.437
1212.986, 5618.401
1213.468, 5621.620
1213.950, 5619.106
1214.432, 5616.135
1214.914, 5618.421
1215.396, 5623.100
1215.879, 5621.884
1216.361, 5614.056
1216.843, 5609.021
1217.325, 5606.845
1217.807, 5607.096
1218.289, 5609.982
1218.771, 5612.162
1219.253, 5612.145
1219.736, 5610.256
1220.218, 5606.448
1220.700, 5602.163
1221.182, 5600.248
1221.664, 5600.620
1222.146, 5604.816
1222.628, 5610.875
1223.110, 5611.461
1223.593, 5606.460
1224.075, 5601.558
1224.557, 5599.330
1225.039, 5599.471
1225.521, 5602.982
1226.003, 5607.180
1226.485, 5610.953
1226.967, 5612.976
1227.449, 5610.769
1227.932, 5606.437
1228.414, 5602.894
1228.896, 5600.524
1229.378, 5598.422
1229.860, 5598.721
1230.342, 5595.734
1230.824, 5602.041
1231.306, 5607.380
1231.788, 5611.663
1232.271, 5611.873
1232.753, 5602.722
1233.235, 5591.932
1233.717, 5590.460
1234.199, 5596.666
1234.681, 5599.305
1235.163, 5597.024
1235.645, 5598.834
1236.128, 5606.243
1236.610, 5608.947
1237.092, 5604.167
1237.574, 5597.557
1238.056, 5592.123
1238.538, 5589.779
1239.020, 5594.115
1239.502, 5601.850
1239.984, 5605.202
1240.467, 5604.945
1240.949, 5602.629
1241.431, 5599.008
1241.913, 5596.011
1242.395, 5593.722
1242.877, 5589.636
1243.359, 5582.104
1243.841, 5576.829
1244.323, 5579.783
1244.806, 5584.459
1245.288, 5586.639
1245.770, 5587.818
1246.252, 5590.362
1246.734, 5592.578
1247.216, 5591.524
1247.698, 5587.194
1248.180, 5581.264
1248.662, 5570.674
1249.145, 5566.898
1249.627, 5577.807
1250.109, 5583.210
1250.591, 5575.573
1251.073, 5567.779
1251.555, 5566.644
1252.037, 5570.486
1252.519, 5578.486
1253.002, 5588.193
1253.484, 5586.414
1253.966, 5573.492
1254.448, 5566.932
1254.930, 5567.267
1255.412, 5573.105
1255.894, 5583.185
1256.376, 5589.313
1256.859, 5587.085
1257.341, 5581.770
1257.823, 5577.552
1258.305, 5575.070
1258.787, 5575.325
1259.269, 5577.834
1259.751, 5584.277
1260.233, 5591.282
1260.715, 5592.055
1261.198, 5587.604
1261.680, 5585.417
1262.162, 5587.799
1262.644, 5591.358
1263.126, 5597.048
1263.608, 5600.845
1264.090, 5599.368
1264.572, 5598.291
1265.054, 5601.916
1265.537, 5606.101
1266.019, 5606.628
1266.501, 5604.086
1266.983, 5599.939
1267.465, 5593.701
1267.947, 5591.671
1268.429, 5594.222
1268.911, 5596.572
1269.394, 5597.988
1269.876, 5600.769
1270.358, 5605.891
1270.840, 5608.048
1271.322, 5601.532
1271.804, 5593.385
1272.286, 5595.191
1272.768, 5602.003
1273.250, 5606.943
1273.733, 5609.629
1274.215, 5609.061
1274.697, 5606.343
1275.179, 5603.778
1275.661, 5602.089
1276.143, 5602.697
1276.625, 5608.356
1277.107, 5612.014
1277.589, 5609.521
1278.072, 5606.936
1278.554, 5609.284
1279.036, 5610.070
1279.518, 5602.148
1280.000, 5590.932
1280.482, 5585.517
1280.964, 5585.864
1281.446, 5588.911
1281.929, 5594.420
1282.411, 5601.202
1282.893, 5609.655
1283.375, 5609.961
1283.857, 5599.897
1284.339, 5593.727
1284.821, 5600.226
1285.303, 5611.389
1285.786, 5620.299
1286.268, 5625.942
##END=



