##NAMES=Priceite
##RRUFFID=R050420
##IDEAL CHEMISTRY=Ca_2_B_5_O_7_(OH)_5_&#183;H_2_O
##LOCALITY=20-Mule-Team Canyon, Death Valley, California, USA
##OWNER=RRUFF
##SOURCE=Marcus Origlieri
##DESCRIPTION=White cryptocrystalline massive
##STATUS=The identification of this mineral has been confirmed by X-ray diffraction and chemical analysis
##URL=rruff.info/R050420
##MEASURED CHEMISTRY=Ca_2.00_B_5.00_O_7_(OH)_5_Â·H_2_O
93.78320, 170.6419
94.26532, 174.0066
94.74744, 175.1469
95.22955, 173.5987
95.71167, 170.0572
96.19379, 164.2165
96.67590, 155.5370
97.15802, 147.9360
97.64014, 141.8618
98.12225, 137.1402
98.60437, 133.9197
99.08649, 133.1703
99.56860, 132.5945
100.0507, 128.5358
100.5328, 120.1623
101.0150, 111.4480
101.4971, 105.1643
101.9792, 101.2776
102.4613, 98.37849
102.9434, 96.33336
103.4255, 94.83202
103.9077, 93.65003
104.3898, 92.65285
104.8719, 92.09972
105.3540, 92.76820
105.8361, 96.08047
106.3182, 98.09338
106.8004, 98.12563
107.2825, 96.56807
107.7646, 93.68065
108.2467, 89.48024
108.7288, 84.11797
109.2109, 79.73030
109.6931, 76.82359
110.1752, 74.31026
110.6573, 71.85195
111.1394, 69.53006
111.6215, 67.66715
112.1036, 66.61330
112.5858, 66.51036
113.0679, 66.19291
113.5500, 65.35002
114.0321, 64.52441
114.5142, 64.17724
114.9964, 64.38004
115.4785, 64.73287
115.9606, 64.78747
116.4427, 64.56409
116.9248, 64.26088
117.4069, 63.70580
117.8891, 63.11453
118.3712, 63.00254
118.8533, 63.70356
119.3354, 64.54940
119.8175, 64.89583
120.2996, 64.78248
120.7818, 64.55873
121.2639, 64.46010
121.7460, 64.49050
122.2281, 64.53156
122.7102, 64.56434
123.1923, 64.60215
123.6745, 64.65839
124.1566, 64.73358
124.6387, 64.80890
125.1208, 64.82756
125.6029, 64.65770
126.0850, 64.73271
126.5672, 65.19431
127.0493, 65.80190
127.5314, 66.43935
128.0135, 67.05285
128.4956, 67.54624
128.9777, 67.65103
129.4599, 66.67741
129.9420, 66.06734
130.4241, 66.13400
130.9062, 66.59560
131.3883, 67.03949
131.8705, 67.24226
132.3526, 67.24773
132.8347, 67.31065
133.3168, 67.47065
133.7989, 67.63509
134.2810, 67.71422
134.7632, 67.73922
135.2453, 67.88676
135.7274, 68.36438
136.2095, 69.04390
136.6916, 69.46452
137.1737, 69.37220
137.6559, 69.15257
138.1380, 69.23916
138.6201, 69.69685
139.1022, 70.15543
139.5843, 70.30772
140.0664, 70.31385
140.5486, 70.40296
141.0307, 70.75872
141.5128, 71.25228
141.9949, 71.49590
142.4770, 71.41429
142.9591, 71.16064
143.4413, 70.69326
143.9234, 70.13084
144.4055, 69.68404
144.8876, 69.53002
145.3697, 69.67070
145.8518, 69.78115
146.3340, 69.89552
146.8161, 69.94398
147.2982, 69.90947
147.7803, 69.78845
148.2624, 69.56982
148.7445, 69.21013
149.2267, 68.61561
149.7088, 68.30587
150.1909, 68.64882
150.6730, 68.92424
151.1551, 68.65604
151.6372, 67.81589
152.1194, 66.77643
152.6015, 65.98849
153.0836, 65.58703
153.5657, 65.11762
154.0478, 64.58497
154.5299, 63.98217
155.0121, 63.32121
155.4942, 62.61052
155.9763, 61.79917
156.4584, 60.73254
156.9405, 59.38155
157.4227, 58.13846
157.9048, 57.18078
158.3869, 56.40167
158.8690, 55.56462
159.3511, 54.56555
159.8332, 53.55323
160.3154, 52.70864
160.7975, 52.03230
161.2796, 51.39387
161.7617, 50.69485
162.2438, 49.94105
162.7259, 49.26072
163.2081, 48.65194
163.6902, 48.16499
164.1723, 47.87145
164.6544, 47.77357
165.1365, 47.73324
165.6186, 47.58315
166.1008, 47.28263
166.5829, 47.06152
167.0650, 46.99773
167.5471, 46.99761
168.0292, 47.00381
168.5113, 47.00311
168.9935, 47.03149
169.4756, 47.18258
169.9577, 47.65295
170.4398, 47.84946
170.9219, 47.53039
171.4040, 47.07487
171.8862, 46.80834
172.3683, 46.84877
172.8504, 47.06591
173.3325, 47.14973
173.8146, 46.88550
174.2967, 46.73802
174.7789, 46.81030
175.2610, 46.97547
175.7431, 47.09115
176.2252, 47.09422
176.7073, 47.00654
177.1894, 46.89490
177.6716, 46.62916
178.1537, 46.49562
178.6358, 46.66255
179.1179, 46.99495
179.6000, 47.24004
180.0821, 47.27458
180.5643, 47.13346
181.0464, 46.93147
181.5285, 46.61475
182.0106, 46.32302
182.4927, 46.16471
182.9749, 46.10490
183.4570, 45.96064
183.9391, 45.53857
184.4212, 45.05461
184.9033, 44.95110
185.3854, 45.41253
185.8676, 45.96082
186.3497, 46.21054
186.8318, 46.15519
187.3139, 46.03141
187.7960, 45.94609
188.2781, 45.84046
188.7603, 45.61544
189.2424, 45.19194
189.7245, 44.77759
190.2066, 44.68561
190.6887, 45.01409
191.1708, 45.30989
191.6530, 45.36941
192.1351, 45.34447
192.6172, 45.37342
193.0993, 45.51576
193.5814, 45.68901
194.0635, 45.70052
194.5457, 45.40847
195.0278, 45.24245
195.5099, 45.36743
195.9920, 45.60709
196.4741, 45.79572
196.9562, 45.85930
197.4384, 45.83172
197.9205, 45.80256
198.4026, 45.69610
198.8847, 45.70491
199.3668, 45.97984
199.8489, 46.33146
200.3311, 46.53643
200.8132, 46.47906
201.2953, 46.22759
201.7774, 46.05269
202.2595, 46.09063
202.7416, 46.05564
203.2238, 45.79522
203.7059, 45.47035
204.1880, 45.32175
204.6701, 45.48754
205.1522, 45.89025
205.6344, 46.18514
206.1165, 46.36121
206.5986, 46.46137
207.0807, 46.43709
207.5628, 46.34541
208.0449, 46.30334
208.5271, 46.38578
209.0092, 46.54193
209.4913, 46.55749
209.9734, 46.34045
210.4555, 46.12670
210.9376, 46.03463
211.4198, 46.01685
211.9019, 45.93124
212.3840, 45.68591
212.8661, 45.34489
213.3482, 45.08140
213.8303, 44.86255
214.3125, 44.75903
214.7946, 44.91459
215.2767, 45.27023
215.7588, 45.48777
216.2409, 45.34898
216.7230, 45.02625
217.2052, 44.85486
217.6873, 44.88172
218.1694, 44.97038
218.6515, 44.98381
219.1336, 44.92933
219.6157, 45.01040
220.0979, 45.44257
220.5800, 45.96366
221.0621, 46.27743
221.5442, 46.32405
222.0263, 46.27901
222.5084, 46.32812
222.9906, 46.48737
223.4727, 46.56477
223.9548, 46.39659
224.4369, 46.18324
224.9190, 46.04599
225.4011, 46.00434
225.8833, 46.07752
226.3654, 46.33639
226.8475, 46.83562
227.3296, 47.25039
227.8117, 47.46134
228.2938, 47.59782
228.7760, 47.71216
229.2581, 47.82020
229.7402, 47.93842
230.2223, 48.10994
230.7044, 48.38379
231.1866, 48.55134
231.6687, 48.42906
232.1508, 48.31438
232.6329, 48.43061
233.1150, 48.80290
233.5971, 49.24994
234.0793, 49.51873
234.5614, 49.54626
235.0435, 49.54087
235.5256, 49.48326
236.0077, 49.41857
236.4898, 49.37077
236.9720, 49.34599
237.4541, 49.34060
237.9362, 49.36443
238.4183, 49.48804
238.9004, 49.45436
239.3825, 49.18398
239.8647, 48.84766
240.3468, 48.55280
240.8289, 48.31334
241.3110, 48.07954
241.7931, 47.78579
242.2752, 47.41724
242.7574, 47.02506
243.2395, 46.46196
243.7216, 45.98616
244.2037, 45.83826
244.6858, 46.00740
245.1679, 46.22855
245.6501, 46.20167
246.1322, 45.84526
246.6143, 45.54441
247.0964, 45.30397
247.5785, 45.10723
248.0606, 44.95696
248.5428, 44.84739
249.0249, 44.74514
249.5070, 44.60929
249.9891, 44.42765
250.4712, 44.33852
250.9533, 44.45908
251.4355, 44.57614
251.9176, 44.47767
252.3997, 44.18463
252.8818, 43.97947
253.3639, 44.15461
253.8460, 44.71214
254.3282, 44.97007
254.8103, 44.65186
255.2924, 44.26094
255.7745, 44.18888
256.2566, 44.41723
256.7387, 44.61330
257.2209, 44.52220
257.7030, 44.18170
258.1851, 43.93712
258.6672, 43.78979
259.1493, 43.73708
259.6314, 43.82104
260.1136, 44.02629
260.5957, 44.22665
261.0778, 44.37910
261.5599, 44.45253
262.0420, 44.40241
262.5241, 44.14271
263.0063, 43.86028
263.4884, 43.71240
263.9705, 43.67978
264.4526, 43.58358
264.9347, 43.29003
265.4168, 42.91488
265.8990, 42.67753
266.3811, 42.60470
266.8632, 42.61303
267.3453, 42.68923
267.8275, 42.81886
268.3096, 42.88247
268.7917, 42.80770
269.2738, 42.66850
269.7559, 42.55817
270.2380, 42.47497
270.7202, 42.43855
271.2023, 42.49957
271.6844, 42.63859
272.1665, 42.72201
272.6486, 42.70903
273.1307, 42.62953
273.6129, 42.49173
274.0950, 42.29659
274.5771, 42.15691
275.0592, 42.14303
275.5413, 42.24717
276.0234, 42.44936
276.5056, 42.87313
276.9877, 43.21940
277.4698, 43.21924
277.9519, 42.93224
278.4340, 42.66146
278.9161, 42.56122
279.3983, 42.62059
279.8804, 42.82766
280.3625, 43.33722
280.8446, 43.74213
281.3267, 43.74508
281.8088, 43.46923
282.2910, 43.19613
282.7731, 43.03410
283.2552, 42.99284
283.7373, 43.14816
284.2194, 43.65568
284.7015, 44.06284
285.1837, 44.09695
285.6658, 43.92230
286.1479, 43.78351
286.6300, 43.81165
287.1121, 43.92302
287.5942, 43.92151
288.0764, 43.76328
288.5585, 43.59237
289.0406, 43.47426
289.5227, 43.36768
290.0048, 43.21383
290.4869, 42.97526
290.9691, 42.73568
291.4512, 42.66544
291.9333, 42.83954
292.4154, 42.94436
292.8975, 42.79564
293.3796, 42.60714
293.8618, 42.56956
294.3439, 42.73098
294.8260, 42.92779
295.3081, 42.90920
295.7902, 42.60279
296.2723, 42.42635
296.7545, 42.66964
297.2366, 42.90574
297.7187, 42.82602
298.2008, 42.43285
298.6829, 42.02842
299.1650, 41.98412
299.6472, 42.35616
300.1293, 42.54922
300.6114, 42.33844
301.0935, 42.10453
301.5756, 41.99308
302.0577, 42.00379
302.5399, 42.08754
303.0220, 42.26490
303.5041, 42.52265
303.9862, 42.53223
304.4683, 41.92136
304.9504, 41.49834
305.4326, 41.70208
305.9147, 42.28138
306.3968, 42.76674
306.8789, 42.86791
307.3610, 42.66088
307.8431, 42.43956
308.3253, 42.05333
308.8074, 41.91479
309.2895, 42.41605
309.7716, 43.09565
310.2537, 43.31922
310.7358, 42.75965
311.2180, 41.85071
311.7001, 41.63863
312.1822, 42.60185
312.6643, 43.19288
313.1464, 42.88329
313.6285, 42.26911
314.1107, 41.78436
314.5928, 41.55335
315.0749, 41.48110
315.5570, 41.44376
316.0392, 41.43964
316.5213, 41.47755
317.0034, 41.57100
317.4855, 41.69714
317.9676, 41.87496
318.4497, 42.08968
318.9319, 42.27495
319.4140, 42.36140
319.8961, 42.34248
320.3782, 42.28992
320.8603, 42.11940
321.3424, 41.99744
321.8246, 42.05894
322.3067, 42.22774
322.7888, 42.31088
323.2709, 42.13886
323.7530, 41.75444
324.2351, 41.47377
324.7173, 41.28739
325.1994, 41.23560
325.6815, 41.44270
326.1636, 41.74505
326.6457, 41.90786
327.1278, 41.79968
327.6100, 41.52888
328.0921, 41.35340
328.5742, 41.29932
329.0563, 41.28973
329.5384, 41.30822
330.0205, 41.35553
330.5027, 41.45301
330.9848, 41.60633
331.4669, 41.75238
331.9490, 41.80393
332.4311, 41.75019
332.9132, 41.64931
333.3954, 41.39654
333.8775, 41.18201
334.3596, 41.12170
334.8417, 41.21678
335.3238, 41.38602
335.8059, 41.54736
336.2881, 41.69973
336.7702, 41.95013
337.2523, 42.49018
337.7344, 42.90811
338.2165, 43.01286
338.6986, 42.85935
339.1808, 42.57857
339.6629, 42.18913
340.1450, 41.74877
340.6271, 41.48630
341.1092, 41.48335
341.5913, 41.50692
342.0735, 41.46466
342.5556, 41.39497
343.0377, 41.35510
343.5198, 41.37975
344.0019, 41.40126
344.4840, 41.24900
344.9662, 40.83369
345.4483, 40.63213
345.9304, 41.08524
346.4125, 41.63798
346.8946, 41.88599
347.3767, 41.76763
347.8589, 41.53032
348.3410, 41.38397
348.8231, 41.32663
349.3052, 41.30357
349.7873, 41.29890
350.2694, 41.34251
350.7516, 41.49072
351.2337, 41.71321
351.7158, 41.88266
352.1979, 41.87349
352.6800, 41.74957
353.1621, 41.73468
353.6443, 41.87952
354.1264, 42.02551
354.6085, 42.10150
355.0906, 42.11500
355.5727, 42.04358
356.0548, 41.77110
356.5370, 41.54165
357.0191, 41.78291
357.5012, 42.54757
357.9833, 43.17935
358.4654, 43.31459
358.9475, 43.22314
359.4297, 43.23717
359.9118, 43.41059
360.3939, 43.56786
360.8760, 43.52244
361.3581, 43.32744
361.8402, 43.26123
362.3224, 43.41797
362.8045, 43.67727
363.2866, 43.92913
363.7687, 44.17276
364.2508, 44.39782
364.7329, 44.60865
365.2151, 44.79639
365.6972, 44.93703
366.1793, 45.02223
366.6614, 45.09961
367.1436, 45.16577
367.6257, 45.25347
368.1078, 45.46489
368.5899, 45.99267
369.0720, 46.50184
369.5541, 46.64811
370.0363, 46.48839
370.5184, 46.40033
371.0005, 46.57346
371.4826, 46.91773
371.9647, 47.21766
372.4468, 47.44410
372.9290, 47.70092
373.4111, 48.12539
373.8932, 48.58993
374.3753, 48.80988
374.8574, 48.68571
375.3395, 48.46644
375.8217, 48.46706
376.3038, 48.71039
376.7859, 48.97178
377.2680, 49.35498
377.7501, 49.66344
378.2322, 49.68920
378.7144, 49.44341
379.1965, 49.12496
379.6786, 48.86623
380.1607, 48.66577
380.6428, 48.48398
381.1249, 48.34428
381.6071, 48.19625
382.0892, 47.99708
382.5713, 47.77941
383.0534, 47.63551
383.5355, 47.61469
384.0176, 47.60991
384.4998, 47.37812
384.9819, 46.63755
385.4640, 46.13113
385.9461, 46.11422
386.4282, 46.19006
386.9103, 45.98014
387.3925, 45.45455
387.8746, 44.87852
388.3567, 44.54900
388.8388, 44.51402
389.3209, 44.38004
389.8030, 44.00409
390.2852, 43.68992
390.7673, 43.56161
391.2494, 43.58335
391.7315, 43.69224
392.2136, 43.86221
392.6957, 44.04752
393.1779, 44.06510
393.6600, 43.78011
394.1421, 43.50628
394.6242, 43.25294
395.1063, 43.03182
395.5884, 42.85345
396.0706, 42.71982
396.5527, 42.62994
397.0348, 42.58170
397.5169, 42.57506
397.9990, 42.61101
398.4811, 42.88258
398.9633, 43.01774
399.4454, 42.76962
399.9275, 42.25028
400.4096, 41.75378
400.8917, 41.48619
401.3738, 41.39772
401.8560, 41.26440
402.3381, 41.01775
402.8202, 40.86203
403.3023, 40.85866
403.7844, 40.96395
404.2665, 41.19890
404.7487, 41.58692
405.2308, 41.89658
405.7129, 41.77760
406.1950, 41.20214
406.6771, 40.70231
407.1592, 40.32074
407.6414, 40.10862
408.1235, 40.20337
408.6056, 40.53430
409.0877, 40.73394
409.5698, 40.40565
410.0519, 39.82357
410.5341, 39.71111
411.0162, 40.21513
411.4983, 40.68385
411.9804, 40.58702
412.4625, 40.22448
412.9446, 40.11401
413.4268, 40.47472
413.9089, 40.86930
414.3910, 40.87150
414.8731, 40.57510
415.3553, 40.45586
415.8374, 40.72168
416.3195, 41.13358
416.8016, 41.33855
417.2837, 41.33673
417.7658, 41.31187
418.2480, 41.30900
418.7301, 41.31017
419.2122, 41.31518
419.6943, 41.31979
420.1764, 41.25504
420.6585, 41.03735
421.1407, 40.68947
421.6228, 40.47738
422.1049, 40.46077
422.5870, 40.49603
423.0691, 40.56609
423.5512, 40.64222
424.0334, 40.68047
424.5155, 40.66375
424.9976, 40.59258
425.4797, 40.45973
425.9618, 40.17795
426.4439, 40.01831
426.9261, 40.12796
427.4082, 40.24182
427.8903, 40.13420
428.3724, 39.82967
428.8545, 39.53495
429.3366, 39.42662
429.8188, 39.49365
430.3009, 39.49852
430.7830, 39.42454
431.2651, 39.29957
431.7472, 39.00177
432.2293, 38.70372
432.7115, 38.66116
433.1936, 38.96021
433.6757, 39.37383
434.1578, 39.47594
434.6399, 39.10267
435.1220, 38.99686
435.6042, 39.58546
436.0863, 40.13806
436.5684, 40.23235
437.0505, 39.96148
437.5326, 39.71961
438.0147, 39.81441
438.4969, 40.13335
438.9790, 40.27003
439.4611, 40.16909
439.9432, 40.02415
440.4253, 39.90125
440.9074, 39.78214
441.3896, 39.63160
441.8717, 39.42920
442.3538, 39.26924
442.8359, 39.22105
443.3180, 39.28400
443.8001, 39.50518
444.2823, 40.02245
444.7644, 40.46291
445.2465, 40.34611
445.7286, 39.79930
446.2107, 39.37239
446.6928, 39.26625
447.1750, 39.31258
447.6571, 39.38602
448.1392, 39.47390
448.6213, 39.51481
449.1034, 39.47286
449.5855, 39.36443
450.0677, 39.21601
450.5498, 38.93669
451.0319, 38.80679
451.5140, 39.03558
451.9961, 39.38978
452.4782, 39.55827
452.9604, 39.49174
453.4425, 39.40055
453.9246, 39.52918
454.4067, 39.92541
454.8888, 40.01546
455.3709, 39.54168
455.8531, 39.09925
456.3352, 38.85214
456.8173, 38.79433
457.2994, 38.90425
457.7815, 39.17315
458.2636, 39.55591
458.7458, 39.98298
459.2279, 40.57174
459.7100, 40.94965
460.1921, 40.96770
460.6742, 40.91888
461.1563, 40.93268
461.6385, 41.03281
462.1206, 41.22469
462.6027, 41.56209
463.0848, 41.98474
463.5669, 42.16092
464.0491, 41.98436
464.5312, 41.76978
465.0133, 41.57811
465.4954, 41.42654
465.9775, 41.34998
466.4597, 41.36088
466.9418, 41.37902
467.4239, 41.33269
467.9060, 41.22721
468.3881, 41.09338
468.8702, 40.92091
469.3524, 40.74869
469.8345, 40.64798
470.3166, 40.58119
470.7987, 40.42748
471.2808, 39.99461
471.7629, 39.58939
472.2451, 39.59227
472.7272, 39.91133
473.2093, 40.04834
473.6914, 39.74841
474.1735, 39.24558
474.6556, 39.03286
475.1378, 39.25552
475.6199, 39.23577
476.1020, 38.57891
476.5841, 37.83762
477.0662, 37.52175
477.5483, 37.64091
478.0305, 37.88183
478.5126, 38.01209
478.9947, 38.04943
479.4768, 38.14678
479.9589, 38.41876
480.4410, 38.61098
480.9232, 38.66120
481.4053, 38.63120
481.8874, 38.54262
482.3695, 38.41986
482.8516, 38.35703
483.3337, 38.51587
483.8159, 38.94884
484.2980, 39.15012
484.7801, 38.90369
485.2622, 38.66005
485.7443, 38.57709
486.2264, 38.59945
486.7086, 38.63384
487.1907, 38.64467
487.6728, 38.64080
488.1549, 38.62168
488.6370, 38.58383
489.1191, 38.59444
489.6013, 38.69277
490.0834, 38.81880
490.5655, 38.93499
491.0476, 39.03731
491.5297, 39.09463
492.0118, 39.04363
492.4940, 38.96973
492.9761, 39.01514
493.4582, 39.17326
493.9403, 39.26204
494.4224, 39.16625
494.9045, 38.96207
495.3867, 38.83141
495.8688, 38.74033
496.3509, 38.77821
496.8330, 39.16124
497.3151, 39.57202
497.7972, 39.59704
498.2794, 39.23357
498.7615, 38.85484
499.2436, 38.78236
499.7257, 38.99928
500.2078, 39.19874
500.6899, 39.43631
501.1721, 39.58781
501.6542, 39.55493
502.1363, 39.46434
502.6184, 39.48436
503.1005, 39.64486
503.5826, 39.79206
504.0648, 39.68167
504.5469, 39.26477
505.0290, 39.09126
505.5111, 39.32651
505.9932, 39.61187
506.4753, 39.88007
506.9575, 40.08360
507.4396, 40.12416
507.9217, 39.92513
508.4038, 39.68951
508.8859, 39.67856
509.3680, 39.88138
509.8502, 40.10717
510.3323, 40.33989
510.8144, 40.54432
511.2965, 40.68916
511.7786, 40.77850
512.2607, 40.82056
512.7429, 40.75456
513.2250, 40.69147
513.7071, 40.76595
514.1892, 40.93927
514.6713, 41.03336
515.1534, 40.95760
515.6356, 40.79604
516.1177, 40.71132
516.5998, 40.72274
517.0819, 40.77569
517.5640, 41.00210
518.0461, 41.16105
518.5283, 41.01215
519.0104, 40.63332
519.4925, 40.30645
519.9746, 40.22269
520.4567, 40.31410
520.9388, 40.33154
521.4210, 40.25910
521.9031, 40.13671
522.3852, 39.87564
522.8673, 39.64243
523.3494, 39.59122
523.8315, 39.70403
524.3137, 39.81465
524.7958, 39.77637
525.2779, 39.63780
525.7600, 39.57092
526.2421, 39.58708
526.7242, 39.63253
527.2064, 39.70181
527.6885, 39.77891
528.1706, 39.85889
528.6527, 39.95361
529.1348, 39.98150
529.6169, 39.90388
530.0991, 39.73199
530.5812, 39.43593
531.0633, 39.01631
531.5454, 38.65479
532.0275, 38.49926
532.5096, 38.51714
532.9918, 38.48528
533.4739, 38.26342
533.9560, 38.17774
534.4381, 38.48845
534.9202, 38.86553
535.4023, 38.89360
535.8845, 38.53064
536.3666, 38.11420
536.8487, 38.02211
537.3308, 38.25248
537.8129, 38.12787
538.2951, 37.17318
538.7772, 36.48711
539.2593, 36.41791
539.7415, 36.67535
540.2236, 36.99734
540.7057, 37.30821
541.1878, 37.57276
541.6699, 37.76458
542.1520, 37.88186
542.6342, 37.90047
543.1163, 37.78889
543.5984, 37.64976
544.0805, 37.51480
544.5626, 37.40538
545.0447, 37.37524
545.5269, 37.47898
546.0090, 37.57233
546.4911, 37.54218
546.9732, 37.44984
547.4553, 37.40523
547.9374, 37.43181
548.4196, 37.52825
548.9017, 37.72062
549.3838, 38.01503
549.8659, 38.13343
550.3480, 38.00270
550.8301, 37.81804
551.3123, 37.56632
551.7944, 37.32026
552.2765, 37.16127
552.7586, 37.11151
553.2407, 37.14137
553.7228, 37.22556
554.2050, 37.36674
554.6871, 37.51006
555.1692, 37.62091
555.6513, 37.78643
556.1334, 38.12919
556.6155, 38.50031
557.0977, 38.68270
557.5798, 38.59888
558.0619, 38.47857
558.5440, 38.59637
559.0261, 38.85855
559.5082, 38.86919
559.9904, 38.51831
560.4725, 38.17075
560.9546, 38.12165
561.4367, 38.32080
561.9188, 38.45494
562.4009, 38.36342
562.8831, 38.40520
563.3652, 38.84027
563.8473, 39.43713
564.3294, 39.87666
564.8115, 40.09360
565.2936, 40.22085
565.7758, 40.39204
566.2579, 40.60821
566.7400, 40.74590
567.2221, 40.59072
567.7042, 40.62263
568.1863, 41.16558
568.6685, 41.79707
569.1506, 42.04044
569.6327, 41.81515
570.1148, 41.48151
570.5969, 41.43990
571.0790, 41.61877
571.5612, 41.51328
572.0433, 40.98661
572.5254, 40.55535
573.0075, 40.57655
573.4896, 40.81611
573.9717, 40.94102
574.4539, 40.92756
574.9360, 40.79496
575.4181, 40.41455
575.9002, 39.98380
576.3823, 39.83460
576.8644, 39.97770
577.3466, 40.09375
577.8287, 39.93180
578.3108, 39.57563
578.7929, 39.43856
579.2750, 39.74436
579.7571, 39.98198
580.2393, 40.12214
580.7214, 40.18737
581.2035, 40.15450
581.6856, 40.05401
582.1677, 39.99041
582.6498, 40.06279
583.1320, 40.21024
583.6141, 40.20869
584.0962, 40.01450
584.5783, 39.82197
585.0604, 39.73153
585.5425, 39.62243
586.0247, 39.34769
586.5068, 38.92304
586.9889, 38.58277
587.4710, 38.52383
587.9531, 38.53959
588.4352, 38.37460
588.9174, 38.05258
589.3995, 37.73214
589.8816, 37.47621
590.3637, 37.27435
590.8458, 37.10992
591.3279, 36.99713
591.8101, 36.88480
592.2922, 36.77132
592.7743, 36.65934
593.2564, 36.54742
593.7385, 36.43872
594.2206, 36.34605
594.7028, 36.27605
595.1849, 36.20079
595.6670, 36.06688
596.1491, 35.86456
596.6312, 35.67024
597.1133, 35.43559
597.5955, 35.28223
598.0776, 35.28841
598.5597, 35.40920
599.0418, 35.56588
599.5239, 35.75306
600.0060, 35.93840
600.4882, 36.15322
600.9703, 36.34127
601.4524, 36.31107
601.9345, 36.01575
602.4166, 35.73495
602.8987, 35.72624
603.3809, 35.96820
603.8630, 36.14756
604.3451, 36.32669
604.8272, 36.37380
605.3093, 36.08164
605.7914, 35.75861
606.2736, 35.76787
606.7557, 36.10796
607.2378, 36.43906
607.7199, 36.45566
608.2020, 36.23037
608.6841, 36.11897
609.1663, 36.13950
609.6484, 36.22343
610.1305, 36.41045
610.6126, 36.61139
611.0947, 36.75815
611.5768, 36.84772
612.0590, 36.89224
612.5411, 36.83251
613.0232, 36.77573
613.5053, 36.87592
613.9874, 37.10057
614.4695, 37.28730
614.9517, 37.37024
615.4338, 37.38372
615.9159, 37.38920
616.3980, 37.41198
616.8801, 37.33066
617.3622, 37.04188
617.8444, 36.76960
618.3265, 36.57583
618.8086, 36.47100
619.2907, 36.50180
619.7728, 36.68033
620.2549, 36.85006
620.7371, 36.78184
621.2192, 36.48626
621.7013, 36.25766
622.1834, 36.16834
622.6655, 36.01158
623.1476, 35.52306
623.6298, 34.93786
624.1119, 34.68538
624.5940, 34.92827
625.0761, 35.11315
625.5582, 34.87209
626.0403, 34.49832
626.5225, 34.40859
627.0046, 34.59694
627.4867, 34.73972
627.9688, 34.62410
628.4509, 34.32374
628.9330, 34.07191
629.4152, 33.85810
629.8973, 33.71926
630.3794, 33.64369
630.8615, 33.64343
631.3436, 33.81786
631.8257, 34.06939
632.3079, 34.16220
632.7900, 33.95372
633.2721, 33.61779
633.7542, 33.37739
634.2363, 33.22695
634.7184, 33.11216
635.2006, 33.00715
635.6827, 32.99084
636.1648, 33.22902
636.6469, 33.65135
637.1291, 33.74706
637.6112, 33.06717
638.0933, 32.60100
638.5754, 32.90081
639.0576, 33.45456
639.5397, 33.65982
640.0218, 33.45220
640.5039, 33.15559
640.9860, 33.02082
641.4681, 33.03078
641.9503, 33.12548
642.4324, 33.39973
642.9145, 33.51918
643.3966, 33.21529
643.8787, 32.88818
644.3608, 32.83213
644.8430, 33.01009
645.3251, 33.17573
645.8072, 33.25853
646.2893, 33.25583
646.7714, 33.06305
647.2535, 32.77340
647.7357, 32.73473
648.2178, 33.06152
648.6999, 33.48079
649.1820, 33.69276
649.6641, 33.69058
650.1462, 33.63958
650.6284, 33.43121
651.1105, 33.31195
651.5926, 33.41911
652.0747, 33.58570
652.5568, 33.64768
653.0389, 33.58252
653.5211, 33.46348
654.0032, 33.28979
654.4853, 33.13277
654.9674, 33.26476
655.4495, 33.72417
655.9316, 34.02072
656.4138, 33.91612
656.8959, 33.66790
657.3780, 33.64342
657.8601, 33.83582
658.3422, 33.89962
658.8243, 33.57896
659.3065, 33.33548
659.7886, 33.47728
660.2707, 33.85009
660.7528, 34.25611
661.2349, 34.61079
661.7170, 34.79901
662.1992, 34.62538
662.6813, 34.11615
663.1634, 33.91933
663.6455, 34.17576
664.1276, 34.46563
664.6097, 34.72448
665.0919, 34.91267
665.5740, 34.96278
666.0561, 34.87777
666.5382, 34.79588
667.0203, 34.71746
667.5024, 34.71833
667.9846, 34.97794
668.4667, 35.39939
668.9488, 35.63046
669.4309, 35.53384
669.9130, 35.31522
670.3951, 35.26339
670.8773, 35.42163
671.3594, 35.39508
671.8415, 34.92402
672.3236, 34.57283
672.8057, 34.61139
673.2878, 34.74109
673.7700, 34.60719
674.2521, 34.17451
674.7342, 33.75370
675.2163, 33.62181
675.6984, 33.64840
676.1805, 33.53867
676.6627, 33.29950
677.1448, 33.16253
677.6269, 33.23450
678.1090, 33.39611
678.5911, 33.47963
679.0732, 33.46198
679.5554, 33.50198
680.0375, 33.64265
680.5196, 33.78983
681.0017, 33.97093
681.4838, 34.10776
681.9659, 34.05770
682.4481, 33.81530
682.9302, 33.58160
683.4123, 33.56495
683.8944, 33.70675
684.3765, 33.74871
684.8586, 33.65968
685.3408, 33.67794
685.8229, 34.00757
686.3050, 34.34151
686.7871, 34.14791
687.2692, 33.44616
687.7513, 33.13723
688.2335, 33.82722
688.7156, 34.44160
689.1977, 34.29010
689.6798, 33.72695
690.1619, 33.26854
690.6440, 33.06410
691.1262, 33.05089
691.6083, 33.20257
692.0904, 33.48637
692.5725, 33.66013
693.0546, 33.68575
693.5367, 33.71279
694.0189, 33.81176
694.5010, 33.90155
694.9831, 33.82515
695.4652, 33.62846
695.9473, 33.67373
696.4294, 34.31394
696.9116, 34.98380
697.3937, 35.29957
697.8758, 35.36980
698.3579, 35.37672
698.8400, 35.37108
699.3221, 35.33822
699.8043, 35.24046
700.2864, 35.11145
700.7685, 35.24072
701.2506, 35.82370
701.7327, 36.24815
702.2148, 36.34215
702.6970, 36.27879
703.1791, 36.06102
703.6612, 35.75981
704.1433, 35.61827
704.6254, 35.85894
705.1075, 36.11303
705.5897, 35.95190
706.0718, 35.61045
706.5539, 35.67733
707.0360, 36.23098
707.5181, 36.69456
708.0002, 36.55970
708.4824, 35.98411
708.9645, 35.77748
709.4466, 36.18029
709.9287, 36.49443
710.4108, 36.54781
710.8929, 36.60484
711.3751, 36.89892
711.8572, 37.31195
712.3393, 37.51311
712.8214, 37.32077
713.3035, 37.05593
713.7856, 36.99615
714.2678, 37.06755
714.7499, 37.10630
715.2320, 37.09333
715.7141, 37.12031
716.1962, 37.26091
716.6783, 37.45815
717.1605, 37.53029
717.6426, 37.33363
718.1247, 37.29437
718.6068, 37.65219
719.0889, 37.91012
719.5710, 37.70513
720.0532, 37.28781
720.5353, 37.10842
721.0174, 37.31758
721.4995, 37.63395
721.9816, 37.92410
722.4637, 38.13217
722.9459, 38.06656
723.4280, 37.74825
723.9101, 37.56211
724.3922, 37.72107
724.8743, 38.03747
725.3564, 38.15488
725.8386, 38.00971
726.3207, 37.89417
726.8028, 37.74479
727.2849, 37.69664
727.7670, 37.93130
728.2491, 38.21765
728.7313, 38.23500
729.2134, 37.93853
729.6955, 37.65591
730.1776, 37.68534
730.6597, 37.83255
731.1418, 37.77515
731.6240, 37.54243
732.1061, 37.31656
732.5882, 37.15571
733.0703, 37.06802
733.5524, 37.08551
734.0345, 37.21815
734.5167, 37.21801
734.9988, 36.99464
735.4809, 36.75087
735.9631, 36.51365
736.4452, 36.27210
736.9273, 35.96004
737.4094, 35.61908
737.8915, 35.43142
738.3737, 35.58155
738.8558, 35.80539
739.3379, 35.85106
739.8200, 35.72774
740.3021, 35.38902
740.7842, 34.82912
741.2664, 34.38552
741.7485, 34.36832
742.2306, 34.65637
742.7127, 34.64360
743.1948, 34.04758
743.6769, 33.66536
744.1591, 33.66669
744.6412, 33.75352
745.1233, 33.80565
745.6054, 33.82176
746.0875, 33.83036
746.5696, 33.85158
747.0518, 33.81688
747.5339, 33.63469
748.0160, 33.37849
748.4981, 33.16541
748.9802, 33.00384
749.4623, 32.87950
749.9445, 32.78830
750.4266, 32.70191
750.9087, 32.55291
751.3908, 32.30167
751.8729, 32.17971
752.3550, 32.28390
752.8372, 32.39085
753.3193, 32.40775
753.8014, 32.40382
754.2835, 32.46790
754.7656, 32.60812
755.2477, 32.72538
755.7299, 32.84547
756.2120, 32.86105
756.6941, 32.54164
757.1762, 32.05212
757.6583, 31.83727
758.1404, 32.00224
758.6226, 32.19786
759.1047, 32.04937
759.5868, 31.63760
760.0689, 31.53767
760.5510, 31.88181
761.0331, 32.19297
761.5153, 32.43409
761.9974, 32.56248
762.4795, 32.54255
762.9616, 32.39087
763.4437, 32.14400
763.9258, 31.68253
764.4080, 31.35316
764.8901, 31.43176
765.3722, 31.66255
765.8543, 31.73993
766.3364, 31.67638
766.8185, 31.67785
767.3007, 31.86228
767.7828, 32.08810
768.2649, 32.07676
768.7470, 31.81637
769.2291, 31.62665
769.7112, 31.49453
770.1934, 31.51063
770.6755, 31.85935
771.1576, 32.29039
771.6397, 32.34254
772.1218, 31.95559
772.6039, 31.66361
773.0861, 31.62963
773.5682, 31.62712
774.0503, 31.50613
774.5324, 31.35592
775.0145, 31.29595
775.4966, 31.35728
775.9788, 31.53023
776.4609, 31.86746
776.9430, 32.25325
777.4251, 32.40423
777.9072, 32.32352
778.3893, 32.12642
778.8715, 31.79338
779.3536, 31.52041
779.8357, 31.50463
780.3178, 31.70226
780.7999, 31.81359
781.2820, 31.75325
781.7642, 31.73182
782.2463, 31.83730
782.7284, 31.91110
783.2105, 31.75299
783.6926, 31.50685
784.1747, 31.51752
784.6569, 31.93582
785.1390, 32.34254
785.6211, 32.30785
786.1032, 32.02290
786.5853, 31.83996
787.0674, 31.77326
787.5496, 31.74172
788.0317, 31.70928
788.5138, 31.71234
788.9959, 31.80979
789.4780, 32.00927
789.9601, 32.20663
790.4423, 32.52666
790.9244, 32.63951
791.4065, 32.21220
791.8886, 31.75542
792.3707, 31.72788
792.8528, 32.07376
793.3350, 32.35468
793.8171, 32.42708
794.2992, 32.40324
794.7813, 32.31161
795.2634, 32.18801
795.7455, 32.03689
796.2277, 31.89322
796.7098, 31.89310
797.1919, 32.13089
797.6740, 32.47349
798.1561, 32.69752
798.6382, 32.80560
799.1204, 32.66691
799.6025, 32.14513
800.0846, 31.75071
800.5667, 31.78455
801.0488, 32.05934
801.5309, 32.24820
802.0131, 32.34206
802.4952, 32.43487
802.9773, 32.51400
803.4594, 32.61801
803.9415, 32.82491
804.4236, 33.03100
804.9058, 33.08934
805.3879, 32.99904
805.8700, 32.89777
806.3521, 32.86843
806.8342, 32.89251
807.3163, 32.96203
807.7985, 33.06387
808.2806, 33.15871
808.7627, 33.24089
809.2448, 33.23156
809.7269, 33.04582
810.2090, 32.77319
810.6912, 32.70335
811.1733, 32.97221
811.6554, 33.11811
812.1375, 32.98057
812.6196, 32.90380
813.1017, 33.09996
813.5839, 33.39056
814.0660, 33.52860
814.5481, 33.47711
815.0302, 33.40918
815.5123, 33.43037
815.9944, 33.43205
816.4766, 33.31614
816.9587, 33.12110
817.4408, 32.89131
817.9229, 32.65445
818.4050, 32.48487
818.8871, 32.44834
819.3693, 32.51554
819.8514, 32.63405
820.3335, 32.80870
820.8156, 32.90284
821.2977, 32.87667
821.7798, 32.83360
822.2620, 32.89014
822.7441, 32.95782
823.2262, 32.74553
823.7083, 31.98024
824.1904, 31.57016
824.6725, 31.78210
825.1547, 32.08350
825.6368, 32.25436
826.1189, 32.35929
826.6010, 32.55297
827.0831, 32.84206
827.5652, 32.98021
828.0474, 32.59563
828.5295, 32.14224
829.0116, 32.26434
829.4937, 32.74595
829.9758, 33.01827
830.4579, 32.96831
830.9401, 32.84176
831.4222, 32.82328
831.9043, 32.88265
832.3864, 32.94463
832.8685, 33.02640
833.3506, 33.00390
833.8328, 32.77171
834.3149, 32.61698
834.7971, 32.78210
835.2792, 33.08287
835.7613, 33.17965
836.2434, 33.03627
836.7255, 32.89038
837.2076, 32.74952
837.6898, 32.64757
838.1719, 32.59459
838.6540, 32.59341
839.1361, 32.73441
839.6182, 32.96281
840.1003, 32.96806
840.5825, 32.43806
841.0646, 31.78553
841.5467, 31.62463
842.0288, 31.81068
842.5109, 31.86657
842.9930, 31.73242
843.4752, 31.65292
843.9573, 31.79084
844.4394, 32.02059
844.9215, 32.06106
845.4036, 31.86251
845.8857, 31.73068
846.3679, 31.70597
846.8500, 31.67373
847.3321, 31.50847
847.8142, 31.37683
848.2963, 31.54342
848.7784, 31.98299
849.2606, 32.17631
849.7427, 31.79954
850.2248, 31.44143
850.7069, 31.33992
851.1890, 31.36393
851.6711, 31.38221
852.1533, 31.39706
852.6354, 31.50396
853.1175, 31.76871
853.5996, 31.99589
854.0817, 31.91978
854.5638, 31.64223
855.0460, 31.39872
855.5281, 31.20998
856.0102, 31.15135
856.4923, 31.26733
856.9744, 31.38394
857.4565, 31.25217
857.9387, 30.88683
858.4208, 30.72955
858.9029, 30.85311
859.3850, 31.01533
859.8671, 31.26998
860.3492, 31.43937
860.8314, 31.28454
861.3135, 30.95079
861.7956, 30.85882
862.2777, 31.20413
862.7598, 31.42539
863.2419, 31.25564
863.7241, 31.03615
864.2062, 30.94403
864.6883, 30.98574
865.1704, 31.20904
865.6525, 31.59359
866.1346, 31.86551
866.6168, 31.77241
867.0989, 31.46975
867.5810, 31.11284
868.0631, 30.75409
868.5452, 30.63149
869.0273, 30.77716
869.5095, 30.88995
869.9916, 30.73553
870.4737, 30.44448
870.9558, 30.38409
871.4379, 30.61928
871.9200, 30.69143
872.4022, 30.47211
872.8843, 30.35228
873.3664, 30.64516
873.8485, 31.02167
874.3306, 30.89935
874.8127, 30.25163
875.2949, 29.92892
875.7770, 30.30319
876.2591, 30.59763
876.7412, 30.55229
877.2233, 30.36644
877.7054, 30.14617
878.1876, 29.94963
878.6697, 29.86987
879.1518, 29.95868
879.6339, 30.10721
880.1160, 30.31261
880.5981, 30.47260
881.0803, 30.37648
881.5624, 30.10086
882.0445, 29.93180
882.5266, 29.96334
883.0087, 30.05024
883.4908, 30.04017
883.9730, 29.96258
884.4551, 29.93812
884.9372, 29.97017
885.4193, 30.00030
885.9014, 30.02347
886.3835, 30.01903
886.8657, 29.95350
887.3478, 29.86525
887.8299, 29.86629
888.3120, 30.01488
888.7941, 30.09644
889.2762, 30.05146
889.7584, 30.01268
890.2405, 30.05453
890.7226, 30.09798
891.2047, 30.05325
891.6868, 29.92330
892.1689, 29.78799
892.6511, 29.63084
893.1332, 29.53023
893.6153, 29.61244
894.0974, 29.70807
894.5795, 29.54906
895.0616, 29.24264
895.5438, 29.12720
896.0259, 29.34143
896.5080, 29.72819
896.9901, 30.25978
897.4722, 30.78819
897.9543, 30.92330
898.4365, 30.71104
898.9186, 30.39266
899.4007, 30.03441
899.8828, 29.79172
900.3649, 29.82358
900.8470, 30.03844
901.3292, 30.10128
901.8113, 29.98365
902.2934, 29.82493
902.7755, 29.52678
903.2576, 29.45092
903.7397, 30.01104
904.2219, 30.71960
904.7040, 30.67628
905.1861, 29.72114
905.6682, 29.24107
906.1503, 29.72025
906.6324, 30.06455
907.1146, 29.90616
907.5967, 29.60041
908.0788, 29.36490
908.5609, 29.24082
909.0430, 29.30178
909.5251, 29.65746
910.0073, 29.84843
910.4894, 29.36345
910.9715, 28.78964
911.4536, 28.76584
911.9357, 29.10530
912.4178, 29.41699
912.9000, 29.57148
913.3821, 29.52479
913.8642, 29.16786
914.3463, 28.71185
914.8284, 28.59086
915.3105, 28.72968
915.7927, 28.76527
916.2748, 28.65331
916.7569, 28.61501
917.2390, 28.78768
917.7211, 29.01304
918.2032, 29.01101
918.6854, 28.77011
919.1675, 28.60065
919.6496, 28.47175
920.1317, 28.53663
920.6138, 28.99439
921.0959, 29.42112
921.5781, 29.41168
922.0602, 29.05564
922.5423, 28.78658
923.0244, 28.57968
923.5065, 28.49830
923.9886, 28.65290
924.4708, 28.81101
924.9529, 28.82301
925.4350, 28.80750
925.9171, 28.92954
926.3992, 29.19776
926.8813, 29.46876
927.3635, 29.84892
927.8456, 30.02295
928.3277, 29.64087
928.8098, 29.07861
929.2919, 28.69239
929.7740, 28.51840
930.2562, 28.47986
930.7383, 28.54761
931.2204, 28.79648
931.7025, 29.56337
932.1846, 30.42329
932.6667, 30.45526
933.1489, 29.85757
933.6310, 29.36641
934.1132, 29.15636
934.5953, 29.10639
935.0774, 29.14306
935.5595, 29.21218
936.0416, 29.16018
936.5237, 28.98498
937.0059, 28.96611
937.4880, 29.16294
937.9701, 29.21866
938.4522, 28.93322
938.9343, 28.59077
939.4164, 28.54491
939.8986, 28.77355
940.3807, 28.88295
940.8628, 28.79440
941.3449, 28.74023
941.8270, 28.71558
942.3091, 28.76079
942.7913, 28.95594
943.2734, 29.20721
943.7555, 29.36228
944.2376, 29.40412
944.7197, 29.43031
945.2018, 29.53355
945.6840, 29.52636
946.1661, 29.13783
946.6482, 28.76845
947.1303, 28.89056
947.6124, 29.35352
948.0945, 29.62809
948.5767, 29.52077
949.0588, 29.29052
949.5409, 28.96936
950.0230, 28.71378
950.5051, 28.69674
950.9872, 28.85552
951.4694, 29.14471
951.9515, 29.49533
952.4336, 29.64602
952.9157, 29.38010
953.3978, 28.93653
953.8799, 28.55611
954.3621, 28.29505
954.8442, 28.38862
955.3263, 28.79407
955.8084, 29.13146
956.2905, 29.25003
956.7726, 29.25308
957.2548, 29.24193
957.7369, 29.22644
958.2190, 29.26809
958.7011, 29.37310
959.1832, 29.40924
959.6653, 29.36044
960.1475, 29.19834
960.6296, 28.84598
961.1117, 28.48847
961.5938, 28.49825
962.0759, 28.93308
962.5580, 29.15693
963.0402, 29.01624
963.5223, 28.99345
964.0044, 29.31304
964.4865, 29.63390
964.9686, 29.68006
965.4507, 29.52316
965.9329, 29.38226
966.4150, 29.22939
966.8971, 29.16847
967.3792, 29.26151
967.8613, 29.38085
968.3434, 29.51923
968.8256, 29.63318
969.3077, 29.66548
969.7898, 29.63118
970.2719, 29.61802
970.7540, 29.69243
971.2361, 29.69760
971.7183, 29.51615
972.2004, 29.29108
972.6825, 29.05603
973.1646, 28.89158
973.6467, 28.93970
974.1288, 29.20288
974.6110, 29.50454
975.0931, 29.81808
975.5752, 30.00072
976.0573, 29.82230
976.5394, 29.48568
977.0215, 29.25941
977.5037, 29.16272
977.9858, 29.15315
978.4679, 29.21132
978.9500, 29.31767
979.4321, 29.48511
979.9142, 29.65621
980.3964, 29.70774
980.8785, 29.66173
981.3606, 29.59219
981.8427, 29.51086
982.3248, 29.38139
982.8069, 29.17596
983.2891, 29.04184
983.7712, 29.27847
984.2533, 29.79383
984.7354, 29.86251
985.2175, 29.46995
985.6996, 29.12228
986.1818, 28.90967
986.6639, 28.90474
987.1460, 29.22018
987.6281, 29.63760
988.1102, 29.61062
988.5923, 29.03719
989.0745, 28.80399
989.5566, 29.02393
990.0387, 29.25310
990.5208, 29.38555
991.0029, 29.46172
991.4850, 29.51864
991.9672, 29.54564
992.4493, 29.49402
992.9314, 29.29406
993.4135, 29.18661
993.8956, 29.34362
994.3777, 29.36161
994.8599, 28.85698
995.3420, 28.35622
995.8241, 28.44415
996.3062, 29.01139
996.7883, 29.38724
997.2704, 29.50889
997.7526, 29.45535
998.2347, 29.00964
998.7168, 28.64746
999.1989, 28.63356
999.6810, 28.81780
1000.163, 29.04804
1000.645, 29.29308
1001.127, 29.49090
1001.609, 29.69103
1002.092, 29.73219
1002.574, 29.32395
1003.056, 28.94831
1003.538, 29.05836
1004.020, 29.44070
1004.502, 29.74689
1004.984, 29.89260
1005.466, 29.89404
1005.949, 29.60518
1006.431, 29.39471
1006.913, 29.68875
1007.395, 30.09578
1007.877, 30.12066
1008.359, 29.86230
1008.841, 29.64432
1009.323, 29.57162
1009.805, 29.58353
1010.288, 29.63374
1010.770, 29.74504
1011.252, 30.03166
1011.734, 30.35956
1012.216, 30.45759
1012.698, 30.34657
1013.180, 30.21830
1013.662, 30.15275
1014.145, 30.10148
1014.627, 29.99771
1015.109, 29.88985
1015.591, 29.93473
1016.073, 30.05539
1016.555, 29.90997
1017.037, 29.51799
1017.519, 29.38909
1018.001, 29.78527
1018.484, 30.26938
1018.966, 30.19214
1019.448, 29.76876
1019.930, 29.85781
1020.412, 30.38827
1020.894, 30.68892
1021.376, 30.64576
1021.858, 30.55630
1022.341, 30.59135
1022.823, 30.66844
1023.305, 30.66825
1023.787, 30.59026
1024.269, 30.37498
1024.751, 30.00379
1025.233, 29.89153
1025.715, 30.15665
1026.198, 30.42279
1026.680, 30.45095
1027.162, 30.33725
1027.644, 30.24574
1028.126, 30.17514
1028.608, 30.21945
1029.090, 30.42973
1029.572, 30.48322
1030.054, 30.23890
1030.536, 30.04779
1031.019, 30.17858
1031.501, 30.48481
1031.983, 30.67985
1032.465, 30.78223
1032.947, 30.57063
1033.429, 29.83470
1033.911, 29.34110
1034.393, 29.32837
1034.876, 29.46438
1035.358, 29.52609
1035.840, 29.56065
1036.322, 29.69294
1036.804, 29.96513
1037.286, 30.13058
1037.768, 30.12349
1038.250, 30.12921
1038.733, 30.21692
1039.215, 30.29247
1039.697, 30.28296
1040.179, 30.21227
1040.661, 30.11714
1041.143, 29.93166
1041.625, 29.96563
1042.107, 30.45582
1042.589, 30.84025
1043.072, 30.98438
1043.554, 31.01349
1044.036, 30.98610
1044.518, 30.91284
1045.000, 30.80702
1045.482, 30.65083
1045.964, 30.53826
1046.446, 30.39814
1046.928, 30.40757
1047.411, 30.81203
1047.893, 31.19459
1048.375, 31.23732
1048.857, 31.02420
1049.339, 30.73589
1049.821, 30.33276
1050.303, 30.14847
1050.785, 30.45744
1051.268, 30.69674
1051.750, 30.51719
1052.232, 30.35543
1052.714, 30.74036
1053.196, 31.36793
1053.678, 31.44653
1054.160, 30.74421
1054.642, 30.32262
1055.125, 30.74783
1055.607, 31.07610
1056.089, 30.81241
1056.571, 30.44597
1057.053, 30.37240
1057.535, 30.51850
1058.017, 30.67695
1058.499, 30.81376
1058.981, 30.93283
1059.464, 31.16304
1059.946, 31.20990
1060.428, 30.72318
1060.910, 30.21083
1061.392, 30.14085
1061.874, 30.36493
1062.356, 30.54760
1062.838, 30.62589
1063.320, 30.58251
1063.803, 30.30555
1064.285, 30.04275
1064.767, 29.86558
1065.249, 29.78431
1065.731, 29.85631
1066.213, 30.01245
1066.695, 30.09679
1067.177, 30.08221
1067.660, 30.19076
1068.142, 30.78460
1068.624, 31.16472
1069.106, 30.77981
1069.588, 30.25398
1070.070, 30.08327
1070.552, 30.17322
1071.034, 30.28967
1071.516, 30.38378
1071.999, 30.48670
1072.481, 30.65660
1072.963, 30.77788
1073.445, 30.68979
1073.927, 30.63387
1074.409, 30.95243
1074.891, 31.37686
1075.373, 31.39458
1075.855, 30.96852
1076.338, 30.62124
1076.820, 30.53711
1077.302, 30.61371
1077.784, 30.97406
1078.266, 31.30469
1078.748, 31.30735
1079.230, 31.14395
1079.712, 31.08318
1080.195, 31.14560
1080.677, 31.15467
1081.159, 30.97607
1081.641, 30.88117
1082.123, 31.06935
1082.605, 31.31361
1083.087, 31.50504
1083.569, 31.61447
1084.052, 31.58817
1084.534, 31.45130
1085.016, 31.33030
1085.498, 31.26972
1085.980, 31.22277
1086.462, 31.21014
1086.944, 31.15813
1087.426, 30.90710
1087.908, 30.66735
1088.391, 30.75879
1088.873, 31.09899
1089.355, 31.30472
1089.837, 31.23912
1090.319, 31.15972
1090.801, 31.12111
1091.283, 31.15590
1091.765, 31.40300
1092.248, 31.63659
1092.730, 31.57675
1093.212, 31.31448
1093.694, 31.13220
1094.176, 31.09692
1094.658, 31.12627
1095.140, 31.15333
1095.622, 31.28712
1096.104, 31.79181
1096.587, 32.23177
1097.069, 32.11818
1097.551, 31.68399
1098.033, 31.45256
1098.515, 31.52052
1098.997, 31.60560
1099.479, 31.70962
1099.961, 31.70388
1100.443, 31.39726
1100.926, 31.11538
1101.408, 31.10876
1101.890, 31.27351
1102.372, 31.46486
1102.854, 31.65736
1103.336, 31.75629
1103.818, 31.66401
1104.300, 31.58816
1104.783, 31.56124
1105.265, 31.57604
1105.747, 31.66712
1106.229, 31.77241
1106.711, 31.79633
1107.193, 31.75207
1107.675, 31.77264
1108.157, 31.91069
1108.640, 32.04398
1109.122, 32.17051
1109.604, 32.27284
1110.086, 32.38352
1110.568, 32.43554
1111.050, 32.34485
1111.532, 32.13980
1112.014, 31.92255
1112.496, 31.65811
1112.979, 31.49083
1113.461, 31.44086
1113.943, 31.47073
1114.425, 31.64944
1114.907, 31.82711
1115.389, 31.90389
1115.871, 31.90159
1116.353, 31.86197
1116.835, 31.77634
1117.318, 31.70107
1117.800, 31.56758
1118.282, 31.58139
1118.764, 31.91678
1119.246, 32.18196
1119.728, 32.09565
1120.210, 31.87684
1120.692, 31.86583
1121.175, 32.05785
1121.657, 32.20004
1122.139, 32.26778
1122.621, 32.36994
1123.103, 32.57796
1123.585, 32.65593
1124.067, 32.45161
1124.549, 32.17405
1125.031, 32.04666
1125.514, 32.04938
1125.996, 32.11187
1126.478, 32.27196
1126.960, 32.22248
1127.442, 31.83901
1127.924, 31.84114
1128.406, 32.55550
1128.888, 33.26942
1129.370, 33.41809
1129.853, 33.17064
1130.335, 32.85023
1130.817, 32.45690
1131.299, 32.45985
1131.781, 32.88506
1132.263, 33.13607
1132.745, 33.08852
1133.227, 32.96552
1133.710, 32.89341
1134.192, 32.82772
1134.674, 32.67649
1135.156, 32.49604
1135.638, 32.54453
1136.120, 32.79469
1136.602, 33.05527
1137.084, 33.29738
1137.567, 33.48232
1138.049, 33.59508
1138.531, 33.65941
1139.013, 33.69928
1139.495, 33.70140
1139.977, 33.58531
1140.459, 33.42509
1140.941, 33.48111
1141.423, 33.69544
1141.906, 33.79568
1142.388, 33.72121
1142.870, 33.58173
1143.352, 33.43575
1143.834, 33.31754
1144.316, 33.31317
1144.798, 33.32774
1145.280, 33.16750
1145.762, 32.93506
1146.245, 32.80189
1146.727, 32.81060
1147.209, 33.01919
1147.691, 33.44813
1148.173, 33.85090
1148.655, 34.13993
1149.137, 34.21635
1149.619, 33.79033
1150.102, 33.26709
1150.584, 33.09697
1151.066, 33.21688
1151.548, 33.46827
1152.030, 33.78426
1152.512, 33.99541
1152.994, 33.94148
1153.476, 33.94505
1153.958, 34.32720
1154.441, 34.63776
1154.923, 34.54378
1155.405, 34.22609
1155.887, 33.79924
1156.369, 33.36711
1156.851, 33.21470
1157.333, 33.47638
1157.815, 33.69593
1158.297, 33.66884
1158.780, 33.73018
1159.262, 34.14916
1159.744, 34.53086
1160.226, 34.51766
1160.708, 34.30059
1161.190, 34.25845
1161.672, 34.41227
1162.154, 34.49599
1162.637, 34.44902
1163.119, 34.44994
1163.601, 34.56863
1164.083, 34.63208
1164.565, 34.53659
1165.047, 34.39944
1165.529, 34.31743
1166.011, 34.30918
1166.494, 34.47453
1166.976, 34.87260
1167.458, 35.14806
1167.940, 35.28834
1168.422, 35.35698
1168.904, 35.35588
1169.386, 35.36904
1169.868, 35.46533
1170.350, 35.55134
1170.833, 35.44938
1171.315, 35.20437
1171.797, 35.10281
1172.279, 35.12638
1172.761, 35.02772
1173.243, 34.79595
1173.725, 34.67468
1174.207, 34.75872
1174.689, 35.02877
1175.172, 35.54546
1175.654, 35.99917
1176.136, 35.66860
1176.618, 34.95432
1177.100, 34.80368
1177.582, 35.07909
1178.064, 35.28914
1178.546, 35.33466
1179.029, 35.31345
1179.511, 35.26765
1179.993, 35.26930
1180.475, 35.35770
1180.957, 35.54690
1181.439, 36.08580
1181.921, 36.55685
1182.403, 36.18949
1182.885, 35.40265
1183.368, 35.24464
1183.850, 35.87926
1184.332, 36.40784
1184.814, 36.43327
1185.296, 36.33931
1185.778, 36.12519
1186.260, 36.01738
1186.742, 36.30092
1187.225, 36.64684
1187.707, 36.63519
1188.189, 36.36925
1188.671, 36.30992
1189.153, 36.59502
1189.635, 36.71695
1190.117, 36.49873
1190.599, 36.33721
1191.082, 36.30907
1191.564, 36.32327
1192.046, 36.31617
1192.528, 36.34801
1193.010, 36.54451
1193.492, 36.86145
1193.974, 36.90006
1194.456, 36.58827
1194.938, 36.35038
1195.421, 36.17767
1195.903, 36.30965
1196.385, 36.87452
1196.867, 37.34676
1197.349, 37.32563
1197.831, 37.01302
1198.313, 36.69886
1198.795, 36.42998
1199.277, 36.54876
1199.760, 36.94530
1200.242, 36.97538
1200.724, 36.63237
1201.206, 36.44812
1201.688, 36.61301
1202.170, 36.82158
1202.652, 36.79462
1203.134, 36.76108
1203.617, 37.10678
1204.099, 37.55367
1204.581, 37.70045
1205.063, 37.64214
1205.545, 37.56104
1206.027, 37.50162
1206.509, 37.48501
1206.991, 37.52787
1207.474, 37.49734
1207.956, 37.18830
1208.438, 36.96479
1208.920, 37.12241
1209.402, 37.33226
1209.884, 37.30608
1210.366, 37.17221
1210.848, 37.16714
1211.330, 37.28802
1211.813, 37.31371
1212.295, 37.10770
1212.777, 37.03677
1213.259, 37.12902
1213.741, 37.33953
1214.223, 37.82946
1214.705, 38.15052
1215.187, 37.92135
1215.669, 37.41969
1216.152, 37.15466
1216.634, 37.11053
1217.116, 36.99836
1217.598, 36.79392
1218.080, 36.89314
1218.562, 37.35701
1219.044, 37.60829
1219.526, 37.43885
1220.009, 37.28689
1220.491, 37.52622
1220.973, 37.89999
1221.455, 37.94056
1221.937, 37.77997
1222.419, 37.76070
1222.901, 37.82813
1223.383, 37.80293
1223.865, 37.69651
1224.348, 37.66496
1224.830, 37.75371
1225.312, 37.81193
1225.794, 37.69962
1226.276, 37.59298
1226.758, 37.62370
1227.240, 37.72218
1227.722, 37.84968
1228.204, 37.99053
1228.687, 38.16766
1229.169, 38.34158
1229.651, 38.38697
1230.133, 38.26200
1230.615, 38.11893
1231.097, 37.92956
1231.579, 37.80716
1232.061, 37.84877
1232.544, 37.86035
1233.026, 37.66072
1233.508, 37.50588
1233.990, 37.74350
1234.472, 38.24229
1234.954, 38.42110
1235.436, 38.21107
1235.918, 38.16072
1236.401, 38.27996
1236.883, 38.47659
1237.365, 38.73725
1237.847, 38.92715
1238.329, 38.97368
1238.811, 38.93245
1239.293, 38.86396
1239.775, 38.75681
1240.257, 38.51268
1240.740, 38.24409
1241.222, 38.25171
1241.704, 38.45850
1242.186, 38.63941
1242.668, 38.74121
1243.150, 38.78240
1243.632, 38.76917
1244.114, 38.72627
1244.596, 38.55545
1245.079, 38.50549
1245.561, 38.92786
1246.043, 39.34543
1246.525, 39.33333
1247.007, 39.05738
1247.489, 38.65247
1247.971, 38.21928
1248.453, 38.28809
1248.936, 39.34081
1249.418, 39.80168
1249.900, 39.22660
1250.382, 38.91663
1250.864, 39.28034
1251.346, 39.60958
1251.828, 39.43659
1252.310, 39.21053
1252.792, 39.59912
1253.275, 40.36595
1253.757, 40.43861
1254.239, 39.89233
1254.721, 39.71291
1255.203, 39.89231
1255.685, 39.93980
1256.167, 39.76616
1256.649, 39.63569
1257.131, 39.68594
1257.614, 39.79121
1258.096, 39.86348
1258.578, 39.87883
1259.060, 39.72571
1259.542, 39.56940
1260.024, 39.58748
1260.506, 39.77173
1260.988, 40.20207
1261.471, 40.76342
1261.953, 40.99100
1262.435, 40.67471
1262.917, 40.43791
1263.399, 40.55260
1263.881, 40.59837
1264.363, 40.30313
1264.845, 40.11095
1265.328, 40.29657
1265.810, 40.64307
1266.292, 40.95704
1266.774, 41.19818
1267.256, 41.14807
1267.738, 40.75118
1268.220, 40.69055
1268.702, 40.97945
1269.184, 41.18140
1269.667, 41.21764
1270.149, 41.16446
1270.631, 41.05861
1271.113, 41.03338
1271.595, 41.26786
1272.077, 41.51976
1272.559, 41.32180
1273.041, 40.99095
1273.523, 41.04789
1274.006, 41.30456
1274.488, 41.39529
1274.970, 41.32431
1275.452, 41.26341
1275.934, 41.25916
1276.416, 41.34819
1276.898, 41.70450
1277.380, 41.91256
1277.863, 41.76332
1278.345, 41.56189
1278.827, 41.37425
1279.309, 41.27365
1279.791, 41.33580
1280.273, 41.51860
1280.755, 41.74984
1281.237, 42.02731
1281.719, 42.13253
1282.202, 42.04486
1282.684, 42.08717
1283.166, 42.29055
1283.648, 42.51033
1284.130, 42.69564
1284.612, 42.76588
1285.094, 42.65340
1285.576, 42.51803
1286.059, 42.61576
1286.541, 42.75945
1287.023, 42.74979
1287.505, 42.59121
##END=



