##NAMES=Priderite
##RRUFFID=R130169
##IDEAL CHEMISTRY=K(Ti^4+^_7_Fe^3+^)O_16_
##LOCALITY=Vounnemiok River, Kola Peninsula, Russia
##OWNER=RRUFF
##SOURCE=Rock Currier
##DESCRIPTION=Black prismatic crystals and massive in quartz
##STATUS=The identification of this mineral is confirmed by single-crystal X-ray diffraction and chemical analysis.
##URL=rruff.info/R130169
##MEASURED CHEMISTRY=K_1.40_Ba_0.01_(Ti^4+^_7.13_Fe^3+^_0.68_)O_16_
89.84375, 276.4352
90.32587, 278.7659
90.80798, 279.1917
91.29010, 276.8820
91.77222, 273.6343
92.25433, 271.9001
92.73645, 271.5229
93.21857, 270.8794
93.70068, 268.3960
94.18280, 264.4958
94.66492, 260.5565
95.14703, 256.9327
95.62915, 253.6073
96.11127, 250.3935
96.59338, 247.2888
97.07550, 244.4113
97.55762, 241.8765
98.03973, 239.6769
98.52185, 237.7520
99.00397, 236.1067
99.48608, 234.7393
99.96820, 233.6299
100.4503, 233.1018
100.9324, 232.4389
101.4146, 229.8244
101.8967, 224.5225
102.3788, 219.3047
102.8609, 215.5993
103.3430, 213.7942
103.8251, 212.4189
104.3073, 211.6459
104.7894, 211.2770
105.2715, 210.2554
105.7536, 208.2737
106.2357, 205.9693
106.7178, 203.7251
107.2000, 201.4282
107.6821, 199.3933
108.1642, 197.8792
108.6463, 196.9654
109.1284, 195.4667
109.6105, 193.1884
110.0927, 190.4022
110.5748, 187.3871
111.0569, 183.0283
111.5390, 179.4925
112.0211, 177.5807
112.5032, 177.8754
112.9854, 177.7192
113.4675, 176.7076
113.9496, 175.0525
114.4317, 173.0398
114.9138, 169.5741
115.3959, 166.6388
115.8781, 165.4564
116.3602, 167.4588
116.8423, 168.5581
117.3244, 166.7552
117.8065, 162.8967
118.2886, 159.1381
118.7708, 156.0044
119.2529, 153.5182
119.7350, 151.7785
120.2171, 151.1679
120.6992, 150.8709
121.1813, 150.6626
121.6635, 150.4578
122.1456, 149.7781
122.6277, 147.7224
123.1098, 145.1511
123.5919, 143.2166
124.0740, 143.1082
124.5562, 143.3408
125.0383, 142.1039
125.5204, 139.4032
126.0025, 136.6918
126.4846, 135.3843
126.9667, 135.0641
127.4489, 134.6896
127.9310, 133.6446
128.4131, 132.2685
128.8952, 131.2897
129.3773, 130.7883
129.8594, 130.3735
130.3416, 129.4856
130.8237, 128.1935
131.3058, 126.9394
131.7879, 126.0383
132.2700, 125.4037
132.7521, 124.5732
133.2343, 123.4316
133.7164, 122.2184
134.1985, 121.4303
134.6806, 121.1057
135.1627, 120.6933
135.6448, 119.7664
136.1270, 118.3130
136.6091, 116.9314
137.0912, 115.6150
137.5733, 114.4619
138.0554, 113.9299
138.5375, 114.3159
139.0197, 114.4492
139.5018, 113.0606
139.9839, 109.5868
140.4660, 107.1767
140.9481, 106.7133
141.4302, 108.0032
141.9124, 108.4186
142.3945, 107.7060
142.8766, 106.4755
143.3587, 105.2354
143.8408, 103.7989
144.3229, 102.7779
144.8051, 102.4956
145.2872, 103.1287
145.7693, 103.0878
146.2514, 101.9164
146.7335, 100.3584
147.2156, 99.37390
147.6978, 99.57632
148.1799, 99.60802
148.6620, 99.08749
149.1441, 97.79219
149.6262, 96.55185
150.1083, 95.23620
150.5905, 94.01232
151.0726, 93.17491
151.5547, 93.23682
152.0368, 93.24986
152.5189, 92.91992
153.0010, 92.06923
153.4832, 91.17307
153.9653, 90.06198
154.4474, 88.91358
154.9295, 88.15440
155.4116, 88.35799
155.8937, 88.58480
156.3759, 88.39598
156.8580, 87.37496
157.3401, 86.41586
157.8222, 85.65042
158.3043, 85.06974
158.7864, 84.64071
159.2686, 84.45351
159.7507, 84.35748
160.2328, 84.25788
160.7149, 84.22331
161.1970, 84.09074
161.6791, 83.72494
162.1613, 83.17280
162.6434, 82.70914
163.1255, 82.62382
163.6076, 82.60481
164.0897, 82.37418
164.5718, 81.56463
165.0540, 80.75224
165.5361, 80.23142
166.0182, 79.99557
166.5003, 79.85225
166.9824, 79.91955
167.4645, 79.95879
167.9467, 79.67722
168.4288, 78.66297
168.9109, 77.49350
169.3930, 76.62003
169.8751, 76.06737
170.3572, 75.47676
170.8394, 74.31734
171.3215, 72.96714
171.8036, 72.07879
172.2857, 72.41419
172.7678, 73.09003
173.2499, 73.13994
173.7321, 72.42610
174.2142, 71.68127
174.6963, 71.73669
175.1784, 72.25320
175.6605, 72.42757
176.1426, 71.59702
176.6248, 70.26793
177.1069, 69.03001
177.5890, 67.87720
178.0711, 67.05329
178.5532, 67.13529
179.0353, 67.86684
179.5175, 68.32653
179.9996, 67.71982
180.4817, 66.52798
180.9638, 65.69034
181.4459, 65.36752
181.9280, 65.27650
182.4102, 65.04897
182.8923, 64.71144
183.3744, 64.40437
183.8565, 64.11935
184.3386, 63.92612
184.8207, 64.11728
185.3029, 64.88264
185.7850, 65.76957
186.2671, 66.02102
186.7492, 65.65318
187.2313, 65.06961
187.7134, 64.43523
188.1956, 63.78209
188.6777, 63.29082
189.1598, 62.98462
189.6419, 62.85421
190.1240, 62.98566
190.6061, 63.39762
191.0883, 63.69770
191.5704, 63.51824
192.0525, 62.90496
192.5346, 62.30706
193.0167, 61.75448
193.4988, 61.25706
193.9810, 60.81720
194.4631, 60.40400
194.9452, 60.13317
195.4273, 59.91085
195.9094, 59.73436
196.3915, 59.42891
196.8737, 58.91825
197.3558, 58.27858
197.8379, 57.81813
198.3200, 57.59398
198.8021, 57.30395
199.2842, 56.57496
199.7664, 55.37083
200.2485, 54.43768
200.7306, 53.98483
201.2127, 53.91935
201.6948, 53.72195
202.1769, 53.37519
202.6591, 52.96150
203.1412, 52.54345
203.6233, 52.11109
204.1054, 51.70904
204.5875, 51.25597
205.0696, 50.80101
205.5518, 50.96503
206.0339, 51.98869
206.5160, 53.07938
206.9981, 53.30546
207.4802, 52.45027
207.9623, 51.76386
208.4445, 51.60482
208.9266, 51.94233
209.4087, 52.06418
209.8908, 51.94133
210.3729, 51.66502
210.8550, 51.26024
211.3372, 50.62200
211.8193, 50.24113
212.3014, 50.31707
212.7835, 50.84886
213.2656, 51.21314
213.7477, 51.42292
214.2299, 51.45229
214.7120, 51.22167
215.1941, 50.61061
215.6762, 50.07306
216.1583, 49.73402
216.6404, 49.60629
217.1226, 49.47116
217.6047, 49.35243
218.0868, 49.19825
218.5689, 48.91723
219.0510, 48.41660
219.5331, 48.00218
220.0153, 47.72984
220.4974, 47.59658
220.9795, 47.66587
221.4616, 48.08854
221.9437, 48.55827
222.4258, 48.65811
222.9080, 48.18080
223.3901, 47.78405
223.8722, 47.69449
224.3543, 47.96868
224.8364, 48.01770
225.3185, 47.69860
225.8007, 47.28636
226.2828, 47.13708
226.7649, 47.36497
227.2470, 47.63192
227.7291, 47.86842
228.2112, 48.08829
228.6934, 48.17473
229.1755, 48.02554
229.6576, 47.83149
230.1397, 47.88567
230.6218, 48.44838
231.1039, 48.77699
231.5861, 48.61101
232.0682, 47.85054
232.5503, 47.29917
233.0324, 47.04046
233.5145, 46.92188
233.9966, 46.72461
234.4788, 46.29058
234.9609, 46.07200
235.4430, 46.27159
235.9251, 46.99146
236.4072, 47.38979
236.8893, 47.28350
237.3715, 47.00686
237.8536, 47.01007
238.3357, 47.56586
238.8178, 47.91430
239.2999, 47.77307
239.7820, 47.03859
240.2642, 46.62339
240.7463, 46.67914
241.2284, 46.92396
241.7105, 47.00791
242.1926, 46.82285
242.6747, 46.67162
243.1569, 46.62974
243.6390, 46.70744
244.1211, 46.82412
244.6032, 47.06540
245.0853, 47.27140
245.5674, 47.21761
246.0496, 46.67034
246.5317, 46.30492
247.0138, 46.36095
247.4959, 46.90376
247.9780, 47.10335
248.4601, 46.80116
248.9423, 46.31870
249.4244, 46.00282
249.9065, 45.90291
250.3886, 45.87970
250.8707, 45.95466
251.3528, 46.14048
251.8350, 46.11707
252.3171, 45.77346
252.7992, 45.34242
253.2813, 45.06921
253.7634, 45.03503
254.2455, 44.98280
254.7277, 44.83363
255.2098, 44.58293
255.6919, 44.47246
256.1740, 44.56889
256.6561, 44.72010
257.1382, 44.77446
257.6204, 44.68388
258.1025, 44.61430
258.5846, 44.60714
259.0667, 44.65796
259.5488, 44.68040
260.0309, 44.69420
260.5131, 44.65149
260.9952, 44.46292
261.4773, 43.99672
261.9594, 43.77409
262.4415, 44.01044
262.9236, 44.63014
263.4058, 44.78909
263.8879, 44.31369
264.3700, 43.67640
264.8521, 43.20887
265.3342, 42.91255
265.8163, 42.81451
266.2985, 43.01465
266.7806, 43.42804
267.2627, 43.54628
267.7448, 43.27942
268.2269, 42.90269
268.7090, 42.61314
269.1912, 42.42913
269.6733, 42.23343
270.1554, 41.98893
270.6375, 41.72602
271.1196, 41.61401
271.6017, 41.72364
272.0839, 41.78792
272.5660, 41.56947
273.0481, 40.99848
273.5302, 40.61090
274.0123, 40.49825
274.4944, 40.57210
274.9766, 40.56744
275.4587, 40.46272
275.9408, 40.36525
276.4229, 40.37536
276.9050, 40.51143
277.3871, 40.50781
277.8693, 40.29424
278.3514, 39.99078
278.8335, 39.89375
279.3156, 40.03862
279.7977, 40.17511
280.2798, 40.16998
280.7620, 40.02295
281.2441, 39.80662
281.7262, 39.49863
282.2083, 39.16816
282.6904, 38.88749
283.1725, 38.64581
283.6547, 38.60120
284.1368, 38.99860
284.6189, 39.77175
285.1010, 40.10461
285.5831, 39.89557
286.0652, 39.48236
286.5474, 39.40210
287.0295, 39.64607
287.5116, 39.78502
287.9937, 39.55302
288.4758, 39.02415
288.9579, 38.62510
289.4401, 38.34780
289.9222, 38.21022
290.4043, 38.31577
290.8864, 38.63015
291.3685, 38.87468
291.8506, 38.89471
292.3328, 38.77144
292.8149, 38.76192
293.2970, 38.87561
293.7791, 38.98476
294.2612, 38.90351
294.7433, 38.68860
295.2255, 38.57316
295.7076, 38.69019
296.1897, 38.92348
296.6718, 39.05657
297.1539, 39.09034
297.6360, 39.06120
298.1182, 38.92939
298.6003, 38.75519
299.0824, 38.69639
299.5645, 38.84717
300.0466, 39.07729
300.5287, 39.20931
301.0109, 39.25127
301.4930, 39.26273
301.9751, 39.29301
302.4572, 39.32022
302.9393, 39.29049
303.4214, 39.14746
303.9036, 39.02703
304.3857, 39.06504
304.8678, 39.24695
305.3499, 39.52333
305.8320, 39.98394
306.3141, 40.47523
306.7963, 40.79697
307.2784, 40.89654
307.7605, 40.89396
308.2426, 40.83014
308.7247, 40.73619
309.2068, 40.68697
309.6890, 40.71079
310.1711, 40.80037
310.6532, 40.97145
311.1353, 41.24204
311.6174, 41.49784
312.0995, 41.66255
312.5817, 41.76108
313.0638, 41.83691
313.5459, 41.89637
314.0280, 41.94781
314.5101, 41.97785
314.9922, 41.98149
315.4744, 42.04023
315.9565, 42.23326
316.4386, 42.49080
316.9207, 42.73070
317.4028, 42.90904
317.8849, 43.08538
318.3671, 43.33104
318.8492, 43.63896
319.3313, 43.81531
319.8134, 43.57154
320.2955, 43.28625
320.7776, 43.26269
321.2598, 43.83758
321.7419, 44.38961
322.2240, 44.81424
322.7061, 45.10937
323.1882, 45.27197
323.6703, 45.13335
324.1525, 44.97683
324.6346, 44.96163
325.1167, 45.23891
325.5988, 45.47292
326.0809, 45.55072
326.5630, 45.55685
327.0452, 45.72362
327.5273, 46.36962
328.0094, 46.91332
328.4915, 47.11268
328.9736, 46.69984
329.4557, 46.53768
329.9379, 46.78357
330.4200, 47.23124
330.9021, 47.54686
331.3842, 47.65447
331.8663, 47.73188
332.3484, 47.80941
332.8306, 47.87409
333.3127, 48.01477
333.7948, 48.27181
334.2769, 48.56908
334.7590, 48.82944
335.2411, 49.07517
335.7233, 49.23952
336.2054, 49.30431
336.6875, 49.27272
337.1696, 49.18187
337.6517, 49.03318
338.1339, 48.82555
338.6160, 48.47759
339.0981, 47.88688
339.5802, 47.69567
340.0623, 48.13377
340.5444, 48.97311
341.0266, 49.42017
341.5087, 49.43843
341.9908, 49.27231
342.4729, 48.97607
342.9550, 48.55325
343.4371, 48.39383
343.9193, 48.59283
344.4014, 48.94799
344.8835, 49.07630
345.3656, 48.97961
345.8477, 48.89331
346.3298, 49.04532
346.8120, 49.33231
347.2941, 49.21147
347.7762, 48.60519
348.2583, 47.94390
348.7404, 47.79391
349.2225, 48.05206
349.7047, 48.27826
350.1868, 48.26693
350.6689, 48.13526
351.1510, 48.10542
351.6331, 48.17489
352.1152, 48.22293
352.5974, 48.14106
353.0795, 47.96729
353.5616, 47.76923
354.0437, 47.55278
354.5258, 47.33632
355.0079, 47.08384
355.4901, 46.82597
355.9722, 46.69261
356.4543, 46.96012
356.9364, 47.30066
357.4185, 47.34475
357.9006, 46.92832
358.3828, 46.47969
358.8649, 46.30493
359.3470, 46.28926
359.8291, 46.19828
360.3112, 45.74041
360.7933, 45.31858
361.2755, 45.24012
361.7576, 45.59433
362.2397, 45.83171
362.7218, 45.62243
363.2039, 45.22874
363.6860, 44.94340
364.1682, 45.02431
364.6503, 45.04622
365.1324, 44.83133
365.6145, 44.38763
366.0966, 44.00837
366.5787, 43.76069
367.0609, 43.58079
367.5430, 43.42785
368.0251, 43.36369
368.5072, 43.24781
368.9893, 43.01232
369.4714, 42.71023
369.9536, 42.52604
370.4357, 42.55947
370.9178, 42.60667
371.3999, 42.60586
371.8820, 42.60910
372.3641, 42.40868
372.8463, 41.85009
373.3284, 41.19168
373.8105, 40.84121
374.2926, 40.89848
374.7747, 41.04468
375.2568, 41.22440
375.7390, 41.43917
376.2211, 41.55924
376.7032, 41.60648
377.1853, 41.51390
377.6674, 41.12888
378.1495, 40.39505
378.6317, 39.87594
379.1138, 39.73082
379.5959, 39.83598
380.0780, 39.81877
380.5601, 39.67422
381.0422, 39.46227
381.5244, 39.16152
382.0065, 38.80507
382.4886, 38.63152
382.9707, 38.71599
383.4528, 38.83511
383.9349, 38.61428
384.4171, 38.11320
384.8992, 37.66152
385.3813, 37.40399
385.8634, 37.29895
386.3455, 37.29689
386.8276, 37.39980
387.3098, 37.52814
387.7919, 37.65065
388.2740, 37.74660
388.7561, 37.77714
389.2382, 37.68853
389.7203, 37.56971
390.2025, 37.49856
390.6846, 37.46471
391.1667, 37.41850
391.6488, 37.24231
392.1309, 37.09155
392.6130, 37.13517
393.0952, 37.54327
393.5773, 37.83911
394.0594, 37.70824
394.5415, 37.33529
395.0236, 37.06271
395.5057, 37.11092
395.9879, 37.17783
396.4700, 37.13853
396.9521, 36.96863
397.4342, 36.79548
397.9163, 36.52970
398.3984, 36.32164
398.8806, 36.30841
399.3627, 36.70503
399.8448, 37.06429
400.3269, 37.41084
400.8090, 37.71368
401.2911, 37.71510
401.7733, 37.17430
402.2554, 36.61723
402.7375, 36.32832
403.2196, 36.43139
403.7017, 36.48494
404.1838, 36.43843
404.6660, 36.37538
405.1481, 36.49455
405.6302, 36.87231
406.1123, 37.15189
406.5944, 37.17520
407.0765, 36.95559
407.5587, 36.74905
408.0408, 36.52104
408.5229, 36.42904
409.0050, 36.79437
409.4871, 37.56529
409.9692, 37.98234
410.4514, 37.74753
410.9335, 37.21682
411.4156, 37.17625
411.8977, 37.58622
412.3798, 37.98339
412.8619, 37.97699
413.3441, 37.75331
413.8262, 37.69886
414.3083, 37.88663
414.7904, 38.09468
415.2725, 38.09437
415.7546, 37.95530
416.2368, 37.82128
416.7189, 37.78196
417.2010, 37.75708
417.6831, 37.66249
418.1652, 37.50416
418.6473, 37.38312
419.1295, 37.38245
419.6116, 37.43058
420.0937, 37.45716
420.5758, 37.36251
421.0579, 37.36464
421.5400, 37.68751
422.0222, 38.16453
422.5043, 38.39363
422.9864, 38.03251
423.4685, 37.62408
423.9506, 37.35164
424.4327, 37.22817
424.9149, 37.24986
425.3970, 37.50375
425.8791, 37.85101
426.3612, 38.16442
426.8433, 38.46738
427.3254, 38.69837
427.8076, 38.87439
428.2897, 38.97993
428.7718, 38.84742
429.2539, 38.32620
429.7360, 37.87371
430.2181, 37.82904
430.7003, 38.27757
431.1824, 38.55514
431.6645, 38.60408
432.1466, 38.52480
432.6287, 38.42817
433.1108, 38.31203
433.5930, 38.34779
434.0751, 38.70050
434.5572, 39.24317
435.0393, 39.55227
435.5214, 39.62519
436.0035, 39.57437
436.4857, 39.37779
436.9678, 39.13511
437.4499, 39.11359
437.9320, 39.45523
438.4141, 39.86882
438.8962, 40.05963
439.3784, 40.06311
439.8605, 39.98373
440.3426, 39.78582
440.8247, 39.58677
441.3068, 39.48325
441.7889, 39.48757
442.2711, 39.54520
442.7532, 39.69764
443.2353, 39.86103
443.7174, 39.94833
444.1995, 39.78183
444.6816, 39.69724
445.1638, 39.80577
445.6459, 40.08000
446.1280, 40.39366
446.6101, 40.93993
447.0922, 41.34694
447.5743, 41.42926
448.0565, 41.05124
448.5386, 40.68395
449.0207, 40.26170
449.5028, 39.89390
449.9849, 39.74286
450.4670, 39.89377
450.9492, 40.06795
451.4313, 40.20371
451.9134, 40.31105
452.3955, 40.49079
452.8776, 40.78649
453.3597, 40.99590
453.8419, 40.85756
454.3240, 40.38847
454.8061, 40.32653
455.2882, 40.83679
455.7703, 41.49880
456.2524, 41.61114
456.7346, 41.25099
457.2167, 40.92652
457.6988, 40.89869
458.1809, 41.01881
458.6630, 41.04132
459.1451, 40.96869
459.6273, 40.84957
460.1094, 40.66807
460.5915, 40.48100
461.0736, 40.36842
461.5557, 40.36955
462.0378, 40.39724
462.5200, 40.41429
463.0021, 40.41666
463.4842, 40.39576
463.9663, 40.22465
464.4484, 40.13707
464.9305, 40.33904
465.4127, 40.86516
465.8948, 41.17038
466.3769, 40.89101
466.8590, 40.50088
467.3411, 40.34477
467.8232, 40.86251
468.3054, 41.04917
468.7875, 40.67692
469.2696, 39.98834
469.7517, 39.59430
470.2338, 39.64930
470.7159, 39.71566
471.1981, 39.61754
471.6802, 39.34377
472.1623, 39.19112
472.6444, 39.16789
473.1265, 39.24567
473.6086, 39.47706
474.0908, 39.85627
474.5729, 40.01539
475.0550, 39.83494
475.5371, 39.48469
476.0192, 39.26678
476.5013, 39.16893
476.9835, 39.10323
477.4656, 39.06391
477.9477, 39.00927
478.4298, 38.83852
478.9119, 38.54376
479.3940, 38.27690
479.8762, 38.20028
480.3583, 38.21003
480.8404, 38.16130
481.3225, 37.92337
481.8046, 37.73921
482.2867, 37.83874
482.7689, 38.09732
483.2510, 38.19319
483.7331, 37.80401
484.2152, 37.41626
484.6973, 37.27534
485.1794, 37.45994
485.6616, 37.56553
486.1437, 37.49183
486.6258, 37.36583
487.1079, 37.28444
487.5900, 37.28540
488.0721, 37.26072
488.5543, 37.18275
489.0364, 37.07785
489.5185, 37.03667
490.0006, 37.08918
490.4827, 37.10626
490.9648, 36.98159
491.4470, 36.72952
491.9291, 36.71680
492.4112, 36.98775
492.8933, 37.28516
493.3754, 37.36724
493.8575, 37.25600
494.3397, 37.01056
494.8218, 36.58041
495.3039, 36.14846
495.7860, 35.97390
496.2681, 36.01737
496.7502, 36.14341
497.2324, 36.37349
497.7145, 36.59459
498.1966, 36.70405
498.6787, 36.69685
499.1608, 36.61567
499.6429, 36.37518
500.1251, 36.12718
500.6072, 36.00243
501.0893, 36.10168
501.5714, 36.22913
502.0535, 36.44221
502.5356, 36.65080
503.0178, 36.65080
503.4999, 36.18430
503.9820, 35.77032
504.4641, 35.54197
504.9462, 35.50359
505.4283, 35.51791
505.9105, 35.61068
506.3926, 35.71761
506.8747, 35.78868
507.3568, 35.81822
507.8389, 35.85750
508.3210, 35.92046
508.8032, 35.97783
509.2853, 36.00372
509.7674, 35.99361
510.2495, 35.86689
510.7316, 35.46317
511.2137, 34.97347
511.6959, 34.83808
512.1780, 35.03881
512.6601, 35.32782
513.1422, 35.62467
513.6243, 35.86255
514.1064, 35.93644
514.5886, 35.79544
515.0707, 35.61109
515.5528, 35.45777
516.0349, 35.33726
516.5170, 35.24925
516.9991, 35.19417
517.4813, 35.17244
517.9634, 35.20058
518.4455, 35.27178
518.9276, 35.32920
519.4097, 35.45271
519.8918, 35.48223
520.3740, 35.32600
520.8561, 34.88942
521.3382, 34.57370
521.8203, 34.39834
522.3024, 34.32021
522.7845, 34.30212
523.2667, 34.35495
523.7488, 34.40778
524.2309, 34.45749
524.7130, 34.48773
525.1951, 34.40382
525.6772, 34.21049
526.1594, 34.12775
526.6415, 34.43652
527.1236, 34.91663
527.6057, 35.01406
528.0878, 34.70771
528.5699, 34.36499
529.0521, 34.27858
529.5342, 34.34512
530.0163, 34.44550
530.4984, 34.60577
530.9805, 34.68738
531.4626, 34.57214
531.9448, 34.32672
532.4269, 34.08123
532.9090, 33.81942
533.3911, 33.61311
533.8732, 33.48230
534.3553, 33.43003
534.8375, 33.44845
535.3196, 33.66674
535.8017, 33.82436
536.2838, 33.73639
536.7659, 33.21074
537.2480, 33.00465
537.7302, 33.23397
538.2123, 33.63210
538.6944, 33.78587
539.1765, 33.67709
539.6586, 33.61295
540.1407, 33.71386
540.6229, 33.88089
541.1050, 33.86075
541.5871, 33.66825
542.0692, 33.44706
542.5513, 33.22732
543.0334, 33.05726
543.5156, 33.04407
543.9977, 33.20039
544.4798, 33.35421
544.9619, 33.37720
545.4440, 33.33465
545.9261, 33.29429
546.4083, 33.24491
546.8904, 33.24095
547.3725, 33.35495
547.8546, 33.52299
548.3367, 33.61158
548.8188, 33.48657
549.3010, 33.40146
549.7831, 33.45619
550.2652, 33.64682
550.7473, 33.68972
551.2294, 33.52381
551.7115, 33.31327
552.1937, 33.13625
552.6758, 32.98560
553.1579, 32.96044
553.6400, 33.09362
554.1221, 33.27506
554.6042, 33.34175
555.0864, 33.31516
555.5685, 33.33385
556.0506, 33.46595
556.5327, 33.62814
557.0148, 33.70356
557.4969, 33.70569
557.9791, 33.68594
558.4612, 33.59140
558.9433, 33.54293
559.4254, 33.71519
559.9075, 34.12478
560.3896, 34.37928
560.8718, 34.05891
561.3539, 33.67920
561.8360, 33.64104
562.3181, 34.48641
562.8002, 34.92886
563.2823, 34.59371
563.7645, 33.95773
564.2466, 33.77631
564.7287, 34.29543
565.2108, 34.71600
565.6929, 34.83074
566.1750, 34.71006
566.6572, 34.65820
567.1393, 34.67522
567.6214, 34.76287
568.1035, 35.00830
568.5856, 35.33491
569.0677, 35.39516
569.5499, 35.15928
570.0320, 34.93439
570.5141, 35.10979
570.9962, 35.46452
571.4783, 35.61636
571.9604, 35.37262
572.4426, 35.11689
572.9247, 35.14341
573.4068, 35.32158
573.8889, 35.41818
574.3710, 35.24836
574.8531, 35.09426
575.3353, 35.04797
575.8174, 35.10830
576.2995, 35.20501
576.7816, 35.35298
577.2637, 35.51582
577.7458, 35.68733
578.2280, 35.87640
578.7101, 36.01289
579.1922, 36.07670
579.6743, 36.13192
580.1564, 36.29742
580.6385, 36.55864
581.1207, 36.62203
581.6028, 36.37939
582.0849, 36.04586
582.5670, 35.93018
583.0491, 35.99560
583.5313, 36.11936
584.0134, 36.29161
584.4955, 36.46174
584.9776, 36.53759
585.4597, 36.54865
585.9418, 36.66006
586.4240, 37.18359
586.9061, 37.64936
587.3882, 37.72844
587.8703, 37.24440
588.3524, 36.92571
588.8345, 37.00000
589.3167, 37.18028
589.7988, 37.23919
590.2809, 37.08844
590.7630, 37.02363
591.2451, 37.09075
591.7272, 37.22810
592.2094, 37.33895
592.6915, 37.42536
593.1736, 37.43685
593.6557, 37.33113
594.1378, 37.15626
594.6199, 36.98991
595.1021, 36.84267
595.5842, 36.78898
596.0663, 36.92590
596.5484, 37.15802
597.0305, 37.39497
597.5126, 37.63063
597.9948, 37.83072
598.4769, 38.02342
598.9590, 38.14313
599.4411, 38.12537
599.9232, 37.84749
600.4053, 37.61324
600.8875, 37.44488
601.3696, 37.35464
601.8517, 37.37775
602.3338, 37.60375
602.8159, 37.76842
603.2980, 37.82954
603.7802, 37.79384
604.2623, 37.66646
604.7444, 37.43853
605.2265, 37.20250
605.7086, 36.95022
606.1907, 36.72720
606.6729, 36.74889
607.1550, 37.00936
607.6371, 37.24390
608.1192, 37.14717
608.6013, 36.93391
609.0834, 36.90224
609.5656, 37.13827
610.0477, 37.39763
610.5298, 37.65468
611.0119, 37.81857
611.4940, 37.78899
611.9761, 37.25457
612.4583, 36.87038
612.9404, 36.80856
613.4225, 36.94807
613.9046, 37.03331
614.3867, 37.06246
614.8688, 37.03648
615.3510, 36.93704
615.8331, 36.77980
616.3152, 36.66430
616.7973, 36.59319
617.2794, 36.53381
617.7615, 36.45043
618.2437, 36.36237
618.7258, 36.34328
619.2079, 36.39951
619.6900, 36.43403
620.1721, 36.30877
620.6542, 36.13506
621.1364, 36.05848
621.6185, 36.14263
622.1006, 36.25724
622.5827, 36.40592
623.0648, 36.53344
623.5469, 36.56250
624.0291, 36.38097
624.5112, 36.22024
624.9933, 36.11808
625.4754, 36.06043
625.9575, 36.00454
626.4396, 35.95744
626.9218, 35.89025
627.4039, 35.76826
627.8860, 35.61321
628.3681, 35.56924
628.8502, 35.63900
629.3323, 35.74434
629.8145, 35.86754
630.2966, 35.97438
630.7787, 35.94671
631.2608, 35.75530
631.7429, 35.67329
632.2250, 36.05538
632.7072, 36.58479
633.1893, 36.91492
633.6714, 36.82514
634.1535, 36.75457
634.6356, 36.79399
635.1177, 36.92810
635.5999, 37.14625
636.0820, 37.64384
636.5641, 37.88487
637.0462, 37.63940
637.5283, 37.11721
638.0104, 37.06404
638.4926, 37.55009
638.9747, 38.05928
639.4568, 38.39127
639.9389, 38.56796
640.4210, 38.61635
640.9031, 38.54462
641.3853, 38.47973
641.8674, 38.45887
642.3495, 38.52462
642.8316, 38.76416
643.3137, 39.20612
643.7958, 39.63204
644.2780, 39.93481
644.7601, 40.17564
645.2422, 40.40400
645.7243, 40.61116
646.2064, 40.83414
646.6885, 41.10884
647.1707, 41.37901
647.6528, 41.56147
648.1349, 41.63691
648.6170, 41.68781
649.0991, 41.72425
649.5812, 41.75011
650.0634, 41.74825
650.5455, 41.72570
651.0276, 41.78319
651.5097, 41.99474
651.9918, 42.29901
652.4739, 42.65007
652.9561, 43.02406
653.4382, 43.32036
653.9203, 43.43856
654.4024, 43.48405
654.8845, 43.51354
655.3666, 43.52895
655.8488, 43.57117
656.3309, 43.65524
656.8130, 43.76558
657.2951, 43.89821
657.7772, 44.07931
658.2593, 44.21826
658.7415, 44.32830
659.2236, 44.37510
659.7057, 44.30888
660.1878, 44.13185
660.6699, 43.88330
661.1520, 43.52787
661.6342, 43.22308
662.1163, 43.26320
662.5984, 43.53902
663.0805, 43.76401
663.5626, 43.83594
664.0447, 43.80219
664.5269, 43.59429
665.0090, 43.29685
665.4911, 43.15169
665.9732, 43.48195
666.4553, 43.73298
666.9374, 43.63885
667.4196, 43.22924
667.9017, 42.94448
668.3838, 42.80582
668.8659, 42.75001
669.3480, 42.77038
669.8301, 42.86549
670.3123, 42.93116
670.7944, 42.97788
671.2765, 42.91279
671.7586, 42.50727
672.2407, 41.94888
672.7228, 41.71928
673.2050, 41.93192
673.6871, 42.13831
674.1692, 41.89975
674.6513, 41.50816
675.1334, 41.32055
675.6155, 41.68883
676.0977, 41.86629
676.5798, 41.52449
677.0619, 40.94501
677.5440, 40.54893
678.0261, 40.42155
678.5082, 40.30343
678.9904, 40.13812
679.4725, 39.96571
679.9546, 39.90804
680.4367, 39.96771
680.9188, 40.00627
681.4009, 39.94603
681.8831, 39.84132
682.3652, 39.79360
682.8473, 39.79432
683.3294, 39.80188
683.8115, 39.89653
684.2936, 39.90841
684.7758, 39.66288
685.2579, 39.15415
685.7400, 38.68913
686.2221, 38.28988
686.7042, 38.01180
687.1863, 37.88467
687.6685, 37.93452
688.1506, 38.05074
688.6327, 38.29332
689.1148, 38.48336
689.5969, 38.42256
690.0790, 38.12809
690.5612, 37.88142
691.0433, 37.71589
691.5254, 37.57335
692.0075, 37.31721
692.4896, 37.05284
692.9717, 37.00518
693.4539, 37.36363
693.9360, 37.69432
694.4181, 37.80791
694.9002, 37.71602
695.3823, 37.43563
695.8644, 36.61370
696.3466, 36.05423
696.8287, 35.97107
697.3108, 36.19390
697.7929, 36.28480
698.2750, 36.21638
698.7571, 36.11749
699.2393, 36.00580
699.7214, 35.90704
700.2035, 35.97633
700.6856, 36.18143
701.1677, 36.23349
701.6498, 35.77107
702.1320, 35.18330
702.6141, 34.93422
703.0962, 35.00306
703.5783, 35.10395
704.0604, 35.16520
704.5425, 35.16911
705.0247, 35.09144
705.5068, 34.91189
705.9889, 34.74493
706.4710, 34.57525
706.9531, 34.43798
707.4352, 34.39323
707.9174, 34.46375
708.3995, 34.32355
708.8816, 33.91955
709.3637, 33.53644
709.8458, 33.56655
710.3279, 33.84236
710.8101, 33.92418
711.2922, 33.69993
711.7743, 33.43225
712.2564, 33.31395
712.7385, 33.26870
713.2206, 33.20014
713.7028, 32.94349
714.1849, 32.85782
714.6670, 33.18731
715.1491, 33.65327
715.6312, 33.88861
716.1133, 33.85184
716.5955, 33.67116
717.0776, 33.30496
717.5597, 32.88183
718.0418, 32.72067
718.5239, 32.79370
719.0060, 32.83738
719.4882, 32.68654
719.9703, 32.52103
720.4524, 32.60414
720.9345, 32.86265
721.4166, 33.08315
721.8987, 33.29258
722.3809, 33.31825
722.8630, 32.90660
723.3451, 32.14283
723.8272, 31.76423
724.3093, 32.05608
724.7914, 32.35194
725.2736, 32.39666
725.7557, 32.21564
726.2378, 32.12326
726.7199, 32.12608
727.2020, 32.15812
727.6841, 32.22163
728.1663, 32.27226
728.6484, 32.17301
729.1305, 31.92683
729.6126, 31.70844
730.0947, 31.65250
730.5768, 31.66239
731.0590, 31.66961
731.5411, 31.66924
732.0232, 31.64341
732.5053, 31.57230
732.9874, 31.48716
733.4695, 31.40352
733.9517, 31.31933
734.4338, 31.23253
734.9159, 31.12596
735.3980, 31.06265
735.8801, 31.14907
736.3622, 31.34476
736.8444, 31.48665
737.3265, 31.55193
737.8086, 31.54948
738.2907, 31.45683
738.7728, 31.31386
739.2549, 31.17282
739.7371, 31.05656
740.2192, 30.92915
740.7013, 30.73155
741.1834, 30.53970
741.6655, 30.45327
742.1476, 30.51645
742.6298, 30.58104
743.1119, 30.62754
743.5940, 30.66948
744.0761, 30.75944
744.5582, 30.88449
745.0403, 30.91203
745.5225, 30.75670
746.0046, 30.56408
746.4867, 30.52382
746.9688, 30.58222
747.4509, 30.62480
747.9330, 30.63466
748.4152, 30.58746
748.8973, 30.44148
749.3794, 30.22688
749.8615, 30.04181
750.3436, 29.84352
750.8257, 29.76563
751.3079, 29.91046
751.7900, 30.17454
752.2721, 30.12504
752.7542, 29.76276
753.2363, 29.46609
753.7184, 29.52518
754.2006, 29.69405
754.6827, 29.48737
755.1648, 29.01235
755.6469, 28.72413
756.1290, 29.07133
756.6111, 29.46989
757.0933, 29.56550
757.5754, 29.36473
758.0575, 29.31417
758.5396, 29.59226
759.0217, 29.78665
759.5038, 29.70092
759.9860, 29.36822
760.4681, 29.15921
760.9502, 29.07865
761.4323, 29.08045
761.9144, 29.20736
762.3965, 29.36918
762.8787, 29.36900
763.3608, 29.21624
763.8429, 29.08632
764.3250, 29.08862
764.8071, 29.14783
765.2892, 29.21166
765.7714, 29.27204
766.2535, 29.38197
766.7356, 29.62905
767.2177, 29.81565
767.6998, 29.82131
768.1819, 29.63627
768.6641, 29.39699
769.1462, 29.08493
769.6283, 28.87577
770.1104, 29.02771
770.5925, 29.35692
771.0746, 29.50788
771.5568, 29.44301
772.0389, 29.30438
772.5210, 29.06471
773.0031, 28.86465
773.4852, 28.83765
773.9673, 29.08905
774.4495, 29.22150
774.9316, 29.13796
775.4137, 29.03333
775.8958, 29.08162
776.3779, 29.30430
776.8600, 29.39148
777.3422, 29.32482
777.8243, 29.17607
778.3064, 28.95920
778.7885, 28.72684
779.2706, 28.60254
779.7527, 28.62974
780.2349, 28.61967
780.7170, 28.34756
781.1991, 28.05530
781.6812, 27.97193
782.1633, 28.32650
782.6454, 28.49371
783.1276, 28.32946
783.6097, 28.15100
784.0918, 28.33091
784.5739, 28.87694
785.0560, 29.26611
785.5381, 29.44328
786.0203, 29.47001
786.5024, 29.32928
786.9845, 29.10641
787.4666, 28.94621
787.9487, 28.88660
788.4308, 28.87042
788.9130, 28.92044
789.3951, 28.97136
789.8772, 28.94811
790.3593, 28.70928
790.8414, 28.65751
791.3235, 28.87216
791.8057, 29.16850
792.2878, 29.35499
792.7699, 29.43210
793.2520, 29.33350
793.7341, 29.01564
794.2162, 28.67703
794.6984, 28.55301
795.1805, 28.54219
795.6626, 28.46070
796.1447, 28.15000
796.6268, 28.02664
797.1089, 28.47973
797.5911, 29.07154
798.0732, 29.29494
798.5553, 28.91155
799.0374, 28.73942
799.5195, 28.89940
800.0016, 29.13288
800.4838, 29.04574
800.9659, 28.71006
801.4480, 28.56205
801.9301, 28.71688
802.4122, 28.92641
802.8943, 28.93105
803.3765, 28.85142
803.8586, 28.85541
804.3407, 29.08216
804.8228, 29.21638
805.3049, 29.10458
805.7870, 28.92154
806.2692, 28.84219
806.7513, 28.89769
807.2334, 28.93000
807.7155, 28.91954
808.1976, 28.89793
808.6797, 28.92680
809.1619, 28.97780
809.6440, 28.94869
810.1261, 28.78699
810.6082, 28.66261
811.0903, 28.76263
811.5724, 28.93964
812.0546, 29.03324
812.5367, 28.98781
813.0188, 28.89147
813.5009, 28.72385
813.9830, 28.53525
814.4651, 28.36488
814.9473, 28.20759
815.4294, 28.15110
815.9115, 28.21521
816.3936, 28.32759
816.8757, 28.42710
817.3578, 28.51040
817.8400, 28.58587
818.3221, 28.67749
818.8042, 28.68009
819.2863, 28.44275
819.7684, 28.14960
820.2505, 27.98148
820.7327, 28.00222
821.2148, 28.02571
821.6969, 28.07064
822.1790, 28.08216
822.6611, 27.97152
823.1432, 27.76236
823.6254, 27.61529
824.1075, 27.54838
824.5896, 27.52677
825.0717, 27.57138
825.5538, 27.61746
826.0359, 27.57876
826.5181, 27.40851
827.0002, 27.26921
827.4823, 27.22755
827.9644, 27.20600
828.4465, 27.15991
828.9286, 27.09301
829.4108, 26.96981
829.8929, 26.77118
830.3750, 26.60663
830.8571, 26.68662
831.3392, 26.85183
831.8214, 26.65968
832.3035, 26.05080
832.7856, 25.60588
833.2677, 25.92451
833.7498, 26.38552
834.2319, 26.50580
834.7141, 26.12934
835.1962, 25.81316
835.6783, 25.52700
836.1604, 25.35175
836.6425, 25.41734
837.1246, 25.69541
837.6068, 25.72533
838.0889, 25.50331
838.5710, 25.23666
839.0531, 25.05853
839.5352, 24.93648
840.0173, 24.83670
840.4995, 24.75609
840.9816, 24.70997
841.4637, 24.76423
841.9458, 24.79395
842.4279, 24.73614
842.9100, 24.59257
843.3922, 24.45509
843.8743, 24.31344
844.3564, 24.23310
844.8385, 24.36387
845.3206, 24.55271
845.8027, 24.34434
846.2849, 23.81689
846.7670, 23.41328
847.2491, 23.54791
847.7312, 23.72476
848.2133, 23.63897
848.6954, 23.31024
849.1776, 23.05681
849.6597, 22.89335
850.1418, 22.79226
850.6239, 22.75719
851.1060, 22.77275
851.5881, 22.80195
852.0703, 22.84091
852.5524, 22.85771
853.0345, 22.91885
853.5166, 22.87375
853.9987, 22.42586
854.4808, 21.76155
854.9630, 21.35331
855.4451, 21.62658
855.9272, 21.82665
856.4093, 21.77134
856.8914, 21.56388
857.3735, 21.42978
857.8557, 21.37218
858.3378, 21.35810
858.8199, 21.40790
859.3020, 21.43635
859.7841, 21.25445
860.2662, 20.96368
860.7484, 20.77746
861.2305, 20.80299
861.7126, 20.89440
862.1947, 21.10523
862.6768, 21.30435
863.1589, 21.29636
863.6411, 20.97439
864.1232, 20.75143
864.6053, 20.67555
865.0874, 20.68057
865.5695, 20.72530
866.0516, 20.77968
866.5338, 20.72287
867.0159, 20.50152
867.4980, 20.32574
867.9801, 20.42570
868.4622, 20.59600
868.9443, 20.63527
869.4265, 20.46345
869.9086, 20.26464
870.3907, 19.99847
870.8728, 19.77176
871.3549, 19.65294
871.8370, 19.64610
872.3192, 19.87021
872.8013, 20.33867
873.2834, 20.71528
873.7655, 20.68056
874.2476, 20.44605
874.7297, 20.20805
875.2119, 19.98449
875.6940, 19.73309
876.1761, 19.38525
876.6582, 19.07081
877.1403, 18.82947
877.6224, 18.66319
878.1046, 18.63779
878.5867, 18.76154
879.0688, 18.84861
879.5509, 18.73430
880.0330, 18.54770
880.5151, 18.45654
880.9973, 18.45273
881.4794, 18.50168
881.9615, 18.67928
882.4436, 18.80999
882.9257, 18.79931
883.4078, 18.69623
883.8900, 18.63732
884.3721, 18.63266
884.8542, 18.61834
885.3363, 18.57395
885.8184, 18.51334
886.3005, 18.43515
886.7827, 18.36045
887.2648, 18.35293
887.7469, 18.54546
888.2290, 18.64263
888.7111, 18.39733
889.1932, 18.02475
889.6754, 17.85085
890.1575, 17.99652
890.6396, 18.03289
891.1217, 17.90744
891.6038, 17.71215
892.0859, 17.51278
892.5681, 17.33671
893.0502, 17.28037
893.5323, 17.36961
894.0144, 17.50488
894.4965, 17.65024
894.9786, 17.78872
895.4608, 17.92300
895.9429, 18.08467
896.4250, 18.09377
896.9071, 17.89680
897.3892, 17.65401
897.8713, 17.43962
898.3535, 17.26619
898.8356, 17.22389
899.3177, 17.31043
899.7998, 17.48275
900.2819, 17.92396
900.7640, 18.26619
901.2462, 18.14039
901.7283, 17.59034
902.2104, 17.17375
902.6925, 16.96722
903.1746, 16.88187
903.6567, 16.93284
904.1389, 17.06399
904.6210, 17.08818
905.1031, 17.01591
905.5852, 16.93996
906.0673, 16.87665
906.5494, 16.85521
907.0316, 16.93633
907.5137, 17.07018
907.9958, 17.17004
908.4779, 17.28045
908.9600, 17.24357
909.4421, 16.95575
909.9243, 16.61643
910.4064, 16.50388
910.8885, 16.60771
911.3706, 16.74134
911.8527, 16.88818
912.3348, 16.99130
912.8170, 16.96821
913.2991, 16.88584
913.7812, 16.82850
914.2633, 16.83128
914.7454, 16.76148
915.2275, 16.48780
915.7097, 16.27245
916.1918, 16.32935
916.6739, 16.65055
917.1560, 16.64966
917.6381, 16.32392
918.1202, 16.01632
918.6024, 15.98557
919.0845, 16.08337
919.5666, 16.18130
920.0487, 16.26920
920.5308, 16.33057
921.0129, 16.39176
921.4951, 16.37534
921.9772, 16.19474
922.4593, 15.95223
922.9414, 16.00678
923.4235, 16.35114
923.9056, 16.63852
924.3878, 16.77307
924.8699, 16.76861
925.3520, 16.55136
925.8341, 16.23443
926.3162, 15.99259
926.7983, 15.85211
927.2805, 15.83606
927.7626, 16.01199
928.2447, 16.23618
928.7268, 16.37957
929.2089, 16.44262
929.6910, 16.38891
930.1732, 16.20899
930.6553, 15.99957
931.1374, 15.79811
931.6195, 15.64616
932.1016, 15.61947
932.5837, 15.73344
933.0659, 15.78692
933.5480, 15.63579
934.0301, 15.53473
934.5122, 15.61392
934.9943, 15.83399
935.4764, 15.91502
935.9586, 15.86016
936.4407, 15.77561
936.9228, 15.66515
937.4049, 15.59677
937.8870, 15.72644
938.3691, 15.94723
938.8513, 16.00916
939.3334, 15.63358
939.8155, 15.37994
940.2976, 15.36252
940.7797, 15.45939
941.2618, 15.46347
941.7440, 15.38832
942.2261, 15.44711
942.7082, 15.70593
943.1903, 15.93631
943.6724, 15.84248
944.1545, 15.64816
944.6367, 15.60794
945.1188, 15.82857
945.6009, 15.92105
946.0830, 15.79017
946.5651, 15.63139
947.0472, 15.56022
947.5294, 15.56401
948.0115, 15.54612
948.4936, 15.50805
948.9757, 15.46909
949.4578, 15.46930
949.9399, 15.44912
950.4221, 15.36250
950.9042, 15.21601
951.3863, 15.02352
951.8684, 14.60960
952.3505, 14.51921
952.8326, 14.99702
953.3148, 15.64937
953.7969, 15.65175
954.2790, 15.15399
954.7611, 14.79331
955.2432, 14.73608
955.7253, 14.82105
956.2075, 15.05508
956.6896, 15.30327
957.1717, 15.42097
957.6538, 15.34487
958.1359, 15.30941
958.6180, 15.33191
959.1002, 15.34996
959.5823, 15.28907
960.0644, 15.19044
960.5465, 15.21990
961.0286, 15.35672
961.5107, 15.42377
961.9929, 15.22230
962.4750, 15.02270
962.9571, 14.98248
963.4392, 15.06468
963.9213, 15.12484
964.4034, 15.16675
964.8856, 15.16267
965.3677, 15.08887
965.8498, 15.00144
966.3319, 14.99919
966.8140, 15.04903
967.2961, 15.07968
967.7783, 15.06048
968.2604, 15.05316
968.7425, 15.11338
969.2246, 15.16951
969.7067, 15.15415
970.1888, 15.04827
970.6710, 15.02629
971.1531, 15.09831
971.6352, 15.15836
972.1173, 15.05622
972.5994, 14.93570
973.0815, 15.04448
973.5637, 15.33700
974.0458, 15.51748
974.5279, 15.35992
975.0100, 15.23910
975.4921, 15.30889
975.9742, 15.43859
976.4564, 15.21674
976.9385, 14.67126
977.4206, 14.36792
977.9027, 14.48590
978.3848, 14.79398
978.8669, 15.31966
979.3491, 15.78927
979.8312, 15.82795
980.3133, 15.08565
980.7954, 14.66393
981.2775, 14.73315
981.7596, 14.88253
982.2418, 14.77356
982.7239, 14.48179
983.2060, 14.43464
983.6881, 14.61238
984.1702, 14.82155
984.6523, 15.03952
985.1345, 15.15904
985.6166, 15.08664
986.0987, 14.85602
986.5808, 14.58525
987.0629, 14.18690
987.5450, 14.04529
988.0272, 14.27071
988.5093, 14.69777
988.9914, 15.27911
989.4735, 15.82637
989.9556, 15.86484
990.4377, 15.15070
990.9199, 14.54266
991.4020, 14.49734
991.8841, 14.59733
992.3662, 14.52938
992.8483, 14.28231
993.3304, 14.37006
993.8126, 14.81839
994.2947, 15.15367
994.7768, 14.94759
995.2589, 14.56048
995.7410, 14.37926
996.2231, 14.37607
996.7053, 14.45543
997.1874, 14.72522
997.6695, 14.88659
998.1516, 14.86249
998.6337, 14.75662
999.1158, 14.74033
999.5980, 14.79404
1000.080, 14.76478
1000.562, 14.61891
1001.044, 14.48976
1001.526, 14.48086
1002.009, 14.53045
1002.491, 14.60363
1002.973, 14.70274
1003.455, 14.74986
1003.937, 14.73711
1004.419, 14.69620
1004.901, 14.62898
1005.383, 14.55389
1005.865, 14.49434
1006.348, 14.45935
1006.830, 14.47332
1007.312, 14.65615
1007.794, 14.75446
1008.276, 14.57324
1008.758, 14.34341
1009.240, 14.33967
1009.722, 14.59643
1010.205, 14.69923
1010.687, 14.60753
1011.169, 14.51224
1011.651, 14.68146
1012.133, 14.87083
1012.615, 14.73423
1013.097, 14.27809
1013.579, 14.06126
1014.061, 14.33228
1014.544, 14.58315
1015.026, 14.67372
1015.508, 14.64775
1015.990, 14.59797
1016.472, 14.52636
1016.954, 14.42254
1017.436, 14.22465
1017.918, 14.14215
1018.401, 14.45595
1018.883, 14.85396
1019.365, 15.01115
1019.847, 14.85991
1020.329, 14.78296
1020.811, 14.79571
1021.293, 14.79899
1021.775, 14.67679
1022.257, 14.52542
1022.740, 14.52308
1023.222, 14.63150
1023.704, 14.69671
1024.186, 14.60511
1024.668, 14.54062
1025.150, 14.55063
1025.632, 14.59763
1026.114, 14.62556
1026.596, 14.63427
1027.079, 14.62029
1027.561, 14.57912
1028.043, 14.54776
1028.525, 14.60064
1029.007, 14.64426
1029.489, 14.56341
1029.971, 14.33952
1030.453, 14.27849
1030.936, 14.45750
1031.418, 14.53144
1031.900, 14.29015
1032.382, 13.92494
1032.864, 13.82159
1033.346, 13.89921
1033.828, 13.96950
1034.310, 13.95424
1034.792, 13.93912
1035.275, 13.88865
1035.757, 13.89666
1036.239, 14.11067
1036.721, 14.52915
1037.203, 14.67831
1037.685, 14.54283
1038.167, 14.34580
1038.649, 14.15175
1039.132, 14.04722
1039.614, 14.16567
1040.096, 14.45328
1040.578, 14.62420
1041.060, 14.63222
1041.542, 14.61928
1042.024, 14.62117
1042.506, 14.59384
1042.989, 14.44817
1043.471, 14.22758
1043.953, 13.98603
1044.435, 13.69793
1044.917, 13.59618
1045.399, 13.97355
1045.881, 14.35484
1046.363, 14.49183
1046.845, 14.41674
1047.328, 14.38130
1047.810, 14.38291
1048.292, 14.38402
1048.774, 14.39127
1049.256, 14.35880
1049.738, 14.22261
1050.220, 14.03121
1050.702, 13.85147
1051.184, 13.60935
1051.667, 13.60497
1052.149, 13.91795
1052.631, 14.22695
1053.113, 14.19389
1053.595, 13.98328
1054.077, 13.91671
1054.559, 13.99022
1055.041, 14.07131
1055.523, 14.15849
1056.006, 14.17445
1056.488, 14.07064
1056.970, 13.91264
1057.452, 13.84387
1057.934, 13.85275
1058.416, 13.81698
1058.898, 13.70039
1059.380, 13.62152
1059.863, 13.70966
1060.345, 13.85277
1060.827, 13.97014
1061.309, 14.05682
1061.791, 14.08513
1062.273, 14.04184
1062.755, 14.00235
1063.237, 14.00350
1063.719, 14.02147
1064.202, 14.01132
1064.684, 13.99209
1065.166, 14.00445
1065.648, 14.13183
1066.130, 14.15379
1066.612, 13.98421
1067.094, 13.80575
1067.576, 13.78220
1068.059, 13.88447
1068.541, 13.95554
1069.023, 13.99411
1069.505, 14.01028
1069.987, 14.03086
1070.469, 14.00796
1070.951, 13.84321
1071.433, 13.64319
1071.916, 13.63885
1072.398, 13.86480
1072.880, 13.96681
1073.362, 13.88528
1073.844, 13.75183
1074.326, 13.66723
1074.808, 13.62277
1075.290, 13.62333
1075.772, 13.66873
1076.255, 13.68608
1076.737, 13.65640
1077.219, 13.63725
1077.701, 13.66232
1078.183, 13.68611
1078.665, 13.54233
1079.147, 13.33762
1079.629, 13.36021
1080.111, 13.81599
1080.594, 14.11067
1081.076, 13.87947
1081.558, 13.57218
1082.040, 13.43669
1082.522, 13.45722
1083.004, 13.47373
1083.486, 13.49278
1083.968, 13.57667
1084.450, 13.83914
1084.933, 14.09005
1085.415, 14.25112
1085.897, 14.30046
1086.379, 14.20632
1086.861, 13.92868
1087.343, 13.63715
1087.825, 13.31316
1088.307, 13.14891
1088.790, 13.48925
1089.272, 13.96554
1089.754, 14.13603
1090.236, 14.02213
1090.718, 13.85119
1091.200, 13.56837
1091.682, 13.41714
1092.164, 13.46684
1092.646, 13.61347
1093.129, 13.74766
1093.611, 13.84344
1094.093, 13.79863
1094.575, 13.58368
1095.057, 13.45922
1095.539, 13.71970
1096.021, 13.89403
1096.503, 13.71994
1096.986, 13.32484
1097.468, 13.21930
1097.950, 13.36884
1098.432, 13.47050
1098.914, 13.39132
1099.396, 13.33925
1099.878, 13.54811
1100.360, 13.80194
1100.843, 13.86911
1101.325, 13.72191
1101.807, 13.66380
1102.289, 13.70567
1102.771, 13.71571
1103.253, 13.57524
1103.735, 13.40748
1104.217, 13.36449
1104.699, 13.40112
1105.182, 13.43246
1105.664, 13.44208
1106.146, 13.44759
1106.628, 13.45444
1107.110, 13.44373
1107.592, 13.38605
1108.074, 13.30362
1108.556, 13.22597
1109.038, 13.16116
1109.521, 13.13972
1110.003, 13.22050
1110.485, 13.28117
1110.967, 13.27913
1111.449, 13.26602
1111.931, 13.33107
1112.413, 13.45582
1112.895, 13.56061
1113.377, 13.63697
1113.860, 13.68709
1114.342, 13.73533
1114.824, 13.73237
1115.306, 13.63447
1115.788, 13.47015
1116.270, 13.29288
1116.752, 13.10424
1117.234, 13.08495
1117.717, 13.31850
1118.199, 13.57421
1118.681, 13.71182
1119.163, 13.72909
1119.645, 13.57137
1120.127, 13.23186
1120.609, 13.01818
1121.091, 12.93360
1121.573, 12.96606
1122.056, 13.17023
1122.538, 13.39179
1123.020, 13.46551
1123.502, 13.41239
1123.984, 13.24504
1124.466, 12.82077
1124.948, 12.65988
1125.430, 12.84616
1125.913, 13.09383
1126.395, 13.25765
1126.877, 13.32675
1127.359, 13.19777
1127.841, 12.95469
1128.323, 12.83260
1128.805, 13.10563
1129.287, 13.22846
1129.770, 13.06055
1130.252, 12.83572
1130.734, 12.77945
1131.216, 12.86032
1131.698, 12.97803
1132.180, 13.11831
1132.662, 13.21194
1133.144, 13.14024
1133.626, 13.11628
1134.109, 13.27443
1134.591, 13.47787
1135.073, 13.48565
1135.555, 13.31931
1136.037, 13.25637
1136.519, 13.33043
1137.001, 13.40667
1137.483, 13.38489
1137.965, 13.33732
1138.448, 13.31448
1138.930, 13.30299
1139.412, 13.26493
1139.894, 13.20162
1140.376, 13.05614
1140.858, 12.78994
1141.340, 12.58474
1141.822, 12.68194
1142.304, 12.86520
1142.787, 12.94263
1143.269, 12.89803
1143.751, 12.79815
1144.233, 12.61363
1144.715, 12.55831
1145.197, 12.75878
1145.679, 12.99407
1146.161, 12.93920
1146.644, 12.76217
1147.126, 12.68984
1147.608, 12.80208
1148.090, 12.86374
1148.572, 12.86746
1149.054, 12.82477
1149.536, 12.69413
1150.018, 12.57503
1150.500, 12.71004
1150.983, 12.97404
1151.465, 13.11712
1151.947, 13.02394
1152.429, 12.88458
1152.911, 12.66358
1153.393, 12.50814
1153.875, 12.57004
1154.357, 12.75509
1154.840, 12.81348
1155.322, 12.77199
1155.804, 12.71371
1156.286, 12.61563
1156.768, 12.58827
1157.250, 12.66273
1157.732, 12.77865
1158.214, 12.93154
1158.697, 13.08006
1159.179, 12.97566
1159.661, 12.66518
1160.143, 12.45165
1160.625, 12.57798
1161.107, 12.71121
1161.589, 12.76651
1162.071, 12.76307
1162.553, 12.70491
1163.036, 12.60268
1163.518, 12.52502
1164.000, 12.47733
1164.482, 12.46762
1164.964, 12.57804
1165.446, 12.64094
1165.928, 12.55285
1166.410, 12.37985
1166.892, 12.22284
1167.375, 12.08329
1167.857, 11.97758
1168.339, 11.90292
1168.821, 11.96174
1169.303, 12.41383
1169.785, 12.84643
1170.267, 12.91469
1170.749, 12.76536
1171.231, 12.87081
1171.714, 13.22797
1172.196, 13.30889
1172.678, 12.96336
1173.160, 12.59788
1173.642, 12.59691
1174.124, 12.68721
1174.606, 12.62609
1175.088, 12.44399
1175.571, 12.35562
1176.053, 12.36169
1176.535, 12.46179
1177.017, 12.70011
1177.499, 12.87890
1177.981, 12.65925
1178.463, 12.39112
1178.945, 12.50425
1179.427, 13.01155
1179.910, 13.12890
1180.392, 12.80834
1180.874, 12.60086
1181.356, 12.76684
1181.838, 12.99957
1182.320, 12.97388
1182.802, 12.82859
1183.284, 12.72234
1183.767, 12.67630
1184.249, 12.63166
1184.731, 12.59231
1185.213, 12.51713
1185.695, 12.33394
1186.177, 12.18850
1186.659, 12.32796
1187.141, 12.58185
1187.624, 12.69389
1188.106, 12.58808
1188.588, 12.51382
1189.070, 12.47422
1189.552, 12.45449
1190.034, 12.48205
1190.516, 12.48664
1190.998, 12.29474
1191.480, 12.04525
1191.963, 11.99344
1192.445, 12.30893
1192.927, 12.47304
1193.409, 12.46290
1193.891, 12.40567
1194.373, 12.37033
1194.855, 12.35240
1195.337, 12.36230
1195.819, 12.38201
1196.302, 12.36667
1196.784, 12.24933
1197.266, 12.24427
1197.748, 12.37232
1198.230, 12.54076
1198.712, 12.74531
1199.194, 12.89575
1199.676, 12.81693
1200.158, 12.58406
1200.641, 12.39756
1201.123, 12.24712
1201.605, 12.27697
1202.087, 12.54467
1202.569, 12.79138
1203.051, 12.73261
1203.533, 12.54618
1204.015, 12.47364
1204.498, 12.48250
1204.980, 12.41720
1205.462, 12.15961
1205.944, 12.08147
1206.426, 12.25213
1206.908, 12.45326
1207.390, 12.44633
1207.872, 12.35748
1208.354, 12.35293
1208.837, 12.41881
1209.319, 12.45031
1209.801, 12.40076
1210.283, 12.42675
1210.765, 12.57820
1211.247, 12.68589
1211.729, 12.47524
1212.211, 12.18407
1212.694, 12.17015
1213.176, 12.38649
1213.658, 12.42708
1214.140, 12.15289
1214.622, 12.04108
1215.104, 12.19047
1215.586, 12.38649
1216.068, 12.40160
1216.551, 12.32860
1217.033, 12.25668
1217.515, 12.19879
1217.997, 12.19608
1218.479, 12.27463
1218.961, 12.30787
1219.443, 12.26022
1219.925, 12.22411
1220.407, 12.37048
1220.890, 12.53902
1221.372, 12.50794
1221.854, 12.29203
1222.336, 12.19208
1222.818, 12.23959
1223.300, 12.33088
1223.782, 12.46276
1224.264, 12.55659
1224.746, 12.51182
1225.229, 12.39345
1225.711, 12.23199
1226.193, 12.04822
1226.675, 11.98082
1227.157, 12.04978
1227.639, 12.12300
1228.121, 12.16302
1228.603, 12.24691
1229.085, 12.59951
1229.568, 12.92504
1230.050, 12.86848
1230.532, 12.46000
1231.014, 12.19616
1231.496, 12.07850
1231.978, 12.10631
1232.460, 12.31250
1232.942, 12.49614
1233.425, 12.43823
1233.907, 12.29310
1234.389, 12.16100
1234.871, 12.06125
1235.353, 12.08332
1235.835, 12.23257
1236.317, 12.39808
1236.799, 12.57509
1237.281, 12.63893
1237.764, 12.35772
1238.246, 12.02870
1238.728, 11.91318
1239.210, 11.96037
1239.692, 11.95296
1240.174, 11.89425
1240.656, 11.87836
1241.138, 11.93859
1241.621, 11.97839
1242.103, 11.83178
1242.585, 11.73639
1243.067, 11.90690
1243.549, 12.23975
1244.031, 12.35306
1244.513, 12.26780
1244.995, 12.11839
1245.478, 11.91249
1245.960, 11.79150
1246.442, 11.93617
1246.924, 12.08805
1247.406, 12.09576
1247.888, 12.01144
1248.370, 12.00731
1248.852, 12.05628
1249.334, 11.99588
1249.817, 11.74725
1250.299, 11.69102
1250.781, 12.32174
1251.263, 12.80547
1251.745, 12.75870
1252.227, 12.39858
1252.709, 12.22097
1253.191, 12.18028
1253.673, 12.14558
1254.156, 12.08960
1254.638, 12.04458
1255.120, 12.01768
1255.602, 12.01006
1256.084, 12.03265
1256.566, 12.06041
1257.048, 12.03586
1257.530, 11.98037
1258.012, 11.92137
1258.495, 11.85483
1258.977, 11.89217
1259.459, 12.10603
1259.941, 12.28132
1260.423, 12.34544
1260.905, 12.34659
1261.387, 12.36155
1261.869, 12.36382
1262.352, 12.28495
1262.834, 12.10734
1263.316, 12.07256
1263.798, 12.24178
1264.280, 12.36148
1264.762, 12.34636
1265.244, 12.28670
1265.726, 12.31318
1266.208, 12.34231
1266.691, 12.24358
1267.173, 12.01451
1267.655, 11.95794
1268.137, 12.10504
1268.619, 12.13906
1269.101, 11.93966
1269.583, 11.77222
1270.065, 11.96080
1270.548, 12.23511
1271.030, 12.34250
1271.512, 12.31721
1271.994, 12.34137
1272.476, 12.41204
1272.958, 12.37878
1273.440, 12.19168
1273.922, 12.02641
1274.405, 11.99889
1274.887, 12.05050
1275.369, 12.18010
1275.851, 12.33745
1276.333, 12.41571
1276.815, 12.40322
1277.297, 12.15206
1277.779, 11.60740
1278.261, 11.29704
1278.744, 11.77323
1279.226, 12.20254
1279.708, 12.28014
1280.190, 12.14240
1280.672, 11.99270
1281.154, 11.85691
1281.636, 11.82255
1282.118, 11.90091
1282.600, 11.93545
1283.083, 11.79210
1283.565, 11.77128
1284.047, 11.98702
1284.529, 12.24296
1285.011, 12.27433
1285.493, 12.15271
1285.975, 11.92428
1286.457, 11.61510
1286.939, 11.48916
1287.422, 11.61886
1287.904, 11.73298
1288.386, 11.78294
1288.868, 11.79406
1289.350, 11.77111
1289.832, 11.74099
1290.314, 11.73179
1290.796, 11.74129
1291.279, 11.74234
1291.761, 11.73076
1292.243, 11.75484
1292.725, 11.82247
1293.207, 11.90515
1293.689, 12.04819
1294.171, 12.12926
1294.653, 11.98172
1295.135, 11.75582
1295.618, 11.71629
1296.100, 11.84436
1296.582, 11.99093
1297.064, 12.13675
1297.546, 12.18468
1298.028, 12.00234
1298.510, 11.78312
1298.992, 11.46817
1299.475, 11.31823
1299.957, 11.45017
1300.439, 12.07332
1300.921, 14.41007
1301.403, 18.05430
1301.885, 20.58756
##END=



