##NAMES=Priderite
##RRUFFID=R130169
##IDEAL CHEMISTRY=K(Ti^4+^_7_Fe^3+^)O_16_
##LOCALITY=Vounnemiok River, Kola Peninsula, Russia
##OWNER=RRUFF
##SOURCE=Rock Currier
##DESCRIPTION=Black prismatic crystals and massive in quartz
##STATUS=The identification of this mineral is confirmed by single-crystal X-ray diffraction and chemical analysis.
##URL=rruff.info/R130169
##MEASURED CHEMISTRY=K_1.40_Ba_0.01_(Ti^4+^_7.13_Fe^3+^_0.68_)O_16_
90.23535, 232.2127
90.71747, 231.0288
91.19958, 229.7197
91.68170, 232.5993
92.16382, 234.3165
92.64594, 234.0071
93.12805, 232.4275
93.61017, 230.4418
94.09229, 228.0145
94.57440, 224.6507
95.05651, 221.6646
95.53863, 219.2275
96.02074, 217.2121
96.50286, 215.5260
96.98498, 213.9842
97.46709, 212.1785
97.94921, 210.6464
98.43133, 209.6250
98.91344, 208.5873
99.39556, 207.1372
99.87768, 205.4548
100.3598, 204.1514
100.8419, 203.6658
101.3240, 203.8432
101.8061, 203.8256
102.2883, 203.2514
102.7704, 202.6857
103.2525, 202.6873
103.7346, 203.3121
104.2167, 204.1366
104.6988, 205.0759
105.1810, 205.9546
105.6631, 206.4555
106.1452, 206.3503
106.6273, 205.7404
107.1094, 205.0380
107.5915, 204.1459
108.0737, 203.2591
108.5558, 202.3607
109.0379, 201.5103
109.5200, 200.8519
110.0021, 200.5750
110.4842, 200.7913
110.9664, 200.8051
111.4485, 200.6681
111.9306, 200.3175
112.4127, 199.5399
112.8948, 198.3980
113.3769, 197.2562
113.8591, 196.6729
114.3412, 197.1974
114.8233, 197.2979
115.3054, 196.7248
115.7875, 195.8633
116.2696, 195.0741
116.7517, 194.4831
117.2339, 194.0044
117.7160, 193.4173
118.1981, 192.5493
118.6802, 191.9151
119.1623, 191.8297
119.6444, 192.1187
120.1266, 192.3086
120.6087, 192.1930
121.0908, 191.8249
121.5729, 191.3836
122.0550, 190.8356
122.5371, 190.2693
123.0193, 189.7943
123.5014, 189.4275
123.9835, 188.9958
124.4656, 188.3256
124.9477, 187.5821
125.4298, 186.8963
125.9120, 186.3069
126.3941, 185.8186
126.8762, 185.4853
127.3583, 185.4900
127.8404, 185.3334
128.3225, 184.8475
128.8047, 184.1447
129.2868, 183.3582
129.7689, 182.5508
130.2510, 181.7321
130.7331, 181.0387
131.2152, 180.7478
131.6974, 180.3161
132.1795, 179.6075
132.6616, 178.6408
133.1437, 177.4642
133.6258, 176.0579
134.1079, 174.2977
134.5901, 173.2142
135.0722, 173.4226
135.5543, 173.6791
136.0364, 173.1959
136.5185, 171.9329
137.0006, 170.4485
137.4828, 169.3734
137.9649, 168.7934
138.4470, 168.2543
138.9291, 167.9088
139.4112, 167.5233
139.8933, 166.7607
140.3755, 165.4951
140.8576, 164.0681
141.3397, 162.9449
141.8218, 162.0977
142.3039, 161.2312
142.7860, 160.1689
143.2681, 158.9773
143.7503, 157.9000
144.2324, 157.0476
144.7145, 156.2668
145.1966, 155.4555
145.6787, 154.6104
146.1608, 153.6512
146.6430, 152.4309
147.1251, 150.9051
147.6072, 149.5334
148.0893, 148.3984
148.5714, 147.4461
149.0535, 146.7890
149.5357, 146.4250
150.0178, 146.0435
150.4999, 145.1232
150.9820, 143.2690
151.4641, 141.7182
151.9462, 140.7961
152.4284, 140.0418
152.9105, 139.0242
153.3926, 137.5982
153.8747, 136.0048
154.3568, 134.8568
154.8389, 134.6948
155.3211, 134.3747
155.8032, 133.8253
156.2853, 133.0951
156.7674, 132.1598
157.2495, 130.9808
157.7316, 129.7110
158.2138, 129.0439
158.6959, 129.4722
159.1780, 129.8523
159.6601, 129.9666
160.1422, 129.8343
160.6243, 129.4813
161.1065, 128.8721
161.5886, 128.0791
162.0707, 127.4520
162.5528, 127.1549
163.0349, 126.8564
163.5170, 126.3301
163.9991, 125.5988
164.4813, 124.8917
164.9634, 124.3386
165.4455, 123.9194
165.9276, 123.5611
166.4097, 123.2208
166.8918, 122.9652
167.3740, 122.9443
167.8561, 123.2286
168.3382, 123.4111
168.8203, 123.2096
169.3024, 122.7764
169.7845, 122.2491
170.2667, 121.6142
170.7488, 120.9561
171.2309, 120.4787
171.7130, 120.2478
172.1951, 120.0929
172.6772, 120.0401
173.1594, 119.9899
173.6415, 119.7774
174.1236, 119.2551
174.6057, 118.4988
175.0878, 117.9780
175.5699, 117.8751
176.0521, 117.8303
176.5342, 117.8109
177.0163, 117.7764
177.4984, 117.6542
177.9805, 117.3626
178.4626, 116.8982
178.9448, 116.6870
179.4269, 117.0317
179.9090, 117.3301
180.3911, 117.4420
180.8732, 117.3587
181.3553, 117.0832
181.8375, 116.5728
182.3196, 115.7621
182.8017, 115.4108
183.2838, 115.9026
183.7659, 116.4029
184.2480, 116.5031
184.7301, 116.2048
185.2123, 115.7309
185.6944, 115.2472
186.1765, 114.7435
186.6586, 114.4599
187.1407, 114.6135
187.6228, 114.8265
188.1050, 114.8001
188.5871, 114.5077
189.0692, 114.1495
189.5513, 113.8768
190.0334, 113.6995
190.5155, 113.6842
190.9977, 114.0533
191.4798, 114.4913
191.9619, 114.5792
192.4440, 114.2132
192.9261, 113.7995
193.4082, 113.8147
193.8904, 114.1257
194.3725, 114.3339
194.8546, 114.3006
195.3367, 114.0865
195.8188, 113.7480
196.3009, 113.1658
196.7831, 112.7424
197.2652, 112.9021
197.7473, 113.4565
198.2294, 113.9321
198.7115, 114.0392
199.1936, 113.8569
199.6758, 113.7273
200.1579, 113.7102
200.6400, 113.6708
201.1221, 113.4878
201.6042, 113.2214
202.0863, 113.0221
202.5685, 112.9875
203.0506, 113.1131
203.5327, 113.3372
204.0148, 113.7286
204.4969, 114.1565
204.9790, 114.6767
205.4612, 115.2032
205.9433, 115.5538
206.4254, 115.5454
206.9075, 115.1586
207.3896, 114.7934
207.8717, 114.3409
208.3539, 114.0141
208.8360, 113.8618
209.3181, 113.8963
209.8002, 114.1542
210.2823, 114.7419
210.7644, 115.7544
211.2466, 116.2013
211.7287, 115.4970
212.2108, 114.8298
212.6929, 114.6981
213.1750, 115.0480
213.6571, 115.5359
214.1393, 115.8517
214.6214, 115.9623
215.1035, 116.1313
215.5856, 116.4688
216.0677, 116.7570
216.5498, 116.8035
217.0320, 116.6624
217.5141, 116.6105
217.9962, 116.9460
218.4783, 117.7463
218.9604, 118.1387
219.4425, 117.6607
219.9247, 117.2003
220.4068, 117.4237
220.8889, 118.2882
221.3710, 119.1539
221.8531, 119.4528
222.3352, 119.1323
222.8174, 118.9476
223.2995, 118.8848
223.7816, 118.9623
224.2637, 119.2323
224.7458, 119.6889
225.2279, 120.2198
225.7100, 120.8107
226.1922, 121.4127
226.6743, 121.7591
227.1564, 121.5980
227.6385, 121.3195
228.1206, 121.2624
228.6027, 121.4448
229.0849, 121.7608
229.5670, 122.2242
230.0491, 122.7641
230.5312, 123.1833
231.0133, 123.2702
231.4954, 123.3204
231.9776, 123.7727
232.4597, 124.7046
232.9418, 125.4919
233.4239, 125.5395
233.9060, 125.2162
234.3881, 125.0886
234.8703, 125.4601
235.3524, 125.9503
235.8345, 125.9118
236.3166, 125.1537
236.7987, 124.6633
237.2808, 125.1172
237.7630, 126.0721
238.2451, 127.1680
238.7272, 128.4545
239.2093, 129.6027
239.6914, 129.9510
240.1735, 129.2144
240.6557, 128.5960
241.1378, 128.6988
241.6199, 129.0840
242.1020, 129.3391
242.5841, 129.2997
243.0662, 129.1526
243.5484, 129.2245
244.0305, 129.5807
244.5126, 129.9848
244.9947, 130.5023
245.4768, 130.9706
245.9589, 131.2163
246.4410, 131.1732
246.9232, 130.9850
247.4053, 130.8808
247.8874, 130.8506
248.3695, 130.9412
248.8516, 131.3437
249.3337, 131.7471
249.8159, 131.8308
250.2980, 131.5104
250.7801, 131.0903
251.2622, 131.1523
251.7443, 132.0912
252.2264, 132.6022
252.7086, 132.1864
253.1907, 131.6199
253.6728, 131.5328
254.1549, 132.0511
254.6370, 132.7420
255.1191, 132.9029
255.6013, 132.1568
256.0834, 131.6893
256.5655, 131.6431
257.0476, 131.7396
257.5297, 131.8845
258.0118, 132.0180
258.4940, 132.0268
258.9761, 131.7117
259.4582, 130.8116
259.9403, 130.2620
260.4224, 130.1598
260.9045, 130.2468
261.3867, 130.4593
261.8688, 130.7381
262.3509, 130.9553
262.8330, 130.9593
263.3151, 130.6962
263.7972, 130.3968
264.2794, 130.0321
264.7615, 129.6640
265.2436, 129.2961
265.7257, 128.9488
266.2078, 128.6861
266.6899, 128.6002
267.1721, 128.7578
267.6542, 128.6371
268.1363, 128.0621
268.6184, 127.4313
269.1005, 126.9191
269.5826, 126.5279
270.0648, 126.1853
270.5469, 125.8316
271.0290, 125.4673
271.5111, 125.1492
271.9932, 124.8716
272.4753, 124.6341
272.9575, 124.4619
273.4396, 124.3338
273.9217, 124.2076
274.4038, 124.0656
274.8859, 123.9000
275.3680, 123.6034
275.8501, 122.8972
276.3322, 122.3870
276.8144, 122.4933
277.2965, 122.9539
277.7786, 123.1325
278.2607, 122.6277
278.7428, 121.6607
279.2249, 121.1999
279.7071, 121.6496
280.1892, 122.0182
280.6713, 121.9417
281.1534, 121.6324
281.6355, 121.5148
282.1176, 121.8065
282.5998, 122.2780
283.0819, 122.2849
283.5640, 121.4583
284.0461, 120.9316
284.5282, 121.1466
285.0103, 121.7441
285.4925, 122.1982
285.9746, 122.3318
286.4567, 122.3116
286.9388, 122.4232
287.4209, 122.7153
287.9030, 122.9595
288.3852, 123.0882
288.8673, 123.1620
289.3494, 123.2688
289.8315, 123.4309
290.3136, 123.5629
290.7957, 123.5042
291.2779, 123.2022
291.7600, 123.1512
292.2421, 123.6012
292.7242, 124.2099
293.2063, 124.6647
293.6884, 124.9255
294.1706, 125.0645
294.6527, 125.0715
295.1348, 124.9598
295.6169, 125.1412
296.0990, 125.9494
296.5811, 126.8250
297.0633, 127.2982
297.5454, 127.3749
298.0275, 127.3873
298.5096, 127.5228
298.9917, 127.8000
299.4738, 128.2137
299.9560, 128.9547
300.4381, 129.6530
300.9202, 130.0525
301.4023, 130.2056
301.8844, 130.3720
302.3665, 130.7034
302.8487, 131.1284
303.3308, 131.4423
303.8129, 131.6709
304.2950, 131.7700
304.7771, 131.5258
305.2592, 131.1227
305.7414, 131.0986
306.2235, 131.7488
306.7056, 132.7000
307.1877, 133.1796
307.6698, 133.0737
308.1519, 133.0686
308.6341, 133.4758
309.1162, 134.1083
309.5983, 134.6935
310.0804, 135.1894
310.5625, 135.4991
311.0446, 135.3336
311.5268, 134.6602
312.0089, 134.3199
312.4910, 134.6933
312.9731, 135.3857
313.4552, 135.9376
313.9373, 136.2789
314.4195, 136.5874
314.9016, 137.0688
315.3837, 137.6995
315.8658, 138.1378
316.3479, 138.2774
316.8300, 138.2700
317.3121, 138.1950
317.7943, 138.0655
318.2764, 137.9542
318.7585, 137.8928
319.2406, 137.8980
319.7227, 137.9977
320.2048, 138.2527
320.6870, 138.5394
321.1691, 138.7813
321.6512, 138.9964
322.1333, 139.2842
322.6154, 139.7502
323.0975, 140.2418
323.5797, 140.3347
324.0618, 139.8543
324.5439, 139.4347
325.0260, 139.2940
325.5081, 139.3662
325.9902, 139.5597
326.4724, 139.8709
326.9545, 140.2051
327.4366, 140.4196
327.9187, 140.5187
328.4008, 140.5252
328.8829, 140.3563
329.3651, 140.1353
329.8472, 140.0135
330.3293, 140.0168
330.8114, 140.0590
331.2935, 140.0642
331.7756, 140.0278
332.2578, 139.9601
332.7399, 139.7373
333.2220, 139.5770
333.7041, 139.7608
334.1862, 140.2304
334.6683, 140.5318
335.1505, 140.2927
335.6326, 139.6067
336.1147, 139.2104
336.5968, 139.1765
337.0789, 139.3100
337.5610, 139.7319
338.0432, 140.2669
338.5253, 140.4873
339.0074, 140.1765
339.4895, 139.4791
339.9716, 138.7275
340.4537, 137.6684
340.9359, 137.0064
341.4180, 137.3099
341.9001, 137.9285
342.3822, 137.9000
342.8643, 136.9490
343.3464, 135.7588
343.8286, 135.3145
344.3107, 136.0242
344.7928, 136.3187
345.2749, 135.9100
345.7570, 135.2759
346.2391, 134.7239
346.7213, 134.3055
347.2034, 133.9845
347.6855, 133.7492
348.1676, 133.6053
348.6497, 133.4063
349.1318, 133.0714
349.6140, 132.7729
350.0961, 132.5809
350.5782, 132.4859
351.0603, 132.4805
351.5424, 132.5786
352.0245, 132.7247
352.5067, 132.6728
352.9888, 132.3493
353.4709, 131.9215
353.9530, 131.1989
354.4351, 130.4643
354.9172, 130.1012
355.3994, 130.2341
355.8815, 130.5889
356.3636, 130.7033
356.8457, 130.4576
357.3278, 130.1880
357.8099, 129.7479
358.2920, 129.3922
358.7741, 129.3580
359.2563, 129.6222
359.7384, 129.9600
360.2205, 130.1815
360.7026, 130.3054
361.1847, 130.1099
361.6668, 129.1926
362.1490, 128.3954
362.6311, 128.1135
363.1132, 128.1494
363.5953, 128.0951
364.0774, 127.6922
364.5595, 127.0398
365.0417, 126.5563
365.5238, 126.2919
366.0059, 126.1511
366.4880, 126.1628
366.9701, 126.2636
367.4522, 126.4268
367.9344, 126.6337
368.4165, 126.8198
368.8986, 126.8955
369.3807, 126.8745
369.8628, 126.6933
370.3449, 126.1347
370.8271, 125.6066
371.3092, 125.3760
371.7913, 125.4054
372.2734, 125.4331
372.7555, 125.1975
373.2376, 124.7121
373.7198, 124.4071
374.2019, 124.3922
374.6840, 124.4394
375.1661, 124.5165
375.6482, 124.5922
376.1303, 124.6261
376.6125, 124.5999
377.0946, 124.5181
377.5767, 124.3533
378.0588, 124.0191
378.5409, 123.8499
379.0230, 124.1002
379.5052, 124.4492
379.9873, 124.6693
380.4694, 124.7137
380.9515, 124.6433
381.4336, 124.4464
381.9157, 124.1280
382.3979, 123.9877
382.8800, 124.1693
383.3621, 124.4197
383.8442, 124.6743
384.3263, 124.8749
384.8084, 124.8260
385.2906, 124.1434
385.7727, 123.1862
386.2548, 122.8460
386.7369, 123.2805
387.2190, 123.7675
387.7011, 123.8387
388.1833, 123.7227
388.6654, 123.7460
389.1475, 124.0199
389.6296, 124.3536
390.1117, 124.6262
390.5938, 124.8315
391.0760, 124.8835
391.5581, 124.6681
392.0402, 124.3952
392.5223, 124.3729
393.0044, 124.6145
393.4865, 124.8595
393.9687, 125.0897
394.4508, 125.2345
394.9329, 125.0828
395.4150, 124.5681
395.8971, 124.1390
396.3792, 124.2465
396.8614, 124.8510
397.3435, 125.3225
397.8256, 125.5103
398.3077, 125.6699
398.7898, 125.9962
399.2719, 126.4447
399.7540, 126.8441
400.2361, 127.1062
400.7183, 127.2667
401.2004, 127.4200
401.6825, 127.5693
402.1646, 127.7069
402.6467, 127.8019
403.1288, 127.8985
403.6110, 128.0573
404.0931, 128.2890
404.5752, 128.5454
405.0573, 128.7783
405.5394, 128.9943
406.0215, 129.1341
406.5037, 129.1849
406.9858, 129.1834
407.4679, 129.0320
407.9500, 128.8386
408.4321, 128.8783
408.9142, 129.3497
409.3964, 130.1263
409.8785, 130.6256
410.3606, 130.5020
410.8427, 130.5376
411.3248, 130.9171
411.8069, 131.4142
412.2891, 131.8526
412.7712, 132.1701
413.2533, 132.3481
413.7354, 132.2978
414.2175, 131.8869
414.6996, 131.7812
415.1818, 132.2801
415.6639, 132.8146
416.1460, 133.1981
416.6281, 133.4408
417.1102, 133.5984
417.5923, 133.6764
418.0745, 133.7255
418.5566, 133.9592
419.0387, 134.5279
419.5208, 134.9408
420.0029, 134.7345
420.4850, 134.4784
420.9672, 134.8394
421.4493, 135.9968
421.9314, 137.1618
422.4135, 137.3930
422.8956, 136.7449
423.3777, 136.3763
423.8599, 136.5508
424.3420, 136.9234
424.8241, 137.2487
425.3062, 137.5384
425.7883, 137.8362
426.2704, 138.1401
426.7526, 138.4733
427.2347, 138.9173
427.7168, 139.4878
428.1989, 139.9457
428.6810, 140.1234
429.1631, 140.1183
429.6453, 140.1829
430.1274, 140.3797
430.6095, 140.5053
431.0916, 140.3166
431.5737, 140.0059
432.0558, 139.9836
432.5380, 140.3666
433.0201, 140.9364
433.5022, 141.4805
433.9843, 142.0011
434.4664, 142.4058
434.9485, 142.6700
435.4307, 142.8344
435.9128, 142.7793
436.3949, 142.6189
436.8770, 142.7698
437.3591, 143.5393
437.8412, 144.6706
438.3234, 145.1646
438.8055, 144.2449
439.2876, 143.6776
439.7697, 143.7268
440.2518, 144.0969
440.7339, 144.5720
441.2160, 145.0776
441.6982, 145.5903
442.1803, 146.1088
442.6624, 146.6749
443.1445, 146.9501
443.6266, 146.5901
444.1087, 146.2932
444.5909, 146.3007
445.0730, 146.5110
445.5551, 146.7412
446.0372, 146.8983
446.5193, 147.0166
447.0014, 147.1898
447.4836, 147.4715
447.9657, 147.6468
448.4478, 147.5067
448.9299, 147.3724
449.4120, 147.4872
449.8941, 147.8427
450.3763, 148.2041
450.8584, 148.3406
451.3405, 148.3237
451.8226, 148.5363
452.3047, 149.1761
452.7868, 149.5617
453.2690, 148.8947
453.7511, 147.8119
454.2332, 147.2615
454.7153, 147.6352
455.1974, 148.2041
455.6795, 148.3442
456.1617, 148.1548
456.6438, 148.0815
457.1259, 148.2710
457.6080, 148.5742
458.0901, 148.8111
458.5722, 148.9842
459.0544, 149.1492
459.5365, 149.4084
460.0186, 149.5971
460.5007, 149.4945
460.9828, 149.1506
461.4649, 148.8682
461.9471, 148.8396
462.4292, 149.0073
462.9113, 149.1318
463.3934, 149.2267
463.8755, 149.2652
464.3576, 149.2560
464.8398, 149.1820
465.3219, 148.9617
465.8040, 148.6105
466.2861, 148.3241
466.7682, 148.3529
467.2503, 148.7563
467.7325, 148.8897
468.2146, 148.4145
468.6967, 148.0264
469.1788, 147.9709
469.6609, 148.1042
470.1430, 148.2056
470.6252, 148.1785
471.1073, 148.0832
471.5894, 148.0356
472.0715, 148.0621
472.5536, 148.0240
473.0357, 147.8807
473.5179, 147.6823
474.0000, 147.3886
474.4821, 147.0476
474.9642, 146.8257
475.4463, 146.9255
475.9284, 147.1767
476.4106, 147.1918
476.8927, 146.9407
477.3748, 146.6362
477.8569, 146.3090
478.3390, 146.0253
478.8211, 145.9156
479.3033, 146.0532
479.7854, 146.1125
480.2675, 145.8177
480.7496, 145.3621
481.2317, 145.1438
481.7138, 145.2422
482.1959, 145.3343
482.6780, 145.0807
483.1602, 144.4955
483.6423, 144.2117
484.1244, 144.4576
484.6065, 144.7364
485.0886, 144.8041
485.5707, 144.7767
486.0529, 144.9035
486.5350, 145.2757
487.0171, 145.7100
487.4992, 145.9111
487.9813, 145.8574
488.4634, 145.6132
488.9456, 144.9575
489.4277, 144.3560
489.9098, 143.9987
490.3919, 143.8824
490.8740, 143.9978
491.3561, 144.3853
491.8383, 144.8703
492.3204, 144.9296
492.8025, 144.3881
493.2846, 143.9066
493.7667, 143.5565
494.2488, 143.3649
494.7310, 143.4409
495.2131, 143.7507
495.6952, 144.0277
496.1773, 143.9908
496.6594, 143.7874
497.1415, 143.9117
497.6237, 144.4838
498.1058, 144.8479
498.5879, 144.4975
499.0700, 143.7548
499.5521, 143.2454
500.0342, 143.0392
500.5164, 142.9673
500.9985, 143.0829
501.4806, 143.2392
501.9627, 143.1003
502.4448, 142.5933
502.9269, 142.1106
503.4091, 142.0672
503.8912, 142.4835
504.3733, 142.6247
504.8554, 142.2336
505.3375, 141.8879
505.8196, 141.8120
506.3018, 141.9074
506.7839, 142.0544
507.2660, 142.2017
507.7481, 142.2856
508.2302, 142.1981
508.7123, 141.8952
509.1945, 141.5794
509.6766, 141.2174
510.1587, 140.8761
510.6408, 140.5764
511.1229, 140.3158
511.6050, 140.0663
512.0872, 139.7937
512.5693, 139.5923
513.0514, 139.6856
513.5335, 140.1241
514.0156, 140.4824
514.4977, 140.7440
514.9799, 140.8071
515.4620, 140.4749
515.9441, 139.8249
516.4262, 139.3614
516.9083, 139.5559
517.3904, 139.9007
517.8726, 139.6453
518.3547, 138.8295
518.8368, 138.1182
519.3189, 137.8267
519.8010, 137.8236
520.2831, 137.8598
520.7653, 137.9977
521.2474, 137.9931
521.7295, 137.7404
522.2116, 137.3741
522.6937, 136.9431
523.1758, 136.4963
523.6580, 136.1546
524.1401, 136.0105
524.6222, 136.0398
525.1043, 136.1215
525.5864, 136.2923
526.0685, 136.4659
526.5507, 136.7358
527.0328, 136.9380
527.5149, 136.9304
527.9970, 136.7049
528.4791, 136.3556
528.9612, 135.9443
529.4434, 135.4787
529.9255, 134.9119
530.4076, 133.9921
530.8897, 133.5664
531.3718, 134.7038
531.8539, 136.1879
532.3361, 136.6644
532.8182, 135.8103
533.3003, 134.8138
533.7824, 134.4760
534.2645, 134.5437
534.7466, 134.4586
535.2288, 134.1391
535.7109, 133.8083
536.1930, 133.6105
536.6751, 133.5480
537.1572, 133.5981
537.6393, 133.8504
538.1215, 134.0948
538.6036, 134.3104
539.0857, 134.4686
539.5678, 134.5016
540.0499, 134.4107
540.5320, 134.3114
541.0142, 134.3350
541.4963, 134.4872
541.9784, 134.5521
542.4604, 134.4888
542.9426, 134.3783
543.4247, 134.1692
543.9068, 133.9533
544.3889, 133.8523
544.8710, 133.8928
545.3531, 133.9573
545.8353, 133.9228
546.3174, 133.7944
546.7995, 133.6225
547.2816, 133.3660
547.7637, 133.1588
548.2458, 133.0599
548.7280, 133.0719
549.2101, 133.2457
549.6922, 133.6957
550.1743, 134.0816
550.6564, 134.1597
551.1385, 134.0269
551.6207, 133.8793
552.1028, 133.7581
552.5849, 133.6081
553.0670, 133.3392
553.5491, 132.9510
554.0313, 132.8545
554.5134, 133.3923
554.9955, 133.7679
555.4776, 133.6205
555.9597, 133.2565
556.4418, 133.0299
556.9240, 133.0421
557.4061, 133.2234
557.8882, 133.5740
558.3703, 134.1129
558.8524, 134.2092
559.3345, 133.5007
559.8167, 132.8566
560.2988, 132.5306
560.7809, 132.4378
561.2630, 132.5361
561.7451, 132.8373
562.2272, 133.0776
562.7094, 132.9847
563.1915, 132.6422
563.6736, 132.2838
564.1557, 131.9003
564.6378, 131.6955
565.1199, 131.9286
565.6021, 132.4643
566.0842, 132.6879
566.5663, 132.3647
567.0484, 132.0693
567.5305, 132.0014
568.0126, 132.0682
568.4948, 132.2520
568.9769, 132.5000
569.4590, 132.5296
569.9411, 132.0047
570.4232, 130.9789
570.9053, 130.5236
571.3875, 131.3027
571.8696, 131.7666
572.3517, 131.5260
572.8338, 130.9756
573.3159, 130.3770
573.7980, 129.8213
574.2802, 129.4567
574.7623, 129.4660
575.2444, 129.7794
575.7265, 130.1724
576.2086, 130.7149
576.6907, 131.0322
577.1729, 130.8127
577.6550, 130.3294
578.1371, 130.0418
578.6192, 130.0024
579.1013, 129.9549
579.5834, 129.7004
580.0656, 129.4482
580.5477, 129.5836
581.0298, 130.0356
581.5119, 130.1802
581.9940, 129.5508
582.4761, 128.4605
582.9583, 127.9889
583.4404, 128.8295
583.9225, 129.2395
584.4046, 128.9250
584.8867, 128.4198
585.3688, 127.9393
585.8510, 127.5781
586.3331, 127.4910
586.8152, 127.8523
587.2973, 128.4010
587.7794, 128.4857
588.2615, 128.0275
588.7437, 127.6548
589.2258, 127.6346
589.7079, 127.6150
590.1900, 127.1467
590.6721, 126.3281
591.1542, 125.8147
591.6364, 126.1023
592.1185, 126.5246
592.6006, 126.4522
593.0827, 126.0420
593.5648, 125.7906
594.0469, 125.8843
594.5291, 126.1356
595.0112, 126.2892
595.4933, 126.3241
595.9754, 126.3593
596.4575, 126.4155
596.9396, 126.4510
597.4218, 126.4989
597.9039, 126.5004
598.3860, 126.3427
598.8681, 125.9933
599.3502, 125.6063
599.8323, 125.3065
600.3145, 125.0991
600.7966, 125.2207
601.2787, 125.8518
601.7608, 126.4466
602.2429, 126.6651
602.7250, 126.6531
603.2072, 126.6110
603.6893, 126.5709
604.1714, 126.4731
604.6535, 126.1777
605.1356, 125.8530
605.6177, 125.7525
606.0999, 125.8986
606.5820, 126.1851
607.0641, 126.5638
607.5462, 126.9908
608.0283, 127.2699
608.5104, 127.3948
608.9926, 127.3633
609.4747, 126.7360
609.9568, 126.3144
610.4389, 126.9849
610.9210, 128.4358
611.4031, 129.4699
611.8853, 129.2090
612.3674, 128.2752
612.8495, 128.0174
613.3316, 128.5012
613.8137, 128.8615
614.2958, 128.7901
614.7780, 128.6595
615.2601, 128.8756
615.7422, 129.3815
616.2243, 129.8549
616.7064, 130.2612
617.1885, 130.5846
617.6707, 130.7307
618.1528, 130.8006
618.6349, 131.0518
619.1170, 131.5506
619.5991, 132.0098
620.0812, 132.0298
620.5634, 131.5489
621.0455, 131.5740
621.5276, 132.6869
622.0097, 133.6031
622.4918, 133.8867
622.9739, 133.9436
623.4561, 134.2013
623.9382, 134.7349
624.4203, 135.3065
624.9023, 135.7037
625.3845, 135.9926
625.8666, 136.3620
626.3487, 136.8255
626.8308, 137.2522
627.3129, 137.5561
627.7950, 137.8166
628.2772, 138.2090
628.7593, 138.7668
629.2414, 139.2632
629.7235, 139.6167
630.2056, 139.9429
630.6877, 140.3668
631.1699, 140.8271
631.6520, 141.1679
632.1341, 141.3163
632.6162, 141.3480
633.0983, 141.3551
633.5804, 141.3001
634.0626, 141.4297
634.5447, 141.9283
635.0268, 142.3745
635.5089, 142.4098
635.9910, 142.3378
636.4731, 142.6647
636.9553, 143.5773
637.4374, 144.5789
637.9195, 145.4177
638.4016, 146.0655
638.8837, 146.3555
639.3658, 146.2897
639.8480, 146.3930
640.3301, 147.0680
640.8122, 148.0929
641.2943, 148.7301
641.7764, 148.6928
642.2585, 148.6620
642.7407, 148.5199
643.2228, 148.4868
643.7049, 148.8388
644.1870, 149.4131
644.6691, 149.7772
645.1512, 149.6779
645.6334, 149.3894
646.1155, 149.3644
646.5976, 149.6010
647.0797, 149.8049
647.5618, 149.9330
648.0439, 150.0221
648.5261, 150.0666
649.0082, 150.0942
649.4903, 150.2044
649.9724, 150.6021
650.4545, 150.7779
650.9366, 150.2957
651.4188, 149.6121
651.9009, 149.2787
652.3830, 149.3421
652.8651, 149.5453
653.3472, 149.7142
653.8293, 149.8394
654.3115, 149.9010
654.7936, 149.9505
655.2757, 149.8077
655.7578, 149.2612
656.2399, 148.6698
656.7220, 148.1618
657.2042, 147.7668
657.6863, 147.5531
658.1684, 147.6322
658.6505, 147.7610
659.1326, 147.8266
659.6147, 147.7559
660.0969, 147.2286
660.5790, 146.1621
661.0611, 145.1304
661.5432, 144.6822
662.0253, 144.7392
662.5074, 144.4597
662.9896, 143.4413
663.4717, 142.6184
663.9538, 142.0948
664.4359, 141.7746
664.9180, 141.7731
665.4001, 141.9322
665.8823, 141.7487
666.3644, 140.8005
666.8465, 139.5183
667.3286, 138.7025
667.8107, 138.3387
668.2928, 137.9124
668.7750, 137.3000
669.2571, 136.6278
669.7392, 136.0114
670.2213, 135.4442
670.7034, 134.8756
671.1855, 134.2758
671.6677, 133.7089
672.1498, 133.1909
672.6319, 132.7231
673.1140, 132.3730
673.5961, 132.0979
674.0782, 131.6820
674.5604, 130.9229
675.0425, 129.9593
675.5246, 129.2620
676.0067, 128.8969
676.4888, 128.5132
676.9709, 128.0741
677.4531, 127.5576
677.9352, 126.8754
678.4173, 126.0963
678.8994, 125.4773
679.3815, 125.2028
679.8636, 124.9418
680.3458, 124.5018
680.8279, 123.9499
681.3100, 123.3847
681.7921, 122.8258
682.2742, 122.2105
682.7563, 121.4513
683.2385, 120.6375
683.7206, 120.2601
684.2027, 120.6851
684.6848, 120.7451
685.1669, 120.0664
685.6490, 119.1700
686.1312, 118.2063
686.6133, 117.2657
687.0954, 116.5443
687.5775, 116.1687
688.0596, 115.9472
688.5417, 115.7914
689.0239, 115.6490
689.5060, 115.3701
689.9881, 114.9303
690.4702, 114.5020
690.9523, 114.2417
691.4344, 114.0872
691.9166, 113.7070
692.3987, 112.8361
692.8808, 112.1637
693.3629, 111.8837
693.8450, 111.6534
694.3271, 111.2550
694.8093, 110.7312
695.2914, 110.2316
695.7735, 109.8162
696.2556, 109.4611
696.7377, 109.1740
697.2198, 108.9259
697.7020, 108.6102
698.1841, 108.2118
698.6662, 107.7503
699.1483, 107.2154
699.6304, 106.6432
700.1125, 106.1803
700.5947, 105.9562
701.0768, 105.6480
701.5589, 105.1847
702.0410, 104.7002
702.5231, 104.3042
703.0052, 103.9493
703.4874, 103.4744
703.9695, 102.7930
704.4516, 102.1681
704.9337, 102.0259
705.4158, 102.2522
705.8979, 102.2671
706.3801, 101.9932
706.8622, 101.6748
707.3442, 101.4547
707.8264, 101.2815
708.3085, 101.0138
708.7906, 100.5838
709.2727, 100.2344
709.7548, 100.0359
710.2369, 99.86543
710.7191, 99.69811
711.2012, 99.49367
711.6833, 99.17817
712.1654, 98.72549
712.6475, 98.23841
713.1296, 97.82368
713.6118, 97.47562
714.0939, 97.14599
714.5760, 96.82943
715.0581, 96.58775
715.5402, 96.52656
716.0223, 96.48149
716.5045, 96.12138
716.9866, 95.37530
717.4687, 94.78483
717.9508, 94.45753
718.4329, 94.23075
718.9150, 94.08981
719.3972, 93.97060
719.8793, 93.76814
720.3614, 93.46780
720.8435, 93.18269
721.3256, 93.01949
721.8077, 92.96125
722.2899, 92.98820
722.7720, 93.12888
723.2541, 93.11326
723.7362, 92.83743
724.2183, 92.39576
724.7004, 91.79311
725.1826, 91.03490
725.6647, 90.63438
726.1468, 90.98241
726.6289, 91.25490
727.1110, 91.17183
727.5931, 90.84803
728.0753, 90.30446
728.5574, 89.63113
729.0395, 89.11715
729.5216, 89.01383
730.0037, 89.13486
730.4858, 89.03629
730.9680, 88.70908
731.4501, 88.43169
731.9322, 88.27728
732.4143, 88.13497
732.8964, 87.90623
733.3785, 87.61025
733.8607, 87.35396
734.3428, 87.16605
734.8249, 86.97466
735.3070, 86.67554
735.7891, 86.43823
736.2712, 86.53263
736.7534, 86.80957
737.2355, 86.81840
737.7176, 86.31652
738.1997, 85.63753
738.6818, 85.29792
739.1639, 85.25673
739.6461, 85.09336
740.1282, 84.74524
740.6103, 84.41424
741.0924, 84.20926
741.5745, 84.09705
742.0566, 84.03127
742.5388, 84.07259
743.0209, 83.95346
743.5030, 83.56702
743.9851, 83.10416
744.4672, 82.58344
744.9493, 82.08418
745.4315, 81.72979
745.9136, 81.54746
746.3957, 81.41577
746.8778, 81.22684
747.3599, 80.99700
747.8420, 80.73728
748.3242, 80.44305
748.8063, 80.35852
749.2884, 80.67368
749.7705, 80.95254
750.2526, 80.58578
750.7347, 79.51622
751.2169, 78.94814
751.6990, 79.32815
752.1811, 79.58602
752.6632, 79.35776
753.1453, 79.00276
753.6274, 78.86707
754.1096, 78.93822
754.5917, 78.98599
755.0738, 78.89272
755.5559, 78.68804
756.0380, 78.36731
756.5201, 77.96313
757.0023, 77.61337
757.4844, 77.33762
757.9665, 77.13515
758.4486, 76.98376
758.9307, 76.92776
759.4128, 77.14314
759.8950, 78.15797
760.3771, 78.46711
760.8592, 77.41867
761.3413, 76.39987
761.8234, 76.20086
762.3055, 76.41790
762.7877, 76.33588
763.2698, 75.74926
763.7519, 75.11626
764.2340, 74.70311
764.7161, 74.49598
765.1982, 74.61123
765.6804, 74.95813
766.1625, 75.03782
766.6446, 74.64736
767.1267, 74.06722
767.6088, 73.65572
768.0909, 73.41459
768.5731, 73.23183
769.0552, 73.17736
769.5373, 73.06453
770.0194, 72.77199
770.5015, 72.47136
770.9836, 72.34018
771.4658, 72.34049
771.9479, 72.24406
772.4300, 71.87303
772.9121, 71.51501
773.3942, 71.37164
773.8763, 71.37148
774.3585, 71.48177
774.8406, 71.64688
775.3227, 71.63445
775.8048, 71.26916
776.2869, 70.73509
776.7690, 70.51660
777.2512, 70.69448
777.7333, 70.62810
778.2154, 70.15689
778.6975, 69.65932
779.1796, 69.30188
779.6617, 69.06453
780.1439, 68.92355
780.6260, 68.88777
781.1081, 68.89262
781.5902, 68.95920
782.0723, 69.02391
782.5544, 69.06190
783.0366, 69.06332
783.5187, 69.02158
784.0008, 68.93266
784.4829, 68.78272
784.9650, 68.53218
785.4471, 68.22720
785.9293, 67.97974
786.4114, 67.78912
786.8935, 67.80888
787.3756, 68.16039
787.8577, 68.48077
788.3398, 68.42365
788.8220, 68.02966
789.3040, 67.64336
789.7861, 67.23954
790.2682, 66.87809
790.7504, 66.50766
791.2325, 66.23325
791.7146, 66.13738
792.1967, 66.18668
792.6788, 66.34483
793.1609, 66.62170
793.6431, 66.79918
794.1252, 66.65567
794.6073, 66.29486
795.0894, 65.83833
795.5715, 65.32554
796.0536, 64.95033
796.5358, 64.79334
797.0179, 64.78140
797.5000, 64.82742
797.9821, 64.93481
798.4642, 65.02491
798.9464, 65.15229
799.4285, 65.16377
799.9106, 64.90269
800.3927, 64.60493
800.8748, 64.48564
801.3569, 64.49974
801.8391, 64.39694
802.3212, 63.93427
802.8033, 63.60242
803.2854, 63.82910
803.7675, 64.21992
804.2496, 64.31118
804.7318, 64.10425
805.2139, 63.81395
805.6960, 63.55263
806.1781, 63.32522
806.6602, 63.13083
807.1423, 62.97226
807.6245, 62.90816
808.1066, 62.95650
808.5887, 63.02362
809.0708, 63.08905
809.5529, 63.12354
810.0350, 63.07672
810.5172, 62.93537
810.9993, 62.79250
811.4814, 62.68765
811.9635, 62.53225
812.4456, 62.22807
812.9277, 61.91638
813.4099, 61.76810
813.8920, 61.75356
814.3741, 61.68048
814.8562, 61.42786
815.3383, 61.13512
815.8204, 60.92359
816.3026, 60.78996
816.7847, 60.74877
817.2668, 60.79061
817.7489, 60.86091
818.2310, 60.94253
818.7131, 60.94854
819.1953, 60.65226
819.6774, 59.95483
820.1595, 59.59003
820.6416, 59.68502
821.1237, 59.87239
821.6058, 60.17060
822.0880, 60.38276
822.5701, 60.19463
823.0522, 59.62535
823.5343, 59.28035
824.0164, 59.47035
824.4985, 59.67965
824.9807, 59.70863
825.4628, 59.62352
825.9449, 59.48725
826.4270, 59.31492
826.9091, 59.08990
827.3912, 58.78332
827.8734, 58.50904
828.3555, 58.52384
828.8376, 58.71959
829.3197, 58.55271
829.8018, 57.97420
830.2839, 57.58521
830.7661, 57.72814
831.2482, 58.08848
831.7303, 58.13750
832.2124, 57.81608
832.6945, 57.61791
833.1766, 57.70800
833.6588, 57.68327
834.1409, 57.32951
834.6230, 56.93301
835.1051, 56.77177
835.5872, 56.79668
836.0693, 56.69268
836.5515, 56.21038
837.0336, 55.82800
837.5157, 55.90608
837.9978, 56.15655
838.4799, 56.28832
838.9620, 56.27226
839.4442, 56.13353
839.9263, 55.88324
840.4084, 55.62795
840.8905, 55.54144
841.3726, 55.58792
841.8547, 55.59076
842.3369, 55.55458
842.8190, 55.32296
843.3011, 54.77600
843.7832, 54.19353
844.2653, 53.89441
844.7474, 53.87339
845.2296, 53.94979
845.7117, 54.22755
846.1938, 54.44952
846.6759, 54.74464
847.1580, 54.83689
847.6401, 54.37755
848.1223, 53.61379
848.6044, 53.10587
849.0865, 53.02894
849.5686, 53.06372
850.0507, 53.08818
850.5328, 53.09997
851.0150, 53.06577
851.4971, 53.02289
851.9792, 53.09731
852.4613, 53.30616
852.9434, 53.44758
853.4255, 53.28580
853.9077, 52.93567
854.3898, 52.75459
854.8719, 52.74190
855.3540, 52.82603
855.8361, 53.04154
856.3182, 53.11945
856.8004, 52.78969
857.2825, 52.22038
857.7646, 51.96874
858.2467, 52.29957
858.7288, 52.37289
859.2109, 52.02132
859.6931, 51.61567
860.1752, 51.18586
860.6573, 50.82831
861.1394, 50.68262
861.6215, 50.75303
862.1036, 50.83482
862.5858, 50.86681
863.0679, 50.86164
863.5500, 50.80413
864.0321, 50.72790
864.5142, 50.68921
864.9963, 50.68350
865.4785, 50.65639
865.9606, 50.57418
866.4427, 50.47168
866.9248, 50.43383
867.4069, 50.43054
867.8890, 50.29808
868.3712, 50.02566
868.8533, 49.63710
869.3354, 49.10081
869.8175, 48.58851
870.2996, 48.33231
870.7817, 48.33271
871.2639, 48.43984
871.7459, 48.76738
872.2280, 49.00121
872.7101, 48.98138
873.1923, 48.95303
873.6744, 49.11648
874.1565, 49.37719
874.6386, 49.50525
875.1207, 49.45893
875.6028, 49.29118
876.0850, 48.84372
876.5671, 48.45175
877.0492, 48.41837
877.5313, 48.59631
878.0134, 48.75489
878.4955, 48.81995
878.9777, 48.77251
879.4598, 48.56501
879.9419, 48.27431
880.4240, 47.97575
880.9061, 47.70030
881.3882, 47.62567
881.8704, 47.76199
882.3525, 47.77344
882.8346, 47.42199
883.3167, 46.92883
883.7988, 46.77214
884.2809, 46.99974
884.7631, 47.22423
885.2452, 47.51897
885.7273, 47.61703
886.2094, 47.31032
886.6915, 46.88593
887.1736, 46.62125
887.6558, 46.51778
888.1379, 46.57495
888.6200, 47.01209
889.1021, 47.30005
889.5842, 47.32993
890.0663, 47.20080
890.5485, 46.75335
891.0306, 46.26321
891.5127, 46.34267
891.9948, 47.18845
892.4769, 47.89659
892.9590, 47.84559
893.4412, 47.40791
893.9233, 46.79463
894.4054, 46.15591
894.8875, 45.82664
895.3696, 45.83644
895.8517, 45.85987
896.3339, 45.64019
896.8160, 45.34218
897.2981, 45.35469
897.7802, 45.63383
898.2623, 45.71053
898.7444, 45.52562
899.2266, 45.35790
899.7087, 45.35341
900.1908, 45.38365
900.6729, 45.23089
901.1550, 44.87702
901.6371, 44.76644
902.1193, 45.13869
902.6014, 45.30519
903.0835, 44.94121
903.5656, 44.52576
904.0477, 44.40272
904.5298, 44.47669
905.0120, 44.50995
905.4941, 44.48919
905.9762, 44.39538
906.4583, 44.13527
906.9404, 43.89557
907.4225, 43.76730
907.9047, 43.74205
908.3868, 43.86607
908.8689, 44.09903
909.3510, 44.19727
909.8331, 43.91804
910.3152, 43.60211
910.7974, 43.64746
911.2795, 43.88274
911.7616, 43.96506
912.2437, 43.90234
912.7258, 43.91520
913.2079, 44.10787
913.6901, 44.45681
914.1722, 45.09992
914.6543, 45.88319
915.1364, 45.77525
915.6185, 44.73600
916.1006, 43.93397
916.5828, 43.64811
917.0649, 43.74690
917.5470, 44.24792
918.0291, 44.93646
918.5112, 44.98933
918.9933, 44.04425
919.4755, 43.39230
919.9576, 43.20179
920.4397, 43.06886
920.9218, 42.80921
921.4039, 42.54618
921.8860, 42.42735
922.3682, 42.44942
922.8503, 42.47681
923.3324, 42.52008
923.8145, 42.52728
924.2966, 42.48876
924.7787, 42.40408
925.2609, 42.20881
925.7430, 41.98407
926.2251, 41.90400
926.7072, 42.02270
927.1893, 42.16530
927.6714, 42.28313
928.1536, 42.30980
928.6357, 42.05140
929.1178, 41.69560
929.5999, 41.66578
930.0820, 41.96695
930.5641, 42.19408
931.0463, 42.08034
931.5284, 41.81449
932.0105, 41.70470
932.4926, 41.70075
932.9747, 41.54633
933.4568, 41.24463
933.9390, 41.09340
934.4211, 41.21153
934.9032, 41.44540
935.3853, 41.65271
935.8674, 41.81426
936.3495, 41.77955
936.8317, 41.46899
937.3138, 41.33325
937.7959, 41.52637
938.2780, 41.66102
938.7601, 41.45842
939.2422, 41.12006
939.7244, 41.00814
940.2065, 41.15857
940.6886, 41.32251
941.1707, 41.65461
941.6528, 41.78890
942.1349, 41.52351
942.6171, 41.15682
943.0992, 40.79870
943.5813, 40.52962
944.0634, 40.58130
944.5455, 41.14746
945.0276, 41.45986
945.5098, 40.95613
945.9919, 40.42037
946.4740, 40.45206
946.9561, 40.73001
947.4382, 40.73632
947.9203, 40.46842
948.4025, 40.38580
948.8846, 40.83135
949.3667, 41.29179
949.8488, 41.21085
950.3309, 40.86712
950.8130, 40.67902
951.2952, 40.63342
951.7773, 40.55257
952.2594, 40.37896
952.7415, 40.20140
953.2236, 40.09987
953.7057, 40.06011
954.1878, 40.06534
954.6699, 40.10579
955.1520, 40.12682
955.6342, 40.12043
956.1163, 40.02784
956.5984, 39.79510
957.0805, 39.58670
957.5626, 39.70098
958.0447, 40.13006
958.5269, 40.35941
959.0090, 40.35306
959.4911, 40.30514
959.9732, 40.25999
960.4553, 40.17377
960.9374, 39.99701
961.4196, 39.76557
961.9017, 39.58245
962.3838, 39.46944
962.8659, 39.33395
963.3480, 39.01812
963.8301, 38.89652
964.3123, 39.26624
964.7944, 39.70317
965.2765, 39.85522
965.7586, 39.75310
966.2407, 39.58065
966.7228, 39.31858
967.2050, 39.07227
967.6871, 38.76551
968.1692, 38.58702
968.6513, 38.72104
969.1334, 39.00685
969.6155, 39.30062
970.0977, 39.54519
970.5798, 39.57155
971.0619, 39.10652
971.5440, 38.72859
972.0261, 38.99362
972.5082, 39.38033
972.9904, 39.21053
973.4725, 38.71917
973.9546, 38.61163
974.4367, 39.05634
974.9188, 39.42620
975.4009, 39.13713
975.8831, 38.59863
976.3652, 38.29659
976.8473, 38.18441
977.3294, 38.19426
977.8115, 38.29441
978.2936, 38.40533
978.7758, 38.48970
979.2579, 38.59133
979.7400, 38.79738
980.2221, 39.05376
980.7042, 39.19417
981.1863, 39.21608
981.6685, 39.05462
982.1506, 38.69862
982.6327, 38.35807
983.1148, 38.16801
983.5969, 38.08908
984.0790, 38.07439
984.5612, 38.12542
985.0433, 38.03949
985.5254, 37.78483
986.0075, 37.55703
986.4896, 37.36030
986.9717, 37.36823
987.4539, 37.79677
987.9360, 38.46955
988.4181, 38.84017
988.9002, 38.88398
989.3823, 38.67824
989.8644, 38.00432
990.3466, 37.50463
990.8287, 37.43213
991.3108, 37.55355
991.7929, 37.67909
992.2750, 37.80863
992.7571, 37.94385
993.2393, 38.18256
993.7214, 38.25135
994.2035, 38.00348
994.6856, 37.75699
995.1677, 37.62788
995.6498, 37.56590
996.1320, 37.52872
996.6141, 37.50875
997.0962, 37.48038
997.5783, 37.41397
998.0604, 37.38007
998.5425, 37.47499
999.0247, 37.52509
999.5068, 37.31705
999.9889, 37.04950
1000.471, 37.03038
1000.953, 37.27943
1001.435, 37.54595
1001.917, 37.82834
1002.399, 37.94851
1002.882, 37.62850
1003.364, 37.25968
1003.846, 37.21423
1004.328, 37.40554
1004.810, 37.67638
1005.292, 37.95243
1005.774, 38.01284
1006.256, 37.51490
1006.739, 37.01828
1007.221, 37.19159
1007.703, 37.60659
1008.185, 37.61114
1008.667, 37.29517
1009.149, 37.11993
1009.631, 37.23944
1010.113, 37.40786
1010.595, 37.44848
1011.078, 37.36975
1011.560, 37.10441
1012.042, 36.75207
1012.524, 36.53662
1013.006, 36.47593
1013.488, 36.50555
1013.970, 36.59581
1014.452, 36.73042
1014.935, 36.93275
1015.417, 37.13322
1015.899, 37.14437
1016.381, 36.99281
1016.863, 36.75177
1017.345, 36.45330
1017.827, 36.29933
1018.309, 36.40007
1018.791, 36.58265
1019.274, 36.58978
1019.756, 36.47857
1020.238, 36.57923
1020.720, 36.87801
1021.202, 36.97572
1021.684, 36.79243
1022.166, 36.62063
1022.648, 36.63400
1023.130, 36.72313
1023.613, 36.69764
1024.095, 36.57108
1024.577, 36.60841
1025.059, 36.84475
1025.541, 36.91980
1026.023, 36.72613
1026.505, 36.56355
1026.987, 36.65279
1027.469, 36.80542
1027.952, 36.62416
1028.434, 36.07848
1028.916, 35.98394
1029.398, 36.52269
1029.880, 36.87066
1030.362, 36.85506
1030.844, 36.65764
1031.326, 36.33825
1031.809, 35.97631
1032.291, 35.72649
1032.773, 35.59177
1033.255, 35.54741
1033.737, 35.59428
1034.219, 35.74005
1034.701, 36.06579
1035.183, 36.37049
1035.666, 36.50616
1036.148, 36.53942
1036.630, 36.63409
1037.112, 36.84615
1037.594, 36.79642
1038.076, 36.21790
1038.558, 35.80600
1039.040, 35.73745
1039.522, 35.80616
1040.005, 35.92307
1040.487, 36.07194
1040.969, 36.25569
1041.451, 36.53065
1041.933, 36.54528
1042.415, 36.00376
1042.897, 35.60838
1043.379, 35.55626
1043.861, 35.62091
1044.344, 35.70062
1044.826, 35.77971
1045.308, 35.85447
1045.790, 35.94181
1046.272, 35.90149
1046.754, 35.51926
1047.236, 35.28435
1047.718, 35.50173
1048.201, 35.72414
1048.683, 35.53158
1049.165, 35.16408
1049.647, 35.13670
1050.129, 35.54594
1050.611, 35.80488
1051.093, 35.65033
1051.575, 35.53426
1052.057, 35.64175
1052.540, 35.78378
1053.022, 35.82281
1053.504, 35.79543
1053.986, 35.82720
1054.468, 35.94163
1054.950, 35.83765
1055.432, 35.00050
1055.914, 34.52280
1056.396, 35.12874
1056.879, 35.88915
1057.361, 36.16049
1057.843, 36.06419
1058.325, 35.84908
1058.807, 35.56234
1059.289, 35.33619
1059.771, 35.13601
1060.253, 35.10886
1060.736, 35.60362
1061.218, 36.00576
1061.700, 35.64881
1062.182, 34.96447
1062.664, 34.75497
1063.146, 35.10950
1063.628, 35.35712
1064.110, 35.15203
1064.593, 34.94305
1065.075, 34.93813
1065.557, 34.97584
1066.039, 34.94968
1066.521, 34.87389
1067.003, 34.72682
1067.485, 34.54062
1067.967, 34.55122
1068.449, 35.00710
1068.932, 35.39383
1069.414, 35.51659
1069.896, 35.44794
1070.378, 35.09443
1070.860, 34.66969
1071.342, 34.45766
1071.824, 34.48041
1072.306, 34.58054
1072.788, 34.75652
1073.271, 34.87188
1073.753, 34.81348
1074.235, 34.72303
1074.717, 34.72383
1075.199, 34.74276
1075.681, 34.61016
1076.163, 34.37851
1076.645, 34.37569
1077.127, 34.83001
1077.610, 35.14471
1078.092, 34.89613
1078.574, 34.57541
1079.056, 34.48318
1079.538, 34.53062
1080.020, 34.62379
1080.502, 34.73356
1080.984, 34.85165
1081.467, 35.00672
1081.949, 35.00914
1082.431, 34.55687
1082.913, 34.17802
1083.395, 34.30768
1083.877, 34.59259
1084.359, 34.67036
1084.841, 34.55578
1085.323, 34.38650
1085.806, 34.18699
1086.288, 34.05070
1086.770, 34.00138
1087.252, 34.04465
1087.734, 34.29818
1088.216, 34.54629
1088.698, 34.59272
1089.180, 34.47231
1089.662, 34.24987
1090.145, 33.93720
1090.627, 33.74897
1091.109, 33.82858
1091.591, 33.96352
1092.073, 34.13247
1092.555, 34.25433
1093.037, 34.25561
1093.519, 34.16873
1094.002, 34.00114
1094.484, 33.77520
1094.966, 33.71018
1095.448, 34.07888
1095.930, 34.31713
1096.412, 34.13429
1096.894, 33.87814
1097.376, 33.72033
1097.859, 33.65405
1098.341, 33.68818
1098.823, 33.79706
1099.305, 33.84272
1099.787, 33.77380
1100.269, 33.68103
1100.751, 33.53752
1101.233, 33.43527
1101.715, 33.36712
1102.198, 33.40258
1102.680, 33.74084
1103.162, 34.25092
1103.644, 34.42296
1104.126, 34.04788
1104.608, 33.77256
1105.090, 33.76661
1105.572, 33.80527
1106.054, 33.87614
1106.537, 33.90108
1107.019, 33.79250
1107.501, 33.59652
1107.983, 33.40358
1108.465, 33.19240
1108.947, 33.14511
1109.429, 33.38820
1109.911, 33.63884
1110.394, 34.03468
1110.876, 34.21704
1111.358, 33.68840
1111.840, 32.94059
1112.322, 32.86631
1112.804, 33.51957
1113.286, 33.88787
1113.768, 33.83293
1114.250, 33.71678
1114.733, 33.46765
1115.215, 33.29335
1115.697, 33.35849
1116.179, 33.47104
1116.661, 33.38931
1117.143, 33.14703
1117.625, 32.99089
1118.107, 32.92340
1118.589, 32.94790
1119.072, 33.14745
1119.554, 33.26285
1120.036, 33.13898
1120.518, 33.03524
1121.000, 33.23023
1121.482, 33.57420
1121.964, 33.59163
1122.446, 33.18561
1122.929, 33.07629
1123.411, 33.39993
1123.893, 33.52643
1124.375, 33.23943
1124.857, 32.98857
1125.339, 33.07660
1125.821, 33.33733
1126.303, 33.51262
1126.786, 33.59620
1127.268, 33.39479
1127.750, 32.83664
1128.232, 32.72941
1128.714, 33.25822
1129.196, 33.60273
1129.678, 33.36513
1130.160, 32.94624
1130.642, 32.79885
1131.125, 32.84365
1131.607, 32.76928
1132.089, 32.59318
1132.571, 32.67646
1133.053, 33.03047
1133.535, 33.26908
1134.017, 33.27460
1134.499, 33.19672
1134.981, 33.14631
1135.464, 33.10881
1135.946, 33.04929
1136.428, 32.98088
1136.910, 32.96675
1137.392, 32.99333
1137.874, 32.99970
1138.356, 32.97154
1138.838, 32.88352
1139.321, 32.72165
1139.803, 32.60296
1140.285, 32.69251
1140.767, 32.87936
1141.249, 32.98722
1141.731, 33.02299
1142.213, 32.97207
1142.695, 32.86393
1143.177, 32.75827
1143.660, 32.68891
1144.142, 32.76802
1144.624, 33.18832
1145.106, 33.51659
1145.588, 33.11610
1146.070, 32.51081
1146.552, 32.34885
1147.034, 32.49602
1147.516, 32.68946
1147.999, 32.84959
1148.481, 32.94516
1148.963, 32.97741
1149.445, 32.85688
1149.927, 32.26427
1150.409, 31.79683
1150.891, 32.02651
1151.373, 32.49492
1151.856, 32.74199
1152.338, 32.78902
1152.820, 32.79194
1153.302, 32.78446
1153.784, 32.82277
1154.266, 33.07212
1154.748, 33.16200
1155.230, 32.73184
1155.713, 32.36770
1156.195, 32.60738
1156.677, 33.01484
1157.159, 32.92548
1157.641, 32.40531
1158.123, 32.18155
1158.605, 32.49251
1159.087, 32.73228
1159.569, 32.88264
1160.052, 32.93221
1160.534, 32.87594
1161.016, 32.71656
1161.498, 32.35134
1161.980, 31.94489
1162.462, 31.89118
1162.944, 32.23884
1163.426, 32.39770
1163.908, 32.26513
1164.391, 32.26362
1164.873, 32.52649
1165.355, 32.67375
1165.837, 32.47189
1166.319, 32.22186
1166.801, 32.29856
1167.283, 32.60501
1167.765, 32.73319
1168.247, 32.67616
1168.730, 32.67366
1169.212, 32.73993
1169.694, 32.66233
1170.176, 32.37782
1170.658, 32.20714
1171.140, 32.38899
1171.622, 32.68036
1172.104, 32.64835
1172.587, 32.42281
1173.069, 32.49232
1173.551, 32.75502
1174.033, 32.80216
1174.515, 32.62325
1174.997, 32.46624
1175.479, 32.42231
1175.961, 32.38170
1176.443, 32.22666
1176.926, 32.09016
1177.408, 32.20945
1177.890, 32.39964
1178.372, 32.36821
1178.854, 32.20396
1179.336, 32.10671
1179.818, 32.10035
1180.300, 32.09758
1180.782, 32.05513
1181.265, 32.07270
1181.747, 32.34465
1182.229, 32.53536
1182.711, 32.26995
1183.193, 31.95773
1183.675, 32.06147
1184.157, 32.38800
1184.639, 32.51574
1185.122, 32.39422
1185.604, 32.30690
1186.086, 32.32578
1186.568, 32.37019
1187.050, 32.50346
1187.532, 32.56409
1188.014, 32.38848
1188.496, 32.19432
1188.979, 32.22888
1189.461, 32.38971
1189.943, 32.35418
1190.425, 32.04915
1190.907, 31.99964
1191.389, 32.34145
1191.871, 32.54786
1192.353, 32.49437
1192.835, 32.42548
1193.318, 32.47693
1193.800, 32.52137
1194.282, 32.37525
1194.764, 32.12631
1195.246, 32.20168
1195.728, 32.57729
1196.210, 32.51291
1196.692, 32.00303
1197.174, 31.56282
1197.657, 31.34102
1198.139, 31.64581
1198.621, 32.71310
1199.103, 33.75434
1199.585, 33.60365
1200.067, 32.78149
1200.549, 32.13515
1201.031, 31.71515
1201.514, 31.74494
1201.996, 32.08541
1202.478, 32.32200
1202.960, 32.33892
1203.442, 32.24096
1203.924, 32.03789
1204.406, 31.89593
1204.888, 32.06188
1205.370, 32.21235
1205.853, 31.99320
1206.335, 31.66572
1206.817, 31.53907
1207.299, 31.59287
1207.781, 31.70875
1208.263, 31.87291
1208.745, 31.92965
1209.227, 31.71852
1209.709, 31.58087
1210.192, 31.63204
1210.674, 31.71885
1211.156, 31.78619
1211.638, 31.83451
1212.120, 31.87482
1212.602, 31.89430
1213.084, 31.83056
1213.566, 31.64148
1214.049, 31.60569
1214.531, 31.79913
1215.013, 31.81113
1215.495, 31.51014
1215.977, 31.29862
1216.459, 31.40337
1216.941, 31.63254
1217.423, 31.77315
1217.906, 31.81594
1218.388, 31.67815
1218.870, 31.41271
1219.352, 31.31096
1219.834, 31.35026
1220.316, 31.31010
1220.798, 31.15918
1221.280, 31.05750
1221.762, 31.09149
1222.245, 31.18917
1222.727, 31.28809
1223.209, 31.40195
1223.691, 31.63847
1224.173, 31.82885
1224.655, 31.69342
1225.137, 31.35790
1225.619, 31.02437
1226.101, 30.77540
1226.584, 30.78466
1227.066, 31.23497
1227.548, 31.58475
1228.030, 31.62714
1228.512, 31.56013
1228.994, 31.31086
1229.476, 31.13724
1229.958, 31.34336
1230.441, 31.70834
1230.923, 31.82627
1231.405, 31.70521
1231.887, 31.61755
1232.369, 31.58354
1232.851, 31.50599
1233.333, 31.33731
1233.815, 31.28440
1234.297, 31.42168
1234.780, 31.66881
1235.262, 32.01412
1235.744, 32.23372
1236.226, 31.81240
1236.708, 31.00311
1237.190, 30.99508
1237.672, 31.56947
1238.154, 31.69994
1238.636, 31.39352
1239.119, 31.26277
1239.601, 31.46350
1240.083, 31.67871
1240.565, 31.71843
1241.047, 31.65090
1241.529, 31.45861
1242.011, 31.27866
1242.493, 31.27683
1242.975, 31.34131
1243.458, 31.28126
1243.940, 31.19007
1244.422, 31.35284
1244.904, 31.78353
1245.386, 32.02436
1245.868, 31.86873
1246.350, 31.67894
1246.832, 31.42007
1247.315, 31.26795
1247.797, 31.38380
1248.279, 31.49615
1248.761, 31.36670
1249.243, 31.16101
1249.725, 31.20914
1250.207, 31.48506
1250.689, 31.51937
1251.172, 31.28609
1251.654, 31.07009
1252.136, 30.88938
1252.618, 30.82243
1253.100, 30.89199
1253.582, 30.95391
1254.064, 30.89874
1254.546, 30.89449
1255.028, 31.33829
1255.510, 31.86905
1255.993, 31.65319
1256.475, 31.10277
1256.957, 30.98011
1257.439, 31.21235
1257.921, 31.48244
1258.403, 31.68382
1258.885, 31.73676
1259.367, 31.57222
1259.850, 31.39029
1260.332, 31.21716
1260.814, 31.13655
1261.296, 31.27869
1261.778, 31.43587
1262.260, 31.36840
1262.742, 31.26042
1263.224, 31.49452
1263.707, 31.99876
1264.189, 32.13506
1264.671, 31.78639
1265.153, 31.43996
1265.635, 31.05565
1266.117, 30.89614
1266.599, 31.04904
1267.081, 31.22426
1267.563, 31.25497
1268.046, 31.29224
1268.528, 31.56001
1269.010, 31.88339
1269.492, 31.75894
1269.974, 31.41033
1270.456, 31.49882
1270.938, 31.83964
1271.420, 31.80802
1271.902, 31.39807
1272.385, 31.01614
1272.867, 30.81775
1273.349, 30.84686
1273.831, 31.36514
1274.313, 31.78838
1274.795, 31.78279
1275.277, 31.63478
1275.759, 31.45187
1276.242, 31.29737
1276.724, 31.22037
1277.206, 31.22426
1277.688, 31.32441
1278.170, 31.54223
1278.652, 31.66411
1279.134, 31.71044
1279.616, 31.54187
1280.099, 31.07150
1280.581, 30.79803
1281.063, 30.92197
1281.545, 31.08062
1282.027, 30.96875
1282.509, 30.82708
1282.991, 31.16994
1283.473, 31.73253
1283.955, 31.95378
##END=



