##NAMES=Probertite
##RRUFFID=R050284
##IDEAL CHEMISTRY=NaCaB_5_O_7_(OH)_4_&#183;3H_2_O
##LOCALITY=Borax Open Pit, Boron, Kern County, California, USA
##OWNER=RRUFF
##SOURCE=Marcus Origlieri
##DESCRIPTION=Spray of colorless acicular single crystals
##STATUS=The identification of this mineral has been confirmed by X-ray diffraction and chemical analysis
##URL=rruff.info/R050284
##MEASURED CHEMISTRY=Na_1.00_Ca_1.00_B_5.00_O_7_(OH)_4_Â·3H_2_O
181.2329, 343.6332
181.7150, 343.6968
182.1971, 343.7102
182.6792, 343.7112
183.1614, 343.6438
183.6435, 343.4656
184.1256, 343.1790
184.6077, 342.8177
185.0898, 342.3719
185.5719, 341.8415
186.0540, 341.4761
186.5362, 341.3119
187.0183, 341.2956
187.5004, 341.5795
187.9825, 342.2160
188.4646, 342.5140
188.9467, 341.4763
189.4289, 339.4465
189.9110, 337.7924
190.3931, 336.9532
190.8752, 336.6302
191.3573, 336.3016
191.8394, 335.8199
192.3216, 335.6715
192.8037, 336.8784
193.2858, 338.7690
193.7679, 339.7014
194.2500, 338.1367
194.7321, 334.9630
195.2143, 333.1093
195.6964, 333.2811
196.1785, 333.8515
196.6606, 334.0633
197.1427, 333.9442
197.6248, 333.5295
198.1070, 332.6346
198.5891, 331.3520
199.0712, 330.6567
199.5533, 331.0669
200.0354, 331.5357
200.5175, 331.6764
200.9997, 331.5554
201.4818, 331.3708
201.9639, 331.2746
202.4460, 331.2694
202.9281, 331.2341
203.4102, 331.2791
203.8924, 331.1855
204.3745, 330.7204
204.8566, 330.0305
205.3387, 329.4799
205.8208, 329.4086
206.3029, 329.8798
206.7851, 330.2571
207.2672, 330.5634
207.7493, 330.7725
208.2314, 330.7789
208.7135, 330.6508
209.1956, 330.6335
209.6778, 331.0352
210.1599, 332.0246
210.6420, 331.9442
211.1241, 329.8700
211.6062, 327.7501
212.0883, 326.5996
212.5705, 326.4043
213.0526, 326.5364
213.5347, 326.4461
214.0168, 326.0931
214.4989, 325.9762
214.9810, 326.3101
215.4632, 326.6913
215.9453, 326.9228
216.4274, 326.9736
216.9095, 326.7955
217.3916, 326.2834
217.8737, 325.4274
218.3559, 324.7205
218.8380, 324.1012
219.3201, 323.6758
219.8022, 323.5926
220.2843, 323.8632
220.7664, 324.2468
221.2486, 324.5978
221.7307, 324.9123
222.2128, 325.1620
222.6949, 325.3154
223.1770, 325.4156
223.6591, 325.4899
224.1413, 325.5300
224.6234, 325.6010
225.1055, 325.7573
225.5876, 325.9758
226.0697, 326.2222
226.5518, 326.4048
227.0340, 326.6498
227.5161, 327.2755
227.9982, 328.4681
228.4803, 329.3816
228.9624, 329.1839
229.4445, 328.4824
229.9267, 328.0827
230.4088, 328.4521
230.8909, 329.1396
231.3730, 329.1462
231.8551, 328.0525
232.3372, 327.3596
232.8194, 328.0459
233.3015, 329.3330
233.7836, 330.3249
234.2657, 330.6075
234.7478, 330.4618
235.2299, 330.5418
235.7121, 331.0322
236.1942, 331.3747
236.6763, 331.1070
237.1584, 330.7456
237.6405, 330.9686
238.1227, 332.1566
238.6048, 333.7586
239.0869, 334.2296
239.5690, 332.4518
240.0511, 331.5279
240.5332, 332.8761
241.0154, 334.8637
241.4975, 335.7721
241.9796, 334.8575
242.4617, 332.8459
242.9438, 331.5714
243.4259, 331.6087
243.9081, 331.5164
244.3902, 331.2088
244.8723, 330.6794
245.3544, 329.8503
245.8365, 328.6978
246.3186, 327.4060
246.8007, 326.3789
247.2829, 325.7277
247.7650, 325.2266
248.2471, 324.9297
248.7292, 324.7292
249.2113, 324.6100
249.6934, 324.5473
250.1756, 324.3866
250.6577, 323.8129
251.1398, 322.4388
251.6219, 321.1820
252.1040, 319.9617
252.5861, 318.9005
253.0683, 318.1644
253.5504, 317.7897
254.0325, 317.6004
254.5146, 317.3199
254.9967, 316.9571
255.4788, 316.4595
255.9610, 315.6817
256.4431, 314.8604
256.9252, 314.2007
257.4073, 313.7501
257.8894, 313.4179
258.3716, 313.0768
258.8537, 312.6885
259.3358, 312.4297
259.8179, 312.3793
260.3000, 312.4116
260.7821, 312.4068
261.2643, 312.3470
261.7464, 312.3241
262.2285, 312.4861
262.7106, 312.9191
263.1927, 313.0092
263.6748, 312.5961
264.1570, 311.9290
264.6391, 311.0658
265.1212, 310.0464
265.6033, 309.2062
266.0854, 308.8624
266.5675, 309.0676
267.0497, 309.5121
267.5318, 310.6544
268.0139, 311.7097
268.4960, 311.9060
268.9781, 311.2409
269.4602, 310.5034
269.9424, 310.2803
270.4245, 310.5294
270.9066, 310.7120
271.3887, 310.7607
271.8708, 310.7852
272.3529, 310.8997
272.8351, 311.0944
273.3172, 311.2186
273.7993, 311.1496
274.2814, 310.9462
274.7635, 310.8102
275.2456, 310.6917
275.7278, 310.7035
276.2099, 311.0410
276.6920, 311.6540
277.1741, 312.1024
277.6562, 312.0549
278.1383, 311.7933
278.6204, 311.9561
279.1025, 312.8178
279.5847, 313.5123
280.0668, 313.0834
280.5489, 311.7939
281.0310, 311.3214
281.5131, 312.7028
281.9952, 314.7318
282.4774, 315.5908
282.9595, 315.0948
283.4416, 314.5483
283.9237, 314.7381
284.4058, 315.5298
284.8879, 316.3856
285.3701, 317.2223
285.8522, 318.0189
286.3343, 318.8149
286.8164, 319.6068
287.2985, 320.2131
287.7806, 320.3052
288.2628, 320.1067
288.7449, 320.3895
289.2270, 321.4262
289.7091, 322.6682
290.1912, 323.8214
290.6733, 324.8423
291.1555, 325.5424
291.6376, 325.3976
292.1197, 324.9028
292.6018, 325.3770
293.0839, 327.2487
293.5660, 329.2111
294.0482, 330.4506
294.5303, 331.1704
295.0124, 331.6857
295.4945, 331.9937
295.9766, 332.2254
296.4587, 332.6941
296.9409, 333.5327
297.4230, 334.1517
297.9051, 333.8708
298.3872, 333.3091
298.8693, 333.2732
299.3514, 334.2109
299.8336, 335.3805
300.3157, 335.6324
300.7978, 334.7545
301.2799, 334.2576
301.7620, 335.2619
302.2441, 336.6371
302.7263, 337.4451
303.2084, 337.5110
303.6905, 337.0435
304.1726, 336.0811
304.6547, 334.5986
305.1368, 333.2716
305.6190, 332.3671
306.1011, 331.5925
306.5832, 330.7382
307.0653, 329.7903
307.5474, 328.8213
308.0295, 327.9116
308.5117, 327.0528
308.9938, 326.1059
309.4759, 325.0194
309.9580, 323.8786
310.4401, 322.6802
310.9222, 321.4664
311.4044, 320.3846
311.8865, 319.7406
312.3686, 319.3615
312.8507, 318.3395
313.3328, 316.0694
313.8149, 314.2043
314.2971, 313.9029
314.7792, 314.5387
315.2613, 314.9635
315.7434, 314.5670
316.2255, 313.6953
316.7076, 313.1794
317.1898, 313.2574
317.6719, 313.0009
318.1540, 311.4671
318.6361, 309.5912
319.1182, 308.4655
319.6003, 308.5474
320.0825, 309.0841
320.5646, 309.0366
321.0467, 308.3059
321.5288, 307.6230
322.0109, 307.2485
322.4930, 306.9988
322.9752, 306.7086
323.4573, 306.3500
323.9394, 306.1020
324.4215, 306.2153
324.9036, 306.6795
325.3857, 307.0281
325.8679, 307.2918
326.3500, 307.2709
326.8321, 306.6215
327.3142, 305.4724
327.7963, 304.5815
328.2784, 304.7037
328.7606, 305.5866
329.2427, 305.9447
329.7248, 305.4268
330.2069, 304.8706
330.6890, 304.8836
331.1711, 305.2351
331.6533, 305.4173
332.1354, 304.9746
332.6175, 304.3345
333.0996, 304.5208
333.5817, 305.8581
334.0638, 306.9730
334.5460, 306.9401
335.0281, 306.3756
335.5102, 305.8591
335.9923, 305.4402
336.4744, 305.3301
336.9565, 305.9948
337.4387, 307.4976
337.9208, 308.6381
338.4029, 308.8208
338.8850, 308.5901
339.3671, 308.4669
339.8492, 308.4972
340.3314, 308.5338
340.8135, 308.2567
341.2956, 307.7926
341.7777, 308.0617
342.2598, 309.6949
342.7419, 311.4272
343.2241, 312.1017
343.7062, 311.8942
344.1883, 311.6320
344.6704, 311.6232
345.1525, 311.8456
345.6346, 312.4028
346.1168, 313.5011
346.5989, 314.2806
347.0810, 313.5778
347.5631, 312.1586
348.0452, 311.3933
348.5273, 311.9784
349.0095, 313.0493
349.4916, 313.7314
349.9737, 314.0208
350.4558, 313.9808
350.9379, 313.3046
351.4200, 312.5173
351.9022, 312.4933
352.3843, 313.5037
352.8664, 314.6349
353.3485, 315.4292
353.8306, 315.8769
354.3127, 315.9487
354.7949, 315.6568
355.2770, 314.9307
355.7591, 313.4870
356.2412, 311.3434
356.7233, 309.4384
357.2054, 308.3642
357.6876, 307.6550
358.1697, 306.5693
358.6518, 304.9907
359.1339, 303.1812
359.6160, 301.1905
360.0981, 299.1108
360.5803, 297.5042
361.0624, 296.6855
361.5445, 296.1862
362.0266, 295.7861
362.5087, 295.4378
362.9908, 294.8457
363.4730, 293.7811
363.9551, 292.3883
364.4372, 291.1014
364.9193, 289.8358
365.4014, 288.8014
365.8835, 288.1975
366.3657, 287.8793
366.8478, 287.5304
367.3299, 287.0301
367.8120, 286.5427
368.2941, 286.3706
368.7762, 286.6013
369.2584, 286.7306
369.7405, 286.8243
370.2226, 286.7086
370.7047, 285.9696
371.1868, 284.6270
371.6689, 283.5114
372.1511, 283.3945
372.6332, 284.3412
373.1153, 285.2853
373.5974, 286.7579
374.0795, 287.7288
374.5616, 287.3815
375.0438, 286.1158
375.5259, 284.9466
376.0080, 284.4310
376.4901, 284.4076
376.9722, 284.3209
377.4543, 284.0995
377.9365, 283.9060
378.4186, 283.7088
378.9007, 283.5672
379.3828, 283.5745
379.8649, 283.7480
380.3470, 283.9973
380.8292, 284.2297
381.3113, 284.5756
381.7934, 284.4544
382.2755, 283.3587
382.7576, 282.2986
383.2397, 281.8461
383.7219, 281.9649
384.2040, 282.3828
384.6861, 282.9464
385.1682, 283.6198
385.6503, 283.7782
386.1324, 283.0082
386.6146, 282.1518
387.0967, 280.8691
387.5788, 279.7462
388.0609, 279.7115
388.5430, 281.1512
389.0251, 283.2128
389.5073, 284.1387
389.9894, 283.3336
390.4715, 282.5913
390.9536, 281.8725
391.4357, 281.3389
391.9178, 281.1396
392.4000, 281.2561
392.8821, 281.5231
393.3642, 281.8418
393.8463, 282.2198
394.3284, 282.3349
394.8105, 281.8310
395.2927, 281.4727
395.7748, 281.6466
396.2569, 282.1124
396.7390, 282.4679
397.2211, 282.5100
397.7032, 282.3357
398.1854, 282.0876
398.6675, 281.6353
399.1496, 281.5121
399.6317, 282.4055
400.1138, 283.3586
400.5959, 283.5330
401.0780, 282.8006
401.5602, 281.9122
402.0423, 281.6266
402.5244, 281.8751
403.0065, 281.8467
403.4886, 281.2498
403.9707, 280.6550
404.4529, 280.4916
404.9350, 280.6471
405.4171, 280.8148
405.8992, 280.9174
406.3813, 280.9287
406.8634, 280.6604
407.3456, 280.0410
407.8277, 279.8372
408.3098, 280.8620
408.7919, 282.3289
409.2740, 282.8546
409.7561, 282.0538
410.2383, 281.1305
410.7204, 280.7673
411.2025, 280.8530
411.6846, 281.0464
412.1667, 281.2489
412.6488, 281.5846
413.1310, 282.3511
413.6131, 283.5422
414.0952, 284.4082
414.5773, 284.7992
415.0594, 284.8262
415.5415, 284.4134
416.0237, 283.6329
416.5058, 282.9840
416.9879, 282.8442
417.4700, 283.0905
417.9521, 283.0440
418.4342, 282.1135
418.9164, 281.6396
419.3985, 282.4771
419.8806, 283.8473
420.3627, 284.4800
420.8448, 283.9776
421.3269, 283.1247
421.8091, 283.1346
422.2912, 284.5259
422.7733, 285.2863
423.2554, 284.7867
423.7375, 284.2518
424.2196, 284.7013
424.7018, 285.8286
425.1839, 286.3968
425.6660, 285.3923
426.1481, 283.1821
426.6302, 282.2972
427.1123, 284.5208
427.5945, 285.9260
428.0766, 285.4763
428.5587, 284.2845
429.0408, 283.3531
429.5229, 283.0251
430.0050, 283.2175
430.4872, 283.9528
430.9693, 285.4409
431.4514, 286.5818
431.9335, 287.1467
432.4156, 287.5270
432.8977, 287.7997
433.3799, 288.0087
433.8620, 288.2596
434.3441, 288.7346
434.8262, 289.2018
435.3083, 288.8275
435.7904, 287.1859
436.2726, 285.8881
436.7547, 285.7716
437.2368, 286.1189
437.7189, 286.3774
438.2010, 286.4480
438.6831, 286.3929
439.1653, 286.2577
439.6474, 286.0405
440.1295, 285.7559
440.6116, 285.4755
441.0937, 284.9873
441.5758, 283.8325
442.0580, 282.2744
442.5401, 281.1677
443.0222, 281.0202
443.5043, 281.2477
443.9864, 281.2545
444.4685, 281.0728
444.9507, 281.0391
445.4328, 281.3607
445.9149, 281.8774
446.3970, 282.2441
446.8791, 282.4937
447.3612, 282.5538
447.8434, 282.2391
448.3255, 281.8008
448.8076, 281.5602
449.2897, 281.5667
449.7718, 281.6558
450.2539, 281.6887
450.7361, 281.6654
451.2182, 281.5534
451.7003, 281.2795
452.1824, 281.0131
452.6645, 280.7259
453.1466, 280.5058
453.6288, 280.5581
454.1109, 280.9738
454.5930, 281.5122
455.0751, 281.6566
455.5572, 280.9813
456.0393, 280.7526
456.5215, 281.4136
457.0036, 282.0670
457.4857, 282.0831
457.9678, 281.5732
458.4499, 281.1066
458.9320, 281.1537
459.4142, 281.5970
459.8963, 281.7295
460.3784, 281.3769
460.8605, 281.0149
461.3426, 280.7347
461.8247, 280.5238
462.3069, 280.3963
462.7890, 280.3556
463.2711, 280.3086
463.7532, 280.1408
464.2353, 279.8622
464.7174, 279.6157
465.1996, 279.3897
465.6817, 279.2467
466.1638, 279.3722
466.6459, 279.6168
467.1280, 279.5650
467.6101, 278.7140
468.0923, 277.8372
468.5744, 277.9753
469.0565, 279.0144
469.5386, 279.7425
470.0207, 279.5218
470.5028, 278.9528
470.9850, 279.2707
471.4671, 280.7221
471.9492, 281.5464
472.4313, 280.8513
472.9134, 279.5751
473.3955, 278.5917
473.8777, 278.0246
474.3598, 277.8495
474.8419, 278.1505
475.3240, 278.8394
475.8061, 279.0137
476.2882, 278.4589
476.7704, 277.7379
477.2525, 276.7037
477.7346, 275.6785
478.2167, 274.9092
478.6988, 274.5079
479.1809, 274.7042
479.6631, 275.9125
480.1452, 278.3980
480.6273, 280.4975
481.1094, 283.0508
481.5915, 284.3183
482.0736, 283.0281
482.5558, 280.1572
483.0379, 277.1985
483.5200, 274.7624
484.0021, 273.0680
484.4842, 272.8148
484.9663, 274.4352
485.4485, 275.4952
485.9306, 275.2362
486.4127, 274.4966
486.8948, 273.6624
487.3769, 272.8024
487.8590, 272.1029
488.3412, 271.7701
488.8233, 271.6405
489.3054, 271.4938
489.7875, 271.3633
490.2696, 270.8638
490.7517, 269.6237
491.2339, 267.9740
491.7160, 266.5395
492.1981, 265.2592
492.6802, 264.3913
493.1623, 264.5315
493.6444, 264.9821
494.1266, 264.6742
494.6087, 263.4307
495.0908, 261.7100
495.5729, 259.7549
496.0550, 257.5888
496.5371, 256.2036
497.0193, 256.1300
497.5014, 256.0929
497.9835, 255.6516
498.4656, 255.0271
498.9477, 254.5715
499.4298, 254.3932
499.9120, 254.3003
500.3941, 254.0200
500.8762, 253.5158
501.3583, 252.9561
501.8404, 252.1853
502.3225, 251.5183
502.8047, 250.9117
503.2868, 250.5188
503.7689, 250.7173
504.2510, 251.7913
504.7331, 253.1169
505.2152, 253.3633
505.6974, 252.2682
506.1795, 251.7596
506.6616, 252.8059
507.1437, 254.0146
507.6258, 254.2632
508.1079, 253.6958
508.5901, 253.2069
509.0722, 253.2421
509.5543, 253.6009
510.0364, 254.1216
510.5185, 254.7938
511.0006, 255.1630
511.4828, 254.8656
511.9649, 254.2693
512.4470, 254.1534
512.9291, 254.5748
513.4112, 255.1536
513.8933, 256.1025
514.3754, 256.9737
514.8575, 257.1221
515.3397, 256.6012
515.8218, 256.1408
516.3039, 256.2797
516.7860, 256.9539
517.2681, 257.6979
517.7502, 258.6730
518.2324, 259.5112
518.7145, 260.0432
519.1966, 260.5114
519.6787, 261.1750
520.1608, 262.0585
520.6429, 262.9862
521.1251, 263.8757
521.6072, 264.7144
522.0893, 264.8791
522.5714, 263.8831
523.0535, 262.9775
523.5356, 262.6809
524.0178, 262.6536
524.4999, 262.5941
524.9820, 262.4524
525.4641, 261.9886
525.9462, 260.5997
526.4283, 258.6098
526.9105, 257.6086
527.3926, 258.1078
527.8747, 258.7476
528.3568, 258.5212
528.8389, 257.5668
529.3210, 256.3492
529.8032, 254.3870
530.2853, 252.7728
530.7674, 252.4282
531.2495, 252.8027
531.7316, 252.7608
532.2137, 251.9654
532.6959, 250.9955
533.1780, 250.6003
533.6601, 250.9285
534.1422, 250.8925
534.6243, 250.0730
535.1064, 249.4029
535.5886, 249.1734
536.0707, 249.3388
536.5528, 249.9086
537.0349, 250.8664
537.5170, 251.8889
537.9991, 252.3614
538.4813, 252.1091
538.9634, 252.2210
539.4455, 253.1660
539.9276, 254.0144
540.4097, 254.0783
540.8918, 253.7691
541.3740, 253.9631
541.8561, 255.1490
542.3382, 256.6570
542.8203, 257.7535
543.3024, 258.4518
543.7845, 258.7736
544.2667, 258.4820
544.7488, 258.2914
545.2309, 259.2721
545.7130, 261.2623
546.1951, 262.7352
546.6772, 262.9814
547.1594, 263.0822
547.6415, 263.7630
548.1236, 264.8623
548.6057, 265.8817
549.0878, 266.6060
549.5699, 267.3540
550.0521, 268.6882
550.5342, 270.8789
551.0163, 272.8236
551.4984, 274.6648
551.9805, 276.1478
552.4626, 276.9337
552.9448, 277.3282
553.4269, 277.9555
553.9090, 279.1349
554.3911, 280.4293
554.8732, 281.0637
555.3553, 280.9712
555.8375, 280.7074
556.3196, 280.6075
556.8017, 279.9976
557.2838, 278.2321
557.7659, 275.6539
558.2480, 273.2401
558.7302, 271.3902
559.2123, 269.7938
559.6944, 268.1383
560.1765, 266.4668
560.6586, 265.0458
561.1407, 264.0235
561.6229, 263.0424
562.1050, 261.5855
562.5871, 259.5462
563.0692, 257.8550
563.5513, 256.6215
564.0334, 255.6458
564.5156, 254.9840
564.9977, 254.4813
565.4798, 253.9319
565.9619, 253.2492
566.4440, 252.3435
566.9261, 250.9306
567.4083, 248.6682
567.8904, 247.2902
568.3725, 247.6113
568.8546, 248.0143
569.3367, 247.9949
569.8188, 247.6792
570.3010, 247.3139
570.7831, 246.9840
571.2652, 246.6411
571.7473, 246.2209
572.2294, 245.7316
572.7115, 245.1263
573.1937, 244.2061
573.6758, 243.6656
574.1579, 244.4751
574.6400, 246.2204
575.1221, 247.2631
575.6042, 246.7077
576.0864, 246.2644
576.5685, 247.1121
577.0506, 248.5291
577.5327, 249.2771
578.0148, 249.0621
578.4969, 248.4451
578.9791, 247.9675
579.4612, 247.6207
579.9433, 247.6440
580.4254, 249.0893
580.9075, 249.6511
581.3896, 248.3172
581.8718, 246.1935
582.3539, 244.5410
582.8360, 243.6112
583.3181, 242.6842
583.8002, 240.7675
584.2823, 238.0815
584.7645, 236.4144
585.2466, 236.1149
585.7287, 235.8400
586.2108, 234.9808
586.6929, 233.7191
587.1750, 232.2506
587.6572, 230.4948
588.1393, 228.9379
588.6214, 227.8843
589.1035, 227.1118
589.5856, 226.3574
590.0677, 225.5914
590.5499, 224.8475
591.0320, 224.1159
591.5141, 223.4615
591.9962, 223.1411
592.4783, 223.6721
592.9604, 223.8101
593.4426, 222.9943
593.9247, 222.2394
594.4068, 222.4368
594.8889, 223.3740
595.3710, 224.1660
595.8531, 224.2286
596.3353, 223.8116
596.8174, 223.5352
597.2995, 223.4747
597.7816, 223.0904
598.2637, 221.9046
598.7458, 220.7493
599.2280, 220.4782
599.7101, 220.9142
600.1922, 221.0845
600.6743, 220.2489
601.1564, 219.4010
601.6385, 219.6076
602.1207, 220.4990
602.6028, 220.9539
603.0849, 220.5876
603.5670, 219.7834
604.0491, 218.9536
604.5313, 218.0067
605.0134, 217.6272
605.4955, 218.3354
605.9776, 218.9323
606.4597, 218.8816
606.9418, 218.5700
607.4240, 218.5487
607.9061, 218.9606
608.3882, 219.4608
608.8703, 219.7308
609.3524, 219.7669
609.8345, 219.4344
610.3167, 218.5599
610.7988, 217.7460
611.2809, 217.2993
611.7630, 217.0909
612.2451, 217.0054
612.7272, 217.0966
613.2094, 217.0212
613.6915, 216.5260
614.1736, 215.8312
614.6557, 215.1065
615.1378, 214.4142
615.6199, 214.0201
616.1021, 214.1275
616.5842, 214.5345
617.0663, 214.6658
617.5484, 214.3452
618.0305, 214.0332
618.5126, 213.5838
618.9948, 213.2743
619.4769, 213.3883
619.9590, 213.7625
620.4411, 214.0328
620.9232, 214.0300
621.4053, 213.7897
621.8875, 213.1651
622.3696, 212.1725
622.8517, 211.8701
623.3338, 212.7295
623.8159, 213.7489
624.2980, 214.1846
624.7802, 214.1138
625.2623, 213.7299
625.7444, 212.8280
626.2265, 211.9054
626.7086, 210.9712
627.1907, 210.2447
627.6729, 210.1934
628.1550, 210.8246
628.6371, 211.5030
629.1192, 211.6507
629.6013, 211.3497
630.0834, 211.2788
630.5656, 211.6250
631.0477, 211.8915
631.5298, 211.9689
632.0119, 211.9787
632.4940, 211.9841
632.9761, 212.0028
633.4583, 212.0751
633.9404, 212.4076
634.4225, 212.6540
634.9046, 212.0310
635.3867, 210.6282
635.8688, 209.6605
636.3510, 209.5499
636.8331, 209.9117
637.3152, 210.3837
637.7973, 210.9936
638.2794, 211.3454
638.7615, 211.2604
639.2437, 211.1134
639.7258, 210.9798
640.2079, 210.9119
640.6900, 211.0599
641.1721, 211.4178
641.6542, 211.6683
642.1364, 211.4218
642.6185, 210.7255
643.1006, 210.1730
643.5827, 209.6901
644.0648, 209.5210
644.5469, 210.2316
645.0291, 210.9959
645.5112, 211.0105
645.9933, 210.2236
646.4754, 209.3128
646.9575, 208.3567
647.4396, 207.5912
647.9218, 207.4033
648.4039, 207.6703
648.8860, 207.8528
649.3681, 207.7284
649.8502, 207.4796
650.3323, 207.4053
650.8145, 207.6043
651.2966, 207.5202
651.7787, 206.9730
652.2608, 206.3639
652.7429, 205.5898
653.2250, 204.9248
653.7072, 204.7901
654.1893, 205.2652
654.6714, 205.8511
655.1535, 206.1894
655.6356, 206.2632
656.1177, 205.9089
656.5999, 205.0599
657.0820, 204.3251
657.5641, 204.0039
658.0462, 203.9425
658.5283, 203.8718
659.0104, 203.7862
659.4926, 203.7216
659.9747, 203.9388
660.4568, 203.9378
660.9389, 203.1254
661.4210, 201.8992
661.9031, 201.1105
662.3853, 201.0822
662.8674, 201.3791
663.3495, 201.3822
663.8316, 201.0630
664.3137, 200.8730
664.7958, 200.7840
665.2780, 200.8748
665.7601, 201.3892
666.2422, 202.0026
666.7243, 202.3560
667.2064, 202.4058
667.6885, 202.2364
668.1707, 201.7850
668.6528, 201.2042
669.1349, 200.6361
669.6170, 200.0973
670.0991, 199.5495
670.5812, 198.9599
671.0634, 198.5162
671.5455, 198.6095
672.0276, 199.4856
672.5097, 199.9639
672.9918, 199.7112
673.4739, 199.4155
673.9561, 199.3521
674.4382, 199.3299
674.9203, 198.9849
675.4024, 198.2314
675.8845, 197.6559
676.3666, 197.9894
676.8488, 198.7695
677.3309, 198.8271
677.8130, 198.1283
678.2951, 197.8477
678.7772, 198.7313
679.2593, 199.9725
679.7415, 200.0172
680.2236, 198.2282
680.7057, 197.1997
681.1878, 197.5033
681.6699, 197.9293
682.1520, 197.8959
682.6342, 197.6414
683.1163, 197.5810
683.5984, 197.8360
684.0805, 198.1982
684.5626, 198.6667
685.0447, 199.1021
685.5269, 198.5363
686.0090, 196.7074
686.4911, 195.2678
686.9732, 195.0644
687.4553, 195.5236
687.9374, 195.8173
688.4196, 195.9742
688.9017, 195.8391
689.3838, 194.9874
689.8659, 194.2382
690.3480, 194.1420
690.8301, 194.4754
691.3123, 194.9147
691.7944, 195.3213
692.2765, 195.5132
692.7586, 195.1619
693.2407, 194.3347
693.7228, 194.0699
694.2050, 194.6353
694.6871, 195.0265
695.1692, 194.7110
695.6513, 194.1889
696.1334, 193.9927
696.6155, 194.1277
697.0977, 194.3111
697.5798, 194.6622
698.0619, 194.8411
698.5440, 194.3075
699.0261, 193.4748
699.5082, 193.2934
699.9904, 193.9953
700.4725, 194.8423
700.9546, 194.9697
701.4367, 194.4581
701.9188, 194.6440
702.4009, 196.1816
702.8831, 197.1109
703.3652, 196.2807
703.8473, 195.1607
704.3294, 194.8875
704.8115, 195.3868
705.2936, 195.8071
705.7758, 195.7572
706.2579, 195.5544
706.7400, 195.3875
707.2221, 195.2786
707.7042, 195.2870
708.1863, 195.4232
708.6685, 195.6104
709.1505, 195.7536
709.6326, 195.8941
710.1147, 196.3894
710.5969, 197.6533
711.0790, 198.5040
711.5611, 198.6148
712.0432, 198.4450
712.5253, 197.9659
713.0074, 197.4324
713.4896, 197.5728
713.9717, 198.9899
714.4538, 200.5617
714.9359, 201.2039
715.4180, 201.2660
715.9001, 201.5494
716.3823, 202.1759
716.8644, 202.8023
717.3465, 203.1665
717.8286, 203.3556
718.3107, 203.6909
718.7928, 204.1533
719.2750, 204.8030
719.7571, 206.0791
720.2392, 207.0919
720.7213, 207.0488
721.2034, 206.4930
721.6855, 206.5932
722.1677, 207.8712
722.6498, 209.0812
723.1319, 208.8184
723.6140, 207.8559
724.0961, 207.9911
724.5782, 209.2645
725.0604, 210.1190
725.5425, 209.6157
726.0246, 208.5006
726.5067, 208.3358
726.9888, 209.5440
727.4709, 210.4195
727.9531, 211.0269
728.4352, 211.2357
728.9173, 210.9262
729.3994, 210.2237
729.8815, 209.2977
730.3636, 208.1823
730.8458, 206.7576
731.3279, 204.6549
731.8100, 202.3255
732.2921, 200.5533
732.7742, 199.2826
733.2563, 198.0406
733.7385, 196.6516
734.2206, 195.2562
734.7027, 194.0237
735.1848, 192.9556
735.6669, 192.0268
736.1490, 191.2869
736.6312, 190.6311
737.1133, 190.0065
737.5954, 189.4781
738.0775, 189.1078
738.5596, 188.8925
739.0417, 188.8072
739.5239, 189.0036
740.0060, 189.1172
740.4881, 188.5030
740.9702, 187.4561
741.4523, 186.9544
741.9344, 187.1991
742.4166, 187.6077
742.8987, 187.6817
743.3808, 187.5302
743.8629, 187.7191
744.3450, 188.5649
744.8271, 189.1714
745.3093, 189.4842
745.7914, 189.5658
746.2735, 189.2563
746.7556, 188.7760
747.2377, 188.5689
747.7198, 188.8205
748.2020, 189.1650
748.6841, 189.4376
749.1662, 189.5707
749.6483, 189.3255
750.1304, 188.7631
750.6125, 188.4367
751.0947, 188.6753
751.5768, 189.0197
752.0589, 188.5882
752.5410, 187.1562
753.0231, 186.0105
753.5052, 185.3410
753.9874, 184.7125
754.4695, 183.9088
754.9516, 183.1265
755.4337, 182.6886
755.9158, 182.6019
756.3979, 182.2804
756.8801, 181.1349
757.3622, 179.8905
757.8443, 179.2286
758.3264, 179.0257
758.8085, 179.0970
759.2906, 179.3513
759.7728, 179.4011
760.2549, 178.8318
760.7370, 177.7551
761.2191, 176.8559
761.7012, 176.1116
762.1833, 175.6040
762.6655, 175.4280
763.1476, 175.4235
763.6297, 175.5831
764.1118, 175.8198
764.5939, 175.8703
765.0760, 175.5264
765.5582, 175.3092
766.0403, 175.6476
766.5224, 176.1276
767.0045, 176.3572
767.4866, 176.2850
767.9688, 175.8740
768.4509, 175.0931
768.9330, 174.2448
769.4151, 173.8303
769.8972, 173.8560
770.3793, 174.1323
770.8615, 174.8832
771.3436, 175.2432
771.8257, 174.5802
772.3078, 173.5001
772.7899, 172.8629
773.2720, 172.6834
773.7542, 172.7046
774.2363, 173.1362
774.7184, 173.4839
775.2005, 173.4114
775.6826, 173.1499
776.1647, 173.0400
776.6469, 173.1160
777.1290, 173.1511
777.6111, 172.9877
778.0932, 172.6396
778.5753, 172.0498
779.0574, 171.2325
779.5396, 170.6018
780.0217, 170.2063
780.5038, 170.1433
780.9859, 170.6483
781.4680, 171.5139
781.9501, 171.8206
782.4323, 170.9184
782.9144, 170.5473
783.3965, 171.4294
783.8786, 172.2163
784.3607, 172.0078
784.8428, 171.1989
785.3250, 170.5453
785.8071, 170.2849
786.2892, 170.1659
786.7713, 169.8946
787.2534, 169.6546
787.7355, 169.9557
788.2177, 170.6972
788.6998, 171.0518
789.1819, 170.6878
789.6640, 170.1283
790.1461, 170.0316
790.6282, 170.3949
791.1104, 170.5319
791.5925, 170.3566
792.0746, 170.0961
792.5567, 169.6039
793.0388, 169.2014
793.5209, 169.2527
794.0031, 169.5993
794.4852, 169.6739
794.9673, 169.1587
795.4494, 168.6337
795.9315, 168.4529
796.4136, 168.4765
796.8958, 168.5949
797.3779, 168.7476
797.8600, 168.7795
798.3421, 168.6052
798.8242, 168.3734
799.3063, 168.3685
799.7885, 168.6031
800.2706, 168.6283
800.7527, 168.3481
801.2348, 168.1586
801.7169, 168.3385
802.1990, 168.5779
802.6812, 168.3262
803.1633, 167.5762
803.6454, 167.2388
804.1275, 167.9488
804.6096, 168.4145
805.0917, 167.8222
805.5739, 166.9826
806.0560, 166.7297
806.5381, 167.0969
807.0202, 167.7214
807.5023, 168.5017
807.9844, 169.1083
808.4666, 168.9107
808.9487, 168.1306
809.4308, 167.6254
809.9129, 167.4967
810.3950, 167.5515
810.8771, 167.7010
811.3593, 167.9193
811.8414, 168.1999
812.3235, 168.6954
812.8056, 168.6677
813.2877, 167.4247
813.7698, 166.5208
814.2520, 166.5444
814.7341, 166.9810
815.2162, 167.3623
815.6983, 167.6369
816.1804, 167.8874
816.6625, 168.3081
817.1447, 168.5527
817.6268, 168.3562
818.1089, 167.8198
818.5910, 166.8334
819.0731, 165.5803
819.5552, 164.9387
820.0374, 165.5440
820.5195, 166.7619
821.0016, 167.2955
821.4837, 167.1290
821.9658, 166.7902
822.4479, 166.1992
822.9301, 165.8279
823.4122, 165.9910
823.8943, 166.4487
824.3764, 166.8208
824.8585, 167.1239
825.3406, 167.2478
825.8228, 167.0687
826.3049, 166.8542
826.7870, 166.6800
827.2691, 166.5253
827.7512, 166.2921
828.2333, 166.0322
828.7155, 166.0461
829.1976, 166.7577
829.6797, 167.3168
830.1618, 166.2932
830.6439, 164.4813
831.1260, 163.9864
831.6082, 164.9240
832.0903, 165.7612
832.5724, 165.6063
833.0545, 164.9012
833.5366, 164.5220
834.0187, 164.5416
834.5009, 164.3421
834.9830, 163.7547
835.4651, 163.2907
835.9472, 163.2378
836.4293, 163.3203
836.9114, 163.2477
837.3936, 163.0239
837.8757, 162.7409
838.3578, 162.1975
838.8399, 161.8674
839.3220, 162.1551
839.8041, 162.5747
840.2863, 162.6889
840.7684, 162.4745
841.2505, 162.0233
841.7326, 161.3411
842.2147, 160.7083
842.6968, 160.4792
843.1790, 160.5608
843.6611, 160.7128
844.1432, 160.9165
844.6253, 161.2241
845.1074, 161.7057
845.5895, 161.9760
846.0717, 161.4059
846.5538, 159.9903
847.0359, 159.3916
847.5180, 160.2196
848.0001, 160.6668
848.4822, 159.8384
848.9644, 159.0301
849.4465, 159.3562
849.9286, 160.4182
850.4107, 160.9834
850.8928, 160.6999
851.3749, 160.2619
851.8571, 159.6401
852.3392, 159.2015
852.8213, 159.4971
853.3034, 160.1488
853.7855, 160.3442
854.2676, 159.8480
854.7498, 159.1721
855.2319, 158.6518
855.7140, 158.3760
856.1961, 158.7244
856.6782, 159.5817
857.1603, 160.1421
857.6425, 160.2026
858.1246, 159.9615
858.6067, 159.5165
859.0888, 158.9803
859.5709, 158.7946
860.0530, 159.1049
860.5352, 159.3880
861.0173, 159.6777
861.4994, 159.8674
861.9815, 159.7149
862.4636, 159.5375
862.9457, 159.8607
863.4279, 160.7613
863.9100, 161.3796
864.3921, 161.3326
864.8742, 161.1429
865.3563, 161.0382
865.8384, 160.9734
866.3206, 160.9887
866.8027, 160.9949
867.2848, 160.6458
867.7669, 159.6527
868.2490, 158.5910
868.7311, 158.2761
869.2133, 158.4862
869.6954, 158.6058
870.1775, 158.5890
870.6596, 158.6129
871.1417, 158.7785
871.6238, 158.8473
872.1060, 158.4484
872.5881, 157.5868
873.0702, 156.8570
873.5523, 156.2171
874.0344, 155.8284
874.5165, 155.8535
874.9987, 155.9953
875.4808, 156.0810
875.9629, 156.0937
876.4450, 155.9519
876.9271, 155.5061
877.4092, 155.2174
877.8914, 155.2738
878.3735, 155.4124
878.8556, 155.6499
879.3377, 155.7839
879.8198, 155.3702
880.3019, 154.3973
880.7841, 153.6772
881.2662, 154.0350
881.7483, 154.6750
882.2304, 154.5185
882.7125, 153.8899
883.1946, 153.5196
883.6768, 153.5335
884.1589, 153.8402
884.6410, 154.4199
885.1231, 155.0074
885.6052, 154.9809
886.0873, 154.3184
886.5695, 153.9553
887.0516, 153.9710
887.5337, 154.0615
888.0158, 154.1685
888.4979, 154.2057
888.9800, 154.0257
889.4622, 153.6294
889.9443, 153.4082
890.4264, 153.4324
890.9085, 153.5292
891.3906, 153.7538
891.8727, 153.9791
892.3549, 154.2240
892.8370, 154.3852
893.3191, 154.2092
893.8012, 153.5855
894.2833, 153.1020
894.7654, 153.0486
895.2476, 153.2497
895.7297, 153.9120
896.2118, 154.5813
896.6939, 154.2560
897.1760, 152.9701
897.6581, 152.0166
898.1403, 152.3735
898.6224, 153.2898
899.1045, 153.5284
899.5866, 153.2430
900.0687, 153.1187
900.5508, 153.2186
901.0330, 153.3379
901.5151, 153.3754
901.9972, 153.4210
902.4793, 153.6411
902.9614, 154.0363
903.4435, 154.1686
903.9257, 154.0831
904.4078, 153.5455
904.8899, 151.7894
905.3720, 150.4973
905.8541, 151.4903
906.3362, 153.9368
906.8184, 155.2054
907.3005, 154.6628
907.7826, 154.3961
908.2647, 155.1653
908.7468, 155.6993
909.2289, 154.9444
909.7111, 153.8575
910.1932, 153.8508
910.6753, 154.9215
911.1574, 155.5916
911.6395, 154.7443
912.1216, 153.8342
912.6038, 154.1468
913.0859, 155.0647
913.5680, 155.8442
914.0501, 156.3776
914.5322, 156.6796
915.0143, 156.7608
915.4965, 156.7761
915.9786, 156.8923
916.4607, 157.0992
916.9428, 157.4139
917.4249, 157.8194
917.9070, 157.9612
918.3892, 157.7097
918.8713, 157.7886
919.3534, 158.9536
919.8355, 160.5640
920.3176, 160.4573
920.7997, 157.8911
921.2819, 156.4276
921.7640, 156.5875
922.2461, 156.9257
922.7282, 156.8858
923.2103, 156.7400
923.6924, 156.9670
924.1746, 157.5242
924.6567, 157.4896
925.1388, 156.1252
925.6209, 155.1506
926.1030, 155.3452
926.5851, 155.5691
927.0673, 154.9478
927.5494, 153.8313
928.0315, 152.8927
928.5136, 152.2956
928.9957, 151.9099
929.4778, 151.9559
929.9600, 151.9003
930.4421, 151.1720
930.9242, 150.1177
931.4063, 149.1577
931.8884, 148.4295
932.3705, 148.1418
932.8527, 148.4641
933.3348, 148.8732
933.8169, 148.6187
934.2990, 147.9319
934.7811, 147.4167
935.2632, 147.0900
935.7454, 146.8833
936.2275, 146.7755
936.7096, 146.5605
937.1917, 145.9938
937.6738, 145.2193
938.1559, 144.7712
938.6381, 144.6593
939.1202, 144.8710
939.6023, 145.5285
940.0844, 146.1105
940.5665, 146.3967
941.0486, 146.3964
941.5308, 146.0960
942.0129, 145.4702
942.4950, 144.7943
942.9771, 143.6269
943.4592, 143.0797
943.9413, 143.8947
944.4235, 144.7769
944.9056, 144.8682
945.3877, 144.4467
945.8698, 144.1694
946.3519, 144.1787
946.8340, 144.0567
947.3162, 143.4116
947.7983, 142.9381
948.2804, 143.2553
948.7625, 143.7732
949.2446, 143.7428
949.7267, 143.2161
950.2089, 142.8035
950.6910, 142.8136
951.1731, 142.8661
951.6552, 142.6173
952.1373, 142.2749
952.6194, 142.0249
953.1016, 141.9168
953.5837, 142.0683
954.0658, 142.4789
954.5479, 142.9335
955.0300, 143.3271
955.5121, 143.5212
955.9943, 143.1198
956.4763, 142.2903
956.9584, 141.7175
957.4406, 141.4570
957.9227, 141.1637
958.4048, 140.6579
958.8869, 140.2971
959.3690, 140.6486
959.8511, 141.5752
960.3333, 141.9217
960.8154, 141.6064
961.2975, 141.3408
961.7796, 141.3283
962.2617, 141.0803
962.7438, 140.1120
963.2260, 138.9118
963.7081, 138.5818
964.1902, 139.3508
964.6723, 139.7508
965.1544, 139.4032
965.6365, 139.3264
966.1187, 140.3441
966.6008, 141.1467
967.0829, 140.2433
967.5650, 138.3436
968.0471, 137.7358
968.5292, 139.2582
969.0114, 140.1756
969.4935, 139.7668
969.9756, 139.0968
970.4577, 138.2581
970.9398, 137.6633
971.4219, 137.9751
971.9041, 138.9890
972.3862, 139.5694
972.8683, 139.1763
973.3504, 138.6359
973.8325, 138.2336
974.3146, 137.9900
974.7968, 138.1386
975.2789, 138.3769
975.7610, 138.0312
976.2431, 137.0783
976.7252, 136.3880
977.2073, 136.6198
977.6895, 137.1936
978.1716, 137.6936
978.6537, 137.9903
979.1358, 137.6328
979.6179, 136.8449
980.1000, 136.5260
980.5822, 136.9892
981.0643, 137.6863
981.5464, 138.1210
982.0285, 138.3354
982.5106, 138.4303
982.9927, 138.3877
983.4749, 138.0942
983.9570, 137.5427
984.4391, 136.7517
984.9212, 135.6852
985.4033, 134.8959
985.8854, 135.3670
986.3676, 136.8795
986.8497, 137.4338
987.3318, 136.9462
987.8139, 136.4326
988.2960, 136.0378
988.7781, 135.8804
989.2603, 136.0688
989.7424, 136.4983
990.2245, 137.0155
990.7066, 137.6973
991.1887, 137.7967
991.6708, 137.0550
992.1530, 136.3508
992.6351, 135.8116
993.1172, 135.4841
993.5993, 135.5357
994.0814, 135.7882
994.5635, 135.6468
995.0457, 134.7796
995.5278, 134.4552
996.0099, 135.2357
996.4920, 135.8175
996.9741, 135.9555
997.4562, 135.6956
997.9384, 134.5903
998.4205, 133.1011
998.9026, 132.9199
999.3847, 134.9848
999.8668, 136.4574
1000.349, 136.3874
1000.831, 136.0798
1001.313, 136.1653
1001.795, 136.3361
1002.277, 136.1690
1002.760, 135.7158
1003.242, 135.3860
1003.724, 135.3781
1004.206, 135.3377
1004.688, 135.2073
1005.170, 134.8780
1005.652, 133.9070
1006.134, 132.8656
1006.616, 132.7929
1007.099, 133.6344
1007.581, 134.1645
1008.063, 133.6223
1008.545, 132.9751
1009.027, 132.9787
1009.509, 133.3178
1009.991, 133.7950
1010.473, 134.2505
1010.956, 134.3154
1011.438, 133.9819
1011.920, 133.7984
1012.402, 134.2394
1012.884, 134.7482
1013.366, 134.4203
1013.848, 133.7724
1014.330, 134.0265
1014.812, 134.8991
1015.295, 134.9827
1015.777, 133.9253
1016.259, 132.9491
1016.741, 133.1943
1017.223, 133.9608
1017.705, 133.8310
1018.187, 133.1248
1018.669, 132.9890
1019.151, 133.4632
1019.634, 134.1087
1020.116, 134.7526
1020.598, 135.1129
1021.080, 134.8231
1021.562, 134.1626
1022.044, 133.9658
1022.526, 134.1816
1023.008, 134.2841
1023.491, 134.2220
1023.973, 134.0715
1024.455, 133.8483
1024.937, 133.7104
1025.419, 133.8742
1025.901, 134.2440
1026.383, 134.3159
1026.865, 134.0504
1027.348, 134.1468
1027.830, 134.7533
1028.312, 135.2348
1028.794, 135.3068
1029.276, 135.1158
1029.758, 134.8137
1030.240, 134.4228
1030.722, 134.0731
1031.204, 133.6501
1031.687, 133.9276
1032.169, 135.4044
1032.651, 136.2763
1033.133, 135.4216
1033.615, 134.0455
1034.097, 133.7568
1034.579, 134.4688
1035.061, 134.8613
1035.543, 134.8781
1036.026, 134.6771
1036.508, 133.9912
1036.990, 133.6251
1037.472, 134.1680
1037.954, 135.0043
1038.436, 135.3356
1038.918, 135.1768
1039.400, 134.9668
1039.883, 134.6870
1040.365, 134.3909
1040.847, 134.0164
1041.329, 133.7113
1041.811, 133.4599
1042.293, 133.3668
1042.775, 133.7453
1043.257, 134.5680
1043.740, 134.7660
1044.222, 133.6715
1044.704, 132.9868
1045.186, 133.0132
1045.668, 133.2123
1046.150, 133.6822
1046.632, 133.9856
1047.114, 133.3221
1047.596, 131.7976
1048.078, 131.0426
1048.561, 131.7111
1049.043, 132.3714
1049.525, 133.1825
1050.007, 133.5795
1050.489, 132.8284
1050.971, 131.8206
1051.453, 131.6941
1051.935, 132.4061
1052.418, 133.0046
1052.900, 133.4312
1053.382, 133.5735
1053.864, 133.2160
1054.346, 132.7930
1054.828, 132.4049
1055.310, 132.1597
1055.792, 132.2103
1056.275, 132.5279
1056.757, 132.9076
1057.239, 133.4406
1057.721, 133.7482
1058.203, 133.6305
1058.685, 133.3715
1059.167, 132.9794
1059.649, 132.6331
1060.131, 132.6224
1060.614, 132.8603
1061.096, 132.8536
1061.578, 132.3372
1062.060, 131.9362
1062.542, 131.8546
1063.024, 131.9572
1063.506, 132.5419
1063.988, 133.0036
1064.470, 132.3770
1064.953, 130.9727
1065.435, 130.2180
1065.917, 130.7031
1066.399, 131.0924
1066.881, 130.6329
1067.363, 130.1882
1067.845, 130.2993
1068.327, 130.6631
1068.810, 131.1079
1069.292, 131.4674
1069.774, 131.3301
1070.256, 130.4720
1070.738, 129.7655
1071.220, 129.5856
1071.702, 129.6707
1072.184, 130.2620
1072.667, 130.7348
1073.149, 130.0625
1073.631, 128.7764
1074.113, 128.5046
1074.595, 129.7779
1075.077, 130.7486
1075.559, 130.1797
1076.041, 129.5720
1076.523, 130.1326
1077.005, 130.7465
1077.488, 129.9367
1077.970, 128.3831
1078.452, 127.9044
1078.934, 128.9260
1079.416, 129.6831
1079.898, 129.1409
1080.380, 128.4607
1080.862, 127.9482
1081.344, 127.8345
1081.827, 128.6926
1082.309, 129.9563
1082.791, 130.5061
1083.273, 130.1799
1083.755, 129.9405
1084.237, 130.4961
1084.719, 130.8007
1085.201, 129.8952
1085.684, 128.9917
1086.166, 129.3418
1086.648, 130.2214
1087.130, 130.4346
1087.612, 129.8510
1088.094, 129.1094
1088.576, 128.2349
1089.058, 127.6651
1089.541, 127.8607
1090.023, 128.1381
1090.505, 127.8604
1090.987, 127.4684
1091.469, 127.7989
1091.951, 128.6695
1092.433, 128.8203
1092.915, 127.5159
1093.397, 126.4956
1093.880, 126.5672
1094.362, 126.9728
1094.844, 127.4420
1095.326, 127.8826
1095.808, 128.2739
1096.290, 128.5666
1096.772, 128.6599
1097.254, 128.5365
1097.736, 128.1653
1098.219, 127.0496
1098.701, 126.2996
1099.183, 126.7849
1099.665, 127.5333
1100.147, 127.7604
1100.629, 127.5255
1101.111, 127.0014
1101.593, 126.1643
1102.076, 125.7705
1102.558, 126.5818
1103.040, 127.0886
1103.522, 126.4953
1104.004, 125.7384
1104.486, 125.2995
1104.968, 125.2316
1105.450, 125.7744
1105.932, 126.8991
1106.415, 127.4097
1106.897, 126.4721
1107.379, 125.8093
1107.861, 125.9826
1108.343, 126.2404
1108.825, 126.2512
1109.307, 126.0925
1109.789, 125.7468
1110.271, 125.2938
1110.754, 125.2332
1111.236, 125.9674
1111.718, 126.3951
1112.200, 126.2585
1112.682, 126.0088
1113.164, 125.7337
1113.646, 125.4697
1114.128, 125.1640
1114.611, 124.8955
1115.093, 124.9429
1115.575, 125.4097
1116.057, 125.8888
1116.539, 126.6058
1117.021, 126.9879
1117.503, 126.6862
1117.985, 126.3012
1118.468, 126.2473
1118.950, 126.3555
1119.432, 126.3018
1119.914, 126.0707
1120.396, 125.8666
1120.878, 125.7578
1121.360, 125.4993
1121.842, 124.8307
1122.324, 124.4503
1122.807, 124.7942
1123.289, 125.4809
1123.771, 126.0838
1124.253, 126.5895
1124.735, 126.9121
1125.217, 127.1120
1125.699, 126.8327
1126.181, 125.7644
1126.663, 125.1876
1127.146, 125.7113
1127.628, 126.4153
1128.110, 126.4389
1128.592, 126.0260
1129.074, 125.9465
1129.556, 126.2746
1130.038, 126.0300
1130.520, 125.0655
1131.003, 124.6456
1131.485, 125.1276
1131.967, 125.7365
1132.449, 126.0068
1132.931, 125.9795
1133.413, 125.6167
1133.895, 125.0315
1134.377, 125.0754
1134.859, 125.7295
1135.342, 126.5419
1135.824, 127.4399
1136.306, 127.6864
1136.788, 126.9434
1137.270, 125.9786
1137.752, 125.5527
1138.234, 125.6044
1138.716, 126.1906
1139.198, 127.1229
1139.681, 127.5336
1140.163, 127.4526
1140.645, 127.4244
1141.127, 127.5765
1141.609, 127.5313
1142.091, 126.9945
1142.573, 126.3837
1143.055, 126.3783
1143.538, 126.6669
1144.020, 126.5383
1144.502, 126.1949
1144.984, 126.3401
1145.466, 126.8861
1145.948, 126.8939
1146.430, 125.9828
1146.912, 125.2167
1147.395, 125.7432
1147.877, 126.6496
1148.359, 127.0282
1148.841, 127.0475
1149.323, 126.8243
1149.805, 126.4885
1150.287, 126.2425
1150.769, 126.1328
1151.251, 126.1205
1151.734, 126.3145
1152.216, 126.2698
1152.698, 125.2700
1153.180, 124.3482
1153.662, 124.5956
1154.144, 125.2925
1154.626, 125.4817
1155.108, 125.1848
1155.590, 124.8939
1156.073, 124.7419
1156.555, 124.5825
1157.037, 124.1827
1157.519, 124.0080
1158.001, 124.3995
1158.483, 124.9402
1158.965, 125.5438
1159.447, 125.9653
1159.930, 125.6725
1160.412, 124.6444
1160.894, 124.0173
1161.376, 124.0994
1161.858, 124.2976
1162.340, 124.9040
1162.822, 125.1756
1163.304, 124.4582
1163.786, 123.6780
1164.269, 123.8973
1164.751, 124.7058
1165.233, 124.5781
1165.715, 123.0589
1166.197, 122.7254
1166.679, 124.1907
1167.161, 125.0862
1167.643, 124.7775
1168.125, 124.2914
1168.608, 124.2716
1169.090, 124.3074
1169.572, 123.7029
1170.054, 122.6050
1170.536, 122.2010
1171.018, 122.5205
1171.500, 122.8337
1171.982, 123.0794
1172.465, 123.3392
1172.947, 123.6441
1173.429, 123.9415
1173.911, 124.2211
1174.393, 124.3160
1174.875, 123.6546
1175.357, 122.5711
1175.839, 122.4055
1176.322, 123.0037
1176.804, 123.8770
1177.286, 124.7703
1177.768, 124.7006
1178.250, 123.2656
1178.732, 122.0738
1179.214, 123.0517
1179.696, 124.5730
1180.178, 124.3105
1180.661, 123.2418
1181.143, 122.7770
1181.625, 122.8291
1182.107, 122.9097
1182.589, 122.9283
1183.071, 123.1270
1183.553, 123.7147
1184.035, 124.1106
1184.517, 123.5858
1185.000, 123.1556
1185.482, 123.8391
1185.964, 124.7424
1186.446, 124.8235
1186.928, 124.3435
1187.410, 124.1552
1187.892, 124.4166
1188.374, 124.3250
1188.857, 123.2639
1189.339, 122.4774
1189.821, 122.3230
1190.303, 122.3774
1190.785, 122.5067
1191.267, 122.6882
1191.749, 123.0676
1192.231, 123.4733
1192.714, 123.1572
1193.196, 121.7448
1193.678, 121.1155
1194.160, 121.6517
1194.642, 121.8818
1195.124, 121.3495
1195.606, 120.9921
1196.088, 121.4198
1196.570, 122.1149
1197.052, 122.3740
1197.535, 122.2534
1198.017, 121.9305
1198.499, 121.4189
1198.981, 121.3878
1199.463, 121.8516
1199.945, 122.0897
1200.427, 121.9031
1200.909, 121.6301
1201.392, 121.4938
1201.874, 121.4783
1202.356, 121.6994
1202.838, 121.9434
1203.320, 121.5117
1203.802, 120.8301
1204.284, 121.0896
1204.766, 122.0418
1205.249, 122.3853
1205.731, 121.7902
1206.213, 121.2338
1206.695, 121.3473
1207.177, 121.6238
1207.659, 121.8311
1208.141, 121.8725
1208.623, 121.5015
1209.105, 121.0295
1209.588, 120.8375
1210.070, 120.9007
1210.552, 121.0419
1211.034, 121.2484
1211.516, 121.2983
1211.998, 120.8804
1212.480, 120.6825
1212.962, 121.0027
1213.444, 121.4278
1213.927, 121.8609
1214.409, 122.1913
1214.891, 122.3004
1215.373, 122.2019
1215.855, 121.9214
1216.337, 121.3443
1216.819, 121.1314
1217.301, 121.4144
1217.784, 121.5339
1218.266, 121.3239
1218.748, 121.0847
1219.230, 120.9801
1219.712, 120.9312
1220.194, 120.8365
1220.676, 120.7125
1221.158, 120.5648
1221.641, 120.4308
1222.123, 120.6196
1222.605, 121.0398
1223.087, 121.0335
1223.569, 120.5427
1224.051, 120.3377
1224.533, 120.8598
1225.015, 121.5707
1225.497, 122.0135
1225.979, 122.2675
1226.462, 122.4524
1226.944, 122.4851
1227.426, 122.1603
1227.908, 121.6338
1228.390, 121.1836
1228.872, 120.8761
1229.354, 120.7132
1229.836, 120.6865
1230.319, 120.8248
1230.801, 121.5139
1231.283, 121.8777
1231.765, 121.2421
1232.247, 120.4357
1232.729, 120.1148
1233.211, 120.0664
1233.693, 119.8101
1234.176, 119.3664
1234.658, 119.3658
1235.140, 120.0364
1235.622, 120.4309
1236.104, 120.3996
1236.586, 120.5443
1237.068, 121.1257
1237.550, 121.5020
1238.032, 121.1721
1238.515, 120.5213
1238.997, 120.1684
1239.479, 120.0568
1239.961, 120.0413
1240.443, 120.0547
1240.925, 119.6773
1241.407, 119.0043
1241.889, 118.6865
1242.371, 118.8553
1242.854, 118.9761
1243.336, 118.7005
1243.818, 118.3905
1244.300, 118.2564
1244.782, 118.3870
1245.264, 119.1310
1245.746, 119.9800
1246.228, 120.3119
1246.711, 120.2686
1247.193, 120.2677
1247.675, 120.3537
1248.157, 120.1791
1248.639, 119.4080
1249.121, 118.8800
1249.603, 118.8813
1250.085, 118.9559
1250.568, 119.0614
1251.050, 119.0602
1251.532, 118.7620
1252.014, 118.4058
1252.496, 118.4358
1252.978, 118.7953
1253.460, 118.7673
1253.942, 118.2676
1254.424, 118.4863
1254.906, 119.5373
1255.389, 119.8413
1255.871, 118.9781
1256.353, 118.2077
1256.835, 118.3522
1257.317, 118.7551
1257.799, 118.5573
1258.281, 118.0726
1258.763, 117.7954
1259.246, 117.6867
1259.728, 117.7385
1260.210, 117.8749
1260.692, 117.9362
1261.174, 117.9132
1261.656, 117.9430
1262.138, 118.0998
1262.620, 118.2031
1263.103, 118.0099
1263.585, 117.9604
1264.067, 118.4390
1264.549, 118.9279
1265.031, 119.2059
1265.513, 119.1733
1265.995, 118.5082
1266.477, 117.4165
1266.959, 116.9732
1267.442, 117.3091
1267.924, 117.8438
1268.406, 118.7593
1268.888, 118.9000
1269.370, 117.9170
1269.852, 117.2598
1270.334, 117.6968
1270.816, 118.2373
1271.298, 117.7156
1271.781, 116.8936
1272.263, 117.6413
1272.745, 119.1546
1273.227, 119.3952
1273.709, 118.7518
1274.191, 118.2580
1274.673, 118.0740
1275.155, 118.0542
1275.638, 118.1367
1276.120, 118.1632
1276.602, 117.9567
1277.084, 117.8324
1277.566, 118.0127
1278.048, 118.2419
1278.530, 118.4857
1279.012, 118.5991
1279.495, 118.3694
1279.977, 117.9225
1280.459, 117.5161
1280.941, 117.1374
1281.423, 117.1353
1281.905, 117.6730
1282.387, 118.0416
1282.869, 118.1756
1283.351, 118.2713
1283.833, 118.3960
1284.316, 118.4069
1284.798, 118.1953
1285.280, 117.9014
1285.762, 117.7003
1286.244, 117.6496
##END=



