##NAMES=Probertite
##RRUFFID=R050284
##IDEAL CHEMISTRY=NaCaB_5_O_7_(OH)_4_&#183;3H_2_O
##LOCALITY=Borax Open Pit, Boron, Kern County, California, USA
##OWNER=RRUFF
##SOURCE=Marcus Origlieri
##DESCRIPTION=Spray of colorless acicular single crystals
##STATUS=The identification of this mineral has been confirmed by X-ray diffraction and chemical analysis
##URL=rruff.info/R050284
##MEASURED CHEMISTRY=Na_1.00_Ca_1.00_B_5.00_O_7_(OH)_4_Â·3H_2_O
181.0630, 1335.412
181.5451, 1335.025
182.0272, 1335.244
182.5093, 1337.051
182.9915, 1339.753
183.4736, 1341.599
183.9557, 1342.385
184.4378, 1342.653
184.9199, 1342.917
185.4020, 1343.205
185.8842, 1343.787
186.3663, 1345.095
186.8484, 1346.872
187.3305, 1348.098
187.8126, 1348.633
188.2947, 1348.814
188.7769, 1349.129
189.2590, 1349.579
189.7411, 1350.057
190.2232, 1350.519
190.7053, 1350.970
191.1874, 1351.485
191.6696, 1352.152
192.1517, 1352.757
192.6338, 1352.737
193.1159, 1352.066
193.5980, 1351.550
194.0801, 1351.990
194.5623, 1353.269
195.0444, 1353.588
195.5265, 1352.521
196.0086, 1350.777
196.4907, 1349.805
196.9728, 1349.636
197.4550, 1349.890
197.9371, 1350.673
198.4192, 1352.007
198.9013, 1352.297
199.3834, 1351.058
199.8655, 1349.057
200.3477, 1348.174
200.8298, 1348.565
201.3119, 1349.409
201.7940, 1350.327
202.2761, 1351.348
202.7582, 1352.079
203.2404, 1352.165
203.7225, 1352.193
204.2046, 1354.133
204.6867, 1358.553
205.1688, 1362.990
205.6509, 1365.681
206.1331, 1366.316
206.6152, 1367.405
207.0973, 1369.229
207.5794, 1371.609
208.0615, 1374.191
208.5436, 1377.277
209.0258, 1379.772
209.5079, 1380.699
209.9900, 1379.590
210.4721, 1379.132
210.9542, 1379.753
211.4363, 1381.079
211.9185, 1381.786
212.4006, 1381.569
212.8827, 1381.358
213.3648, 1381.843
213.8469, 1383.356
214.3290, 1384.238
214.8112, 1383.958
215.2933, 1383.031
215.7754, 1383.565
216.2575, 1386.478
216.7396, 1389.104
217.2217, 1389.510
217.7038, 1386.535
218.1860, 1385.029
218.6681, 1386.034
219.1502, 1388.638
219.6323, 1389.283
220.1144, 1386.969
220.5965, 1384.431
221.0787, 1383.274
221.5608, 1383.956
222.0429, 1384.823
222.5250, 1385.803
223.0071, 1386.922
223.4892, 1388.160
223.9714, 1389.389
224.4535, 1390.992
224.9356, 1393.383
225.4177, 1397.302
225.8998, 1400.142
226.3819, 1401.339
226.8641, 1401.431
227.3462, 1402.178
227.8283, 1403.530
228.3104, 1405.584
228.7925, 1408.692
229.2746, 1414.378
229.7568, 1417.538
230.2389, 1416.897
230.7210, 1413.796
231.2031, 1412.667
231.6852, 1414.766
232.1673, 1416.959
232.6495, 1417.529
233.1316, 1415.140
233.6137, 1414.121
234.0958, 1414.832
234.5779, 1416.929
235.0600, 1419.561
235.5422, 1423.288
236.0243, 1426.797
236.5064, 1429.411
236.9885, 1430.430
237.4706, 1432.141
237.9527, 1434.841
238.4349, 1438.136
238.9170, 1441.082
239.3991, 1443.856
239.8812, 1446.011
240.3633, 1447.211
240.8454, 1446.799
241.3276, 1447.084
241.8097, 1448.337
242.2918, 1450.181
242.7739, 1451.902
243.2560, 1454.021
243.7381, 1455.222
244.2203, 1454.953
244.7024, 1452.882
245.1845, 1450.167
245.6666, 1446.077
246.1487, 1441.704
246.6308, 1439.210
247.1130, 1439.656
247.5951, 1440.234
248.0772, 1439.875
248.5593, 1438.158
249.0414, 1437.081
249.5235, 1437.129
250.0057, 1437.497
250.4878, 1436.720
250.9699, 1433.953
251.4520, 1431.521
251.9341, 1430.265
252.4162, 1430.443
252.8984, 1430.416
253.3805, 1429.895
253.8626, 1429.388
254.3447, 1429.795
254.8268, 1431.822
255.3089, 1433.336
255.7911, 1433.622
256.2732, 1432.537
256.7553, 1431.467
257.2374, 1430.325
257.7195, 1429.289
258.2017, 1428.601
258.6838, 1428.380
259.1659, 1428.226
259.6480, 1428.012
260.1301, 1427.731
260.6122, 1427.740
261.0944, 1428.283
261.5765, 1428.824
262.0586, 1428.705
262.5407, 1427.617
263.0228, 1426.739
263.5049, 1426.239
263.9871, 1426.133
264.4692, 1426.870
264.9513, 1428.893
265.4334, 1431.073
265.9155, 1432.221
266.3976, 1431.838
266.8798, 1432.151
267.3619, 1434.064
267.8440, 1437.184
268.3261, 1437.624
268.8082, 1433.950
269.2903, 1430.598
269.7725, 1431.913
270.2546, 1439.290
270.7367, 1444.634
271.2188, 1446.124
271.7009, 1444.809
272.1830, 1445.286
272.6652, 1448.034
273.1473, 1451.232
273.6294, 1453.748
274.1115, 1455.523
274.5936, 1456.877
275.0757, 1457.773
275.5579, 1458.320
276.0400, 1458.871
276.5221, 1459.500
277.0042, 1459.792
277.4863, 1458.854
277.9684, 1456.425
278.4506, 1456.611
278.9327, 1460.384
279.4148, 1466.035
279.8969, 1470.095
280.3790, 1472.473
280.8611, 1473.992
281.3433, 1474.402
281.8254, 1473.739
282.3075, 1475.492
282.7896, 1480.555
283.2717, 1486.358
283.7538, 1488.371
284.2360, 1486.460
284.7181, 1484.469
285.2002, 1483.512
285.6823, 1483.699
286.1644, 1486.502
286.6465, 1492.330
287.1287, 1499.155
287.6108, 1504.594
288.0929, 1508.670
288.5750, 1511.923
289.0571, 1514.139
289.5392, 1515.678
290.0214, 1517.827
290.5035, 1520.555
290.9856, 1524.021
291.4677, 1528.818
291.9498, 1534.734
292.4319, 1540.237
292.9141, 1544.726
293.3962, 1548.648
293.8783, 1553.298
294.3604, 1558.684
294.8425, 1563.652
295.3246, 1566.547
295.8068, 1568.150
296.2889, 1571.057
296.7710, 1576.308
297.2531, 1582.734
297.7352, 1588.940
298.2173, 1594.796
298.6995, 1599.365
299.1816, 1600.094
299.6637, 1599.144
300.1458, 1601.531
300.6279, 1609.235
301.1100, 1618.141
301.5922, 1622.994
302.0743, 1624.455
302.5564, 1625.262
303.0385, 1627.406
303.5206, 1629.741
304.0027, 1630.669
304.4849, 1629.902
304.9670, 1627.939
305.4491, 1624.795
305.9312, 1620.794
306.4133, 1616.712
306.8954, 1612.836
307.3776, 1609.155
307.8597, 1605.828
308.3418, 1602.889
308.8239, 1599.930
309.3060, 1596.644
309.7881, 1593.141
310.2703, 1589.684
310.7524, 1586.135
311.2345, 1582.827
311.7166, 1580.137
312.1987, 1578.050
312.6808, 1576.059
313.1630, 1573.370
313.6451, 1570.776
314.1272, 1569.114
314.6093, 1569.873
315.0914, 1570.458
315.5735, 1569.142
316.0557, 1566.313
316.5378, 1564.091
317.0199, 1563.268
317.5020, 1563.456
317.9841, 1564.481
318.4662, 1567.116
318.9484, 1569.349
319.4305, 1570.946
319.9126, 1571.694
320.3947, 1571.036
320.8768, 1565.944
321.3589, 1561.582
321.8411, 1560.841
322.3232, 1565.632
322.8053, 1570.250
323.2874, 1574.136
323.7695, 1577.096
324.2516, 1578.826
324.7338, 1577.824
325.2159, 1576.915
325.6980, 1577.013
326.1801, 1578.361
326.6622, 1579.788
327.1443, 1581.373
327.6265, 1582.943
328.1086, 1584.332
328.5907, 1585.751
329.0728, 1586.744
329.5549, 1586.872
330.0370, 1586.126
330.5192, 1586.515
331.0013, 1589.533
331.4834, 1592.437
331.9655, 1593.198
332.4476, 1589.741
332.9297, 1587.741
333.4119, 1588.238
333.8940, 1590.609
334.3761, 1592.077
334.8582, 1592.011
335.3403, 1591.960
335.8224, 1592.645
336.3046, 1594.087
336.7867, 1596.267
337.2688, 1599.603
337.7509, 1603.351
338.2330, 1605.804
338.7151, 1606.324
339.1973, 1607.556
339.6794, 1611.331
340.1615, 1617.883
340.6436, 1621.264
341.1257, 1621.057
341.6078, 1618.622
342.0899, 1614.688
342.5721, 1609.081
343.0542, 1605.675
343.5363, 1606.643
344.0184, 1610.700
344.5005, 1611.794
344.9826, 1609.576
345.4648, 1606.961
345.9469, 1607.222
346.4290, 1609.853
346.9111, 1610.582
347.3932, 1607.730
347.8753, 1603.684
348.3575, 1603.509
348.8396, 1606.888
349.3217, 1610.531
349.8038, 1611.935
350.2859, 1611.911
350.7680, 1612.653
351.2502, 1614.632
351.7323, 1616.489
352.2144, 1615.873
352.6965, 1613.691
353.1786, 1612.707
353.6607, 1616.642
354.1429, 1621.495
354.6250, 1621.548
355.1071, 1616.457
355.5892, 1610.993
356.0713, 1609.655
356.5534, 1610.180
357.0356, 1609.189
357.5177, 1603.974
357.9998, 1598.066
358.4819, 1594.017
358.9640, 1591.588
359.4461, 1589.563
359.9283, 1587.719
360.4104, 1585.764
360.8925, 1583.355
361.3746, 1579.834
361.8567, 1576.805
362.3388, 1575.105
362.8210, 1574.367
363.3031, 1573.730
363.7852, 1573.109
364.2673, 1572.364
364.7494, 1571.385
365.2315, 1570.078
365.7137, 1568.831
366.1958, 1567.891
366.6779, 1567.006
367.1600, 1565.872
367.6421, 1563.253
368.1242, 1561.633
368.6064, 1562.278
369.0885, 1565.378
369.5706, 1566.555
370.0527, 1564.088
370.5348, 1561.059
371.0169, 1559.461
371.4991, 1560.080
371.9812, 1560.866
372.4633, 1561.783
372.9454, 1562.790
373.4275, 1563.699
373.9096, 1564.463
374.3918, 1565.248
374.8739, 1566.079
375.3560, 1566.917
375.8381, 1568.134
376.3202, 1570.011
376.8023, 1571.877
377.2845, 1572.136
377.7666, 1570.181
378.2487, 1570.024
378.7308, 1573.988
379.2129, 1581.136
379.6950, 1584.402
380.1772, 1583.290
380.6593, 1580.940
381.1414, 1580.359
381.6235, 1581.322
382.1056, 1581.656
382.5877, 1580.826
383.0699, 1579.270
383.5520, 1577.082
384.0341, 1574.441
384.5162, 1573.344
384.9983, 1576.188
385.4804, 1581.335
385.9626, 1585.471
386.4447, 1588.325
386.9268, 1589.835
387.4089, 1588.696
387.8910, 1586.114
388.3731, 1584.834
388.8553, 1587.508
389.3374, 1591.131
389.8195, 1592.797
390.3016, 1592.528
390.7837, 1591.735
391.2658, 1590.784
391.7480, 1589.979
392.2301, 1589.626
392.7122, 1589.707
393.1943, 1590.423
393.6764, 1592.653
394.1585, 1595.735
394.6407, 1597.723
395.1228, 1597.397
395.6049, 1596.310
396.0870, 1594.942
396.5691, 1592.910
397.0512, 1592.122
397.5334, 1593.561
398.0155, 1596.246
398.4976, 1598.920
398.9797, 1601.658
399.4618, 1604.151
399.9439, 1606.278
400.4261, 1608.021
400.9082, 1609.696
401.3903, 1611.441
401.8724, 1612.940
402.3545, 1613.962
402.8366, 1614.292
403.3188, 1614.544
403.8009, 1614.656
404.2830, 1614.752
404.7651, 1615.124
405.2472, 1615.759
405.7293, 1616.725
406.2115, 1618.103
406.6936, 1619.896
407.1757, 1622.031
407.6578, 1624.806
408.1399, 1627.161
408.6220, 1627.365
409.1042, 1625.489
409.5863, 1624.559
410.0684, 1625.697
410.5505, 1628.035
411.0326, 1629.399
411.5147, 1629.836
411.9969, 1630.551
412.4790, 1632.838
412.9611, 1636.039
413.4432, 1638.381
413.9253, 1639.451
414.4074, 1640.466
414.8896, 1643.451
415.3717, 1647.448
415.8538, 1650.165
416.3359, 1648.830
416.8180, 1646.778
417.3001, 1647.162
417.7823, 1649.994
418.2644, 1653.254
418.7465, 1656.430
419.2286, 1659.198
419.7107, 1661.164
420.1928, 1661.559
420.6750, 1662.031
421.1571, 1663.717
421.6392, 1665.987
422.1213, 1667.177
422.6034, 1665.472
423.0855, 1663.774
423.5677, 1663.292
424.0498, 1664.391
424.5319, 1665.809
425.0140, 1668.640
425.4961, 1671.239
425.9782, 1671.822
426.4604, 1667.676
426.9425, 1665.608
427.4246, 1667.383
427.9067, 1672.357
428.3888, 1675.799
428.8709, 1677.184
429.3531, 1677.971
429.8352, 1678.817
430.3173, 1679.591
430.7994, 1681.127
431.2815, 1683.757
431.7636, 1686.594
432.2458, 1687.981
432.7279, 1687.807
433.2100, 1687.675
433.6921, 1688.215
434.1742, 1689.192
434.6563, 1689.692
435.1385, 1689.697
435.6206, 1689.726
436.1027, 1690.524
436.5848, 1691.711
437.0669, 1692.189
437.5490, 1691.623
438.0312, 1690.664
438.5133, 1690.297
438.9954, 1690.197
439.4775, 1689.426
439.9596, 1686.603
440.4417, 1683.505
440.9239, 1681.875
441.4060, 1681.828
441.8881, 1682.007
442.3702, 1681.795
442.8523, 1681.370
443.3344, 1680.907
443.8166, 1680.870
444.2987, 1680.286
444.7808, 1677.986
445.2629, 1674.771
445.7450, 1673.006
446.2271, 1674.414
446.7093, 1676.277
447.1914, 1677.280
447.6735, 1676.510
448.1556, 1677.872
448.6377, 1683.566
449.1198, 1689.889
449.6020, 1692.856
450.0841, 1690.322
450.5662, 1688.786
451.0483, 1689.138
451.5304, 1691.244
452.0125, 1694.812
452.4947, 1700.497
452.9768, 1705.721
453.4589, 1708.971
453.9410, 1710.214
454.4231, 1711.021
454.9052, 1711.300
455.3874, 1711.568
455.8695, 1712.948
456.3516, 1715.176
456.8337, 1716.243
457.3158, 1714.816
457.7979, 1712.435
458.2801, 1711.871
458.7622, 1712.973
459.2443, 1714.650
459.7264, 1717.233
460.2085, 1719.560
460.6906, 1719.781
461.1728, 1717.314
461.6549, 1714.394
462.1370, 1712.450
462.6191, 1711.156
463.1012, 1710.077
463.5833, 1709.224
464.0655, 1708.379
464.5476, 1707.041
465.0297, 1705.376
465.5118, 1704.818
465.9939, 1707.287
466.4760, 1709.821
466.9582, 1710.618
467.4403, 1707.474
467.9224, 1706.310
468.4045, 1708.581
468.8866, 1712.291
469.3687, 1714.609
469.8509, 1714.789
470.3330, 1714.877
470.8151, 1715.320
471.2972, 1716.096
471.7793, 1716.922
472.2614, 1717.971
472.7436, 1718.673
473.2257, 1718.296
473.7078, 1716.811
474.1899, 1716.359
474.6720, 1717.208
475.1541, 1718.800
475.6363, 1720.691
476.1184, 1722.749
476.6005, 1724.149
477.0826, 1724.151
477.5647, 1723.526
478.0468, 1723.604
478.5290, 1724.319
479.0111, 1725.057
479.4932, 1725.304
479.9753, 1725.371
480.4574, 1725.726
480.9395, 1726.634
481.4217, 1727.230
481.9038, 1726.230
482.3859, 1724.739
482.8680, 1724.399
483.3501, 1725.622
483.8322, 1728.187
484.3144, 1733.670
484.7965, 1741.550
485.2786, 1745.604
485.7607, 1740.037
486.2428, 1734.177
486.7249, 1732.971
487.2071, 1740.005
487.6892, 1743.879
488.1713, 1742.877
488.6534, 1739.941
489.1355, 1739.741
489.6176, 1743.847
490.0998, 1746.136
490.5819, 1744.898
491.0640, 1740.759
491.5461, 1736.744
492.0282, 1732.887
492.5103, 1728.964
492.9925, 1725.137
493.4746, 1721.192
493.9567, 1715.960
494.4388, 1708.997
494.9209, 1702.217
495.4030, 1697.949
495.8852, 1695.504
496.3673, 1693.086
496.8494, 1690.141
497.3315, 1686.786
497.8136, 1682.588
498.2957, 1677.851
498.7779, 1674.076
499.2600, 1672.205
499.7421, 1671.410
500.2242, 1671.270
500.7063, 1671.881
501.1884, 1672.499
501.6706, 1673.672
502.1527, 1674.443
502.6348, 1673.814
503.1169, 1669.476
503.5990, 1666.422
504.0811, 1665.894
504.5633, 1667.140
505.0454, 1667.318
505.5275, 1666.030
506.0096, 1664.330
506.4917, 1662.289
506.9738, 1659.719
507.4560, 1659.135
507.9381, 1661.038
508.4202, 1663.549
508.9023, 1664.605
509.3844, 1664.302
509.8665, 1664.358
510.3487, 1665.116
510.8308, 1666.340
511.3129, 1667.808
511.7950, 1669.464
512.2772, 1671.014
512.7593, 1671.560
513.2414, 1672.318
513.7235, 1675.312
514.2056, 1680.451
514.6877, 1685.168
515.1699, 1687.381
515.6520, 1688.634
516.1341, 1690.407
516.6162, 1693.492
517.0983, 1696.160
517.5804, 1697.738
518.0626, 1698.553
518.5447, 1699.147
519.0268, 1698.727
519.5089, 1699.023
519.9910, 1700.416
520.4731, 1702.870
520.9553, 1706.165
521.4374, 1711.598
521.9195, 1715.908
522.4016, 1716.780
522.8837, 1713.306
523.3658, 1711.369
523.8480, 1711.386
524.3301, 1712.224
524.8122, 1712.634
525.2943, 1712.619
525.7764, 1711.797
526.2585, 1709.593
526.7407, 1707.094
527.2228, 1706.680
527.7049, 1707.984
528.1870, 1708.856
528.6691, 1707.355
529.1512, 1705.032
529.6334, 1703.964
530.1155, 1704.320
530.5976, 1704.166
531.0797, 1701.116
531.5618, 1697.510
532.0439, 1695.789
532.5261, 1698.300
533.0082, 1700.152
533.4903, 1699.022
533.9724, 1696.468
534.4545, 1695.843
534.9366, 1699.878
535.4188, 1703.078
535.9009, 1703.948
536.3830, 1702.564
536.8651, 1701.425
537.3472, 1700.002
537.8293, 1699.929
538.3115, 1703.013
538.7936, 1709.605
539.2757, 1714.457
539.7578, 1717.146
540.2399, 1718.526
540.7220, 1718.755
541.2042, 1718.300
541.6863, 1719.953
542.1684, 1725.306
542.6505, 1732.329
543.1326, 1738.546
543.6147, 1743.989
544.0969, 1748.975
544.5790, 1753.317
545.0611, 1757.367
545.5432, 1761.333
546.0253, 1765.203
546.5074, 1769.153
546.9896, 1772.349
547.4717, 1776.133
547.9538, 1781.610
548.4359, 1789.945
548.9180, 1798.686
549.4001, 1807.832
549.8823, 1817.281
550.3644, 1826.822
550.8465, 1836.474
551.3286, 1846.459
551.8107, 1857.206
552.2928, 1868.486
552.7750, 1878.338
553.2571, 1886.861
553.7392, 1893.798
554.2213, 1898.839
554.7034, 1902.063
555.1855, 1904.162
555.6677, 1905.151
556.1498, 1905.081
556.6319, 1905.012
557.1140, 1903.828
557.5961, 1898.834
558.0782, 1887.475
558.5604, 1875.036
559.0425, 1865.516
559.5246, 1858.223
560.0067, 1851.701
560.4888, 1847.164
560.9709, 1841.693
561.4531, 1832.794
561.9352, 1820.416
562.4173, 1811.154
562.8994, 1809.053
563.3815, 1807.754
563.8636, 1803.977
564.3458, 1796.611
564.8279, 1789.729
565.3100, 1782.933
565.7921, 1777.050
566.2742, 1773.891
566.7563, 1773.890
567.2385, 1772.098
567.7206, 1766.874
568.2027, 1760.024
568.6848, 1755.500
569.1669, 1753.085
569.6490, 1751.662
570.1312, 1750.900
570.6133, 1750.612
571.0954, 1750.512
571.5775, 1750.603
572.0596, 1751.071
572.5417, 1752.616
573.0239, 1754.250
573.5060, 1754.768
573.9881, 1752.996
574.4702, 1752.812
574.9523, 1756.918
575.4344, 1762.710
575.9166, 1766.850
576.3987, 1768.063
576.8808, 1769.049
577.3629, 1769.674
577.8450, 1770.325
578.3271, 1772.502
578.8093, 1776.768
579.2914, 1780.817
579.7735, 1783.645
580.2556, 1785.330
580.7377, 1787.283
581.2198, 1789.634
581.7020, 1790.377
582.1841, 1787.554
582.6662, 1781.889
583.1483, 1774.546
583.6304, 1765.443
584.1125, 1756.557
584.5947, 1750.089
585.0768, 1744.895
585.5589, 1739.271
586.0410, 1731.402
586.5231, 1724.456
587.0052, 1720.232
587.4873, 1718.043
587.9694, 1716.064
588.4515, 1715.346
588.9337, 1713.339
589.4158, 1708.538
589.8979, 1700.918
590.3800, 1696.026
590.8621, 1694.883
591.3442, 1694.608
591.8264, 1693.227
592.3085, 1690.568
592.7906, 1689.003
593.2727, 1688.660
593.7548, 1689.053
594.2369, 1689.824
594.7191, 1690.869
595.2012, 1691.826
595.6833, 1692.560
596.1654, 1693.246
596.6475, 1694.696
597.1296, 1696.257
597.6118, 1696.453
598.0939, 1692.931
598.5760, 1689.411
599.0581, 1688.265
599.5402, 1689.315
600.0223, 1690.007
600.5045, 1689.284
600.9866, 1688.572
601.4687, 1688.641
601.9508, 1689.840
602.4329, 1690.261
602.9150, 1689.215
603.3972, 1688.350
603.8793, 1689.428
604.3614, 1692.684
604.8435, 1695.197
605.3256, 1696.488
605.8077, 1697.132
606.2899, 1698.130
606.7720, 1699.292
607.2541, 1699.713
607.7362, 1698.469
608.2183, 1696.902
608.7004, 1696.493
609.1826, 1697.098
609.6647, 1698.244
610.1468, 1700.471
610.6289, 1702.573
611.1110, 1703.854
611.5931, 1704.300
612.0753, 1704.202
612.5574, 1703.356
613.0395, 1702.213
613.5216, 1701.028
614.0037, 1699.768
614.4858, 1698.568
614.9680, 1697.569
615.4501, 1696.418
615.9322, 1694.475
616.4143, 1691.662
616.8964, 1689.349
617.3785, 1687.763
617.8607, 1686.832
618.3428, 1686.840
618.8249, 1687.521
619.3070, 1687.781
619.7891, 1686.808
620.2712, 1685.401
620.7534, 1684.062
621.2355, 1682.912
621.7176, 1682.516
622.1997, 1684.713
622.6818, 1686.521
623.1639, 1685.677
623.6461, 1681.393
624.1282, 1678.948
624.6103, 1680.325
625.0924, 1682.418
625.5745, 1683.177
626.0566, 1681.721
626.5388, 1681.609
627.0209, 1683.502
627.5030, 1685.680
627.9851, 1685.262
628.4672, 1682.408
628.9493, 1680.688
629.4315, 1681.039
629.9136, 1682.695
630.3957, 1684.953
630.8778, 1687.596
631.3599, 1689.953
631.8420, 1692.060
632.3242, 1693.495
632.8063, 1693.309
633.2884, 1691.925
633.7705, 1691.550
634.2526, 1694.100
634.7347, 1696.882
635.2169, 1698.549
635.6990, 1698.800
636.1811, 1699.335
636.6632, 1700.078
637.1453, 1701.194
637.6274, 1702.951
638.1096, 1705.525
638.5917, 1707.526
639.0738, 1708.870
639.5559, 1709.686
640.0380, 1709.862
640.5201, 1709.584
641.0023, 1709.709
641.4844, 1710.563
641.9665, 1711.694
642.4486, 1712.953
642.9307, 1714.142
643.4128, 1714.805
643.8950, 1714.159
644.3771, 1713.561
644.8592, 1714.260
645.3413, 1715.811
645.8234, 1715.776
646.3055, 1711.838
646.7877, 1708.286
647.2698, 1706.659
647.7519, 1707.021
648.2340, 1707.006
648.7161, 1706.614
649.1982, 1705.813
649.6804, 1704.520
650.1625, 1702.752
650.6446, 1700.563
651.1267, 1697.865
651.6088, 1695.463
652.0909, 1694.233
652.5731, 1693.907
653.0552, 1694.135
653.5373, 1695.155
654.0194, 1695.944
654.5015, 1695.532
654.9836, 1694.616
655.4658, 1694.213
655.9479, 1694.918
656.4300, 1695.826
656.9121, 1697.267
657.3942, 1698.786
657.8763, 1698.832
658.3585, 1696.236
658.8406, 1694.916
659.3227, 1696.489
659.8048, 1700.284
660.2869, 1702.964
660.7690, 1704.479
661.2512, 1705.240
661.7333, 1705.266
662.2154, 1704.735
662.6975, 1703.631
663.1796, 1701.984
663.6617, 1701.088
664.1439, 1703.184
664.6260, 1705.635
665.1081, 1705.719
665.5902, 1702.013
666.0723, 1699.500
666.5544, 1701.264
667.0366, 1703.744
667.5187, 1703.444
668.0008, 1697.707
668.4829, 1695.078
668.9650, 1697.200
669.4471, 1701.331
669.9293, 1703.086
670.4114, 1702.450
670.8935, 1701.701
671.3756, 1701.404
671.8577, 1701.349
672.3398, 1700.986
672.8220, 1700.503
673.3041, 1700.577
673.7862, 1702.031
674.2683, 1703.698
674.7504, 1704.462
675.2325, 1704.571
675.7147, 1705.353
676.1968, 1708.500
676.6789, 1711.203
677.1610, 1711.727
677.6431, 1709.915
678.1252, 1710.055
678.6074, 1713.451
679.0895, 1716.373
679.5716, 1715.746
680.0537, 1711.572
680.5358, 1709.892
681.0179, 1711.010
681.5001, 1713.219
681.9822, 1715.208
682.4643, 1716.992
682.9464, 1718.631
683.4285, 1720.240
683.9106, 1721.316
684.3928, 1721.344
684.8749, 1720.704
685.3570, 1719.867
685.8391, 1718.358
686.3212, 1717.390
686.8033, 1717.708
687.2855, 1718.507
687.7676, 1718.476
688.2497, 1717.287
688.7318, 1716.068
689.2139, 1714.810
689.6960, 1713.881
690.1782, 1714.648
690.6603, 1717.026
691.1424, 1719.129
691.6245, 1719.856
692.1066, 1719.972
692.5887, 1720.491
693.0709, 1721.397
693.5530, 1722.658
694.0351, 1725.254
694.5172, 1727.339
694.9993, 1727.182
695.4814, 1724.603
695.9636, 1723.306
696.4457, 1725.193
696.9278, 1727.103
697.4099, 1727.290
697.8920, 1725.217
698.3741, 1725.329
698.8563, 1728.322
699.3384, 1731.345
699.8205, 1731.426
700.3026, 1729.230
700.7847, 1727.707
701.2668, 1727.124
701.7490, 1727.551
702.2311, 1730.022
702.7132, 1733.217
703.1953, 1735.182
703.6774, 1734.745
704.1595, 1734.495
704.6417, 1735.936
705.1238, 1737.983
705.6059, 1739.083
706.0880, 1738.637
706.5701, 1738.035
707.0522, 1736.845
707.5344, 1735.969
708.0165, 1737.928
708.4986, 1742.973
708.9807, 1746.654
709.4628, 1747.183
709.9449, 1746.165
710.4271, 1746.643
710.9092, 1748.222
711.3913, 1749.454
711.8734, 1748.275
712.3555, 1747.586
712.8376, 1749.976
713.3198, 1754.890
713.8019, 1759.352
714.2840, 1762.305
714.7661, 1764.953
715.2482, 1767.735
715.7303, 1770.645
716.2125, 1773.193
716.6946, 1775.126
717.1767, 1777.449
717.6588, 1781.284
718.1409, 1786.270
718.6230, 1789.108
719.1052, 1789.790
719.5873, 1789.997
720.0694, 1790.749
720.5515, 1792.008
721.0336, 1793.656
721.5157, 1795.631
721.9979, 1798.399
722.4800, 1802.747
722.9621, 1807.633
723.4442, 1812.311
723.9263, 1817.055
724.4084, 1820.716
724.8906, 1822.862
725.3727, 1824.463
725.8548, 1826.618
726.3369, 1829.421
726.8190, 1831.451
727.3011, 1832.436
727.7833, 1832.900
728.2654, 1833.751
728.7475, 1834.573
729.2296, 1834.418
729.7117, 1833.112
730.1938, 1830.584
730.6760, 1826.744
731.1581, 1821.688
731.6402, 1815.500
732.1223, 1808.027
732.6044, 1799.553
733.0865, 1788.770
733.5687, 1777.610
734.0508, 1770.543
734.5329, 1768.603
735.0150, 1766.373
735.4971, 1762.086
735.9792, 1757.021
736.4614, 1754.434
736.9435, 1753.861
737.4256, 1752.905
737.9077, 1749.226
738.3898, 1745.502
738.8719, 1744.410
739.3541, 1745.406
739.8362, 1746.615
740.3183, 1747.443
740.8004, 1748.262
741.2825, 1749.219
741.7646, 1750.288
742.2468, 1751.164
742.7289, 1751.462
743.2110, 1752.511
743.6931, 1755.270
744.1752, 1759.341
744.6573, 1762.576
745.1395, 1764.957
745.6216, 1766.671
746.1037, 1767.022
746.5858, 1767.227
747.0679, 1768.954
747.5500, 1772.240
748.0322, 1775.609
748.5143, 1778.616
748.9964, 1781.324
749.4785, 1783.993
749.9606, 1786.922
750.4427, 1788.304
750.9249, 1788.056
751.4070, 1786.440
751.8891, 1782.841
752.3712, 1777.301
752.8533, 1774.841
753.3354, 1775.892
753.8176, 1776.953
754.2997, 1774.855
754.7818, 1770.591
755.2639, 1765.069
755.7460, 1758.098
756.2281, 1752.464
756.7103, 1751.437
757.1924, 1751.404
757.6745, 1749.062
758.1566, 1741.348
758.6387, 1736.818
759.1208, 1736.806
759.6030, 1738.293
760.0851, 1737.991
760.5672, 1735.797
761.0493, 1734.668
761.5314, 1735.096
762.0135, 1735.826
762.4957, 1735.367
762.9778, 1734.118
763.4599, 1732.656
763.9420, 1730.698
764.4241, 1729.664
764.9063, 1731.099
765.3884, 1733.598
765.8705, 1735.440
766.3526, 1736.018
766.8347, 1736.497
767.3168, 1737.104
767.7990, 1737.505
768.2811, 1737.104
768.7632, 1735.871
769.2453, 1734.590
769.7274, 1733.479
770.2095, 1732.255
770.6917, 1730.031
771.1738, 1727.425
771.6559, 1725.771
772.1380, 1725.657
772.6201, 1726.473
773.1022, 1728.703
773.5844, 1731.472
774.0665, 1733.203
774.5486, 1733.351
775.0307, 1732.978
775.5128, 1732.238
775.9949, 1731.053
776.4771, 1728.949
776.9592, 1725.868
777.4413, 1723.622
777.9234, 1722.969
778.4055, 1723.046
778.8876, 1722.564
779.3698, 1721.742
779.8519, 1721.122
780.3340, 1720.634
780.8161, 1720.740
781.2982, 1722.045
781.7803, 1724.096
782.2625, 1725.652
782.7446, 1726.002
783.2267, 1726.871
783.7088, 1728.868
784.1909, 1731.443
784.6730, 1733.147
785.1552, 1733.986
785.6373, 1733.997
786.1194, 1732.469
786.6015, 1730.933
787.0836, 1732.538
787.5657, 1736.074
788.0479, 1738.176
788.5300, 1735.361
789.0121, 1732.681
789.4942, 1732.779
789.9763, 1734.915
790.4584, 1735.927
790.9406, 1734.948
791.4227, 1734.477
791.9048, 1735.650
792.3869, 1737.553
792.8690, 1736.468
793.3511, 1732.660
793.8333, 1730.329
794.3154, 1732.762
794.7975, 1736.613
795.2796, 1737.870
795.7617, 1737.129
796.2438, 1736.213
796.7260, 1735.502
797.2081, 1735.176
797.6902, 1735.620
798.1723, 1736.579
798.6544, 1737.128
799.1365, 1737.409
799.6187, 1736.809
800.1008, 1734.669
800.5829, 1731.791
801.0650, 1730.464
801.5471, 1730.603
802.0292, 1731.692
802.5114, 1734.030
802.9935, 1736.729
803.4756, 1739.270
803.9577, 1741.504
804.4398, 1742.942
804.9219, 1742.842
805.4041, 1742.532
805.8862, 1742.092
806.3683, 1741.738
806.8504, 1742.579
807.3325, 1744.903
807.8146, 1747.024
808.2968, 1748.217
808.7789, 1748.903
809.2610, 1750.244
809.7431, 1751.991
810.2252, 1753.113
810.7073, 1752.581
811.1895, 1751.732
811.6716, 1751.319
812.1537, 1751.297
812.6358, 1751.426
813.1179, 1751.958
813.6000, 1752.197
814.0822, 1751.554
814.5643, 1750.637
815.0464, 1752.043
815.5285, 1755.813
816.0106, 1759.166
816.4927, 1760.581
816.9749, 1761.338
817.4570, 1763.838
817.9391, 1767.327
818.4212, 1769.711
818.9033, 1768.616
819.3854, 1767.652
819.8676, 1768.135
820.3497, 1769.928
820.8318, 1772.532
821.3139, 1776.696
821.7960, 1779.819
822.2781, 1781.290
822.7603, 1781.266
823.2424, 1779.490
823.7245, 1776.311
824.2066, 1774.090
824.6887, 1774.328
825.1708, 1775.220
825.6530, 1775.656
826.1351, 1775.458
826.6172, 1774.235
827.0993, 1770.489
827.5814, 1767.479
828.0635, 1766.287
828.5457, 1766.035
829.0278, 1764.712
829.5099, 1762.125
829.9920, 1759.901
830.4741, 1758.427
830.9562, 1757.544
831.4384, 1757.233
831.9205, 1757.291
832.4026, 1757.157
832.8847, 1756.167
833.3668, 1755.567
833.8489, 1756.784
834.3311, 1758.577
834.8132, 1758.671
835.2953, 1755.483
835.7774, 1753.474
836.2595, 1753.417
836.7416, 1754.280
837.2238, 1754.488
837.7059, 1754.087
838.1880, 1753.510
838.6701, 1752.826
839.1522, 1752.085
839.6343, 1751.313
840.1165, 1750.534
840.5986, 1749.737
841.0807, 1748.293
841.5628, 1747.939
842.0449, 1750.755
842.5270, 1753.635
843.0092, 1752.931
843.4913, 1747.644
843.9734, 1744.680
844.4555, 1745.034
844.9376, 1746.344
845.4197, 1745.782
845.9019, 1744.092
846.3840, 1742.685
846.8661, 1741.734
847.3482, 1741.580
847.8303, 1743.088
848.3124, 1745.086
848.7946, 1746.596
849.2767, 1747.743
849.7588, 1747.714
850.2409, 1746.035
850.7230, 1744.061
851.2051, 1742.727
851.6873, 1742.069
852.1694, 1742.435
852.6515, 1743.852
853.1336, 1745.807
853.6157, 1748.702
854.0978, 1751.392
854.5800, 1752.546
855.0621, 1751.797
855.5442, 1751.395
856.0263, 1751.963
856.5084, 1752.846
856.9905, 1753.987
857.4727, 1755.403
857.9548, 1755.615
858.4369, 1754.574
858.9190, 1753.085
859.4011, 1751.303
859.8832, 1749.645
860.3654, 1748.906
860.8475, 1749.030
861.3296, 1749.275
861.8117, 1748.979
862.2938, 1749.027
862.7759, 1749.959
863.2581, 1751.656
863.7402, 1753.519
864.2223, 1755.589
864.7044, 1757.620
865.1865, 1759.655
865.6686, 1761.457
866.1508, 1762.134
866.6329, 1761.916
867.1150, 1761.815
867.5971, 1763.031
868.0792, 1763.853
868.5613, 1762.427
869.0435, 1759.714
869.5256, 1758.908
870.0077, 1761.443
870.4898, 1763.612
870.9719, 1764.730
871.4540, 1765.146
871.9362, 1766.021
872.4183, 1767.134
872.9004, 1766.411
873.3825, 1762.322
873.8646, 1758.111
874.3467, 1757.066
874.8289, 1757.930
875.3110, 1758.823
875.7931, 1760.259
876.2752, 1760.123
876.7573, 1756.957
877.2394, 1753.417
877.7216, 1753.173
878.2037, 1756.500
878.6858, 1758.014
879.1679, 1756.844
879.6500, 1755.025
880.1321, 1754.793
880.6143, 1755.329
881.0964, 1755.075
881.5785, 1753.221
882.0606, 1753.141
882.5427, 1758.564
883.0248, 1764.181
883.5070, 1766.141
883.9891, 1763.730
884.4712, 1761.948
884.9533, 1760.774
885.4354, 1760.345
885.9175, 1761.138
886.3997, 1762.625
886.8818, 1763.794
887.3639, 1764.592
887.8460, 1765.146
888.3281, 1764.817
888.8102, 1764.870
889.2924, 1766.353
889.7745, 1769.138
890.2566, 1771.250
890.7387, 1772.771
891.2208, 1773.312
891.7029, 1772.460
892.1851, 1770.716
892.6672, 1768.908
893.1493, 1767.242
893.6314, 1766.597
894.1135, 1768.680
894.5956, 1770.648
895.0778, 1770.309
895.5599, 1768.674
896.0420, 1768.429
896.5241, 1770.517
897.0062, 1772.315
897.4883, 1773.460
897.9705, 1774.028
898.4526, 1773.620
898.9347, 1772.609
899.4168, 1772.849
899.8989, 1775.164
900.3810, 1777.752
900.8632, 1779.200
901.3453, 1780.115
901.8274, 1781.238
902.3095, 1783.038
902.7916, 1784.304
903.2737, 1784.756
903.7559, 1785.054
904.2380, 1786.004
904.7201, 1787.460
905.2022, 1787.828
905.6843, 1786.977
906.1664, 1786.169
906.6486, 1785.911
907.1307, 1786.526
907.6128, 1788.836
908.0949, 1793.039
908.5770, 1796.036
909.0591, 1796.964
909.5413, 1797.315
910.0234, 1797.532
910.5055, 1797.697
910.9876, 1798.122
911.4697, 1798.835
911.9518, 1800.207
912.4340, 1803.424
912.9161, 1806.637
913.3982, 1807.372
913.8803, 1806.507
914.3624, 1806.485
914.8445, 1808.975
915.3267, 1811.054
915.8088, 1812.018
916.2909, 1812.413
916.7730, 1813.320
917.2551, 1814.728
917.7372, 1816.142
918.2194, 1817.320
918.7015, 1818.921
919.1836, 1822.443
919.6657, 1826.543
920.1478, 1829.332
920.6299, 1829.865
921.1121, 1830.183
921.5942, 1830.454
922.0763, 1830.812
922.5584, 1831.334
923.0405, 1832.020
923.5226, 1833.522
924.0048, 1835.979
924.4869, 1837.086
924.9690, 1833.566
925.4511, 1828.530
925.9332, 1825.454
926.4153, 1824.488
926.8975, 1823.994
927.3796, 1824.342
927.8617, 1824.132
928.3438, 1822.848
928.8259, 1820.607
929.3080, 1817.832
929.7902, 1814.524
930.2723, 1811.494
930.7544, 1809.375
931.2365, 1807.442
931.7186, 1804.898
932.2007, 1801.945
932.6829, 1798.994
933.1650, 1796.010
933.6471, 1793.184
934.1292, 1789.894
934.6113, 1787.381
935.0934, 1788.779
935.5756, 1794.020
936.0577, 1793.654
936.5398, 1785.625
937.0219, 1777.132
937.5040, 1775.700
937.9861, 1777.641
938.4683, 1778.869
938.9504, 1778.604
939.4325, 1778.217
939.9146, 1777.520
940.3967, 1777.301
940.8788, 1778.543
941.3610, 1780.949
941.8431, 1780.228
942.3252, 1776.479
942.8073, 1772.768
943.2894, 1770.729
943.7715, 1769.926
944.2537, 1770.239
944.7358, 1771.500
945.2179, 1773.124
945.7000, 1776.012
946.1821, 1777.742
946.6642, 1777.438
947.1464, 1776.212
947.6285, 1776.707
948.1106, 1778.626
948.5927, 1779.570
949.0748, 1778.682
949.5569, 1777.510
950.0391, 1777.777
950.5212, 1778.342
951.0033, 1777.731
951.4854, 1774.433
951.9675, 1773.050
952.4496, 1774.257
952.9318, 1776.262
953.4139, 1777.930
953.8960, 1779.228
954.3781, 1779.964
954.8602, 1780.137
955.3423, 1779.950
955.8245, 1780.147
956.3066, 1779.498
956.7887, 1776.050
957.2708, 1770.439
957.7529, 1767.809
958.2350, 1769.135
958.7172, 1771.639
959.1993, 1775.311
959.6814, 1778.805
960.1635, 1778.228
960.6456, 1774.913
961.1277, 1773.272
961.6099, 1775.834
962.0920, 1778.173
962.5741, 1777.023
963.0562, 1774.724
963.5383, 1774.175
964.0204, 1776.913
964.5026, 1776.662
964.9847, 1772.488
965.4668, 1768.504
965.9489, 1769.128
966.4310, 1772.499
966.9131, 1775.125
967.3953, 1776.730
967.8774, 1777.222
968.3595, 1773.733
968.8416, 1771.994
969.3237, 1776.458
969.8058, 1785.142
970.2880, 1788.600
970.7701, 1786.221
971.2522, 1783.914
971.7343, 1783.731
972.2164, 1784.471
972.6985, 1784.460
973.1807, 1784.060
973.6628, 1783.989
974.1449, 1784.627
974.6270, 1785.332
975.1091, 1786.586
975.5912, 1787.312
976.0734, 1785.744
976.5555, 1781.785
977.0376, 1781.902
977.5197, 1786.636
978.0018, 1791.034
978.4839, 1790.229
978.9661, 1787.719
979.4482, 1787.096
979.9303, 1788.493
980.4124, 1789.341
980.8945, 1788.096
981.3766, 1788.308
981.8588, 1791.952
982.3409, 1797.020
982.8230, 1797.049
983.3051, 1793.019
983.7872, 1790.212
984.2693, 1791.105
984.7515, 1792.565
985.2336, 1792.117
985.7157, 1791.042
986.1978, 1791.123
986.6799, 1793.447
987.1620, 1794.534
987.6442, 1794.128
988.1263, 1793.155
988.6084, 1792.156
989.0905, 1791.303
989.5726, 1791.199
990.0547, 1791.806
990.5369, 1792.396
991.0190, 1793.042
991.5011, 1793.136
991.9832, 1792.019
992.4653, 1790.152
992.9474, 1789.178
993.4296, 1789.257
993.9117, 1788.727
994.3938, 1786.633
994.8759, 1784.770
995.3580, 1786.535
995.8401, 1789.858
996.3223, 1791.247
996.8044, 1788.177
997.2865, 1786.879
997.7686, 1789.879
998.2507, 1792.876
998.7328, 1791.820
999.2150, 1787.022
999.6971, 1786.299
1000.179, 1789.573
1000.661, 1792.309
1001.143, 1789.974
1001.626, 1787.096
1002.108, 1787.639
1002.590, 1790.928
1003.072, 1792.944
1003.554, 1793.084
1004.036, 1792.684
1004.518, 1791.691
1005.000, 1790.866
1005.482, 1791.836
1005.965, 1794.010
1006.447, 1795.784
1006.929, 1796.683
1007.411, 1797.544
1007.893, 1798.711
1008.375, 1800.072
1008.857, 1801.928
1009.339, 1804.509
1009.822, 1803.610
1010.304, 1798.806
1010.786, 1795.230
1011.268, 1797.204
1011.750, 1801.531
1012.232, 1804.968
1012.714, 1807.395
1013.196, 1808.585
1013.678, 1806.342
1014.161, 1805.820
1014.643, 1808.328
1015.125, 1812.104
1015.607, 1814.989
1016.089, 1816.929
1016.571, 1817.170
1017.053, 1815.404
1017.535, 1814.219
1018.018, 1817.136
1018.500, 1820.266
1018.982, 1819.787
1019.464, 1815.418
1019.946, 1814.228
1020.428, 1817.302
1020.910, 1819.526
1021.392, 1817.946
1021.874, 1815.024
1022.357, 1815.515
1022.839, 1818.463
1023.321, 1821.695
1023.803, 1825.412
1024.285, 1827.802
1024.767, 1827.718
1025.249, 1826.675
1025.731, 1825.641
1026.214, 1824.583
1026.696, 1825.346
1027.178, 1828.038
1027.660, 1832.166
1028.142, 1840.244
1028.624, 1847.340
1029.106, 1847.538
1029.588, 1841.800
1030.070, 1839.740
1030.553, 1843.487
1031.035, 1847.204
1031.517, 1849.551
1031.999, 1851.078
1032.481, 1852.712
1032.963, 1854.361
1033.445, 1855.592
1033.927, 1855.877
1034.410, 1857.293
1034.892, 1862.124
1035.374, 1867.228
1035.856, 1870.496
1036.338, 1871.918
1036.820, 1872.174
1037.302, 1871.233
1037.784, 1870.674
1038.266, 1872.227
1038.749, 1874.000
1039.231, 1874.300
1039.713, 1873.305
1040.195, 1871.355
1040.677, 1867.474
1041.159, 1864.589
1041.641, 1863.167
1042.123, 1862.317
1042.605, 1860.943
1043.088, 1859.244
1043.570, 1857.985
1044.052, 1857.242
1044.534, 1856.042
1045.016, 1853.384
1045.498, 1850.609
1045.980, 1848.415
1046.462, 1846.711
1046.945, 1845.137
1047.427, 1843.697
1047.909, 1841.980
1048.391, 1839.486
1048.873, 1837.585
1049.355, 1838.542
1049.837, 1840.658
1050.319, 1841.570
1050.802, 1840.000
1051.284, 1839.143
1051.766, 1839.195
1052.248, 1839.615
1052.730, 1840.363
1053.212, 1841.104
1053.694, 1840.234
1054.176, 1838.213
1054.658, 1837.239
1055.141, 1839.838
1055.623, 1841.942
1056.105, 1841.466
1056.587, 1839.976
1057.069, 1839.875
1057.551, 1841.207
1058.033, 1842.132
1058.515, 1842.430
1058.997, 1842.286
1059.480, 1841.619
1059.962, 1840.792
1060.444, 1840.411
1060.926, 1840.504
1061.408, 1839.156
1061.890, 1835.368
1062.372, 1832.823
1062.854, 1833.082
1063.337, 1834.841
1063.819, 1835.704
1064.301, 1836.119
1064.783, 1837.269
1065.265, 1840.484
1065.747, 1842.018
1066.229, 1839.527
1066.711, 1836.111
1067.193, 1833.268
1067.676, 1831.063
1068.158, 1831.135
1068.640, 1833.294
1069.122, 1834.832
1069.604, 1833.947
1070.086, 1832.030
1070.568, 1829.009
1071.050, 1825.859
1071.532, 1824.840
1072.015, 1826.915
1072.497, 1827.619
1072.979, 1826.243
1073.461, 1824.715
1073.943, 1825.285
1074.425, 1826.898
1074.907, 1828.266
1075.389, 1829.251
1075.872, 1829.780
1076.354, 1829.298
1076.836, 1829.095
1077.318, 1829.478
1077.800, 1830.363
1078.282, 1832.211
1078.764, 1834.471
1079.246, 1834.868
1079.729, 1832.157
1080.211, 1829.872
1080.693, 1830.187
1081.175, 1831.502
1081.657, 1832.606
1082.139, 1833.494
1082.621, 1834.785
1083.103, 1836.517
1083.585, 1837.188
1084.068, 1834.633
1084.550, 1832.119
1085.032, 1833.947
1085.514, 1837.766
1085.996, 1839.131
1086.478, 1835.577
1086.960, 1834.316
1087.442, 1836.377
1087.924, 1838.212
1088.406, 1835.299
1088.889, 1830.385
1089.371, 1828.756
1089.853, 1830.199
1090.335, 1831.645
1090.817, 1832.367
1091.299, 1832.339
1091.781, 1831.010
1092.263, 1829.561
1092.746, 1830.474
1093.228, 1833.268
1093.710, 1835.744
1094.192, 1837.556
1094.674, 1838.672
1095.156, 1838.224
1095.638, 1837.805
1096.120, 1838.666
1096.603, 1840.557
1097.085, 1841.564
1097.567, 1841.608
1098.049, 1842.613
1098.531, 1846.082
1099.013, 1849.068
1099.495, 1847.687
1099.977, 1844.375
1100.459, 1842.214
1100.942, 1841.917
1101.424, 1842.347
1101.906, 1843.936
1102.388, 1844.892
1102.870, 1843.309
1103.352, 1840.733
1103.834, 1840.204
1104.316, 1841.211
1104.798, 1842.315
1105.281, 1843.051
1105.763, 1843.855
1106.245, 1844.926
1106.727, 1845.887
1107.209, 1846.408
1107.691, 1846.458
1108.173, 1845.696
1108.655, 1844.158
1109.138, 1842.631
1109.620, 1841.330
1110.102, 1840.388
1110.584, 1839.824
1111.066, 1839.655
1111.548, 1839.981
1112.030, 1840.793
1112.512, 1841.850
1112.995, 1843.173
1113.477, 1844.275
1113.959, 1844.618
1114.441, 1844.623
1114.923, 1844.538
1115.405, 1844.389
1115.887, 1844.476
1116.369, 1844.789
1116.851, 1845.484
1117.333, 1846.975
1117.816, 1848.145
1118.298, 1846.818
1118.780, 1844.501
1119.262, 1843.345
1119.744, 1843.987
1120.226, 1845.609
1120.708, 1848.806
1121.190, 1851.414
1121.673, 1851.828
1122.155, 1850.973
1122.637, 1850.745
1123.119, 1851.140
1123.601, 1852.148
1124.083, 1854.607
1124.565, 1856.519
1125.047, 1857.776
1125.530, 1858.185
1126.012, 1857.059
1126.494, 1854.822
1126.976, 1853.821
1127.458, 1854.058
1127.940, 1854.900
1128.422, 1856.271
1128.904, 1857.852
1129.386, 1859.995
1129.869, 1861.957
1130.351, 1862.262
1130.833, 1860.940
1131.315, 1860.338
1131.797, 1860.761
1132.279, 1861.121
1132.761, 1859.391
1133.243, 1858.286
1133.725, 1861.032
1134.208, 1866.426
1134.690, 1868.055
1135.172, 1865.277
1135.654, 1863.740
1136.136, 1865.091
1136.618, 1866.886
1137.100, 1866.175
1137.582, 1864.608
1138.065, 1863.981
1138.547, 1864.680
1139.029, 1865.401
1139.511, 1866.102
1139.993, 1867.094
1140.475, 1869.057
1140.957, 1870.486
1141.439, 1867.477
1141.922, 1862.706
1142.404, 1860.904
1142.886, 1864.542
1143.368, 1867.811
1143.850, 1870.368
1144.332, 1872.108
1144.814, 1872.722
1145.296, 1872.553
1145.778, 1872.377
1146.260, 1872.195
1146.743, 1872.010
1147.225, 1871.997
1147.707, 1871.757
1148.189, 1871.383
1148.671, 1870.610
1149.153, 1868.472
1149.635, 1865.654
1150.117, 1866.582
1150.600, 1870.612
1151.082, 1872.634
1151.564, 1867.328
1152.046, 1862.841
1152.528, 1862.058
1153.010, 1863.696
1153.492, 1867.247
1153.974, 1872.291
1154.457, 1873.397
1154.939, 1870.124
1155.421, 1866.740
1155.903, 1865.815
1156.385, 1865.929
1156.867, 1866.812
1157.349, 1867.955
1157.831, 1868.004
1158.313, 1866.914
1158.796, 1867.199
1159.278, 1869.424
1159.760, 1871.720
1160.242, 1872.818
1160.724, 1873.070
1161.206, 1872.232
1161.688, 1870.628
1162.170, 1870.495
1162.652, 1871.969
1163.135, 1873.623
1163.617, 1875.234
1164.099, 1876.330
1164.581, 1876.547
1165.063, 1875.930
1165.545, 1873.941
1166.027, 1870.295
1166.509, 1869.577
1166.992, 1872.418
1167.474, 1874.557
1167.956, 1874.084
1168.438, 1872.391
1168.920, 1870.425
1169.402, 1868.798
1169.884, 1868.384
1170.366, 1869.574
1170.849, 1871.685
1171.331, 1875.133
1171.813, 1878.149
1172.295, 1879.896
1172.777, 1880.521
1173.259, 1879.890
1173.741, 1878.428
1174.223, 1876.966
1174.705, 1875.494
1175.188, 1874.408
1175.670, 1873.642
1176.152, 1873.401
1176.634, 1873.950
1177.116, 1875.048
1177.598, 1876.665
1178.080, 1878.437
1178.562, 1879.338
1179.044, 1878.774
1179.527, 1877.503
1180.009, 1875.212
1180.491, 1873.007
1180.973, 1869.580
1181.455, 1867.827
1181.937, 1878.916
1182.419, 1899.446
1182.901, 1911.767
1183.384, 1903.332
1183.866, 1893.335
1184.348, 1883.664
1184.830, 1875.840
1185.312, 1872.513
1185.794, 1872.391
1186.276, 1872.047
1186.758, 1871.303
1187.240, 1871.448
1187.723, 1873.452
1188.205, 1875.911
1188.687, 1878.718
1189.169, 1881.377
1189.651, 1883.061
1190.133, 1883.913
1190.615, 1884.474
1191.097, 1884.796
1191.579, 1884.262
1192.062, 1880.628
1192.544, 1878.667
1193.026, 1880.613
1193.508, 1884.418
1193.990, 1885.766
1194.472, 1885.144
1194.954, 1884.156
1195.436, 1883.117
1195.919, 1881.784
1196.401, 1879.013
1196.883, 1877.293
1197.365, 1878.173
1197.847, 1880.447
1198.329, 1880.228
1198.811, 1878.238
1199.293, 1877.259
1199.776, 1878.046
1200.258, 1879.487
1200.740, 1881.934
1201.222, 1883.932
1201.704, 1884.725
1202.186, 1884.479
1202.668, 1883.129
1203.150, 1881.239
1203.632, 1881.400
1204.115, 1885.446
1204.597, 1888.688
1205.079, 1888.276
1205.561, 1887.033
1206.043, 1886.408
1206.525, 1886.353
1207.007, 1887.064
1207.489, 1888.246
1207.971, 1888.475
1208.454, 1886.427
1208.936, 1884.874
1209.418, 1885.749
1209.900, 1886.777
1210.382, 1886.031
1210.864, 1884.037
1211.346, 1885.020
1211.828, 1888.386
1212.311, 1891.176
1212.793, 1890.935
1213.275, 1891.701
1213.757, 1897.118
1214.239, 1902.009
1214.721, 1901.689
1215.203, 1897.069
1215.685, 1895.022
1216.167, 1895.264
1216.650, 1896.201
1217.132, 1897.853
1217.614, 1899.019
1218.096, 1899.289
1218.578, 1898.980
1219.060, 1898.070
1219.542, 1896.736
1220.024, 1896.248
1220.506, 1896.518
1220.989, 1896.896
1221.471, 1897.036
1221.953, 1897.319
1222.435, 1898.155
1222.917, 1898.844
1223.399, 1898.279
1223.881, 1896.888
1224.363, 1896.986
1224.846, 1898.431
1225.328, 1899.880
1225.810, 1900.696
1226.292, 1901.340
1226.774, 1901.523
1227.256, 1902.111
1227.738, 1905.113
1228.220, 1909.312
1228.703, 1909.193
1229.185, 1905.330
1229.667, 1903.632
1230.149, 1910.076
1230.631, 1914.446
1231.113, 1914.059
1231.595, 1911.473
1232.077, 1909.042
1232.559, 1907.224
1233.042, 1908.167
1233.524, 1911.538
1234.006, 1913.641
1234.488, 1912.094
1234.970, 1910.146
1235.452, 1908.288
1235.934, 1906.569
1236.416, 1905.426
1236.898, 1904.408
1237.381, 1901.852
1237.863, 1897.994
1238.345, 1895.986
1238.827, 1898.960
1239.309, 1900.668
1239.791, 1899.652
1240.273, 1898.059
1240.755, 1899.125
1241.238, 1901.533
1241.720, 1902.981
1242.202, 1903.283
1242.684, 1902.823
1243.166, 1900.346
1243.648, 1900.202
1244.130, 1903.945
1244.612, 1908.212
1245.094, 1907.986
1245.577, 1905.736
1246.059, 1905.400
1246.541, 1907.120
1247.023, 1907.603
1247.505, 1905.796
1247.987, 1904.956
1248.469, 1905.910
1248.951, 1907.448
1249.433, 1907.930
1249.916, 1908.200
1250.398, 1909.629
1250.880, 1912.160
1251.362, 1913.112
1251.844, 1911.814
1252.326, 1912.018
1252.808, 1915.030
1253.290, 1917.770
1253.773, 1916.726
1254.255, 1913.905
1254.737, 1910.558
1255.219, 1907.120
1255.701, 1905.711
1256.183, 1906.505
1256.665, 1908.109
1257.147, 1910.439
1257.630, 1912.182
1258.112, 1910.779
1258.594, 1909.373
1259.076, 1911.426
1259.558, 1915.929
1260.040, 1918.297
1260.522, 1918.538
1261.004, 1918.792
1261.486, 1919.620
1261.969, 1919.815
1262.451, 1917.130
1262.933, 1914.840
1263.415, 1915.984
1263.897, 1918.953
1264.379, 1917.474
1264.861, 1912.361
1265.343, 1909.972
1265.825, 1911.978
1266.308, 1914.370
1266.790, 1914.827
1267.272, 1915.115
1267.754, 1916.371
1268.236, 1917.885
1268.718, 1917.300
1269.200, 1915.334
1269.682, 1914.751
1270.165, 1916.236
1270.647, 1917.485
1271.129, 1917.343
1271.611, 1916.931
1272.093, 1916.259
1272.575, 1915.983
1273.057, 1918.233
1273.539, 1921.686
1274.021, 1922.966
1274.504, 1921.251
1274.986, 1920.903
1275.468, 1923.601
1275.950, 1925.735
1276.432, 1926.019
1276.914, 1925.753
1277.396, 1927.333
1277.878, 1929.557
1278.360, 1930.645
1278.843, 1930.302
1279.325, 1929.260
1279.807, 1927.240
1280.289, 1925.867
1280.771, 1925.549
1281.253, 1926.172
1281.735, 1928.141
1282.217, 1930.615
1282.700, 1932.770
1283.182, 1934.537
1283.664, 1936.033
1284.146, 1937.250
1284.628, 1938.045
1285.110, 1938.375
1285.592, 1938.214
1286.074, 1936.777
1286.557, 1935.485
1287.039, 1935.379
1287.521, 1936.339
1288.003, 1938.529
1288.485, 1941.760
1288.967, 1943.838
1289.449, 1944.234
1289.931, 1943.870
1290.413, 1942.254
1290.896, 1941.344
1291.378, 1942.488
1291.860, 1944.620
1292.342, 1944.687
1292.824, 1943.415
1293.306, 1943.595
1293.788, 1945.853
1294.270, 1947.316
1294.752, 1945.094
1295.235, 1944.545
1295.717, 1948.095
1296.199, 1952.253
1296.681, 1949.351
1297.163, 1943.372
1297.645, 1942.101
1298.127, 1946.525
1298.609, 1949.646
1299.092, 1950.529
1299.574, 1949.695
1300.056, 1946.619
1300.538, 1944.289
1301.020, 1948.100
1301.502, 1953.537
1301.984, 1954.964
1302.466, 1952.378
1302.948, 1951.677
1303.431, 1953.276
1303.913, 1954.230
1304.395, 1954.318
1304.877, 1952.377
##END=



