##NAMES=Prosopite
##RRUFFID=R050668
##IDEAL CHEMISTRY=CaAl_2_F_4_(OH)_4_
##LOCALITY=Grand Reef mine, Klondyke, Aravaipa District, Graham County, Arizona, USA
##OWNER=RRUFF
##SOURCE=University of Arizona Mineral Museum
##DESCRIPTION=Light-blue massive coating on quartz
##STATUS=The identification of this mineral has been confirmed by X-ray diffraction.
##URL=rruff.info/R050668
92.02539, 100.0779
92.50751, 102.6710
92.98962, 104.6224
93.47174, 103.5657
93.95386, 101.4264
94.43597, 99.29401
94.91809, 97.84116
95.40021, 96.87756
95.88232, 95.34636
96.36444, 92.69875
96.84656, 90.26689
97.32867, 88.38546
97.81078, 86.99520
98.29290, 86.00430
98.77502, 85.36442
99.25713, 85.04935
99.73925, 84.18733
100.2214, 82.45591
100.7035, 80.64610
101.1856, 79.23483
101.6677, 78.18154
102.1498, 76.99850
102.6320, 75.02650
103.1141, 71.62084
103.5962, 69.01517
104.0783, 67.60038
104.5604, 66.78553
105.0425, 65.98726
105.5247, 65.04565
106.0068, 63.99051
106.4889, 62.81810
106.9710, 61.48934
107.4531, 60.23796
107.9352, 59.14937
108.4173, 58.21538
108.8995, 57.38428
109.3816, 56.59914
109.8637, 55.95721
110.3458, 55.58544
110.8279, 55.54303
111.3100, 55.58997
111.7922, 55.40649
112.2743, 54.89280
112.7564, 54.47350
113.2385, 54.37957
113.7206, 54.37756
114.2027, 54.23793
114.6849, 53.83934
115.1670, 53.29378
115.6491, 53.00628
116.1312, 53.19506
116.6133, 53.41573
117.0954, 53.77513
117.5776, 54.09623
118.0597, 54.07961
118.5418, 53.46970
119.0239, 52.24960
119.5060, 51.56141
119.9881, 51.59903
120.4703, 51.85719
120.9524, 52.24451
121.4345, 52.70372
121.9166, 53.13892
122.3987, 53.51463
122.8808, 53.82331
123.3630, 53.65765
123.8451, 52.68289
124.3272, 51.40389
124.8093, 50.24297
125.2914, 49.24086
125.7735, 48.47636
126.2557, 48.13358
126.7378, 48.13160
127.2199, 48.28121
127.7020, 48.72097
128.1841, 49.29332
128.6662, 49.44221
129.1483, 48.81553
129.6305, 48.05192
130.1126, 47.67426
130.5947, 47.65489
131.0768, 47.68634
131.5589, 47.47713
132.0410, 46.98700
132.5232, 46.58785
133.0053, 46.40563
133.4874, 46.27313
133.9695, 46.09855
134.4516, 45.86767
134.9337, 45.64367
135.4159, 45.51270
135.8980, 45.45913
136.3801, 45.55338
136.8622, 45.93397
137.3443, 46.36665
137.8264, 46.67105
138.3086, 46.77669
138.7907, 46.71350
139.2728, 46.55888
139.7549, 46.22979
140.2370, 45.89806
140.7191, 45.51101
141.2013, 45.13802
141.6834, 44.89265
142.1655, 44.84678
142.6476, 44.95656
143.1297, 45.02506
143.6118, 44.97045
144.0939, 44.96633
144.5761, 45.10765
145.0582, 45.37122
145.5403, 45.65480
146.0224, 45.91531
146.5045, 46.14350
146.9866, 46.33586
147.4688, 46.52691
147.9509, 46.65222
148.4330, 46.55047
148.9151, 46.15623
149.3972, 45.94682
149.8793, 46.35415
150.3615, 47.09833
150.8436, 47.89827
151.3257, 48.74195
151.8078, 49.53503
152.2899, 50.00567
152.7720, 49.93984
153.2542, 49.92847
153.7363, 50.27835
154.2184, 50.82215
154.7005, 51.29553
155.1826, 51.48518
155.6647, 51.43918
156.1469, 51.66421
156.6290, 52.63366
157.1111, 53.41533
157.5932, 53.70727
158.0753, 53.61148
158.5574, 53.36378
159.0396, 53.14124
159.5217, 52.93383
160.0038, 52.85494
160.4859, 53.15380
160.9680, 53.34334
161.4501, 53.10485
161.9323, 52.50691
162.4144, 51.90956
162.8965, 51.70691
163.3786, 52.04380
163.8607, 52.14723
164.3428, 51.77306
164.8250, 51.35405
165.3071, 51.21902
165.7892, 51.41453
166.2713, 51.73963
166.7534, 51.93284
167.2355, 51.95094
167.7177, 52.19282
168.1998, 52.81721
168.6819, 53.64994
169.1640, 54.53365
169.6461, 55.48408
170.1282, 56.30190
170.6104, 56.71818
171.0925, 56.78696
171.5746, 56.63000
172.0567, 56.19934
172.5388, 55.56755
173.0209, 54.95479
173.5031, 54.43880
173.9852, 53.89044
174.4673, 53.18174
174.9494, 52.32759
175.4315, 51.44842
175.9136, 50.61711
176.3958, 49.83181
176.8779, 49.08910
177.3600, 48.34647
177.8421, 47.69324
178.3242, 47.18936
178.8063, 46.83152
179.2885, 46.57240
179.7706, 46.36946
180.2527, 46.22657
180.7348, 46.12540
181.2169, 46.06845
181.6990, 46.04842
182.1812, 46.05500
182.6633, 46.09079
183.1454, 46.17607
183.6275, 46.33426
184.1096, 46.55074
184.5917, 46.88901
185.0738, 47.39074
185.5560, 47.95922
186.0381, 48.52364
186.5202, 49.06699
187.0023, 49.62764
187.4844, 50.28902
187.9665, 51.42355
188.4487, 52.01329
188.9308, 51.62026
189.4129, 50.92142
189.8950, 50.58652
190.3771, 50.83368
190.8592, 51.32851
191.3414, 51.41511
191.8235, 50.88002
192.3056, 50.33703
192.7877, 49.84953
193.2698, 49.39004
193.7519, 48.89185
194.2341, 48.31317
194.7162, 47.75277
195.1983, 47.43428
195.6804, 47.35751
196.1625, 47.39233
196.6446, 47.55502
197.1268, 47.80164
197.6089, 48.05597
198.0910, 48.33421
198.5731, 48.53691
199.0552, 48.53624
199.5373, 48.34373
200.0195, 47.97867
200.5016, 47.39449
200.9837, 46.62173
201.4658, 45.82454
201.9479, 45.04723
202.4300, 44.25820
202.9122, 43.41680
203.3943, 42.51027
203.8764, 41.63765
204.3585, 40.84205
204.8406, 40.12198
205.3227, 39.57731
205.8048, 39.46021
206.2870, 39.36145
206.7691, 38.91712
207.2512, 38.09459
207.7333, 37.27079
208.2154, 36.89679
208.6975, 37.06044
209.1797, 37.15270
209.6618, 36.99923
210.1439, 36.79352
210.6260, 36.61040
211.1081, 36.47179
211.5902, 36.39681
212.0724, 36.42597
212.5545, 36.59969
213.0366, 36.75560
213.5187, 36.87432
214.0008, 36.97853
214.4829, 37.11072
214.9651, 37.26611
215.4472, 37.37532
215.9293, 37.30120
216.4114, 36.83366
216.8935, 36.63214
217.3756, 36.72083
217.8578, 37.00153
218.3399, 37.49535
218.8220, 38.16698
219.3041, 38.85711
219.7862, 39.31005
220.2683, 39.36898
220.7505, 39.47496
221.2326, 39.70957
221.7147, 39.93657
222.1968, 39.99754
222.6789, 39.87365
223.1610, 39.73944
223.6432, 39.86345
224.1253, 40.43826
224.6074, 40.89103
225.0895, 41.17334
225.5716, 41.36382
226.0537, 41.54337
226.5358, 41.72981
227.0180, 41.86010
227.5001, 41.83114
227.9822, 41.58128
228.4643, 41.35728
228.9464, 41.11596
229.4285, 40.93385
229.9107, 40.92799
230.3928, 41.12856
230.8749, 41.39649
231.3570, 41.53290
231.8391, 41.51535
232.3212, 41.60790
232.8034, 41.96426
233.2855, 42.40969
233.7676, 42.73960
234.2497, 42.91977
234.7318, 42.97174
235.2139, 42.83434
235.6961, 42.53600
236.1782, 42.33839
236.6603, 42.41149
237.1424, 42.59352
237.6245, 42.59143
238.1066, 42.30640
238.5888, 42.05101
239.0709, 42.25615
239.5530, 42.76822
240.0351, 43.08875
240.5172, 42.96910
240.9993, 42.56360
241.4815, 42.13343
241.9636, 41.65674
242.4457, 41.25054
242.9278, 41.04707
243.4099, 40.97323
243.8920, 40.88841
244.3742, 40.83043
244.8563, 40.70746
245.3384, 40.22993
245.8205, 39.19189
246.3026, 38.26939
246.7847, 37.88003
247.2668, 37.83927
247.7490, 37.88639
248.2311, 37.95910
248.7132, 38.01696
249.1953, 37.95230
249.6774, 37.72541
250.1595, 37.44931
250.6417, 37.14253
251.1238, 36.83043
251.6059, 36.52867
252.0880, 36.21098
252.5701, 35.94960
253.0522, 35.95775
253.5344, 36.39938
254.0165, 36.79354
254.4986, 36.88221
254.9807, 36.89444
255.4628, 37.11639
255.9449, 37.69835
256.4271, 38.45355
256.9092, 38.97646
257.3913, 39.30471
257.8734, 39.27921
258.3555, 38.59636
258.8376, 37.74946
259.3198, 37.22972
259.8019, 37.23364
260.2840, 37.51540
260.7661, 37.56086
261.2482, 37.24650
261.7303, 36.91515
262.2125, 36.74373
262.6946, 36.50161
263.1767, 35.90490
263.6588, 34.88509
264.1409, 33.74915
264.6230, 33.07393
265.1052, 33.23751
265.5873, 33.12704
266.0694, 32.48727
266.5515, 31.73763
267.0336, 31.19190
267.5157, 30.91807
267.9979, 30.76288
268.4800, 30.48286
268.9621, 29.92077
269.4442, 29.59290
269.9263, 29.67990
270.4084, 29.82059
270.8906, 29.75479
271.3727, 29.46469
271.8548, 29.13154
272.3369, 28.96690
272.8190, 28.98532
273.3011, 29.15087
273.7833, 29.72125
274.2654, 30.19880
274.7475, 30.18689
275.2296, 29.75106
275.7117, 29.31851
276.1938, 29.34153
276.6760, 29.94106
277.1581, 30.24741
277.6402, 30.15243
278.1223, 29.94088
278.6044, 29.64146
279.0865, 29.32186
279.5686, 29.14094
280.0508, 29.25261
280.5329, 29.66669
281.0150, 29.87708
281.4971, 29.74323
281.9792, 29.59334
282.4613, 29.58087
282.9435, 29.65227
283.4256, 29.22420
283.9077, 29.79624
284.3898, 30.12964
284.8719, 30.23724
285.3540, 29.44272
285.8362, 29.81310
286.3183, 29.71664
286.8004, 29.60104
287.2825, 30.13538
287.7646, 29.47206
288.2467, 29.99609
288.7289, 30.04616
289.2110, 30.31315
289.6931, 30.11041
290.1752, 30.05275
290.6573, 30.46497
291.1394, 30.61702
291.6216, 30.36021
292.1037, 30.64099
292.5858, 29.96126
293.0679, 30.12439
293.5500, 30.65117
294.0321, 30.41798
294.5143, 30.30756
294.9964, 30.53626
295.4785, 30.96334
295.9606, 31.45528
296.4427, 31.82980
296.9248, 32.05689
297.4070, 32.23426
297.8891, 32.28627
298.3712, 32.33657
298.8533, 32.51044
299.3354, 32.82090
299.8175, 33.17766
300.2997, 33.50495
300.7818, 33.80237
301.2639, 34.00412
301.7460, 34.09883
302.2281, 34.10867
302.7102, 33.96458
303.1924, 33.70560
303.6745, 33.56580
304.1566, 33.77042
304.6387, 34.29175
305.1208, 34.56194
305.6029, 34.39038
306.0851, 34.18056
306.5672, 34.13334
307.0493, 34.21745
307.5314, 34.29328
308.0135, 34.25703
308.4956, 34.17415
308.9778, 34.33861
309.4599, 35.05468
309.9420, 35.59938
310.4241, 35.54604
310.9062, 35.17517
311.3883, 35.06642
311.8705, 35.49054
312.3526, 36.19077
312.8347, 36.57898
313.3168, 36.53123
313.7989, 36.10544
314.2810, 36.76361
314.7632, 37.16928
315.2453, 37.33516
315.7274, 36.58807
316.2095, 36.98553
316.6916, 36.90331
317.1737, 36.78703
317.6559, 37.30272
318.1380, 36.61126
318.6201, 37.08669
319.1022, 37.07534
319.5843, 37.26492
320.0664, 36.54294
320.5485, 36.89053
321.0306, 36.97722
321.5128, 36.81575
321.9949, 35.73298
322.4770, 35.78642
322.9591, 35.35178
323.4412, 34.87476
323.9233, 35.02131
324.4055, 33.95231
324.8876, 34.04188
325.3697, 33.63634
325.8518, 33.42333
326.3339, 32.73013
326.8160, 32.07356
327.2982, 31.30088
327.7803, 30.84548
328.2624, 30.96244
328.7445, 31.38138
329.2266, 31.33497
329.7087, 30.41043
330.1909, 29.82696
330.6730, 30.18820
331.1551, 30.88316
331.6372, 31.05341
332.1193, 30.44376
332.6014, 29.53402
333.0836, 28.99417
333.5657, 28.50540
334.0478, 28.94812
334.5299, 29.15558
335.0120, 29.14062
335.4941, 28.22689
335.9763, 28.48144
336.4584, 28.27253
336.9405, 28.04785
337.4226, 28.47648
337.9047, 27.71084
338.3868, 28.13592
338.8690, 28.09039
339.3511, 28.26516
339.8332, 27.97359
340.3153, 27.83047
340.7974, 28.16061
341.2795, 28.23394
341.7617, 27.90178
342.2438, 28.11058
342.7259, 27.36227
343.2080, 27.46017
343.6901, 27.92510
344.1722, 27.63343
344.6544, 27.86769
345.1365, 27.90631
345.6186, 27.04384
346.1007, 27.75769
346.5828, 27.79466
347.0649, 27.32755
347.5471, 27.17733
348.0292, 27.15884
348.5113, 27.31719
348.9934, 27.54816
349.4755, 27.73782
349.9576, 27.90250
350.4398, 27.93849
350.9219, 27.68019
351.4040, 27.46258
351.8861, 27.51742
352.3682, 27.78207
352.8503, 28.02143
353.3325, 28.04803
353.8146, 27.88048
354.2967, 27.81576
354.7788, 28.01241
355.2609, 28.13037
355.7430, 28.02858
356.2252, 27.82287
356.7073, 27.68225
357.1894, 27.68782
357.6715, 27.78538
358.1536, 27.84677
358.6357, 27.94562
359.1179, 27.87834
359.5999, 27.39302
360.0821, 26.90642
360.5642, 26.82132
361.0463, 27.18320
361.5284, 27.66903
362.0105, 27.85281
362.4926, 27.60552
362.9748, 27.55898
363.4569, 27.94592
363.9390, 28.30309
364.4211, 28.44181
364.9032, 28.37848
365.3853, 28.19090
365.8675, 27.90260
366.3496, 27.54471
366.8317, 27.43057
367.3138, 27.84617
367.7959, 28.14797
368.2780, 28.09043
368.7602, 27.88221
369.2423, 27.78832
369.7244, 27.92538
370.2065, 28.19281
370.6886, 28.39879
371.1707, 28.52614
371.6529, 28.63136
372.1350, 28.75114
372.6171, 28.83360
373.0992, 28.78900
373.5813, 28.14681
374.0634, 28.66537
374.5456, 28.94640
375.0277, 29.00266
375.5098, 28.16094
375.9919, 28.47877
376.4740, 28.33191
376.9561, 28.16599
377.4383, 28.64702
377.9204, 27.93591
378.4025, 28.40668
378.8846, 28.40567
379.3667, 28.17219
379.8488, 27.67432
380.3310, 27.22192
380.8131, 26.97427
381.2952, 26.83280
381.7773, 26.71707
382.2594, 26.61409
382.7415, 26.49946
383.2237, 26.31651
383.7058, 26.06569
384.1879, 25.91302
384.6700, 25.99237
385.1521, 26.08521
385.6342, 25.93016
386.1164, 25.55248
386.5985, 25.30236
387.0806, 25.49078
387.5627, 25.93618
388.0448, 26.18622
388.5269, 26.15906
389.0091, 26.09055
389.4912, 26.19317
389.9733, 26.38408
390.4554, 26.47773
390.9375, 25.98794
391.4196, 26.58713
391.9018, 26.94770
392.3839, 27.08246
392.8660, 26.31509
393.3481, 26.71263
393.8302, 26.64332
394.3123, 26.55487
394.7945, 27.11637
395.2766, 27.09049
395.7587, 27.08954
396.2408, 26.96307
396.7229, 26.81231
397.2050, 26.64906
397.6872, 26.54881
398.1693, 26.60328
398.6514, 26.82760
399.1335, 27.09068
399.6156, 27.55358
400.0977, 27.92200
400.5798, 27.91117
401.0620, 27.58726
401.5441, 27.26921
402.0262, 27.15261
402.5083, 27.19954
402.9904, 27.22579
403.4725, 27.12978
403.9547, 27.14038
404.4368, 27.45518
404.9189, 27.84220
405.4010, 27.97378
405.8831, 27.75600
406.3652, 27.39449
406.8474, 27.18713
407.3295, 27.18801
407.8116, 27.20289
408.2937, 27.30495
408.7758, 27.35610
409.2579, 27.19309
409.7401, 26.89427
410.2222, 26.70374
410.7043, 26.80962
411.1864, 27.17981
411.6685, 27.53324
412.1506, 27.93019
412.6328, 28.22699
413.1149, 28.31177
413.5970, 28.32838
414.0791, 28.45898
414.5612, 28.76045
415.0433, 29.09947
415.5255, 29.25339
416.0076, 29.15859
416.4897, 29.10047
416.9718, 29.10775
417.4539, 29.14602
417.9360, 29.25286
418.4182, 29.38857
418.9003, 29.42982
419.3824, 29.22865
419.8645, 28.86801
420.3466, 28.74874
420.8287, 29.01670
421.3109, 29.22281
421.7930, 29.10544
422.2751, 28.86637
422.7572, 28.74426
423.2393, 28.82441
423.7214, 28.93513
424.2036, 28.91419
424.6857, 28.76226
425.1678, 28.49811
425.6499, 28.10611
426.1320, 27.62045
426.6141, 26.99397
427.0963, 26.26185
427.5784, 25.70922
428.0605, 25.55670
428.5426, 25.61495
429.0247, 25.59326
429.5068, 25.47126
429.9890, 25.36738
430.4711, 25.36788
430.9532, 25.44168
431.4353, 25.48204
431.9174, 25.50816
432.3995, 25.47168
432.8817, 25.35824
433.3638, 25.16418
433.8459, 24.82537
434.3280, 24.29678
434.8101, 23.79261
435.2922, 23.65538
435.7744, 24.02784
436.2565, 24.18149
436.7386, 23.85095
437.2207, 23.48688
437.7028, 23.43982
438.1849, 23.66733
438.6671, 23.90981
439.1492, 23.99852
439.6313, 23.95125
440.1134, 23.86836
440.5955, 23.62321
441.0776, 23.50076
441.5598, 23.64651
442.0418, 23.87230
442.5240, 23.97916
443.0061, 23.91911
443.4882, 23.79008
443.9703, 23.70813
444.4524, 23.66779
444.9345, 23.70104
445.4167, 23.92801
445.8988, 24.11030
446.3809, 24.12040
446.8630, 24.02577
447.3451, 23.97582
447.8272, 24.07034
448.3094, 24.22359
448.7915, 24.19568
449.2736, 23.90228
449.7557, 23.66861
450.2378, 23.53040
450.7199, 23.51017
451.2021, 23.69610
451.6842, 24.07770
452.1663, 24.42989
452.6484, 24.56254
453.1305, 24.51372
453.6126, 24.44745
454.0948, 24.38375
454.5769, 24.27981
455.0590, 24.10050
455.5411, 23.86186
456.0232, 23.56602
456.5053, 23.11552
456.9875, 22.74546
457.4696, 22.75521
457.9517, 23.05041
458.4338, 23.16324
458.9159, 22.87393
459.3980, 22.46694
459.8802, 22.44193
460.3623, 22.85047
460.8444, 23.04288
461.3265, 22.61993
461.8086, 22.12619
462.2907, 22.10688
462.7729, 22.53743
463.2550, 23.02590
463.7371, 23.33489
464.2192, 23.46534
464.7013, 23.42342
465.1834, 22.95974
465.6656, 22.65304
466.1477, 22.72975
466.6298, 22.92936
467.1119, 22.92638
467.5940, 22.66618
468.0761, 22.39975
468.5583, 22.45916
469.0404, 22.93108
469.5225, 23.16948
470.0046, 22.92187
470.4867, 22.69890
470.9688, 22.72601
471.4510, 22.86593
471.9331, 22.84929
472.4152, 22.52955
472.8973, 22.11726
473.3794, 22.05509
473.8615, 22.44900
474.3437, 22.73984
474.8258, 22.72393
475.3079, 22.65427
475.7900, 22.69853
476.2721, 22.84289
476.7542, 22.96036
477.2364, 22.94482
477.7185, 22.85349
478.2006, 22.79054
478.6827, 22.74214
479.1648, 22.82456
479.6469, 23.26243
480.1291, 23.79057
480.6112, 23.90162
481.0933, 23.41190
481.5754, 22.96227
482.0575, 22.96863
482.5396, 23.21387
483.0217, 23.25702
483.5038, 23.00175
483.9860, 22.74358
484.4681, 22.79219
484.9502, 23.16232
485.4323, 23.36421
485.9144, 23.31373
486.3965, 23.19618
486.8787, 22.93631
487.3608, 22.69242
487.8429, 22.83144
488.3250, 23.49902
488.8071, 24.31100
489.2892, 24.55600
489.7714, 23.92422
490.2535, 23.47807
490.7356, 23.24689
491.2177, 23.14072
491.6998, 23.22833
492.1819, 23.40459
492.6641, 23.40232
493.1462, 22.99312
493.6283, 22.42304
494.1104, 22.50542
494.5925, 23.57878
495.0746, 24.38300
495.5568, 24.41776
496.0389, 24.21696
496.5210, 24.13412
497.0031, 24.19530
497.4852, 24.21855
497.9673, 23.99968
498.4495, 23.65128
498.9316, 23.50023
499.4137, 23.58545
499.8958, 23.73606
500.3779, 23.85777
500.8600, 23.98355
501.3422, 24.19956
501.8243, 24.60582
502.3064, 24.89420
502.7885, 24.84122
503.2706, 24.58606
503.7527, 24.33184
504.2349, 24.12062
504.7170, 24.04917
505.1991, 24.24894
505.6812, 24.74240
506.1633, 25.08456
506.6454, 25.23207
507.1276, 25.29602
507.6097, 25.19168
508.0918, 25.06622
508.5739, 25.22107
509.0560, 25.75220
509.5381, 26.32441
510.0203, 26.34167
510.5024, 25.53470
510.9845, 25.09720
511.4666, 25.23009
511.9487, 25.53663
512.4308, 25.98596
512.9130, 26.48303
513.3951, 26.87804
513.8772, 27.08962
514.3593, 27.18007
514.8414, 27.23979
515.3235, 27.25840
515.8057, 27.33440
516.2878, 27.57017
516.7699, 27.78866
517.2520, 27.83245
517.7341, 27.71866
518.2162, 27.58107
518.6984, 27.40249
519.1805, 27.27184
519.6626, 27.35114
520.1447, 27.62485
520.6268, 27.84517
521.1089, 27.85013
521.5911, 27.78354
522.0732, 28.04536
522.5553, 28.86788
523.0374, 29.30153
523.5195, 28.81806
524.0016, 28.13882
524.4838, 27.90200
524.9659, 28.11573
525.4480, 28.43785
525.9301, 28.62736
526.4122, 28.71354
526.8943, 28.85493
527.3765, 29.13797
527.8586, 29.34904
528.3407, 29.36328
528.8228, 29.37709
529.3049, 29.62474
529.7870, 30.08086
530.2692, 30.44568
530.7513, 30.39295
531.2334, 30.01434
531.7155, 29.87126
532.1976, 30.05173
532.6797, 30.26440
533.1619, 30.43344
533.6440, 30.54953
534.1261, 30.55227
534.6082, 30.40519
535.0903, 30.36902
535.5724, 30.74232
536.0546, 31.32140
536.5367, 31.62136
537.0188, 31.56177
537.5009, 31.53066
537.9830, 31.84530
538.4651, 32.43059
538.9473, 32.84214
539.4294, 32.94143
539.9115, 33.05973
540.3936, 33.25248
540.8757, 33.53260
541.3578, 33.99250
541.8400, 34.61310
542.3221, 35.14934
542.8042, 35.30839
543.2863, 35.07974
543.7684, 35.13171
544.2505, 35.81316
544.7326, 36.36187
545.2147, 36.57747
545.6968, 36.61708
546.1790, 36.63531
546.6611, 36.67770
547.1432, 36.73626
547.6253, 36.76022
548.1074, 36.76645
548.5895, 36.96091
549.0717, 37.39840
549.5538, 37.92170
550.0359, 38.62969
550.5180, 39.31324
551.0001, 39.58397
551.4822, 39.19613
551.9644, 38.83651
552.4465, 39.00351
552.9286, 39.49128
553.4107, 39.88799
553.8928, 40.11352
554.3749, 40.26498
554.8571, 40.41052
555.3392, 40.55294
555.8213, 40.76854
556.3034, 41.14340
556.7855, 41.47509
557.2676, 41.74781
557.7498, 41.93373
558.2319, 41.96624
558.7140, 41.84756
559.1961, 41.68214
559.6782, 41.54364
560.1603, 41.42912
560.6425, 41.62755
561.1246, 42.42811
561.6067, 43.11807
562.0888, 43.41048
562.5709, 43.52358
563.0530, 43.71608
563.5352, 44.05178
564.0173, 44.37573
564.4994, 44.56591
564.9815, 44.63870
565.4636, 44.59235
565.9457, 44.37983
566.4279, 44.30137
566.9100, 44.60534
567.3921, 45.20287
567.8742, 45.75108
568.3563, 46.37716
568.8384, 46.74569
569.3206, 46.45913
569.8027, 45.99545
570.2848, 46.01708
570.7669, 46.57131
571.2490, 47.17055
571.7311, 47.40408
572.2133, 47.28871
572.6954, 46.99139
573.1775, 46.21681
573.6596, 45.66913
574.1417, 45.71669
574.6238, 45.82967
575.1060, 45.51402
575.5881, 44.73676
576.0702, 43.84919
576.5523, 43.07334
577.0344, 42.42541
577.5165, 42.02528
577.9987, 41.95231
578.4808, 41.77269
578.9629, 41.19347
579.4450, 40.48462
579.9271, 40.05035
580.4092, 39.93952
580.8914, 39.79670
581.3735, 39.41151
581.8556, 38.97470
582.3377, 38.70435
582.8198, 38.59682
583.3019, 38.54764
583.7841, 38.51917
584.2662, 38.45131
584.7483, 38.17136
585.2304, 37.45065
585.7125, 36.88963
586.1946, 36.54275
586.6768, 36.29373
587.1589, 36.09245
587.6410, 35.92634
588.1231, 35.79868
588.6052, 35.72127
589.0873, 35.65320
589.5695, 35.49747
590.0516, 35.23867
590.5337, 34.99468
591.0158, 34.73788
591.4979, 34.56479
591.9800, 34.63065
592.4622, 34.86131
592.9443, 34.94828
593.4264, 34.78615
593.9085, 34.45724
594.3906, 33.95282
594.8727, 33.33574
595.3549, 32.76870
595.8370, 32.30354
596.3191, 31.91026
596.8012, 31.53850
597.2833, 31.16570
597.7654, 30.98395
598.2476, 31.22303
598.7297, 31.35849
599.2118, 31.18054
599.6939, 30.82625
600.1760, 30.45775
600.6581, 30.12881
601.1403, 29.83570
601.6224, 29.55323
602.1045, 29.28467
602.5866, 29.15508
603.0687, 29.24057
603.5508, 29.29690
604.0330, 29.10565
604.5151, 28.85862
604.9972, 28.85633
605.4793, 29.20932
605.9614, 29.41707
606.4435, 29.12408
606.9257, 28.58853
607.4078, 28.12771
607.8899, 27.78136
608.3720, 27.54546
608.8541, 27.42586
609.3362, 27.40455
609.8184, 27.42678
610.3005, 27.57826
610.7826, 27.64239
611.2647, 27.61570
611.7468, 27.50902
612.2289, 27.24368
612.7111, 26.90365
613.1932, 26.70572
613.6753, 26.79885
614.1574, 27.01596
614.6395, 27.03455
615.1216, 26.83942
615.6038, 26.63602
616.0859, 26.41379
616.5680, 26.26126
617.0501, 26.25770
617.5322, 26.38159
618.0143, 26.58084
618.4965, 26.95944
618.9786, 27.28232
619.4607, 27.38560
619.9428, 27.33983
620.4249, 27.23291
620.9070, 27.09632
621.3892, 27.05081
621.8713, 27.26134
622.3534, 27.72074
622.8355, 27.83588
623.3176, 27.20349
623.7997, 26.73935
624.2819, 26.69822
624.7640, 26.80160
625.2461, 26.80817
625.7282, 26.68621
626.2103, 26.54063
626.6924, 26.41108
627.1745, 26.32995
627.6566, 26.42632
628.1387, 26.71892
628.6208, 26.92416
629.1030, 26.91412
629.5851, 26.79325
630.0672, 26.68546
630.5493, 26.58229
631.0314, 26.56841
631.5135, 26.77939
631.9957, 26.96578
632.4778, 26.95364
632.9599, 26.79929
633.4420, 26.61143
633.9241, 26.43571
634.4063, 26.30031
634.8884, 26.24422
635.3705, 26.26883
635.8526, 26.37486
636.3347, 26.73866
636.8168, 26.92788
637.2990, 26.68768
637.7811, 26.26181
638.2632, 25.92314
638.7453, 25.72759
639.2274, 25.62226
639.7095, 25.62200
640.1917, 25.67030
640.6738, 25.65845
641.1559, 25.58195
641.6380, 25.51417
642.1201, 25.50336
642.6022, 25.51119
643.0844, 25.45155
643.5665, 25.31429
644.0486, 25.12105
644.5307, 24.75317
645.0128, 24.44454
645.4949, 24.35668
645.9771, 24.42011
646.4592, 24.47318
646.9413, 24.44289
647.4234, 24.42054
647.9055, 24.62903
648.3876, 25.05725
648.8698, 25.08116
649.3519, 24.45452
649.8340, 23.87408
650.3161, 23.85095
650.7982, 24.14951
651.2803, 24.30662
651.7625, 24.26017
652.2446, 24.15266
652.7267, 23.98954
653.2088, 23.82438
653.6909, 23.72612
654.1730, 23.68936
654.6552, 23.69033
655.1373, 23.73217
655.6194, 23.25267
656.1015, 23.69926
656.5836, 23.90832
657.0657, 23.89263
657.5479, 22.97892
658.0300, 23.22478
658.5121, 23.81515
658.9942, 24.03937
659.4763, 23.82438
659.9584, 22.98369
660.4406, 22.22762
660.9227, 22.35366
661.4048, 23.04076
661.8869, 23.44348
662.3690, 23.43420
662.8511, 23.36508
663.3333, 23.51810
663.8154, 23.78701
664.2975, 23.72437
664.7796, 22.75030
665.2617, 22.26654
665.7438, 22.70080
666.2260, 23.28831
666.7081, 23.53272
667.1902, 23.48328
667.6723, 23.41240
668.1544, 23.46258
668.6365, 23.54909
669.1187, 23.56680
669.6008, 23.51324
670.0829, 23.28352
670.5650, 22.76580
671.0471, 22.33592
671.5292, 22.36283
672.0114, 22.70039
672.4935, 22.78371
672.9756, 22.28259
673.4577, 22.09024
673.9398, 22.82066
674.4219, 23.73796
674.9041, 24.14469
675.3862, 24.03049
675.8683, 23.71526
676.3504, 23.38177
676.8325, 23.04123
677.3146, 22.70082
677.7968, 22.33599
678.2789, 22.09924
678.7610, 22.09728
679.2431, 22.10954
679.7252, 21.92274
680.2073, 21.66838
680.6895, 21.63755
681.1716, 21.97440
681.6537, 22.32889
682.1358, 22.52344
682.6179, 22.60198
683.1000, 22.62548
683.5822, 22.60050
684.0643, 22.48823
684.5464, 22.24496
685.0285, 21.95453
685.5106, 21.87988
685.9927, 22.19229
686.4749, 22.31813
686.9570, 22.14163
687.4391, 21.86694
687.9212, 21.46397
688.4033, 21.05174
688.8854, 20.85100
689.3676, 20.96572
689.8497, 21.15428
690.3318, 21.22056
690.8139, 21.21140
691.2960, 21.18478
691.7781, 21.15458
692.2603, 21.30056
692.7424, 21.80801
693.2245, 22.42974
693.7066, 22.48985
694.1887, 21.49386
694.6708, 20.93218
695.1530, 21.14974
695.6351, 21.41439
696.1172, 21.27359
696.5993, 20.96316
697.0814, 20.98016
697.5635, 21.51420
698.0457, 22.08227
698.5278, 22.19448
699.0099, 21.94919
699.4920, 21.62251
699.9741, 21.22825
700.4562, 20.86740
700.9384, 20.55386
701.4205, 20.35760
701.9026, 20.46173
702.3847, 21.05227
702.8668, 21.44123
703.3489, 21.54893
703.8311, 21.52767
704.3132, 21.34298
704.7953, 21.11819
705.2774, 21.04117
705.7595, 21.16631
706.2416, 21.36113
706.7238, 21.53814
707.2059, 21.67128
707.6880, 21.59945
708.1701, 21.28611
708.6522, 21.02349
709.1343, 20.89647
709.6164, 20.92686
710.0985, 21.23326
710.5806, 21.89314
711.0627, 22.25245
711.5449, 22.06662
712.0270, 21.79103
712.5091, 21.58841
712.9912, 21.45366
713.4733, 21.36646
713.9554, 21.31924
714.4376, 21.30717
714.9197, 21.31376
715.4018, 21.35481
715.8839, 21.54912
716.3660, 21.94195
716.8481, 22.11902
717.3303, 21.81012
717.8124, 21.43049
718.2945, 21.56866
718.7766, 22.17001
719.2587, 22.40998
719.7408, 21.83239
720.2230, 21.33813
720.7051, 21.30012
721.1872, 21.52517
721.6693, 21.85802
722.1514, 22.22315
722.6335, 22.50497
723.1157, 22.61342
723.5978, 22.58168
724.0799, 22.46941
724.5620, 22.26229
725.0441, 22.10918
725.5262, 22.02076
726.0084, 22.02737
726.4905, 22.25873
726.9726, 22.61777
727.4547, 22.71139
727.9368, 22.28524
728.4189, 21.96067
728.9011, 22.01529
729.3832, 22.18437
729.8653, 22.19342
730.3474, 22.07609
730.8295, 22.03387
731.3116, 22.17749
731.7938, 22.45769
732.2759, 22.90119
732.7580, 23.51497
733.2401, 23.61938
733.7222, 22.91549
734.2043, 22.34887
734.6865, 22.56058
735.1686, 23.23756
735.6507, 23.70117
736.1328, 23.94220
736.6149, 24.00043
737.0970, 23.66028
737.5792, 23.34793
738.0613, 23.40381
738.5434, 23.70043
739.0255, 23.96849
739.5076, 24.11266
739.9897, 24.19522
740.4719, 24.32806
740.9540, 24.47882
741.4361, 24.35788
741.9182, 23.89046
742.4003, 23.54261
742.8824, 23.53832
743.3646, 23.67388
743.8467, 23.67233
744.3288, 23.53170
744.8109, 23.45827
745.2930, 23.40141
745.7751, 23.49319
746.2573, 24.03782
746.7394, 24.61936
747.2215, 24.65697
747.7036, 24.15039
748.1857, 23.62759
748.6678, 23.48265
749.1500, 23.58268
749.6321, 23.63666
750.1142, 23.64492
750.5963, 23.72299
751.0784, 23.91345
751.5605, 24.12894
752.0427, 24.37324
752.5248, 24.58909
753.0069, 24.46424
753.4890, 23.59515
753.9711, 23.04221
754.4532, 23.08763
754.9354, 23.35833
755.4175, 23.73228
755.8996, 24.08911
756.3817, 24.21653
756.8638, 24.01343
757.3459, 23.73161
757.8281, 23.72055
758.3102, 23.88401
758.7923, 23.80413
759.2744, 23.44021
759.7565, 23.16390
760.2386, 23.17033
760.7208, 23.33261
761.2029, 23.42623
761.6850, 23.40601
762.1671, 23.50746
762.6492, 23.83478
763.1313, 24.14882
763.6135, 24.43132
764.0956, 24.62817
764.5777, 24.63396
765.0598, 24.46676
765.5419, 24.34120
766.0240, 24.48382
766.5062, 24.66842
766.9883, 24.50787
767.4704, 24.09272
767.9525, 23.76975
768.4346, 23.61696
768.9167, 23.70626
769.3989, 24.17135
769.8810, 24.90078
770.3631, 25.16992
770.8452, 24.58412
771.3273, 24.25634
771.8094, 24.49884
772.2916, 24.77671
772.7737, 24.76481
773.2558, 24.58441
773.7379, 24.52317
774.2200, 24.68462
774.7021, 24.86748
775.1843, 24.99620
775.6664, 25.03497
776.1485, 24.88989
776.6306, 24.59833
777.1127, 24.27467
777.5948, 23.96324
778.0770, 23.81401
778.5591, 24.12814
779.0412, 24.94585
779.5233, 25.35422
780.0054, 25.17123
780.4875, 24.95939
780.9697, 24.88795
781.4518, 24.87680
781.9339, 24.82430
782.4160, 24.74116
782.8981, 24.76981
783.3802, 25.12094
783.8624, 25.38928
784.3445, 25.26922
784.8266, 25.00150
785.3087, 24.94378
785.7908, 25.08810
786.2729, 25.13338
786.7551, 24.87365
787.2372, 24.42652
787.7193, 23.95856
788.2014, 23.47445
788.6835, 23.27016
789.1656, 23.42579
789.6478, 23.71292
790.1299, 24.10478
790.6120, 24.46609
791.0941, 24.40059
791.5762, 23.63830
792.0583, 23.28052
792.5404, 23.75023
793.0225, 24.23812
793.5046, 24.38250
793.9868, 24.30885
794.4689, 24.19491
794.9510, 24.08726
795.4331, 23.96961
795.9152, 23.85955
796.3973, 23.71098
796.8795, 23.35408
797.3616, 22.86386
797.8437, 22.65992
798.3258, 22.85369
798.8079, 23.13934
799.2900, 23.25584
799.7722, 23.22809
800.2543, 23.19412
800.7364, 23.18015
801.2185, 23.10587
801.7006, 22.82042
802.1827, 22.61999
802.6649, 22.78242
803.1470, 23.08985
803.6291, 23.10901
804.1112, 22.69896
804.5933, 22.30435
805.0754, 22.16880
805.5576, 22.13923
806.0397, 22.01347
806.5218, 21.87153
807.0039, 22.00484
807.4860, 22.48525
807.9681, 22.92472
808.4503, 22.85977
808.9324, 22.39068
809.4145, 22.03605
809.8966, 21.79413
810.3787, 21.66694
810.8608, 21.64812
811.3430, 21.76515
811.8251, 22.16258
812.3072, 22.75370
812.7893, 22.95602
813.2714, 22.44035
813.7535, 22.03304
814.2357, 21.82529
814.7178, 21.78418
815.1999, 22.07361
815.6820, 22.47134
816.1641, 22.47454
816.6462, 21.89890
817.1284, 21.36886
817.6105, 21.62065
818.0926, 22.24267
818.5747, 22.39479
819.0568, 22.12438
819.5389, 21.93207
820.0211, 21.99921
820.5032, 22.08528
820.9853, 21.88896
821.4674, 21.44024
821.9495, 21.22025
822.4316, 21.34988
822.9138, 21.44132
823.3959, 21.40211
823.8780, 21.33154
824.3601, 21.25953
824.8422, 21.20966
825.3243, 21.25405
825.8065, 21.46048
826.2886, 21.62400
826.7707, 21.66185
827.2528, 21.62814
827.7349, 21.45287
828.2170, 21.26782
828.6992, 21.41454
829.1813, 21.98755
829.6634, 22.55799
830.1455, 22.59741
830.6276, 22.27978
831.1097, 22.21276
831.5919, 22.39174
832.0740, 22.55326
832.5561, 22.64524
833.0382, 22.59422
833.5203, 22.28130
834.0024, 21.76110
834.4846, 21.43782
834.9667, 21.36126
835.4488, 21.41086
835.9309, 21.82177
836.4130, 22.10108
836.8951, 21.83669
837.3773, 21.31396
837.8594, 21.10450
838.3415, 21.38218
838.8236, 21.53669
839.3057, 20.99822
839.7878, 20.40766
840.2700, 20.53487
840.7521, 21.06732
841.2342, 21.22893
841.7163, 20.85002
842.1984, 20.43170
842.6805, 20.45331
843.1627, 20.75433
843.6448, 20.85155
844.1269, 20.73941
844.6090, 20.61439
845.0911, 20.50068
845.5732, 20.40223
846.0554, 20.28266
846.5375, 20.20651
847.0196, 20.38439
847.5017, 21.04920
847.9838, 21.42941
848.4659, 21.41047
848.9481, 21.25222
849.4302, 20.89421
849.9123, 20.54215
850.3944, 20.45544
850.8765, 20.65100
851.3586, 20.89483
851.8408, 21.14436
852.3229, 21.32174
852.8050, 21.33187
853.2871, 21.23779
853.7692, 21.11734
854.2513, 21.00056
854.7335, 20.95100
855.2156, 21.01883
855.6977, 21.10861
856.1798, 21.00508
856.6619, 20.71792
857.1440, 20.55320
857.6262, 20.52707
858.1083, 20.63974
858.5904, 20.97117
859.0725, 21.31141
859.5546, 21.34446
860.0367, 21.03662
860.5189, 20.81667
861.0010, 20.67224
861.4831, 20.62947
861.9652, 20.90625
862.4473, 21.10188
862.9294, 20.77463
863.4116, 20.11904
863.8937, 19.72314
864.3758, 19.80450
864.8579, 20.02912
865.3400, 20.32603
865.8221, 20.55496
866.3043, 20.47420
866.7864, 20.19338
867.2685, 20.05445
867.7506, 20.15726
868.2327, 20.22939
868.7148, 19.92296
869.1970, 19.40567
869.6791, 19.29833
870.1612, 19.60155
870.6433, 19.76692
871.1254, 19.64955
871.6075, 19.53933
872.0897, 19.69991
872.5718, 19.99792
873.0539, 19.97980
873.5360, 19.39918
874.0181, 19.06795
874.5002, 19.11498
874.9823, 19.27164
875.4644, 19.65363
875.9465, 19.97989
876.4286, 19.84042
876.9108, 19.23731
877.3929, 18.78068
877.8750, 18.79265
878.3571, 18.87139
878.8392, 18.76150
879.3214, 18.61650
879.8035, 18.67020
880.2856, 18.87539
880.7677, 18.97173
881.2498, 18.81867
881.7319, 18.63404
882.2141, 18.71927
882.6962, 18.98655
883.1783, 19.21227
883.6604, 19.37687
884.1425, 19.34244
884.6246, 19.03952
885.1068, 18.73137
885.5889, 18.72802
886.0710, 18.97794
886.5531, 19.06881
887.0352, 18.94296
887.5173, 18.82747
887.9995, 18.77719
888.4816, 18.70313
888.9637, 18.42721
889.4458, 18.12750
889.9279, 18.23751
890.4100, 18.94994
890.8922, 19.30317
891.3743, 18.84074
891.8564, 18.36573
892.3385, 18.22405
892.8206, 18.27644
893.3027, 18.39968
893.7849, 18.54477
894.2670, 18.64404
894.7491, 18.69680
895.2312, 18.61988
895.7133, 18.18751
896.1954, 17.65021
896.6776, 17.48970
897.1597, 17.64552
897.6418, 17.67643
898.1239, 17.39612
898.6060, 17.05481
899.0881, 16.97262
899.5703, 17.10012
900.0524, 17.16082
900.5345, 17.14693
901.0166, 17.22796
901.4987, 17.45941
901.9808, 17.74599
902.4630, 18.05570
902.9451, 18.32902
903.4272, 18.33545
903.9093, 17.86706
904.3914, 17.61675
904.8735, 17.77585
905.3557, 17.91563
905.8378, 17.88275
906.3199, 17.75949
906.8020, 17.60620
907.2841, 17.43451
907.7662, 17.32318
908.2484, 17.25319
908.7305, 17.29574
909.2126, 17.64269
909.6947, 17.98432
910.1768, 18.01899
910.6589, 17.80072
911.1411, 17.47386
911.6232, 17.08557
912.1053, 16.87065
912.5874, 17.22733
913.0695, 17.75978
913.5516, 17.75761
914.0338, 17.40270
914.5159, 17.31398
914.9980, 17.62217
915.4801, 18.03739
915.9622, 18.36676
916.4443, 18.54330
916.9265, 18.37052
917.4086, 17.84873
917.8907, 17.23023
918.3728, 16.45237
918.8549, 16.07939
919.3370, 16.50538
919.8192, 17.14584
920.3013, 17.14847
920.7834, 16.48908
921.2655, 16.20281
921.7476, 16.58882
922.2297, 16.83038
922.7119, 16.65240
923.1940, 16.46246
923.6761, 16.57792
924.1582, 16.82626
924.6403, 16.82555
925.1224, 16.47632
925.6046, 16.16429
926.0867, 15.85752
926.5688, 15.75499
927.0509, 16.11301
927.5330, 16.63802
928.0151, 17.04601
928.4973, 17.27546
928.9794, 17.30795
929.4615, 17.07321
929.9436, 16.81197
930.4257, 16.74627
930.9078, 16.77682
931.3900, 16.75710
931.8721, 16.69609
932.3542, 16.66849
932.8363, 16.69733
933.3184, 16.73195
933.8005, 16.71361
934.2827, 16.67353
934.7648, 16.74712
935.2469, 16.90584
935.7290, 16.76915
936.2111, 16.25253
936.6932, 16.06032
937.1754, 16.69158
937.6575, 17.59650
938.1396, 17.71318
938.6217, 16.95550
939.1038, 16.49672
939.5859, 16.41210
940.0681, 16.42826
940.5502, 16.52629
941.0323, 16.63794
941.5144, 16.73338
941.9965, 16.79597
942.4786, 16.73727
942.9608, 16.38449
943.4429, 16.27192
943.9250, 16.62022
944.4071, 16.97729
944.8892, 17.26346
945.3713, 17.39634
945.8535, 17.20897
946.3356, 16.74426
946.8177, 16.37204
947.2998, 16.17010
947.7819, 16.14460
948.2640, 16.51024
948.7462, 16.87758
949.2283, 16.78948
949.7104, 16.43296
950.1925, 16.25965
950.6746, 16.39817
951.1567, 16.61229
951.6389, 16.78717
952.1210, 16.87763
952.6031, 16.72825
953.0852, 16.47917
953.5673, 16.49685
954.0494, 16.77187
954.5316, 16.97707
955.0137, 16.93943
955.4958, 16.14910
955.9779, 16.70407
956.4600, 17.02150
956.9421, 17.11417
957.4242, 16.30886
957.9063, 16.66310
958.3884, 16.55264
958.8705, 16.42313
959.3527, 16.94057
959.8348, 16.26587
960.3169, 16.77305
960.7990, 16.80844
961.2811, 17.05976
961.7632, 17.03887
962.2454, 17.07566
962.7275, 16.88128
963.2096, 16.65279
963.6917, 16.64058
964.1738, 16.81298
964.6559, 16.81045
965.1381, 16.43597
965.6202, 16.20634
966.1023, 16.26927
966.5844, 16.32518
967.0665, 16.09784
967.5486, 15.86829
968.0308, 16.13358
968.5129, 16.91121
968.9950, 17.34375
969.4771, 16.91458
969.9592, 16.56375
970.4413, 16.82122
970.9235, 17.08778
971.4056, 16.67653
971.8877, 15.95318
972.3698, 15.79949
972.8519, 16.45326
973.3340, 17.00759
973.8162, 16.81412
974.2983, 16.45599
974.7804, 16.45973
975.2625, 16.57101
975.7446, 15.71865
976.2267, 16.36595
976.7089, 16.77575
977.1910, 16.96075
977.6731, 16.24778
978.1552, 16.69436
978.6373, 16.67625
979.1194, 16.78634
979.6016, 15.83048
980.0837, 15.56276
980.5658, 16.21394
981.0479, 16.90903
981.5300, 17.05722
982.0121, 16.90020
982.4943, 16.79263
982.9764, 16.74737
983.4585, 16.90713
983.9406, 17.26197
984.4227, 17.42164
984.9048, 17.25305
985.3870, 16.98660
985.8691, 16.82570
986.3512, 16.74170
986.8333, 16.60688
987.3154, 16.38690
987.7975, 16.43533
988.2797, 16.83220
988.7618, 17.25467
989.2439, 17.58820
989.7260, 17.87544
990.2081, 18.19868
990.6902, 18.52780
991.1724, 18.56202
991.6545, 18.10826
992.1366, 17.81349
992.6187, 17.82157
993.1008, 17.83167
993.5829, 17.61563
994.0651, 17.38781
994.5472, 17.47451
995.0293, 17.88102
995.5114, 18.25729
995.9935, 18.81398
996.4756, 19.02718
996.9578, 18.33272
997.4399, 17.80046
997.9220, 18.29462
998.4041, 19.21906
998.8862, 19.60760
999.3683, 19.34350
999.8505, 19.02205
1000.333, 18.66640
1000.815, 18.43954
1001.297, 18.43859
1001.779, 18.56065
1002.261, 18.85044
1002.743, 19.15689
1003.225, 19.16996
1003.707, 18.81013
1004.190, 18.45455
1004.672, 18.24872
1005.154, 18.15754
1005.636, 18.24494
1006.118, 18.37151
1006.600, 18.33877
1007.082, 18.19691
1007.564, 18.15847
1008.046, 18.30273
1008.529, 18.41684
1009.011, 18.26446
1009.493, 18.05872
1009.975, 18.09076
1010.457, 18.21584
1010.939, 18.13233
1011.421, 17.85934
1011.903, 17.65083
1012.385, 17.63114
1012.868, 17.70795
1013.350, 17.78338
1013.832, 17.88577
1014.314, 18.13272
1014.796, 18.44512
1015.278, 18.57015
1015.760, 18.48264
1016.242, 18.33972
1016.725, 18.22982
1017.207, 18.16375
1017.689, 18.18594
1018.171, 18.26147
1018.653, 18.27958
1019.135, 18.23588
1019.617, 18.09446
1020.099, 17.85091
1020.581, 17.57391
1021.064, 17.29803
1021.546, 17.08598
1022.028, 17.05923
1022.510, 17.20941
1022.992, 17.49914
1023.474, 17.93450
1023.956, 18.13758
1024.438, 17.99453
1024.921, 17.78699
1025.403, 17.72408
1025.885, 17.74586
1026.367, 17.71673
1026.849, 17.63508
1027.331, 17.53091
1027.813, 17.40493
1028.295, 17.20272
1028.777, 16.82225
1029.260, 16.70111
1029.742, 17.30162
1030.224, 18.27843
1030.706, 18.60223
1031.188, 18.11099
1031.670, 17.86574
1032.152, 17.99343
1032.634, 17.99350
1033.116, 17.70773
1033.599, 17.26887
1034.081, 16.67183
1034.563, 16.07524
1035.045, 16.02439
1035.527, 16.78381
1036.009, 17.16312
1036.491, 16.31157
1036.973, 16.75263
1037.456, 16.95595
1037.938, 16.93472
1038.420, 16.01549
1038.902, 16.25583
1039.384, 16.03145
1039.866, 15.78804
1040.348, 16.85015
1040.830, 16.67137
1041.313, 16.49000
1041.795, 16.52958
1042.277, 16.59705
1042.759, 16.53021
1043.241, 16.36678
1043.723, 16.21743
1044.205, 16.05901
1044.687, 15.98313
1045.169, 16.03057
1045.651, 16.11190
1046.134, 16.27211
1046.616, 16.39531
1047.098, 16.35539
1047.580, 16.20414
1048.062, 16.10057
1048.544, 16.07544
1049.026, 16.03669
1049.508, 15.91562
1049.991, 15.85314
1050.473, 16.06240
1050.955, 16.20349
1051.437, 15.83787
1051.919, 15.19498
1052.401, 14.92228
1052.883, 15.17879
1053.365, 15.49731
1053.848, 15.99002
1054.330, 16.26046
1054.812, 15.95215
1055.294, 15.53737
1055.776, 15.39676
1056.258, 15.48734
1056.740, 15.67287
1057.222, 15.96858
1057.704, 16.09155
1058.187, 15.87944
1058.669, 15.58444
1059.151, 15.25261
1059.633, 14.93649
1060.115, 14.50367
1060.597, 14.16400
1061.079, 14.49005
1061.561, 15.67835
1062.043, 16.51877
1062.526, 16.44796
1063.008, 16.13748
1063.490, 15.58771
1063.972, 15.19660
1064.454, 15.50936
1064.936, 16.18372
1065.418, 16.47508
1065.900, 16.22780
1066.383, 15.91994
1066.865, 15.65718
1067.347, 15.47767
1067.829, 15.53077
1068.311, 15.55512
1068.793, 15.14611
1069.275, 14.60640
1069.757, 14.59600
1070.240, 15.21494
1070.722, 15.71826
1071.204, 15.73454
1071.686, 15.64889
1072.168, 15.64901
1072.650, 15.61437
1073.132, 15.33619
1073.614, 14.99841
1074.096, 14.97492
1074.578, 15.28892
1075.061, 15.50015
1075.543, 15.35712
1076.025, 15.18954
1076.507, 15.17077
1076.989, 15.17504
1077.471, 15.07153
1077.953, 14.93968
1078.435, 14.89977
1078.918, 14.96953
1079.400, 15.12356
1079.882, 15.42348
1080.364, 15.65530
1080.846, 15.61420
1081.328, 15.57679
1081.810, 15.75321
1082.292, 16.05459
1082.774, 16.45587
1083.257, 16.86358
1083.739, 16.94382
1084.221, 16.47834
1084.703, 16.00080
1085.185, 15.74149
1085.667, 15.56726
1086.149, 15.32235
1086.631, 15.16155
1087.114, 15.29639
1087.596, 15.68883
1088.078, 16.20765
1088.560, 16.91438
1089.042, 17.25116
1089.524, 16.59858
1090.006, 15.97771
1090.488, 16.09610
1090.970, 16.43322
1091.453, 16.46777
1091.935, 16.24886
1092.417, 15.98498
1092.899, 15.69575
1093.381, 15.67163
1093.863, 16.31737
1094.345, 16.86891
1094.827, 16.89399
1095.309, 16.74657
1095.792, 16.73165
1096.274, 16.77933
1096.756, 16.71253
1097.238, 16.50036
1097.720, 16.21193
1098.202, 15.64248
1098.684, 15.31474
1099.166, 15.63639
1099.649, 16.01850
1100.131, 16.03768
1100.613, 15.85867
1101.095, 15.76302
1101.577, 15.77211
1102.059, 15.72947
1102.541, 15.62304
1103.023, 15.42087
1103.505, 14.92925
1103.988, 14.55234
1104.470, 14.59776
1104.952, 14.81291
1105.434, 14.90842
1105.916, 14.89086
1106.398, 14.92423
1106.880, 15.14303
1107.362, 15.14856
1107.844, 14.53456
1108.327, 14.13712
1108.809, 14.40492
1109.291, 14.90335
1109.773, 15.39817
1110.255, 15.78365
1110.737, 15.74948
1111.219, 15.10684
1111.701, 14.69995
1112.184, 14.81363
1112.666, 14.85469
1113.148, 14.48897
1113.630, 14.21946
1114.112, 14.54473
1114.594, 15.12395
1115.076, 15.30358
1115.558, 15.03727
1116.041, 14.83227
1116.523, 14.75553
1117.005, 14.62014
1117.487, 14.25725
1117.969, 14.05267
1118.451, 14.32148
1118.933, 14.72188
1119.415, 14.79612
1119.897, 14.57921
1120.380, 14.46391
1120.862, 14.47986
1121.344, 14.52611
1121.826, 14.60044
1122.308, 14.71468
1122.790, 14.93923
1123.272, 15.07901
1123.754, 14.88372
1124.236, 14.50122
1124.719, 14.45544
1125.201, 14.82728
1125.683, 15.12803
1126.165, 15.38296
1126.647, 15.45156
1127.129, 15.25842
1127.611, 15.00481
1128.093, 14.80416
1128.576, 14.68504
1129.058, 14.70895
1129.540, 14.87073
1130.022, 15.14480
1130.504, 15.57608
1130.986, 15.44992
1131.468, 14.58378
1131.950, 13.98341
1132.432, 14.16042
1132.915, 14.64259
1133.397, 14.89199
1133.879, 14.93620
1134.361, 14.75899
1134.843, 14.40975
1135.325, 14.65122
1135.807, 15.48190
1136.289, 15.84055
1136.771, 15.39243
1137.254, 14.72928
1137.736, 14.29623
1138.218, 14.08660
1138.700, 14.16208
1139.182, 14.43615
1139.664, 14.59203
1140.146, 14.67324
1140.628, 15.01340
1141.111, 15.58817
1141.593, 15.75265
1142.075, 15.15905
1142.557, 14.48438
1143.039, 14.65642
1143.521, 14.52066
1144.003, 15.02271
1144.485, 15.29251
1144.968, 15.34247
1145.450, 14.51449
1145.932, 14.82027
1146.414, 14.67170
1146.896, 14.50448
1147.378, 14.72472
1147.860, 14.33292
1148.342, 14.65743
1148.824, 15.14141
1149.307, 15.01544
1149.789, 14.61107
1150.271, 14.67944
1150.753, 15.19326
1151.235, 15.42894
1151.717, 15.02991
1152.199, 14.62336
1152.681, 14.59533
1153.163, 14.64533
1153.646, 14.54695
1154.128, 14.44773
1154.610, 14.48813
1155.092, 14.66757
1155.574, 15.01798
1156.056, 15.55602
1156.538, 15.83690
1157.020, 15.39718
1157.503, 15.16627
1157.985, 15.67711
1158.467, 16.17802
1158.949, 16.23518
1159.431, 16.00963
1159.913, 15.63062
1160.395, 15.14965
1160.877, 14.90915
1161.359, 15.17339
1161.842, 15.17360
1162.324, 14.49936
1162.806, 14.18791
1163.288, 14.77933
1163.770, 15.47935
1164.252, 15.70429
1164.734, 15.62061
1165.216, 15.61376
1165.698, 15.71144
1166.181, 15.44231
1166.663, 14.57498
1167.145, 14.25760
1167.627, 14.79019
1168.109, 15.35832
1168.591, 15.57957
1169.073, 15.67230
1169.555, 15.91289
1170.037, 16.20495
1170.520, 16.10394
1171.002, 15.62729
1171.484, 15.54378
1171.966, 15.87384
1172.448, 15.97324
1172.930, 15.67848
1173.412, 15.60767
1173.894, 16.20458
1174.377, 16.96650
1174.859, 17.11415
1175.341, 16.85431
1175.823, 16.74315
1176.305, 16.71967
1176.787, 16.59916
1177.269, 16.37389
1177.751, 16.06410
1178.234, 15.70763
1178.716, 15.60197
1179.198, 16.07151
1179.680, 16.68321
1180.162, 17.09550
1180.644, 17.26465
1181.126, 17.02577
1181.608, 16.55890
1182.090, 16.10089
1182.573, 15.73893
1183.055, 15.57356
1183.537, 15.65700
1184.019, 15.83759
1184.501, 16.09662
1184.983, 16.35474
1185.465, 16.69255
1185.947, 16.89244
1186.429, 16.48710
1186.912, 15.93794
1187.394, 16.28923
1187.876, 17.57173
1188.358, 18.11221
1188.840, 16.82253
1189.322, 16.09245
1189.804, 16.70310
1190.286, 17.19727
1190.769, 16.98351
1191.251, 16.54818
1191.733, 16.20427
1192.215, 15.99951
1192.697, 16.12437
1193.179, 16.67383
1193.661, 16.65649
1194.143, 15.80451
1194.625, 15.42978
1195.108, 15.81956
1195.590, 16.34408
1196.072, 16.75905
1196.554, 16.93005
1197.036, 16.67367
1197.518, 16.10709
1198.000, 15.45166
1198.482, 14.77792
1198.964, 14.85167
1199.447, 15.58804
1199.929, 16.02589
1200.411, 15.95976
1200.893, 15.74208
1201.375, 15.57331
1201.857, 15.40134
1202.339, 15.12123
1202.821, 14.83695
1203.304, 14.69072
1203.786, 14.67717
1204.268, 14.88718
1204.750, 15.19659
1205.232, 15.27792
1205.714, 15.08879
1206.196, 14.90086
1206.678, 14.81822
1207.161, 14.87375
1207.643, 15.27264
1208.125, 15.60610
1208.607, 15.44387
1209.089, 15.19125
1209.571, 15.45710
1210.053, 15.94203
1210.535, 15.75513
1211.017, 14.71675
1211.500, 14.13814
1211.982, 14.48686
1212.464, 14.87648
1212.946, 15.41468
1213.428, 15.66812
1213.910, 15.26799
1214.392, 14.76096
1214.874, 14.66444
1215.356, 14.86945
1215.839, 15.06357
1216.321, 15.25811
1216.803, 15.31040
1217.285, 15.18993
1217.767, 15.12262
1218.249, 15.14280
1218.731, 15.27574
1219.213, 15.54723
1219.696, 15.80040
1220.178, 15.86317
1220.660, 15.78298
1221.142, 15.64305
1221.624, 15.45873
1222.106, 15.22869
1222.588, 15.00674
1223.070, 15.03430
1223.552, 15.28643
1224.035, 15.41898
1224.517, 15.27099
1224.999, 15.00863
1225.481, 14.60305
1225.963, 14.33790
1226.445, 14.66020
1226.927, 15.09226
1227.409, 15.10772
1227.891, 14.87143
1228.374, 14.67158
1228.856, 14.56425
1229.338, 14.55713
1229.820, 14.71184
1230.302, 14.76782
1230.784, 14.52415
1231.266, 14.36888
1231.748, 14.57870
1232.231, 14.73495
1232.713, 14.42809
1233.195, 14.04653
1233.677, 14.20309
1234.159, 14.81534
1234.641, 15.13227
1235.123, 15.08518
1235.605, 15.07281
1236.088, 15.11620
1236.570, 15.14809
1237.052, 15.15570
1237.534, 15.09632
1238.016, 14.93529
1238.498, 14.74251
1238.980, 14.57741
1239.462, 14.49581
1239.944, 14.76532
1240.427, 15.21288
1240.909, 15.30295
1241.391, 15.08663
1241.873, 14.84274
1242.355, 14.66501
1242.837, 14.62451
1243.319, 14.78975
1243.801, 14.87337
1244.283, 14.50485
1244.766, 14.15175
1245.248, 14.24206
1245.730, 14.45909
1246.212, 14.50200
1246.694, 14.42569
1247.176, 14.32232
1247.658, 14.22472
1248.140, 14.28925
1248.622, 14.65315
1249.105, 14.93899
1249.587, 15.19414
1250.069, 15.24082
1250.551, 14.87880
1251.033, 14.59054
1251.515, 14.73738
1251.997, 15.01987
1252.479, 14.98881
1252.962, 14.69258
1253.444, 14.32369
1253.926, 13.89000
1254.408, 13.96675
1254.890, 14.54078
1255.372, 14.96677
1255.854, 15.08047
1256.336, 14.94216
1256.818, 14.57690
1257.301, 14.30773
1257.783, 14.66780
1258.265, 15.12085
1258.747, 14.74223
1259.229, 14.14302
1259.711, 14.24577
1260.193, 14.76031
1260.675, 15.07825
1261.157, 15.10255
1261.640, 14.95952
1262.122, 14.63830
1262.604, 14.39918
1263.086, 14.24423
1263.568, 14.29553
1264.050, 14.86716
1264.532, 15.33907
1265.014, 15.27801
1265.497, 14.99114
1265.979, 14.78309
1266.461, 14.66168
1266.943, 14.67227
1267.425, 14.83130
1267.907, 15.03487
1268.389, 15.30623
1268.871, 15.33409
1269.354, 15.06008
1269.836, 14.74072
1270.318, 14.48973
1270.800, 14.34114
1271.282, 14.32259
1271.764, 14.43784
1272.246, 14.82038
1272.728, 15.25401
1273.210, 15.32543
1273.693, 15.17217
1274.175, 15.03432
1274.657, 14.95586
1275.139, 14.94052
1275.621, 14.98391
1276.103, 14.98744
1276.585, 14.81161
1277.067, 14.75275
1277.549, 15.08047
1278.032, 15.33041
1278.514, 15.06392
1278.996, 14.84053
1279.478, 15.30399
1279.960, 16.02707
1280.442, 16.13587
1280.924, 15.65575
1281.406, 15.41110
1281.889, 15.42756
1282.371, 15.53870
1282.853, 15.74756
1283.335, 15.70230
1283.817, 15.30686
1284.299, 14.94325
1284.781, 14.85476
1285.263, 14.93326
1285.745, 15.06765
1286.228, 15.25813
##END=



