##NAMES=Proto-ferro-anthophyllite
##RRUFFID=R060053
##IDEAL CHEMISTRY=Fe^2+^_7_Si_8_O_22_(OH)_2_
##LOCALITY=Nyppio mine, near Utsonomiya, Japan
##OWNER=RRUFF
##SOURCE=Marcus Origlieri
##DESCRIPTION=Sprays of green prismatic crystals
##STATUS=The identification of this mineral has been confirmed by X-ray diffraction and chemical analysis
##URL=rruff.info/R060053
##MEASURED CHEMISTRY=(Fe^2+^_0.51_Mn_0.27_Mg_0.22_)_7_Si_8_O_22_(OH)_2_
137.2198, 1050.350
137.7019, 1057.158
138.1840, 1069.783
138.6662, 1091.999
139.1483, 1124.991
139.6304, 1164.543
140.1125, 1202.288
140.5946, 1233.169
141.0767, 1268.583
141.5589, 1308.549
142.0410, 1353.414
142.5231, 1403.880
143.0052, 1460.123
143.4873, 1521.781
143.9694, 1587.531
144.4516, 1656.140
144.9337, 1731.057
145.4158, 1818.527
145.8979, 1911.371
146.3800, 2000.465
146.8621, 2082.738
147.3443, 2157.552
147.8264, 2222.119
148.3085, 2277.809
148.7906, 2324.371
149.2727, 2363.088
149.7548, 2392.345
150.2370, 2409.292
150.7191, 2412.802
151.2012, 2402.489
151.6833, 2374.622
152.1654, 2320.721
152.6475, 2271.898
153.1297, 2244.306
153.6118, 2231.244
154.0939, 2213.510
154.5760, 2181.457
155.0581, 2144.361
155.5402, 2119.019
156.0224, 2104.033
156.5045, 2101.331
156.9866, 2112.747
157.4687, 2137.457
157.9508, 2173.527
158.4329, 2223.261
158.9151, 2281.811
159.3972, 2340.578
159.8793, 2399.616
160.3614, 2458.580
160.8435, 2517.222
161.3256, 2575.577
161.8078, 2632.652
162.2899, 2680.830
162.7720, 2734.855
163.2541, 2812.565
163.7362, 2918.332
164.2183, 3029.703
164.7004, 3132.425
165.1826, 3226.615
165.6647, 3316.070
166.1468, 3395.286
166.6289, 3476.918
167.1110, 3574.511
167.5931, 3690.747
168.0753, 3810.879
168.5574, 3919.025
169.0395, 4015.602
169.5216, 4124.090
170.0037, 4262.474
170.4858, 4405.979
170.9680, 4535.238
171.4501, 4648.720
171.9322, 4754.788
172.4143, 4865.530
172.8964, 4982.520
173.3785, 5077.896
173.8607, 5139.050
174.3428, 5179.492
174.8249, 5207.577
175.3070, 5224.000
175.7891, 5225.824
176.2712, 5208.149
176.7534, 5169.905
177.2355, 5123.512
177.7176, 5064.963
178.1997, 5002.205
178.6818, 4939.702
179.1639, 4877.958
179.6461, 4813.608
180.1282, 4742.584
180.6103, 4663.706
181.0924, 4587.387
181.5745, 4518.127
182.0566, 4449.296
182.5388, 4377.448
183.0209, 4302.581
183.5030, 4226.577
183.9851, 4151.940
184.4672, 4079.225
184.9493, 4003.451
185.4315, 3905.970
185.9136, 3819.593
186.3957, 3767.392
186.8778, 3744.753
187.3599, 3723.799
187.8420, 3673.092
188.3242, 3585.085
188.8063, 3515.510
189.2884, 3479.015
189.7705, 3449.746
190.2526, 3423.970
190.7347, 3397.963
191.2169, 3364.384
191.6990, 3311.407
192.1811, 3235.167
192.6632, 3179.868
193.1453, 3158.431
193.6274, 3148.275
194.1096, 3147.427
194.5917, 3152.438
195.0738, 3157.234
195.5559, 3156.162
196.0380, 3148.794
196.5201, 3144.575
197.0022, 3148.357
197.4844, 3150.925
197.9665, 3152.742
198.4486, 3151.343
198.9307, 3140.765
199.4128, 3112.867
199.8949, 3068.639
200.3771, 3046.355
200.8592, 3074.293
201.3413, 3098.502
201.8234, 3102.891
202.3055, 3094.127
202.7876, 3086.708
203.2698, 3091.232
203.7519, 3105.865
204.2340, 3112.882
204.7161, 3105.487
205.1982, 3096.880
205.6803, 3091.392
206.1625, 3086.118
206.6446, 3074.896
207.1267, 3053.019
207.6088, 3024.206
208.0909, 3007.875
208.5730, 3008.400
209.0552, 3018.208
209.5373, 3048.647
210.0194, 3083.941
210.5015, 3101.587
210.9836, 3089.451
211.4657, 3058.544
211.9479, 3046.884
212.4300, 3080.713
212.9121, 3098.429
213.3942, 3078.361
213.8763, 3045.934
214.3584, 3029.373
214.8406, 3040.205
215.3227, 3067.205
215.8048, 3083.682
216.2869, 3082.640
216.7690, 3081.296
217.2511, 3085.267
217.7333, 3087.239
218.2154, 3078.256
218.6975, 3056.215
219.1796, 3029.765
219.6617, 3014.953
220.1438, 3021.602
220.6260, 3021.335
221.1081, 3017.095
221.5902, 3004.605
222.0723, 2978.981
222.5544, 2940.021
223.0365, 2893.581
223.5187, 2844.611
224.0008, 2786.170
224.4829, 2745.406
224.9650, 2736.418
225.4471, 2731.010
225.9292, 2713.086
226.4113, 2681.783
226.8935, 2646.945
227.3756, 2620.273
227.8577, 2605.476
228.3398, 2579.787
228.8219, 2529.211
229.3040, 2481.161
229.7862, 2447.085
230.2683, 2426.119
230.7504, 2411.748
231.2325, 2399.026
231.7146, 2388.067
232.1967, 2376.700
232.6789, 2371.967
233.1610, 2359.658
233.6431, 2325.844
234.1252, 2281.501
234.6073, 2248.868
235.0894, 2245.443
235.5716, 2266.300
236.0537, 2270.419
236.5358, 2239.527
237.0179, 2211.774
237.5000, 2197.366
237.9821, 2190.121
238.4643, 2180.943
238.9464, 2164.930
239.4285, 2144.458
239.9106, 2128.054
240.3927, 2118.886
240.8748, 2109.152
241.3570, 2093.943
241.8391, 2079.220
242.3212, 2072.553
242.8033, 2076.823
243.2854, 2085.615
243.7675, 2085.639
244.2497, 2070.896
244.7318, 2060.442
245.2139, 2063.628
245.6960, 2066.594
246.1781, 2055.950
246.6602, 2029.998
247.1424, 2002.073
247.6245, 1991.168
248.1066, 2003.248
248.5887, 2010.909
249.0708, 2006.792
249.5529, 2002.520
250.0351, 2006.356
250.5172, 2017.173
250.9993, 2025.787
251.4814, 2021.747
251.9635, 2003.912
252.4456, 1989.629
252.9278, 1981.380
253.4099, 1974.583
253.8920, 1966.895
254.3741, 1959.096
254.8562, 1953.796
255.3383, 1955.145
255.8205, 1960.946
256.3026, 1955.889
256.7847, 1931.005
257.2668, 1908.191
257.7489, 1898.231
258.2310, 1894.748
258.7132, 1887.400
259.1953, 1869.080
259.6774, 1846.748
260.1595, 1838.886
260.6416, 1853.840
261.1237, 1862.098
261.6059, 1844.966
262.0880, 1820.490
262.5701, 1807.021
263.0522, 1811.139
263.5343, 1821.863
264.0164, 1824.197
264.4986, 1816.525
264.9807, 1811.697
265.4628, 1822.961
265.9449, 1831.332
266.4270, 1817.112
266.9091, 1777.634
267.3913, 1739.758
267.8734, 1731.317
268.3555, 1749.247
268.8376, 1758.280
269.3197, 1748.239
269.8018, 1732.896
270.2840, 1724.179
270.7661, 1721.082
271.2482, 1716.527
271.7303, 1701.444
272.2124, 1682.030
272.6945, 1678.500
273.1766, 1699.065
273.6588, 1718.684
274.1409, 1712.189
274.6230, 1690.387
275.1051, 1677.599
275.5872, 1690.387
276.0693, 1711.765
276.5515, 1720.111
277.0336, 1714.863
277.5157, 1702.758
277.9978, 1679.635
278.4799, 1654.758
278.9620, 1647.361
279.4442, 1667.058
279.9263, 1693.373
280.4084, 1715.570
280.8905, 1732.824
281.3726, 1739.768
281.8547, 1730.312
282.3369, 1713.724
282.8190, 1708.746
283.3011, 1719.504
283.7832, 1726.463
284.2653, 1717.401
284.7474, 1700.212
285.2296, 1690.040
285.7117, 1691.389
286.1938, 1696.922
286.6759, 1695.956
287.1580, 1686.889
287.6401, 1685.639
288.1223, 1700.877
288.6044, 1720.830
289.0865, 1734.041
289.5686, 1739.576
290.0507, 1744.698
290.5328, 1757.128
291.0150, 1776.746
291.4971, 1784.006
291.9792, 1763.328
292.4613, 1746.318
292.9434, 1753.465
293.4255, 1777.677
293.9077, 1797.410
294.3898, 1799.344
294.8719, 1788.990
295.3540, 1790.577
295.8361, 1816.943
296.3182, 1838.752
296.8004, 1849.597
297.2825, 1854.347
297.7646, 1859.630
298.2467, 1867.649
298.7288, 1875.017
299.2109, 1874.939
299.6931, 1857.580
300.1752, 1852.417
300.6573, 1867.847
301.1394, 1887.845
301.6215, 1903.222
302.1036, 1912.183
302.5858, 1915.916
303.0679, 1914.082
303.5500, 1904.934
304.0321, 1905.877
304.5142, 1931.672
304.9963, 1952.698
305.4785, 1956.462
305.9606, 1948.661
306.4427, 1940.544
306.9248, 1938.371
307.4069, 1942.160
307.8890, 1953.236
308.3712, 1981.284
308.8533, 2000.263
309.3354, 1998.095
309.8175, 1989.026
310.2996, 1987.570
310.7817, 1998.533
311.2639, 2014.637
311.7460, 2027.007
312.2281, 2036.121
312.7102, 2038.986
313.1923, 2028.783
313.6744, 2016.820
314.1566, 2010.866
314.6387, 2010.450
315.1208, 2007.939
315.6029, 1996.230
316.0850, 1976.926
316.5671, 1958.584
317.0493, 1940.113
317.5314, 1925.287
318.0135, 1918.821
318.4956, 1917.216
318.9777, 1913.025
319.4598, 1899.818
319.9420, 1885.487
320.4241, 1882.008
320.9062, 1889.973
321.3883, 1900.083
321.8704, 1911.678
322.3525, 1920.575
322.8347, 1918.599
323.3168, 1899.615
323.7989, 1883.753
324.2810, 1885.663
324.7631, 1900.074
325.2452, 1912.668
325.7274, 1919.297
326.2095, 1923.278
326.6916, 1928.978
327.1737, 1936.498
327.6558, 1943.844
328.1379, 1946.265
328.6201, 1950.959
329.1022, 1968.807
329.5843, 1999.310
330.0664, 2027.749
330.5485, 2042.075
331.0306, 2042.332
331.5128, 2043.205
331.9949, 2040.155
332.4770, 2042.342
332.9591, 2054.258
333.4412, 2073.852
333.9233, 2098.532
334.4054, 2127.660
334.8875, 2157.663
335.3697, 2179.295
335.8518, 2175.740
336.3339, 2187.504
336.8160, 2231.767
337.2981, 2279.987
337.7802, 2309.135
338.2624, 2315.535
338.7445, 2310.559
339.2266, 2305.878
339.7087, 2301.360
340.1908, 2298.010
340.6729, 2293.336
341.1551, 2292.381
341.6372, 2299.049
342.1193, 2310.588
342.6014, 2322.789
343.0835, 2334.566
343.5656, 2343.033
344.0478, 2337.102
344.5299, 2307.741
345.0120, 2284.443
345.4941, 2280.665
345.9762, 2282.983
346.4583, 2279.432
346.9405, 2267.132
347.4226, 2253.829
347.9047, 2247.484
348.3868, 2247.752
348.8689, 2248.994
349.3510, 2252.021
349.8332, 2253.550
350.3153, 2249.414
350.7974, 2241.142
351.2795, 2235.522
351.7616, 2238.023
352.2437, 2243.759
352.7259, 2243.948
353.2080, 2237.834
353.6901, 2234.795
354.1722, 2241.045
354.6543, 2254.664
355.1364, 2267.203
355.6186, 2271.637
356.1007, 2285.250
356.5828, 2325.276
357.0649, 2379.993
357.5470, 2422.871
358.0291, 2444.047
358.5113, 2457.477
358.9934, 2485.296
359.4755, 2536.794
359.9576, 2573.492
360.4397, 2575.833
360.9218, 2576.720
361.4040, 2599.871
361.8861, 2645.261
362.3682, 2701.967
362.8503, 2762.946
363.3324, 2827.352
363.8145, 2883.807
364.2967, 2920.188
364.7788, 2962.682
365.2609, 3019.807
365.7430, 3083.950
366.2251, 3146.260
366.7072, 3203.602
367.1894, 3256.921
367.6715, 3307.286
368.1536, 3353.812
368.6357, 3400.350
369.1178, 3443.112
369.5999, 3489.345
370.0821, 3549.317
370.5642, 3617.705
371.0463, 3676.446
371.5284, 3712.767
372.0105, 3729.593
372.4926, 3736.690
372.9748, 3729.906
373.4569, 3723.553
373.9390, 3727.733
374.4211, 3734.665
374.9032, 3737.207
375.3853, 3736.385
375.8675, 3723.017
376.3496, 3679.880
376.8317, 3613.690
377.3138, 3562.258
377.7959, 3540.795
378.2780, 3526.162
378.7602, 3493.108
379.2423, 3443.445
379.7244, 3377.113
380.2065, 3276.084
380.6886, 3169.814
381.1707, 3087.766
381.6529, 3029.569
382.1350, 2975.358
382.6171, 2912.549
383.0992, 2843.036
383.5813, 2780.900
384.0634, 2730.681
384.5456, 2680.824
385.0277, 2631.635
385.5098, 2580.483
385.9919, 2521.699
386.4740, 2454.638
386.9561, 2388.240
387.4383, 2333.682
387.9204, 2289.335
388.4025, 2263.852
388.8846, 2278.621
389.3667, 2290.021
389.8488, 2278.147
390.3310, 2249.361
390.8131, 2218.778
391.2952, 2194.956
391.7773, 2176.561
392.2594, 2160.321
392.7415, 2146.026
393.2237, 2134.354
393.7058, 2126.292
394.1879, 2120.353
394.6700, 2116.132
395.1521, 2113.489
395.6342, 2110.893
396.1163, 2110.631
396.5984, 2109.969
397.0806, 2095.578
397.5627, 2060.811
398.0448, 2027.864
398.5269, 2016.702
399.0090, 2020.563
399.4911, 2021.802
399.9733, 2019.831
400.4554, 2012.361
400.9375, 1994.447
401.4196, 1969.327
401.9017, 1945.728
402.3839, 1926.354
402.8660, 1912.986
403.3481, 1910.908
403.8302, 1929.491
404.3123, 1934.299
404.7944, 1915.104
405.2766, 1888.069
405.7587, 1861.959
406.2408, 1838.830
406.7229, 1819.550
407.2050, 1804.716
407.6871, 1794.224
408.1693, 1787.029
408.6514, 1784.890
409.1335, 1784.031
409.6156, 1787.596
410.0977, 1790.162
410.5798, 1784.066
411.0620, 1768.173
411.5441, 1752.489
412.0262, 1751.500
412.5083, 1766.200
412.9904, 1770.534
413.4725, 1757.762
413.9547, 1741.702
414.4368, 1729.281
414.9189, 1719.496
415.4010, 1709.852
415.8831, 1698.694
416.3652, 1688.266
416.8474, 1683.296
417.3295, 1683.035
417.8116, 1677.333
418.2937, 1660.803
418.7758, 1639.636
419.2579, 1622.391
419.7401, 1608.447
420.2222, 1599.565
420.7043, 1600.287
421.1864, 1603.614
421.6685, 1603.381
422.1506, 1599.046
422.6328, 1591.724
423.1149, 1581.708
423.5970, 1569.653
424.0791, 1559.745
424.5612, 1550.837
425.0433, 1545.553
425.5255, 1551.218
426.0076, 1556.917
426.4897, 1548.470
426.9718, 1524.318
427.4539, 1498.786
427.9360, 1489.322
428.4182, 1497.714
428.9003, 1501.724
429.3824, 1500.374
429.8645, 1495.437
430.3466, 1487.699
430.8287, 1477.112
431.3109, 1462.203
431.7930, 1440.240
432.2751, 1419.805
432.7572, 1410.307
433.2393, 1411.696
433.7214, 1426.096
434.2036, 1463.780
434.6857, 1500.356
435.1678, 1502.367
435.6499, 1473.306
436.1320, 1454.214
436.6141, 1466.399
437.0963, 1485.031
437.5784, 1486.396
438.0605, 1472.591
438.5426, 1458.306
439.0247, 1451.028
439.5068, 1449.457
439.9890, 1449.895
440.4711, 1453.772
440.9532, 1457.712
441.4353, 1464.252
441.9174, 1468.961
442.3995, 1465.653
442.8817, 1455.861
443.3638, 1448.335
443.8459, 1450.819
444.3280, 1462.254
444.8101, 1474.129
445.2922, 1493.583
445.7744, 1500.677
446.2565, 1477.721
446.7386, 1448.132
447.2207, 1439.596
447.7028, 1458.501
448.1849, 1476.544
448.6671, 1460.748
449.1492, 1420.788
449.6313, 1401.607
450.1134, 1412.485
450.5955, 1430.865
451.0776, 1441.141
451.5598, 1445.455
452.0419, 1451.347
452.5240, 1462.806
453.0061, 1472.408
453.4882, 1474.754
453.9703, 1472.614
454.4525, 1471.172
454.9346, 1472.014
455.4167, 1474.547
455.8988, 1477.292
456.3809, 1478.124
456.8630, 1488.924
457.3452, 1525.640
457.8272, 1554.351
458.3094, 1552.166
458.7915, 1533.373
459.2736, 1526.071
459.7557, 1544.397
460.2378, 1573.403
460.7199, 1583.537
461.2021, 1570.344
461.6842, 1558.830
462.1663, 1546.464
462.6484, 1542.874
463.1305, 1559.667
463.6126, 1591.471
464.0948, 1617.845
464.5769, 1625.800
465.0590, 1625.617
465.5411, 1631.582
466.0232, 1643.124
466.5053, 1652.738
466.9875, 1657.912
467.4696, 1658.906
467.9517, 1655.334
468.4338, 1646.204
468.9159, 1637.329
469.3980, 1625.880
469.8802, 1617.720
470.3623, 1619.531
470.8444, 1629.474
471.3265, 1640.181
471.8086, 1647.083
472.2907, 1650.545
472.7729, 1651.578
473.2550, 1648.952
473.7371, 1645.938
474.2192, 1645.004
474.7013, 1642.237
475.1834, 1631.040
475.6656, 1613.690
476.1477, 1602.585
476.6298, 1610.923
477.1119, 1631.335
477.5940, 1640.021
478.0761, 1633.626
478.5583, 1633.026
479.0404, 1657.022
479.5225, 1685.624
480.0046, 1685.288
480.4867, 1648.053
480.9688, 1614.713
481.4510, 1600.721
481.9331, 1599.526
482.4152, 1606.397
482.8973, 1619.442
483.3794, 1631.254
483.8615, 1635.953
484.3437, 1635.281
484.8258, 1639.104
485.3079, 1652.521
485.7900, 1664.158
486.2721, 1671.757
486.7542, 1678.205
487.2364, 1687.922
487.7185, 1700.131
488.2006, 1707.890
488.6827, 1702.234
489.1648, 1686.728
489.6469, 1683.368
490.1291, 1697.061
490.6112, 1710.555
491.0933, 1715.091
491.5754, 1716.715
492.0575, 1720.069
492.5396, 1724.806
493.0218, 1737.450
493.5039, 1770.122
493.9860, 1809.796
494.4681, 1833.682
494.9502, 1839.927
495.4323, 1841.697
495.9145, 1846.705
496.3966, 1855.230
496.8787, 1868.835
497.3608, 1893.831
497.8429, 1915.218
498.3250, 1925.880
498.8072, 1935.580
499.2893, 1954.770
499.7714, 1983.310
500.2535, 2012.118
500.7356, 2033.392
501.2177, 2048.204
501.6999, 2062.901
502.1820, 2074.714
502.6641, 2092.508
503.1462, 2118.987
503.6283, 2153.184
504.1104, 2199.689
504.5926, 2259.495
505.0747, 2309.968
505.5568, 2327.361
506.0389, 2331.240
506.5210, 2357.246
507.0031, 2406.889
507.4853, 2455.264
507.9674, 2486.916
508.4495, 2506.862
508.9316, 2531.588
509.4137, 2564.204
509.8958, 2596.332
510.3780, 2626.938
510.8601, 2657.059
511.3422, 2685.659
511.8243, 2714.050
512.3064, 2747.572
512.7885, 2792.292
513.2706, 2841.983
513.7527, 2871.246
514.2349, 2869.626
514.7170, 2876.445
515.1991, 2911.260
515.6812, 2950.698
516.1633, 2979.919
516.6454, 2997.866
517.1276, 3007.714
517.6097, 3013.789
518.0918, 3010.870
518.5739, 2987.354
519.0560, 2945.642
519.5381, 2906.837
520.0203, 2882.197
520.5024, 2861.304
520.9845, 2822.999
521.4666, 2753.921
521.9487, 2696.834
522.4308, 2663.205
522.9130, 2631.096
523.3951, 2587.496
523.8772, 2534.772
524.3593, 2481.316
524.8414, 2431.380
525.3235, 2382.339
525.8057, 2326.237
526.2878, 2259.988
526.7699, 2207.610
527.2520, 2180.120
527.7341, 2158.419
528.2162, 2131.398
528.6984, 2099.159
529.1805, 2061.601
529.6626, 2015.479
530.1447, 1967.803
530.6268, 1918.816
531.1089, 1872.694
531.5911, 1842.716
532.0732, 1833.461
532.5553, 1829.417
533.0374, 1812.007
533.5195, 1779.183
534.0016, 1751.522
534.4838, 1733.182
534.9659, 1714.758
535.4480, 1690.335
535.9301, 1665.998
536.4122, 1650.988
536.8943, 1647.400
537.3765, 1645.327
537.8586, 1631.811
538.3407, 1608.956
538.8228, 1595.183
539.3049, 1594.269
539.7870, 1592.423
540.2692, 1581.065
540.7513, 1564.110
541.2334, 1548.060
541.7155, 1530.138
542.1976, 1521.065
542.6797, 1537.940
543.1619, 1558.133
543.6440, 1550.501
544.1261, 1516.829
544.6082, 1485.028
545.0903, 1474.922
545.5724, 1481.423
546.0546, 1485.141
546.5367, 1488.028
547.0188, 1484.104
547.5009, 1470.577
547.9830, 1452.633
548.4651, 1426.936
548.9473, 1398.551
549.4294, 1383.955
549.9115, 1400.057
550.3936, 1426.234
550.8757, 1430.600
551.3578, 1415.344
551.8400, 1401.960
552.3221, 1397.298
552.8042, 1395.539
553.2863, 1388.281
553.7684, 1373.805
554.2505, 1369.237
554.7327, 1383.046
555.2148, 1397.735
555.6969, 1406.820
556.1790, 1411.542
556.6611, 1414.149
557.1432, 1415.436
557.6254, 1415.516
558.1075, 1415.020
558.5896, 1413.965
559.0717, 1409.107
559.5538, 1399.901
560.0359, 1387.830
560.5181, 1366.911
561.0002, 1346.285
561.4823, 1339.566
561.9644, 1351.647
562.4465, 1361.384
562.9286, 1359.562
563.4108, 1348.805
563.8929, 1326.164
564.3750, 1295.213
564.8571, 1275.476
565.3392, 1280.466
565.8214, 1301.449
566.3035, 1313.154
566.7856, 1311.711
567.2677, 1307.847
567.7498, 1298.714
568.2319, 1290.380
568.7141, 1286.079
569.1962, 1285.304
569.6783, 1287.486
570.1604, 1295.194
570.6425, 1298.925
571.1246, 1277.931
571.6068, 1238.191
572.0889, 1222.549
572.5710, 1244.848
573.0531, 1272.334
573.5352, 1274.302
574.0173, 1252.340
574.4995, 1239.941
574.9816, 1243.012
575.4637, 1247.697
575.9458, 1252.417
576.4279, 1255.650
576.9100, 1256.017
577.3922, 1253.239
577.8743, 1247.077
578.3564, 1235.445
578.8385, 1221.250
579.3206, 1217.938
579.8027, 1228.161
580.2849, 1239.031
580.7670, 1247.733
581.2491, 1254.480
581.7312, 1261.959
582.2133, 1269.882
582.6954, 1268.505
583.1776, 1246.801
583.6597, 1222.238
584.1418, 1205.232
584.6239, 1196.199
585.1060, 1196.413
585.5881, 1206.131
586.0703, 1220.522
586.5524, 1234.190
587.0345, 1247.880
587.5166, 1253.111
587.9987, 1245.266
588.4808, 1234.874
588.9630, 1221.932
589.4451, 1210.048
589.9272, 1202.562
590.4093, 1200.101
590.8914, 1203.483
591.3735, 1218.614
591.8557, 1237.477
592.3378, 1247.733
592.8199, 1249.052
593.3020, 1243.904
593.7841, 1232.464
594.2662, 1218.403
594.7484, 1209.128
595.2305, 1205.636
595.7126, 1204.770
596.1947, 1207.708
596.6768, 1211.738
597.1589, 1216.997
597.6411, 1222.158
598.1232, 1224.902
598.6053, 1224.256
599.0874, 1222.809
599.5695, 1223.661
600.0516, 1226.098
600.5338, 1226.534
601.0159, 1224.106
601.4980, 1224.073
601.9801, 1231.089
602.4622, 1242.152
602.9443, 1247.615
603.4265, 1245.845
603.9086, 1242.256
604.3907, 1232.932
604.8728, 1225.769
605.3549, 1230.085
605.8370, 1241.135
606.3192, 1244.883
606.8013, 1233.084
607.2834, 1217.271
607.7655, 1218.552
608.2476, 1236.719
608.7297, 1248.812
609.2119, 1250.610
609.6940, 1249.400
610.1761, 1247.392
610.6582, 1246.612
611.1403, 1254.174
611.6224, 1282.471
612.1045, 1298.500
612.5866, 1276.658
613.0687, 1248.996
613.5508, 1251.584
614.0330, 1280.784
614.5151, 1307.016
614.9972, 1310.704
615.4793, 1302.217
615.9614, 1308.037
616.4435, 1332.071
616.9257, 1345.085
617.4078, 1334.237
617.8899, 1324.107
618.3720, 1338.388
618.8541, 1367.035
619.3362, 1382.812
619.8184, 1372.981
620.3005, 1363.574
620.7826, 1367.645
621.2647, 1378.360
621.7468, 1390.110
622.2289, 1400.368
622.7111, 1401.947
623.1932, 1387.485
623.6753, 1366.383
624.1574, 1371.274
624.6395, 1410.637
625.1216, 1447.130
625.6038, 1477.919
626.0859, 1502.007
626.5680, 1518.175
627.0501, 1527.769
627.5322, 1534.299
628.0143, 1536.474
628.4965, 1539.272
628.9786, 1545.621
629.4607, 1554.521
629.9428, 1565.970
630.4249, 1579.121
630.9070, 1588.677
631.3892, 1589.045
631.8713, 1585.601
632.3534, 1600.881
632.8355, 1644.160
633.3176, 1681.226
633.7997, 1704.187
634.2819, 1722.952
634.7640, 1740.496
635.2461, 1758.483
635.7282, 1781.496
636.2103, 1812.950
636.6924, 1845.803
637.1746, 1876.909
637.6567, 1905.637
638.1388, 1927.837
638.6209, 1944.744
639.1030, 1967.633
639.5851, 2005.046
640.0673, 2054.975
640.5494, 2111.051
641.0315, 2177.765
641.5136, 2240.491
641.9957, 2289.441
642.4778, 2342.180
642.9600, 2407.345
643.4421, 2483.733
643.9242, 2566.810
644.4063, 2654.984
644.8884, 2750.287
645.3705, 2850.754
645.8527, 2960.685
646.3348, 3090.635
646.8169, 3239.613
647.2990, 3388.702
647.7811, 3524.599
648.2632, 3654.428
648.7454, 3802.440
649.2275, 3973.375
649.7096, 4146.945
650.1917, 4321.346
650.6738, 4497.473
651.1559, 4675.592
651.6381, 4855.787
652.1202, 5035.004
652.6023, 5206.257
653.0844, 5392.679
653.5665, 5625.545
654.0486, 5874.626
654.5308, 6099.004
655.0129, 6296.709
655.4950, 6484.328
655.9771, 6670.576
656.4592, 6857.592
656.9413, 7054.516
657.4235, 7275.585
657.9056, 7453.154
658.3877, 7584.530
658.8698, 7668.619
659.3519, 7706.735
659.8340, 7700.050
660.3162, 7648.092
660.7983, 7546.916
661.2804, 7414.976
661.7625, 7263.745
662.2446, 7084.583
662.7267, 6861.522
663.2089, 6600.744
663.6910, 6330.814
664.1731, 6065.272
664.6552, 5794.463
665.1373, 5494.682
665.6194, 5159.650
666.1016, 4856.749
666.5837, 4598.313
667.0658, 4352.817
667.5479, 4101.354
668.0300, 3858.733
668.5121, 3646.600
668.9943, 3470.071
669.4764, 3301.531
669.9585, 3126.562
670.4406, 2962.844
670.9227, 2823.349
671.4048, 2705.799
671.8870, 2602.952
672.3691, 2512.427
672.8512, 2432.134
673.3333, 2364.278
673.8154, 2306.740
674.2975, 2231.959
674.7797, 2130.784
675.2618, 2046.761
675.7439, 1998.280
676.2260, 1971.536
676.7081, 1954.809
677.1902, 1948.493
677.6724, 1931.265
678.1545, 1889.953
678.6366, 1848.741
679.1187, 1819.190
679.6008, 1796.683
680.0829, 1777.056
680.5651, 1758.128
681.0472, 1735.671
681.5293, 1705.693
682.0114, 1670.049
682.4935, 1630.796
682.9756, 1587.532
683.4578, 1555.355
683.9399, 1538.298
684.4220, 1532.356
684.9041, 1537.163
685.3862, 1551.686
685.8683, 1556.577
686.3505, 1551.955
686.8326, 1538.556
687.3147, 1506.417
687.7968, 1473.492
688.2789, 1453.822
688.7610, 1446.811
689.2432, 1446.908
689.7253, 1454.698
690.2074, 1458.484
690.6895, 1435.866
691.1716, 1396.578
691.6537, 1377.465
692.1359, 1384.331
692.6180, 1391.994
693.1001, 1383.036
693.5822, 1363.854
694.0643, 1354.080
694.5464, 1360.790
695.0286, 1362.994
695.5107, 1358.329
695.9928, 1351.859
696.4749, 1345.976
696.9570, 1339.605
697.4391, 1330.648
697.9213, 1318.455
698.4034, 1305.076
698.8855, 1285.978
699.3676, 1270.112
699.8497, 1275.265
700.3318, 1295.769
700.8140, 1306.996
701.2961, 1298.709
701.7782, 1281.144
702.2603, 1268.599
702.7424, 1261.289
703.2245, 1251.811
703.7067, 1236.434
704.1888, 1226.724
704.6709, 1229.219
705.1530, 1237.276
705.6351, 1246.451
706.1172, 1256.327
706.5994, 1260.059
707.0815, 1257.298
707.5636, 1246.522
708.0457, 1217.188
708.5278, 1184.062
709.0099, 1169.043
709.4921, 1173.978
709.9742, 1184.308
710.4563, 1189.765
710.9384, 1191.663
711.4205, 1193.856
711.9026, 1196.359
712.3848, 1192.175
712.8669, 1177.114
713.3490, 1164.782
713.8311, 1167.355
714.3132, 1181.093
714.7953, 1188.188
715.2775, 1185.139
715.7596, 1181.271
716.2417, 1171.273
716.7238, 1166.080
717.2059, 1175.369
717.6880, 1193.763
718.1702, 1212.820
718.6523, 1230.741
719.1344, 1238.016
719.6165, 1216.598
720.0986, 1182.932
720.5807, 1168.336
721.0629, 1172.458
721.5450, 1181.905
722.0271, 1191.659
722.5092, 1197.237
722.9913, 1189.942
723.4734, 1167.721
723.9556, 1159.788
724.4377, 1175.564
724.9198, 1189.334
725.4019, 1190.424
725.8840, 1188.483
726.3661, 1193.712
726.8483, 1205.214
727.3304, 1209.646
727.8125, 1192.626
728.2946, 1179.631
728.7767, 1187.744
729.2589, 1206.646
729.7410, 1225.960
730.2231, 1242.207
730.7052, 1251.267
731.1873, 1248.944
731.6694, 1241.892
732.1516, 1244.505
732.6337, 1256.160
733.1158, 1263.021
733.5979, 1261.676
734.0800, 1263.079
734.5621, 1274.270
735.0442, 1293.117
735.5263, 1314.708
736.0084, 1346.383
736.4905, 1364.680
736.9727, 1361.845
737.4548, 1354.354
737.9369, 1341.674
738.4190, 1332.183
738.9011, 1340.827
739.3832, 1370.126
739.8654, 1394.716
740.3475, 1393.951
740.8296, 1383.573
741.3117, 1382.558
741.7938, 1387.678
742.2759, 1387.209
742.7581, 1378.209
743.2402, 1369.963
743.7223, 1373.303
744.2044, 1383.702
744.6865, 1372.959
745.1686, 1331.453
745.6508, 1310.288
746.1329, 1330.072
746.6150, 1355.250
747.0971, 1357.774
747.5792, 1343.181
748.0613, 1331.983
748.5435, 1324.084
749.0256, 1320.703
749.5077, 1330.023
749.9898, 1336.686
750.4719, 1325.172
750.9540, 1303.735
751.4362, 1290.906
751.9183, 1293.296
752.4004, 1298.571
752.8825, 1297.461
753.3646, 1290.317
753.8467, 1274.014
754.3289, 1250.665
754.8110, 1234.220
755.2931, 1229.606
755.7752, 1233.452
756.2573, 1244.378
756.7394, 1261.353
757.2216, 1259.506
757.7037, 1229.710
758.1858, 1201.658
758.6679, 1179.062
759.1500, 1162.431
759.6321, 1153.440
760.1143, 1150.654
760.5964, 1148.973
761.0785, 1148.723
761.5606, 1147.703
762.0427, 1146.146
762.5248, 1142.720
763.0070, 1134.046
763.4891, 1122.773
763.9712, 1114.108
764.4533, 1110.117
764.9354, 1112.659
765.4175, 1129.816
765.8997, 1154.001
766.3818, 1161.604
766.8639, 1153.192
767.3460, 1146.828
767.8281, 1149.948
768.3102, 1152.616
768.7924, 1141.319
769.2745, 1116.309
769.7566, 1099.633
770.2387, 1093.378
770.7208, 1091.344
771.2029, 1093.971
771.6851, 1099.134
772.1672, 1105.144
772.6493, 1112.392
773.1314, 1122.949
773.6135, 1143.327
774.0956, 1155.640
774.5778, 1149.106
775.0599, 1135.421
775.5420, 1121.090
776.0241, 1108.790
776.5062, 1102.292
776.9883, 1103.018
777.4705, 1106.444
777.9526, 1112.379
778.4347, 1116.262
778.9168, 1100.046
779.3989, 1066.817
779.8810, 1050.339
780.3632, 1063.091
780.8453, 1081.632
781.3274, 1079.076
781.8095, 1058.133
782.2916, 1048.131
782.7737, 1054.171
783.2559, 1058.964
783.7380, 1060.450
784.2201, 1059.286
784.7022, 1053.662
785.1843, 1046.022
785.6664, 1042.734
786.1486, 1045.993
786.6307, 1049.895
787.1128, 1053.330
787.5949, 1056.477
788.0770, 1059.060
788.5591, 1061.586
789.0413, 1066.174
789.5234, 1072.962
790.0055, 1076.421
790.4876, 1068.259
790.9697, 1056.050
791.4518, 1052.573
791.9340, 1056.122
792.4161, 1061.714
792.8982, 1067.868
793.3803, 1070.798
793.8624, 1067.123
794.3445, 1057.967
794.8267, 1046.359
795.3088, 1031.141
795.7909, 1019.782
796.2730, 1014.096
796.7551, 1009.931
797.2372, 1001.465
797.7194, 994.5010
798.2015, 1004.772
798.6836, 1039.704
799.1657, 1061.708
799.6478, 1062.057
800.1299, 1056.278
800.6121, 1046.085
801.0942, 1035.680
801.5763, 1028.514
802.0584, 1025.395
802.5405, 1027.414
803.0226, 1043.635
803.5048, 1053.835
803.9869, 1026.210
804.4690, 986.9990
804.9511, 985.1643
805.4332, 1019.106
805.9153, 1049.504
806.3975, 1054.663
806.8796, 1045.107
807.3617, 1033.776
807.8438, 1021.616
808.3259, 1021.514
808.8080, 1035.651
809.2902, 1041.881
809.7723, 1028.752
810.2544, 1011.977
810.7365, 1012.742
811.2186, 1031.208
811.7007, 1039.544
812.1829, 1030.608
812.6650, 1023.211
813.1471, 1022.363
813.6292, 1021.599
814.1113, 1011.771
814.5934, 999.3641
815.0756, 1003.425
815.5577, 1036.982
816.0398, 1059.481
816.5219, 1047.051
817.0040, 1027.940
817.4861, 1021.981
817.9683, 1024.882
818.4504, 1025.674
818.9325, 1022.038
819.4146, 1022.149
819.8967, 1037.329
820.3788, 1055.827
820.8610, 1059.061
821.3431, 1050.557
821.8252, 1039.850
822.3073, 1029.221
822.7894, 1020.106
823.2715, 1013.474
823.7537, 1009.621
824.2358, 1009.955
824.7179, 1014.858
825.2000, 1019.063
825.6821, 1023.242
826.1642, 1022.807
826.6464, 1012.669
827.1285, 1001.138
827.6106, 1000.856
828.0927, 1013.209
828.5748, 1021.951
829.0569, 1028.556
829.5391, 1029.461
830.0212, 1015.108
830.5033, 1002.832
830.9854, 1008.532
831.4675, 1026.568
831.9496, 1040.530
832.4318, 1048.666
832.9139, 1046.008
833.3960, 1015.350
833.8781, 986.4693
834.3602, 990.9378
834.8423, 1014.303
835.3245, 1026.644
835.8066, 1020.324
836.2887, 1009.598
836.7708, 1004.935
837.2529, 1003.708
837.7350, 1002.026
838.2172, 1000.161
838.6993, 998.5761
839.1814, 997.5082
839.6635, 998.9984
840.1456, 1004.931
840.6277, 1011.426
841.1099, 1008.052
841.5920, 994.0742
842.0741, 991.7206
842.5562, 1004.510
843.0383, 1016.129
843.5204, 1020.261
844.0026, 1020.414
844.4847, 1020.895
844.9668, 1021.699
845.4489, 1019.492
845.9310, 1009.740
846.4131, 1004.113
846.8953, 1008.386
847.3774, 1012.403
847.8595, 1008.187
848.3416, 999.8063
848.8237, 996.5295
849.3058, 1000.970
849.7880, 1004.781
850.2701, 1004.687
850.7522, 1004.004
851.2343, 1002.558
851.7164, 1002.926
852.1985, 1010.449
852.6807, 1024.184
853.1628, 1035.348
853.6449, 1039.650
854.1270, 1037.833
854.6091, 1026.551
855.0912, 1011.451
855.5734, 1001.561
856.0555, 997.7198
856.5376, 998.3166
857.0197, 1002.604
857.5018, 1010.659
857.9839, 1028.560
858.4661, 1050.107
858.9481, 1041.999
859.4302, 1005.187
859.9124, 977.6078
860.3945, 969.2670
860.8766, 968.1843
861.3587, 963.9053
861.8408, 959.4559
862.3229, 968.0313
862.8051, 996.4700
863.2872, 1010.966
863.7693, 1004.138
864.2514, 994.8658
864.7335, 988.4421
865.2156, 986.6075
865.6978, 995.2147
866.1799, 1016.577
866.6620, 1023.043
867.1441, 995.1414
867.6262, 979.1099
868.1083, 997.5059
868.5905, 1017.620
869.0726, 1012.044
869.5547, 989.9899
870.0368, 976.7027
870.5189, 978.6337
871.0010, 984.9150
871.4832, 995.0869
871.9653, 1004.052
872.4474, 1006.812
872.9295, 1006.683
873.4116, 1008.726
873.8937, 1013.599
874.3759, 1019.006
874.8580, 1024.923
875.3401, 1028.010
875.8222, 1018.483
876.3043, 1006.484
876.7864, 1016.393
877.2686, 1043.014
877.7507, 1055.830
878.2328, 1042.458
878.7149, 1023.555
879.1970, 1024.922
879.6791, 1039.761
880.1613, 1046.886
880.6434, 1046.273
881.1255, 1033.265
881.6076, 1005.972
882.0897, 987.7459
882.5718, 996.9344
883.0540, 1022.548
883.5361, 1038.206
884.0182, 1042.345
884.5003, 1046.869
884.9824, 1052.591
885.4645, 1056.047
885.9467, 1053.980
886.4288, 1052.472
886.9109, 1058.863
887.3930, 1072.554
887.8751, 1084.846
888.3572, 1095.557
888.8394, 1105.263
889.3215, 1120.030
889.8036, 1127.237
890.2857, 1112.937
890.7678, 1090.835
891.2499, 1083.964
891.7321, 1095.671
892.2142, 1103.371
892.6963, 1095.526
893.1784, 1092.682
893.6605, 1111.841
894.1426, 1131.482
894.6248, 1123.718
895.1069, 1099.763
895.5890, 1097.732
896.0711, 1134.871
896.5532, 1171.189
897.0353, 1184.597
897.5175, 1187.814
897.9996, 1186.864
898.4817, 1185.699
898.9638, 1192.569
899.4459, 1206.374
899.9280, 1212.192
900.4102, 1195.730
900.8923, 1178.589
901.3744, 1194.565
901.8565, 1222.901
902.3386, 1216.155
902.8207, 1183.560
903.3029, 1179.345
903.7850, 1222.702
904.2671, 1273.893
904.7492, 1291.312
905.2313, 1285.890
905.7134, 1286.247
906.1956, 1290.608
906.6777, 1284.073
907.1598, 1264.901
907.6419, 1255.854
908.1240, 1271.821
908.6061, 1298.875
909.0883, 1313.170
909.5704, 1314.907
910.0525, 1312.086
910.5346, 1303.611
911.0167, 1298.925
911.4988, 1301.314
911.9810, 1305.400
912.4631, 1307.292
912.9452, 1306.760
913.4273, 1302.112
913.9094, 1289.924
914.3915, 1285.579
914.8737, 1293.925
915.3558, 1300.908
915.8379, 1303.863
916.3200, 1300.042
916.8021, 1281.640
917.2842, 1250.090
917.7664, 1235.233
918.2485, 1255.550
918.7306, 1264.163
919.2127, 1247.264
919.6948, 1231.181
920.1769, 1235.824
920.6591, 1245.362
921.1412, 1231.551
921.6233, 1190.859
922.1054, 1165.994
922.5875, 1176.138
923.0696, 1187.265
923.5518, 1191.018
924.0339, 1190.261
924.5160, 1189.693
924.9981, 1186.060
925.4802, 1167.365
925.9623, 1127.043
926.4445, 1103.049
926.9266, 1129.417
927.4087, 1156.384
927.8908, 1145.431
928.3729, 1121.831
928.8550, 1118.450
929.3372, 1133.568
929.8193, 1144.944
930.3014, 1143.168
930.7835, 1136.849
931.2656, 1130.837
931.7477, 1124.553
932.2299, 1113.732
932.7120, 1103.523
933.1941, 1107.031
933.6762, 1123.590
934.1583, 1134.099
934.6404, 1123.991
935.1226, 1110.326
935.6047, 1114.957
936.0868, 1128.508
936.5689, 1137.481
937.0510, 1139.605
937.5331, 1130.629
938.0153, 1110.091
938.4974, 1085.920
938.9795, 1062.001
939.4616, 1043.841
939.9437, 1046.553
940.4258, 1063.346
940.9080, 1069.996
941.3901, 1065.770
941.8722, 1066.621
942.3543, 1079.583
942.8364, 1094.422
943.3185, 1098.978
943.8007, 1095.755
944.2828, 1093.535
944.7649, 1092.042
945.2470, 1088.063
945.7291, 1081.090
946.2112, 1072.825
946.6934, 1063.709
947.1755, 1057.114
947.6576, 1058.005
948.1397, 1066.377
948.6218, 1087.368
949.1039, 1123.306
949.5861, 1136.374
950.0682, 1114.374
950.5503, 1095.212
951.0324, 1106.490
951.5145, 1133.264
951.9966, 1141.932
952.4788, 1130.220
952.9609, 1127.839
953.4430, 1138.467
953.9251, 1142.456
954.4072, 1131.365
954.8893, 1121.280
955.3715, 1126.598
955.8536, 1141.698
956.3357, 1148.159
956.8178, 1142.129
957.2999, 1142.930
957.7820, 1155.382
958.2642, 1162.784
958.7463, 1154.004
959.2284, 1147.391
959.7105, 1163.831
960.1926, 1196.850
960.6747, 1214.786
961.1569, 1206.881
961.6390, 1207.871
962.1211, 1225.627
962.6032, 1239.824
963.0853, 1237.738
963.5674, 1233.954
964.0496, 1245.166
964.5317, 1269.523
965.0138, 1291.086
965.4959, 1309.231
965.9780, 1325.343
966.4601, 1338.710
966.9423, 1350.803
967.4244, 1364.904
967.9065, 1376.380
968.3886, 1378.476
968.8707, 1371.723
969.3528, 1366.264
969.8350, 1361.081
970.3171, 1359.591
970.7992, 1361.255
971.2813, 1367.675
971.7634, 1386.572
972.2455, 1406.756
972.7277, 1410.103
973.2098, 1396.310
973.6919, 1391.511
974.1740, 1408.453
974.6561, 1421.689
975.1382, 1425.005
975.6204, 1424.427
976.1025, 1424.821
976.5846, 1423.083
977.0667, 1411.953
977.5488, 1390.901
978.0309, 1375.493
978.5131, 1373.434
978.9952, 1371.626
979.4773, 1367.595
979.9594, 1361.286
980.4415, 1351.012
980.9236, 1339.183
981.4058, 1328.069
981.8878, 1318.037
982.3699, 1316.018
982.8521, 1328.613
983.3342, 1343.481
983.8163, 1361.244
984.2984, 1374.789
984.7805, 1374.660
985.2626, 1367.551
985.7448, 1365.351
986.2269, 1370.270
986.7090, 1380.076
987.1911, 1400.201
987.6732, 1416.970
988.1553, 1422.481
988.6375, 1424.029
989.1196, 1424.663
989.6017, 1427.316
990.0838, 1436.906
990.5659, 1454.536
991.0480, 1473.959
991.5302, 1495.650
992.0123, 1515.021
992.4944, 1530.989
992.9765, 1542.535
993.4586, 1544.442
993.9407, 1542.497
994.4229, 1547.900
994.9050, 1563.278
995.3871, 1584.246
995.8692, 1619.217
996.3513, 1646.667
996.8334, 1651.090
997.3156, 1646.302
997.7977, 1644.912
998.2798, 1645.072
998.7619, 1640.193
999.2440, 1628.663
999.7261, 1613.014
1000.208, 1583.788
1000.690, 1563.781
1001.172, 1581.342
1001.655, 1600.534
1002.137, 1577.392
1002.619, 1531.278
1003.101, 1512.336
1003.583, 1533.108
1004.065, 1545.529
1004.547, 1516.849
1005.029, 1488.441
1005.512, 1480.779
1005.994, 1484.558
1006.476, 1494.027
1006.958, 1506.488
1007.440, 1518.870
1007.922, 1530.490
1008.404, 1541.965
1008.886, 1551.730
1009.368, 1563.670
1009.851, 1579.391
1010.333, 1598.482
1010.815, 1623.454
1011.297, 1650.412
1011.779, 1670.179
1012.261, 1680.923
1012.743, 1697.635
1013.225, 1727.572
1013.708, 1763.210
1014.190, 1802.197
1014.672, 1844.186
1015.154, 1893.205
1015.636, 1943.389
1016.118, 1980.161
1016.600, 2001.890
1017.082, 2035.756
1017.564, 2105.230
1018.047, 2170.494
1018.529, 2213.359
1019.011, 2248.621
1019.493, 2282.190
1019.975, 2318.871
1020.457, 2365.675
1020.939, 2423.231
1021.421, 2482.059
1021.904, 2549.007
1022.386, 2603.135
1022.868, 2628.000
1023.350, 2647.750
1023.832, 2683.564
1024.314, 2722.166
1024.796, 2742.824
1025.278, 2743.650
1025.760, 2737.776
1026.243, 2733.197
1026.725, 2715.208
1027.207, 2675.787
1027.689, 2626.815
1028.171, 2566.995
1028.653, 2506.750
1029.135, 2462.713
1029.617, 2433.343
1030.099, 2392.200
1030.582, 2327.820
1031.064, 2263.435
1031.546, 2202.993
1032.028, 2142.451
1032.510, 2078.856
1032.992, 2014.750
1033.474, 1952.664
1033.956, 1892.569
1034.439, 1836.434
1034.921, 1786.029
1035.403, 1736.127
1035.885, 1685.569
1036.367, 1636.259
1036.849, 1581.879
1037.331, 1534.565
1037.813, 1513.388
1038.296, 1510.443
1038.778, 1488.235
1039.260, 1428.819
1039.742, 1392.693
1040.224, 1399.485
1040.706, 1399.764
1041.188, 1374.250
1041.670, 1344.989
1042.152, 1334.259
1042.635, 1331.903
1043.117, 1305.156
1043.599, 1241.882
1044.081, 1204.729
1044.563, 1207.056
1045.045, 1207.445
1045.527, 1198.668
1046.009, 1181.422
1046.491, 1149.692
1046.974, 1116.685
1047.456, 1113.495
1047.938, 1144.294
1048.420, 1153.822
1048.902, 1133.758
1049.384, 1122.277
1049.866, 1128.870
1050.348, 1137.723
1050.830, 1144.490
1051.313, 1136.265
1051.795, 1083.001
1052.277, 991.8128
1052.759, 977.4323
1053.241, 1051.466
1053.723, 1102.186
1054.205, 1115.203
1054.687, 1102.318
1055.170, 1065.720
1055.652, 1022.935
1056.134, 994.2261
1056.616, 979.2970
1057.098, 981.1770
1057.580, 998.7856
1058.062, 1011.557
1058.544, 1017.540
1059.026, 1008.674
1059.509, 981.4618
1059.991, 963.6402
1060.473, 983.4117
1060.955, 1022.014
1061.437, 1041.617
1061.919, 1043.439
1062.401, 1028.749
1062.883, 1000.344
1063.365, 968.0986
1063.848, 936.2992
1064.330, 918.1259
1064.812, 923.7220
1065.294, 940.0345
1065.776, 953.2295
1066.258, 961.0829
1066.740, 953.4352
1067.222, 937.7640
1067.705, 936.9692
1068.187, 951.3619
1068.669, 961.4258
1069.151, 957.4700
1069.633, 949.3502
1070.115, 946.9784
1070.597, 945.2191
1071.079, 932.2616
1071.562, 918.9906
1072.044, 928.3698
1072.526, 953.0426
1073.008, 965.7052
1073.490, 957.8391
1073.972, 947.5265
1074.454, 944.9636
1074.936, 945.6000
1075.418, 954.3572
1075.901, 957.5898
1076.383, 931.7192
1076.865, 894.6724
1077.347, 882.8597
1077.829, 899.5898
1078.311, 908.9614
1078.793, 886.7703
1079.275, 875.2020
1079.757, 904.5649
1080.240, 932.2657
1080.722, 928.3660
1081.204, 911.4499
1081.686, 904.7823
1082.168, 907.4416
1082.650, 904.1473
1083.132, 886.2348
1083.614, 878.9059
1084.097, 893.6772
1084.579, 907.8193
1085.061, 915.6082
1085.543, 919.1134
1086.025, 918.2526
1086.507, 914.9666
1086.989, 914.0838
1087.471, 916.2000
1087.953, 916.8362
1088.436, 914.8784
1088.918, 913.7583
1089.400, 912.4864
1089.882, 916.6778
1090.364, 933.5350
1090.846, 949.4387
1091.328, 941.7920
1091.810, 914.6514
1092.292, 905.6639
1092.775, 916.5629
1093.257, 930.5925
1093.739, 947.5858
1094.221, 951.9188
1094.703, 936.3664
1095.185, 919.5034
1095.667, 919.7268
1096.149, 929.2668
1096.632, 929.7100
1097.114, 922.6188
1097.596, 915.0236
1098.078, 907.8455
1098.560, 905.5104
1099.042, 908.4658
1099.524, 911.9498
1100.006, 913.3594
1100.489, 910.9506
1100.971, 897.9341
1101.453, 882.8939
1101.935, 883.4076
1102.417, 892.1028
1102.899, 895.2027
1103.381, 890.9687
1103.863, 877.4277
1104.345, 855.1437
1104.828, 844.8574
1105.310, 870.5424
1105.792, 900.2844
1106.274, 915.1439
1106.756, 915.8407
1107.238, 890.9583
1107.720, 858.4069
1108.202, 852.2329
1108.684, 871.3989
1109.167, 876.2039
1109.649, 844.1375
1110.131, 820.3579
1110.613, 821.5557
1111.095, 831.9691
1111.577, 852.1185
1112.059, 871.3431
1112.541, 877.3691
1113.024, 874.7904
1113.506, 880.6910
1113.988, 903.3503
1114.470, 900.5869
1114.952, 849.9412
1115.434, 814.3804
1115.916, 804.8876
1116.398, 809.8287
1116.880, 829.4037
1117.363, 851.0677
1117.845, 856.3292
1118.327, 847.8582
1118.809, 848.4237
1119.291, 860.9883
1119.773, 856.0959
1120.255, 829.8152
1120.737, 805.7133
1121.219, 790.5706
1121.702, 790.6401
1122.184, 813.6176
1122.666, 843.5333
1123.148, 846.3980
1123.630, 830.0561
1124.112, 823.4636
1124.594, 826.1420
1125.076, 838.0788
1125.559, 856.1484
1126.041, 865.8831
1126.523, 860.8035
1127.005, 850.4201
1127.487, 844.8569
1127.969, 836.9214
1128.451, 808.3246
1128.933, 779.2813
1129.416, 779.8972
1129.898, 801.4782
1130.380, 828.6840
1130.862, 853.9746
1131.344, 858.3837
1131.826, 823.2206
1132.308, 794.7834
1132.790, 799.1328
1133.272, 810.1060
1133.755, 818.5267
1134.237, 821.7612
1134.719, 812.0735
1135.201, 796.7330
1135.683, 798.4344
1136.165, 825.7770
1136.647, 830.9797
1137.129, 789.5247
1137.611, 768.3271
1138.094, 786.8843
1138.576, 806.3453
1139.058, 809.7101
1139.540, 803.1600
1140.022, 792.4645
1140.504, 779.1746
1140.986, 769.4642
1141.468, 762.9532
1141.951, 769.0875
1142.433, 789.0659
1142.915, 799.9039
1143.397, 795.7095
1143.879, 786.7202
1144.361, 779.2816
1144.843, 772.8561
1145.325, 765.4849
1145.807, 759.3347
1146.290, 760.4090
1146.772, 766.6918
1147.254, 777.5527
1147.736, 788.4622
1148.218, 783.5317
1148.700, 760.3462
1149.182, 740.8975
1149.664, 737.3231
1150.146, 745.8882
1150.629, 775.3227
1151.111, 803.6470
1151.593, 812.8311
1152.075, 808.6405
1152.557, 796.3888
1153.039, 778.9980
1153.521, 759.2114
1154.003, 734.4167
1154.486, 726.2189
1154.968, 749.4053
1155.450, 773.6548
1155.932, 800.4983
1156.414, 817.3420
1156.896, 815.7236
1157.378, 803.1529
1157.860, 786.0334
1158.343, 766.5428
1158.825, 759.1732
1159.307, 767.0794
1159.789, 764.9916
1160.271, 750.1973
1160.753, 746.6381
1161.235, 761.2346
1161.717, 772.3927
1162.199, 765.8325
1162.682, 753.3629
1163.164, 750.9991
1163.646, 756.2929
1164.128, 765.2847
1164.610, 776.1239
1165.092, 786.9725
1165.574, 794.8562
1166.056, 789.0964
1166.538, 769.4213
1167.021, 753.9845
1167.503, 754.6168
1167.985, 757.9281
1168.467, 752.6617
1168.949, 748.1577
1169.431, 752.4253
1169.913, 760.6053
1170.395, 773.6235
1170.877, 784.0764
1171.360, 770.7632
1171.842, 727.3812
1172.324, 705.1219
1172.806, 730.2241
1173.288, 743.7324
1173.770, 731.6817
1174.252, 723.4120
1174.734, 730.7271
1175.217, 745.9190
1175.699, 764.3546
1176.181, 781.7543
1176.663, 785.3171
1177.145, 775.0042
1177.627, 762.5856
1178.109, 748.3604
1178.591, 741.7742
1179.073, 743.8676
1179.556, 746.3992
1180.038, 745.7520
1180.520, 746.6921
1181.002, 755.4402
1181.484, 764.4190
1181.966, 762.2095
1182.448, 754.1304
1182.930, 746.0491
1183.412, 739.0566
1183.895, 732.8950
1184.377, 728.8137
1184.859, 731.7805
1185.341, 744.3919
1185.823, 754.6567
1186.305, 761.4331
1186.787, 760.1572
1187.269, 734.8610
1187.752, 716.9850
1188.234, 735.2151
1188.716, 764.7780
1189.198, 773.9402
1189.680, 768.1524
1190.162, 776.3896
1190.644, 806.4959
1191.126, 810.0593
1191.609, 781.1251
1192.091, 764.7590
1192.573, 771.2986
1193.055, 778.7918
1193.537, 775.5248
1194.019, 766.9763
1194.501, 758.6697
1194.983, 751.0146
1195.465, 743.8406
1195.948, 738.5378
1196.430, 740.0898
1196.912, 745.6104
1197.394, 746.2795
1197.876, 742.5191
1198.358, 746.4227
1198.840, 764.9980
1199.322, 770.8386
1199.804, 731.5574
1200.287, 699.1109
1200.769, 704.6486
1201.251, 720.4343
1201.733, 726.9041
1202.215, 730.6926
1202.697, 747.2447
1203.179, 772.0234
1203.661, 777.7723
1204.144, 755.8201
1204.626, 749.2341
1205.108, 764.1479
1205.590, 767.0569
1206.072, 749.7196
1206.554, 730.4152
1207.036, 718.5997
1207.518, 710.8097
1208.000, 702.4041
1208.483, 696.3630
1208.965, 698.9847
1209.447, 709.0431
1209.929, 729.4605
1210.411, 752.8725
1210.893, 759.1586
1211.375, 749.8698
1211.857, 747.5440
1212.339, 761.2986
1212.822, 769.0422
1213.304, 749.7211
1213.786, 734.4640
1214.268, 747.0926
1214.750, 757.5618
1215.232, 734.3932
1215.714, 707.1174
1216.196, 720.7267
1216.679, 759.7618
1217.161, 767.4044
1217.643, 736.3594
1218.125, 725.9085
1218.607, 740.0273
1219.089, 753.4629
1219.571, 763.1888
1220.053, 759.2934
1220.536, 736.9741
1221.018, 718.3472
1221.500, 725.6978
1221.982, 743.0043
1222.464, 740.7954
1222.946, 733.2202
1223.428, 754.1432
1223.910, 783.6299
1224.392, 778.4501
1224.875, 747.2125
1225.357, 729.3568
1225.839, 734.7498
1226.321, 742.0654
1226.803, 741.3429
1227.285, 744.6608
1227.767, 764.5357
1228.249, 776.3672
1228.731, 761.5056
1229.214, 745.9366
1229.696, 753.1234
1230.178, 767.4019
1230.660, 755.0189
1231.142, 720.4602
1231.624, 721.6821
1232.106, 757.3819
1232.588, 759.8817
1233.071, 728.0272
1233.553, 709.9095
1234.035, 717.8730
1234.517, 734.0618
1234.999, 748.5668
1235.481, 758.1938
1235.963, 758.3504
1236.445, 753.7850
1236.927, 747.8537
1237.410, 740.8086
1237.892, 730.3192
1238.374, 720.2668
1238.856, 716.2014
1239.338, 718.5573
1239.820, 726.5522
1240.302, 746.0391
1240.784, 752.4358
1241.266, 738.5632
1241.749, 728.7498
1242.231, 728.1161
1242.713, 726.4547
1243.195, 717.5449
1243.677, 715.1346
1244.159, 736.6921
1244.641, 763.8352
1245.123, 762.8063
##END=



