##NAMES=Pseudomalachite
##RRUFFID=R040175
##IDEAL CHEMISTRY=Cu^2+^_5_(P^5+^O_4_)_2_(OH)_4_
##LOCALITY=West Bogan mine, Tottenham, Australia
##OWNER=RRUFF
##SOURCE=University of Arizona Mineral Museum
##DESCRIPTION=Green massive in a botryoidal shape
##STATUS=The identification of this mineral has been confirmed by X-ray diffraction and chemical analysis
##URL=rruff.info/R040175
##MEASURED CHEMISTRY=Cu_5.00_(P_1.00_O_4_)_2_(OH_.98_F_.02_)_4_
166.3384, 1361.596
166.8205, 1367.276
167.3026, 1370.891
167.7847, 1369.971
168.2668, 1367.528
168.7490, 1371.216
169.2311, 1384.428
169.7132, 1396.075
170.1953, 1397.932
170.6774, 1394.839
171.1595, 1394.463
171.6417, 1401.674
172.1238, 1413.272
172.6059, 1421.686
173.0880, 1427.317
173.5701, 1428.484
174.0522, 1419.103
174.5344, 1406.307
175.0165, 1401.248
175.4986, 1411.946
175.9807, 1432.245
176.4628, 1444.794
176.9449, 1445.261
177.4271, 1445.695
177.9092, 1452.309
178.3913, 1461.367
178.8734, 1467.699
179.3555, 1468.452
179.8376, 1465.229
180.3197, 1461.982
180.8019, 1455.652
181.2840, 1455.324
181.7661, 1468.652
182.2482, 1487.135
182.7303, 1499.395
183.2124, 1498.602
183.6946, 1490.243
184.1767, 1491.336
184.6588, 1511.354
185.1409, 1523.970
185.6230, 1516.645
186.1051, 1501.302
186.5873, 1492.416
187.0694, 1497.622
187.5515, 1510.499
188.0336, 1513.591
188.5157, 1500.856
188.9978, 1488.156
189.4800, 1478.158
189.9621, 1470.351
190.4442, 1464.499
190.9263, 1460.705
191.4084, 1457.966
191.8905, 1453.137
192.3727, 1441.625
192.8548, 1436.709
193.3369, 1446.158
193.8190, 1459.498
194.3011, 1465.439
194.7832, 1459.375
195.2654, 1448.020
195.7475, 1446.619
196.2296, 1462.823
196.7117, 1474.795
197.1938, 1479.485
197.6759, 1479.690
198.1581, 1476.728
198.6402, 1471.203
199.1223, 1464.976
199.6044, 1460.934
200.0865, 1457.061
200.5686, 1460.195
201.0508, 1477.769
201.5329, 1497.036
202.0150, 1507.261
202.4971, 1505.812
202.9792, 1498.878
203.4613, 1496.381
203.9435, 1500.532
204.4256, 1504.323
204.9077, 1507.523
205.3898, 1510.250
205.8719, 1513.307
206.3540, 1516.531
206.8362, 1518.193
207.3183, 1514.741
207.8004, 1501.646
208.2825, 1495.342
208.7646, 1501.551
209.2467, 1509.326
209.7289, 1514.551
210.2110, 1515.564
210.6931, 1510.620
211.1752, 1494.967
211.6573, 1461.974
212.1395, 1443.462
212.6216, 1449.895
213.1037, 1460.789
213.5858, 1468.008
214.0679, 1470.514
214.5500, 1470.663
215.0322, 1470.893
215.5143, 1471.650
215.9964, 1469.360
216.4785, 1462.542
216.9606, 1454.097
217.4427, 1443.060
217.9249, 1430.957
218.4070, 1421.127
218.8891, 1416.565
219.3712, 1417.399
219.8533, 1418.902
220.3354, 1420.615
220.8176, 1423.530
221.2997, 1428.539
221.7818, 1434.986
222.2639, 1442.149
222.7460, 1450.157
223.2281, 1458.416
223.7103, 1459.842
224.1924, 1448.614
224.6745, 1436.236
225.1566, 1420.294
225.6387, 1405.595
226.1208, 1400.859
226.6030, 1412.671
227.0851, 1434.672
227.5672, 1439.191
228.0493, 1406.735
228.5314, 1382.528
229.0135, 1375.424
229.4957, 1379.662
229.9778, 1390.681
230.4599, 1406.798
230.9420, 1423.810
231.4241, 1430.582
231.9062, 1419.044
232.3884, 1410.762
232.8705, 1407.518
233.3526, 1408.679
233.8347, 1415.388
234.3168, 1427.714
234.7989, 1441.299
235.2811, 1448.286
235.7632, 1445.959
236.2453, 1443.278
236.7274, 1438.194
237.2095, 1434.934
237.6916, 1437.326
238.1738, 1445.665
238.6559, 1456.080
239.1380, 1464.132
239.6201, 1469.621
240.1022, 1473.419
240.5843, 1475.615
241.0665, 1476.082
241.5486, 1472.373
242.0307, 1465.828
242.5128, 1461.920
242.9949, 1467.682
243.4770, 1484.386
243.9592, 1495.539
244.4413, 1498.438
244.9234, 1497.816
245.4055, 1491.452
245.8876, 1482.544
246.3697, 1478.825
246.8519, 1488.841
247.3340, 1510.053
247.8161, 1517.929
248.2982, 1498.279
248.7803, 1484.139
249.2624, 1490.974
249.7446, 1509.703
250.2267, 1525.441
250.7088, 1529.985
251.1909, 1526.742
251.6730, 1525.116
252.1551, 1524.636
252.6373, 1526.965
253.1194, 1537.871
253.6015, 1549.443
254.0836, 1551.732
254.5657, 1539.840
255.0478, 1522.483
255.5300, 1513.887
256.0121, 1516.348
256.4942, 1518.998
256.9763, 1520.110
257.4584, 1519.441
257.9406, 1516.044
258.4227, 1509.634
258.9048, 1502.599
259.3869, 1497.754
259.8690, 1495.232
260.3511, 1491.273
260.8333, 1480.934
261.3154, 1472.935
261.7975, 1475.054
262.2796, 1486.913
262.7617, 1499.140
263.2438, 1506.913
263.7260, 1509.998
264.2081, 1505.854
264.6902, 1489.480
265.1723, 1473.092
265.6544, 1466.230
266.1365, 1466.704
266.6187, 1467.640
267.1008, 1465.796
267.5829, 1462.220
268.0650, 1458.768
268.5471, 1455.153
269.0292, 1452.759
269.5114, 1455.340
269.9935, 1459.609
270.4756, 1459.273
270.9577, 1448.142
271.4398, 1435.488
271.9219, 1433.729
272.4041, 1443.242
272.8862, 1450.493
273.3683, 1448.137
273.8504, 1439.318
274.3325, 1430.428
274.8146, 1420.562
275.2968, 1412.785
275.7789, 1408.551
276.2610, 1407.945
276.7431, 1411.791
277.2252, 1421.494
277.7073, 1434.422
278.1895, 1448.284
278.6716, 1465.563
279.1537, 1473.717
279.6358, 1460.677
280.1179, 1437.197
280.6000, 1421.271
281.0822, 1416.857
281.5643, 1420.060
282.0464, 1429.744
282.5285, 1447.102
283.0106, 1454.956
283.4927, 1440.182
283.9749, 1422.160
284.4570, 1422.691
284.9391, 1441.870
285.4212, 1457.354
285.9033, 1448.632
286.3854, 1416.267
286.8676, 1398.271
287.3497, 1404.837
287.8318, 1414.417
288.3139, 1416.629
288.7960, 1413.360
289.2781, 1411.082
289.7603, 1413.616
290.2424, 1419.457
290.7245, 1422.188
291.2066, 1422.343
291.6887, 1419.040
292.1708, 1406.809
292.6530, 1392.917
293.1351, 1387.510
293.6172, 1394.017
294.0993, 1406.349
294.5814, 1413.689
295.0635, 1412.560
295.5457, 1412.744
296.0278, 1414.093
296.5099, 1416.733
296.9920, 1423.661
297.4741, 1433.464
297.9562, 1438.479
298.4384, 1428.765
298.9205, 1400.205
299.4026, 1385.835
299.8847, 1398.054
300.3668, 1411.604
300.8489, 1417.961
301.3311, 1418.874
301.8131, 1419.818
302.2953, 1424.567
302.7774, 1432.080
303.2595, 1437.082
303.7416, 1439.226
304.2237, 1439.005
304.7058, 1436.028
305.1880, 1431.265
305.6701, 1425.029
306.1522, 1417.338
306.6343, 1410.147
307.1164, 1406.640
307.5985, 1407.213
308.0807, 1410.074
308.5628, 1419.794
309.0449, 1428.292
309.5270, 1429.189
310.0091, 1422.489
310.4912, 1415.099
310.9734, 1414.952
311.4555, 1420.912
311.9376, 1418.184
312.4197, 1393.984
312.9018, 1378.734
313.3839, 1401.380
313.8661, 1447.636
314.3482, 1479.682
314.8303, 1473.352
315.3124, 1445.573
315.7945, 1424.438
316.2766, 1410.366
316.7588, 1400.547
317.2409, 1393.383
317.7230, 1390.033
318.2051, 1393.167
318.6872, 1406.738
319.1693, 1420.425
319.6515, 1425.839
320.1336, 1424.488
320.6157, 1423.166
321.0978, 1424.069
321.5799, 1426.103
322.0620, 1426.561
322.5442, 1424.268
323.0263, 1426.673
323.5084, 1443.081
323.9905, 1462.329
324.4726, 1467.849
324.9547, 1456.949
325.4369, 1442.819
325.9190, 1438.299
326.4011, 1444.604
326.8832, 1447.300
327.3653, 1444.918
327.8474, 1440.465
328.3296, 1432.659
328.8117, 1423.786
329.2938, 1420.836
329.7759, 1428.807
330.2580, 1444.243
330.7401, 1451.182
331.2223, 1437.388
331.7044, 1430.284
332.1865, 1439.410
332.6686, 1453.528
333.1507, 1460.131
333.6328, 1455.567
334.1150, 1445.601
334.5971, 1438.636
335.0792, 1435.902
335.5613, 1433.008
336.0434, 1423.940
336.5255, 1419.930
337.0077, 1431.374
337.4898, 1454.097
337.9719, 1474.461
338.4540, 1481.184
338.9361, 1475.746
339.4182, 1471.010
339.9004, 1464.708
340.3825, 1462.910
340.8646, 1468.205
341.3467, 1478.090
341.8288, 1490.629
342.3109, 1505.962
342.7931, 1519.758
343.2752, 1522.790
343.7573, 1512.576
344.2394, 1509.709
344.7215, 1526.149
345.2036, 1546.221
345.6858, 1558.996
346.1679, 1563.786
346.6500, 1562.044
347.1321, 1546.427
347.6142, 1525.068
348.0963, 1523.266
348.5785, 1548.408
349.0606, 1577.897
349.5427, 1593.235
350.0248, 1598.603
350.5069, 1605.891
350.9890, 1621.046
351.4712, 1635.832
351.9533, 1643.386
352.4354, 1644.506
352.9175, 1642.864
353.3996, 1638.996
353.8817, 1634.797
354.3639, 1635.628
354.8460, 1642.219
355.3281, 1650.807
355.8102, 1663.015
356.2923, 1675.686
356.7744, 1683.385
357.2566, 1685.424
357.7387, 1688.285
358.2208, 1700.206
358.7029, 1724.360
359.1850, 1739.575
359.6671, 1743.299
360.1493, 1742.106
360.6314, 1734.878
361.1135, 1725.187
361.5956, 1720.398
362.0777, 1725.419
362.5598, 1736.512
363.0420, 1739.684
363.5241, 1728.627
364.0062, 1719.501
364.4883, 1717.361
364.9704, 1715.806
365.4525, 1708.227
365.9347, 1693.774
366.4168, 1678.514
366.8989, 1671.720
367.3810, 1674.390
367.8631, 1667.055
368.3452, 1639.746
368.8274, 1613.177
369.3095, 1598.205
369.7916, 1591.911
370.2737, 1586.883
370.7558, 1578.456
371.2379, 1570.272
371.7201, 1570.588
372.2022, 1580.630
372.6843, 1587.214
373.1664, 1583.016
373.6485, 1573.056
374.1306, 1565.041
374.6128, 1559.306
375.0949, 1555.117
375.5770, 1553.461
376.0591, 1552.899
376.5412, 1550.386
377.0233, 1545.185
377.5055, 1538.950
377.9876, 1533.233
378.4697, 1528.118
378.9518, 1522.995
379.4339, 1517.414
379.9160, 1512.242
380.3982, 1508.500
380.8803, 1505.669
381.3624, 1502.518
381.8445, 1498.455
382.3266, 1493.371
382.8087, 1486.755
383.2909, 1474.596
383.7730, 1466.411
384.2551, 1462.337
384.7372, 1462.276
385.2193, 1469.192
385.7014, 1481.761
386.1836, 1491.978
386.6657, 1490.372
387.1478, 1476.165
387.6299, 1465.295
388.1120, 1460.628
388.5941, 1456.082
389.0763, 1445.973
389.5584, 1435.528
390.0405, 1434.281
390.5226, 1448.152
391.0047, 1467.342
391.4868, 1475.774
391.9690, 1472.255
392.4511, 1468.902
392.9332, 1468.070
393.4153, 1469.411
393.8974, 1473.569
394.3795, 1480.454
394.8617, 1485.253
395.3438, 1483.380
395.8259, 1478.686
396.3080, 1477.913
396.7901, 1481.802
397.2722, 1486.741
397.7544, 1490.831
398.2365, 1493.830
398.7186, 1495.190
399.2007, 1495.024
399.6828, 1493.154
400.1649, 1486.928
400.6471, 1479.547
401.1292, 1476.353
401.6113, 1479.111
402.0934, 1486.118
402.5755, 1495.976
403.0576, 1513.098
403.5398, 1518.546
404.0219, 1502.352
404.5040, 1485.473
404.9861, 1478.095
405.4682, 1479.122
405.9503, 1483.383
406.4325, 1487.710
406.9146, 1492.568
407.3967, 1500.146
407.8788, 1513.575
408.3609, 1523.151
408.8430, 1526.815
409.3252, 1526.443
409.8073, 1521.234
410.2894, 1511.746
410.7715, 1504.426
411.2536, 1505.364
411.7357, 1513.417
412.2179, 1523.794
412.7000, 1538.153
413.1821, 1550.019
413.6642, 1552.484
414.1463, 1549.370
414.6284, 1547.787
415.1106, 1549.102
415.5927, 1552.230
416.0748, 1555.509
416.5569, 1559.835
417.0390, 1569.632
417.5211, 1587.791
418.0033, 1606.628
418.4854, 1613.581
418.9675, 1603.303
419.4496, 1599.199
419.9317, 1608.562
420.4138, 1618.973
420.8960, 1618.837
421.3781, 1611.670
421.8602, 1611.340
422.3423, 1627.854
422.8244, 1655.941
423.3065, 1672.729
423.7887, 1672.679
424.2708, 1669.239
424.7529, 1658.897
425.2350, 1649.356
425.7171, 1647.348
426.1992, 1653.511
426.6814, 1663.122
427.1635, 1672.876
427.6456, 1682.666
428.1277, 1689.696
428.6098, 1691.518
429.0919, 1695.305
429.5741, 1706.821
430.0562, 1722.084
430.5383, 1735.332
431.0204, 1745.098
431.5025, 1752.852
431.9846, 1760.439
432.4668, 1767.133
432.9489, 1769.567
433.4310, 1766.013
433.9131, 1760.928
434.3952, 1759.532
434.8773, 1762.218
435.3595, 1765.027
435.8416, 1768.806
436.3237, 1771.709
436.8058, 1771.379
437.2879, 1769.224
437.7701, 1768.482
438.2522, 1770.727
438.7343, 1775.976
439.2164, 1784.890
439.6985, 1804.034
440.1806, 1814.753
440.6628, 1811.035
441.1449, 1804.633
441.6270, 1804.132
442.1091, 1808.532
442.5912, 1810.073
443.0733, 1799.981
443.5555, 1783.632
444.0376, 1785.092
444.5197, 1813.446
445.0018, 1834.074
445.4839, 1822.823
445.9660, 1802.974
446.4482, 1799.841
446.9303, 1819.029
447.4124, 1834.788
447.8945, 1829.275
448.3766, 1809.554
448.8587, 1787.190
449.3409, 1762.900
449.8230, 1746.573
450.3051, 1749.912
450.7872, 1769.768
451.2693, 1774.126
451.7514, 1747.681
452.2336, 1724.802
452.7157, 1720.046
453.1978, 1724.459
453.6799, 1726.765
454.1620, 1723.326
454.6441, 1714.698
455.1263, 1699.851
455.6084, 1675.701
456.0905, 1662.930
456.5726, 1670.976
457.0547, 1681.415
457.5368, 1692.973
458.0190, 1702.295
458.5011, 1703.272
458.9832, 1691.997
459.4653, 1678.005
459.9474, 1675.964
460.4295, 1686.074
460.9117, 1695.030
461.3938, 1700.521
461.8759, 1703.834
462.3580, 1705.310
462.8401, 1705.395
463.3222, 1706.548
463.8044, 1710.660
464.2865, 1715.164
464.7686, 1717.418
465.2507, 1717.957
465.7328, 1719.070
466.2149, 1721.788
466.6971, 1725.399
467.1792, 1728.112
467.6613, 1726.438
468.1434, 1731.896
468.6255, 1750.140
469.1076, 1770.469
469.5898, 1787.933
470.0719, 1801.619
470.5540, 1811.083
471.0361, 1815.851
471.5182, 1816.939
472.0003, 1816.484
472.4825, 1812.287
472.9646, 1812.592
473.4467, 1826.709
473.9288, 1840.441
474.4109, 1843.283
474.8930, 1835.570
475.3752, 1826.875
475.8573, 1823.998
476.3394, 1823.111
476.8215, 1815.702
477.3036, 1801.532
477.7857, 1791.568
478.2679, 1792.217
478.7500, 1799.783
479.2321, 1806.481
479.7142, 1815.630
480.1963, 1816.322
480.6784, 1801.250
481.1606, 1780.345
481.6427, 1760.339
482.1248, 1743.019
482.6069, 1730.334
483.0890, 1724.136
483.5711, 1723.211
484.0533, 1720.866
484.5354, 1718.231
485.0175, 1712.022
485.4996, 1696.754
485.9817, 1681.701
486.4638, 1677.309
486.9460, 1683.006
487.4281, 1685.501
487.9102, 1670.568
488.3923, 1644.624
488.8744, 1627.454
489.3565, 1620.206
489.8387, 1616.112
490.3208, 1612.213
490.8029, 1609.358
491.2850, 1609.350
491.7671, 1613.491
492.2492, 1616.670
492.7314, 1617.811
493.2135, 1616.715
493.6956, 1612.842
494.1777, 1606.323
494.6598, 1597.678
495.1419, 1586.708
495.6241, 1574.363
496.1062, 1566.668
496.5883, 1568.164
497.0704, 1568.133
497.5525, 1560.608
498.0346, 1554.539
498.5168, 1560.748
498.9989, 1578.247
499.4810, 1593.064
499.9631, 1592.151
500.4452, 1579.406
500.9273, 1568.248
501.4095, 1557.706
501.8916, 1553.288
502.3737, 1562.207
502.8558, 1575.898
503.3379, 1580.535
503.8200, 1574.036
504.3022, 1566.217
504.7843, 1560.008
505.2664, 1554.829
505.7485, 1550.051
506.2306, 1545.654
506.7127, 1541.950
507.1949, 1538.942
507.6770, 1537.030
508.1591, 1538.179
508.6412, 1548.805
509.1233, 1552.871
509.6054, 1543.259
510.0876, 1531.948
510.5697, 1529.279
511.0518, 1534.213
511.5339, 1537.196
512.0161, 1530.050
512.4982, 1516.881
512.9803, 1508.051
513.4624, 1503.474
513.9445, 1504.908
514.4266, 1518.730
514.9088, 1533.891
515.3909, 1534.034
515.8730, 1517.666
516.3551, 1506.206
516.8372, 1511.888
517.3193, 1521.034
517.8015, 1519.585
518.2836, 1509.399
518.7657, 1501.234
519.2478, 1500.953
519.7299, 1505.472
520.2120, 1507.277
520.6942, 1503.118
521.1763, 1502.535
521.6584, 1511.648
522.1405, 1518.228
522.6226, 1510.116
523.1047, 1494.044
523.5869, 1488.679
524.0690, 1507.055
524.5511, 1533.688
525.0332, 1543.881
525.5153, 1537.698
525.9974, 1523.716
526.4796, 1497.364
526.9617, 1474.530
527.4438, 1477.708
527.9259, 1503.307
528.4080, 1520.970
528.8901, 1521.810
529.3723, 1518.231
529.8544, 1516.782
530.3365, 1516.378
530.8186, 1514.382
531.3007, 1509.897
531.7828, 1503.948
532.2650, 1497.110
532.7471, 1488.120
533.2292, 1486.098
533.7113, 1497.709
534.1934, 1508.882
534.6755, 1518.245
535.1577, 1523.536
535.6398, 1519.982
536.1219, 1505.220
536.6040, 1490.978
537.0861, 1490.667
537.5682, 1499.750
538.0504, 1502.416
538.5325, 1495.899
539.0146, 1489.932
539.4967, 1490.773
539.9788, 1497.960
540.4609, 1508.854
540.9431, 1538.206
541.4252, 1550.983
541.9073, 1527.520
542.3894, 1492.519
542.8715, 1467.090
543.3536, 1454.488
543.8358, 1449.937
544.3179, 1450.973
544.8000, 1455.619
545.2821, 1453.869
545.7642, 1441.142
546.2463, 1434.643
546.7285, 1444.411
547.2106, 1457.929
547.6927, 1467.819
548.1748, 1473.306
548.6569, 1472.141
549.1390, 1458.200
549.6211, 1440.688
550.1032, 1428.759
550.5853, 1422.125
551.0674, 1419.032
551.5496, 1418.964
552.0317, 1421.080
552.5138, 1424.535
552.9959, 1431.260
553.4780, 1432.590
553.9601, 1421.995
554.4423, 1413.784
554.9244, 1412.829
555.4065, 1418.309
555.8886, 1430.990
556.3707, 1451.545
556.8528, 1469.292
557.3350, 1467.572
557.8171, 1449.354
558.2992, 1440.567
558.7813, 1447.053
559.2634, 1451.735
559.7455, 1440.835
560.2277, 1419.734
560.7098, 1406.343
561.1919, 1403.831
561.6740, 1403.630
562.1561, 1401.890
562.6382, 1401.864
563.1204, 1407.071
563.6025, 1417.699
564.0846, 1433.362
564.5667, 1455.672
565.0488, 1479.701
565.5309, 1484.278
566.0131, 1459.292
566.4952, 1440.411
566.9773, 1436.293
567.4594, 1438.266
567.9415, 1444.716
568.4236, 1453.521
568.9058, 1456.927
569.3879, 1445.877
569.8700, 1433.218
570.3521, 1433.568
570.8342, 1443.473
571.3163, 1451.950
571.7985, 1455.821
572.2806, 1455.234
572.7627, 1448.822
573.2448, 1434.828
573.7269, 1431.707
574.2090, 1451.248
574.6912, 1466.988
575.1733, 1471.442
575.6554, 1469.140
576.1375, 1463.134
576.6196, 1454.990
577.1017, 1450.203
577.5839, 1457.024
578.0660, 1471.147
578.5481, 1476.323
579.0302, 1470.984
579.5123, 1469.359
579.9944, 1481.400
580.4766, 1497.854
580.9587, 1498.687
581.4408, 1479.452
581.9229, 1466.424
582.4050, 1468.999
582.8871, 1473.650
583.3693, 1469.278
583.8514, 1460.085
584.3335, 1456.418
584.8156, 1463.053
585.2977, 1476.024
585.7798, 1491.480
586.2620, 1510.325
586.7441, 1519.718
587.2262, 1514.328
587.7083, 1507.300
588.1904, 1505.810
588.6725, 1507.691
589.1547, 1509.833
589.6368, 1512.258
590.1189, 1513.779
590.6010, 1513.056
591.0831, 1511.523
591.5652, 1510.043
592.0474, 1509.264
592.5295, 1511.556
593.0116, 1518.796
593.4937, 1529.354
593.9758, 1539.285
594.4579, 1552.465
594.9401, 1555.668
595.4222, 1532.693
595.9043, 1513.250
596.3864, 1514.501
596.8685, 1531.189
597.3506, 1548.743
597.8328, 1562.099
598.3149, 1573.962
598.7970, 1587.660
599.2791, 1601.743
599.7612, 1611.534
600.2433, 1616.153
600.7255, 1621.415
601.2076, 1633.446
601.6897, 1650.458
602.1718, 1657.825
602.6539, 1650.423
603.1360, 1639.773
603.6182, 1619.609
604.1003, 1602.158
604.5824, 1599.142
605.0645, 1608.151
605.5466, 1616.465
606.0287, 1616.829
606.5109, 1612.527
606.9930, 1609.346
607.4751, 1606.559
607.9572, 1596.708
608.4393, 1575.796
608.9214, 1555.860
609.4036, 1550.605
609.8857, 1560.100
610.3678, 1561.192
610.8499, 1542.054
611.3320, 1530.290
611.8141, 1540.375
612.2963, 1555.782
612.7784, 1560.449
613.2605, 1552.468
613.7426, 1538.385
614.2247, 1519.833
614.7068, 1501.411
615.1890, 1498.091
615.6711, 1510.880
616.1532, 1514.832
616.6353, 1499.011
617.1174, 1478.614
617.5995, 1471.315
618.0817, 1477.431
618.5638, 1480.908
619.0459, 1479.951
619.5280, 1477.640
620.0101, 1473.227
620.4922, 1469.084
620.9744, 1469.973
621.4565, 1475.592
621.9386, 1478.181
622.4207, 1468.417
622.9028, 1451.031
623.3849, 1446.574
623.8671, 1457.807
624.3492, 1465.618
624.8313, 1462.515
625.3134, 1455.557
625.7955, 1452.785
626.2776, 1453.925
626.7598, 1455.991
627.2419, 1460.158
627.7240, 1463.454
628.2061, 1465.681
628.6882, 1465.536
629.1703, 1458.980
629.6525, 1446.329
630.1346, 1435.713
630.6167, 1436.234
631.0988, 1445.481
631.5809, 1450.883
632.0630, 1453.359
632.5452, 1447.682
633.0273, 1425.244
633.5094, 1400.667
633.9915, 1390.326
634.4736, 1393.540
634.9557, 1399.743
635.4379, 1409.990
635.9200, 1419.442
636.4021, 1426.874
636.8842, 1431.167
637.3663, 1429.769
637.8484, 1422.594
638.3306, 1413.064
638.8127, 1402.898
639.2948, 1393.646
639.7769, 1398.430
640.2590, 1424.694
640.7411, 1437.688
641.2233, 1416.765
641.7054, 1388.768
642.1875, 1382.495
642.6696, 1396.199
643.1517, 1409.213
643.6339, 1420.155
644.1160, 1426.301
644.5981, 1424.498
645.0802, 1417.588
645.5623, 1406.850
646.0444, 1394.188
646.5266, 1388.142
647.0087, 1399.313
647.4908, 1422.181
647.9729, 1428.865
648.4550, 1414.730
648.9371, 1402.581
649.4193, 1397.246
649.9014, 1396.978
650.3835, 1402.252
650.8656, 1411.970
651.3477, 1418.250
651.8298, 1418.105
652.3120, 1416.182
652.7941, 1414.183
653.2762, 1411.944
653.7583, 1408.081
654.2404, 1403.132
654.7225, 1401.245
655.2047, 1406.998
655.6868, 1416.702
656.1689, 1416.793
656.6510, 1405.280
657.1331, 1396.557
657.6152, 1394.693
658.0974, 1394.886
658.5795, 1391.187
659.0616, 1385.380
659.5437, 1386.111
660.0258, 1400.906
660.5079, 1413.941
660.9901, 1418.772
661.4722, 1419.876
661.9543, 1422.350
662.4364, 1426.145
662.9185, 1427.749
663.4006, 1424.612
663.8828, 1418.446
664.3649, 1411.670
664.8470, 1404.123
665.3291, 1401.780
665.8112, 1407.041
666.2933, 1414.126
666.7755, 1418.955
667.2576, 1422.083
667.7397, 1426.485
668.2218, 1439.549
668.7039, 1441.964
669.1860, 1418.791
669.6682, 1392.834
670.1503, 1380.529
670.6324, 1381.383
671.1145, 1389.094
671.5966, 1401.047
672.0787, 1414.906
672.5609, 1430.249
673.0430, 1445.709
673.5251, 1450.320
674.0072, 1441.932
674.4893, 1428.510
674.9714, 1411.792
675.4536, 1395.512
675.9357, 1390.189
676.4178, 1402.594
676.8999, 1411.177
677.3820, 1413.367
677.8641, 1413.701
678.3463, 1414.001
678.8284, 1414.240
679.3105, 1414.099
679.7926, 1413.476
680.2747, 1412.246
680.7568, 1409.208
681.2390, 1405.748
681.7211, 1407.266
682.2032, 1413.403
682.6853, 1413.013
683.1674, 1399.742
683.6495, 1382.657
684.1317, 1375.774
684.6138, 1380.661
685.0959, 1387.627
685.5780, 1404.626
686.0601, 1414.152
686.5422, 1405.507
687.0244, 1391.268
687.5065, 1384.647
687.9886, 1387.037
688.4707, 1390.811
688.9528, 1391.347
689.4349, 1391.286
689.9171, 1395.874
690.3992, 1402.369
690.8813, 1400.768
691.3634, 1388.605
691.8455, 1376.631
692.3276, 1376.340
692.8098, 1386.019
693.2919, 1390.284
693.7740, 1386.349
694.2561, 1383.123
694.7382, 1380.620
695.2203, 1380.863
695.7025, 1387.645
696.1846, 1398.699
696.6667, 1405.204
697.1488, 1398.898
697.6309, 1396.744
698.1130, 1416.677
698.5952, 1440.784
699.0773, 1445.851
699.5594, 1431.495
700.0415, 1407.951
700.5236, 1379.458
701.0057, 1356.290
701.4879, 1366.930
701.9700, 1414.037
702.4521, 1437.307
702.9342, 1424.204
703.4163, 1405.282
703.8984, 1394.834
704.3806, 1392.342
704.8627, 1397.560
705.3448, 1415.203
705.8269, 1426.524
706.3090, 1424.967
706.7911, 1420.451
707.2733, 1419.467
707.7554, 1419.464
708.2375, 1413.709
708.7196, 1400.640
709.2017, 1389.907
709.6838, 1392.565
710.1660, 1404.025
710.6481, 1413.465
711.1302, 1420.736
711.6123, 1426.384
712.0944, 1430.823
712.5765, 1432.738
713.0587, 1430.297
713.5408, 1423.353
714.0229, 1415.092
714.5050, 1402.561
714.9871, 1392.876
715.4692, 1390.123
715.9514, 1388.236
716.4335, 1379.658
716.9156, 1366.672
717.3977, 1361.211
717.8798, 1374.016
718.3619, 1387.373
718.8441, 1383.608
719.3262, 1372.203
719.8083, 1370.279
720.2904, 1379.058
720.7725, 1388.142
721.2546, 1390.305
721.7368, 1389.244
722.2189, 1395.556
722.7010, 1411.526
723.1831, 1418.155
723.6652, 1409.437
724.1473, 1400.246
724.6295, 1397.799
725.1116, 1400.965
725.5937, 1408.625
726.0758, 1424.515
726.5579, 1431.509
727.0400, 1415.674
727.5222, 1401.127
728.0043, 1406.687
728.4864, 1421.623
728.9685, 1427.841
729.4506, 1420.592
729.9327, 1407.973
730.4149, 1393.138
730.8970, 1379.840
731.3791, 1378.188
731.8612, 1387.158
732.3433, 1397.944
732.8254, 1408.609
733.3076, 1416.342
733.7897, 1417.358
734.2718, 1412.442
734.7539, 1412.316
735.2360, 1421.818
735.7181, 1428.000
736.2003, 1428.035
736.6824, 1425.766
737.1645, 1423.786
737.6466, 1421.407
738.1287, 1415.358
738.6108, 1400.506
739.0930, 1392.320
739.5751, 1406.015
740.0572, 1426.661
740.5393, 1437.612
741.0214, 1439.073
741.5035, 1438.506
741.9857, 1439.412
742.4678, 1437.329
742.9499, 1421.273
743.4320, 1393.256
743.9141, 1383.756
744.3962, 1396.873
744.8784, 1407.231
745.3605, 1402.678
745.8426, 1394.403
746.3247, 1398.163
746.8068, 1415.632
747.2889, 1429.906
747.7711, 1448.703
748.2532, 1454.743
748.7353, 1430.482
749.2174, 1401.834
749.6995, 1394.583
750.1816, 1405.964
750.6638, 1413.521
751.1459, 1403.135
751.6280, 1392.017
752.1101, 1400.670
752.5922, 1418.243
753.0743, 1421.769
753.5565, 1410.828
754.0386, 1403.387
754.5207, 1410.467
755.0028, 1423.490
755.4849, 1424.892
755.9670, 1413.111
756.4492, 1403.802
756.9313, 1396.436
757.4134, 1393.790
757.8955, 1399.343
758.3776, 1408.576
758.8597, 1415.219
759.3419, 1419.365
759.8240, 1420.807
760.3061, 1419.330
760.7882, 1415.367
761.2703, 1405.966
761.7524, 1396.201
762.2346, 1391.884
762.7167, 1392.917
763.1988, 1394.452
763.6809, 1393.010
764.1630, 1392.185
764.6451, 1398.325
765.1273, 1407.936
765.6094, 1411.530
766.0915, 1408.315
766.5736, 1404.838
767.0557, 1405.231
767.5378, 1407.387
768.0200, 1405.935
768.5021, 1399.495
768.9842, 1398.111
769.4663, 1403.611
769.9484, 1410.875
770.4305, 1422.380
770.9127, 1431.223
771.3948, 1424.581
771.8769, 1400.782
772.3590, 1385.039
772.8411, 1383.021
773.3232, 1386.273
773.8054, 1395.069
774.2875, 1405.171
774.7696, 1413.847
775.2517, 1419.766
775.7338, 1419.913
776.2159, 1409.975
776.6981, 1399.276
777.1802, 1401.114
777.6623, 1409.483
778.1444, 1408.998
778.6265, 1399.066
779.1086, 1391.027
779.5908, 1391.358
780.0729, 1396.370
780.5550, 1399.647
781.0371, 1401.115
781.5192, 1401.123
782.0013, 1398.550
782.4835, 1397.408
782.9656, 1398.560
783.4477, 1402.511
783.9298, 1411.617
784.4119, 1426.093
784.8940, 1435.696
785.3762, 1435.101
785.8583, 1435.888
786.3404, 1446.051
786.8225, 1454.999
787.3046, 1454.136
787.7867, 1443.618
788.2689, 1425.648
788.7510, 1397.172
789.2331, 1374.494
789.7152, 1374.642
790.1973, 1387.638
790.6794, 1399.548
791.1616, 1408.978
791.6437, 1417.676
792.1258, 1426.470
792.6079, 1432.315
793.0900, 1429.304
793.5721, 1418.908
794.0543, 1416.867
794.5364, 1424.700
795.0185, 1431.576
795.5006, 1435.052
795.9827, 1435.194
796.4648, 1431.593
796.9470, 1424.504
797.4291, 1416.844
797.9112, 1399.439
798.3933, 1394.955
798.8754, 1419.521
799.3575, 1442.254
799.8397, 1442.468
800.3218, 1428.935
800.8039, 1419.397
801.2860, 1418.145
801.7681, 1419.180
802.2502, 1418.865
802.7324, 1420.104
803.2145, 1428.200
803.6966, 1439.004
804.1787, 1444.158
804.6608, 1441.976
805.1429, 1437.846
805.6251, 1436.672
806.1072, 1436.040
806.5893, 1429.442
807.0714, 1417.919
807.5535, 1408.985
808.0356, 1403.797
808.5178, 1403.982
808.9999, 1412.174
809.4820, 1423.179
809.9641, 1422.781
810.4462, 1406.173
810.9283, 1395.568
811.4105, 1390.934
811.8926, 1392.447
812.3747, 1408.410
812.8568, 1425.141
813.3389, 1422.306
813.8210, 1399.997
814.3032, 1391.538
814.7853, 1417.701
815.2674, 1438.171
815.7495, 1433.789
816.2316, 1422.005
816.7137, 1417.833
817.1959, 1421.116
817.6780, 1425.633
818.1601, 1429.234
818.6422, 1431.327
819.1243, 1430.672
819.6064, 1428.629
820.0886, 1426.134
820.5707, 1424.138
821.0528, 1427.145
821.5349, 1436.362
822.0170, 1442.953
822.4991, 1436.119
822.9813, 1419.151
823.4634, 1404.428
823.9455, 1391.577
824.4276, 1387.855
824.9097, 1396.340
825.3918, 1408.311
825.8740, 1418.613
826.3561, 1426.324
826.8382, 1427.644
827.3203, 1417.250
827.8024, 1412.827
828.2845, 1419.949
828.7667, 1426.235
829.2488, 1426.337
829.7309, 1423.770
830.2130, 1422.219
830.6951, 1421.955
831.1772, 1423.175
831.6594, 1433.951
832.1415, 1436.400
832.6236, 1410.832
833.1057, 1381.941
833.5878, 1378.707
834.0699, 1395.823
834.5521, 1406.729
835.0342, 1398.474
835.5163, 1387.644
835.9984, 1389.144
836.4805, 1398.311
836.9626, 1411.454
837.4448, 1425.404
837.9269, 1429.639
838.4090, 1421.049
838.8911, 1409.017
839.3732, 1402.843
839.8553, 1401.660
840.3375, 1402.344
840.8196, 1404.892
841.3017, 1410.937
841.7838, 1422.400
842.2659, 1428.607
842.7480, 1420.275
843.2302, 1404.385
843.7123, 1398.902
844.1944, 1407.485
844.6765, 1414.244
845.1586, 1417.639
845.6407, 1421.513
846.1229, 1434.009
846.6050, 1442.763
847.0871, 1427.985
847.5692, 1392.914
848.0513, 1378.491
848.5334, 1411.226
849.0156, 1436.782
849.4977, 1436.460
849.9798, 1427.095
850.4619, 1416.389
850.9440, 1408.452
851.4261, 1410.723
851.9083, 1426.238
852.3904, 1439.908
852.8725, 1440.798
853.3546, 1435.860
853.8367, 1431.579
854.3188, 1427.498
854.8010, 1419.529
855.2831, 1408.614
855.7652, 1405.642
856.2473, 1421.035
856.7294, 1441.727
857.2115, 1441.653
857.6937, 1426.208
858.1758, 1420.692
858.6579, 1427.175
859.1400, 1431.777
859.6221, 1427.656
860.1042, 1421.642
860.5864, 1424.194
861.0685, 1434.833
861.5506, 1439.934
862.0327, 1437.575
862.5148, 1437.682
862.9969, 1444.640
863.4791, 1450.226
863.9612, 1447.438
864.4433, 1438.289
864.9254, 1429.603
865.4075, 1416.160
865.8896, 1414.179
866.3718, 1439.017
866.8539, 1456.503
867.3360, 1444.917
867.8181, 1426.052
868.3002, 1427.630
868.7823, 1449.548
869.2645, 1463.644
869.7466, 1457.346
870.2287, 1448.960
870.7108, 1443.912
871.1929, 1441.004
871.6750, 1437.483
872.1572, 1435.509
872.6393, 1443.036
873.1214, 1463.383
873.6035, 1476.882
874.0856, 1462.332
874.5677, 1439.366
875.0499, 1428.190
875.5320, 1426.351
876.0141, 1428.870
876.4962, 1433.852
876.9783, 1438.947
877.4604, 1442.593
877.9426, 1445.410
878.4247, 1449.828
878.9068, 1454.238
879.3889, 1450.984
879.8710, 1440.327
880.3531, 1430.344
880.8353, 1424.104
881.3174, 1423.918
881.7995, 1434.838
882.2816, 1453.406
882.7637, 1455.885
883.2458, 1439.790
883.7280, 1425.886
884.2101, 1417.512
884.6922, 1411.711
885.1743, 1406.164
885.6564, 1402.600
886.1385, 1405.160
886.6207, 1415.195
887.1028, 1425.480
887.5849, 1439.327
888.0670, 1447.907
888.5491, 1443.647
889.0313, 1437.823
889.5134, 1442.140
889.9955, 1453.703
890.4776, 1459.063
890.9597, 1452.986
891.4418, 1448.539
891.9240, 1450.176
892.4061, 1450.919
892.8882, 1443.560
893.3703, 1434.942
893.8524, 1436.672
894.3345, 1449.161
894.8167, 1457.205
895.2988, 1452.103
895.7809, 1444.216
896.2630, 1435.793
896.7451, 1429.830
897.2272, 1431.546
897.7094, 1438.172
898.1915, 1443.421
898.6736, 1445.090
899.1557, 1441.104
899.6378, 1423.514
900.1199, 1404.344
900.6021, 1400.718
901.0842, 1406.416
901.5663, 1405.214
902.0484, 1396.744
902.5305, 1398.062
903.0126, 1421.456
903.4948, 1449.157
903.9769, 1453.982
904.4590, 1441.992
904.9411, 1427.823
905.4232, 1413.898
905.9053, 1414.096
906.3875, 1432.723
906.8696, 1449.894
907.3517, 1445.073
907.8338, 1426.431
908.3159, 1421.628
908.7980, 1430.792
909.2802, 1435.970
909.7623, 1435.224
910.2444, 1430.188
910.7265, 1419.958
911.2086, 1411.267
911.6907, 1415.137
912.1729, 1431.331
912.6550, 1439.896
913.1371, 1438.129
913.6192, 1437.067
914.1013, 1437.344
914.5834, 1441.577
915.0656, 1456.328
915.5477, 1473.121
916.0298, 1470.274
916.5119, 1438.157
916.9940, 1422.776
917.4761, 1440.255
917.9583, 1451.650
918.4404, 1439.139
918.9225, 1424.837
919.4046, 1430.794
919.8867, 1449.960
920.3688, 1454.245
920.8510, 1428.677
921.3331, 1416.981
921.8152, 1438.622
922.2973, 1460.133
922.7794, 1465.931
923.2615, 1463.381
923.7437, 1458.474
924.2258, 1453.425
924.7079, 1455.764
925.1900, 1476.452
925.6721, 1490.491
926.1542, 1482.601
926.6364, 1468.844
927.1185, 1459.120
927.6006, 1454.029
928.0827, 1454.008
928.5648, 1458.516
929.0469, 1461.380
929.5291, 1456.329
930.0112, 1451.664
930.4933, 1455.120
930.9754, 1461.496
931.4575, 1462.083
931.9396, 1459.818
932.4218, 1466.927
932.9039, 1487.589
933.3860, 1505.172
933.8681, 1502.569
934.3502, 1491.082
934.8323, 1483.507
935.3145, 1478.843
935.7966, 1474.840
936.2787, 1471.351
936.7608, 1469.593
937.2429, 1470.226
937.7250, 1472.755
938.2072, 1480.157
938.6893, 1487.573
939.1714, 1477.826
939.6535, 1457.414
940.1356, 1454.552
940.6177, 1474.213
941.0999, 1498.106
941.5820, 1513.943
942.0641, 1523.433
942.5462, 1528.026
943.0283, 1528.791
943.5104, 1532.070
943.9926, 1537.721
944.4747, 1539.901
944.9568, 1536.730
945.4389, 1533.041
945.9210, 1533.617
946.4031, 1535.868
946.8853, 1530.238
947.3674, 1516.812
947.8495, 1515.288
948.3316, 1528.102
948.8137, 1539.144
949.2958, 1542.395
949.7780, 1540.002
950.2601, 1532.454
950.7422, 1522.611
951.2243, 1529.147
951.7064, 1556.986
952.1885, 1566.291
952.6707, 1546.779
953.1528, 1533.983
953.6349, 1546.814
954.1170, 1569.278
954.5991, 1579.163
955.0812, 1577.348
955.5634, 1586.076
956.0455, 1612.644
956.5276, 1626.540
957.0097, 1619.946
957.4918, 1608.623
957.9739, 1598.531
958.4561, 1591.339
958.9382, 1589.373
959.4203, 1592.484
959.9024, 1603.499
960.3845, 1627.886
960.8666, 1649.459
961.3488, 1668.094
961.8309, 1680.312
962.3130, 1682.620
962.7951, 1677.636
963.2772, 1668.973
963.7593, 1654.409
964.2415, 1648.087
964.7236, 1653.389
965.2057, 1662.026
965.6878, 1677.231
966.1699, 1690.911
966.6520, 1696.346
967.1342, 1696.861
967.6163, 1700.435
968.0984, 1708.866
968.5805, 1713.837
969.0626, 1714.289
969.5447, 1712.148
970.0269, 1707.530
970.5090, 1700.824
970.9911, 1689.383
971.4732, 1676.466
971.9553, 1671.438
972.4374, 1678.350
972.9196, 1681.645
973.4017, 1679.443
973.8838, 1672.996
974.3659, 1652.875
974.8480, 1636.964
975.3301, 1649.659
975.8123, 1679.533
976.2944, 1687.688
976.7765, 1659.176
977.2586, 1638.579
977.7407, 1643.780
978.2228, 1649.223
978.7050, 1641.853
979.1871, 1630.880
979.6692, 1625.547
980.1513, 1625.220
980.6334, 1625.188
981.1155, 1625.660
981.5977, 1622.566
982.0798, 1604.838
982.5619, 1594.793
983.0440, 1615.357
983.5261, 1641.171
984.0082, 1640.240
984.4904, 1617.847
984.9725, 1604.941
985.4546, 1612.852
985.9367, 1621.074
986.4188, 1623.732
986.9009, 1622.940
987.3831, 1614.405
987.8652, 1606.906
988.3473, 1614.657
988.8294, 1633.776
989.3115, 1643.553
989.7936, 1634.735
990.2758, 1625.144
990.7579, 1621.084
991.2400, 1619.692
991.7221, 1621.044
992.2042, 1622.741
992.6863, 1622.882
993.1685, 1620.776
993.6506, 1614.086
994.1327, 1597.820
994.6148, 1589.419
995.0969, 1605.996
995.5790, 1623.026
996.0612, 1625.013
996.5433, 1616.755
997.0254, 1600.669
997.5075, 1580.856
997.9896, 1569.609
998.4717, 1572.530
998.9539, 1580.122
999.4360, 1600.005
999.9181, 1610.230
1000.400, 1585.013
1000.882, 1547.703
1001.364, 1526.336
1001.847, 1522.782
1002.329, 1528.394
1002.811, 1546.616
1003.293, 1553.408
1003.775, 1523.866
1004.257, 1493.789
1004.739, 1490.974
1005.221, 1500.258
1005.703, 1503.163
1006.186, 1498.102
1006.668, 1489.425
1007.150, 1474.896
1007.632, 1469.590
1008.114, 1498.916
1008.596, 1519.238
1009.078, 1486.786
1009.560, 1439.434
1010.043, 1426.185
1010.525, 1443.542
1011.007, 1455.118
1011.489, 1446.951
1011.971, 1443.043
1012.453, 1462.457
1012.935, 1479.279
1013.417, 1473.279
1013.899, 1459.318
1014.382, 1453.912
1014.864, 1456.729
1015.346, 1460.387
1015.828, 1464.271
1016.310, 1462.809
1016.792, 1444.930
1017.274, 1431.701
1017.756, 1437.086
1018.239, 1450.873
1018.721, 1465.859
1019.203, 1479.229
1019.685, 1486.303
1020.167, 1484.830
1020.649, 1483.083
1021.131, 1487.832
1021.613, 1487.830
1022.095, 1470.211
1022.578, 1452.007
1023.060, 1454.435
1023.542, 1468.318
1024.024, 1465.343
1024.506, 1436.101
1024.988, 1418.264
1025.470, 1432.485
1025.952, 1445.517
1026.435, 1441.626
1026.917, 1434.873
1027.399, 1438.267
1027.881, 1447.236
1028.363, 1450.772
1028.845, 1447.071
1029.327, 1441.287
1029.809, 1428.012
1030.292, 1421.563
1030.774, 1431.173
1031.256, 1443.389
1031.738, 1448.780
1032.220, 1450.526
1032.702, 1455.537
1033.184, 1464.754
1033.666, 1470.601
1034.148, 1472.465
1034.630, 1470.662
1035.113, 1467.519
1035.595, 1458.222
1036.077, 1426.631
1036.559, 1394.292
1037.041, 1398.555
1037.523, 1441.204
1038.005, 1470.125
1038.487, 1479.715
1038.970, 1483.745
1039.452, 1476.464
1039.934, 1472.396
1040.416, 1482.474
1040.898, 1495.036
1041.380, 1494.240
1041.862, 1481.798
1042.344, 1476.978
1042.826, 1483.686
1043.309, 1489.536
1043.791, 1493.838
1044.273, 1497.951
1044.755, 1503.524
1045.237, 1507.367
1045.719, 1504.908
1046.201, 1498.302
1046.683, 1498.126
1047.166, 1507.695
1047.648, 1512.041
1048.130, 1509.178
1048.612, 1506.853
1049.094, 1508.001
1049.576, 1508.493
1050.058, 1503.925
1050.540, 1497.384
1051.022, 1498.733
1051.505, 1509.762
1051.987, 1508.295
1052.469, 1490.721
1052.951, 1485.320
1053.433, 1501.155
1053.915, 1517.048
1054.397, 1519.348
1054.879, 1511.328
1055.361, 1496.151
1055.844, 1475.426
1056.326, 1470.312
1056.808, 1480.698
1057.290, 1486.282
1057.772, 1483.556
1058.254, 1481.334
1058.736, 1484.529
1059.218, 1486.867
1059.701, 1479.137
1060.183, 1464.666
1060.665, 1452.904
1061.147, 1444.450
1061.629, 1444.776
1062.111, 1453.214
1062.593, 1459.440
1063.075, 1459.573
1063.557, 1459.685
1064.040, 1465.396
1064.522, 1475.119
1065.004, 1492.026
1065.486, 1508.460
1065.968, 1499.361
1066.450, 1471.885
1066.932, 1456.567
1067.414, 1460.315
1067.896, 1466.365
1068.379, 1462.868
1068.861, 1458.714
1069.343, 1466.916
1069.825, 1478.426
1070.307, 1481.018
1070.789, 1476.818
1071.271, 1468.627
1071.753, 1459.254
1072.236, 1456.156
1072.718, 1463.547
1073.200, 1471.361
1073.682, 1468.916
1074.164, 1467.471
1074.646, 1484.320
1075.128, 1501.968
1075.610, 1491.938
1076.093, 1464.750
1076.575, 1455.075
1077.057, 1472.598
1077.539, 1488.692
1078.021, 1489.451
1078.503, 1488.031
1078.985, 1490.736
1079.467, 1493.197
1079.949, 1489.227
1080.432, 1483.956
1080.914, 1487.737
1081.396, 1501.015
1081.878, 1509.518
1082.360, 1509.436
1082.842, 1506.394
1083.324, 1500.583
1083.806, 1492.751
1084.288, 1479.148
1084.771, 1466.769
1085.253, 1461.437
1085.735, 1472.416
1086.217, 1478.032
1086.699, 1478.572
1087.181, 1458.836
1087.663, 1465.283
1088.145, 1461.237
1088.628, 1456.757
1089.110, 1466.890
1089.592, 1450.102
1090.074, 1460.003
1090.556, 1459.250
1091.038, 1463.373
1091.520, 1456.938
1092.002, 1449.937
1092.484, 1448.481
1092.967, 1441.384
1093.449, 1436.783
1093.931, 1439.390
1094.413, 1442.766
1094.895, 1437.794
1095.377, 1427.944
1095.859, 1425.940
1096.341, 1431.141
1096.823, 1441.449
1097.306, 1455.287
1097.788, 1459.471
1098.270, 1450.421
1098.752, 1441.284
1099.234, 1442.601
1099.716, 1449.062
1100.198, 1454.431
1100.680, 1457.994
1101.163, 1458.266
1101.645, 1455.488
1102.127, 1447.658
1102.609, 1437.083
1103.091, 1435.191
1103.573, 1448.019
1104.055, 1458.077
1104.537, 1448.313
1105.020, 1432.021
1105.502, 1412.089
1105.984, 1399.871
1106.466, 1418.787
1106.948, 1453.483
1107.430, 1466.666
1107.912, 1451.578
1108.394, 1439.143
1108.876, 1445.328
1109.359, 1451.276
1109.841, 1449.219
1110.323, 1445.672
1110.805, 1446.019
1111.287, 1446.142
1111.769, 1439.148
1112.251, 1426.694
1112.733, 1418.580
1113.215, 1415.633
1113.698, 1417.361
1114.180, 1428.237
1114.662, 1436.360
1115.144, 1436.054
1115.626, 1437.105
1116.108, 1449.495
1116.590, 1463.973
1117.072, 1461.970
1117.555, 1443.367
1118.037, 1431.924
1118.519, 1429.777
1119.001, 1420.864
1119.483, 1401.084
1119.965, 1389.569
1120.447, 1394.727
1120.929, 1409.346
1121.411, 1427.550
1121.894, 1445.830
1122.376, 1453.822
1122.858, 1453.277
1123.340, 1454.634
1123.822, 1456.862
1124.304, 1448.340
1124.786, 1428.912
1125.268, 1418.934
1125.750, 1430.605
1126.233, 1445.313
1126.715, 1439.558
1127.197, 1426.567
1127.679, 1421.438
1128.161, 1423.774
1128.643, 1439.146
1129.125, 1459.712
1129.607, 1464.024
1130.090, 1448.317
1130.572, 1435.536
1131.054, 1438.164
1131.536, 1444.688
1132.018, 1455.687
1132.500, 1461.274
1132.982, 1448.347
1133.464, 1430.777
1133.947, 1426.048
1134.429, 1432.187
1134.911, 1435.310
1135.393, 1431.457
1135.875, 1432.499
1136.357, 1449.053
1136.839, 1455.543
1137.321, 1438.013
1137.803, 1424.269
1138.286, 1435.967
1138.768, 1452.795
1139.250, 1440.687
1139.732, 1405.131
1140.214, 1402.280
1140.696, 1438.814
1141.178, 1454.359
1141.660, 1443.118
1142.142, 1433.624
1142.625, 1435.291
1143.107, 1434.162
1143.589, 1417.971
1144.071, 1400.102
1144.553, 1408.720
1145.035, 1432.947
1145.517, 1437.916
1145.999, 1429.937
1146.482, 1429.417
1146.964, 1437.649
1147.446, 1448.242
1147.928, 1457.962
1148.410, 1457.901
1148.892, 1432.337
1149.374, 1409.996
1149.856, 1422.528
1150.339, 1444.985
1150.821, 1455.961
1151.303, 1457.816
1151.785, 1454.177
1152.267, 1447.615
1152.749, 1444.634
1153.231, 1447.964
1153.713, 1450.291
1154.195, 1455.240
1154.677, 1451.598
1155.160, 1423.547
1155.642, 1399.803
1156.124, 1402.459
1156.606, 1415.915
1157.088, 1415.834
1157.570, 1404.372
1158.052, 1408.377
1158.534, 1432.461
1159.017, 1452.431
1159.499, 1468.616
1159.981, 1468.513
1160.463, 1446.159
1160.945, 1425.391
1161.427, 1423.781
1161.909, 1431.870
1162.391, 1433.770
1162.874, 1432.137
1163.356, 1439.404
1163.838, 1450.324
1164.320, 1444.248
1164.802, 1424.153
1165.284, 1408.857
1165.766, 1405.166
1166.248, 1414.571
1166.730, 1445.385
1167.213, 1470.607
1167.695, 1461.635
1168.177, 1443.759
1168.659, 1438.144
1169.141, 1438.194
1169.623, 1433.783
1170.105, 1426.248
1170.587, 1421.577
1171.069, 1420.269
1171.552, 1426.645
1172.034, 1455.078
1172.516, 1470.047
1172.998, 1458.656
1173.480, 1443.795
1173.962, 1433.763
1174.444, 1426.221
1174.926, 1418.596
1175.409, 1411.588
1175.891, 1406.732
1176.373, 1403.495
1176.855, 1413.556
1177.337, 1437.495
1177.819, 1447.707
1178.301, 1439.419
1178.783, 1431.666
1179.266, 1433.730
1179.748, 1439.114
1180.230, 1442.474
1180.712, 1442.175
1181.194, 1430.566
1181.676, 1416.695
1182.158, 1419.387
1182.640, 1431.202
1183.122, 1434.866
1183.604, 1429.137
1184.087, 1421.634
1184.569, 1413.847
1185.051, 1414.616
1185.533, 1437.778
1186.015, 1456.951
1186.497, 1462.351
1186.979, 1458.560
1187.461, 1441.078
1187.944, 1421.506
1188.426, 1417.166
1188.908, 1425.417
1189.390, 1429.969
1189.872, 1430.109
1190.354, 1429.301
1190.836, 1428.039
1191.318, 1422.028
1191.801, 1408.729
1192.283, 1402.686
1192.765, 1412.901
1193.247, 1428.646
1193.729, 1437.026
1194.211, 1440.237
1194.693, 1442.545
1195.175, 1444.541
1195.657, 1448.866
1196.140, 1454.099
1196.622, 1456.211
1197.104, 1454.467
1197.586, 1449.343
1198.068, 1440.541
1198.550, 1433.763
1199.032, 1431.148
1199.514, 1433.441
1199.996, 1447.792
1200.479, 1460.266
1200.961, 1458.787
1201.443, 1449.146
1201.925, 1437.924
1202.407, 1426.742
1202.889, 1423.188
1203.371, 1431.368
1203.853, 1433.755
1204.336, 1428.144
1204.818, 1424.224
1205.300, 1424.622
1205.782, 1422.167
1206.264, 1411.638
1206.746, 1405.994
1207.228, 1423.240
1207.710, 1451.665
1208.193, 1464.896
1208.675, 1464.179
1209.157, 1444.495
1209.639, 1415.860
1210.121, 1408.917
1210.603, 1423.584
1211.085, 1434.438
1211.567, 1431.317
1212.049, 1429.038
1212.531, 1439.034
1213.014, 1449.191
1213.496, 1455.945
1213.978, 1457.484
1214.460, 1448.328
1214.942, 1436.296
1215.424, 1433.844
1215.906, 1436.599
1216.388, 1425.442
1216.871, 1395.108
1217.353, 1384.449
1217.835, 1397.304
1218.317, 1415.313
1218.799, 1437.718
1219.281, 1452.318
1219.763, 1453.778
1220.245, 1450.236
1220.728, 1448.890
1221.210, 1447.972
1221.692, 1445.036
1222.174, 1439.858
1222.656, 1428.700
1223.138, 1416.537
1223.620, 1416.412
1224.102, 1424.306
1224.584, 1424.377
1225.067, 1413.179
1225.549, 1402.988
1226.031, 1399.468
1226.513, 1396.944
1226.995, 1390.936
1227.477, 1388.887
1227.959, 1399.079
1228.441, 1408.937
1228.923, 1405.126
1229.406, 1398.999
1229.888, 1412.939
1230.370, 1443.697
1230.852, 1451.944
1231.334, 1436.456
1231.816, 1431.152
1232.298, 1437.416
1232.780, 1435.816
1233.263, 1422.468
1233.745, 1413.957
1234.227, 1419.822
1234.709, 1429.413
1235.191, 1432.260
1235.673, 1432.403
1236.155, 1432.115
1236.637, 1433.593
1237.120, 1442.878
1237.602, 1453.517
##END=



