##NAMES=Pseudoboleite
##RRUFFID=R050162
##IDEAL CHEMISTRY=Pb^2+^_31_Cu^2+^_24_Cl_62_(OH)_48_
##LOCALITY=Margarita mine, Sierra Gorda, Antofagasta, Chile
##OWNER=RRUFF
##SOURCE=Jim McGlasson
##DESCRIPTION=Blue crust, associated with yellow penfieldite, R050163
##STATUS=The identification of this mineral has been confirmed by single-crystal X-ray diffraction.
##URL=rruff.info/R050162
93.74609, 46.37307
94.22821, 43.99492
94.71033, 45.08920
95.19244, 49.13274
95.67456, 54.24530
96.15668, 59.89773
96.63879, 66.08246
97.12091, 72.76474
97.60303, 79.93473
98.08514, 87.79700
98.56726, 96.47997
99.04938, 106.0158
99.53149, 116.4694
100.0136, 127.7646
100.4957, 139.8428
100.9778, 153.0319
101.4600, 167.2569
101.9421, 182.5744
102.4242, 198.8732
102.9063, 216.5066
103.3884, 234.4929
103.8705, 252.0988
104.3527, 269.5305
104.8348, 286.6122
105.3169, 303.8007
105.7990, 320.8009
106.2811, 336.6790
106.7632, 351.1952
107.2454, 364.6902
107.7275, 377.1210
108.2096, 387.6669
108.6917, 398.5118
109.1738, 409.7364
109.6559, 421.3452
110.1381, 434.2280
110.6202, 448.3784
111.1023, 463.9232
111.5844, 480.9865
112.0665, 500.3423
112.5486, 520.6998
113.0308, 541.9336
113.5129, 564.3621
113.9950, 587.2066
114.4771, 611.1666
114.9592, 635.2447
115.4413, 658.3485
115.9235, 679.9368
116.4056, 700.5732
116.8877, 720.2895
117.3698, 739.6727
117.8519, 757.6703
118.3340, 774.0074
118.8162, 788.7175
119.2983, 801.8265
119.7804, 813.2652
120.2625, 823.3280
120.7446, 832.1484
121.2267, 839.7445
121.7089, 846.2693
122.1910, 851.3514
122.6731, 855.2372
123.1552, 859.0771
123.6373, 863.2767
124.1194, 867.8951
124.6016, 873.0726
125.0837, 878.4609
125.5658, 884.6153
126.0479, 892.0640
126.5300, 900.7999
127.0121, 910.6609
127.4943, 921.5036
127.9764, 933.3195
128.4585, 946.4086
128.9406, 961.2252
129.4227, 977.1982
129.9048, 993.2136
130.3869, 1009.254
130.8691, 1025.478
131.3512, 1042.444
131.8333, 1056.500
132.3154, 1064.416
132.7975, 1069.755
133.2796, 1074.112
133.7618, 1077.922
134.2439, 1081.373
134.7260, 1084.104
135.2081, 1085.350
135.6902, 1085.148
136.1723, 1084.382
136.6545, 1083.259
137.1366, 1081.796
137.6187, 1080.849
138.1008, 1080.493
138.5829, 1080.587
139.0650, 1080.773
139.5472, 1080.948
140.0293, 1081.403
140.5114, 1082.236
140.9935, 1083.369
141.4756, 1085.042
141.9577, 1087.412
142.4399, 1090.282
142.9220, 1092.677
143.4041, 1094.268
143.8862, 1095.909
144.3683, 1098.435
144.8504, 1102.696
145.3326, 1105.863
145.8147, 1107.324
146.2968, 1107.201
146.7789, 1107.209
147.2610, 1108.031
147.7431, 1108.454
148.2253, 1107.411
148.7074, 1104.094
149.1895, 1100.513
149.6716, 1097.218
150.1537, 1094.357
150.6358, 1090.441
151.1180, 1084.732
151.6001, 1078.282
152.0822, 1072.267
152.5643, 1067.571
153.0464, 1062.364
153.5285, 1056.187
154.0107, 1048.872
154.4928, 1041.443
154.9749, 1033.972
155.4570, 1026.350
155.9391, 1018.442
156.4212, 1010.041
156.9034, 1001.432
157.3855, 992.7486
157.8676, 984.2844
158.3497, 975.2877
158.8318, 965.2352
159.3139, 954.5971
159.7961, 944.0904
160.2782, 933.9063
160.7603, 923.9125
161.2424, 914.0344
161.7245, 904.2105
162.2066, 894.6178
162.6888, 885.4175
163.1709, 876.4810
163.6530, 867.5314
164.1351, 858.4351
164.6172, 849.2713
165.0993, 840.0786
165.5815, 830.7922
166.0636, 821.5153
166.5457, 812.3724
167.0278, 803.2224
167.5099, 793.6595
167.9921, 783.1513
168.4742, 772.2821
168.9563, 761.5479
169.4384, 750.9166
169.9205, 740.6107
170.4026, 731.1804
170.8848, 722.3459
171.3669, 713.0611
171.8490, 702.1854
172.3311, 690.6926
172.8132, 679.7440
173.2953, 669.8015
173.7775, 660.3724
174.2596, 650.9942
174.7417, 641.6660
175.2238, 632.6157
175.7059, 624.2567
176.1880, 616.3193
176.6702, 608.4240
177.1523, 600.2931
177.6344, 592.2224
178.1165, 584.4866
178.5986, 577.0177
179.0807, 569.9796
179.5629, 563.6780
180.0450, 557.8152
180.5271, 551.8156
181.0092, 545.2875
181.4913, 538.4890
181.9734, 531.9465
182.4556, 525.6597
182.9377, 519.4460
183.4198, 513.0811
183.9019, 506.5637
184.3840, 500.0513
184.8661, 493.4669
185.3483, 486.9223
185.8304, 480.4730
186.3125, 474.1432
186.7946, 467.9843
187.2767, 462.1515
187.7588, 456.5564
188.2409, 451.0037
188.7231, 445.2599
189.2052, 439.4572
189.6873, 434.0163
190.1694, 428.9226
190.6515, 424.0504
191.1336, 419.2139
191.6158, 414.4234
192.0979, 409.7983
192.5800, 405.2825
193.0621, 400.9252
193.5442, 397.0241
194.0263, 393.6443
194.5085, 390.3781
194.9906, 386.5929
195.4727, 382.2846
195.9548, 378.0259
196.4369, 374.0070
196.9190, 370.2339
197.4012, 366.9864
197.8833, 364.4164
198.3654, 362.0178
198.8475, 358.9096
199.3296, 354.9823
199.8117, 351.3508
200.2939, 348.7296
200.7760, 347.1490
201.2581, 344.9692
201.7402, 342.0099
202.2223, 338.7463
202.7044, 335.9564
203.1866, 333.6919
203.6687, 331.7601
204.1508, 330.2353
204.6329, 329.1893
205.1150, 327.7459
205.5971, 325.8005
206.0793, 323.5801
206.5614, 321.5034
207.0435, 319.6194
207.5256, 317.7721
208.0077, 315.8344
208.4898, 313.7406
208.9720, 312.0243
209.4541, 310.8540
209.9362, 309.9052
210.4183, 308.3907
210.9004, 306.0670
211.3825, 303.9040
211.8647, 302.3833
212.3468, 301.6647
212.8289, 300.8250
213.3110, 299.7805
213.7931, 298.6541
214.2752, 297.8109
214.7574, 297.4298
215.2395, 296.8835
215.7216, 295.8083
216.2037, 294.0169
216.6858, 292.4610
217.1679, 291.2454
217.6501, 290.2096
218.1322, 288.9643
218.6143, 287.3667
219.0964, 285.8351
219.5785, 284.6636
220.0606, 284.0841
220.5428, 283.0547
221.0249, 281.4125
221.5070, 279.3969
221.9891, 277.6432
222.4712, 276.2900
222.9533, 274.9010
223.4355, 273.2808
223.9176, 271.2509
224.3997, 269.4453
224.8818, 267.9478
225.3639, 266.6277
225.8460, 265.1445
226.3282, 263.4744
226.8103, 261.6978
227.2924, 259.8924
227.7745, 258.0590
228.2566, 256.1121
228.7387, 254.0125
229.2209, 251.8139
229.7030, 249.7094
230.1851, 247.7565
230.6672, 245.7720
231.1493, 243.6617
231.6314, 241.3463
232.1136, 239.1237
232.5957, 237.0130
233.0778, 234.9821
233.5599, 233.0276
234.0420, 231.2460
234.5241, 229.3854
235.0063, 227.2981
235.4884, 224.8096
235.9705, 222.6764
236.4526, 221.0268
236.9347, 219.6549
237.4168, 218.1131
237.8990, 216.2951
238.3811, 214.4745
238.8632, 212.7793
239.3453, 211.2689
239.8274, 209.6635
240.3095, 207.8179
240.7917, 205.9420
241.2738, 204.4798
241.7559, 203.7541
242.2380, 202.9209
242.7201, 201.6581
243.2022, 199.8053
243.6844, 198.0468
244.1665, 196.3381
244.6486, 194.7407
245.1307, 193.3952
245.6128, 192.4953
246.0949, 191.5197
246.5771, 190.2376
247.0592, 188.4853
247.5413, 187.0915
248.0234, 186.2382
248.5055, 185.6245
248.9876, 184.8091
249.4697, 183.7189
249.9519, 182.5430
250.4340, 181.2880
250.9161, 179.8941
251.3982, 178.7522
251.8803, 178.0076
252.3624, 177.4073
252.8446, 176.6152
253.3267, 175.5542
253.8088, 174.4509
254.2909, 173.3795
254.7730, 172.3547
255.2551, 171.2104
255.7373, 169.9120
256.2194, 168.5300
256.7015, 167.1850
257.1836, 165.9270
257.6657, 164.5733
258.1479, 163.0829
258.6300, 161.4682
259.1121, 159.6696
259.5942, 157.5799
260.0763, 155.4222
260.5584, 153.3843
261.0406, 151.5475
261.5227, 149.6804
262.0048, 147.7550
262.4869, 145.7869
262.9690, 143.6021
263.4511, 141.0849
263.9333, 138.5488
264.4154, 136.3115
264.8975, 134.4354
265.3796, 132.6236
265.8617, 130.8227
266.3438, 129.0460
266.8260, 127.2132
267.3081, 125.2732
267.7902, 123.3952
268.2723, 121.8220
268.7544, 120.6384
269.2365, 119.3256
269.7187, 117.7324
270.2008, 115.9336
270.6829, 114.4566
271.1650, 113.3859
271.6471, 112.4315
272.1292, 111.4067
272.6114, 110.2959
273.0935, 109.1670
273.5756, 107.9791
274.0577, 106.8058
274.5398, 105.9305
275.0219, 105.4336
275.5041, 104.9901
275.9862, 104.4119
276.4683, 103.6953
276.9504, 102.8443
277.4325, 101.8080
277.9146, 100.6834
278.3968, 99.69431
278.8788, 98.84245
279.3610, 98.13561
279.8431, 97.61400
280.3252, 97.28885
280.8073, 97.02256
281.2894, 96.84045
281.7715, 96.66982
282.2537, 96.34496
282.7358, 95.85157
283.2179, 95.36341
283.7000, 94.94125
284.1821, 94.58575
284.6642, 94.38542
285.1464, 94.39112
285.6285, 94.42125
286.1106, 94.13496
286.5927, 93.52843
287.0748, 92.99014
287.5569, 92.70053
288.0391, 92.63078
288.5212, 92.61550
289.0033, 92.66125
289.4854, 92.72684
289.9675, 92.76585
290.4496, 92.77964
290.9318, 92.78362
291.4139, 92.80531
291.8960, 92.82134
292.3781, 92.70328
292.8602, 92.43215
293.3423, 92.21394
293.8245, 92.31981
294.3066, 92.68330
294.7887, 92.98652
295.2708, 93.08051
295.7529, 93.07844
296.2350, 93.25798
296.7172, 93.61594
297.1993, 93.93090
297.6814, 94.01362
298.1635, 93.90757
298.6456, 93.73180
299.1277, 93.49733
299.6099, 93.22751
300.0920, 92.96664
300.5741, 92.70971
301.0562, 92.44060
301.5383, 92.19026
302.0204, 91.91157
302.5026, 91.52427
302.9847, 91.01366
303.4668, 90.38379
303.9489, 89.57699
304.4310, 88.63864
304.9131, 87.67793
305.3953, 86.79932
305.8774, 85.92857
306.3595, 84.98685
306.8416, 83.96616
307.3237, 82.86791
307.8058, 81.66750
308.2880, 80.39734
308.7701, 79.13676
309.2522, 77.83791
309.7343, 76.60249
310.2164, 75.54685
310.6985, 74.68431
311.1807, 73.87481
311.6628, 73.08470
312.1449, 72.26850
312.6270, 71.38229
313.1091, 70.24802
313.5912, 69.15623
314.0734, 68.30971
314.5555, 67.71841
315.0376, 67.16483
315.5197, 66.51354
316.0018, 65.84614
316.4839, 65.26385
316.9661, 64.84723
317.4482, 64.46731
317.9303, 64.06651
318.4124, 63.65208
318.8945, 63.26304
319.3766, 62.87926
319.8588, 62.54741
320.3409, 62.31175
320.8230, 62.29731
321.3051, 62.22276
321.7872, 61.98185
322.2693, 61.61756
322.7515, 61.26147
323.2336, 60.95515
323.7157, 60.65715
324.1978, 60.34163
324.6799, 59.97945
325.1620, 59.65926
325.6442, 59.33606
326.1263, 59.06983
326.6084, 58.96684
327.0905, 59.26623
327.5726, 59.52140
328.0547, 59.57921
328.5369, 59.35887
329.0190, 59.19011
329.5011, 59.09765
329.9832, 59.05099
330.4653, 59.01509
330.9474, 58.94680
331.4296, 58.94471
331.9117, 59.05088
332.3938, 59.27233
332.8759, 59.45452
333.3580, 59.58067
333.8401, 59.68669
334.3223, 59.79432
334.8044, 59.88227
335.2865, 60.01025
335.7686, 60.14915
336.2507, 60.32710
336.7328, 60.72160
337.2150, 61.45203
337.6971, 62.18745
338.1792, 62.76418
338.6613, 63.19178
339.1434, 63.36971
339.6255, 63.20105
340.1077, 62.85060
340.5898, 62.69383
341.0719, 62.76452
341.5540, 62.89805
342.0361, 63.00663
342.5182, 63.08645
343.0004, 63.27525
343.4825, 63.58990
343.9646, 63.97353
344.4467, 64.38645
344.9288, 64.82602
345.4109, 65.15195
345.8931, 65.26064
346.3752, 65.21484
346.8573, 65.24225
347.3394, 65.33840
347.8215, 65.54634
348.3036, 65.98827
348.7858, 66.60721
349.2679, 67.12516
349.7500, 67.44573
350.2321, 67.65254
350.7142, 67.88459
351.1964, 68.13647
351.6785, 68.37005
352.1606, 68.52988
352.6427, 68.65276
353.1248, 68.80527
353.6069, 68.99053
354.0891, 69.23504
354.5712, 69.61678
355.0533, 70.08967
355.5354, 70.52885
356.0175, 70.88242
356.4996, 71.15541
356.9818, 71.32516
357.4639, 71.37688
357.9460, 71.45571
358.4281, 71.73337
358.9102, 72.08990
359.3923, 72.34600
359.8745, 72.35365
360.3566, 72.29998
360.8387, 72.35776
361.3208, 72.50797
361.8029, 72.47901
362.2850, 71.99979
362.7672, 71.36301
363.2493, 70.81192
363.7314, 70.49480
364.2135, 70.16294
364.6956, 69.79214
365.1777, 69.35773
365.6599, 68.78529
366.1420, 67.94841
366.6241, 67.04965
367.1062, 66.19115
367.5883, 65.38945
368.0704, 64.60020
368.5526, 63.82440
369.0347, 63.05915
369.5168, 62.28677
369.9989, 61.42492
370.4810, 60.63917
370.9631, 60.00225
371.4453, 59.54991
371.9274, 58.95562
372.4095, 58.14930
372.8916, 57.26716
373.3737, 56.41060
373.8558, 55.55796
374.3380, 54.77429
374.8201, 54.08361
375.3022, 53.46537
375.7843, 52.81454
376.2664, 52.09238
376.7485, 51.40745
377.2307, 50.84801
377.7128, 50.44249
378.1949, 49.96406
378.6770, 49.38276
379.1591, 48.75626
379.6412, 48.20615
380.1234, 47.73325
380.6055, 47.28965
381.0876, 46.88621
381.5697, 46.50766
382.0518, 45.98921
382.5339, 45.30668
383.0161, 44.64503
383.4982, 44.28403
383.9803, 44.15818
384.4624, 43.92434
384.9445, 43.42117
385.4266, 42.81385
385.9088, 42.39849
386.3909, 42.16223
386.8730, 41.95731
387.3551, 41.71113
387.8372, 41.41517
388.3193, 41.03254
388.8015, 40.52485
389.2836, 40.02790
389.7657, 39.70462
390.2478, 39.49089
390.7299, 39.24493
391.2120, 38.82693
391.6942, 38.39312
392.1763, 38.09217
392.6584, 37.94315
393.1405, 37.79513
393.6226, 37.56268
394.1047, 37.29137
394.5869, 37.03282
395.0690, 36.78041
395.5511, 36.56575
396.0332, 36.43407
396.5153, 36.36447
396.9974, 36.24504
397.4796, 35.99303
397.9617, 35.72227
398.4438, 35.49323
398.9259, 35.32552
399.4080, 35.17651
399.8901, 35.03271
400.3723, 34.90689
400.8544, 34.82681
401.3365, 34.89913
401.8186, 34.88903
402.3007, 34.68665
402.7828, 34.24858
403.2649, 34.01178
403.7470, 34.06826
404.2292, 34.22720
404.7113, 34.31743
405.1934, 34.31372
405.6755, 34.32073
406.1576, 34.37193
406.6397, 34.43774
407.1219, 34.39593
407.6040, 34.22073
408.0861, 34.03624
408.5682, 33.89213
409.0503, 33.79101
409.5324, 33.81995
410.0146, 34.03067
410.4967, 34.23349
410.9788, 34.06174
411.4609, 33.56583
411.9430, 33.22432
412.4251, 33.33722
412.9073, 33.68530
413.3894, 33.77525
413.8715, 33.61121
414.3536, 33.37934
414.8357, 33.16947
415.3178, 33.00605
415.8000, 32.95377
416.2821, 33.07499
416.7642, 33.21451
417.2463, 33.21746
417.7284, 33.11956
418.2105, 33.01559
418.6927, 32.91179
419.1748, 32.84855
419.6569, 32.87043
420.1390, 32.99063
420.6211, 33.11533
421.1032, 33.21550
421.5854, 33.29350
422.0675, 33.35231
422.5496, 33.42007
423.0317, 33.44173
423.5138, 33.34969
423.9959, 33.17371
424.4781, 33.09486
424.9602, 33.22468
425.4423, 33.39582
425.9244, 33.52287
426.4065, 33.52552
426.8886, 33.63296
427.3708, 33.93076
427.8529, 34.29748
428.3350, 34.53616
428.8171, 34.56038
429.2992, 34.61471
429.7813, 34.77196
430.2635, 35.02743
430.7456, 35.24900
431.2277, 35.41787
431.7098, 35.59091
432.1919, 35.81723
432.6740, 36.10041
433.1562, 36.39434
433.6383, 36.69440
434.1204, 37.00114
434.6025, 37.30192
435.0846, 37.59785
435.5667, 37.93805
436.0489, 38.38826
436.5310, 38.90705
437.0131, 39.33710
437.4952, 39.66956
437.9773, 40.02989
438.4594, 40.59252
438.9416, 41.27034
439.4237, 41.86969
439.9058, 42.26231
440.3879, 42.64051
440.8700, 43.19453
441.3521, 43.89687
441.8343, 44.64986
442.3164, 45.48341
442.7985, 46.29418
443.2806, 46.98569
443.7627, 47.51016
444.2448, 48.04707
444.7270, 48.63052
445.2091, 49.27418
445.6912, 49.99197
446.1733, 50.91622
446.6554, 51.78321
447.1375, 52.45255
447.6197, 52.95160
448.1018, 53.58348
448.5839, 54.52665
449.0660, 55.47013
449.5481, 56.25264
450.0302, 56.77635
450.5124, 57.35659
450.9945, 58.00930
451.4766, 58.70319
451.9587, 59.39771
452.4408, 60.12757
452.9229, 60.77561
453.4051, 61.33234
453.8872, 61.78962
454.3693, 62.08076
454.8514, 62.17383
455.3335, 62.24410
455.8156, 62.49424
456.2978, 62.88905
456.7799, 63.09841
457.2620, 63.06152
457.7441, 62.87284
458.2262, 62.67957
458.7083, 62.46255
459.1905, 62.12792
459.6726, 61.58443
460.1547, 60.91710
460.6368, 60.25401
461.1189, 59.58869
461.6010, 58.85652
462.0832, 57.97526
462.5653, 57.01299
463.0474, 56.05881
463.5295, 55.11291
464.0116, 54.19479
464.4937, 53.36485
464.9759, 52.57011
465.4580, 51.72536
465.9401, 50.68903
466.4222, 49.69891
466.9043, 48.86799
467.3864, 48.21830
467.8686, 47.61442
468.3507, 47.03736
468.8328, 46.50393
469.3149, 46.02860
469.7970, 45.64814
470.2791, 45.26282
470.7613, 44.85102
471.2434, 44.43549
471.7255, 44.08315
472.2076, 43.81033
472.6897, 43.55529
473.1718, 43.26462
473.6540, 42.93960
474.1361, 42.77555
474.6182, 42.80058
475.1003, 42.88539
475.5824, 42.89805
476.0645, 42.84757
476.5467, 42.81401
477.0288, 42.81971
477.5109, 42.83942
477.9930, 42.83179
478.4751, 42.80119
478.9572, 42.76764
479.4394, 42.74408
479.9215, 42.72282
480.4036, 42.70421
480.8857, 42.68840
481.3678, 42.63955
481.8499, 42.49010
482.3321, 42.31017
482.8142, 42.17714
483.2963, 42.08349
483.7784, 42.07520
484.2605, 42.23211
484.7426, 42.49062
485.2248, 42.69281
485.7069, 42.81926
486.1890, 42.86544
486.6711, 42.80450
487.1532, 42.60282
487.6353, 42.45687
488.1175, 42.39785
488.5996, 42.37162
489.0817, 42.34010
489.5638, 42.31179
490.0459, 42.25155
490.5280, 42.12672
491.0102, 41.98582
491.4923, 41.98385
491.9744, 42.16158
492.4565, 42.26542
492.9386, 42.15074
493.4207, 41.85453
493.9029, 41.62661
494.3850, 41.46729
494.8671, 41.35360
495.3492, 41.28253
495.8313, 41.23979
496.3134, 41.19035
496.7956, 41.14015
497.2777, 41.05186
497.7598, 40.86752
498.2419, 40.61177
498.7240, 40.35127
499.2061, 40.04816
499.6883, 39.80201
500.1704, 39.73146
500.6525, 39.83446
501.1346, 39.87825
501.6167, 39.74620
502.0988, 39.53333
502.5810, 39.30648
503.0631, 39.05109
503.5452, 38.81548
504.0273, 38.62979
504.5094, 38.46258
504.9915, 38.26475
505.4737, 38.02007
505.9558, 37.76818
506.4379, 37.51823
506.9200, 37.26994
507.4021, 37.02493
507.8842, 36.78445
508.3664, 36.53624
508.8485, 36.24944
509.3306, 35.92176
509.8127, 35.68591
510.2948, 35.58022
510.7769, 35.48402
511.2591, 35.19535
511.7412, 34.74615
512.2233, 34.32708
512.7054, 34.01582
513.1875, 33.76046
513.6696, 33.50460
514.1517, 33.24411
514.6339, 32.95524
515.1160, 32.55120
515.5981, 32.15376
516.0802, 31.91040
516.5623, 31.88242
517.0444, 31.78025
517.5266, 31.37371
518.0087, 30.86132
518.4908, 30.45956
518.9729, 30.37584
519.4550, 30.23043
519.9371, 29.88705
520.4193, 29.40378
520.9014, 29.04827
521.3835, 28.90994
521.8656, 28.78084
522.3477, 28.58243
522.8298, 28.30304
523.3120, 28.05076
523.7941, 27.84025
524.2762, 27.63717
524.7583, 27.40786
525.2404, 27.15013
525.7225, 26.89625
526.2047, 26.64345
526.6868, 26.40676
527.1689, 26.22387
527.6510, 26.08768
528.1331, 25.94931
528.6152, 25.76295
529.0974, 25.56971
529.5795, 25.45008
530.0616, 25.39489
530.5437, 25.30227
531.0258, 25.06775
531.5079, 24.78304
531.9901, 24.52488
532.4722, 24.30331
532.9543, 24.12110
533.4364, 24.03014
533.9185, 23.96270
534.4006, 23.82496
534.8828, 23.47311
535.3649, 23.19001
535.8470, 23.08769
536.3291, 23.12128
536.8112, 23.04001
537.2933, 22.76572
537.7755, 22.49875
538.2576, 22.33919
538.7397, 22.30087
539.2218, 22.25259
539.7039, 22.20148
540.1860, 22.12271
540.6682, 21.95515
541.1503, 21.71314
541.6324, 21.56251
542.1145, 21.56680
542.5966, 21.62260
543.0787, 21.56757
543.5609, 21.42352
544.0430, 21.27127
544.5251, 21.14116
545.0072, 21.02990
545.4893, 20.95832
545.9714, 20.92027
546.4536, 20.83778
546.9357, 20.58029
547.4178, 20.31766
547.8999, 20.19338
548.3820, 20.30994
548.8641, 20.38134
549.3463, 20.33228
549.8284, 20.21277
550.3105, 20.08620
550.7926, 19.92106
551.2747, 19.80109
551.7568, 19.75849
552.2390, 19.76885
552.7211, 19.72497
553.2032, 19.61570
553.6853, 19.48697
554.1674, 19.34267
554.6495, 19.18785
555.1317, 19.11794
555.6138, 19.14526
556.0959, 19.17270
556.5780, 19.08251
557.0601, 18.91933
557.5422, 18.80412
558.0244, 18.76436
558.5065, 18.76904
558.9886, 18.82821
559.4707, 18.90645
559.9528, 18.93160
560.4349, 18.79349
560.9171, 18.66668
561.3992, 18.68115
561.8813, 18.81112
562.3634, 18.86884
562.8455, 18.77529
563.3276, 18.62270
563.8098, 18.43441
564.2919, 18.17413
564.7740, 18.01402
565.2561, 17.98676
565.7382, 18.02700
566.2203, 18.09187
566.7025, 18.20778
567.1846, 18.22656
567.6667, 18.09771
568.1488, 17.90588
568.6309, 17.84163
569.1130, 17.89866
569.5952, 17.94487
570.0773, 17.92095
570.5594, 17.85042
571.0415, 17.75214
571.5236, 17.63303
572.0057, 17.55850
572.4879, 17.61343
572.9700, 17.71309
573.4521, 17.77804
573.9342, 17.80035
574.4163, 17.77476
574.8984, 17.64264
575.3806, 17.48762
575.8627, 17.39322
576.3448, 17.43500
576.8269, 17.46803
577.3090, 17.47218
577.7911, 17.45683
578.2733, 17.44470
578.7554, 17.44545
579.2375, 17.42927
579.7196, 17.38207
580.2017, 17.30770
580.6838, 17.24006
581.1660, 17.17617
581.6481, 17.13762
582.1302, 17.15873
582.6123, 17.22245
583.0944, 17.26179
583.5765, 17.27351
584.0587, 17.25247
584.5408, 17.14895
585.0229, 17.01809
585.5050, 16.96207
585.9871, 17.06850
586.4692, 17.16652
586.9514, 17.12821
587.4335, 17.00847
587.9156, 16.92176
588.3977, 16.91765
588.8798, 16.93753
589.3619, 16.98276
589.8441, 17.05084
590.3262, 17.05568
590.8083, 16.94685
591.2904, 16.84013
591.7725, 16.79557
592.2546, 16.82422
592.7368, 16.84930
593.2189, 16.86848
593.7010, 16.88993
594.1831, 16.92719
594.6652, 16.97698
595.1473, 17.01963
595.6295, 17.05228
596.1116, 17.07410
596.5937, 17.07884
597.0758, 17.07141
597.5579, 17.06471
598.0400, 17.08326
598.5222, 17.08948
599.0043, 17.03231
599.4864, 16.92974
599.9685, 16.87070
600.4506, 16.93276
600.9327, 17.00976
601.4149, 17.05293
601.8970, 17.05449
602.3791, 17.03220
602.8612, 16.96541
603.3433, 16.89586
603.8254, 16.85355
604.3076, 16.83860
604.7897, 16.85534
605.2718, 16.91668
605.7539, 16.98798
606.2360, 16.99570
606.7181, 16.94854
607.2003, 16.94353
607.6824, 17.02754
608.1645, 17.14912
608.6466, 17.24228
609.1287, 17.30591
609.6108, 17.33200
610.0930, 17.27422
610.5751, 17.20875
611.0572, 17.19256
611.5393, 17.22798
612.0214, 17.28249
612.5035, 17.40153
612.9857, 17.49462
613.4678, 17.49525
613.9499, 17.32722
614.4320, 17.23514
614.9141, 17.24663
615.3962, 17.30779
615.8784, 17.35947
616.3605, 17.39301
616.8426, 17.47166
617.3247, 17.63278
617.8068, 17.80014
618.2889, 17.78185
618.7711, 17.60290
619.2532, 17.47222
619.7353, 17.50513
620.2174, 17.61183
620.6995, 17.65998
621.1816, 17.66144
621.6638, 17.67311
622.1459, 17.74615
622.6280, 17.82774
623.1101, 17.88028
623.5922, 17.89894
624.0743, 17.90802
624.5565, 17.90193
625.0386, 17.89672
625.5207, 17.90287
626.0028, 17.92098
626.4849, 17.94824
626.9670, 17.98277
627.4492, 18.02868
627.9313, 18.09683
628.4134, 18.19070
628.8955, 18.26874
629.3776, 18.30961
629.8597, 18.34983
630.3419, 18.48149
630.8240, 18.68290
631.3061, 18.85103
631.7882, 18.92195
632.2703, 18.94431
632.7524, 18.94773
633.2346, 18.94110
633.7167, 18.96903
634.1988, 19.10416
634.6809, 19.23969
635.1630, 19.30959
635.6451, 19.29852
636.1273, 19.28524
636.6094, 19.23559
637.0915, 19.22359
637.5736, 19.31088
638.0557, 19.55762
638.5378, 19.71325
639.0200, 19.74917
639.5021, 19.73950
639.9842, 19.77573
640.4663, 19.85564
640.9484, 19.95922
641.4305, 20.09239
641.9127, 20.22363
642.3948, 20.27964
642.8769, 20.29459
643.3590, 20.36498
643.8411, 20.61894
644.3232, 20.87300
644.8054, 20.99015
645.2875, 20.99177
645.7696, 21.00138
646.2517, 21.03045
646.7338, 21.09835
647.2159, 21.24047
647.6981, 21.47087
648.1802, 21.60507
648.6623, 21.59269
649.1444, 21.56487
649.6265, 21.61280
650.1086, 21.74240
650.5908, 21.85650
651.0729, 21.94583
651.5550, 22.04957
652.0371, 22.24319
652.5192, 22.49136
653.0013, 22.67289
653.4835, 22.74543
653.9656, 22.79086
654.4477, 22.83472
654.9298, 22.90953
655.4119, 23.07127
655.8940, 23.48081
656.3762, 23.83231
656.8583, 23.96726
657.3404, 23.94840
657.8225, 24.00886
658.3046, 24.19403
658.7867, 24.40536
659.2689, 24.62904
659.7510, 24.85907
660.2331, 25.03233
660.7152, 25.13964
661.1973, 25.23466
661.6794, 25.35658
662.1616, 25.49417
662.6437, 25.58142
663.1258, 25.61477
663.6079, 25.70122
664.0900, 26.01895
664.5721, 26.40097
665.0543, 26.64054
665.5364, 26.67505
666.0185, 26.66648
666.5006, 26.63023
666.9827, 26.61318
667.4648, 26.66397
667.9470, 26.82586
668.4291, 27.01447
668.9112, 27.25274
669.3933, 27.50283
669.8754, 27.68460
670.3575, 27.78192
670.8397, 27.90221
671.3218, 28.08289
671.8039, 28.29184
672.2860, 28.44901
672.7681, 28.55904
673.2502, 28.67167
673.7324, 28.83059
674.2145, 28.99356
674.6966, 29.09476
675.1787, 29.14756
675.6608, 29.22818
676.1429, 29.40336
676.6251, 29.59057
677.1072, 29.74266
677.5893, 29.84938
678.0714, 29.96644
678.5535, 30.09340
679.0356, 30.23575
679.5178, 30.41057
679.9999, 30.64342
680.4820, 30.77053
680.9641, 30.76849
681.4462, 30.74172
681.9283, 30.81571
682.4105, 30.96566
682.8926, 31.08344
683.3747, 31.14259
683.8568, 31.19650
684.3389, 31.31852
684.8210, 31.46654
685.3032, 31.57560
685.7853, 31.54969
686.2674, 31.56631
686.7495, 31.75300
687.2316, 32.01926
687.7137, 32.14972
688.1959, 31.98895
688.6780, 31.92687
689.1601, 32.09780
689.6422, 32.41601
690.1243, 32.50684
690.6064, 32.33609
691.0886, 32.21164
691.5707, 32.34852
692.0528, 32.61189
692.5349, 32.62264
693.0170, 32.41027
693.4991, 32.23071
693.9813, 32.28844
694.4634, 32.43293
694.9455, 32.53842
695.4276, 32.59264
695.9097, 32.62660
696.3918, 32.60220
696.8740, 32.59755
697.3561, 32.67412
697.8382, 32.87756
698.3203, 33.01042
698.8024, 33.05275
699.2845, 33.05399
699.7667, 33.04976
700.2488, 33.03984
700.7309, 33.05785
701.2130, 33.11217
701.6951, 33.17451
702.1772, 33.22808
702.6594, 33.26214
703.1415, 33.24673
703.6236, 33.14763
704.1057, 33.04990
704.5878, 33.02459
705.0699, 33.03318
705.5521, 33.01328
706.0342, 32.89119
706.5163, 32.81179
706.9984, 32.82804
707.4805, 32.89613
707.9626, 32.89294
708.4448, 32.78207
708.9269, 32.73192
709.4090, 32.83938
709.8911, 33.01654
710.3732, 32.95293
710.8553, 32.67323
711.3374, 32.44207
711.8195, 32.44068
712.3016, 32.54895
712.7838, 32.68763
713.2659, 32.83495
713.7480, 32.87060
714.2301, 32.58149
714.7122, 32.29804
715.1943, 32.22776
715.6765, 32.42712
716.1586, 32.51300
716.6407, 32.44320
717.1228, 32.31726
717.6049, 32.17612
718.0870, 32.01339
718.5692, 31.91212
719.0513, 31.87925
719.5334, 31.86565
720.0155, 31.85567
720.4976, 31.82551
720.9797, 31.69182
721.4619, 31.42262
721.9440, 31.19687
722.4261, 31.20784
722.9082, 31.30420
723.3903, 31.33087
723.8724, 31.21796
724.3546, 31.09661
724.8367, 30.96181
725.3188, 30.84217
725.8009, 30.77141
726.2830, 30.76124
726.7651, 30.76904
727.2473, 30.80560
727.7294, 30.82851
728.2115, 30.71909
728.6936, 30.51156
729.1757, 30.41473
729.6578, 30.56161
730.1400, 30.73994
730.6221, 30.71594
731.1042, 30.55834
731.5863, 30.41050
732.0684, 30.39631
732.5505, 30.32868
733.0327, 30.06554
733.5148, 29.68393
733.9969, 29.49370
734.4790, 29.59680
734.9611, 29.69513
735.4432, 29.69104
735.9254, 29.62065
736.4075, 29.66522
736.8896, 29.82415
737.3717, 29.92384
737.8538, 29.80869
738.3359, 29.60176
738.8181, 29.48379
739.3002, 29.44691
739.7823, 29.43922
740.2644, 29.44983
740.7465, 29.46574
741.2286, 29.50107
741.7108, 29.55989
742.1929, 29.52077
742.6750, 29.28783
743.1571, 29.07632
743.6392, 29.00342
744.1213, 29.07581
744.6035, 29.09440
745.0856, 29.05550
745.5677, 28.98956
746.0498, 28.91582
746.5319, 28.83609
747.0140, 28.74409
747.4962, 28.63786
747.9783, 28.56592
748.4604, 28.62123
748.9425, 28.68851
749.4246, 28.64992
749.9067, 28.43170
750.3889, 28.28442
750.8710, 28.27208
751.3531, 28.30996
751.8352, 28.35578
752.3173, 28.43700
752.7994, 28.36524
753.2816, 28.08328
753.7637, 27.79525
754.2458, 27.78473
754.7279, 27.95885
755.2100, 28.01893
755.6921, 27.88637
756.1743, 27.72378
756.6564, 27.66382
757.1385, 27.65272
757.6206, 27.62746
758.1027, 27.59844
758.5848, 27.51552
759.0670, 27.31370
759.5491, 27.08681
760.0312, 26.94285
760.5133, 26.89650
760.9954, 26.90411
761.4775, 26.99780
761.9597, 27.06926
762.4418, 26.87730
762.9239, 26.49172
763.4060, 26.21598
763.8881, 26.17975
764.3702, 26.21444
764.8524, 26.17962
765.3345, 26.10667
765.8166, 26.05047
766.2987, 26.05122
766.7808, 26.04126
767.2629, 26.00319
767.7451, 25.94474
768.2272, 25.87518
768.7093, 25.78799
769.1914, 25.71791
769.6735, 25.68284
770.1556, 25.65798
770.6378, 25.57388
771.1199, 25.44485
771.6020, 25.34453
772.0841, 25.33303
772.5662, 25.33505
773.0483, 25.26722
773.5305, 25.15874
774.0126, 25.08414
774.4947, 25.07641
774.9768, 25.09897
775.4589, 25.21289
775.9410, 25.35138
776.4232, 25.22571
776.9053, 24.72074
777.3874, 24.36053
777.8695, 24.38171
778.3516, 24.62556
778.8337, 24.64199
779.3159, 24.46766
779.7980, 24.31971
780.2801, 24.33985
780.7622, 24.42111
781.2443, 24.51174
781.7264, 24.59388
782.2086, 24.59929
782.6907, 24.37135
783.1728, 24.21311
783.6549, 24.28598
784.1370, 24.52860
784.6191, 24.52266
785.1013, 24.19109
785.5834, 23.94851
786.0655, 24.04445
786.5476, 24.34293
787.0297, 24.44815
787.5118, 24.38030
787.9940, 24.26646
788.4761, 24.11992
788.9582, 24.00604
789.4403, 23.99710
789.9224, 24.08092
790.4045, 24.14989
790.8867, 24.20195
791.3688, 24.20668
791.8509, 24.12577
792.3330, 23.97375
792.8151, 23.94806
793.2972, 24.07516
793.7794, 24.16418
794.2615, 24.05621
794.7436, 23.84733
795.2257, 23.78910
795.7078, 23.86071
796.1899, 23.94056
796.6721, 23.95652
797.1542, 23.95712
797.6363, 23.98339
798.1184, 24.03508
798.6005, 24.04730
799.0826, 23.94830
799.5648, 23.90128
800.0469, 24.00377
800.5290, 24.22992
801.0111, 24.27805
801.4932, 24.13584
801.9753, 23.98453
802.4575, 23.91516
802.9396, 23.91978
803.4217, 24.03619
803.9038, 24.23919
804.3859, 24.36385
804.8680, 24.24965
805.3502, 24.09834
805.8323, 24.00214
806.3144, 23.97039
806.7965, 24.00184
807.2786, 24.14924
807.7607, 24.25543
808.2429, 24.22448
808.7250, 24.08947
809.2071, 24.06386
809.6892, 24.14456
810.1713, 24.24449
810.6534, 24.33740
811.1356, 24.39955
811.6177, 24.39585
812.0998, 24.33162
812.5819, 24.24846
813.0640, 24.09839
813.5461, 23.99707
814.0283, 24.02005
814.5104, 24.15429
814.9925, 24.24151
815.4746, 24.27798
815.9567, 24.28202
816.4388, 24.25448
816.9210, 24.20328
817.4031, 24.14031
817.8852, 24.07039
818.3673, 24.03245
818.8494, 24.08112
819.3315, 24.14400
819.8137, 24.17197
820.2958, 24.16439
820.7779, 24.13593
821.2600, 24.07165
821.7421, 24.00565
822.2242, 23.94958
822.7064, 23.90070
823.1885, 23.84560
823.6706, 23.78486
824.1527, 23.72021
824.6348, 23.64615
825.1169, 23.57378
825.5991, 23.53511
826.0812, 23.51822
826.5633, 23.47371
827.0454, 23.30718
827.5275, 23.17691
828.0096, 23.20233
828.4918, 23.34721
828.9739, 23.38147
829.4560, 23.25100
829.9381, 23.12359
830.4202, 23.05556
830.9023, 23.02107
831.3845, 22.91713
831.8666, 22.75990
832.3487, 22.66776
832.8308, 22.77831
833.3129, 22.90420
833.7950, 22.84415
834.2772, 22.65807
834.7593, 22.50101
835.2414, 22.42203
835.7235, 22.37527
836.2056, 22.36561
836.6877, 22.37347
837.1699, 22.34887
837.6520, 22.29032
838.1341, 22.20622
838.6162, 22.08193
839.0983, 21.95838
839.5804, 21.91221
840.0626, 21.92335
840.5447, 21.94062
841.0268, 21.97485
841.5089, 21.97193
841.9910, 21.86782
842.4731, 21.71749
842.9553, 21.63132
843.4374, 21.67299
843.9195, 21.65270
844.4016, 21.52413
844.8837, 21.35406
845.3658, 21.26538
845.8480, 21.24608
846.3301, 21.21955
846.8122, 21.15753
847.2943, 21.10970
847.7764, 21.17215
848.2585, 21.26243
848.7407, 21.26197
849.2228, 21.05249
849.7049, 20.88451
850.1870, 20.79209
850.6691, 20.75051
851.1512, 20.74141
851.6334, 20.76895
852.1155, 20.79977
852.5976, 20.83714
853.0797, 20.84554
853.5618, 20.73737
854.0439, 20.58384
854.5261, 20.53755
855.0082, 20.66587
855.4903, 20.73315
855.9724, 20.53937
856.4545, 20.29214
856.9366, 20.18448
857.4188, 20.28930
857.9009, 20.29686
858.3830, 20.17752
858.8651, 20.03720
859.3472, 19.97152
859.8293, 19.96393
860.3115, 19.95095
860.7936, 19.92858
861.2757, 19.89365
861.7578, 19.84497
862.2399, 19.78174
862.7220, 19.67928
863.2042, 19.52182
863.6863, 19.47234
864.1684, 19.62006
864.6505, 19.75749
865.1326, 19.76612
865.6147, 19.66027
866.0969, 19.63314
866.5790, 19.68424
867.0611, 19.72577
867.5432, 19.70815
868.0253, 19.64362
868.5074, 19.52581
868.9896, 19.36593
869.4717, 19.22849
869.9538, 19.11491
870.4359, 19.05261
870.9180, 19.07290
871.4001, 19.15104
871.8823, 19.17190
872.3644, 19.13406
872.8465, 19.04334
873.3286, 18.86010
873.8107, 18.66990
874.2928, 18.63804
874.7750, 18.72806
875.2571, 18.83566
875.7392, 18.99590
876.2213, 19.07810
876.7034, 18.96457
877.1855, 18.74667
877.6677, 18.63359
878.1498, 18.68353
878.6319, 18.66729
879.1140, 18.52561
879.5961, 18.34092
880.0782, 18.24859
880.5604, 18.22610
881.0425, 18.20052
881.5246, 18.15206
882.0067, 18.09809
882.4888, 18.05801
882.9709, 18.01570
883.4531, 17.95028
883.9352, 17.82425
884.4173, 17.74222
884.8994, 17.72552
885.3815, 17.71849
885.8636, 17.63943
886.3458, 17.50841
886.8279, 17.50455
887.3100, 17.65062
887.7921, 17.76571
888.2742, 17.65664
888.7563, 17.47044
889.2385, 17.34959
889.7206, 17.31804
890.2027, 17.28678
890.6848, 17.21946
891.1669, 17.18169
891.6490, 17.22615
892.1312, 17.34218
892.6133, 17.36382
893.0954, 17.29096
893.5775, 17.21008
894.0596, 17.19639
894.5417, 17.19160
895.0239, 17.11248
895.5060, 16.97563
895.9881, 16.87024
896.4702, 16.82890
896.9523, 16.82262
897.4344, 16.87406
897.9166, 16.94573
898.3987, 16.89046
898.8808, 16.69842
899.3629, 16.53340
899.8450, 16.44568
900.3271, 16.41413
900.8093, 16.42719
901.2914, 16.47031
901.7735, 16.51434
902.2556, 16.57765
902.7377, 16.60303
903.2198, 16.54327
903.7020, 16.45433
904.1841, 16.39682
904.6662, 16.37353
905.1483, 16.37313
905.6304, 16.39963
906.1125, 16.42834
906.5947, 16.41593
907.0768, 16.39007
907.5589, 16.41721
908.0410, 16.52152
908.5231, 16.57811
909.0052, 16.46293
909.4874, 16.33196
909.9695, 16.29579
910.4516, 16.36598
910.9337, 16.44387
911.4158, 16.54074
911.8979, 16.59348
912.3801, 16.52306
912.8622, 16.38915
913.3443, 16.32363
913.8264, 16.31975
914.3085, 16.33055
914.7906, 16.32312
915.2728, 16.33290
915.7549, 16.42397
916.2370, 16.55466
916.7191, 16.52754
917.2012, 16.28707
917.6833, 16.09918
918.1655, 16.05042
918.6476, 16.08429
919.1297, 16.11809
919.6118, 16.14588
920.0939, 16.14351
920.5760, 16.02262
921.0582, 15.99488
921.5403, 16.31015
922.0224, 16.70719
922.5045, 16.81875
922.9866, 16.50310
923.4688, 16.30670
923.9509, 16.28693
924.4330, 16.31100
924.9151, 16.23781
925.3972, 16.09064
925.8793, 15.90300
926.3615, 15.67382
926.8436, 15.49835
927.3257, 15.48199
927.8078, 15.49709
928.2899, 15.43621
928.7720, 15.28906
929.2542, 15.24391
929.7363, 15.33491
930.2184, 15.41393
930.7005, 15.40123
931.1826, 15.31957
931.6647, 15.19706
932.1469, 15.05104
932.6290, 14.95562
933.1111, 15.01195
933.5932, 15.05983
934.0753, 15.01665
934.5574, 14.90688
935.0396, 14.80593
935.5217, 14.71242
936.0038, 14.62619
936.4859, 14.54090
936.9680, 14.47321
937.4501, 14.45588
937.9323, 14.47490
938.4144, 14.50557
938.8965, 14.55697
939.3786, 14.56937
939.8607, 14.46371
940.3428, 14.33872
940.8250, 14.29374
941.3071, 14.36799
941.7892, 14.34929
942.2713, 14.21883
942.7534, 14.07227
943.2355, 13.97843
943.7177, 13.92431
944.1998, 13.89753
944.6819, 13.89070
945.1640, 13.85193
945.6461, 13.67098
946.1282, 13.53708
946.6104, 13.58445
947.0925, 13.75588
947.5746, 13.83835
948.0567, 13.82305
948.5388, 13.76379
949.0209, 13.65558
949.5031, 13.54990
949.9852, 13.56411
950.4673, 13.63846
950.9494, 13.64330
951.4315, 13.48411
951.9136, 13.33927
952.3958, 13.23671
952.8779, 13.19086
953.3600, 13.24244
953.8421, 13.41963
954.3242, 13.47911
954.8063, 13.39763
955.2885, 13.28438
955.7706, 13.23353
956.2527, 13.21523
956.7348, 13.20092
957.2169, 13.18656
957.6990, 13.13832
958.1811, 12.96662
958.6632, 12.84703
959.1453, 12.86231
959.6274, 12.98157
960.1096, 13.03412
960.5917, 13.02032
961.0738, 13.02888
961.5559, 13.12644
962.0380, 13.22385
962.5201, 13.20869
963.0023, 13.12544
963.4844, 13.05540
963.9665, 13.03495
964.4486, 13.00949
964.9307, 12.97259
965.4128, 12.93114
965.8950, 12.88404
966.3771, 12.83533
966.8592, 12.83279
967.3413, 12.88352
967.8234, 12.93887
968.3055, 12.96410
968.7877, 12.97128
969.2698, 12.96859
969.7519, 12.95648
970.2340, 12.94127
970.7161, 12.92684
971.1982, 12.90150
971.6804, 12.85192
972.1625, 12.79260
972.6446, 12.76683
973.1267, 12.77198
973.6088, 12.79611
974.0909, 12.86840
974.5731, 12.91591
975.0552, 12.84333
975.5373, 12.73847
976.0194, 12.75998
976.5015, 12.98880
976.9836, 13.12399
977.4658, 13.12799
977.9479, 13.07919
978.4300, 13.07676
978.9121, 13.08515
979.3942, 13.00094
979.8763, 12.80866
980.3585, 12.67452
980.8406, 12.73653
981.3227, 12.82950
981.8048, 12.86311
982.2869, 12.84383
982.7690, 12.86004
983.2512, 12.91783
983.7333, 12.94904
984.2154, 12.92165
984.6975, 12.85470
985.1796, 12.73126
985.6617, 12.59430
986.1439, 12.53382
986.6260, 12.67787
987.1081, 12.76795
987.5902, 12.76006
988.0723, 12.69667
988.5544, 12.60037
989.0366, 12.47550
989.5187, 12.44903
990.0008, 12.53675
990.4829, 12.62857
990.9650, 12.63223
991.4471, 12.59898
991.9293, 12.57008
992.4114, 12.54947
992.8935, 12.52756
993.3756, 12.49579
993.8577, 12.47830
994.3398, 12.48528
994.8220, 12.51041
995.3041, 12.53913
995.7862, 12.57185
996.2683, 12.61417
996.7504, 12.69102
997.2325, 12.73851
997.7147, 12.69852
998.1968, 12.62267
998.6789, 12.57947
999.1610, 12.59310
999.6431, 12.55033
1000.125, 12.43829
1000.607, 12.32321
1001.089, 12.25925
1001.572, 12.23579
1002.054, 12.25171
1002.536, 12.30075
1003.018, 12.33204
1003.500, 12.32842
1003.982, 12.29603
1004.464, 12.22091
1004.946, 12.12658
1005.429, 12.08963
1005.911, 12.10806
1006.393, 12.14272
1006.875, 12.18773
1007.357, 12.23074
1007.839, 12.27339
1008.321, 12.30166
1008.803, 12.29403
1009.285, 12.21356
1009.768, 12.18308
1010.250, 12.23069
1010.732, 12.27260
1011.214, 12.23558
1011.696, 12.14291
1012.178, 12.07524
1012.660, 12.03258
1013.142, 12.00841
1013.625, 12.03813
1014.107, 12.04531
1014.589, 11.97378
1015.071, 11.85511
1015.553, 11.75069
1016.035, 11.65148
1016.517, 11.63660
1016.999, 11.74058
1017.481, 11.85424
1017.964, 11.83459
1018.446, 11.74175
1018.928, 11.64873
1019.410, 11.55948
1019.892, 11.52696
1020.374, 11.62442
1020.856, 11.69677
1021.338, 11.64990
1021.820, 11.51667
1022.303, 11.50643
1022.785, 11.59921
1023.267, 11.65349
1023.749, 11.54798
1024.231, 11.43681
1024.713, 11.43951
1025.195, 11.50003
1025.677, 11.51534
1026.160, 11.44996
1026.642, 11.43726
1027.124, 11.50418
1027.606, 11.56010
1028.088, 11.47655
1028.570, 11.32788
1029.052, 11.24911
1029.534, 11.25038
1030.016, 11.28216
1030.499, 11.35891
1030.981, 11.42493
1031.463, 11.46670
1031.945, 11.48159
1032.427, 11.45251
1032.909, 11.38184
1033.391, 11.30334
1033.873, 11.21408
1034.356, 11.15666
1034.838, 11.18014
1035.320, 11.25148
1035.802, 11.33747
1036.284, 11.45451
1036.766, 11.51777
1037.248, 11.51030
1037.730, 11.49704
1038.213, 11.51740
1038.695, 11.56763
1039.177, 11.66901
1039.659, 11.79954
1040.141, 11.86360
1040.623, 11.72968
1041.105, 11.62806
1041.587, 11.64212
1042.069, 11.72264
1042.552, 11.80249
1043.034, 11.88120
1043.516, 11.97242
1043.998, 12.08387
1044.480, 12.16408
1044.962, 12.13901
1045.444, 12.08223
1045.926, 12.08210
1046.408, 12.15030
1046.891, 12.11623
1047.373, 11.92351
1047.855, 11.76550
1048.337, 11.73836
1048.819, 11.75862
1049.301, 11.63426
1049.783, 11.41600
1050.265, 11.22497
1050.748, 11.10300
1051.230, 11.01406
1051.712, 10.97639
1052.194, 10.94290
1052.676, 10.87812
1053.158, 10.78025
1053.640, 10.66426
1054.122, 10.53046
1054.604, 10.42521
1055.087, 10.40370
1055.569, 10.40303
1056.051, 10.36195
1056.533, 10.29821
1057.015, 10.27816
1057.497, 10.33319
1057.979, 10.35985
1058.461, 10.34551
1058.943, 10.29421
1059.426, 10.17149
1059.908, 10.02864
1060.390, 9.973282
1060.872, 10.02448
1061.354, 10.07652
1061.836, 10.12639
1062.318, 10.12172
1062.800, 10.01844
1063.283, 9.851064
1063.765, 9.756105
1064.247, 9.729152
1064.729, 9.739622
1065.211, 9.799397
1065.693, 9.842849
1066.175, 9.801466
1066.657, 9.726347
1067.140, 9.677646
1067.622, 9.664215
1068.104, 9.650382
1068.586, 9.635081
1069.068, 9.625904
1069.550, 9.629357
1070.032, 9.641948
1070.514, 9.663191
1070.996, 9.689259
1071.479, 9.708304
1071.961, 9.725244
1072.443, 9.720647
1072.925, 9.686025
1073.407, 9.638124
1073.889, 9.602091
1074.371, 9.572599
1074.853, 9.512595
1075.335, 9.418198
1075.818, 9.354296
1076.300, 9.394971
1076.782, 9.446337
1077.264, 9.450053
1077.746, 9.417683
1078.228, 9.397777
1078.710, 9.390167
1079.192, 9.402187
1079.675, 9.450343
1080.157, 9.478775
1080.639, 9.396656
1081.121, 9.275225
1081.603, 9.206942
1082.085, 9.227183
1082.567, 9.220286
1083.049, 9.165462
1083.531, 9.140623
1084.014, 9.218383
1084.496, 9.340046
1084.978, 9.357641
1085.460, 9.303223
1085.942, 9.268126
1086.424, 9.300084
1086.906, 9.340121
1087.388, 9.387525
1087.870, 9.426138
1088.353, 9.448614
1088.835, 9.451126
1089.317, 9.372448
1089.799, 9.214767
1090.281, 9.086212
1090.763, 9.069116
1091.245, 9.093433
1091.727, 9.142841
1092.209, 9.197149
1092.692, 9.195024
1093.174, 9.124871
1093.656, 9.090511
1094.138, 9.115709
1094.620, 9.156871
1095.102, 9.174301
1095.584, 9.176690
1096.066, 9.175135
1096.549, 9.171408
1097.031, 9.147383
1097.513, 9.088907
1097.995, 9.046789
1098.477, 9.048255
1098.959, 9.066815
1099.441, 9.037992
1099.923, 8.984986
1100.406, 8.963165
1100.888, 9.011616
1101.370, 9.034821
1101.852, 8.983405
1102.334, 8.927935
1102.816, 8.912150
1103.298, 8.932266
1103.780, 8.974780
1104.262, 9.031388
1104.745, 9.045169
1105.227, 8.921720
1105.709, 8.819094
1106.191, 8.837036
1106.673, 8.915216
1107.155, 8.971163
1107.637, 9.006002
1108.119, 8.997481
1108.601, 8.940609
1109.084, 8.894591
1109.566, 8.950543
1110.048, 9.004911
1110.530, 8.917698
1111.012, 8.730555
1111.494, 8.683879
1111.976, 8.860955
1112.458, 8.949265
1112.941, 8.874317
1113.423, 8.756825
1113.905, 8.756138
1114.387, 8.817380
1114.869, 8.858823
1115.351, 8.870376
1115.833, 8.855574
1116.315, 8.794837
1116.797, 8.743083
1117.280, 8.723392
1117.762, 8.718303
1118.244, 8.668277
1118.726, 8.597388
1119.208, 8.581201
1119.690, 8.663107
1120.172, 8.732732
1120.654, 8.729868
1121.136, 8.713126
1121.619, 8.721316
1122.101, 8.749353
1122.583, 8.739322
1123.065, 8.695722
1123.547, 8.658031
1124.029, 8.637753
1124.511, 8.639584
1124.993, 8.715987
1125.476, 8.787228
1125.958, 8.737331
1126.440, 8.525234
1126.922, 8.435590
1127.404, 8.477610
1127.886, 8.545521
1128.368, 8.580052
1128.850, 8.588731
1129.333, 8.556964
1129.815, 8.506204
1130.297, 8.500578
1130.779, 8.566199
1131.261, 8.605824
1131.743, 8.605728
1132.225, 8.594604
1132.707, 8.605244
1133.189, 8.622945
1133.672, 8.638385
1134.154, 8.646587
1134.636, 8.605884
1135.118, 8.448390
1135.600, 8.359502
1136.082, 8.402987
1136.564, 8.488872
1137.046, 8.459687
1137.528, 8.361349
1138.011, 8.295583
1138.493, 8.279873
1138.975, 8.282529
1139.457, 8.321501
1139.939, 8.339136
1140.421, 8.295455
1140.903, 8.227964
1141.385, 8.274377
1141.868, 8.398665
1142.350, 8.453009
1142.832, 8.369638
1143.314, 8.283744
1143.796, 8.258360
1144.278, 8.261150
1144.760, 8.278009
1145.242, 8.305321
1145.724, 8.286188
1146.207, 8.227507
1146.689, 8.197223
1147.171, 8.262067
1147.653, 8.311125
1148.135, 8.238284
1148.617, 8.129788
1149.099, 8.082330
1149.581, 8.101636
1150.063, 8.169954
1150.546, 8.289329
1151.028, 8.373164
1151.510, 8.322897
1151.992, 8.248524
1152.474, 8.252582
1152.956, 8.296455
1153.438, 8.289092
1153.920, 8.189206
1154.403, 8.195075
1154.885, 8.334737
1155.367, 8.464463
1155.849, 8.438280
1156.331, 8.343536
1156.813, 8.257605
1157.295, 8.187993
1157.777, 8.150571
1158.260, 8.150088
1158.742, 8.171191
1159.224, 8.221284
1159.706, 8.259120
1160.188, 8.213895
1160.670, 8.137285
1161.152, 8.109145
1161.634, 8.133132
1162.116, 8.147312
1162.599, 8.119738
1163.081, 8.128140
1163.563, 8.207034
1164.045, 8.296270
1164.527, 8.287939
1165.009, 8.222547
1165.491, 8.174391
1165.973, 8.155318
1166.455, 8.156037
1166.938, 8.201816
1167.420, 8.223016
1167.902, 8.189974
1168.384, 8.125227
1168.866, 8.072909
1169.348, 8.032445
1169.830, 8.001693
1170.312, 7.979448
1170.795, 7.968276
1171.277, 7.963401
1171.759, 7.979045
1172.241, 8.034842
1172.723, 8.111528
1173.205, 8.127773
1173.687, 8.100301
1174.169, 8.094891
1174.651, 8.156318
1175.134, 8.194943
1175.616, 8.174031
1176.098, 8.116446
1176.580, 8.010392
1177.062, 7.873368
1177.544, 7.864177
1178.026, 7.960402
1178.508, 8.038532
1178.990, 8.020779
1179.473, 7.995827
1179.955, 8.009490
1180.437, 8.027084
1180.919, 8.013268
1181.401, 7.968782
1181.883, 7.943113
1182.365, 7.934708
1182.847, 7.926817
1183.330, 7.892924
1183.812, 7.875931
1184.294, 7.926643
1184.776, 7.989790
1185.258, 7.984168
1185.740, 7.906972
1186.222, 7.911582
1186.704, 8.001730
1187.187, 8.075781
1187.669, 8.054098
1188.151, 8.006495
1188.633, 7.965958
1189.115, 7.933244
1189.597, 7.910271
1190.079, 7.897604
1190.561, 7.878013
1191.043, 7.849449
1191.526, 7.822372
1192.008, 7.793932
1192.490, 7.780458
1192.972, 7.799617
1193.454, 7.842187
1193.936, 7.886184
1194.418, 7.932049
1194.900, 7.979248
1195.382, 8.030569
1195.865, 8.046750
1196.347, 7.939843
1196.829, 7.832570
1197.311, 7.846260
1197.793, 7.943799
1198.275, 7.952187
1198.757, 7.861055
1199.239, 7.837522
1199.722, 7.927124
1200.204, 8.012826
1200.686, 7.964995
1201.168, 7.888233
1201.650, 7.881327
1202.132, 7.933510
1202.614, 7.933587
1203.096, 7.875101
1203.578, 7.869813
1204.061, 7.963009
1204.543, 8.047403
1205.025, 8.002328
1205.507, 7.912854
1205.989, 7.855774
1206.471, 7.833035
1206.953, 7.815054
1207.435, 7.799424
1207.917, 7.827161
1208.400, 7.925934
1208.882, 8.025862
1209.364, 8.070629
1209.846, 8.073568
1210.328, 8.038032
1210.810, 7.967505
1211.292, 7.883550
1211.774, 7.781518
1212.257, 7.753454
1212.739, 7.877801
1213.221, 7.987208
1213.703, 7.861259
1214.185, 7.676364
1214.667, 7.644521
1215.149, 7.776390
1215.631, 7.843359
1216.114, 7.843294
1216.596, 7.841863
1217.078, 7.875071
1217.560, 7.904589
1218.042, 7.885346
1218.524, 7.851450
1219.006, 7.848196
1219.488, 7.881370
1219.970, 7.865567
1220.453, 7.799179
1220.935, 7.760589
1221.417, 7.815111
1221.899, 7.873400
1222.381, 7.847420
1222.863, 7.795533
1223.345, 7.792577
1223.827, 7.846312
1224.309, 7.877781
1224.792, 7.887146
1225.274, 7.894845
1225.756, 7.918255
1226.238, 7.936731
1226.720, 7.945425
1227.202, 7.933553
1227.684, 7.881132
1228.166, 7.778464
1228.649, 7.743236
1229.131, 7.772652
1229.613, 7.808863
1230.095, 7.810999
1230.577, 7.816343
1231.059, 7.853593
1231.541, 7.903112
1232.023, 7.940515
1232.505, 7.964823
1232.988, 8.000003
1233.470, 8.043475
1233.952, 8.054797
1234.434, 7.970225
1234.916, 7.891602
1235.398, 7.901597
1235.880, 7.928394
1236.362, 7.883643
1236.844, 7.769637
1237.327, 7.677732
1237.809, 7.613212
1238.291, 7.606705
1238.773, 7.732264
1239.255, 7.853991
1239.737, 7.925130
1240.219, 7.949584
1240.701, 7.908651
1241.184, 7.813981
1241.666, 7.769562
1242.148, 7.773813
1242.630, 7.782347
1243.112, 7.774799
1243.594, 7.761557
1244.076, 7.737579
1244.558, 7.718992
1245.041, 7.727133
1245.523, 7.756742
1246.005, 7.793518
1246.487, 7.831619
1246.969, 7.841617
1247.451, 7.786903
1247.933, 7.729189
1248.415, 7.662180
1248.897, 7.626880
1249.380, 7.706480
1249.862, 7.849483
1250.344, 7.877389
1250.826, 7.804542
1251.308, 7.756383
1251.790, 7.780656
1252.272, 7.850798
1252.754, 7.994588
1253.236, 8.113668
1253.719, 8.060931
1254.201, 7.916084
1254.683, 7.836817
1255.165, 7.820756
1255.647, 7.811386
1256.129, 7.782071
1256.611, 7.784837
1257.093, 7.836603
1257.576, 7.887630
1258.058, 7.878309
1258.540, 7.838509
1259.022, 7.809355
1259.504, 7.790109
1259.986, 7.763650
1260.468, 7.710000
1260.950, 7.700337
1261.432, 7.747053
1261.915, 7.814713
1262.397, 7.892149
1262.879, 7.954099
1263.361, 7.958713
1263.843, 7.921858
1264.325, 7.915403
1264.807, 7.963447
1265.289, 7.926616
1265.771, 7.779153
1266.254, 7.658988
1266.736, 7.734788
1267.218, 7.847428
1267.700, 7.861838
1268.182, 7.806955
1268.664, 7.777460
1269.146, 7.774442
1269.628, 7.787612
1270.111, 7.816813
1270.593, 7.831103
1271.075, 7.771912
1271.557, 7.727996
1272.039, 7.778124
1272.521, 7.869168
1273.003, 7.918700
1273.485, 7.930132
1273.968, 7.960876
1274.450, 8.013003
1274.932, 8.030751
1275.414, 7.945255
1275.896, 7.861026
1276.378, 7.801488
1276.860, 7.777723
1277.342, 7.829520
1277.824, 7.930244
1278.307, 7.966323
1278.789, 7.937992
1279.271, 7.921822
1279.753, 7.977218
1280.235, 8.010094
1280.717, 7.994062
1281.199, 7.966011
1281.681, 7.971845
1282.163, 7.997094
1282.646, 8.014102
1283.128, 8.021293
1283.610, 8.021132
1284.092, 8.004377
1284.574, 7.999441
1285.056, 8.010328
1285.538, 8.029445
1286.020, 8.080028
1286.503, 8.112566
1286.985, 8.019222
1287.467, 7.848825
1287.949, 7.794932
1288.431, 7.918585
1288.913, 7.957896
1289.395, 7.880849
1289.877, 7.812699
1290.359, 7.892877
1290.842, 7.997569
1291.324, 8.026205
1291.806, 7.997111
1292.288, 7.954381
1292.770, 7.892869
1293.252, 7.900195
1293.734, 7.979703
1294.216, 8.044927
1294.698, 8.013045
1295.181, 7.978405
1295.663, 8.001814
1296.145, 8.044904
1296.627, 8.067729
1297.109, 8.071038
1297.591, 8.049770
1298.073, 8.009223
1298.555, 7.984132
1299.038, 7.977808
1299.520, 8.018420
1300.002, 8.154078
1300.484, 8.267481
1300.966, 8.191678
1301.448, 8.014298
1301.930, 7.966475
1302.412, 8.030972
1302.895, 8.122774
1303.377, 8.272181
1303.859, 8.348152
1304.341, 8.330863
1304.823, 8.274114
1305.305, 8.197771
##END=



