##NAMES=Pseudograndreefite
##RRUFFID=R100006
##IDEAL CHEMISTRY=Pb^2+^_6_(S^6+^O_4_)F_10_
##LOCALITY=Grand Reef mine, Klondyke, Aravaipa District, Graham County, Arizona, USA
##OWNER=RRUFF
##SOURCE=Natural History Museum of Los Angeles County 
##DESCRIPTION=Colorless crystal fragments from the type specimen, associated with laurelite R100035 and grandreefite R100012. Photo of type specimen is courtesy of LACMNH.
##STATUS=The identification of this mineral has been confirmed by single-crystal X-ray diffraction.
##URL=rruff.info/R100006
92.49744, 2148.755
92.97955, 2175.627
93.46167, 2209.719
93.94379, 2222.883
94.42590, 2227.718
94.90802, 2227.750
95.39014, 2221.390
95.87225, 2208.276
96.35437, 2192.083
96.83649, 2174.885
97.31860, 2157.836
97.80072, 2140.476
98.28284, 2124.636
98.76495, 2104.929
99.24707, 2086.139
99.72919, 2067.780
100.2113, 2051.796
100.6934, 2037.695
101.1755, 2025.680
101.6577, 2016.524
102.1398, 2010.967
102.6219, 2009.442
103.1040, 2008.732
103.5861, 2008.938
104.0682, 2009.241
104.5504, 2009.131
105.0325, 2008.484
105.5146, 2007.380
105.9967, 2005.506
106.4788, 2001.819
106.9609, 1999.666
107.4431, 1999.673
107.9252, 2001.074
108.4073, 2002.828
108.8894, 2004.512
109.3715, 2006.514
109.8536, 2009.503
110.3358, 2013.462
110.8179, 2017.926
111.3000, 2022.850
111.7821, 2028.182
112.2642, 2033.424
112.7463, 2038.106
113.2285, 2042.810
113.7106, 2048.024
114.1927, 2053.754
114.6748, 2060.140
115.1569, 2067.694
115.6390, 2077.393
116.1212, 2085.801
116.6033, 2091.745
117.0854, 2096.203
117.5675, 2099.738
118.0496, 2102.400
118.5317, 2104.704
119.0139, 2109.177
119.4960, 2118.686
119.9781, 2127.438
120.4602, 2134.653
120.9423, 2140.379
121.4244, 2144.852
121.9066, 2148.232
122.3887, 2150.499
122.8708, 2151.767
123.3529, 2152.921
123.8350, 2152.637
124.3171, 2148.878
124.7993, 2142.230
125.2814, 2136.307
125.7635, 2135.005
126.2456, 2139.626
126.7277, 2143.033
127.2098, 2144.910
127.6920, 2145.605
128.1741, 2145.392
128.6562, 2144.267
129.1383, 2142.441
129.6204, 2139.699
130.1025, 2136.129
130.5847, 2133.087
131.0668, 2132.117
131.5489, 2132.327
132.0310, 2130.482
132.5131, 2124.911
132.9952, 2117.976
133.4774, 2111.410
133.9595, 2105.294
134.4416, 2100.174
134.9237, 2096.951
135.4058, 2095.956
135.8879, 2094.595
136.3701, 2092.628
136.8522, 2090.048
137.3343, 2086.656
137.8164, 2082.413
138.2985, 2077.740
138.7806, 2073.216
139.2628, 2068.600
139.7449, 2064.688
140.2270, 2062.085
140.7091, 2059.831
141.1912, 2057.032
141.6733, 2053.297
142.1555, 2048.873
142.6376, 2044.684
143.1197, 2041.281
143.6018, 2037.464
144.0839, 2032.827
144.5660, 2027.700
145.0482, 2022.548
145.5303, 2017.607
146.0124, 2012.899
146.4945, 2008.559
146.9766, 2005.941
147.4587, 2002.326
147.9409, 1995.934
148.4230, 1987.254
148.9051, 1978.625
149.3872, 1971.705
149.8693, 1966.253
150.3514, 1960.094
150.8336, 1952.818
151.3157, 1945.067
151.7978, 1937.422
152.2799, 1929.893
152.7620, 1922.166
153.2441, 1914.341
153.7263, 1906.141
154.2084, 1896.670
154.6905, 1884.789
155.1726, 1871.631
155.6547, 1859.628
156.1368, 1849.193
156.6190, 1839.354
157.1011, 1829.802
157.5832, 1820.357
158.0653, 1810.518
158.5474, 1799.762
159.0295, 1788.196
159.5117, 1777.378
159.9938, 1769.240
160.4759, 1759.757
160.9580, 1746.654
161.4401, 1730.859
161.9222, 1714.935
162.4044, 1701.280
162.8865, 1690.245
163.3686, 1679.003
163.8507, 1667.757
164.3328, 1656.084
164.8149, 1643.981
165.2971, 1631.282
165.7792, 1617.930
166.2613, 1603.671
166.7434, 1588.255
167.2255, 1572.701
167.7076, 1556.026
168.1898, 1539.820
168.6719, 1525.768
169.1540, 1513.991
169.6361, 1502.805
170.1182, 1489.704
170.6003, 1473.478
171.0825, 1458.410
171.5646, 1445.624
172.0467, 1433.771
172.5288, 1421.130
173.0109, 1407.111
173.4930, 1392.881
173.9752, 1380.524
174.4573, 1370.166
174.9394, 1359.795
175.4215, 1348.637
175.9036, 1336.986
176.3857, 1325.721
176.8679, 1315.270
177.3500, 1304.770
177.8321, 1292.908
178.3142, 1279.499
178.7963, 1266.367
179.2784, 1254.774
179.7606, 1244.471
180.2427, 1234.219
180.7248, 1223.534
181.2069, 1212.944
181.6890, 1203.005
182.1711, 1193.730
182.6533, 1184.768
183.1354, 1175.775
183.6175, 1166.727
184.0996, 1157.850
184.5817, 1149.388
185.0638, 1140.993
185.5460, 1132.500
186.0281, 1123.871
186.5102, 1115.199
186.9923, 1106.516
187.4744, 1097.592
187.9565, 1089.321
188.4387, 1082.183
188.9208, 1075.386
189.4029, 1068.467
189.8850, 1061.234
190.3671, 1053.816
190.8492, 1046.169
191.3314, 1037.199
191.8135, 1030.079
192.2956, 1026.371
192.7777, 1023.696
193.2598, 1019.868
193.7419, 1014.057
194.2241, 1007.121
194.7062, 1001.133
195.1883, 996.7959
195.6704, 992.6948
196.1525, 989.4445
196.6346, 986.2225
197.1168, 981.8123
197.5989, 975.6312
198.0810, 968.5225
198.5631, 962.9744
199.0452, 959.8615
199.5273, 957.0030
200.0095, 954.0673
200.4916, 951.1750
200.9737, 948.6136
201.4558, 946.5974
201.9379, 944.7831
202.4200, 942.0082
202.9022, 937.5826
203.3843, 933.6134
203.8664, 931.0972
204.3485, 929.6442
204.8306, 928.1893
205.3127, 926.2424
205.7949, 924.0743
206.2770, 922.3454
206.7591, 921.3054
207.2412, 920.1190
207.7233, 918.0638
208.2054, 915.3024
208.6876, 912.8675
209.1697, 911.0500
209.6518, 909.9443
210.1339, 909.6716
210.6160, 910.5176
211.0981, 911.3926
211.5803, 911.2480
212.0624, 910.0814
212.5445, 909.1482
213.0266, 908.9887
213.5087, 909.2381
213.9908, 909.6016
214.4730, 910.0557
214.9551, 910.5385
215.4372, 910.9288
215.9193, 911.1874
216.4014, 911.6284
216.8836, 911.9479
217.3657, 912.7343
217.8478, 914.7375
218.3299, 918.1536
218.8120, 921.8801
219.2941, 924.2904
219.7763, 924.9387
220.2584, 925.7072
220.7405, 926.1801
221.2226, 927.3268
221.7047, 930.2155
222.1868, 935.0642
222.6690, 940.6549
223.1511, 944.9913
223.6332, 947.4156
224.1153, 950.0932
224.5974, 953.2579
225.0795, 956.6844
225.5617, 960.1540
226.0438, 963.6262
226.5259, 967.3064
227.0080, 971.6305
227.4901, 977.1688
227.9722, 982.2993
228.4544, 986.3016
228.9365, 990.3301
229.4186, 995.4031
229.9007, 1001.738
230.3828, 1008.633
230.8649, 1014.782
231.3471, 1019.490
231.8292, 1024.579
232.3113, 1029.922
232.7934, 1035.655
233.2755, 1042.246
233.7576, 1049.695
234.2398, 1057.214
234.7219, 1063.304
235.2040, 1066.178
235.6861, 1070.916
236.1682, 1078.963
236.6503, 1088.037
237.1325, 1096.049
237.6146, 1102.423
238.0967, 1108.039
238.5788, 1114.178
239.0609, 1121.085
239.5430, 1127.932
240.0252, 1134.871
240.5073, 1141.621
240.9894, 1147.698
241.4715, 1153.022
241.9536, 1158.156
242.4357, 1164.036
242.9179, 1170.987
243.4000, 1177.096
243.8821, 1182.002
244.3642, 1186.045
244.8463, 1189.251
245.3284, 1191.588
245.8106, 1194.019
246.2927, 1197.951
246.7748, 1203.468
247.2569, 1208.344
247.7390, 1212.144
248.2211, 1215.199
248.7033, 1218.114
249.1854, 1221.074
249.6675, 1223.143
250.1496, 1222.899
250.6317, 1220.673
251.1138, 1218.481
251.5960, 1217.131
252.0781, 1215.864
252.5602, 1213.748
253.0423, 1210.723
253.5244, 1206.834
254.0065, 1201.673
254.4887, 1195.639
254.9708, 1189.728
255.4529, 1184.885
255.9350, 1180.038
256.4171, 1173.556
256.8992, 1165.146
257.3813, 1156.254
257.8635, 1147.831
258.3456, 1139.616
258.8277, 1131.048
259.3098, 1121.944
259.7919, 1112.488
260.2740, 1103.054
260.7562, 1093.747
261.2383, 1084.005
261.7204, 1072.930
262.2025, 1061.320
262.6846, 1050.088
263.1667, 1039.721
263.6489, 1029.560
264.1310, 1018.611
264.6131, 1006.804
265.0952, 994.5059
265.5773, 981.1968
266.0594, 967.8138
266.5416, 955.3170
267.0237, 944.1199
267.5058, 933.4636
267.9879, 922.2479
268.4700, 910.4142
268.9521, 898.4523
269.4343, 886.2635
269.9164, 874.1379
270.3985, 862.2273
270.8806, 850.5209
271.3627, 839.4308
271.8448, 829.7273
272.3270, 821.6671
272.8091, 813.4220
273.2912, 804.5536
273.7733, 795.3401
274.2554, 785.6915
274.7375, 775.5723
275.2197, 765.5974
275.7018, 756.6083
276.1839, 748.9057
276.6660, 740.4332
277.1481, 729.5710
277.6302, 718.8580
278.1124, 709.7145
278.5945, 702.1659
279.0766, 695.4056
279.5587, 688.9236
280.0408, 682.8170
280.5229, 675.9877
281.0051, 666.7012
281.4872, 658.1888
281.9693, 652.4971
282.4514, 649.0351
282.9335, 645.4858
283.4156, 639.6200
283.8978, 631.3643
284.3799, 624.2695
284.8620, 619.5361
285.3441, 614.8319
285.8262, 609.1095
286.3083, 602.7771
286.7905, 596.8099
287.2726, 591.9911
287.7547, 588.1902
288.2368, 584.2972
288.7189, 580.5741
289.2010, 576.3824
289.6832, 571.0387
290.1653, 565.2571
290.6474, 560.0928
291.1295, 556.2346
291.6116, 553.3694
292.0938, 550.2341
292.5759, 546.4196
293.0580, 542.9619
293.5401, 540.7531
294.0222, 538.7187
294.5043, 535.3987
294.9865, 530.0862
295.4686, 523.8895
295.9507, 519.6561
296.4328, 519.0172
296.9149, 517.4727
297.3970, 513.5684
297.8792, 509.1657
298.3613, 506.1143
298.8434, 504.9008
299.3255, 504.3072
299.8076, 502.1335
300.2897, 497.1583
300.7719, 493.3795
301.2540, 491.5573
301.7361, 490.3588
302.2182, 488.9327
302.7003, 487.1522
303.1824, 485.4223
303.6646, 484.3068
304.1467, 484.0904
304.6288, 483.4595
305.1109, 482.3961
305.5930, 480.9616
306.0751, 479.0851
306.5573, 476.8302
307.0394, 474.3178
307.5215, 471.5017
308.0036, 468.2701
308.4857, 466.1961
308.9678, 467.0162
309.4500, 467.3187
309.9321, 465.6202
310.4142, 462.6415
310.8963, 460.0220
311.3784, 458.9482
311.8605, 459.1467
312.3427, 458.4744
312.8248, 455.9483
313.3069, 453.6364
313.7890, 452.0152
314.2711, 450.7928
314.7532, 449.5368
315.2354, 448.0373
315.7175, 446.4279
316.1996, 445.1395
316.6817, 444.5127
317.1638, 443.6625
317.6459, 442.2002
318.1281, 440.6539
318.6102, 439.5562
319.0923, 439.0580
319.5744, 438.8373
320.0565, 438.3663
320.5386, 437.5503
321.0208, 436.6889
321.5029, 435.8199
321.9850, 434.8969
322.4671, 433.8709
322.9492, 432.7419
323.4313, 431.5654
323.9135, 430.3897
324.3956, 429.2231
324.8777, 428.0086
325.3598, 426.5546
325.8419, 425.2231
326.3240, 424.1835
326.8062, 423.3889
327.2883, 422.6916
327.7704, 422.0167
328.2525, 421.3504
328.7346, 420.4120
329.2167, 418.9766
329.6989, 417.4984
330.1810, 416.0618
330.6631, 414.6618
331.1452, 413.2952
331.6273, 411.9628
332.1094, 410.6528
332.5916, 409.3230
333.0737, 407.9433
333.5558, 406.6014
334.0379, 405.4996
334.5200, 404.3403
335.0021, 402.6616
335.4843, 400.3376
335.9664, 398.0329
336.4485, 396.9247
336.9306, 397.4444
337.4127, 397.8739
337.8948, 398.4008
338.3770, 398.5278
338.8591, 397.7868
339.3412, 396.2251
339.8233, 394.4096
340.3055, 392.9467
340.7876, 391.9087
341.2697, 390.5307
341.7518, 388.2650
342.2339, 386.2018
342.7160, 384.9012
343.1982, 384.1482
343.6803, 383.3956
344.1624, 382.3284
344.6445, 380.9564
345.1266, 379.2238
345.6087, 376.5441
346.0909, 374.5084
346.5730, 373.8541
347.0551, 373.9531
347.5372, 374.1397
348.0193, 374.2293
348.5014, 373.9935
348.9836, 372.8813
349.4657, 370.6045
349.9478, 368.4362
350.4299, 366.6906
350.9120, 365.1858
351.3941, 363.7995
351.8763, 362.5120
352.3584, 361.4211
352.8405, 360.7530
353.3226, 360.5220
353.8047, 360.0422
354.2868, 358.8168
354.7690, 357.7601
355.2511, 357.6783
355.7332, 358.3444
356.2153, 358.7673
356.6974, 358.2411
357.1795, 356.9449
357.6617, 355.5428
358.1438, 354.0093
358.6259, 352.4507
359.1080, 350.6942
359.5901, 348.9965
360.0722, 347.8362
360.5544, 347.6299
361.0365, 347.7506
361.5186, 347.2308
362.0007, 345.9781
362.4828, 344.8380
362.9649, 344.3993
363.4471, 344.0997
363.9292, 343.1657
364.4113, 341.3430
364.8934, 339.6766
365.3755, 339.2022
365.8576, 339.6815
366.3398, 339.8129
366.8219, 339.2934
367.3040, 338.3242
367.7861, 336.8708
368.2682, 335.0044
368.7503, 333.6500
369.2325, 333.7358
369.7146, 334.3998
370.1967, 333.9585
370.6788, 332.0832
371.1609, 330.2661
371.6430, 329.9529
372.1252, 330.6512
372.6073, 330.7079
373.0894, 329.3690
373.5715, 327.7501
374.0536, 326.6877
374.5357, 326.1272
375.0179, 325.7519
375.5000, 325.4863
375.9821, 325.2521
376.4642, 324.8603
376.9463, 324.2763
377.4284, 323.6489
377.9106, 322.9356
378.3927, 322.2378
378.8748, 321.7890
379.3569, 321.6768
379.8390, 321.6231
380.3211, 321.2336
380.8033, 320.4237
381.2854, 319.7811
381.7675, 319.3817
382.2496, 319.1421
382.7317, 319.1708
383.2138, 319.3843
383.6960, 319.3169
384.1781, 318.5774
384.6602, 317.2133
385.1423, 315.9306
385.6244, 314.5245
386.1065, 313.3985
386.5887, 312.7516
387.0708, 312.4644
387.5529, 312.4428
388.0350, 312.6682
388.5171, 312.8731
388.9992, 312.4492
389.4814, 310.5540
389.9635, 309.3293
390.4456, 309.3359
390.9277, 309.6314
391.4098, 309.3763
391.8919, 308.5098
392.3741, 307.6133
392.8562, 307.3125
393.3383, 307.6975
393.8204, 307.9994
394.3025, 308.6782
394.7846, 308.8145
395.2668, 307.5617
395.7489, 305.5892
396.2310, 304.1713
396.7131, 304.0919
397.1952, 304.9323
397.6773, 305.2123
398.1595, 304.4759
398.6416, 303.9173
399.1237, 303.6870
399.6058, 303.6744
400.0879, 303.8895
400.5700, 304.2933
401.0522, 304.6318
401.5343, 304.5409
402.0164, 303.9300
402.4985, 303.4270
402.9806, 303.1632
403.4627, 302.9074
403.9449, 302.4544
404.4270, 301.9188
404.9091, 301.6060
405.3912, 301.7674
405.8733, 302.2563
406.3554, 302.6869
406.8376, 303.2020
407.3197, 303.2941
407.8018, 302.3828
408.2839, 301.1293
408.7660, 300.1576
409.2481, 299.5967
409.7303, 299.3752
410.2124, 299.5843
410.6945, 300.1839
411.1766, 300.4931
411.6587, 300.1277
412.1408, 299.7495
412.6230, 299.9717
413.1051, 300.7368
413.5872, 301.6647
414.0693, 302.7509
414.5514, 303.8463
415.0335, 304.6921
415.5157, 305.2624
415.9978, 305.6918
416.4799, 305.9234
416.9620, 306.1068
417.4441, 306.6789
417.9262, 307.9716
418.4084, 309.2350
418.8905, 309.8048
419.3726, 310.0042
419.8547, 310.7383
420.3368, 312.3900
420.8189, 314.4449
421.3011, 316.0133
421.7832, 316.8824
422.2653, 318.1954
422.7474, 320.1228
423.2295, 322.5118
423.7116, 325.5780
424.1938, 329.1527
424.6759, 332.3156
425.1580, 334.2427
425.6401, 335.0357
426.1222, 336.6713
426.6043, 339.5212
427.0865, 342.6334
427.5686, 345.9895
428.0507, 349.4078
428.5328, 352.5720
429.0149, 355.3788
429.4970, 358.1613
429.9792, 361.5709
430.4613, 366.0731
430.9434, 370.2327
431.4255, 373.6901
431.9076, 377.1893
432.3897, 381.1886
432.8719, 385.6411
433.3540, 390.2677
433.8361, 394.8880
434.3182, 399.4607
434.8003, 403.7751
435.2824, 407.9707
435.7646, 411.6161
436.2467, 414.4871
436.7288, 416.8828
437.2109, 419.2762
437.6930, 421.8286
438.1751, 423.7720
438.6573, 423.8283
439.1394, 421.8337
439.6215, 420.2416
440.1036, 419.8208
440.5857, 419.3669
441.0678, 417.8250
441.5500, 415.5121
442.0321, 413.6620
442.5142, 413.3590
442.9963, 413.7235
443.4784, 413.1542
443.9605, 411.5871
444.4427, 409.5197
444.9248, 406.6400
445.4069, 403.7072
445.8890, 402.2115
446.3711, 402.8698
446.8532, 403.1148
447.3354, 401.0191
447.8175, 397.5504
448.2996, 395.0258
448.7817, 394.1089
449.2638, 393.2210
449.7459, 390.5445
450.2281, 385.9380
450.7102, 381.7006
451.1923, 378.3736
451.6744, 375.0278
452.1565, 370.5185
452.6386, 365.4320
453.1208, 361.9625
453.6029, 361.5224
454.0850, 362.4720
454.5671, 360.2401
455.0492, 351.1267
455.5313, 343.7584
456.0135, 339.2880
456.4956, 335.8849
456.9777, 331.8983
457.4598, 327.2406
457.9419, 323.0166
458.4240, 320.3680
458.9062, 319.3302
459.3883, 317.8294
459.8704, 315.4789
460.3525, 313.0592
460.8346, 310.6295
461.3167, 308.2671
461.7989, 306.0568
462.2810, 304.0212
462.7631, 302.1294
463.2452, 300.2998
463.7273, 298.4991
464.2094, 296.9618
464.6916, 295.9601
465.1737, 295.0031
465.6558, 293.9034
466.1379, 292.6229
466.6200, 291.0633
467.1021, 288.9244
467.5843, 286.5782
468.0664, 284.7577
468.5485, 283.4748
469.0306, 282.6056
469.5127, 282.3140
469.9948, 282.2935
470.4770, 282.1506
470.9591, 281.9666
471.4412, 281.3079
471.9233, 279.4251
472.4054, 277.0507
472.8875, 275.6922
473.3697, 275.6646
473.8518, 275.8671
474.3339, 275.2393
474.8160, 273.7985
475.2981, 272.9354
475.7802, 273.5101
476.2624, 273.7464
476.7445, 272.3386
477.2266, 270.1013
477.7087, 268.7009
478.1908, 268.7979
478.6729, 269.6001
479.1551, 269.6374
479.6372, 268.2566
480.1193, 267.6566
480.6014, 268.6864
481.0835, 269.6256
481.5656, 269.3540
482.0478, 268.1425
482.5299, 266.9492
483.0120, 266.4180
483.4941, 266.3576
483.9762, 266.0500
484.4583, 265.3294
484.9405, 264.7037
485.4226, 264.3295
485.9047, 264.0416
486.3868, 263.6865
486.8689, 263.2577
487.3510, 262.9225
487.8332, 262.9240
488.3153, 263.1667
488.7974, 263.1584
489.2795, 262.8061
489.7616, 262.3863
490.2437, 261.9931
490.7259, 261.6569
491.2080, 261.4534
491.6901, 261.4763
492.1722, 261.4765
492.6543, 261.2245
493.1364, 260.8039
493.6186, 260.5512
494.1007, 260.6288
494.5828, 260.5088
495.0649, 259.2648
495.5470, 256.7090
496.0291, 255.6970
496.5113, 257.8551
496.9934, 260.1492
497.4755, 260.7582
497.9576, 260.0758
498.4397, 259.2728
498.9218, 258.9187
499.4040, 258.7185
499.8861, 257.9467
500.3682, 255.6386
500.8503, 254.6007
501.3324, 255.8722
501.8145, 257.3682
502.2967, 257.7923
502.7788, 257.2595
503.2609, 256.6155
503.7430, 256.4574
504.2251, 256.6265
504.7072, 256.5046
505.1894, 256.0007
505.6715, 255.4071
506.1536, 254.5185
506.6357, 253.7542
507.1178, 253.5745
507.5999, 254.0016
508.0821, 254.4302
508.5642, 254.3383
509.0463, 253.9065
509.5284, 253.6436
510.0105, 253.5755
510.4926, 253.7068
510.9748, 254.2029
511.4569, 254.8603
511.9390, 255.0340
512.4211, 253.7081
512.9032, 253.7117
513.3853, 257.6657
513.8674, 263.5450
514.3495, 268.3411
514.8317, 271.4051
515.3138, 271.9645
515.7959, 268.7200
516.2780, 261.2620
516.7601, 256.0711
517.2422, 253.8835
517.7244, 252.7141
518.2065, 252.3454
518.6886, 252.4263
519.1707, 252.6130
519.6528, 252.7662
520.1349, 252.8113
520.6171, 252.5757
521.0992, 251.9280
521.5813, 251.5437
522.0634, 251.6672
522.5455, 251.8283
523.0276, 251.9505
523.5098, 251.9749
523.9919, 251.7353
524.4740, 251.0371
524.9561, 250.3900
525.4382, 250.8559
525.9203, 252.4650
526.4025, 253.0954
526.8846, 251.6081
527.3667, 249.8489
527.8488, 249.7555
528.3309, 251.0731
528.8130, 252.2186
529.2952, 252.7830
529.7773, 252.9391
530.2594, 252.6392
530.7415, 252.0111
531.2236, 251.6543
531.7057, 251.9054
532.1879, 252.3554
532.6700, 252.1895
533.1521, 251.0092
533.6342, 250.1004
534.1163, 249.5454
534.5984, 249.2209
535.0806, 249.0603
535.5627, 249.0608
536.0448, 249.3194
536.5269, 249.9386
537.0090, 250.6747
537.4911, 250.6896
537.9733, 249.4138
538.4554, 248.6770
538.9375, 249.3277
539.4196, 250.0316
539.9017, 249.7211
540.3839, 248.6065
540.8660, 247.9033
541.3481, 248.8043
541.8302, 250.4131
542.3123, 250.4211
542.7944, 248.5796
543.2766, 247.3916
543.7587, 248.3036
544.2408, 249.9972
544.7229, 250.5196
545.2050, 249.7641
545.6871, 248.9204
546.1693, 248.2479
546.6514, 247.7800
547.1335, 247.6278
547.6156, 247.7507
548.0977, 247.8691
548.5798, 247.7873
549.0620, 247.6175
549.5441, 247.7404
550.0262, 248.6593
550.5083, 249.1907
550.9904, 248.8644
551.4725, 248.4983
551.9547, 248.9388
552.4368, 249.9953
552.9189, 250.6871
553.4010, 250.1869
553.8831, 248.8636
554.3652, 248.2584
554.8474, 248.6941
555.3295, 249.0432
555.8116, 249.0445
556.2937, 248.8393
556.7758, 248.4470
557.2579, 247.8969
557.7401, 247.3731
558.2222, 246.8441
558.7043, 246.4665
559.1864, 246.7165
559.6685, 247.6069
560.1506, 248.1028
560.6328, 247.5738
561.1149, 246.4623
561.5970, 245.7105
562.0791, 245.3790
562.5612, 245.1230
563.0433, 244.7388
563.5255, 244.5077
564.0076, 244.8003
564.4897, 245.5065
564.9718, 246.1602
565.4539, 246.4729
565.9360, 246.4886
566.4182, 246.3128
566.9003, 245.6335
567.3824, 245.3674
567.8645, 246.0147
568.3466, 246.6776
568.8287, 246.7414
569.3109, 246.2882
569.7930, 245.8072
570.2751, 245.6591
570.7572, 245.6126
571.2393, 245.1149
571.7214, 244.1253
572.2036, 243.1980
572.6857, 242.4870
573.1678, 241.9466
573.6499, 241.3879
574.1320, 240.8110
574.6141, 240.7962
575.0963, 242.1134
575.5784, 243.5704
576.0605, 244.1954
576.5426, 244.0624
577.0247, 243.4679
577.5068, 242.4945
577.9890, 241.4637
578.4711, 240.9836
578.9532, 241.2246
579.4353, 241.6199
579.9174, 242.3506
580.3995, 243.0374
580.8817, 243.4918
581.3638, 243.7664
581.8459, 244.0008
582.3280, 244.2683
582.8101, 244.4641
583.2922, 244.2547
583.7744, 243.5724
584.2565, 243.5396
584.7386, 244.6464
585.2207, 245.9508
585.7029, 246.7240
586.1850, 247.1700
586.6671, 247.8418
587.1492, 249.2341
587.6313, 250.4032
588.1135, 250.2724
588.5956, 249.4344
589.0777, 249.3360
589.5598, 250.3508
590.0419, 251.7924
590.5240, 252.9155
591.0062, 253.6824
591.4883, 254.9291
591.9704, 257.4114
592.4525, 259.4052
592.9346, 260.1832
593.4167, 260.4030
593.8989, 260.6960
594.3810, 261.2679
594.8631, 262.1813
595.3452, 263.6384
595.8273, 265.5679
596.3094, 267.1124
596.7916, 268.0788
597.2737, 269.1175
597.7558, 270.5904
598.2379, 272.2471
598.7200, 273.8051
599.2021, 275.2114
599.6843, 276.7423
600.1664, 278.5521
600.6485, 280.5688
601.1306, 282.8633
601.6127, 285.3614
602.0948, 287.5021
602.5770, 288.9048
603.0591, 289.8228
603.5412, 290.9541
604.0233, 292.4347
604.5054, 293.9182
604.9875, 296.0065
605.4697, 297.5770
605.9518, 297.7212
606.4339, 296.7367
606.9160, 295.5025
607.3981, 294.5169
607.8802, 293.5268
608.3624, 291.9134
608.8445, 289.5630
609.3266, 287.5616
609.8087, 286.3602
610.2908, 285.1847
610.7729, 283.4242
611.2551, 281.2281
611.7372, 279.0026
612.2193, 276.6600
612.7014, 274.5555
613.1835, 272.8594
613.6656, 271.6008
614.1478, 270.9369
614.6299, 270.9039
615.1120, 271.1443
615.5941, 271.3461
616.0762, 271.5087
616.5583, 271.4179
617.0405, 270.6020
617.5226, 270.1210
618.0047, 270.3051
618.4868, 270.8046
618.9689, 271.3695
619.4510, 271.9083
619.9332, 272.3203
620.4153, 272.5406
620.8974, 272.5650
621.3795, 272.4103
621.8616, 272.1180
622.3438, 271.4391
622.8259, 270.2666
623.3080, 268.6592
623.7901, 266.6812
624.2722, 264.3192
624.7543, 261.8910
625.2365, 259.4813
625.7186, 257.0229
626.2007, 254.2974
626.6828, 251.4854
627.1649, 249.1988
627.6470, 247.6933
628.1292, 246.4644
628.6113, 244.6533
629.0934, 242.0578
629.5755, 239.7001
630.0576, 237.3413
630.5397, 235.5058
631.0219, 234.7492
631.5040, 234.4617
631.9861, 233.7579
632.4682, 232.3702
632.9503, 230.9260
633.4324, 229.9595
633.9146, 229.3971
634.3967, 229.0585
634.8788, 228.9484
635.3609, 228.9208
635.8430, 228.9370
636.3251, 228.9523
636.8073, 228.8616
637.2894, 228.8010
637.7715, 228.3540
638.2536, 226.9027
638.7357, 225.4944
639.2178, 225.0267
639.7000, 225.3268
640.1821, 225.7637
640.6642, 226.0173
641.1463, 226.0067
641.6284, 225.3716
642.1105, 223.8426
642.5927, 223.1980
643.0748, 224.3221
643.5569, 225.4249
644.0390, 225.4521
644.5211, 224.7618
645.0032, 223.9962
645.4854, 223.1036
645.9675, 222.6546
646.4496, 223.4893
646.9317, 224.8947
647.4138, 225.5696
647.8959, 225.3333
648.3781, 224.5387
648.8602, 223.3167
649.3423, 221.8768
649.8244, 221.2656
650.3065, 222.3705
650.7886, 222.9863
651.2708, 222.8260
651.7529, 222.3599
652.2350, 221.7216
652.7171, 221.0473
653.1992, 220.5741
653.6813, 220.4281
654.1635, 220.5336
654.6456, 220.9962
655.1277, 221.7431
655.6098, 221.7090
656.0919, 220.3966
656.5740, 219.1255
657.0562, 219.1803
657.5383, 220.3577
658.0204, 220.9847
658.5025, 220.6149
658.9846, 220.2480
659.4667, 220.2826
659.9489, 220.3931
660.4310, 220.1501
660.9131, 219.5829
661.3952, 219.1065
661.8773, 219.0261
662.3594, 219.2610
662.8416, 219.6300
663.3237, 220.2976
663.8058, 220.4770
664.2879, 219.6170
664.7700, 218.6504
665.2521, 218.2943
665.7343, 218.3934
666.2164, 218.3930
666.6985, 218.0076
667.1806, 217.6524
667.6627, 217.6303
668.1448, 217.8435
668.6270, 218.1563
669.1091, 218.5253
669.5912, 218.8449
670.0733, 219.0204
670.5554, 219.0628
671.0375, 219.0560
671.5197, 218.9997
672.0018, 218.8896
672.4839, 218.7906
672.9660, 218.5887
673.4481, 218.0635
673.9302, 217.3500
674.4124, 216.8844
674.8945, 216.9557
675.3766, 217.2685
675.8587, 217.5704
676.3408, 217.8157
676.8229, 217.7063
677.3051, 217.1170
677.7872, 216.5704
678.2693, 216.5626
678.7514, 217.0398
679.2335, 217.3764
679.7156, 217.4897
680.1978, 217.5937
680.6799, 217.6895
681.1620, 217.8116
681.6441, 217.9697
682.1262, 218.1789
682.6083, 218.4618
683.0905, 218.8265
683.5726, 219.2897
684.0547, 220.0050
684.5368, 220.9683
685.0189, 221.5426
685.5010, 221.5442
685.9832, 221.2617
686.4653, 220.7811
686.9474, 220.1911
687.4295, 219.9348
687.9116, 220.1905
688.3937, 220.5513
688.8759, 220.9612
689.3580, 221.3813
689.8401, 221.7709
690.3222, 222.1301
690.8043, 222.4447
691.2864, 222.6787
691.7686, 222.9712
692.2507, 223.7233
692.7328, 225.0267
693.2149, 226.1871
693.6970, 226.9140
694.1791, 227.7632
694.6613, 229.2175
695.1434, 231.0603
695.6255, 232.8183
696.1076, 234.2558
696.5897, 235.9243
697.0718, 237.9779
697.5540, 240.4649
698.0361, 243.8245
698.5182, 247.7868
699.0003, 251.0781
699.4824, 252.8531
699.9645, 253.7985
700.4467, 255.7758
700.9288, 259.4365
701.4109, 261.6283
701.8930, 261.1869
702.3751, 260.4379
702.8572, 260.2882
703.3394, 260.6809
703.8215, 261.5628
704.3036, 262.9886
704.7857, 264.6156
705.2678, 265.8768
705.7499, 267.4147
706.2321, 270.1526
706.7142, 274.0590
707.1963, 278.5648
707.6784, 283.4340
708.1605, 288.6221
708.6426, 293.9339
709.1248, 298.9308
709.6069, 305.6324
710.0890, 315.4448
710.5711, 325.4002
711.0532, 334.7355
711.5353, 343.5093
712.0175, 352.1906
712.4996, 360.9848
712.9817, 367.9209
713.4638, 371.8141
713.9459, 373.1720
714.4280, 372.5858
714.9102, 370.1124
715.3923, 365.7819
715.8744, 359.6302
716.3565, 351.4930
716.8386, 340.6964
717.3207, 326.6846
717.8029, 314.4547
718.2850, 305.4370
718.7671, 296.5989
719.2492, 286.8828
719.7313, 277.2850
720.2134, 268.5034
720.6956, 260.7481
721.1777, 254.3814
721.6598, 250.3093
722.1419, 247.2664
722.6240, 243.5874
723.1061, 239.5154
723.5883, 236.1418
724.0704, 233.8145
724.5525, 231.7457
725.0346, 228.9989
725.5167, 225.6132
725.9988, 223.0183
726.4810, 221.5923
726.9631, 220.4389
727.4452, 219.5447
727.9273, 218.7791
728.4094, 218.0980
728.8915, 217.4591
729.3737, 216.7607
729.8558, 215.8852
730.3379, 215.0454
730.8200, 214.5134
731.3021, 214.1944
731.7842, 213.8626
732.2664, 213.4764
732.7485, 212.9267
733.2306, 212.0666
733.7127, 211.0566
734.1948, 210.5508
734.6769, 210.9108
735.1591, 211.1231
735.6412, 211.2442
736.1233, 211.1411
736.6054, 210.5777
737.0875, 209.7818
737.5696, 209.1812
738.0518, 208.9300
738.5339, 208.7572
739.0160, 208.3063
739.4981, 207.8379
739.9802, 208.0406
740.4623, 208.8379
740.9445, 209.1666
741.4266, 208.4208
741.9087, 207.2709
742.3908, 206.9730
742.8729, 207.8149
743.3550, 208.2554
743.8372, 207.9135
744.3193, 207.6166
744.8014, 207.7992
745.2835, 208.0145
745.7656, 207.5640
746.2477, 206.4226
746.7299, 205.7026
747.2120, 206.5895
747.6941, 207.7827
748.1762, 207.6444
748.6583, 206.5307
749.1404, 205.5278
749.6226, 204.9533
750.1047, 204.7262
750.5868, 204.7997
751.0689, 205.1474
751.5510, 205.5127
752.0331, 206.1107
752.5153, 206.3049
752.9974, 205.4101
753.4795, 204.5912
753.9616, 204.8370
754.4437, 205.7909
754.9258, 206.2346
755.4080, 205.5911
755.8901, 204.7577
756.3722, 204.2969
756.8543, 204.0528
757.3364, 203.7507
757.8185, 203.4039
758.3007, 203.3061
758.7828, 203.6634
759.2649, 204.2059
759.7470, 204.2656
760.2291, 203.6386
760.7112, 203.5809
761.1934, 204.6776
761.6755, 205.4785
762.1576, 204.9357
762.6397, 203.8879
763.1218, 203.4243
763.6039, 203.7006
764.0861, 203.9164
764.5682, 203.6237
765.0503, 203.3271
765.5324, 203.5906
766.0145, 204.1061
766.4966, 204.2509
766.9788, 203.8523
767.4609, 203.1404
767.9430, 202.2423
768.4251, 201.2719
768.9072, 200.8523
769.3893, 201.0715
769.8715, 201.3995
770.3536, 201.7448
770.8357, 202.1102
771.3178, 202.5986
771.7999, 203.1361
772.2820, 203.3308
772.7642, 202.9614
773.2463, 202.5141
773.7284, 202.0058
774.2105, 201.5617
774.6926, 201.3421
775.1747, 201.2911
775.6569, 201.2456
776.1390, 201.1308
776.6211, 200.9243
777.1032, 200.4867
777.5853, 199.8993
778.0674, 199.7029
778.5496, 199.9913
779.0317, 200.1515
779.5138, 199.7874
779.9959, 199.2747
780.4780, 199.3241
780.9601, 200.1670
781.4423, 200.6343
781.9244, 200.5827
782.4065, 200.3506
782.8886, 199.7884
783.3707, 199.2577
783.8528, 199.2383
784.3350, 199.7087
784.8171, 200.0982
785.2992, 199.9769
785.7813, 199.6886
786.2634, 199.7437
786.7455, 200.0113
787.2277, 200.0261
787.7098, 199.6990
788.1919, 199.3259
788.6740, 199.1315
789.1561, 199.0846
789.6382, 199.0471
790.1204, 198.8582
790.6025, 199.0745
791.0846, 200.3034
791.5667, 201.2996
792.0488, 201.3323
792.5309, 200.8609
793.0131, 200.6630
793.4952, 200.9285
793.9773, 200.9933
794.4594, 200.1299
794.9415, 199.2802
795.4236, 199.6479
795.9058, 200.7001
796.3879, 201.0053
796.8700, 200.1802
797.3521, 199.2028
797.8342, 199.1081
798.3163, 199.7230
798.7985, 200.2087
799.2806, 200.6059
799.7627, 200.5628
800.2448, 199.6382
800.7269, 198.8563
801.2090, 199.3298
801.6912, 200.7679
802.1733, 201.5441
802.6554, 201.4319
803.1375, 201.0085
803.6196, 199.8069
804.1017, 198.8436
804.5839, 199.1079
805.0660, 200.1472
805.5481, 200.9505
806.0302, 201.1473
806.5123, 201.0786
806.9944, 201.0352
807.4766, 201.0000
807.9587, 200.9415
808.4408, 200.8569
808.9229, 200.6507
809.4050, 200.2493
809.8871, 199.9904
810.3693, 200.3670
810.8514, 201.3680
811.3335, 201.7647
811.8156, 201.1062
812.2977, 200.5970
812.7798, 200.4900
813.2620, 200.5108
813.7441, 200.5313
814.2262, 200.5295
814.7083, 200.4558
815.1904, 200.2165
815.6725, 200.1034
816.1547, 200.3666
816.6368, 200.7807
817.1189, 201.1699
817.6010, 201.4701
818.0831, 201.4826
818.5652, 201.1346
819.0474, 200.8560
819.5295, 201.2958
820.0116, 202.3603
820.4937, 203.1993
820.9758, 203.7957
821.4579, 204.2331
821.9401, 204.4259
822.4222, 204.6682
822.9043, 205.3511
823.3864, 206.4461
823.8685, 207.2783
824.3506, 207.6958
824.8328, 208.0739
825.3149, 208.7544
825.7970, 209.1617
826.2791, 208.8161
826.7612, 207.8693
827.2433, 206.6949
827.7255, 205.3945
828.2076, 204.1172
828.6897, 203.0932
829.1718, 202.1202
829.6539, 200.6745
830.1360, 198.9147
830.6182, 197.6699
831.1003, 197.2605
831.5824, 197.2004
832.0645, 196.9246
832.5466, 196.4527
833.0287, 196.0080
833.5109, 195.4826
833.9930, 195.3466
834.4751, 196.0649
834.9572, 196.7546
835.4393, 196.5079
835.9214, 195.6572
836.4036, 195.1737
836.8857, 195.2853
837.3678, 195.4494
837.8499, 195.8405
838.3320, 195.9548
838.8141, 195.1537
839.2963, 193.8884
839.7784, 192.9052
840.2605, 192.4613
840.7426, 192.5384
841.2247, 193.4588
841.7068, 194.7315
842.1890, 195.4483
842.6711, 195.6396
843.1532, 195.3542
843.6353, 194.5902
844.1174, 193.8269
844.5995, 193.5106
845.0817, 193.5245
845.5638, 193.2956
846.0459, 192.5188
846.5280, 192.3726
847.0101, 193.4066
847.4922, 194.4757
847.9744, 195.2210
848.4565, 195.5419
848.9386, 195.0168
849.4207, 193.3870
849.9028, 192.5984
850.3849, 194.1633
850.8671, 195.6562
851.3492, 195.4180
851.8313, 194.3472
852.3134, 193.6968
852.7955, 193.6543
853.2776, 193.6527
853.7598, 193.2908
854.2419, 192.8195
854.7240, 192.5552
855.2061, 192.5056
855.6882, 192.8398
856.1703, 193.5613
856.6525, 193.9655
857.1346, 193.5674
857.6167, 192.9650
858.0988, 193.4366
858.5809, 195.3138
859.0630, 195.9982
859.5452, 194.8289
860.0273, 193.6397
860.5094, 192.8483
860.9915, 192.3751
861.4736, 192.2639
861.9557, 192.4487
862.4379, 192.5435
862.9200, 192.5408
863.4021, 192.3581
863.8842, 191.7565
864.3663, 191.1412
864.8484, 190.7383
865.3306, 190.6452
865.8127, 191.0992
866.2948, 192.1824
866.7769, 193.2343
867.2590, 193.5230
867.7411, 193.3399
868.2233, 193.3934
868.7054, 193.5809
869.1875, 193.1028
869.6696, 191.7176
870.1517, 190.4663
870.6339, 190.4197
871.1160, 191.2221
871.5981, 191.1656
872.0802, 189.8534
872.5623, 189.1257
873.0444, 189.3047
873.5266, 189.8591
874.0087, 190.8418
874.4908, 191.8617
874.9729, 192.1433
875.4550, 191.5500
875.9371, 191.0120
876.4193, 190.6449
876.9014, 190.3645
877.3835, 190.1731
877.8656, 190.0297
878.3477, 190.0148
878.8298, 190.0267
879.3120, 189.6166
879.7941, 188.2915
880.2762, 187.1922
880.7583, 187.8535
881.2404, 189.3070
881.7225, 189.7479
882.2047, 189.2391
882.6868, 188.8967
883.1689, 189.2030
883.6510, 189.6532
884.1331, 189.5800
884.6152, 189.0667
885.0974, 188.7592
885.5795, 188.6911
886.0616, 188.6353
886.5437, 188.6345
887.0258, 188.3614
887.5079, 187.3052
887.9901, 185.8215
888.4722, 185.3630
888.9543, 186.8600
889.4364, 187.6102
889.9185, 187.0275
890.4006, 186.3953
890.8828, 186.1527
891.3649, 186.1781
891.8470, 186.4581
892.3291, 186.9291
892.8112, 186.9950
893.2933, 185.8637
893.7755, 184.8846
894.2576, 185.2434
894.7397, 186.0235
895.2218, 186.1880
895.7039, 185.6419
896.1860, 184.4265
896.6682, 182.5028
897.1503, 181.0067
897.6324, 181.8058
898.1145, 184.0361
898.5966, 185.0938
899.0787, 185.0155
899.5609, 184.8900
900.0430, 185.0500
900.5251, 185.3633
901.0072, 185.7834
901.4893, 186.1691
901.9714, 185.7024
902.4536, 183.9806
902.9357, 182.8992
903.4178, 182.8179
903.8999, 183.0522
904.3820, 183.4579
904.8641, 183.8440
905.3463, 183.8273
905.8284, 183.3493
906.3105, 182.9961
906.7926, 182.8406
907.2747, 182.7790
907.7568, 182.8561
908.2390, 182.9542
908.7211, 182.9071
909.2032, 182.7929
909.6853, 182.9104
910.1674, 183.4583
910.6495, 183.8665
911.1317, 183.6525
911.6138, 183.1818
912.0959, 182.8675
912.5780, 182.6432
913.0601, 182.1934
913.5422, 181.4858
914.0244, 181.0092
914.5065, 181.2878
914.9886, 180.8785
915.4707, 181.7618
915.9528, 181.0649
916.4349, 180.9724
916.9171, 181.6499
917.3992, 182.2011
917.8813, 182.1089
918.3634, 181.7529
918.8455, 181.8229
919.3276, 182.3700
919.8098, 182.3575
920.2919, 181.4124
920.7740, 180.9014
921.2561, 181.5466
921.7382, 182.2051
922.2203, 181.7546
922.7025, 180.5357
923.1846, 179.8741
923.6667, 179.8295
924.1488, 180.2050
924.6309, 181.7544
925.1130, 182.8439
925.5952, 182.2878
926.0773, 181.1280
926.5594, 180.7847
927.0415, 181.2796
927.5236, 181.3002
928.0057, 179.6878
928.4879, 178.3491
928.9700, 178.9239
929.4521, 180.1748
929.9342, 180.7558
930.4163, 180.6732
930.8984, 180.2827
931.3806, 179.7508
931.8627, 179.4958
932.3448, 180.1879
932.8269, 181.3030
933.3090, 181.8447
933.7911, 181.8455
934.2733, 180.8061
934.7554, 178.8012
935.2375, 179.0087
935.7196, 183.9546
936.2017, 190.5264
936.6838, 191.6221
937.1660, 186.9079
937.6481, 183.6256
938.1302, 181.9339
938.6123, 181.2448
939.0944, 181.7461
939.5765, 182.3708
940.0587, 181.8799
940.5408, 180.5208
941.0229, 180.1404
941.5050, 181.5647
941.9871, 182.4538
942.4692, 182.4604
942.9514, 182.2344
943.4335, 181.7942
943.9156, 181.3941
944.3977, 181.3676
944.8798, 181.7294
945.3619, 182.2032
945.8441, 182.9398
946.3262, 183.5034
946.8083, 183.6215
947.2904, 183.6040
947.7725, 183.5870
948.2546, 183.6830
948.7368, 184.1158
949.2189, 184.9626
949.7010, 185.7989
950.1831, 186.3047
950.6652, 186.7158
951.1473, 187.3462
951.6295, 188.0292
952.1116, 188.2796
952.5937, 188.1951
953.0758, 188.5570
953.5579, 189.8508
954.0400, 191.4620
954.5222, 192.5852
955.0043, 193.3487
955.4864, 194.0756
955.9685, 194.7949
956.4506, 195.5853
956.9327, 196.4706
957.4149, 197.6346
957.8970, 199.2877
958.3791, 201.2607
958.8612, 203.0186
959.3433, 204.5171
959.8254, 206.3511
960.3076, 208.6007
960.7897, 210.9500
961.2718, 213.1121
961.7539, 215.6210
962.2360, 219.2164
962.7181, 222.7651
963.2003, 226.8218
963.6824, 231.9401
964.1645, 237.2979
964.6466, 242.9722
965.1287, 250.0430
965.6108, 257.0297
966.0930, 264.7107
966.5751, 274.3604
967.0572, 286.0815
967.5393, 298.7196
968.0214, 312.4210
968.5035, 326.6355
968.9857, 340.9591
969.4678, 356.0027
969.9499, 372.3297
970.4320, 389.8347
970.9141, 408.3647
971.3962, 427.7340
971.8784, 448.5193
972.3605, 470.1909
972.8426, 494.0021
973.3247, 521.8218
973.8068, 551.5648
974.2889, 580.3486
974.7711, 608.5482
975.2532, 639.3432
975.7353, 674.3115
976.2174, 711.3991
976.6995, 748.5638
977.1816, 786.8528
977.6638, 828.6513
978.1459, 872.7169
978.6280, 916.3704
979.1101, 958.7626
979.5922, 998.4844
980.0743, 1034.873
980.5565, 1066.008
981.0386, 1089.160
981.5207, 1104.176
982.0028, 1110.824
982.4849, 1108.815
982.9670, 1095.370
983.4492, 1069.527
983.9313, 1035.287
984.4134, 995.9424
984.8955, 951.6738
985.3776, 902.1232
985.8597, 847.1355
986.3419, 791.2320
986.8240, 734.0572
987.3061, 678.9539
987.7882, 627.0204
988.2703, 578.3952
988.7524, 532.8467
989.2346, 492.0454
989.7167, 452.7104
990.1988, 420.6149
990.6809, 391.3532
991.1630, 364.2804
991.6451, 340.6224
992.1273, 321.2695
992.6094, 305.4482
993.0915, 292.3254
993.5736, 282.0509
994.0557, 272.3189
994.5378, 262.4650
995.0200, 254.2512
995.5021, 248.8069
995.9842, 244.0260
996.4663, 238.7307
996.9484, 233.3556
997.4305, 228.4978
997.9127, 224.1833
998.3948, 220.9075
998.8769, 219.2746
999.3590, 217.9684
999.8411, 216.8941
1000.323, 215.6972
1000.805, 213.9018
1001.287, 211.8425
1001.770, 210.3127
1002.252, 209.5157
1002.734, 208.6185
1003.216, 207.1081
1003.698, 205.6031
1004.180, 204.4946
1004.662, 203.5672
1005.144, 202.5506
1005.627, 201.5031
1006.109, 200.6795
1006.591, 200.1736
1007.073, 199.7747
1007.555, 199.4202
1008.037, 199.0290
1008.519, 198.5450
1009.001, 197.9619
1009.483, 197.1086
1009.966, 196.1383
1010.448, 195.6380
1010.930, 195.9059
1011.412, 196.3172
1011.894, 196.2638
1012.376, 195.9445
1012.858, 195.4631
1013.340, 195.0148
1013.823, 195.2307
1014.305, 196.0690
1014.787, 196.7043
1015.269, 196.6543
1015.751, 196.3157
1016.233, 196.1987
1016.715, 196.2248
1017.197, 196.0923
1017.679, 195.8804
1018.162, 196.1040
1018.644, 196.8258
1019.126, 197.2711
1019.608, 196.8604
1020.090, 196.3684
1020.572, 197.4646
1021.054, 199.8075
1021.536, 200.8078
1022.018, 200.5006
1022.501, 200.4995
1022.983, 201.2038
1023.465, 202.1642
1023.947, 203.0471
1024.429, 203.9969
1024.911, 205.4545
1025.393, 207.4440
1025.875, 208.7477
1026.358, 209.2608
1026.840, 209.8890
1027.322, 210.7893
1027.804, 212.2130
1028.286, 214.3773
1028.768, 217.1697
1029.250, 220.4411
1029.732, 224.3288
1030.214, 227.3974
1030.697, 229.2863
1031.179, 231.5771
1031.661, 234.6712
1032.143, 238.2896
1032.625, 242.0749
1033.107, 246.3513
1033.589, 251.8310
1034.071, 258.0673
1034.553, 267.5320
1035.036, 280.8412
1035.518, 296.1910
1036.000, 312.7115
1036.482, 331.7541
1036.964, 354.3893
1037.446, 380.4327
1037.928, 408.9466
1038.410, 440.3431
1038.893, 473.0047
1039.375, 507.5008
1039.857, 542.3597
1040.339, 577.0078
1040.821, 612.2102
1041.303, 647.8832
1041.785, 684.6360
1042.267, 722.9622
1042.750, 761.3350
1043.232, 806.0810
1043.714, 855.3645
1044.196, 913.4223
1044.678, 981.5529
1045.160, 1058.260
1045.642, 1143.228
1046.124, 1235.331
1046.606, 1333.291
1047.089, 1437.925
1047.571, 1543.723
1048.053, 1656.619
1048.535, 1760.973
1049.017, 1864.537
1049.499, 1947.514
1049.981, 2000.912
1050.463, 2020.797
1050.945, 2000.029
1051.428, 1937.285
1051.910, 1837.543
1052.392, 1686.629
1052.874, 1519.612
1053.356, 1333.307
1053.838, 1147.654
1054.320, 969.8152
1054.802, 807.3602
1055.285, 671.7311
1055.767, 565.6325
1056.249, 480.3516
1056.731, 418.8825
1057.213, 371.3986
1057.695, 338.8685
1058.177, 314.9871
1058.659, 296.6445
1059.141, 282.7424
1059.624, 272.5870
1060.106, 266.0966
1060.588, 260.6615
1061.070, 255.6729
1061.552, 251.2964
1062.034, 247.5947
1062.516, 244.5535
1062.998, 242.4498
1063.480, 240.8938
1063.963, 239.1214
1064.445, 237.0652
1064.927, 235.7393
1065.409, 235.9837
1065.891, 236.3918
1066.373, 236.2786
1066.855, 236.2243
1067.337, 236.8365
1067.820, 237.7312
1068.302, 238.1797
1068.784, 238.1514
1069.266, 238.4384
1069.748, 239.5680
1070.230, 240.6566
1070.712, 241.2163
1071.194, 241.6927
1071.677, 242.4063
1072.159, 243.2678
1072.641, 244.1463
1073.123, 245.0143
1073.605, 245.8239
1074.087, 246.4794
1074.569, 247.2619
1075.051, 248.4267
1075.533, 249.6352
1076.016, 250.5586
1076.498, 251.4362
1076.980, 252.7749
1077.462, 254.4177
1077.944, 255.4757
1078.426, 255.4366
1078.908, 255.5753
1079.390, 256.4832
1079.873, 257.7726
1080.355, 259.7410
1080.837, 261.5449
1081.319, 261.7066
1081.801, 260.8518
1082.283, 261.3474
1082.765, 264.1821
1083.247, 266.4183
1083.729, 266.0928
1084.212, 265.5405
1084.694, 266.4450
1085.176, 267.5334
1085.658, 266.9904
1086.140, 265.6052
1086.622, 265.6454
1087.104, 267.7083
1087.586, 269.6977
1088.068, 270.6683
1088.551, 271.4358
1089.033, 272.5502
1089.515, 273.5057
1089.997, 273.6443
1090.479, 273.3688
1090.961, 273.4555
1091.443, 274.0397
1091.925, 274.7603
1092.408, 275.7021
1092.890, 276.4579
1093.372, 276.6263
1093.854, 276.7958
1094.336, 277.7400
1094.818, 278.7800
1095.300, 278.8051
1095.782, 277.7989
1096.265, 276.7457
1096.747, 275.7265
1097.229, 275.0891
1097.711, 275.1363
1098.193, 275.3862
1098.675, 275.7045
1099.157, 275.9647
1099.639, 276.0663
1100.121, 275.9944
1100.604, 275.6665
1101.086, 274.7882
1101.568, 274.5182
1102.050, 275.9254
1102.532, 277.0394
1103.014, 276.8695
1103.496, 276.1415
1103.978, 275.3795
1104.460, 274.6519
1104.943, 273.9200
1105.425, 273.1043
1105.907, 272.7400
1106.389, 273.5277
1106.871, 273.9430
1107.353, 273.3919
1107.835, 272.4776
1108.317, 271.3600
1108.800, 270.2822
1109.282, 269.6983
1109.764, 269.6584
1110.246, 269.5065
1110.728, 269.4911
1111.210, 268.8897
1111.692, 267.6072
1112.174, 265.7180
1112.656, 262.4467
1113.139, 259.1111
1113.621, 257.5570
1114.103, 257.6151
1114.585, 257.2152
1115.067, 256.2174
1115.549, 254.9961
1116.031, 253.6517
1116.513, 251.9305
1116.995, 249.3584
1117.478, 246.8012
1117.960, 245.0705
1118.442, 243.9346
1118.924, 242.5661
1119.406, 240.7135
1119.888, 239.7191
1120.370, 240.5246
1120.852, 240.1452
1121.335, 237.3204
1121.817, 234.2764
1122.299, 232.3631
1122.781, 231.2673
1123.263, 230.5462
1123.745, 230.2174
1124.227, 229.3046
1124.709, 227.5495
1125.192, 226.2155
1125.674, 225.7249
1126.156, 224.7757
1126.638, 222.5560
1127.120, 220.1554
1127.602, 218.9502
1128.084, 218.6217
1128.566, 217.5520
1129.048, 215.6363
1129.531, 213.8625
1130.013, 212.2403
1130.495, 211.0171
1130.977, 210.3275
1131.459, 209.6974
1131.941, 208.7233
1132.423, 208.1550
1132.905, 206.9905
1133.387, 206.7552
1133.870, 206.2235
1134.352, 205.3979
1134.834, 204.2016
1135.316, 202.6336
1135.798, 201.4556
1136.280, 201.1061
1136.762, 200.9571
1137.244, 200.1650
1137.727, 198.9638
1138.209, 197.9980
1138.691, 197.2599
1139.173, 196.8112
1139.655, 196.5947
1140.137, 196.3085
1140.619, 195.8366
1141.101, 195.1196
1141.583, 194.0228
1142.066, 192.9355
1142.548, 192.6570
1143.030, 192.7246
1143.512, 191.9320
1143.994, 191.9767
1144.476, 190.5837
1144.958, 191.5535
1145.440, 192.2159
1145.922, 191.8573
1146.405, 191.0690
1146.887, 190.1275
1147.369, 189.3142
1147.851, 189.0724
1148.333, 189.0905
1148.815, 189.0738
1149.297, 188.8610
1149.779, 188.0390
1150.262, 186.5881
1150.744, 185.5105
1151.226, 185.5721
1151.708, 185.8588
1152.190, 185.7923
1152.672, 185.6966
1153.154, 185.9939
1153.636, 186.3548
1154.119, 186.3543
1154.601, 185.9309
1155.083, 185.0403
1155.565, 183.3630
1156.047, 182.3118
1156.529, 182.7691
1157.011, 183.4059
1157.493, 183.7938
1157.975, 183.9781
1158.458, 183.9904
1158.940, 183.8466
1159.422, 183.5238
1159.904, 183.0021
1160.386, 182.6038
1160.868, 182.1688
1161.350, 182.1563
1161.832, 183.3394
1162.314, 183.9940
1162.797, 182.8626
1163.279, 181.4138
1163.761, 181.3804
1164.243, 180.8079
1164.725, 180.4123
1165.207, 181.0133
1165.689, 180.5543
1166.171, 181.2481
1166.654, 182.4201
1167.136, 184.2823
1167.618, 185.3833
1168.100, 184.5420
1168.582, 182.8884
1169.064, 182.3547
1169.546, 182.8102
1170.028, 183.1781
1170.510, 183.4670
1170.993, 183.0928
1171.475, 181.9772
1171.957, 181.1946
1172.439, 181.1422
1172.921, 181.6998
1173.403, 182.8992
1173.885, 184.0998
1174.367, 183.7999
1174.849, 182.4776
1175.332, 181.6265
1175.814, 181.2705
1176.296, 181.3379
1176.778, 181.7671
1177.260, 182.4644
1177.742, 183.3801
1178.224, 183.9994
1178.706, 183.5899
1179.189, 182.8928
1179.671, 182.8456
1180.153, 183.1483
1180.635, 183.5559
1181.117, 183.8709
1181.599, 183.5857
1182.081, 182.7721
1182.563, 182.4391
1183.046, 183.3084
1183.528, 183.8962
1184.010, 182.9581
1184.492, 181.8676
1184.974, 181.2758
1185.456, 181.2457
1185.938, 182.2442
1186.420, 183.6935
1186.902, 184.1711
1187.385, 183.3858
1187.867, 183.0188
1188.349, 183.9225
1188.831, 184.4741
1189.313, 183.6818
1189.795, 183.2996
1190.277, 184.9489
1190.759, 186.7503
1191.241, 186.4833
1191.724, 184.8130
1192.206, 184.4269
1192.688, 185.7409
1193.170, 186.5469
1193.652, 186.6722
1194.134, 186.8098
1194.616, 187.0933
1195.098, 187.4536
1195.581, 187.9210
1196.063, 188.2305
1196.545, 187.9920
1197.027, 187.3143
1197.509, 186.4494
1197.991, 185.4649
1198.473, 185.6848
1198.955, 187.0854
1199.438, 188.2980
1199.920, 188.9397
1200.402, 189.3414
1200.884, 189.7072
1201.366, 190.0315
1201.848, 190.2965
1202.330, 190.5228
1202.812, 190.6936
1203.294, 190.8807
1203.776, 191.1483
1204.259, 191.5832
1204.741, 192.6337
1205.223, 194.2476
1205.705, 195.1358
1206.187, 194.3274
1206.669, 193.2295
1207.151, 192.6451
1207.633, 192.3434
1208.116, 191.9641
1208.598, 191.9054
1209.080, 193.0040
1209.562, 194.7445
1210.044, 195.7046
1210.526, 195.5847
1211.008, 195.3886
1211.490, 195.1034
1211.973, 195.0653
1212.455, 195.3579
1212.937, 195.8896
1213.419, 196.9053
1213.901, 197.8349
1214.383, 198.0471
1214.865, 197.7326
1215.347, 197.5256
1215.829, 197.4275
1216.312, 197.3969
1216.794, 197.3756
1217.276, 197.8457
1217.758, 199.0268
1218.240, 199.7776
1218.722, 199.4947
1219.204, 198.8957
1219.686, 198.7204
1220.168, 198.9714
1220.651, 199.8927
1221.133, 201.2234
1221.615, 201.8130
1222.097, 201.7918
1222.579, 201.9259
1223.061, 202.3137
1223.543, 202.3745
1224.025, 201.8392
1224.508, 201.8521
1224.990, 204.0096
1225.472, 206.4533
1225.954, 207.3585
1226.436, 207.4767
1226.918, 207.3572
1227.400, 207.2475
1227.882, 207.5574
1228.365, 208.1698
1228.847, 208.3442
1229.329, 207.7533
1229.811, 207.2349
1230.293, 206.7752
1230.775, 206.7646
1231.257, 207.7897
1231.739, 208.8029
1232.221, 208.8287
1232.703, 208.6996
1233.186, 209.7283
1233.668, 209.8127
1234.150, 210.1468
1234.632, 211.0841
1235.114, 210.9656
1235.596, 212.1810
1236.078, 213.2114
1236.560, 213.6917
1237.043, 214.0277
1237.525, 214.4293
1238.007, 215.0123
1238.489, 216.0424
1238.971, 216.2286
1239.453, 217.4476
1239.935, 217.1145
1240.417, 217.4411
1240.900, 218.2281
1241.382, 218.3194
1241.864, 217.6826
1242.346, 217.5807
1242.828, 218.6528
1243.310, 219.6926
1243.792, 219.3477
1244.274, 219.0508
1244.756, 220.5017
1245.239, 222.0274
1245.721, 221.5477
1246.203, 220.3010
1246.685, 220.4056
1247.167, 221.8171
1247.649, 223.0259
1248.131, 223.8645
1248.613, 224.2078
1249.095, 223.5031
1249.578, 223.1197
1250.060, 223.4597
1250.542, 223.8844
1251.024, 224.0018
1251.506, 224.1926
1251.988, 225.0392
1252.470, 224.9178
1252.952, 226.3429
1253.435, 225.3530
1253.917, 225.1947
1254.399, 225.8662
1254.881, 226.5698
1255.363, 227.1347
1255.845, 227.4102
1256.327, 227.3325
1256.809, 227.1173
1257.292, 226.8305
1257.774, 226.8456
1258.256, 228.0351
1258.738, 229.5663
1259.220, 230.2876
1259.702, 230.4566
1260.184, 230.6148
1260.666, 230.7687
1261.148, 230.5906
1261.630, 229.9878
1262.113, 229.5419
1262.595, 229.2887
1263.077, 229.4870
1263.559, 230.7042
1264.041, 231.7801
1264.523, 232.1136
1265.005, 232.0911
1265.487, 232.0717
1265.970, 231.9357
1266.452, 231.2906
1266.934, 231.3510
1267.416, 231.3289
1267.898, 231.0423
1268.380, 231.6055
1268.862, 231.4577
1269.344, 231.5283
1269.827, 232.1254
1270.309, 232.5147
1270.791, 232.1367
1271.273, 231.5199
1271.755, 231.4338
1272.237, 231.6051
1272.719, 231.5214
1273.201, 231.3339
1273.683, 231.3548
1274.166, 231.4915
1274.648, 231.3837
1275.130, 231.0636
1275.612, 231.1404
1276.094, 232.0491
1276.576, 232.4373
1277.058, 231.0974
1277.540, 230.0649
1278.022, 230.6160
1278.505, 231.1836
1278.987, 230.5644
1279.469, 229.5226
1279.951, 228.8009
1280.433, 228.4573
1280.915, 228.8475
1281.397, 230.1801
1281.879, 230.8418
1282.362, 230.7652
1282.844, 230.7622
1283.326, 230.9651
1283.808, 231.1630
1284.290, 231.2479
1284.772, 230.9515
1285.254, 229.9447
1285.736, 228.2209
##END=



