##NAMES=Pseudograndreefite
##RRUFFID=R100006
##IDEAL CHEMISTRY=Pb^2+^_6_(S^6+^O_4_)F_10_
##LOCALITY=Grand Reef mine, Klondyke, Aravaipa District, Graham County, Arizona, USA
##OWNER=RRUFF
##SOURCE=Natural History Museum of Los Angeles County 
##DESCRIPTION=Colorless crystal fragments from the type specimen, associated with laurelite R100035 and grandreefite R100012. Photo of type specimen is courtesy of LACMNH.
##STATUS=The identification of this mineral has been confirmed by single-crystal X-ray diffraction.
##URL=rruff.info/R100006
122.7940, 34.16912
123.2761, 35.10783
123.7582, 36.13061
124.2404, 37.45093
124.7225, 38.87594
125.2046, 40.77828
125.6867, 43.70130
126.1688, 47.94275
126.6509, 52.71457
127.1331, 57.11246
127.6152, 61.25035
128.0973, 65.69426
128.5794, 70.69518
129.0615, 76.28588
129.5436, 82.48800
130.0258, 89.17323
130.5079, 96.62486
130.9900, 105.2725
131.4721, 115.0418
131.9542, 126.5073
132.4363, 140.2556
132.9185, 156.1887
133.4006, 173.6187
133.8827, 192.4557
134.3648, 212.5068
134.8469, 234.5955
135.3290, 258.8765
135.8112, 284.6289
136.2933, 311.1683
136.7754, 338.7029
137.2575, 365.7002
137.7396, 392.0175
138.2217, 417.2011
138.7039, 441.3358
139.1860, 464.7661
139.6681, 486.6496
140.1502, 505.7290
140.6323, 521.0636
141.1144, 536.0892
141.5966, 551.6696
142.0787, 567.2327
142.5608, 585.6133
143.0429, 606.8704
143.5250, 630.8345
144.0071, 657.0953
144.4893, 685.4752
144.9714, 716.0828
145.4535, 748.7742
145.9356, 785.0237
146.4177, 821.1579
146.8998, 857.7404
147.3820, 894.3456
147.8641, 930.8878
148.3462, 967.9261
148.8283, 1003.917
149.3104, 1038.418
149.7925, 1070.669
150.2747, 1102.169
150.7568, 1132.961
151.2389, 1162.954
151.7210, 1190.786
152.2031, 1215.555
152.6852, 1238.451
153.1674, 1260.481
153.6495, 1282.401
154.1316, 1302.480
154.6137, 1319.861
155.0958, 1334.497
155.5779, 1349.278
156.0601, 1365.689
156.5422, 1381.911
157.0243, 1396.187
157.5064, 1405.127
157.9885, 1414.965
158.4706, 1427.277
158.9528, 1442.214
159.4349, 1459.152
159.9170, 1479.959
160.3991, 1502.085
160.8812, 1522.585
161.3633, 1537.771
161.8455, 1553.424
162.3276, 1572.691
162.8097, 1596.380
163.2918, 1619.802
163.7739, 1640.562
164.2560, 1657.962
164.7382, 1663.403
165.2203, 1668.225
165.7024, 1672.339
166.1845, 1673.226
166.6666, 1670.071
167.1487, 1665.629
167.6309, 1661.656
168.1130, 1657.505
168.5951, 1651.867
169.0772, 1643.022
169.5593, 1632.999
170.0414, 1623.608
170.5236, 1615.465
171.0057, 1607.180
171.4878, 1597.353
171.9699, 1586.352
172.4520, 1575.537
172.9341, 1565.478
173.4163, 1555.953
173.8984, 1546.678
174.3805, 1537.374
174.8626, 1528.531
175.3447, 1520.631
175.8268, 1513.480
176.3090, 1506.204
176.7911, 1497.995
177.2732, 1489.350
177.7553, 1481.169
178.2374, 1473.811
178.7195, 1466.781
179.2017, 1459.575
179.6838, 1452.114
180.1659, 1444.349
180.6480, 1435.783
181.1301, 1426.836
181.6122, 1418.361
182.0944, 1411.093
182.5765, 1404.086
183.0586, 1395.175
183.5407, 1384.536
184.0228, 1373.751
184.5049, 1364.700
184.9871, 1356.851
185.4692, 1348.623
185.9513, 1339.166
186.4334, 1329.086
186.9155, 1319.383
187.3976, 1310.082
187.8798, 1301.387
188.3619, 1293.726
188.8440, 1286.921
189.3261, 1280.305
189.8082, 1273.392
190.2903, 1266.448
190.7725, 1260.494
191.2546, 1255.575
191.7367, 1250.998
192.2188, 1245.888
192.7009, 1240.224
193.1830, 1234.528
193.6652, 1229.043
194.1473, 1223.667
194.6294, 1217.792
195.1115, 1211.096
195.5936, 1204.935
196.0757, 1201.806
196.5579, 1201.838
197.0400, 1201.095
197.5221, 1197.535
198.0042, 1191.418
198.4863, 1186.445
198.9684, 1182.834
199.4506, 1179.959
199.9327, 1176.974
200.4148, 1173.834
200.8969, 1170.853
201.3790, 1168.148
201.8611, 1165.736
202.3433, 1163.450
202.8254, 1161.445
203.3075, 1159.274
203.7896, 1155.890
204.2717, 1150.907
204.7538, 1146.479
205.2360, 1143.884
205.7181, 1143.426
206.2002, 1141.773
206.6823, 1138.555
207.1644, 1134.579
207.6465, 1131.125
208.1287, 1128.087
208.6108, 1126.063
209.0929, 1125.791
209.5750, 1127.863
210.0571, 1128.438
210.5392, 1126.996
211.0214, 1124.576
211.5035, 1123.358
211.9856, 1123.678
212.4677, 1124.356
212.9498, 1125.121
213.4319, 1126.284
213.9140, 1125.995
214.3962, 1123.351
214.8783, 1119.806
215.3604, 1118.964
215.8425, 1121.719
216.3246, 1125.083
216.8067, 1127.789
217.2889, 1129.680
217.7710, 1131.291
218.2531, 1132.609
218.7352, 1133.624
219.2173, 1134.218
219.6994, 1133.938
220.1816, 1134.076
220.6637, 1135.221
221.1458, 1137.550
221.6279, 1140.513
222.1100, 1144.631
222.5921, 1149.206
223.0743, 1152.391
223.5564, 1153.532
224.0385, 1154.463
224.5206, 1155.947
225.0027, 1158.030
225.4848, 1160.671
225.9670, 1163.960
226.4491, 1167.770
226.9312, 1171.824
227.4133, 1176.022
227.8954, 1180.589
228.3775, 1185.595
228.8597, 1191.435
229.3418, 1196.835
229.8239, 1201.453
230.3060, 1205.672
230.7881, 1210.357
231.2702, 1215.288
231.7524, 1221.046
232.2345, 1228.025
232.7166, 1237.396
233.1987, 1245.390
233.6808, 1251.440
234.1629, 1256.219
234.6451, 1261.678
235.1272, 1268.274
235.6093, 1274.868
236.0914, 1281.020
236.5735, 1286.801
237.0556, 1291.931
237.5378, 1295.436
238.0199, 1298.627
238.5020, 1305.146
238.9841, 1317.695
239.4662, 1329.742
239.9483, 1338.376
240.4305, 1341.816
240.9126, 1345.752
241.3947, 1349.903
241.8768, 1354.606
242.3589, 1360.960
242.8410, 1370.332
243.3232, 1379.182
243.8053, 1385.617
244.2874, 1387.761
244.7695, 1392.200
245.2516, 1400.302
245.7337, 1410.180
246.2159, 1417.513
246.6980, 1421.070
247.1801, 1424.056
247.6622, 1427.894
248.1443, 1433.433
248.6264, 1437.375
249.1086, 1438.849
249.5907, 1439.203
250.0728, 1441.345
250.5549, 1446.414
251.0370, 1451.363
251.5191, 1455.212
252.0013, 1458.057
252.4834, 1459.174
252.9655, 1457.803
253.4476, 1455.118
253.9297, 1453.498
254.4118, 1454.068
254.8940, 1453.585
255.3761, 1450.613
255.8582, 1444.330
256.3403, 1438.966
256.8224, 1435.512
257.3046, 1432.235
257.7867, 1426.002
258.2688, 1415.194
258.7509, 1404.813
259.2330, 1396.994
259.7151, 1392.448
260.1973, 1385.982
260.6794, 1377.080
261.1615, 1366.941
261.6436, 1357.667
262.1257, 1349.866
262.6078, 1341.272
263.0900, 1331.198
263.5721, 1319.420
264.0542, 1307.210
264.5363, 1293.832
265.0184, 1280.724
265.5005, 1269.765
265.9827, 1262.233
266.4648, 1253.249
266.9469, 1240.694
267.4290, 1224.470
267.9111, 1211.554
268.3932, 1203.258
268.8754, 1196.367
269.3575, 1187.274
269.8396, 1175.433
270.3217, 1163.019
270.8038, 1150.237
271.2859, 1137.073
271.7681, 1125.477
272.2502, 1115.905
272.7323, 1106.975
273.2144, 1097.537
273.6965, 1087.437
274.1786, 1077.481
274.6608, 1067.801
275.1429, 1058.378
275.6250, 1048.643
276.1071, 1038.453
276.5892, 1028.409
277.0714, 1019.430
277.5535, 1011.592
278.0356, 1003.695
278.5177, 995.3787
278.9998, 986.8777
279.4819, 979.2386
279.9641, 972.5018
280.4462, 966.1947
280.9283, 960.0544
281.4104, 954.1535
281.8925, 947.9076
282.3746, 941.0720
282.8568, 933.9581
283.3389, 927.4977
283.8210, 921.7416
284.3031, 916.1827
284.7852, 910.2311
285.2673, 903.9864
285.7495, 898.5296
286.2316, 894.0364
286.7137, 890.2946
287.1958, 887.1687
287.6779, 884.6771
288.1600, 881.8795
288.6422, 877.9633
289.1243, 873.0609
289.6064, 868.5107
290.0885, 864.4358
290.5706, 860.5667
291.0527, 856.3537
291.5349, 851.8456
292.0170, 847.6351
292.4991, 844.3245
292.9812, 841.6361
293.4633, 838.6960
293.9454, 835.4493
294.4276, 831.9520
294.9097, 828.1105
295.3918, 824.0157
295.8739, 820.2142
296.3560, 816.9415
296.8381, 814.1575
297.3203, 812.0443
297.8024, 810.6752
298.2845, 809.3240
298.7666, 806.9882
299.2487, 804.0070
299.7308, 801.3602
300.2130, 799.4698
300.6951, 798.1557
301.1772, 796.9293
301.6593, 795.7985
302.1414, 795.4702
302.6235, 797.2012
303.1057, 800.1778
303.5878, 802.8380
304.0699, 806.1221
304.5520, 807.7133
305.0341, 803.6464
305.5162, 794.5430
305.9984, 785.4185
306.4805, 777.9464
306.9626, 773.2396
307.4447, 773.6522
307.9268, 783.6016
308.4089, 793.7485
308.8911, 795.2607
309.3732, 789.6250
309.8553, 782.9804
310.3374, 777.5995
310.8195, 773.5867
311.3016, 771.4745
311.7838, 772.3821
312.2659, 773.0342
312.7480, 770.4979
313.2301, 766.0068
313.7122, 762.5632
314.1943, 762.0036
314.6765, 762.7034
315.1586, 763.6797
315.6407, 764.9403
316.1228, 765.9606
316.6049, 766.6000
317.0870, 766.8127
317.5692, 766.5181
318.0513, 765.1561
318.5334, 763.6970
319.0155, 762.6788
319.4976, 762.2083
319.9797, 761.5540
320.4619, 759.8496
320.9440, 758.0261
321.4261, 757.1448
321.9082, 758.7930
322.3903, 760.1052
322.8724, 760.1412
323.3546, 758.8541
323.8367, 757.2714
324.3188, 755.1078
324.8009, 752.9929
325.2830, 751.4346
325.7651, 750.8983
326.2473, 750.4852
326.7294, 750.3164
327.2115, 750.3107
327.6936, 749.7709
328.1757, 748.0132
328.6578, 746.2033
329.1400, 744.9228
329.6221, 744.9551
330.1042, 744.4672
330.5863, 743.1927
331.0684, 741.3660
331.5505, 739.6777
332.0327, 737.7728
332.5148, 736.3839
332.9969, 735.9630
333.4790, 737.2033
333.9611, 737.4666
334.4432, 736.4392
334.9254, 734.5997
335.4075, 732.7089
335.8896, 730.5762
336.3717, 728.7607
336.8538, 727.5548
337.3359, 727.0322
337.8180, 726.2725
338.3001, 725.2718
338.7823, 724.0599
339.2644, 722.6041
339.7465, 720.7932
340.2286, 719.2233
340.7107, 718.1768
341.1928, 717.5147
341.6750, 716.2350
342.1571, 714.1126
342.6392, 712.1188
343.1213, 711.2283
343.6034, 711.4628
344.0855, 711.3854
344.5677, 710.7479
345.0498, 709.6660
345.5319, 708.4208
346.0140, 707.0133
346.4961, 705.4278
346.9782, 703.4933
347.4604, 701.3192
347.9425, 699.4941
348.4246, 698.0569
348.9067, 697.0027
349.3888, 696.6778
349.8709, 696.9001
350.3531, 696.6191
350.8352, 694.7779
351.3173, 692.2061
351.7994, 690.4067
352.2815, 689.4500
352.7636, 689.1707
353.2458, 690.1158
353.7279, 691.6154
354.2100, 692.2020
354.6921, 690.4030
355.1742, 688.0394
355.6563, 687.3206
356.1385, 688.0740
356.6206, 688.5079
357.1027, 686.7849
357.5848, 684.2732
358.0669, 682.6151
358.5490, 682.7093
359.0312, 683.0555
359.5133, 682.7403
359.9954, 681.9032
360.4775, 680.9859
360.9596, 680.0286
361.4417, 679.1706
361.9239, 678.5752
362.4060, 678.4446
362.8881, 678.0471
363.3702, 676.7487
363.8523, 675.0778
364.3344, 673.8449
364.8166, 674.1266
365.2987, 674.1263
365.7808, 672.7723
366.2629, 669.7299
366.7450, 667.8148
367.2271, 668.5756
367.7093, 670.1205
368.1914, 670.7874
368.6735, 669.9496
369.1556, 668.7653
369.6377, 667.2205
370.1198, 665.3703
370.6020, 663.7640
371.0841, 662.1563
371.5662, 661.0165
372.0483, 660.7020
372.5304, 662.0992
373.0125, 662.5216
373.4947, 660.9633
373.9768, 658.7283
374.4589, 659.3993
374.9410, 665.1619
375.4231, 669.3074
375.9052, 668.6638
376.3874, 662.3814
376.8695, 657.9932
377.3516, 655.7375
377.8337, 654.9066
378.3158, 654.7864
378.7979, 655.4802
379.2801, 656.1353
379.7622, 656.5450
380.2443, 656.7328
380.7264, 656.8278
381.2085, 656.8333
381.6906, 656.6917
382.1728, 656.3194
382.6549, 655.7350
383.1370, 655.0462
383.6191, 654.1707
384.1012, 653.3605
384.5833, 653.1668
385.0655, 653.5065
385.5476, 653.7528
386.0297, 653.3905
386.5118, 652.7295
386.9939, 652.3557
387.4760, 652.3494
387.9582, 652.4224
388.4403, 652.2293
388.9224, 651.9169
389.4045, 651.7888
389.8866, 652.7493
390.3687, 653.4109
390.8509, 652.0869
391.3330, 648.9758
391.8151, 646.2706
392.2972, 645.4210
392.7793, 645.5547
393.2614, 645.8475
393.7436, 646.0690
394.2257, 646.4329
394.7078, 647.2361
395.1899, 648.2713
395.6720, 648.9916
396.1541, 648.9623
396.6363, 648.7977
397.1184, 648.8543
397.6005, 649.3634
398.0826, 649.4967
398.5647, 648.7474
399.0468, 647.6915
399.5290, 647.0258
400.0111, 647.3283
400.4932, 647.4483
400.9753, 646.9493
401.4574, 645.8347
401.9395, 645.5682
402.4217, 646.7572
402.9038, 648.1399
403.3859, 648.8371
403.8680, 648.4713
404.3501, 648.3190
404.8322, 648.5667
405.3144, 649.0266
405.7965, 649.1972
406.2786, 649.0342
406.7607, 648.7317
407.2428, 648.3231
407.7249, 647.7995
408.2071, 647.3659
408.6892, 646.9814
409.1713, 646.7884
409.6534, 647.1215
410.1355, 647.9449
410.6176, 648.4966
411.0998, 648.2889
411.5819, 647.8418
412.0640, 648.7518
412.5461, 650.9502
413.0282, 652.8627
413.5103, 652.7980
413.9925, 651.6194
414.4746, 651.1914
414.9567, 651.9886
415.4388, 653.0870
415.9209, 653.3568
416.4030, 653.1603
416.8852, 653.4077
417.3673, 654.7174
417.8494, 656.5494
418.3315, 658.6533
418.8136, 660.9997
419.2957, 663.0936
419.7779, 664.4113
420.2600, 665.4254
420.7421, 666.5872
421.2242, 667.7267
421.7063, 669.3701
422.1884, 672.1308
422.6706, 675.6507
423.1527, 678.6744
423.6348, 680.6271
424.1169, 682.2236
424.5990, 683.6824
425.0811, 684.5649
425.5633, 686.3663
426.0454, 689.3093
426.5275, 693.1009
427.0096, 697.4773
427.4917, 702.8163
427.9738, 708.1414
428.4560, 713.3144
428.9381, 718.3661
429.4202, 722.9694
429.9023, 726.8203
430.3844, 730.6671
430.8665, 734.9069
431.3487, 739.4991
431.8308, 744.7040
432.3129, 750.5231
432.7950, 756.9659
433.2771, 764.3411
433.7592, 772.6417
434.2414, 780.3001
434.7235, 786.3090
435.2056, 791.0286
435.6877, 795.9650
436.1698, 801.1259
436.6519, 806.1182
437.1341, 810.6041
437.6162, 814.5436
438.0983, 817.9503
438.5804, 820.8154
439.0625, 823.1672
439.5446, 825.1335
440.0268, 826.6495
440.5089, 827.4634
440.9910, 827.2828
441.4731, 826.4330
441.9552, 825.1733
442.4373, 823.5460
442.9195, 821.5526
443.4016, 819.0488
443.8837, 816.2335
444.3658, 813.3479
444.8479, 809.9730
445.3300, 807.0352
445.8122, 805.0858
446.2943, 804.0008
446.7764, 802.5123
447.2585, 800.2494
447.7406, 797.6781
448.2227, 794.9918
448.7049, 792.1332
449.1870, 789.3182
449.6691, 786.5059
450.1512, 783.7688
450.6333, 781.4238
451.1154, 780.0577
451.5976, 777.7324
452.0797, 773.6310
452.5618, 767.9073
453.0439, 763.2299
453.5260, 760.0538
454.0081, 756.7827
454.4903, 751.7909
454.9724, 745.1556
455.4545, 739.4977
455.9366, 735.3704
456.4187, 731.9589
456.9008, 728.0948
457.3830, 723.7594
457.8651, 719.2651
458.3472, 714.0888
458.8293, 708.9945
459.3114, 705.6003
459.7935, 703.9275
460.2757, 702.3223
460.7578, 699.3036
461.2399, 695.6025
461.7220, 692.2040
462.2041, 689.2139
462.6862, 686.7696
463.1684, 684.9872
463.6505, 683.7982
464.1326, 683.0942
464.6147, 683.8400
465.0968, 684.2166
465.5789, 683.0960
466.0611, 680.2021
466.5432, 677.3876
467.0253, 674.6096
467.5074, 672.2916
467.9895, 670.8057
468.4716, 671.1074
468.9538, 671.0196
469.4359, 670.4433
469.9180, 669.3986
470.4001, 667.8140
470.8822, 665.2391
471.3643, 662.9672
471.8465, 661.5482
472.3286, 661.0471
472.8107, 660.9422
473.2928, 661.4590
473.7749, 661.8611
474.2570, 661.0629
474.7392, 659.0817
475.2213, 657.6210
475.7034, 657.1740
476.1855, 657.3082
476.6676, 657.0477
477.1497, 656.4561
477.6319, 656.1579
478.1140, 656.7804
478.5961, 657.8459
479.0782, 658.6979
479.5603, 659.3109
480.0424, 659.3620
480.5246, 657.6991
481.0067, 655.5434
481.4888, 654.6751
481.9709, 657.0213
482.4530, 659.2100
482.9352, 659.1041
483.4173, 657.3619
483.8994, 656.0673
484.3815, 656.1213
484.8636, 656.6186
485.3457, 657.1906
485.8279, 657.8555
486.3100, 658.4075
486.7921, 659.0271
487.2742, 659.4166
487.7563, 659.2500
488.2384, 657.8508
488.7206, 657.1096
489.2027, 657.5632
489.6848, 658.7773
490.1669, 659.0345
490.6490, 657.9270
491.1311, 657.1136
491.6133, 657.5311
492.0954, 659.1605
492.5775, 660.8041
493.0596, 662.6096
493.5417, 663.7728
494.0238, 662.6984
494.5060, 659.9807
494.9881, 658.5065
495.4702, 659.3949
495.9523, 661.2353
496.4344, 662.0959
496.9165, 662.1781
497.3987, 662.2402
497.8808, 662.5531
498.3629, 663.1361
498.8450, 664.2792
499.3271, 666.0549
499.8092, 667.2067
500.2914, 666.2512
500.7735, 664.7452
501.2556, 664.1527
501.7377, 665.7375
502.2198, 667.1779
502.7019, 667.9672
503.1841, 668.2477
503.6662, 668.4255
504.1483, 668.6508
504.6304, 668.6483
505.1125, 668.2058
505.5946, 667.2513
506.0768, 666.8602
506.5589, 667.2413
507.0410, 667.8989
507.5231, 668.4460
508.0052, 668.8633
508.4873, 669.3597
508.9695, 670.0185
509.4516, 670.6660
509.9337, 670.8786
510.4158, 670.6815
510.8979, 670.5728
511.3800, 670.8918
511.8622, 671.4022
512.3443, 671.4206
512.8264, 670.9799
513.3085, 670.7772
513.7906, 671.8473
514.2728, 673.2790
514.7549, 673.7254
515.2370, 672.5704
515.7191, 671.5216
516.2012, 671.6933
516.6833, 672.6582
517.1655, 673.7586
517.6476, 675.3709
518.1297, 676.5095
518.6118, 676.3174
519.0939, 674.9946
519.5760, 674.7781
520.0582, 677.0614
520.5403, 679.5500
521.0224, 681.2864
521.5045, 682.1278
521.9866, 682.5872
522.4688, 682.3481
522.9509, 682.0656
523.4330, 682.8201
523.9151, 684.9700
524.3972, 686.0514
524.8793, 685.1593
525.3615, 683.1776
525.8436, 682.3411
526.3257, 682.6417
526.8078, 683.5186
527.2899, 685.0034
527.7720, 686.7799
528.2542, 688.2038
528.7363, 689.2545
529.2184, 689.7925
529.7005, 689.3304
530.1826, 688.3956
530.6647, 687.6836
531.1469, 687.3683
531.6290, 687.3597
532.1111, 687.8292
532.5932, 688.5565
533.0753, 689.0905
533.5574, 688.8251
534.0396, 688.7976
534.5217, 689.6653
535.0038, 691.5197
535.4859, 692.4330
535.9680, 691.6064
536.4501, 690.5557
536.9323, 690.1508
537.4144, 690.6177
537.8965, 691.1014
538.3786, 691.6059
538.8607, 692.1039
539.3428, 692.6270
539.8250, 693.2111
540.3071, 693.3887
540.7892, 692.7748
541.2713, 691.8809
541.7534, 692.1436
542.2355, 693.4682
542.7177, 694.8117
543.1998, 695.5608
543.6819, 695.9045
544.1640, 696.0496
544.6461, 696.0010
545.1282, 696.0131
545.6104, 696.2578
546.0925, 696.6595
546.5746, 697.1414
547.0567, 697.7689
547.5388, 698.3419
548.0209, 698.5653
548.5031, 698.6874
548.9852, 699.2606
549.4673, 701.3882
549.9494, 702.8782
550.4315, 702.8988
550.9136, 701.4600
551.3958, 700.8026
551.8779, 701.3094
552.3600, 701.9581
552.8421, 702.0693
553.3242, 701.5750
553.8063, 701.1039
554.2885, 700.5717
554.7706, 700.3713
555.2527, 701.2971
555.7348, 703.1579
556.2169, 704.7991
556.6990, 705.9736
557.1812, 706.6074
557.6633, 706.2685
558.1454, 705.1960
558.6275, 704.2869
559.1096, 704.2287
559.5917, 704.4339
560.0739, 704.2540
560.5560, 703.6319
561.0381, 703.6140
561.5202, 705.4447
562.0023, 707.5439
562.4844, 708.7396
562.9666, 708.5024
563.4487, 707.8581
563.9308, 706.3765
564.4129, 704.7389
564.8950, 704.0967
565.3771, 705.0615
565.8593, 705.6163
566.3414, 705.1567
566.8235, 703.9543
567.3056, 703.2825
567.7877, 703.2109
568.2698, 703.1594
568.7520, 702.4291
569.2341, 701.3918
569.7162, 701.8555
570.1983, 703.9797
570.6804, 705.8672
571.1625, 705.3353
571.6447, 703.4802
572.1268, 702.0646
572.6089, 701.6034
573.0910, 701.4566
573.5731, 701.1349
574.0552, 700.8585
574.5374, 701.0026
575.0195, 702.7784
575.5016, 703.9072
575.9837, 703.2861
576.4658, 701.0711
576.9479, 699.3248
577.4301, 697.9679
577.9122, 697.2659
578.3943, 697.4633
578.8764, 698.7646
579.3585, 699.8280
579.8406, 700.6117
580.3228, 701.2469
580.8049, 701.8887
581.2870, 702.5214
581.7691, 702.8972
582.2512, 702.8362
582.7333, 702.7943
583.2155, 703.6445
583.6975, 705.1032
584.1796, 706.3398
584.6617, 706.8499
585.1439, 707.0214
585.6260, 706.9095
586.1081, 706.6508
586.5902, 706.9437
587.0723, 708.2961
587.5544, 710.1450
588.0366, 712.4731
588.5187, 715.6275
589.0008, 717.6502
589.4829, 716.7307
589.9650, 715.6747
590.4471, 716.7501
590.9293, 721.4393
591.4114, 724.8380
591.8935, 726.4491
592.3756, 726.8857
592.8577, 726.8566
593.3398, 726.2800
593.8220, 726.7326
594.3041, 729.2087
594.7862, 732.6713
595.2683, 734.3762
595.7504, 734.5820
596.2325, 735.2953
596.7147, 738.7330
597.1968, 742.8450
597.6789, 744.8553
598.1610, 744.5275
598.6431, 744.9262
599.1252, 748.5944
599.6074, 753.2237
600.0895, 756.8949
600.5716, 758.4586
601.0537, 760.4828
601.5358, 763.7075
602.0179, 767.4402
602.5001, 770.8079
602.9822, 773.7304
603.4643, 776.3919
603.9464, 778.8668
604.4285, 781.0840
604.9106, 782.8707
605.3928, 784.1827
605.8749, 785.2414
606.3570, 786.1903
606.8391, 786.9521
607.3212, 787.4886
607.8033, 787.7736
608.2855, 787.2196
608.7676, 784.4564
609.2497, 780.9750
609.7318, 779.0645
610.2139, 779.4945
610.6960, 779.2360
611.1782, 775.7156
611.6603, 771.0554
612.1424, 767.4680
612.6245, 766.4656
613.1066, 765.3958
613.5887, 763.6895
614.0709, 761.7365
614.5530, 760.3078
615.0351, 759.6822
615.5172, 759.0262
615.9993, 757.9921
616.4814, 756.7486
616.9636, 756.4239
617.4457, 757.1371
617.9278, 757.5002
618.4099, 755.7663
618.8920, 753.0891
619.3741, 753.0595
619.8563, 755.8416
620.3384, 758.7160
620.8205, 759.0324
621.3026, 758.3389
621.7847, 758.7362
622.2668, 761.3934
622.7490, 763.1534
623.2311, 761.7537
623.7132, 758.9797
624.1953, 757.1146
624.6774, 758.2587
625.1595, 758.2167
625.6417, 756.4435
626.1238, 753.1650
626.6059, 748.7321
627.0880, 742.3977
627.5701, 737.1373
628.0522, 734.3181
628.5344, 733.4316
629.0165, 731.9952
629.4986, 730.0030
629.9807, 727.7847
630.4628, 725.4014
630.9449, 723.0042
631.4271, 720.6119
631.9092, 718.1934
632.3913, 716.5933
632.8734, 717.1309
633.3555, 718.4467
633.8376, 719.1279
634.3198, 718.5732
634.8019, 717.9066
635.2840, 717.3610
635.7661, 716.8807
636.2482, 716.3845
636.7303, 715.8995
637.2125, 715.3146
637.6946, 714.4344
638.1767, 713.5242
638.6588, 713.5912
639.1409, 714.8789
639.6230, 715.4598
640.1052, 714.1407
640.5873, 711.7184
641.0694, 710.4742
641.5515, 710.3730
642.0336, 711.0394
642.5157, 713.0372
642.9979, 715.2380
643.4800, 716.2242
643.9621, 715.8551
644.4442, 715.1689
644.9263, 714.2177
645.4084, 713.4413
645.8906, 713.2250
646.3727, 713.9754
646.8548, 714.6212
647.3369, 714.9903
647.8190, 715.2714
648.3011, 715.7301
648.7833, 716.5048
649.2654, 716.9031
649.7475, 716.7012
650.2296, 716.1922
650.7117, 715.8455
651.1938, 715.6797
651.6760, 716.0136
652.1581, 717.3541
652.6402, 718.9813
653.1223, 719.7116
653.6044, 719.7296
654.0865, 719.8386
654.5687, 721.2190
655.0508, 722.2703
655.5329, 721.6353
656.0150, 719.1678
656.4971, 717.1580
656.9792, 715.7917
657.4614, 715.3168
657.9435, 715.9547
658.4256, 718.0720
658.9077, 720.0841
659.3898, 722.1536
659.8719, 723.8163
660.3541, 724.5411
660.8362, 724.3418
661.3183, 723.5633
661.8004, 722.0438
662.2825, 720.6630
662.7646, 721.0911
663.2468, 722.5753
663.7289, 723.1975
664.2110, 721.3246
664.6931, 719.5750
665.1752, 720.4459
665.6573, 722.8438
666.1395, 724.1850
666.6216, 722.3701
667.1037, 720.7585
667.5858, 720.6678
668.0679, 721.8509
668.5500, 722.5648
669.0322, 722.6311
669.5143, 722.5783
669.9964, 722.5430
670.4785, 722.5417
670.9606, 723.0362
671.4427, 724.0775
671.9249, 725.0595
672.4070, 725.4144
672.8891, 725.3716
673.3712, 725.4590
673.8533, 725.7490
674.3354, 725.9109
674.8176, 725.3630
675.2997, 724.7316
675.7818, 724.7048
676.2639, 725.7116
676.7460, 726.8181
677.2281, 728.1337
677.7103, 729.2910
678.1924, 729.8187
678.6745, 729.5112
679.1566, 728.9441
679.6387, 727.8741
680.1208, 726.8736
680.6030, 727.5676
681.0851, 729.9288
681.5672, 731.6815
682.0493, 731.6581
682.5314, 730.8445
683.0135, 730.7646
683.4957, 731.3447
683.9778, 732.3130
684.4599, 734.2250
684.9420, 735.8952
685.4241, 736.4288
685.9063, 735.8574
686.3884, 735.1381
686.8705, 733.6569
687.3526, 732.9056
687.8347, 733.6841
688.3168, 736.2615
688.7990, 738.6777
689.2811, 741.1422
689.7632, 743.1003
690.2453, 743.9536
690.7274, 743.7941
691.2095, 743.6578
691.6917, 743.6035
692.1738, 743.6284
692.6559, 743.2192
693.1380, 743.0101
693.6201, 744.2549
694.1022, 747.6721
694.5844, 751.3049
695.0665, 754.0643
695.5486, 756.3301
696.0307, 758.6022
696.5128, 760.5843
696.9949, 763.0636
697.4771, 766.3087
697.9592, 769.9998
698.4413, 773.3489
698.9234, 776.1459
699.4055, 779.5456
699.8876, 784.1644
700.3698, 789.3132
700.8519, 793.0742
701.3340, 795.6241
701.8161, 797.9924
702.2982, 800.9020
702.7803, 803.7950
703.2625, 806.0242
703.7446, 807.6823
704.2267, 809.1801
704.7088, 809.9853
705.1909, 811.3406
705.6730, 813.6765
706.1552, 817.0430
706.6373, 822.0067
707.1194, 828.9926
707.6015, 836.9902
708.0836, 845.3084
708.5657, 853.8468
709.0479, 863.9610
709.5300, 875.8115
710.0121, 888.1340
710.4942, 899.4695
710.9763, 910.3839
711.4584, 922.8461
711.9406, 937.2449
712.4227, 951.3783
712.9048, 964.5068
713.3869, 976.2159
713.8690, 986.2434
714.3511, 995.3557
714.8333, 1001.123
715.3154, 1003.025
715.7975, 1001.299
716.2796, 995.9263
716.7617, 986.7516
717.2438, 974.3559
717.7260, 958.2591
718.2081, 940.0451
718.6902, 922.4095
719.1723, 905.2285
719.6544, 888.6330
720.1365, 872.3590
720.6187, 857.1602
721.1008, 843.6708
721.5829, 831.8764
722.0650, 821.3993
722.5471, 812.0222
723.0292, 804.0737
723.5114, 798.4103
723.9935, 794.5657
724.4756, 790.4910
724.9577, 785.6277
725.4398, 781.3165
725.9219, 778.1349
726.4041, 775.8661
726.8862, 773.1752
727.3683, 769.9749
727.8504, 767.0565
728.3325, 764.7950
728.8146, 763.1163
729.2968, 762.0654
729.7789, 761.5902
730.2610, 761.1996
730.7431, 760.8006
731.2252, 760.2119
731.7073, 758.9418
732.1895, 756.8161
732.6716, 755.9257
733.1537, 758.2493
733.6358, 760.4225
734.1179, 760.6096
734.6000, 758.3066
735.0822, 756.8396
735.5643, 756.2692
736.0464, 756.2592
736.5285, 757.0533
737.0106, 758.2211
737.4927, 757.7744
737.9749, 755.3503
738.4570, 753.0494
738.9391, 752.8617
739.4212, 753.7857
739.9033, 754.8416
740.3854, 756.2299
740.8676, 756.7615
741.3497, 755.1456
741.8318, 753.0602
742.3139, 752.2361
742.7960, 753.2180
743.2781, 754.1231
743.7603, 754.8328
744.2424, 755.4056
744.7245, 755.9705
745.2066, 756.4840
745.6887, 756.6532
746.1708, 756.2530
746.6530, 755.8339
747.1351, 756.1574
747.6172, 756.8752
748.0993, 757.3840
748.5814, 757.2731
749.0635, 757.1320
749.5457, 757.0275
750.0278, 757.0674
750.5099, 757.5361
750.9920, 759.1219
751.4741, 759.7930
751.9562, 758.8378
752.4384, 757.0304
752.9205, 756.5173
753.4026, 757.2587
753.8847, 757.6990
754.3668, 757.0554
754.8489, 755.9988
755.3311, 755.1879
755.8132, 754.7361
756.2953, 754.9974
756.7774, 757.4407
757.2595, 759.3541
757.7416, 758.9611
758.2238, 756.7122
758.7059, 755.2845
759.1880, 754.9365
759.6701, 755.2684
760.1522, 756.5778
760.6343, 758.4680
761.1165, 758.4843
761.5986, 756.5192
762.0807, 754.9163
762.5628, 754.9576
763.0449, 756.1917
763.5270, 758.4980
764.0092, 761.5392
764.4913, 763.5851
764.9734, 763.1635
765.4555, 761.8629
765.9376, 760.3301
766.4197, 758.6091
766.9019, 757.5140
767.3840, 757.0229
767.8661, 757.2600
768.3482, 758.6803
768.8303, 761.1922
769.3124, 761.8073
769.7946, 760.3690
770.2767, 758.9273
770.7588, 758.9008
771.2409, 759.8577
771.7230, 761.4080
772.2051, 763.4564
772.6873, 764.8373
773.1694, 764.4776
773.6515, 763.4966
774.1336, 762.5103
774.6157, 761.5178
775.0978, 760.8926
775.5800, 760.3977
776.0621, 760.5876
776.5442, 762.2654
777.0263, 765.5809
777.5084, 766.5714
777.9905, 765.0148
778.4727, 763.3311
778.9548, 764.0894
779.4369, 765.9667
779.9190, 766.5470
780.4011, 765.5377
780.8832, 764.4382
781.3654, 763.6580
781.8475, 763.4515
782.3296, 764.2570
782.8117, 766.8400
783.2938, 768.0287
783.7759, 767.1009
784.2581, 765.8054
784.7402, 765.4745
785.2223, 766.1121
785.7044, 766.9303
786.1865, 767.9453
786.6686, 768.6487
787.1508, 768.1533
787.6329, 767.1628
788.1150, 766.7063
788.5971, 766.9315
789.0792, 767.6871
789.5613, 769.4946
790.0435, 771.3922
790.5256, 772.6471
791.0077, 773.2494
791.4898, 772.9407
791.9719, 771.1575
792.4540, 769.3974
792.9362, 769.1053
793.4183, 770.1868
793.9004, 771.9725
794.3825, 774.6035
794.8646, 776.3865
795.3467, 774.8068
795.8289, 771.7941
796.3110, 769.9442
796.7931, 769.8005
797.2752, 770.3359
797.7573, 771.7754
798.2394, 773.3655
798.7216, 774.5081
799.2037, 775.1992
799.6858, 775.4619
800.1679, 775.2589
800.6500, 774.7009
801.1321, 773.3171
801.6143, 771.5208
802.0964, 771.8503
802.5785, 774.8330
803.0606, 777.4601
803.5427, 776.0361
804.0248, 773.3152
804.5070, 772.4931
804.9891, 774.9163
805.4712, 776.8852
805.9533, 777.7285
806.4354, 777.7512
806.9175, 776.8566
807.3997, 774.4714
807.8818, 773.9335
808.3639, 775.6879
808.8460, 777.9656
809.3281, 779.2025
809.8102, 779.5069
810.2924, 778.8340
810.7745, 777.0333
811.2566, 775.6609
811.7387, 776.2031
812.2208, 777.4453
812.7029, 778.2513
813.1851, 778.0642
813.6672, 778.5209
814.1493, 780.0018
814.6314, 781.7459
815.1135, 783.0939
815.5956, 784.0250
816.0778, 785.2874
816.5599, 786.9615
817.0420, 788.5753
817.5241, 789.8883
818.0062, 790.7585
818.4883, 790.7327
818.9705, 789.6044
819.4526, 788.9347
819.9347, 789.6309
820.4168, 790.9354
820.8989, 792.3100
821.3810, 793.6210
821.8632, 795.4010
822.3453, 797.7833
822.8274, 800.3654
823.3095, 802.8752
823.7916, 805.3057
824.2737, 807.5555
824.7559, 809.6376
825.2380, 811.0826
825.7201, 811.0459
826.2022, 810.4584
826.6843, 810.5595
827.1664, 811.7111
827.6486, 811.3757
828.1307, 807.4563
828.6128, 803.3058
829.0949, 800.5634
829.5770, 799.3674
830.0591, 797.7581
830.5413, 795.6898
831.0234, 793.5287
831.5055, 791.3442
831.9876, 789.3279
832.4697, 787.8947
832.9518, 787.0427
833.4340, 786.3810
833.9161, 785.4901
834.3982, 784.8782
834.8803, 785.1414
835.3624, 786.3936
835.8445, 786.5518
836.3267, 784.7849
836.8088, 783.5934
837.2909, 784.7338
837.7730, 787.5611
838.2551, 787.8674
838.7372, 785.8116
839.2194, 783.8151
839.7015, 783.2967
840.1836, 783.7062
840.6657, 784.7722
841.1478, 786.3830
841.6299, 787.9201
842.1121, 789.9254
842.5942, 790.9631
843.0763, 790.2249
843.5584, 788.0994
844.0405, 786.7900
844.5226, 786.3492
845.0048, 786.2543
845.4869, 786.2554
845.9690, 786.4557
846.4511, 787.2156
846.9332, 788.3727
847.4153, 789.4030
847.8975, 789.9901
848.3796, 790.4444
848.8617, 791.0002
849.3438, 791.5452
849.8259, 791.6581
850.3080, 790.9534
850.7902, 790.7670
851.2723, 791.6818
851.7544, 792.9770
852.2365, 792.7558
852.7186, 791.3129
853.2007, 790.3217
853.6829, 790.3864
854.1650, 791.1477
854.6471, 792.8641
855.1292, 794.9263
855.6113, 796.3132
856.0934, 796.2777
856.5756, 796.0989
857.0577, 795.7334
857.5398, 795.4442
858.0219, 795.7363
858.5040, 796.6562
858.9861, 797.0829
859.4683, 796.6656
859.9504, 796.2978
860.4325, 797.4557
860.9146, 799.3249
861.3967, 800.4167
861.8788, 799.9664
862.3610, 799.7996
862.8431, 801.7216
863.3252, 803.4909
863.8073, 802.7698
864.2894, 797.9334
864.7715, 795.8351
865.2537, 797.0652
865.7358, 799.4783
866.2179, 801.6316
866.7000, 803.2302
867.1821, 803.1174
867.6642, 801.1174
868.1464, 799.2693
868.6285, 798.9977
869.1106, 799.3554
869.5927, 799.4796
870.0748, 799.0637
870.5569, 799.9589
871.0391, 803.0358
871.5212, 805.7880
872.0033, 806.5174
872.4854, 805.5040
872.9675, 804.6985
873.4496, 804.1012
873.9318, 804.0766
874.4139, 805.4276
874.8960, 807.0131
875.3781, 807.9337
875.8602, 808.1696
876.3423, 807.9026
876.8245, 806.7577
877.3066, 805.5751
877.7887, 804.4374
878.2708, 803.4684
878.7529, 803.3850
879.2350, 804.1987
879.7172, 804.6916
880.1993, 803.9886
880.6814, 803.1193
881.1635, 803.5416
881.6456, 804.8561
882.1277, 806.1219
882.6099, 807.6127
883.0920, 808.2658
883.5741, 807.0085
884.0562, 805.1069
884.5383, 804.5869
885.0204, 805.6295
885.5026, 807.0033
885.9847, 808.6282
886.4668, 810.0984
886.9489, 810.9057
887.4310, 811.1295
887.9131, 810.7968
888.3953, 809.5779
888.8774, 808.7803
889.3595, 809.4128
889.8416, 810.4678
890.3237, 810.9441
890.8058, 810.4968
891.2880, 810.3641
891.7701, 810.5131
892.2522, 811.0721
892.7343, 812.8955
893.2164, 815.1317
893.6985, 814.9586
894.1807, 812.1936
894.6628, 809.8962
895.1449, 810.5132
895.6270, 811.8939
896.1091, 812.4979
896.5912, 812.1298
897.0734, 812.7938
897.5555, 815.2370
898.0376, 816.8490
898.5197, 815.7864
899.0018, 813.1067
899.4839, 812.7126
899.9661, 814.3083
900.4482, 816.1599
900.9303, 818.1529
901.4124, 819.3115
901.8945, 817.9962
902.3766, 815.2549
902.8588, 814.6896
903.3409, 818.6334
903.8230, 820.9278
904.3051, 819.9656
904.7872, 817.4259
905.2693, 816.6296
905.7515, 817.3293
906.2336, 818.0302
906.7157, 818.3680
907.1978, 818.4477
907.6799, 817.9183
908.1620, 817.3708
908.6442, 817.5663
909.1263, 819.4834
909.6084, 820.6618
910.0905, 820.8043
910.5726, 820.5320
911.0547, 820.2426
911.5369, 819.9853
912.0190, 820.4615
912.5011, 821.7516
912.9832, 822.7706
913.4653, 822.3277
913.9474, 821.3954
914.4296, 820.7156
914.9117, 820.3516
915.3938, 820.7335
915.8759, 822.5896
916.3580, 824.2114
916.8401, 824.7548
917.3223, 824.4660
917.8044, 824.8720
918.2865, 825.9266
918.7686, 827.0452
919.2507, 828.3958
919.7328, 829.2491
920.2150, 828.3658
920.6971, 826.4406
921.1792, 825.1799
921.6613, 825.4254
922.1434, 825.9510
922.6255, 826.8381
923.1077, 827.6964
923.5898, 827.6718
924.0719, 826.8316
924.5540, 826.3184
925.0361, 826.3719
925.5182, 826.7436
926.0004, 827.3933
926.4825, 828.0986
926.9646, 828.5096
927.4467, 828.2281
927.9288, 828.6268
928.4109, 830.2208
928.8931, 832.0208
929.3752, 833.5732
929.8573, 834.8616
930.3394, 834.8239
930.8215, 833.4668
931.3036, 831.8505
931.7858, 830.3105
932.2679, 829.2363
932.7500, 829.1815
933.2321, 830.0535
933.7142, 830.9486
934.1964, 831.6949
934.6785, 832.4402
935.1606, 833.2402
935.6427, 834.0535
936.1248, 834.8373
936.6069, 835.5608
937.0891, 835.7125
937.5712, 834.7634
938.0533, 833.8577
938.5354, 834.3992
939.0175, 835.5951
939.4996, 836.2756
939.9818, 835.2206
940.4639, 835.0775
940.9460, 836.2584
941.4281, 837.9079
941.9102, 839.3996
942.3923, 840.6672
942.8745, 840.6179
943.3566, 839.1105
943.8387, 838.3900
944.3208, 841.5693
944.8029, 845.3928
945.2850, 846.7785
945.7672, 845.3611
946.2493, 844.9101
946.7314, 846.1826
947.2135, 847.5557
947.6956, 848.3633
948.1777, 848.8264
948.6599, 849.8712
949.1420, 851.3496
949.6241, 852.3755
950.1062, 852.1146
950.5883, 851.7647
951.0704, 851.7300
951.5526, 852.2820
952.0347, 854.0594
952.5168, 858.0627
952.9989, 861.2354
953.4810, 863.2431
953.9631, 864.5801
954.4453, 865.7486
954.9274, 866.7592
955.4095, 867.4009
955.8916, 867.5606
956.3737, 868.5284
956.8558, 872.0115
957.3380, 875.9616
957.8201, 878.7877
958.3022, 880.3243
958.7843, 882.0613
959.2664, 883.7563
959.7485, 886.4897
960.2307, 891.3688
960.7128, 897.2568
961.1949, 900.9047
961.6770, 903.0876
962.1591, 906.4472
962.6412, 913.5881
963.1234, 920.6689
963.6055, 925.1580
964.0876, 929.0522
964.5697, 935.8231
965.0518, 945.8698
965.5339, 956.6427
966.0161, 967.7799
966.4982, 980.0051
966.9803, 993.7344
967.4624, 1009.389
967.9445, 1027.699
968.4266, 1049.155
968.9088, 1071.248
969.3909, 1090.543
969.8730, 1113.036
970.3551, 1142.593
970.8372, 1178.400
971.3193, 1214.612
971.8015, 1250.851
972.2836, 1289.755
972.7657, 1332.783
973.2478, 1378.544
973.7299, 1425.295
974.2120, 1473.839
974.6942, 1526.583
975.1763, 1583.842
975.6584, 1646.084
976.1405, 1714.151
976.6226, 1786.823
977.1047, 1862.580
977.5869, 1942.017
978.0690, 2025.630
978.5511, 2113.128
979.0332, 2201.432
979.5153, 2292.298
979.9974, 2380.642
980.4796, 2463.744
980.9617, 2541.669
981.4438, 2606.300
981.9259, 2659.416
982.4080, 2697.305
982.8901, 2720.155
983.3723, 2726.282
983.8544, 2709.228
984.3365, 2670.345
984.8186, 2615.285
985.3007, 2543.265
985.7828, 2459.531
986.2650, 2361.490
986.7471, 2254.131
987.2292, 2145.865
987.7113, 2035.789
988.1934, 1927.867
988.6755, 1821.867
989.1577, 1719.877
989.6398, 1623.856
990.1219, 1534.726
990.6040, 1454.947
991.0861, 1384.829
991.5682, 1322.407
992.0504, 1268.209
992.5325, 1220.728
993.0146, 1178.922
993.4967, 1143.251
993.9788, 1113.014
994.4609, 1088.213
994.9431, 1066.162
995.4252, 1045.384
995.9073, 1027.429
996.3894, 1015.173
996.8715, 1006.335
997.3536, 996.9101
997.8358, 983.6761
998.3179, 973.5125
998.8000, 967.3998
999.2821, 963.0291
999.7642, 957.9813
1000.246, 952.5419
1000.728, 948.8984
1001.211, 947.0270
1001.693, 945.1037
1002.175, 941.5087
1002.657, 937.7615
1003.139, 934.7111
1003.621, 932.3972
1004.103, 930.8092
1004.585, 930.0320
1005.068, 929.7613
1005.550, 930.1740
1006.032, 930.5374
1006.514, 929.6241
1006.996, 927.7935
1007.478, 925.6619
1007.960, 923.1706
1008.442, 921.0323
1008.924, 919.4962
1009.407, 918.3486
1009.889, 917.4295
1010.371, 916.7364
1010.853, 916.5901
1011.335, 916.9936
1011.817, 917.4689
1012.299, 917.6164
1012.781, 917.7543
1013.263, 918.3022
1013.746, 919.1049
1014.228, 919.6038
1014.710, 919.6246
1015.192, 919.4855
1015.674, 919.1114
1016.156, 918.8033
1016.638, 919.2122
1017.120, 920.0613
1017.603, 920.1732
1018.085, 919.1502
1018.567, 919.1497
1019.049, 922.7485
1019.531, 926.6898
1020.013, 928.5499
1020.495, 928.4116
1020.977, 929.2386
1021.459, 931.1830
1021.942, 932.6750
1022.424, 932.5066
1022.906, 932.0499
1023.388, 933.2142
1023.870, 935.5169
1024.352, 938.0089
1024.834, 941.0272
1025.316, 943.2964
1025.799, 944.4410
1026.281, 945.2525
1026.763, 945.8998
1027.245, 946.7400
1027.727, 950.8751
1028.209, 958.3466
1028.691, 965.6741
1029.173, 969.8917
1029.656, 973.7031
1030.138, 979.3846
1030.620, 986.3457
1031.102, 990.9091
1031.584, 991.9075
1032.066, 995.3532
1032.548, 1003.121
1033.030, 1013.081
1033.512, 1021.419
1033.995, 1029.870
1034.477, 1041.068
1034.959, 1055.302
1035.441, 1073.186
1035.923, 1094.257
1036.405, 1119.730
1036.887, 1149.964
1037.369, 1185.108
1037.851, 1229.130
1038.334, 1281.287
1038.816, 1341.417
1039.298, 1409.849
1039.780, 1485.599
1040.262, 1570.394
1040.744, 1662.386
1041.226, 1758.324
1041.708, 1860.161
1042.191, 1961.211
1042.673, 2061.266
1043.155, 2164.844
1043.637, 2275.106
1044.119, 2394.493
1044.601, 2524.372
1045.083, 2667.167
1045.565, 2831.859
1046.047, 3025.521
1046.530, 3240.286
1047.012, 3470.657
1047.494, 3719.499
1047.976, 4002.862
1048.458, 4318.999
1048.940, 4628.011
1049.422, 4929.119
1049.904, 5194.525
1050.386, 5429.743
1050.869, 5605.251
1051.351, 5691.310
1051.833, 5694.394
1052.315, 5589.652
1052.797, 5371.826
1053.279, 5066.379
1053.761, 4654.426
1054.243, 4180.471
1054.726, 3688.688
1055.208, 3196.782
1055.690, 2751.570
1056.172, 2355.625
1056.654, 2032.436
1057.136, 1786.407
1057.618, 1599.464
1058.100, 1458.726
1058.583, 1360.555
1059.065, 1284.147
1059.547, 1227.710
1060.029, 1183.987
1060.511, 1153.414
1060.993, 1130.200
1061.475, 1112.742
1061.957, 1100.042
1062.439, 1089.285
1062.922, 1080.730
1063.404, 1072.298
1063.886, 1063.183
1064.368, 1055.054
1064.850, 1050.289
1065.332, 1047.561
1065.814, 1045.045
1066.296, 1042.266
1066.778, 1040.640
1067.261, 1041.110
1067.743, 1041.088
1068.225, 1038.593
1068.707, 1034.913
1069.189, 1034.760
1069.671, 1037.330
1070.153, 1039.778
1070.635, 1040.806
1071.118, 1041.514
1071.600, 1041.743
1072.082, 1042.263
1072.564, 1043.973
1073.046, 1046.964
1073.528, 1049.977
1074.010, 1052.962
1074.492, 1055.378
1074.974, 1056.236
1075.457, 1056.763
1075.939, 1057.725
1076.421, 1059.259
1076.903, 1061.948
1077.385, 1066.714
1077.867, 1069.833
1078.349, 1070.215
1078.831, 1070.028
1079.313, 1072.364
1079.796, 1076.087
1080.278, 1079.257
1080.760, 1081.623
1081.242, 1083.578
1081.724, 1085.026
1082.206, 1086.327
1082.688, 1087.581
1083.170, 1088.760
1083.652, 1089.325
1084.135, 1089.594
1084.617, 1091.443
1085.099, 1096.407
1085.581, 1100.680
1086.063, 1101.521
1086.545, 1100.849
1087.027, 1100.199
1087.509, 1099.454
1087.992, 1101.009
1088.474, 1105.072
1088.956, 1108.434
1089.438, 1108.078
1089.920, 1106.955
1090.402, 1108.241
1090.884, 1111.086
1091.366, 1113.739
1091.849, 1116.202
1092.331, 1117.583
1092.813, 1117.325
1093.295, 1117.261
1093.777, 1120.298
1094.259, 1124.429
1094.741, 1125.096
1095.223, 1122.543
1095.705, 1120.319
1096.188, 1120.365
1096.670, 1120.240
1097.152, 1118.717
1097.634, 1117.329
1098.116, 1119.889
1098.598, 1125.431
1099.080, 1128.192
1099.562, 1127.086
1100.044, 1125.322
1100.527, 1123.947
1101.009, 1123.635
1101.491, 1125.412
1101.973, 1128.747
1102.455, 1130.706
1102.937, 1131.293
1103.419, 1130.178
1103.901, 1126.441
1104.384, 1122.972
1104.866, 1123.343
1105.348, 1125.425
1105.830, 1126.844
1106.312, 1127.337
1106.794, 1126.479
1107.276, 1123.749
1107.758, 1121.494
1108.240, 1121.567
1108.723, 1122.508
1109.205, 1121.730
1109.687, 1119.756
1110.169, 1117.800
1110.651, 1116.732
1111.133, 1114.869
1111.615, 1111.531
1112.097, 1108.331
1112.579, 1107.118
1113.062, 1107.253
1113.544, 1106.424
1114.026, 1104.635
1114.508, 1102.432
1114.990, 1099.820
1115.472, 1097.168
1115.954, 1094.736
1116.436, 1092.298
1116.919, 1089.606
1117.401, 1086.621
1117.883, 1082.828
1118.365, 1078.115
1118.847, 1074.026
1119.329, 1072.223
1119.811, 1070.985
1120.293, 1069.401
1120.776, 1067.345
1121.258, 1064.273
1121.740, 1059.997
1122.222, 1056.631
1122.704, 1054.937
1123.186, 1053.176
1123.668, 1048.907
1124.150, 1043.894
1124.632, 1040.245
1125.115, 1038.450
1125.597, 1035.577
1126.079, 1031.115
1126.561, 1027.319
1127.043, 1025.489
1127.525, 1024.118
1128.007, 1020.193
1128.489, 1015.105
1128.971, 1011.352
1129.454, 1010.136
1129.936, 1008.571
1130.418, 1006.084
1130.900, 1003.743
1131.382, 1002.285
1131.864, 1001.370
1132.346, 999.9296
1132.828, 998.1254
1133.311, 996.4915
1133.793, 995.8815
1134.275, 994.4865
1134.757, 991.1449
1135.239, 987.7264
1135.721, 985.9467
1136.203, 985.6240
1136.685, 985.4338
1137.167, 985.2735
1137.650, 984.5198
1138.132, 982.4185
1138.614, 980.0975
1139.096, 977.9678
1139.578, 975.9670
1140.060, 974.0065
1140.542, 972.0696
1141.024, 970.4236
1141.506, 969.0939
1141.989, 967.9271
1142.471, 967.0662
1142.953, 966.0776
1143.435, 964.2875
1143.917, 962.1314
1144.399, 961.0989
1144.881, 961.3801
1145.363, 961.5212
1145.846, 961.3317
1146.328, 960.6592
1146.810, 958.7018
1147.292, 956.6691
1147.774, 955.9813
1148.256, 956.6912
1148.738, 956.4645
1149.220, 954.9202
1149.703, 953.8575
1150.185, 953.8851
1150.667, 954.2385
1151.149, 953.8855
1151.631, 953.2299
1152.113, 952.9366
1152.595, 953.2242
1153.077, 952.7897
1153.559, 951.2952
1154.042, 949.7363
1154.524, 948.3637
1155.006, 947.3553
1155.488, 947.4492
1155.970, 948.0460
1156.452, 947.8209
1156.934, 945.7807
1157.416, 945.1337
1157.898, 947.1715
1158.381, 948.7741
1158.863, 948.0296
1159.345, 945.7192
1159.827, 943.7037
1160.309, 942.0406
1160.791, 940.9301
1161.273, 940.8397
1161.755, 940.6583
1162.238, 940.2538
1162.720, 939.6248
1163.202, 938.5187
1163.684, 937.1693
1164.166, 937.0857
1164.648, 937.9363
1165.130, 938.2363
1165.612, 936.1986
1166.094, 934.8465
1166.577, 935.0261
1167.059, 936.3425
1167.541, 939.3106
1168.023, 943.4666
1168.505, 943.8604
1168.987, 940.7626
1169.469, 937.8782
1169.951, 937.2831
1170.433, 937.4603
1170.916, 938.4274
1171.398, 939.3280
1171.880, 938.9814
1172.362, 937.4501
1172.844, 935.4206
1173.326, 933.0074
1173.808, 931.6301
1174.290, 933.2973
1174.773, 935.2924
1175.255, 936.2021
1175.737, 936.2878
1176.219, 935.8961
1176.701, 935.0282
1177.183, 933.9338
1177.665, 932.5897
1178.147, 931.9056
1178.630, 933.6823
1179.112, 935.3683
1179.594, 934.6689
1180.076, 932.3997
1180.558, 931.3621
1181.040, 931.6155
1181.522, 931.5573
1182.004, 930.7934
1182.486, 930.2361
1182.969, 930.8530
1183.451, 931.8705
1183.933, 932.9164
1184.415, 933.8275
1184.897, 933.6912
1185.379, 932.3820
1185.861, 931.3829
1186.343, 931.1536
1186.825, 931.0452
1187.308, 930.3264
1187.790, 929.5091
1188.272, 929.0297
1188.754, 928.9415
1189.236, 929.5497
1189.718, 930.9948
1190.200, 931.9137
1190.682, 931.7746
1191.165, 931.2677
1191.647, 930.5779
1192.129, 930.2641
1192.611, 931.2535
1193.093, 933.7204
1193.575, 934.9301
1194.057, 934.6484
1194.539, 934.8702
1195.021, 936.8702
1195.504, 938.6670
1195.986, 937.0359
1196.468, 934.3646
1196.950, 934.1218
1197.432, 937.2501
1197.914, 937.8983
1198.396, 935.6221
1198.878, 933.7722
1199.360, 933.8150
1199.843, 935.2825
1200.325, 939.4765
1200.807, 943.9047
1201.289, 944.5904
1201.771, 940.1832
1202.253, 936.3422
1202.735, 932.8619
1203.217, 931.4780
1203.700, 934.6741
1204.182, 938.6646
1204.664, 938.5172
1205.146, 936.4173
1205.628, 936.0730
1206.110, 938.8495
1206.592, 939.6891
1207.074, 938.2244
1207.557, 937.1407
1208.039, 938.7060
1208.521, 940.9866
1209.003, 941.7208
1209.485, 941.6627
1209.967, 942.2949
1210.449, 944.5256
1210.931, 944.9560
1211.413, 943.3108
1211.896, 941.6030
1212.378, 941.2646
1212.860, 941.5508
1213.342, 941.6624
1213.824, 941.8231
1214.306, 942.6938
1214.788, 945.1116
1215.270, 945.1953
1215.752, 942.5805
1216.235, 939.9845
1216.717, 939.2169
1217.199, 939.6165
1217.681, 941.4266
1218.163, 943.6915
1218.645, 944.1237
1219.127, 942.0384
1219.609, 940.6902
1220.092, 940.2350
1220.574, 940.2737
1221.056, 940.9589
1221.538, 941.5676
1222.020, 941.2472
1222.502, 940.3643
1222.984, 939.7241
1223.466, 939.2350
1223.948, 939.8693
1224.431, 941.8155
1224.913, 943.1066
1225.395, 940.9957
1225.877, 938.6501
1226.359, 939.0593
1226.841, 941.1916
1227.323, 942.2615
1227.805, 942.0971
1228.287, 942.0789
1228.770, 942.3351
1229.252, 942.1260
1229.734, 939.7546
1230.216, 937.7691
1230.698, 938.4673
1231.180, 940.8945
1231.662, 942.8988
1232.144, 944.5305
1232.627, 944.8314
1233.109, 943.6818
1233.591, 942.5853
1234.073, 943.1981
1234.555, 943.7059
1235.037, 942.1652
1235.519, 940.0084
1236.001, 940.2674
1236.484, 942.9464
1236.966, 944.6436
1237.448, 945.0466
1237.930, 944.1813
1238.412, 939.7676
1238.894, 936.5602
1239.376, 938.4967
1239.858, 942.7260
1240.340, 944.8502
1240.823, 945.0033
1241.305, 944.9689
1241.787, 944.9270
1242.269, 945.1166
1242.751, 945.5772
1243.233, 946.4991
1243.715, 948.5775
1244.197, 950.6035
1244.679, 950.2298
1245.162, 948.0164
1245.644, 946.7987
1246.126, 946.8290
1246.608, 947.7997
1247.090, 950.9396
1247.572, 953.1597
1248.054, 953.2247
1248.536, 952.3467
1249.019, 952.3425
1249.501, 952.9105
1249.983, 953.0256
1250.465, 952.6418
1250.947, 952.4689
1251.429, 953.6688
1251.911, 953.6779
1252.393, 951.2988
1252.875, 948.7645
1253.358, 949.8510
1253.840, 952.8329
1254.322, 953.6631
1254.804, 952.2645
1255.286, 951.0502
1255.768, 950.4777
1256.250, 950.7063
1256.732, 952.1019
1257.214, 953.4845
1257.697, 953.1821
1258.179, 952.0345
1258.661, 951.3931
1259.143, 951.2502
1259.625, 950.8432
1260.107, 949.8954
1260.589, 949.1740
1261.071, 948.7857
1261.554, 948.6586
1262.036, 948.5051
1262.518, 948.7200
1263.000, 950.2450
1263.482, 952.6369
1263.964, 953.6189
1264.446, 952.6340
1264.928, 952.4821
1265.411, 953.6284
1265.893, 954.6331
1266.375, 953.7991
1266.857, 952.6137
1267.339, 952.3062
1267.821, 952.7267
1268.303, 953.1181
1268.785, 953.4334
1269.267, 954.4368
1269.750, 956.2288
1270.232, 957.9802
1270.714, 959.4335
1271.196, 960.3008
1271.678, 960.0866
1272.160, 959.2982
1272.642, 958.6279
1273.124, 958.0756
1273.606, 957.5108
1274.089, 956.9413
1274.571, 956.5787
1275.053, 956.4974
1275.535, 956.7574
1276.017, 957.4631
1276.499, 958.4019
1276.981, 959.5955
1277.463, 960.7775
1277.946, 960.5862
1278.428, 959.1758
1278.910, 958.2285
1279.392, 958.3084
1279.874, 959.4287
1280.356, 962.2164
1280.838, 964.7141
1281.320, 964.2821
1281.802, 962.2391
1282.285, 961.2019
1282.767, 961.1173
1283.249, 961.2537
1283.731, 961.6138
1284.213, 961.7029
1284.695, 961.3111
1285.177, 961.3287
1285.659, 963.2789
1286.141, 965.5920
1286.624, 966.1055
1287.106, 965.3201
1287.588, 964.7226
1288.070, 964.3309
1288.552, 964.7473
1289.034, 966.0920
1289.516, 967.2086
1289.998, 966.7402
1290.481, 966.1524
1290.963, 966.3955
1291.445, 967.4605
1291.927, 969.4853
1292.409, 972.6074
1292.891, 973.8188
1293.373, 973.1616
1293.855, 972.2545
1294.338, 971.1205
1294.820, 971.1108
1295.302, 974.0148
1295.784, 977.3915
1296.266, 979.1595
1296.748, 979.5091
1297.230, 979.0804
1297.712, 978.3046
1298.194, 978.8008
1298.677, 982.5157
1299.159, 985.1483
1299.641, 985.3583
1300.123, 985.7068
1300.605, 988.7239
1301.087, 992.8952
1301.569, 994.4900
1302.051, 994.0679
1302.533, 993.0590
1303.016, 990.9329
##END=



