##NAMES=Pseudomalachite
##RRUFFID=R040175
##IDEAL CHEMISTRY=Cu^2+^_5_(P^5+^O_4_)_2_(OH)_4_
##LOCALITY=West Bogan mine, Tottenham, Australia
##OWNER=RRUFF
##SOURCE=University of Arizona Mineral Museum
##DESCRIPTION=Green massive in a botryoidal shape
##STATUS=The identification of this mineral has been confirmed by X-ray diffraction and chemical analysis
##URL=rruff.info/R040175
##MEASURED CHEMISTRY=Cu_5.00_(P_1.00_O_4_)_2_(OH_.98_F_.02_)_4_
124.5917, 1338.697
125.0739, 1424.071
125.5560, 1529.003
126.0381, 1649.433
126.5202, 1780.016
127.0023, 1920.747
127.4844, 2069.709
127.9666, 2227.825
128.4487, 2394.958
128.9308, 2560.702
129.4129, 2715.594
129.8950, 2861.102
130.3772, 2996.375
130.8593, 3119.424
131.3414, 3233.099
131.8235, 3351.221
132.3056, 3475.434
132.7877, 3592.075
133.2699, 3679.438
133.7520, 3736.702
134.2341, 3790.526
134.7162, 3847.484
135.1983, 3907.759
135.6804, 3981.271
136.1626, 4067.699
136.6447, 4166.563
137.1268, 4280.141
137.6089, 4411.334
138.0910, 4544.087
138.5731, 4667.465
139.0553, 4781.626
139.5374, 4892.672
140.0195, 5000.591
140.5016, 5105.489
140.9837, 5203.747
141.4658, 5296.751
141.9480, 5382.452
142.4301, 5460.292
142.9122, 5535.815
143.3943, 5591.727
143.8764, 5627.488
144.3585, 5642.798
144.8407, 5632.723
145.3228, 5583.731
145.8049, 5519.643
146.2870, 5462.929
146.7691, 5422.372
147.2512, 5378.487
147.7334, 5324.414
148.2155, 5253.523
148.6976, 5200.202
149.1797, 5174.848
149.6618, 5164.049
150.1439, 5150.244
150.6261, 5115.369
151.1082, 5093.867
151.5903, 5097.569
152.0724, 5140.228
152.5545, 5177.564
153.0366, 5189.552
153.5188, 5194.606
154.0009, 5228.767
154.4830, 5331.802
154.9651, 5439.599
155.4472, 5523.380
155.9293, 5556.945
156.4115, 5599.285
156.8936, 5665.573
157.3757, 5750.763
157.8578, 5838.099
158.3399, 5932.877
158.8221, 6022.290
159.3042, 6098.953
159.7863, 6157.703
160.2684, 6206.667
160.7505, 6249.153
161.2326, 6284.987
161.7148, 6309.600
162.1969, 6317.727
162.6790, 6315.059
163.1611, 6307.084
163.6432, 6310.628
164.1253, 6297.486
164.6075, 6233.964
165.0896, 6118.192
165.5717, 6029.827
166.0538, 6028.111
166.5359, 6079.416
167.0180, 6135.139
167.5002, 6162.387
167.9823, 6194.753
168.4644, 6256.291
168.9465, 6349.236
169.4286, 6468.060
169.9107, 6624.239
170.3929, 6803.419
170.8750, 6979.532
171.3571, 7135.563
171.8392, 7281.312
172.3213, 7428.528
172.8034, 7579.569
173.2856, 7724.073
173.7677, 7859.956
174.2498, 7983.651
174.7319, 8080.772
175.2140, 8155.782
175.6961, 8196.379
176.1783, 8178.701
176.6604, 8088.674
177.1425, 7957.159
177.6246, 7804.514
178.1067, 7636.178
178.5888, 7477.160
179.0710, 7348.556
179.5531, 7244.834
180.0352, 7155.625
180.5173, 7075.911
180.9994, 7013.281
181.4815, 6985.055
181.9637, 6990.487
182.4458, 7013.721
182.9279, 7048.393
183.4100, 7091.554
183.8921, 7132.823
184.3742, 7169.946
184.8564, 7203.054
185.3385, 7237.931
185.8206, 7276.563
186.3027, 7296.469
186.7848, 7276.338
187.2669, 7217.346
187.7491, 7128.379
188.2312, 6999.987
188.7133, 6844.068
189.1954, 6698.231
189.6775, 6562.417
190.1596, 6441.314
190.6418, 6344.544
191.1239, 6272.002
191.6060, 6200.850
192.0881, 6118.973
192.5702, 6028.576
193.0524, 5952.898
193.5345, 5897.160
194.0166, 5843.121
194.4987, 5760.754
194.9808, 5648.355
195.4629, 5532.882
195.9451, 5423.534
196.4272, 5319.080
196.9093, 5232.638
197.3914, 5165.431
197.8735, 5114.942
198.3556, 5078.661
198.8378, 5057.808
199.3199, 5043.883
199.8020, 5030.041
200.2841, 5015.320
200.7662, 5017.724
201.2483, 5041.117
201.7305, 5079.613
202.2126, 5117.916
202.6947, 5153.997
203.1768, 5197.459
203.6589, 5258.460
204.1410, 5340.178
204.6232, 5411.710
205.1053, 5466.180
205.5874, 5510.508
206.0695, 5568.984
206.5516, 5645.508
207.0337, 5725.942
207.5159, 5803.731
207.9980, 5879.319
208.4801, 5944.626
208.9622, 6002.607
209.4443, 6049.419
209.9264, 6062.778
210.4086, 6033.686
210.8907, 5989.025
211.3728, 5952.746
211.8549, 5933.153
212.3370, 5891.117
212.8191, 5813.694
213.3013, 5706.559
213.7834, 5612.585
214.2655, 5537.255
214.7476, 5465.941
215.2297, 5385.312
215.7118, 5288.259
216.1940, 5200.006
216.6761, 5128.918
217.1582, 5073.514
217.6403, 5007.559
218.1224, 4931.551
218.6045, 4845.429
219.0867, 4745.598
219.5688, 4622.677
220.0509, 4509.946
220.5330, 4417.438
221.0151, 4344.256
221.4972, 4276.801
221.9794, 4217.811
222.4615, 4160.844
222.9436, 4096.302
223.4257, 4015.158
223.9078, 3944.463
224.3899, 3892.758
224.8721, 3860.704
225.3542, 3829.922
225.8363, 3799.925
226.3184, 3771.401
226.8005, 3743.964
227.2827, 3715.013
227.7648, 3692.757
228.2469, 3681.470
228.7290, 3683.402
229.2111, 3677.194
229.6932, 3651.586
230.1754, 3627.019
230.6575, 3634.090
231.1396, 3696.675
231.6217, 3748.261
232.1038, 3766.186
232.5859, 3741.162
233.0681, 3733.144
233.5502, 3749.396
234.0323, 3777.366
234.5144, 3798.204
234.9965, 3803.437
235.4786, 3815.589
235.9608, 3841.157
236.4429, 3880.408
236.9250, 3931.195
237.4071, 4001.448
237.8892, 4077.967
238.3713, 4138.512
238.8535, 4172.270
239.3356, 4208.292
239.8177, 4258.378
240.2998, 4330.197
240.7819, 4385.756
241.2640, 4416.854
241.7462, 4437.355
242.2283, 4472.048
242.7104, 4528.722
243.1925, 4586.769
243.6746, 4638.982
244.1567, 4682.862
244.6389, 4730.209
245.1210, 4781.508
245.6031, 4835.832
246.0852, 4891.872
246.5673, 4952.397
247.0494, 5009.824
247.5316, 5059.692
248.0137, 5096.917
248.4958, 5144.421
248.9779, 5204.956
249.4600, 5274.039
249.9421, 5342.201
250.4243, 5409.698
250.9064, 5476.533
251.3885, 5540.685
251.8706, 5597.431
252.3527, 5669.911
252.8348, 5765.675
253.3170, 5872.240
253.7991, 5965.755
254.2812, 6042.414
254.7633, 6111.463
255.2454, 6176.459
255.7275, 6237.585
256.2097, 6291.534
256.6918, 6336.213
257.1739, 6374.556
257.6560, 6415.288
258.1381, 6468.020
258.6202, 6503.245
259.1024, 6507.001
259.5845, 6471.574
260.0666, 6436.316
260.5487, 6401.078
261.0308, 6366.195
261.5129, 6334.192
261.9951, 6313.760
262.4772, 6275.993
262.9593, 6207.835
263.4414, 6103.233
263.9235, 5993.819
264.4056, 5877.875
264.8878, 5757.372
265.3699, 5631.193
265.8520, 5494.391
266.3341, 5363.009
266.8162, 5243.256
267.2983, 5138.412
267.7805, 5029.495
268.2626, 4913.309
268.7447, 4797.621
269.2268, 4697.397
269.7089, 4616.276
270.1910, 4537.923
270.6732, 4454.508
271.1553, 4365.396
271.6374, 4280.323
272.1195, 4197.808
272.6016, 4121.339
273.0837, 4060.423
273.5659, 4016.611
274.0480, 3978.779
274.5301, 3942.364
275.0122, 3907.431
275.4943, 3877.197
275.9764, 3851.630
276.4586, 3830.820
276.9407, 3817.531
277.4228, 3813.302
277.9049, 3804.608
278.3870, 3781.456
278.8691, 3745.113
279.3513, 3726.737
279.8334, 3729.664
280.3155, 3741.988
280.7976, 3749.704
281.2798, 3752.749
281.7619, 3751.199
282.2440, 3743.759
282.7261, 3731.181
283.2082, 3717.694
283.6903, 3702.134
284.1725, 3689.954
284.6546, 3693.541
285.1367, 3711.920
285.6188, 3719.425
286.1009, 3696.871
286.5830, 3655.111
287.0652, 3644.988
287.5473, 3670.191
288.0294, 3705.496
288.5115, 3724.283
288.9936, 3728.100
289.4757, 3728.733
289.9579, 3725.098
290.4400, 3722.341
290.9221, 3737.374
291.4042, 3771.204
291.8863, 3810.257
292.3684, 3843.243
292.8506, 3870.417
293.3327, 3893.255
293.8148, 3910.459
294.2969, 3924.787
294.7790, 3941.876
295.2611, 3961.812
295.7433, 3982.936
296.2254, 4005.838
296.7075, 4029.360
297.1896, 4049.588
297.6717, 4066.469
298.1538, 4079.128
298.6360, 4085.937
299.1181, 4087.039
299.6002, 4083.455
300.0823, 4075.353
300.5644, 4063.169
301.0465, 4046.718
301.5287, 4021.491
302.0108, 3997.599
302.4929, 3992.464
302.9750, 4002.291
303.4571, 4005.621
303.9392, 3984.088
304.4214, 3948.543
304.9035, 3912.775
305.3856, 3880.787
305.8677, 3849.500
306.3498, 3818.431
306.8319, 3786.897
307.3141, 3751.682
307.7962, 3702.069
308.2783, 3652.484
308.7604, 3617.977
309.2425, 3607.416
309.7246, 3601.107
310.2068, 3588.025
310.6889, 3569.524
311.1710, 3549.034
311.6531, 3524.546
312.1352, 3500.906
312.6173, 3481.476
313.0995, 3466.613
313.5816, 3457.133
314.0637, 3458.314
314.5458, 3464.835
315.0279, 3466.691
315.5100, 3457.534
315.9922, 3444.598
316.4743, 3430.080
316.9564, 3412.528
317.4385, 3400.514
317.9206, 3402.339
318.4027, 3410.156
318.8849, 3413.000
319.3670, 3404.051
319.8491, 3393.041
320.3312, 3382.270
320.8133, 3371.204
321.2954, 3364.714
321.7776, 3367.617
322.2597, 3374.000
322.7418, 3377.562
323.2239, 3377.908
323.7060, 3374.844
324.1881, 3365.649
324.6703, 3349.288
325.1524, 3339.646
325.6345, 3343.697
326.1166, 3351.756
326.5987, 3356.132
327.0808, 3358.758
327.5630, 3355.229
328.0451, 3339.527
328.5272, 3312.791
329.0093, 3300.256
329.4914, 3310.932
329.9735, 3327.839
330.4557, 3340.060
330.9378, 3344.379
331.4199, 3349.766
331.9020, 3358.302
332.3841, 3368.700
332.8662, 3372.996
333.3484, 3362.878
333.8305, 3359.200
334.3126, 3377.106
334.7947, 3428.303
335.2768, 3462.717
335.7589, 3470.076
336.2411, 3463.545
336.7232, 3478.275
337.2053, 3520.123
337.6874, 3565.871
338.1695, 3604.208
338.6516, 3633.349
339.1338, 3667.535
339.6159, 3706.457
340.0980, 3750.890
340.5801, 3804.580
341.0622, 3869.828
341.5443, 3928.781
342.0265, 3970.186
342.5086, 3996.649
342.9907, 4035.823
343.4728, 4087.634
343.9549, 4151.209
344.4370, 4226.896
344.9192, 4313.651
345.4013, 4406.173
345.8834, 4501.606
346.3655, 4600.597
346.8476, 4701.102
347.3297, 4802.647
347.8119, 4907.191
348.2940, 5013.944
348.7761, 5124.387
349.2582, 5238.967
349.7403, 5354.039
350.2225, 5480.157
350.7046, 5635.411
351.1867, 5819.030
351.6688, 6014.362
352.1509, 6209.703
352.6331, 6409.452
353.1152, 6620.994
353.5973, 6848.663
354.0794, 7083.428
354.5615, 7314.587
355.0436, 7545.645
355.5258, 7787.263
356.0079, 8045.014
356.4900, 8316.052
356.9721, 8600.791
357.4542, 8903.550
357.9363, 9205.593
358.4185, 9496.542
358.9006, 9779.654
359.3827, 10060.56
359.8648, 10329.50
360.3469, 10606.28
360.8290, 10913.33
361.3112, 11262.23
361.7933, 11576.31
362.2754, 11818.67
362.7575, 12021.13
363.2396, 12219.08
363.7217, 12437.17
364.2039, 12632.08
364.6860, 12799.34
365.1681, 12939.18
365.6502, 13030.21
366.1323, 13073.33
366.6144, 13066.21
367.0966, 13006.63
367.5787, 12896.59
368.0608, 12732.50
368.5429, 12508.62
369.0250, 12227.42
369.5071, 11906.52
369.9893, 11524.15
370.4714, 11129.22
370.9535, 10742.15
371.4356, 10362.80
371.9177, 10001.73
372.3998, 9666.029
372.8820, 9343.756
373.3641, 9007.036
373.8462, 8640.868
374.3283, 8301.326
374.8104, 8018.708
375.2925, 7794.763
375.7747, 7578.892
376.2568, 7367.335
376.7389, 7167.636
377.2210, 6994.344
377.7031, 6848.636
378.1852, 6713.176
378.6674, 6581.985
379.1495, 6456.558
379.6316, 6337.753
380.1137, 6226.666
380.5958, 6121.288
381.0779, 6021.700
381.5601, 5926.683
382.0422, 5837.768
382.5243, 5753.629
383.0064, 5675.027
383.4885, 5605.658
383.9706, 5543.780
384.4528, 5481.424
384.9349, 5413.713
385.4170, 5341.299
385.8991, 5263.650
386.3812, 5179.593
386.8633, 5091.397
387.3455, 4993.370
387.8276, 4892.563
388.3097, 4803.508
388.7918, 4749.066
389.2739, 4700.447
389.7560, 4629.773
390.2382, 4532.467
390.7203, 4442.844
391.2024, 4383.515
391.6845, 4340.895
392.1666, 4298.629
392.6487, 4249.594
393.1309, 4201.979
393.6130, 4153.767
394.0951, 4106.405
394.5772, 4077.762
395.0593, 4091.842
395.5414, 4113.716
396.0236, 4121.424
396.5057, 4099.525
396.9878, 4078.056
397.4699, 4050.544
397.9520, 4024.275
398.4341, 4022.430
398.9163, 4065.330
399.3984, 4111.695
399.8805, 4147.889
400.3626, 4173.360
400.8447, 4188.673
401.3268, 4183.512
401.8090, 4175.813
402.2911, 4192.859
402.7732, 4243.090
403.2553, 4295.487
403.7374, 4341.257
404.2195, 4381.042
404.7017, 4427.822
405.1838, 4484.196
405.6659, 4541.090
406.1480, 4587.312
406.6301, 4622.767
407.1122, 4667.384
407.5944, 4727.194
408.0765, 4795.926
408.5586, 4854.538
409.0407, 4903.573
409.5228, 4960.014
410.0049, 5040.828
410.4871, 5137.189
410.9692, 5227.373
411.4513, 5310.520
411.9334, 5382.852
412.4155, 5431.870
412.8976, 5466.477
413.3798, 5510.234
413.8619, 5581.683
414.3440, 5663.996
414.8261, 5741.803
415.3082, 5814.991
415.7903, 5885.537
416.2725, 5950.799
416.7546, 6016.215
417.2367, 6089.533
417.7188, 6175.758
418.2009, 6265.570
418.6830, 6350.431
419.1652, 6434.161
419.6473, 6527.476
420.1294, 6628.934
420.6115, 6745.346
421.0937, 6885.703
421.5758, 7064.637
422.0579, 7232.544
422.5400, 7362.271
423.0221, 7481.671
423.5042, 7639.593
423.9864, 7858.141
424.4685, 8090.201
424.9506, 8332.540
425.4327, 8583.155
425.9148, 8827.795
426.3969, 9057.480
426.8791, 9291.261
427.3612, 9542.924
427.8433, 9813.842
428.3254, 10095.88
428.8075, 10386.51
429.2896, 10687.47
429.7718, 11002.97
430.2539, 11337.50
430.7360, 11665.76
431.2181, 11965.53
431.7002, 12238.97
432.1823, 12519.59
432.6645, 12811.40
433.1466, 13103.64
433.6287, 13383.06
434.1108, 13648.36
434.5929, 13894.07
435.0750, 14119.04
435.5572, 14319.94
436.0393, 14489.87
436.5214, 14629.09
437.0035, 14743.73
437.4856, 14840.60
437.9677, 14914.24
438.4499, 14953.91
438.9320, 14946.07
439.4141, 14922.04
439.8962, 14893.24
440.3783, 14864.64
440.8604, 14848.19
441.3426, 14836.33
441.8247, 14848.10
442.3068, 14902.94
442.7889, 15013.76
443.2710, 15114.98
443.7531, 15173.64
444.2353, 15219.65
444.7174, 15287.07
445.1995, 15404.24
445.6816, 15516.41
446.1637, 15618.74
446.6458, 15709.88
447.1280, 15784.61
447.6101, 15852.72
448.0922, 15893.66
448.5743, 15900.65
449.0564, 15887.97
449.5385, 15801.31
450.0207, 15633.39
450.5028, 15397.48
450.9849, 15111.08
451.4670, 14771.61
451.9491, 14407.74
452.4312, 14022.42
452.9134, 13620.13
453.3955, 13217.77
453.8776, 12814.42
454.3597, 12427.08
454.8418, 12082.38
455.3239, 11771.88
455.8061, 11474.60
456.2882, 11180.49
456.7703, 10899.48
457.2524, 10634.82
457.7345, 10391.87
458.2166, 10186.95
458.6988, 10036.69
459.1809, 9928.438
459.6630, 9856.957
460.1451, 9823.949
460.6272, 9804.749
461.1093, 9770.890
461.5915, 9745.635
462.0736, 9758.918
462.5557, 9842.817
463.0378, 9945.035
463.5199, 10039.05
464.0020, 10129.21
464.4842, 10254.34
464.9663, 10427.00
465.4484, 10632.54
465.9305, 10864.63
466.4126, 11131.94
466.8947, 11414.19
467.3769, 11705.05
467.8590, 12012.22
468.3411, 12354.64
468.8232, 12741.20
469.3053, 13143.01
469.7874, 13554.13
470.2696, 13975.18
470.7517, 14423.19
471.2338, 14904.83
471.7159, 15389.02
472.1980, 15841.16
472.6801, 16263.77
473.1623, 16683.60
473.6444, 17103.93
474.1265, 17530.37
474.6086, 17997.21
475.0907, 18492.04
475.5728, 18934.62
476.0550, 19259.22
476.5371, 19513.80
477.0192, 19789.36
477.5013, 20091.57
477.9834, 20326.42
478.4655, 20415.76
478.9477, 20395.87
479.4298, 20314.87
479.9119, 20202.76
480.3940, 20012.47
480.8761, 19717.72
481.3582, 19326.21
481.8404, 18861.88
482.3225, 18284.30
482.8046, 17675.58
483.2867, 17066.92
483.7688, 16463.55
484.2509, 15852.10
484.7331, 15197.78
485.2152, 14554.76
485.6973, 13961.46
486.1794, 13442.32
486.6615, 12928.70
487.1436, 12400.75
487.6258, 11867.93
488.1079, 11371.50
488.5900, 10913.51
489.0721, 10494.68
489.5542, 10123.32
490.0363, 9798.064
490.5185, 9484.051
491.0006, 9183.746
491.4827, 8892.364
491.9648, 8601.811
492.4470, 8315.442
492.9291, 8058.307
493.4112, 7854.522
493.8933, 7676.847
494.3754, 7488.436
494.8575, 7290.681
495.3397, 7103.710
495.8218, 6931.014
496.3039, 6777.643
496.7860, 6652.991
497.2681, 6560.044
497.7502, 6480.722
498.2324, 6408.829
498.7145, 6343.126
499.1966, 6280.537
499.6787, 6226.124
500.1608, 6169.437
500.6429, 6099.944
501.1251, 6019.686
501.6072, 5961.355
502.0893, 5946.571
502.5714, 5936.184
503.0535, 5909.646
503.5356, 5850.025
504.0178, 5815.336
504.4999, 5810.988
504.9820, 5827.139
505.4641, 5852.771
505.9462, 5890.865
506.4283, 5922.087
506.9105, 5938.192
507.3926, 5943.576
507.8747, 5955.013
508.3568, 5972.683
508.8389, 5994.333
509.3210, 6025.007
509.8032, 6058.651
510.2853, 6077.362
510.7674, 6076.947
511.2495, 6069.992
511.7316, 6064.928
512.2137, 6063.082
512.6959, 6067.146
513.1780, 6094.819
513.6601, 6114.993
514.1422, 6101.027
514.6243, 6057.583
515.1064, 6017.597
515.5886, 6002.413
516.0707, 5988.619
516.5528, 5962.313
517.0349, 5918.903
517.5170, 5868.488
517.9991, 5810.080
518.4813, 5746.220
518.9634, 5679.453
519.4455, 5604.782
519.9276, 5535.771
520.4097, 5474.842
520.8918, 5422.395
521.3740, 5376.110
521.8561, 5338.674
522.3382, 5298.502
522.8203, 5243.179
523.3024, 5174.716
523.7845, 5120.003
524.2667, 5080.794
524.7488, 5053.496
525.2309, 5031.192
525.7130, 5015.729
526.1951, 5014.282
526.6772, 5035.376
527.1594, 5065.837
527.6415, 5091.731
528.1236, 5113.658
528.6057, 5134.875
529.0878, 5154.465
529.5699, 5175.643
530.0521, 5200.041
530.5342, 5227.715
531.0163, 5260.306
531.4984, 5300.140
531.9805, 5344.699
532.4626, 5391.450
532.9448, 5454.501
533.4269, 5502.060
533.9090, 5525.941
534.3911, 5531.248
534.8732, 5539.824
535.3553, 5565.551
535.8375, 5568.456
536.3196, 5530.586
536.8017, 5450.519
537.2838, 5349.258
537.7659, 5223.577
538.2480, 5084.046
538.7302, 4936.330
539.2123, 4781.317
539.6944, 4633.750
540.1765, 4495.397
540.6586, 4368.266
541.1407, 4252.076
541.6229, 4146.678
542.1050, 4049.611
542.5871, 3960.427
543.0692, 3878.256
543.5513, 3804.479
544.0334, 3739.703
544.5156, 3677.959
544.9977, 3613.283
545.4798, 3552.334
545.9619, 3501.862
546.4440, 3476.510
546.9261, 3441.662
547.4083, 3379.038
547.8904, 3306.509
548.3725, 3258.174
548.8546, 3250.013
549.3367, 3239.048
549.8188, 3212.941
550.3010, 3173.533
550.7831, 3143.525
551.2652, 3125.437
551.7473, 3108.254
552.2294, 3082.631
552.7115, 3049.729
553.1937, 3023.158
553.6758, 3005.002
554.1579, 2989.003
554.6400, 2965.947
555.1221, 2938.514
555.6042, 2915.041
556.0864, 2901.869
556.5685, 2890.142
557.0506, 2866.817
557.5327, 2836.459
558.0148, 2816.529
558.4969, 2828.115
558.9791, 2843.269
559.4612, 2843.947
559.9433, 2825.458
560.4254, 2807.350
560.9075, 2791.022
561.3896, 2777.877
561.8718, 2768.871
562.3539, 2765.954
562.8360, 2764.157
563.3181, 2764.654
563.8002, 2765.351
564.2823, 2758.521
564.7645, 2740.714
565.2466, 2731.424
565.7287, 2741.593
566.2108, 2766.856
566.6929, 2785.943
567.1750, 2798.525
567.6572, 2808.893
568.1393, 2819.543
568.6214, 2830.537
569.1035, 2842.041
569.5856, 2854.628
570.0677, 2865.915
570.5499, 2869.459
571.0320, 2871.446
571.5141, 2881.650
571.9962, 2911.622
572.4783, 2942.542
572.9604, 2965.245
573.4426, 2981.533
573.9247, 3001.904
574.4068, 3029.828
574.8889, 3060.412
575.3710, 3091.903
575.8531, 3123.908
576.3353, 3157.578
576.8174, 3195.584
577.2995, 3230.812
577.7816, 3253.004
578.2637, 3259.751
578.7458, 3279.598
579.2280, 3319.259
579.7101, 3369.022
580.1922, 3414.429
580.6743, 3455.392
581.1564, 3491.420
581.6385, 3516.537
582.1207, 3539.729
582.6028, 3573.536
583.0849, 3616.629
583.5670, 3660.826
584.0491, 3705.541
584.5313, 3746.635
585.0134, 3780.161
585.4955, 3803.515
585.9776, 3825.675
586.4597, 3839.185
586.9418, 3856.735
587.4240, 3893.284
587.9061, 3965.264
588.3882, 4030.760
588.8703, 4082.216
589.3524, 4125.169
589.8345, 4175.795
590.3167, 4235.052
590.7988, 4298.729
591.2809, 4362.342
591.7630, 4427.933
592.2451, 4502.313
592.7272, 4585.348
593.2094, 4680.497
593.6915, 4789.234
594.1736, 4912.420
594.6557, 5056.607
595.1378, 5224.500
595.6199, 5394.222
596.1021, 5537.791
596.5842, 5675.099
597.0663, 5835.178
597.5485, 6039.312
598.0306, 6253.212
598.5127, 6470.214
598.9948, 6688.823
599.4769, 6906.256
599.9590, 7128.444
600.4412, 7345.427
600.9233, 7550.817
601.4054, 7744.750
601.8875, 7941.813
602.3696, 8144.048
602.8517, 8341.161
603.3339, 8516.142
603.8160, 8672.091
604.2981, 8835.984
604.7802, 9015.323
605.2623, 9182.010
605.7444, 9304.058
606.2266, 9383.483
606.7087, 9420.554
607.1908, 9410.273
607.6729, 9365.177
608.1550, 9294.894
608.6371, 9198.283
609.1193, 9069.221
609.6014, 8905.177
610.0835, 8708.278
610.5656, 8473.864
611.0477, 8195.773
611.5298, 7926.496
612.0120, 7670.283
612.4941, 7423.320
612.9762, 7187.122
613.4583, 6966.201
613.9404, 6740.189
614.4225, 6503.583
614.9047, 6272.143
615.3868, 6068.416
615.8689, 5889.127
616.3510, 5714.439
616.8331, 5540.297
617.3152, 5365.811
617.7974, 5179.904
618.2795, 4989.702
618.7616, 4813.080
619.2437, 4663.502
619.7258, 4529.622
620.2079, 4404.516
620.6901, 4288.193
621.1722, 4172.729
621.6543, 4051.416
622.1364, 3932.376
622.6185, 3822.288
623.1006, 3722.058
623.5828, 3627.669
624.0649, 3540.898
624.5470, 3458.344
625.0291, 3375.565
625.5112, 3291.756
625.9933, 3211.410
626.4755, 3135.307
626.9576, 3064.423
627.4397, 3001.546
627.9218, 2946.496
628.4039, 2897.887
628.8860, 2860.780
629.3682, 2826.542
629.8503, 2782.602
630.3324, 2730.023
630.8145, 2678.189
631.2966, 2631.568
631.7787, 2588.956
632.2609, 2548.720
632.7430, 2509.045
633.2251, 2478.061
633.7072, 2468.245
634.1893, 2461.445
634.6714, 2441.354
635.1536, 2396.896
635.6357, 2364.616
636.1178, 2352.296
636.5999, 2348.270
637.0820, 2329.804
637.5641, 2296.299
638.0463, 2264.433
638.5284, 2237.904
639.0105, 2217.538
639.4926, 2209.003
639.9747, 2209.779
640.4568, 2205.607
640.9390, 2177.393
641.4211, 2146.953
641.9032, 2139.007
642.3853, 2155.243
642.8674, 2164.757
643.3495, 2150.744
643.8317, 2128.678
644.3138, 2108.565
644.7959, 2089.789
645.2780, 2077.232
645.7601, 2076.299
646.2422, 2076.889
646.7244, 2064.342
647.2065, 2034.321
647.6886, 2014.699
648.1707, 2012.251
648.6528, 2020.160
649.1349, 2028.557
649.6171, 2036.497
650.0992, 2037.700
650.5813, 2022.073
651.0634, 2002.557
651.5455, 1997.830
652.0276, 2004.912
652.5098, 2008.028
652.9919, 1997.234
653.4740, 1981.039
653.9561, 1962.306
654.4382, 1939.559
654.9203, 1925.569
655.4025, 1930.148
655.8846, 1937.181
656.3667, 1935.193
656.8488, 1919.197
657.3309, 1909.766
657.8130, 1909.435
658.2952, 1912.364
658.7773, 1909.061
659.2594, 1900.307
659.7415, 1896.472
660.2236, 1902.561
660.7057, 1910.959
661.1879, 1912.096
661.6700, 1906.735
662.1521, 1896.907
662.6342, 1871.529
663.1163, 1852.432
663.5984, 1862.079
664.0806, 1895.651
664.5627, 1912.568
665.0448, 1883.641
665.5269, 1853.277
666.0090, 1841.003
666.4911, 1849.621
666.9733, 1856.265
667.4554, 1860.336
667.9375, 1863.622
668.4196, 1867.355
668.9017, 1871.562
669.3839, 1877.537
669.8660, 1886.331
670.3481, 1892.432
670.8302, 1885.805
671.3123, 1871.901
671.7944, 1862.628
672.2766, 1863.366
672.7587, 1867.062
673.2408, 1871.766
673.7229, 1875.806
674.2050, 1876.011
674.6871, 1861.657
675.1693, 1854.128
675.6514, 1865.065
676.1335, 1889.304
676.6156, 1899.040
677.0977, 1889.134
677.5798, 1876.297
678.0620, 1866.733
678.5441, 1860.369
679.0262, 1858.218
679.5083, 1860.498
679.9904, 1863.133
680.4725, 1861.943
680.9547, 1859.154
681.4368, 1859.417
681.9189, 1863.690
682.4010, 1866.876
682.8831, 1865.839
683.3652, 1861.806
683.8474, 1855.704
684.3295, 1843.942
684.8116, 1836.160
685.2937, 1835.715
685.7758, 1839.116
686.2579, 1842.313
686.7401, 1845.690
687.2222, 1847.593
687.7043, 1847.033
688.1864, 1845.461
688.6685, 1845.739
689.1506, 1847.928
689.6328, 1853.111
690.1149, 1864.223
690.5970, 1877.078
691.0791, 1886.093
691.5612, 1891.446
692.0433, 1893.893
692.5255, 1891.130
693.0076, 1887.869
693.4897, 1885.546
693.9718, 1883.859
694.4539, 1889.366
694.9360, 1910.087
695.4182, 1931.526
695.9003, 1946.236
696.3824, 1952.696
696.8645, 1957.163
697.3466, 1958.467
697.8287, 1960.851
698.3109, 1970.087
698.7930, 1984.863
699.2751, 1998.862
699.7572, 2011.495
700.2393, 2020.807
700.7214, 2019.218
701.2036, 2013.998
701.6857, 2017.389
702.1678, 2041.164
702.6499, 2065.628
703.1320, 2084.027
703.6141, 2097.716
704.0963, 2110.338
704.5784, 2125.450
705.0605, 2135.026
705.5426, 2137.630
706.0247, 2133.344
706.5068, 2119.775
706.9890, 2095.203
707.4711, 2075.178
707.9532, 2069.535
708.4353, 2074.023
708.9174, 2080.972
709.3995, 2089.692
709.8817, 2092.900
710.3638, 2078.944
710.8459, 2061.539
711.3280, 2054.649
711.8101, 2061.250
712.2922, 2063.667
712.7744, 2049.121
713.2565, 2034.547
713.7386, 2032.436
714.2207, 2052.479
714.7028, 2057.943
715.1849, 2041.887
715.6671, 2023.415
716.1492, 2026.882
716.6313, 2050.114
717.1134, 2067.009
717.5955, 2072.098
718.0776, 2072.575
718.5598, 2076.494
719.0419, 2082.195
719.5240, 2086.413
720.0061, 2086.714
720.4882, 2086.870
720.9703, 2085.089
721.4525, 2084.661
721.9346, 2093.090
722.4167, 2118.001
722.8988, 2143.985
723.3809, 2172.602
723.8630, 2199.765
724.3452, 2204.018
724.8273, 2181.205
725.3094, 2165.267
725.7915, 2175.012
726.2736, 2202.088
726.7557, 2225.047
727.2379, 2244.788
727.7200, 2268.401
728.2021, 2309.096
728.6842, 2349.379
729.1663, 2372.956
729.6484, 2377.868
730.1306, 2384.030
730.6127, 2395.916
731.0948, 2411.708
731.5769, 2430.430
732.0590, 2452.639
732.5411, 2476.375
733.0233, 2501.953
733.5054, 2528.353
733.9875, 2553.534
734.4696, 2578.286
734.9517, 2607.593
735.4338, 2642.335
735.9160, 2680.535
736.3981, 2728.668
736.8802, 2776.295
737.3623, 2805.797
737.8444, 2799.421
738.3266, 2799.913
738.8087, 2830.292
739.2908, 2875.185
739.7729, 2911.517
740.2551, 2930.879
740.7372, 2956.502
741.2193, 2996.149
741.7014, 3039.156
742.1835, 3059.145
742.6656, 3055.729
743.1478, 3058.546
743.6299, 3082.640
744.1120, 3111.259
744.5941, 3114.210
745.0762, 3098.734
745.5583, 3087.421
746.0405, 3095.530
746.5226, 3107.129
747.0047, 3117.395
747.4868, 3124.845
747.9689, 3121.720
748.4510, 3098.207
748.9332, 3075.968
749.4153, 3064.238
749.8974, 3061.221
750.3795, 3044.504
750.8616, 3013.234
751.3438, 2975.827
751.8259, 2929.475
752.3080, 2882.706
752.7901, 2861.206
753.2722, 2864.024
753.7543, 2860.691
754.2365, 2823.542
754.7186, 2776.893
755.2007, 2740.502
755.6828, 2717.890
756.1649, 2696.191
756.6470, 2673.397
757.1292, 2650.479
757.6113, 2627.273
758.0934, 2602.576
758.5755, 2583.603
759.0576, 2571.059
759.5397, 2561.318
760.0219, 2550.916
760.5040, 2540.118
760.9861, 2529.865
761.4682, 2520.260
761.9503, 2511.975
762.4324, 2508.283
762.9146, 2504.980
763.3967, 2497.052
763.8788, 2481.748
764.3609, 2464.246
764.8430, 2441.192
765.3251, 2418.865
765.8073, 2404.126
766.2894, 2397.733
766.7715, 2396.419
767.2536, 2400.638
767.7357, 2408.160
768.2178, 2417.185
768.7000, 2426.737
769.1821, 2431.908
769.6642, 2427.360
770.1463, 2424.082
770.6284, 2432.496
771.1105, 2448.883
771.5927, 2466.048
772.0748, 2487.840
772.5569, 2502.977
773.0390, 2504.553
773.5211, 2498.526
774.0032, 2499.846
774.4854, 2509.941
774.9675, 2521.855
775.4496, 2532.719
775.9317, 2544.765
776.4138, 2564.476
776.8959, 2590.811
777.3781, 2619.047
777.8602, 2648.921
778.3423, 2677.794
778.8244, 2703.686
779.3065, 2726.906
779.7886, 2748.870
780.2708, 2767.078
780.7529, 2787.196
781.2350, 2810.540
781.7171, 2837.273
782.1992, 2869.798
782.6813, 2908.964
783.1635, 2949.395
783.6456, 2989.120
784.1277, 3027.694
784.6098, 3062.620
785.0919, 3094.621
785.5740, 3131.874
786.0562, 3184.914
786.5383, 3242.184
787.0204, 3290.648
787.5025, 3330.136
787.9846, 3379.490
788.4667, 3449.377
788.9489, 3524.438
789.4310, 3602.181
789.9131, 3682.917
790.3952, 3746.615
790.8773, 3789.819
791.3594, 3829.729
791.8416, 3878.875
792.3237, 3934.142
792.8058, 3986.150
793.2879, 4034.962
793.7700, 4086.599
794.2521, 4148.869
794.7343, 4213.510
795.2164, 4275.142
795.6985, 4336.302
796.1806, 4381.547
796.6627, 4399.486
797.1448, 4413.401
797.6270, 4440.920
798.1091, 4486.090
798.5912, 4508.784
799.0733, 4505.617
799.5554, 4497.908
800.0375, 4513.818
800.5197, 4538.055
801.0018, 4540.682
801.4839, 4516.528
801.9660, 4479.544
802.4481, 4424.257
802.9302, 4368.450
803.4124, 4329.335
803.8945, 4326.284
804.3766, 4300.149
804.8587, 4240.717
805.3408, 4171.700
805.8229, 4115.872
806.3051, 4073.107
806.7872, 4024.079
807.2693, 3967.115
807.7514, 3902.775
808.2335, 3819.583
808.7156, 3732.796
809.1978, 3668.265
809.6799, 3638.267
810.1620, 3607.253
810.6441, 3559.697
811.1262, 3504.349
811.6083, 3450.223
812.0905, 3398.061
812.5726, 3345.202
813.0547, 3291.606
813.5368, 3238.322
814.0189, 3186.121
814.5010, 3135.317
814.9832, 3086.075
815.4653, 3037.299
815.9474, 2997.259
816.4295, 2982.891
816.9116, 2977.447
817.3937, 2959.510
817.8759, 2918.126
818.3580, 2875.665
818.8401, 2834.117
819.3222, 2795.547
819.8043, 2761.672
820.2864, 2732.611
820.7686, 2708.103
821.2507, 2689.023
821.7328, 2672.415
822.2149, 2655.571
822.6970, 2638.443
823.1791, 2620.407
823.6613, 2601.155
824.1434, 2582.132
824.6255, 2568.036
825.1076, 2553.158
825.5897, 2531.373
826.0718, 2481.252
826.5540, 2454.940
827.0361, 2462.504
827.5182, 2481.922
828.0003, 2487.086
828.4824, 2478.124
828.9645, 2469.457
829.4467, 2463.566
829.9288, 2456.881
830.4109, 2444.668
830.8930, 2429.236
831.3751, 2412.831
831.8572, 2391.957
832.3394, 2379.962
832.8215, 2387.803
833.3036, 2403.586
833.7857, 2414.648
834.2678, 2421.917
834.7499, 2419.999
835.2321, 2405.476
835.7142, 2388.858
836.1963, 2386.941
836.6784, 2394.567
837.1605, 2390.871
837.6426, 2369.244
838.1248, 2348.291
838.6069, 2340.222
839.0890, 2341.811
839.5711, 2350.517
840.0532, 2374.578
840.5353, 2389.253
841.0175, 2389.403
841.4996, 2383.803
841.9817, 2379.203
842.4638, 2375.261
842.9459, 2382.304
843.4280, 2403.433
843.9102, 2424.459
844.3923, 2428.369
844.8744, 2422.194
845.3565, 2416.413
845.8386, 2412.365
846.3207, 2411.567
846.8029, 2418.490
847.2850, 2426.460
847.7671, 2428.914
848.2492, 2420.750
848.7313, 2421.159
849.2134, 2431.636
849.6956, 2446.902
850.1777, 2462.393
850.6598, 2478.396
851.1419, 2495.948
851.6240, 2515.278
852.1061, 2535.799
852.5883, 2560.290
853.0704, 2584.013
853.5525, 2601.222
854.0346, 2605.351
854.5167, 2621.409
854.9988, 2657.738
855.4810, 2696.862
855.9631, 2723.375
856.4452, 2736.990
856.9273, 2771.659
857.4094, 2829.780
857.8915, 2885.169
858.3737, 2907.223
858.8558, 2916.109
859.3379, 2936.155
859.8200, 2970.282
860.3021, 3012.297
860.7842, 3064.738
861.2664, 3119.642
861.7485, 3172.740
862.2306, 3224.885
862.7127, 3269.142
863.1948, 3303.881
863.6769, 3339.466
864.1591, 3387.824
864.6412, 3441.779
865.1233, 3482.310
865.6054, 3510.506
866.0875, 3543.687
866.5696, 3597.033
867.0518, 3655.249
867.5339, 3709.595
868.0160, 3759.842
868.4981, 3807.655
868.9802, 3853.831
869.4623, 3896.065
869.9445, 3930.128
870.4266, 3959.211
870.9087, 4000.029
871.3908, 4051.944
871.8729, 4102.491
872.3550, 4151.401
872.8372, 4190.582
873.3193, 4211.130
873.8014, 4215.057
874.2835, 4213.303
874.7656, 4209.945
875.2477, 4198.467
875.7299, 4174.367
876.2120, 4141.486
876.6941, 4117.062
877.1762, 4101.179
877.6583, 4074.799
878.1404, 4026.794
878.6226, 3967.207
879.1047, 3906.146
879.5869, 3844.432
880.0690, 3782.692
880.5511, 3718.793
881.0332, 3657.607
881.5153, 3590.471
881.9974, 3530.141
882.4796, 3512.695
882.9617, 3551.835
883.4438, 3550.416
883.9259, 3471.558
884.4080, 3370.865
884.8901, 3341.654
885.3723, 3359.633
885.8544, 3368.312
886.3365, 3346.014
886.8186, 3314.318
887.3007, 3271.726
887.7828, 3230.137
888.2650, 3206.684
888.7471, 3208.737
889.2292, 3210.421
889.7113, 3210.436
890.1934, 3207.792
890.6755, 3202.351
891.1577, 3193.232
891.6398, 3174.927
892.1219, 3143.993
892.6040, 3117.407
893.0861, 3116.821
893.5682, 3120.710
894.0504, 3107.756
894.5325, 3066.637
895.0146, 3029.777
895.4967, 2997.981
895.9788, 2969.047
896.4609, 2939.701
896.9431, 2911.241
897.4252, 2896.530
897.9073, 2896.455
898.3894, 2891.961
898.8715, 2861.076
899.3536, 2824.706
899.8358, 2801.196
900.3179, 2793.620
900.8000, 2784.172
901.2821, 2769.761
901.7642, 2755.182
902.2463, 2743.247
902.7285, 2733.291
903.2106, 2716.557
903.6927, 2693.488
904.1748, 2673.922
904.6569, 2670.425
905.1390, 2668.250
905.6212, 2647.309
906.1033, 2613.192
906.5854, 2589.905
907.0675, 2593.194
907.5496, 2597.813
908.0317, 2597.348
908.5139, 2594.244
908.9960, 2598.112
909.4781, 2608.978
909.9602, 2612.676
910.4423, 2599.002
910.9244, 2584.275
911.4066, 2593.643
911.8887, 2615.286
912.3708, 2627.548
912.8529, 2607.436
913.3350, 2597.783
913.8171, 2615.148
914.2993, 2639.979
914.7814, 2643.322
915.2635, 2622.792
915.7456, 2611.657
916.2277, 2614.165
916.7098, 2628.946
917.1920, 2659.385
917.6741, 2698.973
918.1562, 2741.427
918.6383, 2790.664
919.1204, 2821.981
919.6025, 2806.231
920.0847, 2787.497
920.5668, 2797.163
921.0489, 2840.730
921.5310, 2871.825
922.0131, 2888.446
922.4952, 2908.199
922.9774, 2954.077
923.4595, 3007.792
923.9416, 3039.563
924.4237, 3048.941
924.9058, 3059.256
925.3879, 3079.227
925.8701, 3103.020
926.3522, 3127.907
926.8343, 3154.314
927.3164, 3186.923
927.7985, 3227.214
928.2806, 3261.264
928.7628, 3278.498
929.2449, 3289.340
929.7270, 3309.433
930.2091, 3336.732
930.6912, 3366.299
931.1733, 3397.210
931.6555, 3428.547
932.1376, 3463.360
932.6197, 3496.771
933.1018, 3518.051
933.5839, 3524.908
934.0660, 3539.493
934.5482, 3568.299
935.0303, 3598.706
935.5124, 3616.737
935.9945, 3624.620
936.4766, 3624.359
936.9587, 3610.884
937.4409, 3605.106
937.9230, 3614.361
938.4051, 3633.844
938.8872, 3661.784
939.3693, 3701.074
939.8514, 3733.036
940.3336, 3756.906
940.8157, 3776.738
941.2978, 3791.145
941.7799, 3806.168
942.2620, 3830.433
942.7441, 3864.249
943.2263, 3904.758
943.7084, 3960.107
944.1905, 4011.125
944.6726, 4048.671
945.1547, 4075.132
945.6368, 4100.822
946.1190, 4124.855
946.6011, 4168.292
947.0832, 4252.664
947.5653, 4348.295
948.0474, 4412.275
948.5295, 4457.372
949.0117, 4513.289
949.4938, 4594.104
949.9759, 4682.624
950.4580, 4778.897
950.9401, 4878.477
951.4222, 4971.620
951.9044, 5058.448
952.3865, 5153.551
952.8686, 5259.770
953.3507, 5372.180
953.8328, 5483.958
954.3149, 5599.550
954.7971, 5724.622
955.2792, 5856.728
955.7613, 6003.787
956.2434, 6177.136
956.7255, 6352.796
957.2076, 6515.746
957.6898, 6667.053
958.1719, 6820.114
958.6540, 6976.187
959.1361, 7137.250
959.6182, 7305.114
960.1003, 7480.247
960.5825, 7661.956
961.0646, 7851.967
961.5467, 8061.991
962.0288, 8318.177
962.5109, 8555.501
962.9930, 8750.432
963.4752, 8918.702
963.9573, 9091.612
964.4394, 9267.852
964.9215, 9450.661
965.4036, 9650.622
965.8857, 9838.887
966.3679, 9996.666
966.8500, 10127.09
967.3321, 10235.02
967.8142, 10315.70
968.2963, 10383.75
968.7784, 10442.29
969.2606, 10480.88
969.7427, 10492.63
970.2248, 10475.16
970.7069, 10415.40
971.1890, 10313.04
971.6711, 10189.52
972.1533, 10053.42
972.6354, 9906.620
973.1175, 9749.080
973.5996, 9581.118
974.0817, 9417.446
974.5638, 9266.251
975.0460, 9088.848
975.5281, 8852.613
976.0102, 8592.791
976.4923, 8378.862
976.9744, 8203.150
977.4565, 8043.104
977.9387, 7898.292
978.4208, 7756.461
978.9029, 7616.839
979.3850, 7476.600
979.8671, 7324.456
980.3492, 7153.268
980.8314, 7020.472
981.3135, 6936.506
981.7956, 6871.209
982.2777, 6792.263
982.7598, 6708.988
983.2419, 6631.670
983.7241, 6560.373
984.2062, 6508.026
984.6883, 6476.169
985.1704, 6468.973
985.6525, 6498.212
986.1346, 6558.221
986.6168, 6583.672
987.0989, 6575.702
987.5810, 6569.974
988.0631, 6577.538
988.5452, 6604.769
989.0273, 6671.961
989.5095, 6762.972
989.9916, 6835.409
990.4737, 6856.999
990.9558, 6899.087
991.4379, 6975.746
991.9200, 7067.162
992.4022, 7142.191
992.8843, 7204.218
993.3664, 7272.420
993.8485, 7351.145
994.3306, 7426.568
994.8127, 7492.895
995.2949, 7549.149
995.7770, 7595.711
996.2591, 7635.355
996.7412, 7648.029
997.2233, 7631.733
997.7054, 7595.443
998.1876, 7536.652
998.6697, 7464.935
999.1518, 7409.544
999.6339, 7361.454
1000.116, 7284.462
1000.598, 7157.274
1001.080, 7002.499
1001.562, 6803.341
1002.044, 6592.205
1002.527, 6434.817
1003.009, 6339.165
1003.491, 6192.535
1003.973, 5968.623
1004.455, 5726.715
1004.937, 5530.964
1005.419, 5360.315
1005.901, 5191.508
1006.384, 5019.577
1006.866, 4854.903
1007.348, 4695.676
1007.830, 4549.042
1008.312, 4421.403
1008.794, 4310.600
1009.276, 4199.839
1009.758, 4090.262
1010.240, 3987.510
1010.723, 3892.406
1011.205, 3807.608
1011.687, 3742.145
1012.169, 3687.828
1012.651, 3621.188
1013.133, 3532.587
1013.615, 3457.857
1014.097, 3404.569
1014.580, 3360.450
1015.062, 3308.540
1015.544, 3254.207
1016.026, 3209.089
1016.508, 3177.635
1016.990, 3143.177
1017.472, 3089.507
1017.954, 3040.234
1018.436, 3011.664
1018.919, 3002.582
1019.401, 2978.877
1019.883, 2940.507
1020.365, 2903.565
1020.847, 2876.802
1021.329, 2856.332
1021.811, 2843.255
1022.293, 2833.179
1022.776, 2814.551
1023.258, 2772.378
1023.740, 2743.972
1024.222, 2737.609
1024.704, 2738.344
1025.186, 2723.555
1025.668, 2698.540
1026.150, 2681.073
1026.632, 2673.485
1027.115, 2674.082
1027.597, 2691.582
1028.079, 2708.681
1028.561, 2713.822
1029.043, 2707.393
1029.525, 2692.877
1030.007, 2668.317
1030.489, 2653.629
1030.972, 2658.651
1031.454, 2677.977
1031.936, 2718.972
1032.418, 2766.702
1032.900, 2788.727
1033.382, 2748.812
1033.864, 2718.471
1034.346, 2703.101
1034.828, 2701.966
1035.311, 2717.905
1035.793, 2748.762
1036.275, 2780.941
1036.757, 2813.622
1037.239, 2842.790
1037.721, 2862.663
1038.203, 2880.654
1038.685, 2898.552
1039.167, 2917.807
1039.650, 2950.913
1040.132, 3000.813
1040.614, 3050.216
1041.096, 3090.272
1041.578, 3130.236
1042.060, 3185.530
1042.542, 3250.228
1043.024, 3314.192
1043.507, 3373.624
1043.989, 3432.340
1044.471, 3489.616
1044.953, 3548.968
1045.435, 3616.574
1045.917, 3690.959
1046.399, 3755.113
1046.881, 3808.832
1047.364, 3860.265
1047.846, 3905.236
1048.328, 3958.747
1048.810, 4042.736
1049.292, 4145.708
1049.774, 4218.366
1050.256, 4253.256
1050.738, 4281.322
1051.220, 4305.755
1051.703, 4333.636
1052.185, 4387.226
1052.667, 4446.354
1053.149, 4474.437
1053.631, 4459.262
1054.113, 4436.757
1054.595, 4409.782
1055.077, 4385.502
1055.559, 4370.941
1056.042, 4362.960
1056.524, 4337.546
1057.006, 4296.117
1057.488, 4250.274
1057.970, 4209.011
1058.452, 4162.529
1058.934, 4100.169
1059.416, 4028.916
1059.899, 3962.851
1060.381, 3902.587
1060.863, 3844.993
1061.345, 3789.224
1061.827, 3737.991
1062.309, 3692.870
1062.791, 3653.716
1063.273, 3623.414
1063.755, 3601.529
1064.238, 3576.130
1064.720, 3541.845
1065.202, 3504.473
1065.684, 3459.701
1066.166, 3417.617
1066.648, 3413.146
1067.130, 3439.324
1067.612, 3464.055
1068.094, 3477.903
1068.577, 3486.184
1069.059, 3478.175
1069.541, 3476.037
1070.023, 3501.597
1070.505, 3559.229
1070.987, 3619.541
1071.469, 3682.429
1071.951, 3755.717
1072.434, 3843.075
1072.916, 3945.887
1073.398, 4071.129
1073.880, 4215.286
1074.362, 4364.333
1074.844, 4514.981
1075.326, 4676.018
1075.808, 4852.909
1076.291, 5036.091
1076.773, 5213.786
1077.255, 5388.142
1077.737, 5561.490
1078.219, 5732.229
1078.701, 5900.612
1079.183, 6067.829
1079.665, 6228.188
1080.147, 6385.017
1080.630, 6534.581
1081.112, 6659.132
1081.594, 6758.849
1082.076, 6840.819
1082.558, 6914.099
1083.040, 6958.316
1083.522, 6956.359
1084.004, 6913.767
1084.486, 6834.782
1084.969, 6712.787
1085.451, 6576.655
1085.933, 6428.053
1086.415, 6263.667
1086.897, 6078.533
1087.379, 5877.594
1087.861, 5668.438
1088.343, 5451.158
1088.826, 5224.361
1089.308, 4959.786
1089.790, 4728.543
1090.272, 4549.344
1090.754, 4400.834
1091.236, 4253.291
1091.718, 4107.495
1092.200, 3964.417
1092.682, 3824.704
1093.165, 3698.089
1093.647, 3596.596
1094.129, 3505.668
1094.611, 3415.651
1095.093, 3326.674
1095.575, 3240.931
1096.057, 3158.235
1096.539, 3083.440
1097.022, 3021.517
1097.504, 2965.206
1097.986, 2909.245
1098.468, 2853.687
1098.950, 2798.778
1099.432, 2740.924
1099.914, 2692.671
1100.396, 2655.943
1100.879, 2625.244
1101.361, 2599.246
1101.843, 2575.719
1102.325, 2550.406
1102.807, 2523.205
1103.289, 2494.522
1103.771, 2460.475
1104.253, 2430.042
1104.735, 2404.294
1105.218, 2382.349
1105.700, 2367.666
1106.182, 2356.618
1106.664, 2327.144
1107.146, 2276.092
1107.628, 2235.738
1108.110, 2240.017
1108.592, 2245.743
1109.074, 2223.168
1109.557, 2182.132
1110.039, 2166.651
1110.521, 2176.999
1111.003, 2181.452
1111.485, 2168.989
1111.967, 2153.161
1112.449, 2148.829
1112.931, 2147.131
1113.414, 2138.537
1113.896, 2121.815
1114.378, 2097.581
1114.860, 2063.268
1115.342, 2032.662
1115.824, 2014.173
1116.306, 2003.534
1116.788, 1998.061
1117.271, 1994.644
1117.753, 1986.211
1118.235, 1961.843
1118.717, 1945.933
1119.199, 1942.103
1119.681, 1942.638
1120.163, 1943.469
1120.645, 1942.002
1121.127, 1928.927
1121.609, 1904.734
1122.092, 1878.640
1122.574, 1846.629
1123.056, 1825.217
1123.538, 1825.910
1124.020, 1834.754
1124.502, 1820.052
1124.984, 1785.454
1125.466, 1764.479
1125.949, 1765.357
1126.431, 1763.500
1126.913, 1733.291
1127.395, 1701.340
1127.877, 1690.076
1128.359, 1696.269
1128.841, 1691.748
1129.323, 1675.798
1129.806, 1662.099
1130.288, 1658.308
1130.770, 1653.067
1131.252, 1629.913
1131.734, 1600.668
1132.216, 1581.748
1132.698, 1578.171
1133.180, 1572.513
1133.662, 1564.400
1134.145, 1555.898
1134.627, 1546.780
1135.109, 1539.013
1135.591, 1538.224
1136.073, 1541.244
1136.555, 1540.072
1137.037, 1528.461
1137.519, 1518.449
1138.001, 1511.580
1138.484, 1504.716
1138.966, 1493.645
1139.448, 1480.388
1139.930, 1469.545
1140.412, 1461.357
1140.894, 1456.320
1141.376, 1457.894
1141.858, 1458.193
1142.341, 1454.214
1142.823, 1448.850
1143.305, 1448.391
1143.787, 1451.395
1144.269, 1450.853
1144.751, 1445.256
1145.233, 1439.938
1145.715, 1440.809
1146.198, 1439.532
1146.680, 1429.214
1147.162, 1413.302
1147.644, 1410.348
1148.126, 1419.285
1148.608, 1424.948
1149.090, 1419.986
1149.572, 1417.442
1150.054, 1432.684
1150.536, 1451.090
1151.019, 1458.007
1151.501, 1452.265
1151.983, 1449.838
1152.465, 1451.026
1152.947, 1447.847
1153.429, 1431.509
1153.911, 1413.935
1154.393, 1404.030
1154.876, 1401.697
1155.358, 1408.768
1155.840, 1431.723
1156.322, 1440.716
1156.804, 1432.635
1157.286, 1424.723
1157.768, 1434.155
1158.250, 1449.441
1158.733, 1457.805
1159.215, 1459.425
1159.697, 1456.029
1160.179, 1440.828
1160.661, 1437.717
1161.143, 1452.591
1161.625, 1471.225
1162.107, 1477.466
1162.589, 1476.262
1163.072, 1474.942
1163.554, 1474.223
1164.036, 1474.177
1164.518, 1475.887
1165.000, 1475.914
1165.482, 1471.553
1165.964, 1468.151
1166.446, 1478.274
1166.928, 1496.196
1167.411, 1509.238
1167.893, 1514.652
1168.375, 1518.186
1168.857, 1517.677
1169.339, 1521.341
1169.821, 1535.162
1170.303, 1553.276
1170.785, 1557.159
1171.268, 1550.564
1171.750, 1545.730
1172.232, 1546.332
1172.714, 1549.638
1173.196, 1557.043
1173.678, 1564.550
1174.160, 1569.850
1174.642, 1573.117
1175.125, 1574.871
1175.607, 1575.188
1176.089, 1574.428
1176.571, 1574.223
1177.053, 1571.031
1177.535, 1557.863
1178.017, 1545.147
1178.499, 1543.633
1178.981, 1553.158
1179.464, 1560.178
1179.946, 1564.650
1180.428, 1568.518
1180.910, 1576.599
1181.392, 1580.497
1181.874, 1571.360
1182.356, 1557.328
1182.838, 1551.427
1183.320, 1553.971
1183.803, 1552.632
1184.285, 1546.251
1184.767, 1542.943
1185.249, 1556.218
1185.731, 1567.587
1186.213, 1560.665
1186.695, 1542.002
1187.177, 1530.729
1187.660, 1527.401
1188.142, 1521.427
1188.624, 1510.124
1189.106, 1504.296
1189.588, 1522.656
1190.070, 1542.896
1190.552, 1544.020
1191.034, 1528.539
1191.516, 1520.594
1191.999, 1520.990
1192.481, 1520.738
1192.963, 1517.099
1193.445, 1513.727
1193.927, 1515.400
1194.409, 1518.423
1194.891, 1517.845
1195.373, 1513.253
1195.855, 1516.930
1196.338, 1530.559
1196.820, 1537.210
1197.302, 1526.649
1197.784, 1513.948
1198.266, 1520.252
1198.748, 1531.767
1199.230, 1529.765
1199.712, 1510.113
1200.195, 1491.925
1200.677, 1474.406
1201.159, 1463.969
1201.641, 1464.864
1202.123, 1473.638
1202.605, 1493.591
1203.087, 1516.098
1203.569, 1526.780
1204.052, 1520.935
1204.534, 1513.522
1205.016, 1504.144
1205.498, 1495.224
1205.980, 1487.341
1206.462, 1481.568
1206.944, 1481.377
1207.426, 1483.841
1207.908, 1481.487
1208.391, 1469.266
1208.873, 1466.100
1209.355, 1474.271
1209.837, 1483.305
1210.319, 1483.757
1210.801, 1480.612
1211.283, 1479.255
1211.765, 1479.168
1212.247, 1477.723
1212.730, 1473.868
1213.212, 1471.649
1213.694, 1471.778
1214.176, 1472.177
1214.658, 1471.015
1215.140, 1468.857
1215.622, 1465.072
1216.104, 1460.535
1216.587, 1460.520
1217.069, 1467.300
1217.551, 1471.305
1218.033, 1470.792
1218.515, 1468.022
1218.997, 1464.673
1219.479, 1461.026
1219.961, 1456.615
1220.443, 1451.794
1220.926, 1450.375
1221.408, 1453.240
1221.890, 1457.295
1222.372, 1463.246
1222.854, 1465.132
1223.336, 1448.286
1223.818, 1428.154
1224.300, 1425.298
1224.782, 1442.800
1225.265, 1449.896
1225.747, 1445.218
1226.229, 1434.791
1226.711, 1417.447
1227.193, 1403.424
1227.675, 1408.187
1228.157, 1421.578
1228.639, 1433.058
1229.122, 1441.665
1229.604, 1442.015
1230.086, 1432.737
1230.568, 1424.111
1231.050, 1419.271
1231.532, 1418.517
1232.014, 1428.174
1232.496, 1438.777
1232.979, 1437.282
1233.461, 1421.436
1233.943, 1406.391
1234.425, 1391.562
1234.907, 1385.275
1235.389, 1397.026
1235.871, 1410.005
1236.353, 1403.737
1236.835, 1390.831
1237.318, 1390.016
1237.800, 1405.052
1238.282, 1405.254
1238.764, 1389.864
1239.246, 1375.267
1239.728, 1372.583
1240.210, 1372.095
1240.692, 1362.626
1241.175, 1352.298
1241.657, 1353.884
1242.139, 1371.234
1242.621, 1373.741
1243.103, 1361.287
1243.585, 1349.299
1244.067, 1348.079
1244.549, 1349.500
1245.031, 1349.641
1245.514, 1348.087
1245.996, 1343.991
1246.478, 1336.871
1246.960, 1334.679
1247.442, 1337.082
1247.924, 1334.119
1248.406, 1308.716
1248.888, 1288.039
1249.370, 1291.599
1249.853, 1306.438
1250.335, 1317.317
1250.817, 1324.109
1251.299, 1325.064
1251.781, 1320.277
1252.263, 1312.671
1252.745, 1300.040
1253.227, 1289.736
1253.710, 1285.670
1254.192, 1285.181
1254.674, 1284.676
1255.156, 1284.723
1255.638, 1292.129
1256.120, 1306.196
1256.602, 1314.493
1257.084, 1305.615
1257.567, 1295.265
1258.049, 1287.792
1258.531, 1282.533
1259.013, 1279.518
1259.495, 1277.946
1259.977, 1273.932
1260.459, 1267.641
1260.941, 1264.134
1261.423, 1267.764
1261.906, 1272.150
1262.388, 1276.939
1262.870, 1280.028
1263.352, 1277.689
1263.834, 1271.511
1264.316, 1264.009
1264.798, 1255.803
1265.280, 1250.236
1265.762, 1250.018
1266.245, 1250.070
1266.727, 1250.050
1267.209, 1248.680
1267.691, 1243.470
1268.173, 1236.050
1268.655, 1227.771
1269.137, 1219.075
1269.619, 1215.600
1270.102, 1218.568
1270.584, 1224.717
1271.066, 1234.719
1271.548, 1243.025
1272.030, 1237.050
1272.512, 1228.906
1272.994, 1238.036
1273.476, 1263.307
1273.958, 1268.657
1274.441, 1249.445
1274.923, 1227.699
1275.405, 1206.615
1275.887, 1192.146
1276.369, 1198.420
1276.851, 1208.119
1277.333, 1200.472
1277.815, 1179.443
1278.297, 1176.314
1278.780, 1192.142
1279.262, 1204.216
1279.744, 1207.530
1280.226, 1204.900
1280.708, 1190.501
1281.190, 1178.687
1281.672, 1184.185
1282.154, 1199.891
1282.637, 1197.681
1283.119, 1179.861
1283.601, 1168.785
1284.083, 1169.639
1284.565, 1173.372
1285.047, 1176.459
1285.529, 1178.863
1286.011, 1180.624
1286.494, 1181.758
1286.976, 1184.674
1287.458, 1186.959
1287.940, 1176.845
1288.422, 1149.183
1288.904, 1132.775
1289.386, 1148.225
1289.868, 1163.920
1290.350, 1170.000
1290.833, 1170.083
1291.315, 1167.232
1291.797, 1165.042
1292.279, 1173.951
1292.761, 1198.610
1293.243, 1207.088
1293.725, 1188.770
1294.207, 1175.553
1294.689, 1180.025
1295.172, 1189.197
1295.654, 1183.356
1296.136, 1170.967
1296.618, 1161.539
1297.100, 1156.591
1297.582, 1163.357
1298.064, 1185.138
1298.546, 1196.436
1299.029, 1186.548
1299.511, 1172.413
1299.993, 1171.411
1300.475, 1175.233
1300.957, 1175.520
1301.439, 1172.810
1301.921, 1170.801
1302.403, 1169.899
1302.885, 1185.231
1303.368, 1227.784
1303.850, 1257.584
1304.332, 1230.612
1304.814, 1197.575
1305.296, 1192.176
1305.778, 1204.844
1306.260, 1198.056
1306.742, 1178.314
1307.224, 1172.510
1307.707, 1189.146
1308.189, 1209.175
1308.671, 1238.647
1309.153, 1249.209
1309.635, 1222.951
1310.117, 1180.962
1310.599, 1165.276
1311.081, 1168.907
1311.564, 1181.504
1312.046, 1203.127
1312.528, 1214.764
1313.010, 1213.436
##END=



