##NAMES=Pseudobrookite
##RRUFFID=R050563
##IDEAL CHEMISTRY=(Fe^3+^_2_Ti^4+^)O_5_
##LOCALITY=Thomas Range, Juab County, Utah, USA
##OWNER=RRUFF
##SOURCE=Dave Bunk Minerals
##DESCRIPTION=Black elongated prismatic crystals
##STATUS=The identification of this mineral is confirmed by single-crystal X-ray diffraction and chemical analysis.
##URL=rruff.info/R050563
##MEASURED CHEMISTRY=(Fe^3+^_1.85_Mn^3+^_0.12_Al_0.03_)_Î£=2_Ti_1.00_O_5_
91.11523, 41.77891
91.59735, 42.15098
92.07947, 41.86470
92.56158, 41.10672
93.04370, 40.46347
93.52582, 40.58894
94.00793, 41.04715
94.49006, 40.80612
94.97218, 39.61849
95.45429, 38.02915
95.93641, 36.82888
96.41853, 36.01159
96.90064, 35.32280
97.38276, 34.47957
97.86488, 33.53154
98.34699, 32.99983
98.82911, 32.95697
99.31123, 33.39217
99.79334, 34.64281
100.2755, 37.05968
100.7576, 39.03655
101.2397, 38.77858
101.7218, 35.72662
102.2039, 33.09886
102.6861, 31.63397
103.1682, 31.30913
103.6503, 30.97783
104.1324, 30.58189
104.6145, 30.24018
105.0966, 30.08529
105.5788, 30.12695
106.0609, 30.35604
106.5430, 30.91430
107.0251, 32.12280
107.5072, 32.49829
107.9893, 31.48664
108.4715, 29.77915
108.9536, 28.60399
109.4357, 27.68138
109.9178, 27.53839
110.3999, 28.48138
110.8820, 31.85192
111.3642, 34.08742
111.8463, 34.29112
112.3284, 33.18186
112.8105, 32.76052
113.2926, 34.17120
113.7747, 35.72543
114.2569, 36.55851
114.7390, 36.02681
115.2211, 35.36158
115.7032, 34.85415
116.1853, 34.45469
116.6674, 33.91270
117.1496, 31.77886
117.6317, 30.08946
118.1138, 30.52534
118.5959, 36.10973
119.0780, 41.78242
119.5602, 44.67735
120.0423, 44.95826
120.5244, 45.64302
121.0065, 49.29012
121.4886, 54.17704
121.9707, 58.04660
122.4529, 58.79042
122.9350, 58.79895
123.4171, 59.89840
123.8992, 62.17832
124.3813, 65.40166
124.8634, 70.55576
125.3456, 76.61385
125.8277, 81.26147
126.3098, 81.87296
126.7919, 80.76161
127.2740, 81.40723
127.7561, 84.29086
128.2383, 88.11269
128.7204, 91.31587
129.2025, 94.06225
129.6846, 97.20157
130.1667, 101.9800
130.6488, 107.6018
131.1310, 111.6679
131.6131, 113.4519
132.0952, 114.3678
132.5773, 116.9089
133.0594, 121.1097
133.5415, 125.9565
134.0237, 130.9801
134.5058, 136.1838
134.9879, 141.1236
135.4700, 145.4645
135.9521, 149.6856
136.4343, 155.8776
136.9164, 164.5566
137.3985, 173.1775
137.8806, 179.7874
138.3627, 184.2990
138.8448, 187.5954
139.3270, 189.9045
139.8091, 191.2024
140.2912, 190.7452
140.7733, 187.4330
141.2554, 184.2954
141.7375, 184.7395
142.2197, 190.0082
142.7018, 195.6050
143.1839, 200.7600
143.6660, 205.4854
144.1481, 209.2792
144.6302, 211.7648
145.1124, 213.6058
145.5945, 215.5113
146.0766, 217.2370
146.5587, 219.4396
147.0408, 222.3432
147.5230, 226.0763
148.0051, 229.9266
148.4872, 233.0745
148.9693, 234.8783
149.4514, 236.2492
149.9335, 236.4117
150.4157, 236.9875
150.8978, 238.5247
151.3799, 241.8514
151.8620, 244.4344
152.3441, 245.4387
152.8262, 245.8118
153.3084, 247.3180
153.7905, 252.3499
154.2726, 256.5940
154.7547, 258.4131
155.2368, 255.9279
155.7189, 253.9646
156.2011, 253.2145
156.6832, 253.3599
157.1653, 253.6640
157.6474, 254.6352
158.1295, 255.2624
158.6116, 254.9327
159.0938, 252.1891
159.5759, 250.3691
160.0580, 250.6721
160.5401, 252.6322
161.0222, 254.6897
161.5044, 256.4059
161.9865, 257.9942
162.4686, 259.6261
162.9507, 261.9324
163.4328, 263.6313
163.9149, 263.8430
164.3971, 262.8611
164.8792, 262.1171
165.3613, 262.8703
165.8434, 263.9119
166.3255, 264.1288
166.8076, 262.2264
167.2898, 260.2449
167.7719, 258.6794
168.2540, 257.6645
168.7361, 258.4937
169.2182, 264.0972
169.7003, 271.3387
170.1825, 276.4696
170.6646, 276.8358
171.1467, 275.4643
171.6288, 274.3872
172.1109, 273.6195
172.5931, 273.2932
173.0752, 273.5739
173.5573, 274.3441
174.0394, 275.4227
174.5215, 276.7291
175.0036, 278.2980
175.4858, 280.0517
175.9679, 281.9940
176.4500, 284.4073
176.9321, 288.3380
177.4142, 293.0080
177.8963, 296.5750
178.3785, 297.1592
178.8606, 296.5657
179.3427, 297.6229
179.8248, 300.4579
180.3069, 304.0335
180.7890, 307.1149
181.2712, 309.9908
181.7533, 313.5706
182.2354, 319.0964
182.7175, 325.5144
183.1996, 330.0816
183.6818, 332.5112
184.1639, 334.5680
184.6460, 339.0744
185.1281, 345.4323
185.6102, 350.7150
186.0923, 352.5581
186.5745, 352.0923
187.0566, 352.8329
187.5387, 355.0296
188.0208, 358.0823
188.5029, 361.1113
188.9850, 364.1782
189.4672, 368.1155
189.9493, 373.9103
190.4314, 381.1205
190.9135, 387.7205
191.3956, 393.5508
191.8777, 398.8407
192.3599, 404.1077
192.8420, 409.3307
193.3241, 414.3558
193.8062, 419.1168
194.2883, 423.6452
194.7704, 427.6800
195.2526, 430.9743
195.7347, 434.1898
196.2168, 439.0450
196.6989, 445.7370
197.1810, 451.5815
197.6632, 455.0884
198.1453, 456.2878
198.6274, 456.3844
199.1095, 455.3045
199.5916, 453.3362
200.0737, 451.0909
200.5559, 448.5905
201.0380, 445.6657
201.5201, 442.1552
202.0022, 437.9985
202.4843, 433.7680
202.9664, 429.4546
203.4486, 425.1442
203.9307, 420.9994
204.4128, 417.0620
204.8949, 413.2980
205.3770, 409.6069
205.8591, 405.9152
206.3413, 402.7674
206.8234, 400.1022
207.3055, 398.0472
207.7876, 397.0801
208.2697, 397.4531
208.7519, 398.1471
209.2340, 398.5640
209.7161, 398.5571
210.1982, 398.9997
210.6803, 400.0135
211.1624, 401.4580
211.6446, 403.0623
212.1267, 405.0026
212.6088, 406.6541
213.0909, 407.3257
213.5730, 406.3010
214.0551, 407.1874
214.5373, 410.6438
215.0194, 415.9205
215.5015, 421.0186
215.9836, 425.9180
216.4657, 430.7404
216.9478, 435.6655
217.4300, 440.7904
217.9121, 445.6976
218.3942, 450.2261
218.8763, 454.5277
219.3584, 458.9835
219.8405, 463.5011
220.3227, 468.2611
220.8048, 473.7573
221.2869, 481.2611
221.7690, 485.7721
222.2511, 486.0987
222.7333, 483.6046
223.2154, 482.5394
223.6975, 484.4454
224.1796, 485.1677
224.6617, 482.6611
225.1438, 476.3057
225.6260, 468.3647
226.1081, 458.4985
226.5902, 447.2118
227.0723, 436.2520
227.5544, 425.7366
228.0365, 415.1739
228.5187, 404.1553
229.0008, 391.9881
229.4829, 381.1972
229.9650, 372.4810
230.4471, 364.8826
230.9292, 355.6461
231.4114, 343.4407
231.8935, 331.4019
232.3756, 320.9917
232.8577, 312.2948
233.3398, 304.6298
233.8220, 298.1908
234.3041, 292.6965
234.7862, 287.6832
235.2683, 283.4008
235.7504, 279.2411
236.2325, 274.9218
236.7147, 270.5313
237.1968, 265.8495
237.6789, 260.2278
238.1610, 254.5831
238.6431, 251.0695
239.1252, 250.7063
239.6074, 250.8679
240.0895, 250.7473
240.5716, 250.7117
241.0537, 249.1626
241.5358, 244.8302
242.0179, 239.5921
242.5001, 237.4051
242.9822, 240.2834
243.4643, 242.9294
243.9464, 243.3701
244.4285, 240.8516
244.9106, 238.5117
245.3928, 236.1803
245.8749, 234.0988
246.3570, 232.6577
246.8391, 231.7703
247.3212, 231.6756
247.8034, 232.6141
248.2855, 234.9115
248.7676, 237.0059
249.2497, 239.4253
249.7318, 241.2854
250.2139, 240.9965
250.6961, 237.1809
251.1782, 233.7350
251.6603, 231.7896
252.1424, 231.5479
252.6245, 231.6506
253.1066, 232.2616
253.5888, 233.0750
254.0709, 233.6925
254.5530, 234.0170
255.0351, 234.3476
255.5172, 234.7838
255.9993, 235.3495
256.4815, 235.7889
256.9636, 236.1437
257.4457, 236.3195
257.9278, 236.1796
258.4099, 235.6031
258.8921, 234.9723
259.3742, 234.3069
259.8563, 233.6074
260.3384, 233.0821
260.8205, 232.4274
261.3026, 232.3579
261.7848, 233.9419
262.2669, 238.1531
262.7490, 241.2708
263.2311, 242.3897
263.7132, 241.6217
264.1953, 240.3595
264.6775, 238.0705
265.1596, 236.1674
265.6417, 236.1418
266.1238, 238.6544
266.6059, 240.7533
267.0880, 241.9303
267.5702, 242.2733
268.0523, 242.2001
268.5344, 241.4824
269.0165, 240.8186
269.4986, 240.7261
269.9807, 241.2673
270.4629, 242.1087
270.9450, 243.2131
271.4271, 244.5877
271.9092, 246.5011
272.3913, 249.4006
272.8734, 251.5676
273.3556, 251.2456
273.8377, 247.8248
274.3198, 246.2766
274.8019, 247.5995
275.2840, 250.6780
275.7661, 252.4879
276.2483, 252.8711
276.7304, 252.6391
277.2125, 251.9065
277.6946, 250.5669
278.1768, 250.4160
278.6589, 251.9460
279.1410, 254.2084
279.6231, 254.9101
280.1052, 253.7307
280.5873, 253.2227
281.0695, 255.2138
281.5516, 259.6647
282.0337, 262.9802
282.5158, 265.0464
282.9979, 266.0152
283.4800, 265.6800
283.9622, 263.9599
284.4443, 262.6193
284.9264, 262.6527
285.4085, 263.8810
285.8906, 264.6674
286.3727, 264.9123
286.8549, 265.0600
287.3370, 265.7133
287.8191, 266.8498
288.3012, 268.0446
288.7833, 269.1594
289.2654, 270.2006
289.7476, 271.3653
290.2297, 272.7226
290.7118, 273.6872
291.1939, 272.8615
291.6760, 270.7220
292.1581, 270.2680
292.6403, 273.3875
293.1224, 278.2360
293.6045, 280.3963
294.0866, 279.8393
294.5687, 278.6288
295.0508, 278.2666
295.5330, 278.6582
296.0151, 279.5800
296.4972, 281.3183
296.9793, 283.1700
297.4614, 283.4526
297.9435, 282.3904
298.4257, 281.8286
298.9078, 283.8383
299.3899, 287.2757
299.8720, 289.4546
300.3541, 289.5028
300.8362, 289.0820
301.3184, 290.5938
301.8005, 293.5788
302.2826, 296.0812
302.7647, 296.5499
303.2469, 295.9467
303.7290, 295.5977
304.2111, 295.6353
304.6932, 296.0776
305.1753, 296.8931
305.6574, 298.1196
306.1396, 299.8212
306.6217, 302.3839
307.1038, 305.2718
307.5859, 308.1709
308.0680, 311.1524
308.5501, 313.3689
309.0323, 313.0882
309.5144, 311.7910
309.9965, 311.8304
310.4786, 316.0982
310.9607, 320.6938
311.4428, 322.3495
311.9250, 321.1037
312.4071, 319.8371
312.8892, 319.6823
313.3713, 320.6187
313.8534, 322.6581
314.3355, 327.4320
314.8177, 331.8080
315.2998, 333.7407
315.7819, 333.6600
316.2640, 333.9149
316.7461, 335.7855
317.2282, 338.2549
317.7104, 340.5490
318.1925, 342.1992
318.6746, 344.0910
319.1567, 347.0153
319.6388, 350.4781
320.1209, 353.0812
320.6031, 353.6949
321.0852, 351.0182
321.5673, 355.6917
322.0494, 359.0040
322.5315, 361.0280
323.0136, 357.9059
323.4958, 361.4293
323.9779, 362.2894
324.4600, 363.0401
324.9421, 367.4987
325.4242, 365.1249
325.9064, 369.5250
326.3885, 372.3620
326.8706, 372.5406
327.3527, 371.9179
327.8348, 372.4816
328.3170, 375.7056
328.7991, 378.6133
329.2812, 380.5416
329.7633, 381.4606
330.2454, 382.8461
330.7275, 384.9757
331.2097, 387.3158
331.6918, 389.5343
332.1739, 391.9873
332.6560, 393.7050
333.1381, 394.3737
333.6202, 391.6714
334.1024, 395.0344
334.5845, 397.0360
335.0666, 397.7495
335.5487, 393.3167
336.0308, 395.5292
336.5129, 395.0786
336.9951, 394.5189
337.4772, 397.6667
337.9593, 393.9825
338.4414, 397.0715
338.9235, 397.4568
339.4056, 399.0796
339.8878, 395.7945
340.3699, 395.1235
340.8520, 395.5261
341.3341, 396.0776
341.8162, 395.2911
342.2983, 392.9935
342.7805, 391.2735
343.2626, 390.9713
343.7447, 391.7832
344.2268, 392.2229
344.7089, 392.2801
345.1910, 391.9839
345.6732, 391.2968
346.1553, 390.2361
346.6374, 388.9774
347.1195, 387.3427
347.6016, 385.7632
348.0837, 385.5617
348.5659, 386.6304
349.0480, 387.1212
349.5301, 385.4691
350.0122, 382.2885
350.4944, 379.0341
350.9765, 375.7880
351.4586, 372.8890
351.9407, 371.2020
352.4228, 370.3566
352.9049, 369.1159
353.3871, 366.3910
353.8692, 363.1051
354.3513, 360.3370
354.8334, 358.1317
355.3155, 356.5474
355.7976, 356.1711
356.2798, 356.3364
356.7619, 355.9688
357.2440, 354.2116
357.7261, 352.1136
358.2082, 350.1965
358.6903, 348.5029
359.1725, 347.3527
359.6546, 347.6669
360.1367, 348.2221
360.6188, 347.9499
361.1009, 346.5087
361.5830, 344.3425
362.0652, 340.9794
362.5473, 336.9904
363.0294, 333.7812
363.5115, 332.2006
363.9936, 331.2289
364.4757, 330.4840
364.9579, 330.0610
365.4400, 329.3905
365.9221, 328.2817
366.4042, 326.8903
366.8863, 325.4125
367.3684, 324.2894
367.8506, 322.6738
368.3327, 319.8311
368.8148, 315.5590
369.2969, 312.9421
369.7790, 313.5870
370.2611, 314.7490
370.7433, 314.4971
371.2254, 311.7969
371.7075, 309.3019
372.1896, 307.1572
372.6717, 305.3518
373.1538, 303.9024
373.6360, 302.8857
374.1181, 302.0929
374.6002, 301.5500
375.0823, 301.4947
375.5645, 300.7148
376.0466, 298.8701
376.5287, 296.6896
377.0108, 295.5980
377.4929, 295.9469
377.9750, 295.7688
378.4572, 294.1604
378.9393, 291.3217
379.4214, 289.1694
379.9035, 287.7695
380.3856, 286.8623
380.8677, 286.3050
381.3499, 286.0800
381.8320, 286.0153
382.3141, 286.2260
382.7962, 286.4005
383.2783, 285.5394
383.7604, 283.7283
384.2426, 282.3674
384.7247, 282.8571
385.2068, 284.4316
385.6889, 285.4174
386.1710, 285.6390
386.6531, 285.1544
387.1353, 283.4960
387.6174, 281.1239
388.0995, 279.2216
388.5816, 278.9696
389.0637, 279.0774
389.5458, 277.9552
390.0280, 275.6093
390.5101, 273.5747
390.9922, 272.9002
391.4743, 273.0763
391.9564, 273.6133
392.4385, 275.2460
392.9207, 276.1176
393.4028, 274.4455
393.8849, 271.0997
394.3670, 268.6817
394.8491, 269.2719
395.3312, 270.2849
395.8134, 270.1593
396.2955, 268.1602
396.7776, 266.5173
397.2597, 265.5211
397.7418, 265.2141
398.2239, 265.6591
398.7061, 267.9471
399.1882, 269.8913
399.6703, 270.9898
400.1524, 271.2239
400.6346, 271.1043
401.1167, 270.5273
401.5988, 269.6919
402.0809, 268.7307
402.5630, 267.6809
403.0451, 266.3389
403.5273, 264.2166
404.0094, 261.9357
404.4915, 261.6320
404.9736, 264.3184
405.4557, 266.5047
405.9378, 266.2935
406.4200, 263.3636
406.9021, 261.9618
407.3842, 262.5056
407.8663, 263.6360
408.3484, 263.4598
408.8305, 261.9472
409.3127, 260.9097
409.7948, 260.9539
410.2769, 261.7591
410.7590, 262.7721
411.2411, 264.0038
411.7232, 264.5560
412.2054, 262.9103
412.6875, 260.0294
413.1696, 258.8817
413.6517, 260.2420
414.1338, 262.1705
414.6159, 262.4299
415.0981, 261.4248
415.5802, 260.2445
416.0623, 258.9578
416.5444, 258.0393
417.0265, 258.2413
417.5086, 259.5618
417.9908, 260.8353
418.4729, 261.5925
418.9550, 261.7952
419.4371, 261.3522
419.9192, 259.5419
420.4013, 257.9308
420.8835, 257.4073
421.3656, 257.6421
421.8477, 257.6334
422.3298, 256.5435
422.8119, 255.5883
423.2940, 255.4715
423.7762, 256.7159
424.2583, 257.3972
424.7404, 256.8729
425.2225, 255.8520
425.7047, 255.1410
426.1868, 255.0879
426.6689, 254.8932
427.1510, 254.3363
427.6331, 253.4691
428.1152, 252.8728
428.5974, 252.6242
429.0795, 252.5218
429.5616, 252.5055
430.0437, 252.6660
430.5258, 252.5036
431.0079, 251.9294
431.4901, 251.1036
431.9722, 250.1594
432.4543, 249.0399
432.9364, 248.4120
433.4185, 248.9006
433.9006, 250.1198
434.3828, 250.2423
434.8649, 249.2212
435.3470, 247.6918
435.8291, 245.9675
436.3112, 244.1684
436.7933, 242.7658
437.2755, 241.9749
437.7576, 241.3382
438.2397, 240.1355
438.7218, 238.5731
439.2039, 237.3340
439.6860, 237.1429
440.1682, 237.2633
440.6503, 236.7709
441.1324, 235.5662
441.6145, 234.7229
442.0966, 235.5900
442.5787, 236.8712
443.0609, 237.1685
443.5430, 235.3856
444.0251, 233.2511
444.5072, 230.7990
444.9893, 228.3500
445.4714, 227.0182
445.9536, 228.2796
446.4357, 229.6727
446.9178, 230.0418
447.3999, 228.7696
447.8820, 228.0014
448.3641, 228.6089
448.8463, 229.2838
449.3284, 228.4782
449.8105, 224.9115
450.2926, 222.2375
450.7747, 221.2021
451.2569, 221.5928
451.7390, 222.2895
452.2211, 223.6181
452.7032, 224.4337
453.1853, 223.8612
453.6674, 221.7992
454.1496, 219.9604
454.6317, 218.3974
455.1138, 217.0571
455.5959, 215.7266
456.0780, 214.4481
456.5602, 213.9050
457.0423, 214.8823
457.5244, 216.3964
458.0065, 216.1689
458.4886, 214.3571
458.9707, 212.6649
459.4529, 212.6104
459.9350, 213.4088
460.4171, 213.9453
460.8992, 214.0829
461.3813, 213.8358
461.8634, 212.8775
462.3456, 211.5905
462.8277, 210.6402
463.3098, 211.2176
463.7919, 211.3745
464.2740, 209.2111
464.7561, 204.9880
465.2383, 202.6994
465.7204, 205.6223
466.2025, 209.4273
466.6846, 211.3857
467.1667, 209.8943
467.6488, 208.6299
468.1310, 208.3007
468.6131, 208.1711
469.0952, 206.8929
469.5773, 202.9182
470.0594, 200.3208
470.5415, 200.5644
471.0237, 203.5166
471.5058, 205.2024
471.9879, 205.2500
472.4700, 204.8667
472.9521, 205.1096
473.4342, 206.0525
473.9164, 206.1127
474.3985, 204.9782
474.8806, 203.2592
475.3627, 201.9221
475.8448, 200.9356
476.3270, 199.9547
476.8091, 198.4617
477.2912, 197.0334
477.7733, 197.0855
478.2554, 198.5343
478.7375, 200.1184
479.2197, 201.0516
479.7018, 201.4806
480.1839, 201.5687
480.6660, 201.3007
481.1481, 200.8403
481.6302, 200.1139
482.1124, 199.2934
482.5945, 198.6691
483.0766, 198.3716
483.5587, 198.2702
484.0408, 198.2834
484.5229, 198.4131
485.0051, 198.8128
485.4872, 200.0968
485.9693, 201.2438
486.4514, 201.5987
486.9335, 200.4158
487.4156, 199.7821
487.8978, 200.2641
488.3799, 200.9966
488.8620, 200.4412
489.3441, 197.8461
489.8262, 195.8696
490.3083, 195.4175
490.7905, 196.2197
491.2726, 196.1262
491.7547, 194.9309
492.2368, 193.8534
492.7189, 194.1123
493.2010, 195.4536
493.6832, 195.9913
494.1653, 195.4168
494.6474, 194.5684
495.1295, 194.4600
495.6116, 194.9452
496.0938, 195.5867
496.5759, 196.5482
497.0580, 197.3079
497.5401, 196.9523
498.0222, 195.7263
498.5044, 194.8977
498.9865, 195.7373
499.4686, 196.9170
499.9507, 197.1956
500.4328, 196.0158
500.9149, 195.4169
501.3971, 197.4636
501.8792, 199.9329
502.3613, 200.2649
502.8434, 194.7971
503.3255, 190.8521
503.8076, 190.3347
504.2898, 192.4866
504.7719, 193.8833
505.2540, 194.4245
505.7361, 194.3419
506.2182, 193.4915
506.7003, 191.6191
507.1825, 190.7605
507.6646, 191.1702
508.1467, 192.0498
508.6288, 192.5261
509.1109, 192.6028
509.5930, 192.8529
510.0752, 193.6161
510.5573, 194.2853
511.0394, 193.2710
511.5215, 190.8682
512.0037, 188.9296
512.4858, 188.8236
512.9679, 189.6510
513.4500, 190.2085
513.9321, 190.4529
514.4142, 190.6020
514.8964, 191.0711
515.3785, 191.4050
515.8606, 190.9872
516.3427, 188.8652
516.8248, 187.4038
517.3069, 188.3237
517.7891, 190.4292
518.2712, 191.5077
518.7533, 189.6743
519.2354, 188.1721
519.7175, 188.2583
520.1996, 189.8913
520.6818, 190.5952
521.1639, 189.6444
521.6460, 188.6596
522.1281, 188.6486
522.6102, 189.9119
523.0923, 191.0213
523.5745, 192.0191
524.0566, 192.7438
524.5387, 192.9778
525.0208, 192.7245
525.5029, 191.9897
525.9850, 190.4545
526.4672, 188.7216
526.9493, 188.2022
527.4314, 188.7901
527.9135, 189.5500
528.3956, 190.2999
528.8777, 190.7064
529.3599, 189.9454
529.8420, 187.8385
530.3241, 186.2369
530.8062, 187.1885
531.2883, 188.9772
531.7704, 189.6161
532.2526, 187.2218
532.7347, 185.4030
533.2168, 185.8639
533.6989, 187.6811
534.1810, 188.7010
534.6631, 188.0306
535.1453, 187.0966
535.6274, 186.1235
536.1095, 185.0829
536.5916, 184.6711
537.0737, 185.1479
537.5558, 185.8465
538.0380, 186.3584
538.5201, 186.6861
539.0022, 186.7602
539.4843, 186.4640
539.9664, 186.1709
540.4485, 186.4994
540.9307, 187.3840
541.4128, 188.3557
541.8949, 189.4552
542.3770, 190.3429
542.8591, 190.4320
543.3412, 189.7845
543.8234, 188.7617
544.3055, 187.0711
544.7876, 185.4093
545.2697, 184.3639
545.7518, 183.9773
546.2339, 184.3938
546.7161, 186.6562
547.1982, 189.2356
547.6803, 190.8231
548.1624, 190.5368
548.6445, 189.9997
549.1266, 189.0093
549.6088, 187.9758
550.0909, 187.7423
550.5730, 188.7129
551.0551, 189.8747
551.5372, 191.1120
552.0193, 192.3770
552.5015, 193.0389
552.9836, 192.9955
553.4657, 192.7161
553.9478, 192.3014
554.4299, 191.8161
554.9120, 192.1187
555.3942, 193.3755
555.8763, 194.7399
556.3584, 194.9756
556.8405, 194.5498
557.3226, 194.7505
557.8047, 196.4734
558.2869, 198.1963
558.7690, 198.2377
559.2511, 197.1467
559.7332, 196.3069
560.2154, 196.4656
560.6975, 196.9362
561.1796, 197.4556
561.6617, 198.0094
562.1439, 198.4322
562.6260, 198.1844
563.1081, 198.1911
563.5902, 199.1054
564.0723, 202.0616
564.5544, 203.3573
565.0366, 201.9837
565.5187, 199.9488
566.0008, 200.4093
566.4829, 204.0520
566.9650, 206.2080
567.4471, 205.3160
567.9293, 202.8528
568.4114, 202.7273
568.8935, 204.7851
569.3756, 206.9614
569.8577, 208.2914
570.3398, 208.8949
570.8220, 208.7136
571.3041, 207.7869
571.7862, 206.9014
572.2683, 206.5749
572.7504, 206.5772
573.2325, 206.6646
573.7147, 206.7439
574.1968, 207.0378
574.6789, 207.8269
575.1610, 208.8113
575.6431, 209.6135
576.1252, 210.0621
576.6074, 210.4551
577.0895, 210.8934
577.5716, 211.3146
578.0537, 211.4452
578.5358, 211.1392
579.0179, 210.8806
579.5001, 210.8343
579.9822, 210.9987
580.4643, 211.5070
580.9464, 212.4432
581.4285, 213.1360
581.9106, 212.6762
582.3928, 211.4762
582.8749, 210.8856
583.3570, 211.0878
583.8391, 211.8543
584.3212, 213.7911
584.8033, 215.9941
585.2855, 216.9124
585.7676, 214.7186
586.2497, 212.4680
586.7318, 211.6541
587.2139, 211.9683
587.6960, 212.5271
588.1782, 212.5772
588.6603, 213.3611
589.1424, 216.0335
589.6245, 220.7906
590.1066, 222.8739
590.5887, 220.6156
591.0709, 218.0718
591.5530, 218.0712
592.0351, 221.1445
592.5172, 222.6036
592.9993, 221.9469
593.4814, 220.7164
593.9636, 220.8979
594.4457, 222.2591
594.9278, 223.6442
595.4099, 224.9346
595.8920, 225.8137
596.3741, 225.7613
596.8563, 224.9625
597.3384, 223.8801
597.8205, 221.8896
598.3026, 220.4163
598.7847, 220.7154
599.2668, 222.6102
599.7490, 224.3379
600.2311, 225.4601
600.7132, 226.2085
601.1953, 226.8031
601.6774, 227.5127
602.1595, 226.9958
602.6417, 224.1205
603.1238, 221.2952
603.6059, 221.0503
604.0880, 223.9408
604.5701, 226.1653
605.0522, 227.2533
605.5344, 225.1318
606.0165, 228.5371
606.4986, 230.5871
606.9807, 231.3549
607.4628, 226.9823
607.9449, 229.2609
608.4271, 228.8824
608.9092, 228.4005
609.3913, 231.6322
609.8735, 228.0378
610.3556, 231.2225
610.8377, 231.7094
611.3198, 233.4396
611.8019, 232.4961
612.2841, 232.3863
612.7662, 234.9627
613.2483, 236.0609
613.7304, 234.8326
614.2125, 236.6770
614.6946, 233.0480
615.1768, 234.2331
615.6589, 237.4986
616.1410, 236.4346
616.6231, 238.3575
617.1052, 239.1510
617.5873, 234.7908
618.0695, 239.4097
618.5516, 240.1538
619.0337, 236.9194
619.5158, 241.2485
619.9979, 238.5752
620.4800, 238.4093
620.9622, 240.1321
621.4443, 239.8981
621.9264, 242.7641
622.4085, 242.6553
622.8906, 242.2861
623.3727, 243.0850
623.8549, 244.2637
624.3370, 246.4519
624.8191, 248.0823
625.3012, 248.4028
625.7833, 246.4829
626.2654, 245.4451
626.7476, 245.4671
627.2297, 246.1650
627.7118, 247.0989
628.1939, 248.2726
628.6760, 249.5237
629.1581, 250.8058
629.6403, 252.1754
630.1224, 253.7681
630.6045, 255.5610
631.0866, 257.4579
631.5687, 260.2894
632.0508, 262.5750
632.5330, 261.9462
633.0151, 259.1284
633.4972, 257.9573
633.9793, 261.3543
634.4614, 265.7209
634.9435, 269.2784
635.4257, 271.7115
635.9078, 273.9812
636.3899, 275.8516
636.8720, 277.8533
637.3541, 280.3910
637.8362, 283.6870
638.3184, 286.6367
638.8005, 289.1850
639.2826, 291.3341
639.7647, 292.5957
640.2468, 293.2275
640.7289, 295.1198
641.2111, 299.1616
641.6932, 303.7289
642.1753, 306.7697
642.6574, 308.8053
643.1395, 311.0472
643.6216, 314.2582
644.1038, 317.6700
644.5859, 321.0081
645.0680, 324.2116
645.5501, 327.1265
646.0322, 328.7955
646.5143, 331.0663
646.9965, 334.8551
647.4786, 340.3372
647.9607, 344.7638
648.4428, 348.0948
648.9249, 350.5399
649.4070, 351.7979
649.8892, 351.9201
650.3713, 353.6037
650.8534, 357.1273
651.3355, 361.2779
651.8176, 365.1728
652.2997, 368.6853
652.7819, 371.5227
653.2640, 373.5659
653.7461, 372.5899
654.2282, 375.5258
654.7103, 377.4013
655.1924, 378.2733
655.6746, 375.1366
656.1567, 377.1764
656.6388, 377.1416
657.1209, 377.0218
657.6030, 379.7902
658.0851, 377.2364
658.5673, 379.9591
659.0494, 381.1049
659.5316, 380.9917
660.0137, 381.2949
660.4958, 382.1178
660.9779, 382.2125
661.4600, 380.1876
661.9421, 376.9429
662.4243, 374.8185
662.9064, 373.8554
663.3885, 373.2212
663.8706, 372.8969
664.3527, 372.2573
664.8348, 370.5288
665.3170, 367.3354
665.7991, 364.1610
666.2812, 361.5829
666.7633, 359.2055
667.2454, 356.6229
667.7275, 353.3769
668.2097, 350.7196
668.6918, 348.6936
669.1739, 347.2424
669.6560, 346.8198
670.1381, 347.6927
670.6202, 346.3921
671.1024, 341.2672
671.5845, 334.8217
672.0666, 331.8604
672.5487, 331.7574
673.0308, 332.1573
673.5129, 332.1753
673.9951, 331.9853
674.4772, 331.8942
674.9593, 331.7733
675.4414, 331.0713
675.9235, 328.9380
676.4056, 326.7546
676.8878, 325.2280
677.3699, 324.4233
677.8520, 323.3934
678.3341, 321.9213
678.8162, 320.5607
679.2983, 319.6818
679.7805, 319.3232
680.2626, 318.8450
680.7447, 318.1989
681.2268, 317.7076
681.7089, 317.8805
682.1910, 318.4469
682.6732, 318.7905
683.1553, 318.8721
683.6374, 318.4204
684.1195, 316.2773
684.6016, 313.8350
685.0837, 312.8724
685.5659, 315.6939
686.0480, 317.5079
686.5301, 316.5285
687.0122, 314.0082
687.4943, 312.0862
687.9764, 310.8310
688.4586, 310.0433
688.9407, 309.6850
689.4228, 309.7716
689.9049, 310.5470
690.3870, 312.0346
690.8691, 313.2373
691.3513, 313.7729
691.8334, 313.7305
692.3155, 313.0614
692.7976, 311.8747
693.2797, 310.6867
693.7618, 309.3195
694.2440, 308.4380
694.7261, 308.8892
695.2082, 310.6287
695.6903, 311.7282
696.1724, 311.3715
696.6545, 310.5831
697.1367, 309.5453
697.6188, 307.9947
698.1009, 308.3932
698.5830, 311.6074
699.0651, 314.7953
699.5472, 315.3244
700.0294, 313.5481
700.5115, 312.5312
700.9936, 312.5394
701.4757, 312.9011
701.9578, 312.9731
702.4399, 312.9347
702.9221, 313.0880
703.4042, 313.5640
703.8863, 314.0428
704.3684, 314.7586
704.8505, 312.6385
705.3326, 315.9886
705.8148, 317.9774
706.2969, 318.6779
706.7790, 314.2323
707.2611, 316.4319
707.7432, 315.9685
708.2253, 315.3958
708.7075, 318.5308
709.1896, 314.8336
709.6718, 317.9099
710.1539, 318.2822
710.6360, 319.8921
711.1181, 318.8223
711.6002, 318.5802
712.0823, 321.0185
712.5645, 321.9727
713.0466, 320.5945
713.5287, 322.2830
714.0108, 318.4922
714.4929, 319.5096
714.9750, 322.6014
715.4572, 321.3579
715.9393, 323.0954
716.4214, 323.6976
716.9035, 319.1402
717.3856, 323.5558
717.8677, 324.0908
718.3499, 320.6415
718.8320, 324.7496
719.3141, 321.8495
719.7962, 323.2533
720.2783, 323.3056
720.7604, 322.7604
721.2426, 321.6049
721.7247, 320.9781
722.2068, 322.2125
722.6889, 323.7817
723.1710, 324.5226
723.6531, 324.0224
724.1353, 323.2859
724.6174, 321.7838
725.0995, 320.6582
725.5816, 321.1716
726.0637, 323.7069
726.5458, 325.1808
727.0280, 325.2437
727.5101, 324.6794
727.9922, 323.9766
728.4743, 323.4288
728.9564, 324.2397
729.4385, 327.4155
729.9207, 329.9087
730.4028, 328.0653
730.8849, 324.3677
731.3670, 322.2910
731.8491, 324.6928
732.3312, 326.5671
732.8134, 326.3527
733.2955, 325.2635
733.7776, 325.3885
734.2597, 327.3807
734.7418, 328.4629
735.2239, 327.7095
735.7061, 326.1201
736.1882, 326.2377
736.6703, 327.7975
737.1524, 328.7658
737.6345, 328.1028
738.1166, 326.6761
738.5988, 325.0326
739.0809, 323.3800
739.5630, 322.3110
740.0451, 322.2706
740.5272, 322.6639
741.0093, 323.3863
741.4915, 324.3785
741.9736, 325.3189
742.4557, 326.2609
742.9378, 327.0294
743.4199, 327.5125
743.9020, 327.7646
744.3842, 328.2827
744.8663, 329.0711
745.3484, 329.2882
745.8305, 327.6522
746.3126, 325.4956
746.7947, 325.0285
747.2769, 326.1216
747.7590, 327.2987
748.2411, 328.0202
748.7232, 328.3807
749.2053, 328.3109
749.6874, 327.7249
750.1696, 327.5297
750.6517, 327.9700
751.1338, 328.4937
751.6159, 328.8086
752.0980, 328.9095
752.5801, 328.9680
753.0623, 329.0001
753.5444, 328.8261
754.0265, 327.7852
754.5086, 326.5618
754.9907, 326.8120
755.4728, 328.7796
755.9550, 330.4327
756.4371, 330.0837
756.9192, 329.1356
757.4013, 328.7044
757.8835, 329.0718
758.3656, 329.6984
758.8477, 331.0107
759.3298, 332.0869
759.8120, 331.9635
760.2941, 330.4131
760.7762, 329.7471
761.2583, 330.1847
761.7404, 331.0705
762.2225, 331.7983
762.7047, 332.4054
763.1868, 333.0931
763.6689, 334.0645
764.1510, 334.3857
764.6331, 332.5260
765.1152, 330.1160
765.5974, 328.9099
766.0795, 329.8418
766.5616, 331.1087
767.0437, 333.1085
767.5258, 334.9374
768.0079, 335.2639
768.4901, 333.8029
768.9722, 333.2325
769.4543, 334.0597
769.9364, 335.3801
770.4185, 336.2376
770.9006, 336.5895
771.3828, 336.2643
771.8649, 334.9839
772.3470, 333.5451
772.8291, 332.1733
773.3112, 331.0756
773.7933, 330.5377
774.2755, 331.1468
774.7576, 331.6753
775.2397, 332.1732
775.7218, 332.4481
776.2039, 332.0923
776.6860, 331.0254
777.1682, 329.9694
777.6503, 328.8580
778.1324, 328.2871
778.6145, 330.0668
779.0966, 333.1659
779.5787, 334.7682
780.0609, 332.9656
780.5430, 330.7451
781.0251, 329.8876
781.5072, 329.8333
781.9893, 329.5757
782.4714, 328.3014
782.9536, 327.7188
783.4357, 328.6344
783.9178, 329.9619
784.3999, 328.9511
784.8820, 325.3462
785.3641, 323.2570
785.8463, 324.4791
786.3284, 326.6079
786.8105, 325.0532
787.2926, 321.2505
787.7747, 318.7616
788.2568, 320.4933
788.7390, 322.5097
789.2211, 323.0071
789.7032, 322.3800
790.1853, 321.5670
790.6674, 320.5512
791.1495, 319.5219
791.6317, 318.4149
792.1138, 317.3768
792.5959, 316.9713
793.0780, 317.1932
793.5601, 317.0280
794.0422, 315.8914
794.5244, 314.5347
795.0065, 314.1596
795.4886, 314.3910
795.9707, 314.3329
796.4528, 313.2889
796.9349, 312.2249
797.4171, 311.7993
797.8992, 311.6261
798.3813, 310.5944
798.8634, 308.0311
799.3455, 306.0275
799.8276, 305.0601
800.3098, 304.9074
800.7919, 305.4562
801.2740, 306.5597
801.7561, 306.7491
802.2382, 304.9047
802.7203, 302.6183
803.2025, 301.6447
803.6846, 301.5453
804.1667, 301.3072
804.6488, 300.6145
805.1309, 299.6739
805.6130, 298.3298
806.0952, 296.8275
806.5773, 295.6079
807.0594, 294.6540
807.5416, 294.1551
808.0237, 294.4030
808.5058, 294.8201
808.9879, 293.9650
809.4700, 292.1092
809.9521, 290.4712
810.4343, 289.9269
810.9164, 289.2878
811.3985, 287.1351
811.8806, 284.2654
812.3627, 282.3525
812.8448, 282.8071
813.3270, 283.0235
813.8091, 282.4551
814.2912, 281.4575
814.7733, 280.7443
815.2554, 280.3109
815.7375, 280.3239
816.2197, 281.1403
816.7018, 281.8654
817.1839, 280.9063
817.6660, 278.7023
818.1481, 276.2565
818.6302, 273.3925
819.1124, 271.0954
819.5945, 270.4611
820.0766, 270.5663
820.5587, 269.5052
821.0408, 266.0627
821.5229, 263.6849
822.0051, 263.0749
822.4872, 263.3965
822.9693, 263.1343
823.4514, 262.3490
823.9335, 261.7611
824.4156, 261.7057
824.8978, 261.5600
825.3799, 260.2603
825.8620, 258.4970
826.3441, 257.4382
826.8262, 258.9352
827.3083, 259.2133
827.7905, 256.0492
828.2726, 251.9009
828.7547, 249.8983
829.2368, 250.6780
829.7189, 251.1404
830.2010, 251.0111
830.6832, 250.1303
831.1653, 247.6890
831.6474, 244.3236
832.1295, 241.7449
832.6116, 240.5855
833.0938, 239.8206
833.5759, 238.9129
834.0580, 237.9717
834.5401, 237.1250
835.0222, 236.7784
835.5043, 235.8725
835.9865, 234.1217
836.4686, 232.1768
836.9507, 230.9050
837.4328, 230.2604
837.9149, 228.8591
838.3970, 226.4002
838.8792, 224.0562
839.3613, 223.1858
839.8434, 223.0962
840.3255, 222.9990
840.8076, 222.9220
841.2897, 222.0982
841.7719, 219.6758
842.2540, 216.8327
842.7361, 214.3665
843.2182, 212.1945
843.7003, 210.9349
844.1824, 210.8857
844.6646, 210.6879
845.1467, 208.5662
845.6288, 205.4165
846.1109, 203.7338
846.5930, 203.7335
847.0751, 203.9087
847.5573, 203.5093
848.0394, 202.7127
848.5215, 201.5032
849.0036, 199.7470
849.4857, 198.5594
849.9678, 198.5062
850.4500, 198.1248
850.9321, 196.3360
851.4142, 193.3202
851.8963, 191.3512
852.3784, 190.3973
852.8605, 189.5327
853.3427, 187.7619
853.8248, 185.9901
854.3069, 185.4454
854.7890, 186.0077
855.2711, 186.1119
855.7532, 184.7262
856.2354, 183.3379
856.7175, 182.4668
857.1996, 182.0569
857.6818, 181.7112
858.1639, 181.4458
858.6460, 181.1018
859.1281, 180.6811
859.6102, 180.0687
860.0923, 178.9131
860.5745, 177.3483
861.0566, 175.8745
861.5387, 174.7893
862.0208, 173.7709
862.5029, 172.4801
862.9850, 171.1448
863.4672, 170.4928
863.9493, 170.8553
864.4314, 171.0425
864.9135, 170.7584
865.3956, 170.1945
865.8777, 169.9789
866.3599, 169.8904
866.8420, 168.8966
867.3241, 165.9131
867.8062, 163.1915
868.2883, 162.6625
868.7704, 163.3901
869.2526, 164.0003
869.7347, 165.0105
870.2168, 164.5263
870.6989, 161.4060
871.1810, 158.0174
871.6631, 158.0935
872.1453, 161.3709
872.6274, 162.7504
873.1095, 161.2403
873.5916, 159.0853
874.0737, 158.7404
874.5558, 159.0480
875.0380, 158.4113
875.5201, 156.0557
876.0022, 154.3182
876.4843, 154.1672
876.9664, 154.4838
877.4485, 154.5679
877.9307, 154.3490
878.4128, 154.6234
878.8949, 155.5178
879.3770, 155.9293
879.8591, 154.3528
880.3412, 151.9448
880.8234, 150.3038
881.3055, 149.5650
881.7876, 149.9353
882.2697, 153.3157
882.7518, 156.1363
883.2339, 156.1319
883.7161, 153.4953
884.1982, 151.7953
884.6803, 151.3197
885.1624, 150.5564
885.6445, 148.1316
886.1266, 145.2621
886.6088, 145.2357
887.0909, 147.4648
887.5730, 149.5095
888.0551, 150.3711
888.5372, 150.5015
889.0193, 149.7561
889.5015, 148.4382
889.9836, 147.4942
890.4657, 146.9804
890.9478, 146.7447
891.4299, 146.8041
891.9120, 147.0560
892.3942, 147.6325
892.8763, 148.2980
893.3584, 147.9156
893.8405, 145.5632
894.3226, 143.4418
894.8047, 143.5307
895.2869, 144.6423
895.7690, 145.3240
896.2511, 145.2731
896.7332, 144.7530
897.2153, 143.3923
897.6974, 142.1716
898.1796, 142.5253
898.6617, 144.1321
899.1438, 144.5422
899.6259, 143.4749
900.1080, 142.2377
900.5901, 142.0215
901.0723, 142.0859
901.5544, 141.5661
902.0365, 140.1868
902.5186, 139.7028
903.0007, 140.6989
903.4828, 142.0125
903.9650, 143.4539
904.4471, 144.8411
904.9292, 143.8935
905.4113, 140.7385
905.8935, 138.4248
906.3756, 140.2820
906.8577, 142.7948
907.3398, 141.7118
907.8220, 138.0446
908.3041, 136.0196
908.7862, 138.8615
909.2683, 140.7626
909.7504, 140.1411
910.2325, 138.0405
910.7147, 137.0116
911.1968, 137.0314
911.6789, 137.2772
912.1610, 137.5735
912.6431, 137.8494
913.1252, 137.7268
913.6074, 137.6220
914.0895, 138.2264
914.5716, 140.5837
915.0537, 142.2210
915.5358, 143.0067
916.0179, 142.7799
916.5001, 140.8938
916.9822, 137.1873
917.4643, 135.2002
917.9464, 135.2513
918.4285, 135.9517
918.9106, 136.5169
919.3928, 136.6916
919.8749, 135.8753
920.3570, 133.9756
920.8391, 132.6606
921.3212, 132.4627
921.8033, 132.9843
922.2855, 134.4049
922.7676, 136.5469
923.2497, 137.3712
923.7318, 136.8570
924.2139, 135.9493
924.6960, 134.8983
925.1782, 133.9225
925.6603, 133.3904
926.1424, 133.1729
926.6245, 132.9347
927.1066, 132.3655
927.5887, 132.0120
928.0709, 132.0200
928.5530, 132.2634
929.0351, 132.5674
929.5172, 132.9401
929.9993, 133.1176
930.4814, 132.9752
930.9636, 132.9095
931.4457, 133.6103
931.9278, 134.5718
932.4099, 135.1150
932.8920, 135.0659
933.3741, 134.6659
933.8563, 133.5453
934.3384, 132.4944
934.8205, 131.9829
935.3026, 132.0066
935.7847, 132.7632
936.2668, 134.3098
936.7490, 135.4371
937.2311, 134.9332
937.7132, 133.7375
938.1953, 132.7250
938.6774, 131.9683
939.1595, 131.7028
939.6417, 132.5717
940.1238, 133.2563
940.6059, 133.3509
941.0880, 133.0495
941.5701, 133.0712
942.0522, 133.3923
942.5344, 132.9929
943.0165, 131.1989
943.4986, 129.3310
943.9807, 128.5525
944.4628, 128.7322
944.9449, 129.7668
945.4271, 133.4342
945.9092, 134.7394
946.3913, 131.9480
946.8734, 128.5301
947.3555, 127.8535
947.8376, 129.7563
948.3198, 131.9199
948.8019, 134.2405
949.2840, 135.8799
949.7661, 136.1180
950.2482, 135.3642
950.7303, 133.5078
951.2125, 130.6003
951.6946, 128.7916
952.1767, 128.8613
952.6588, 129.0836
953.1409, 128.8232
953.6230, 128.3190
954.1052, 128.3287
954.5873, 128.8246
955.0695, 129.6792
955.5516, 131.2258
956.0337, 132.5601
956.5158, 133.0008
956.9979, 132.7582
957.4800, 132.1531
957.9622, 131.2068
958.4443, 129.8342
958.9264, 127.6537
959.4085, 125.7820
959.8906, 125.6840
960.3727, 126.9467
960.8549, 128.1415
961.3370, 129.1358
961.8191, 129.9061
962.3012, 130.5137
962.7833, 130.8447
963.2654, 130.6245
963.7476, 129.8511
964.2297, 129.8170
964.7118, 130.9621
965.1939, 131.2944
965.6760, 129.4835
966.1581, 126.7355
966.6403, 125.6694
967.1224, 125.8914
967.6045, 126.2018
968.0866, 126.1607
968.5687, 126.0106
969.0508, 125.6602
969.5330, 125.3410
970.0151, 125.3525
970.4972, 125.7157
970.9793, 126.4732
971.4614, 127.7913
971.9435, 128.7204
972.4257, 127.7832
972.9078, 126.0017
973.3899, 124.8157
973.8720, 124.4110
974.3541, 124.4971
974.8362, 125.3305
975.3184, 126.2790
975.8005, 127.0599
976.2826, 127.7096
976.7647, 128.5626
977.2468, 129.6094
977.7289, 130.1140
978.2111, 129.5543
978.6932, 128.5076
979.1753, 127.2264
979.6574, 125.9944
980.1395, 125.3476
980.6216, 126.1243
981.1038, 126.4734
981.5859, 126.0323
982.0680, 125.4691
982.5501, 125.8187
983.0322, 126.8585
983.5143, 126.7433
983.9965, 125.2648
984.4786, 124.1596
984.9607, 125.1530
985.4428, 126.7047
985.9249, 127.8669
986.4070, 128.5130
986.8892, 128.1060
987.3713, 126.0120
987.8534, 124.6549
988.3355, 125.2114
988.8176, 126.8222
989.2997, 127.8081
989.7819, 128.2146
990.2640, 128.1520
990.7461, 127.3084
991.2282, 126.5389
991.7103, 126.0605
992.1924, 125.9304
992.6746, 126.2063
993.1567, 126.9300
993.6388, 128.0788
994.1209, 129.8228
994.6030, 130.9300
995.0851, 129.8273
995.5673, 127.6773
996.0494, 125.5490
996.5315, 123.6364
997.0136, 123.1516
997.4957, 126.5372
997.9778, 128.9087
998.4600, 128.4650
998.9421, 126.1907
999.4242, 124.7451
999.9063, 124.1461
1000.388, 124.6699
1000.871, 127.0077
1001.353, 129.0616
1001.835, 128.6522
1002.317, 127.0618
1002.799, 125.7824
1003.281, 124.9123
1003.763, 124.7642
1004.245, 125.6250
1004.728, 126.5248
1005.210, 126.5825
1005.692, 126.1044
1006.174, 126.1892
1006.656, 126.7337
1007.138, 126.8809
1007.620, 125.5185
1008.102, 124.3518
1008.584, 124.4225
1009.067, 125.2191
1009.549, 125.5485
1010.031, 125.3473
1010.513, 125.2342
1010.995, 125.3531
1011.477, 125.5260
1011.959, 125.5515
1012.441, 125.4856
1012.924, 125.3713
1013.406, 125.1675
1013.888, 125.1442
1014.370, 125.2926
1014.852, 125.7082
1015.334, 126.7119
1015.816, 128.0531
1016.298, 127.8322
1016.780, 126.3057
1017.263, 125.3636
1017.745, 126.9438
1018.227, 128.5100
1018.709, 127.8939
1019.191, 126.2676
1019.673, 126.0537
1020.155, 128.1523
1020.637, 129.2070
1021.120, 128.7854
1021.602, 127.8699
1022.084, 127.5475
1022.566, 127.5005
1023.048, 126.9258
1023.530, 125.7603
1024.012, 125.2869
1024.494, 126.9855
1024.976, 128.4439
1025.458, 128.6744
1025.941, 127.9237
1026.423, 127.0150
1026.905, 125.9745
1027.387, 125.4150
1027.869, 125.6782
1028.351, 126.2321
1028.833, 126.9659
1029.316, 127.5182
1029.798, 127.3444
1030.280, 125.6533
1030.762, 125.0210
1031.244, 125.8253
1031.726, 126.7445
1032.208, 126.7412
1032.690, 126.1002
1033.172, 125.5444
1033.655, 125.0719
1034.137, 124.5992
1034.619, 123.8265
1035.101, 123.3570
1035.583, 123.5764
1036.065, 124.1715
1036.547, 124.5792
1037.029, 124.7851
1037.511, 125.1203
1037.994, 125.6065
1038.476, 126.4140
1038.958, 128.5724
1039.440, 130.5816
1039.922, 130.4958
1040.404, 127.7682
1040.886, 126.0697
1041.368, 125.8762
1041.851, 126.0442
1042.333, 126.1187
1042.815, 126.2020
1043.297, 126.7671
1043.779, 127.5805
1044.261, 127.8748
1044.743, 126.7300
1045.225, 126.0101
1045.708, 127.0883
1046.190, 128.4753
1046.672, 128.6858
1047.154, 127.5792
1047.636, 126.6936
1048.118, 126.0461
1048.600, 125.7886
1049.082, 126.5167
1049.564, 127.3099
1050.047, 127.1184
1050.529, 126.1407
1051.011, 125.4124
1051.493, 124.7659
1051.975, 125.0803
1052.457, 126.9223
1052.939, 128.9663
1053.421, 128.7720
1053.903, 127.2447
1054.386, 126.5782
1054.868, 127.2781
1055.350, 127.9045
1055.832, 128.0113
1056.314, 127.6160
1056.796, 126.4823
1057.278, 124.8108
1057.760, 124.3640
1058.243, 125.0981
1058.725, 126.0508
1059.207, 126.9494
1059.689, 127.6795
1060.171, 128.3863
1060.653, 128.7736
1061.135, 128.3315
1061.617, 126.4776
1062.099, 125.0410
1062.582, 124.0237
1063.064, 123.4079
1063.546, 123.3165
1064.028, 123.5476
1064.510, 123.4510
1064.992, 123.2096
1065.474, 123.8179
1065.956, 127.4218
1066.438, 129.6097
1066.921, 128.7166
1067.403, 126.4670
1067.885, 125.9540
1068.367, 126.9325
1068.849, 127.1271
1069.331, 126.1581
1069.813, 124.8950
1070.295, 123.4936
1070.778, 122.4362
1071.260, 122.2784
1071.742, 122.9544
1072.224, 123.4371
1072.706, 123.6833
1073.188, 124.0383
1073.670, 124.7910
1074.152, 125.4110
1074.635, 124.8806
1075.117, 123.8149
1075.599, 123.1906
1076.081, 123.3946
1076.563, 123.8020
1077.045, 124.5865
1077.527, 125.1380
1078.009, 124.8417
1078.491, 123.9755
1078.974, 123.7077
1079.456, 123.9191
1079.938, 124.0047
1080.420, 123.0002
1080.902, 122.5832
1081.384, 124.5220
1081.866, 126.7699
1082.348, 126.3055
1082.831, 122.9566
1083.313, 121.6832
1083.795, 123.0029
1084.277, 124.3167
1084.759, 122.9284
1085.241, 121.0199
1085.723, 120.4555
1086.205, 121.2084
1086.688, 121.8282
1087.170, 122.1801
1087.652, 122.8255
1088.134, 124.1188
1088.616, 125.1994
1089.098, 124.2411
1089.580, 122.4202
1090.062, 121.7761
1090.544, 122.9172
1091.026, 123.9690
1091.509, 124.9026
1091.991, 125.1551
1092.473, 124.2686
1092.955, 122.5887
1093.437, 121.0403
1093.919, 119.7575
1094.401, 119.3828
1094.883, 120.8161
1095.366, 122.0928
1095.848, 121.8863
1096.330, 121.4337
1096.812, 122.1737
1097.294, 124.4066
1097.776, 124.2945
1098.258, 121.8047
1098.740, 119.5985
1099.223, 119.7047
1099.705, 120.6030
1100.187, 121.2759
1100.669, 121.7249
1101.151, 121.9995
1101.633, 121.9953
1102.115, 122.2746
1102.597, 123.0300
1103.079, 123.5053
1103.562, 122.0831
1104.044, 120.2934
1104.526, 120.8397
1105.008, 123.6910
1105.490, 125.6467
1105.972, 126.0361
1106.454, 125.0812
1106.936, 122.1678
1107.418, 118.8630
1107.901, 118.6850
1108.383, 120.5993
1108.865, 121.6373
1109.347, 121.0571
1109.829, 120.4531
1110.311, 120.3468
1110.793, 120.6383
1111.275, 121.4765
1111.758, 122.6521
1112.240, 122.7306
1112.722, 121.8580
1113.204, 121.5117
1113.686, 122.7817
1114.168, 123.6771
1114.650, 122.0470
1115.132, 119.7909
1115.615, 119.0467
1116.097, 120.1541
1116.579, 120.7092
1117.061, 120.6524
1117.543, 120.7652
1118.025, 121.9326
1118.507, 123.2046
1118.989, 123.7734
1119.471, 123.6530
1119.953, 122.7297
1120.436, 120.0630
1120.918, 118.9576
1121.400, 119.9366
1121.882, 121.2855
1122.364, 121.0034
1122.846, 120.1700
1123.328, 121.0634
1123.810, 123.3696
1124.293, 124.6126
1124.775, 123.3833
1125.257, 121.7647
1125.739, 119.7652
1126.221, 118.0671
1126.703, 118.0227
1127.185, 119.1263
1127.667, 119.9577
1128.150, 120.3360
1128.632, 120.3084
1129.114, 119.1693
1129.596, 118.4877
1130.078, 119.1233
1130.560, 120.5412
1131.042, 121.0979
1131.524, 120.8902
1132.006, 120.5991
1132.489, 120.4749
1132.971, 119.9562
1133.453, 117.2999
1133.935, 115.2956
1134.417, 116.8073
1134.899, 121.5431
1135.381, 122.5499
1135.863, 119.8481
1136.346, 117.8706
1136.828, 118.9684
1137.310, 120.6698
1137.792, 120.6949
1138.274, 119.9964
1138.756, 119.9179
1139.238, 120.8276
1139.720, 120.9351
1140.203, 120.1522
1140.685, 119.1398
1141.167, 117.9486
1141.649, 117.0550
1142.131, 117.5215
1142.613, 118.6517
1143.095, 118.9256
1143.577, 117.1831
1144.059, 116.3281
1144.542, 116.5795
1145.024, 117.3521
1145.506, 118.1846
1145.988, 119.1379
1146.470, 120.8034
1146.952, 122.8185
1147.434, 123.6389
1147.916, 121.7980
1148.398, 119.9883
1148.881, 118.3263
1149.363, 117.2138
1149.845, 117.8299
1150.327, 119.2848
1150.809, 118.8840
1151.291, 116.5725
1151.773, 115.2576
1152.255, 117.0746
1152.738, 119.0719
1153.220, 120.7405
1153.702, 121.7308
1154.184, 120.7510
1154.666, 118.4646
1155.148, 117.9491
1155.630, 119.9074
1156.112, 120.9970
1156.594, 117.6232
1157.077, 114.8954
1157.559, 115.8762
1158.041, 119.1933
1158.523, 119.5126
1159.005, 117.3020
1159.487, 116.2999
1159.969, 117.8013
1160.451, 119.5536
1160.933, 120.7218
1161.416, 120.8800
1161.898, 119.3706
1162.380, 116.4637
1162.862, 114.8531
1163.344, 114.5026
1163.826, 114.4707
1164.308, 114.5319
1164.790, 114.4938
1165.273, 113.8751
1165.755, 113.2999
1166.237, 113.6893
1166.719, 115.2979
1167.201, 114.7755
1167.683, 111.9354
1168.165, 110.2309
1168.647, 112.4235
1169.130, 115.3880
1169.612, 116.2233
1170.094, 115.9035
1170.576, 115.9197
1171.058, 116.5811
1171.540, 116.9149
1172.022, 116.9433
1172.504, 116.4537
1172.986, 114.3091
1173.469, 112.3764
1173.951, 113.6074
1174.433, 112.5044
1174.915, 112.6233
1175.397, 114.2827
1175.879, 114.0338
1176.361, 117.6466
1176.843, 120.9389
1177.326, 119.4567
1177.808, 116.1105
1178.290, 114.4668
1178.772, 114.2622
1179.254, 113.8545
1179.736, 112.4878
1180.218, 112.2955
1180.700, 113.8057
1181.182, 115.4760
1181.665, 115.2181
1182.147, 114.3048
1182.629, 114.9207
1183.111, 116.8815
1183.593, 117.9717
1184.075, 117.2946
1184.557, 116.9527
1185.039, 117.5169
1185.521, 117.9501
1186.004, 116.2055
1186.486, 113.6921
1186.968, 112.8228
1187.450, 113.7823
1187.932, 114.8522
1188.414, 116.2239
1188.896, 116.5148
1189.378, 114.9924
1189.861, 113.0410
1190.343, 113.2291
1190.825, 114.4965
1191.307, 114.8918
1191.789, 114.0723
1192.271, 113.1683
1192.753, 111.9256
1193.235, 111.6235
1193.718, 113.0798
1194.200, 115.0376
1194.682, 114.6852
1195.164, 113.1526
1195.646, 112.9855
1196.128, 115.0704
1196.610, 116.0886
1197.092, 114.6926
1197.574, 113.2603
1198.057, 112.7251
1198.539, 112.7042
1199.021, 112.0572
1199.503, 111.2847
1199.985, 111.7271
1200.467, 114.2951
1200.949, 115.9486
1201.431, 115.9283
1201.913, 115.2679
1202.396, 114.1689
1202.878, 113.0080
1203.360, 112.7940
1203.842, 113.2946
1204.324, 114.0018
1204.806, 115.1613
1205.288, 115.4089
1205.770, 113.9356
1206.253, 112.5852
1206.735, 112.5040
1207.217, 113.2579
1207.699, 113.6020
1208.181, 113.7280
1208.663, 114.2549
1209.145, 116.3663
1209.627, 116.7352
1210.109, 113.8537
1210.592, 111.1824
1211.074, 111.6455
1211.556, 113.9045
1212.038, 113.4064
1212.520, 111.1794
1213.002, 110.1686
1213.484, 113.2861
1213.966, 114.5129
1214.448, 112.1089
1214.931, 109.7714
1215.413, 111.1241
1215.895, 114.5620
1216.377, 115.7513
1216.859, 115.0585
1217.341, 113.7138
1217.823, 110.9643
1218.305, 109.4833
1218.788, 109.7625
1219.270, 110.8083
1219.752, 112.0920
1220.234, 113.3912
1220.716, 114.2614
1221.198, 114.6350
1221.680, 114.3174
1222.162, 111.9116
1222.645, 110.9783
1223.127, 112.3543
1223.609, 114.0321
1224.091, 113.9031
1224.573, 112.7662
1225.055, 112.2828
1225.537, 112.3630
1226.019, 112.4402
1226.501, 112.1803
1226.984, 112.1886
1227.466, 112.6253
1227.948, 113.0533
1228.430, 113.0204
1228.912, 112.6785
1229.394, 112.0149
1229.876, 111.2448
1230.358, 111.2730
1230.841, 113.5736
1231.323, 114.0034
1231.805, 111.5660
1232.287, 109.0741
1232.769, 110.2495
1233.251, 112.8092
1233.733, 112.9789
1234.215, 111.1247
1234.698, 109.7075
1235.180, 109.0786
1235.662, 109.0519
1236.144, 109.7227
1236.626, 110.5410
1237.108, 110.9758
1237.590, 111.1778
1238.072, 111.0952
1238.554, 110.9034
1239.036, 111.5629
1239.519, 113.7465
1240.001, 114.6987
1240.483, 113.9467
1240.965, 112.6134
1241.447, 111.2813
1241.929, 110.3919
1242.411, 110.8090
1242.893, 112.2024
1243.376, 112.7673
1243.858, 112.2048
1244.340, 112.0383
1244.822, 112.5463
1245.304, 112.9448
1245.786, 112.0533
1246.268, 111.0920
1246.750, 111.5514
1247.233, 110.9800
1247.715, 110.6745
1248.197, 111.2613
1248.679, 110.5880
1249.161, 111.3595
1249.643, 112.5503
1250.125, 113.8260
1250.607, 114.6660
1251.089, 114.1760
1251.572, 114.9727
1252.054, 113.2418
1252.536, 114.8535
1253.018, 115.3749
1253.500, 114.4319
1253.982, 113.0428
1254.464, 111.3906
1254.946, 110.1204
1255.428, 109.5264
1255.911, 109.6338
1256.393, 110.9982
1256.875, 113.4035
1257.357, 114.7597
1257.839, 114.7753
1258.321, 114.4119
1258.803, 112.5050
1259.285, 114.9393
1259.768, 116.3131
1260.250, 116.6835
1260.732, 113.0451
1261.214, 114.5832
1261.696, 114.0468
1262.178, 113.4253
1262.660, 115.6921
1263.142, 112.6367
1263.625, 114.8576
1264.107, 114.9723
1264.589, 116.0510
1265.071, 115.0423
1265.553, 114.6784
1266.035, 116.4024
1266.517, 116.9703
1266.999, 115.7213
1267.481, 116.8613
1267.964, 113.7330
1268.446, 114.3502
1268.928, 116.5833
1269.410, 115.4393
1269.892, 116.6174
1270.374, 116.9111
1270.856, 113.1856
1271.338, 116.4499
1271.820, 116.6914
1272.303, 113.8290
1272.785, 116.8539
1273.267, 114.4194
1273.749, 113.9335
1274.231, 114.9142
1274.713, 114.3660
1275.195, 116.2282
1275.677, 115.7683
1276.160, 115.1011
1276.642, 115.3391
1277.124, 113.0117
1277.606, 115.4438
1278.088, 114.6247
1278.570, 115.4217
1279.052, 116.5850
1279.534, 114.9436
1280.016, 116.2714
1280.499, 112.9946
1280.981, 113.5707
1281.463, 113.7319
1281.945, 116.3558
1282.427, 113.1014
1282.909, 113.5704
1283.391, 115.6249
1283.873, 115.4610
1284.356, 116.2246
1284.838, 114.0020
1285.320, 113.1643
1285.802, 112.7740
1286.284, 112.9435
1286.766, 114.7990
1287.248, 115.7490
1287.730, 114.6485
1288.213, 112.8927
1288.695, 112.2451
1289.177, 112.6012
1289.659, 114.2501
1290.141, 116.9267
1290.623, 118.3122
1291.105, 116.4109
1291.587, 114.9976
1292.069, 114.5051
1292.552, 114.8580
1293.034, 117.0453
1293.516, 119.3643
1293.998, 118.5550
1294.480, 115.2613
1294.962, 113.9014
1295.444, 115.6300
1295.926, 116.3213
1296.408, 115.3489
1296.891, 114.5090
1297.373, 116.2722
1297.855, 118.2137
1298.337, 117.6225
1298.819, 115.4161
1299.301, 114.3791
1299.783, 114.5767
1300.265, 115.6031
1300.748, 117.4350
1301.230, 118.3255
1301.712, 115.8402
1302.194, 113.4159
1302.676, 112.6227
##END=



