##NAMES=Pucherite
##RRUFFID=R080137
##IDEAL CHEMISTRY=Bi^3+^V^5+^O_4_
##LOCALITY=Fazenda da Posse, Sao Jose do Brejauba, Minas Gerais, Brazil
##OWNER=RRUFF
##SOURCE=Luiz Menezes
##DESCRIPTION=Reddish brown tabular crystals associated with greenish yellow bismutite
##STATUS=The identification of this mineral has been confirmed by single-crystal X-ray diffraction.
##URL=rruff.info/R080137
93.78320, 4967.935
94.26532, 5093.213
94.74744, 5118.304
95.22955, 5029.456
95.71167, 4880.696
96.19379, 4723.499
96.67590, 4565.002
97.15802, 4413.745
97.64014, 4265.930
98.12225, 4125.716
98.60437, 4000.981
99.08649, 3897.182
99.56860, 3809.319
100.0507, 3725.583
100.5328, 3637.680
101.0150, 3557.030
101.4971, 3492.397
101.9792, 3443.235
102.4613, 3406.266
102.9434, 3381.148
103.4255, 3366.545
103.9077, 3363.271
104.3898, 3371.696
104.8719, 3390.488
105.3540, 3418.800
105.8361, 3465.096
106.3182, 3506.179
106.8004, 3544.162
107.2825, 3573.268
107.7646, 3588.385
108.2467, 3587.325
108.7288, 3569.213
109.2109, 3519.518
109.6931, 3431.171
110.1752, 3318.846
110.6573, 3174.915
111.1394, 3007.386
111.6215, 2832.530
112.1036, 2664.106
112.5858, 2501.241
113.0679, 2352.428
113.5500, 2215.081
114.0321, 2092.061
114.5142, 1987.643
114.9964, 1902.428
115.4785, 1829.312
115.9606, 1761.782
116.4427, 1699.421
116.9248, 1646.344
117.4069, 1606.699
117.8891, 1576.945
118.3712, 1549.499
118.8533, 1523.022
119.3354, 1499.043
119.8175, 1478.066
120.2996, 1459.923
120.7818, 1444.908
121.2639, 1434.099
121.7460, 1427.637
122.2281, 1421.332
122.7102, 1412.870
123.1923, 1405.545
123.6745, 1401.536
124.1566, 1401.120
124.6387, 1402.650
125.1208, 1403.516
125.6029, 1402.132
126.0850, 1403.710
126.5672, 1409.883
127.0493, 1417.860
127.5314, 1425.420
128.0135, 1431.710
128.4956, 1437.249
128.9777, 1443.657
129.4599, 1451.826
129.9420, 1459.903
130.4241, 1467.904
130.9062, 1475.743
131.3883, 1483.168
131.8705, 1489.963
132.3526, 1496.412
132.8347, 1504.194
133.3168, 1513.109
133.7989, 1523.192
134.2810, 1535.170
134.7632, 1548.712
135.2453, 1561.952
135.7274, 1573.186
136.2095, 1583.368
136.6916, 1595.625
137.1737, 1611.051
137.6559, 1628.097
138.1380, 1645.648
138.6201, 1663.908
139.1022, 1681.820
139.5843, 1697.792
140.0664, 1713.209
140.5486, 1729.993
141.0307, 1749.207
141.5128, 1770.355
141.9949, 1791.777
142.4770, 1813.774
142.9591, 1835.752
143.4413, 1858.400
143.9234, 1880.764
144.4055, 1901.095
144.8876, 1917.131
145.3697, 1928.790
145.8518, 1943.995
146.3340, 1972.734
146.8161, 1996.156
147.2982, 2008.127
147.7803, 2009.296
148.2624, 2003.520
148.7445, 1994.186
149.2267, 1980.928
149.7088, 1965.358
150.1909, 1949.050
150.6730, 1929.904
151.1551, 1904.360
151.6372, 1872.992
152.1194, 1841.812
152.6015, 1818.117
153.0836, 1805.360
153.5657, 1792.708
154.0478, 1778.269
154.5299, 1764.792
155.0121, 1755.110
155.4942, 1749.981
155.9763, 1748.163
156.4584, 1748.870
156.9405, 1752.254
157.4227, 1755.361
157.9048, 1754.848
158.3869, 1753.595
158.8690, 1757.966
159.3511, 1770.563
159.8332, 1788.294
160.3154, 1806.504
160.7975, 1824.969
161.2796, 1846.249
161.7617, 1872.192
162.2438, 1902.785
162.7259, 1935.488
163.2081, 1969.280
163.6902, 2006.044
164.1723, 2047.627
164.6544, 2094.509
165.1365, 2142.776
165.6186, 2187.995
166.1008, 2228.617
166.5829, 2272.488
167.0650, 2324.398
167.5471, 2377.597
168.0292, 2426.830
168.5113, 2471.010
168.9935, 2513.772
169.4756, 2561.040
169.9577, 2614.605
170.4398, 2670.195
170.9219, 2727.295
171.4040, 2785.747
171.8862, 2845.385
172.3683, 2906.155
172.8504, 2968.042
173.3325, 3031.701
173.8146, 3097.589
174.2967, 3164.244
174.7789, 3232.273
175.2610, 3300.918
175.7431, 3368.090
176.2252, 3433.273
176.7073, 3498.092
177.1894, 3567.905
177.6716, 3648.070
178.1537, 3726.318
178.6358, 3799.683
179.1179, 3869.809
179.6000, 3941.908
180.0821, 4019.495
180.5643, 4098.646
181.0464, 4167.410
181.5285, 4224.100
182.0106, 4276.265
182.4927, 4330.956
182.9749, 4385.657
183.4570, 4429.499
183.9391, 4459.056
184.4212, 4470.879
184.9033, 4465.775
185.3854, 4443.296
185.8676, 4404.612
186.3497, 4350.018
186.8318, 4279.464
187.3139, 4194.750
187.7960, 4091.343
188.2781, 3975.072
188.7603, 3850.754
189.2424, 3716.166
189.7245, 3579.680
190.2066, 3452.493
190.6887, 3336.322
191.1708, 3222.588
191.6530, 3104.659
192.1351, 2989.139
192.6172, 2882.212
193.0993, 2786.744
193.5814, 2700.063
194.0635, 2617.909
194.5457, 2539.986
195.0278, 2468.235
195.5099, 2403.288
195.9920, 2343.363
196.4741, 2286.740
196.9562, 2232.643
197.4384, 2181.607
197.9205, 2134.858
198.4026, 2094.896
198.8847, 2056.672
199.3668, 2019.321
199.8489, 1983.265
200.3311, 1949.046
200.8132, 1916.946
201.2953, 1886.744
201.7774, 1857.956
202.2595, 1830.841
202.7416, 1804.916
203.2238, 1780.624
203.7059, 1757.290
204.1880, 1733.322
204.6701, 1707.819
205.1522, 1681.699
205.6344, 1659.383
206.1165, 1642.858
206.5986, 1627.061
207.0807, 1611.607
207.5628, 1596.104
208.0449, 1579.688
208.5271, 1561.724
209.0092, 1542.800
209.4913, 1525.638
209.9734, 1510.342
210.4555, 1496.196
210.9376, 1483.516
211.4198, 1471.907
211.9019, 1460.249
212.3840, 1448.307
212.8661, 1435.777
213.3482, 1421.775
213.8303, 1404.508
214.3125, 1388.750
214.7946, 1378.440
215.2767, 1372.602
215.7588, 1366.154
216.2409, 1356.514
216.7230, 1345.117
217.2052, 1334.522
217.6873, 1324.699
218.1694, 1315.957
218.6515, 1308.538
219.1336, 1302.408
219.6157, 1297.649
220.0979, 1296.260
220.5800, 1294.917
221.0621, 1289.129
221.5442, 1277.300
222.0263, 1265.622
222.5084, 1260.972
222.9906, 1264.014
223.4727, 1266.649
223.9548, 1268.568
224.4369, 1267.599
224.9190, 1260.622
225.4011, 1246.749
225.8833, 1231.478
226.3654, 1221.149
226.8475, 1216.531
227.3296, 1213.399
227.8117, 1212.791
228.2938, 1212.200
228.7760, 1209.427
229.2581, 1204.155
229.7402, 1198.898
230.2223, 1197.763
230.7044, 1202.981
231.1866, 1205.111
231.6687, 1201.305
232.1508, 1195.698
232.6329, 1189.941
233.1150, 1184.661
233.5971, 1180.598
234.0793, 1179.389
234.5614, 1183.472
235.0435, 1184.252
235.5256, 1179.149
236.0077, 1172.975
236.4898, 1168.348
236.9720, 1165.893
237.4541, 1164.901
237.9362, 1164.534
238.4183, 1165.088
238.9004, 1165.590
239.3825, 1165.694
239.8647, 1165.996
240.3468, 1167.215
240.8289, 1169.269
241.3110, 1171.162
241.7931, 1171.608
242.2752, 1169.927
242.7574, 1168.634
243.2395, 1168.221
243.7216, 1167.765
244.2037, 1166.346
244.6858, 1164.027
245.1679, 1161.906
245.6501, 1161.271
246.1322, 1162.625
246.6143, 1163.567
247.0964, 1163.103
247.5785, 1163.012
248.0606, 1164.988
248.5428, 1168.908
249.0249, 1172.826
249.5070, 1174.732
249.9891, 1174.214
250.4712, 1174.629
250.9533, 1177.531
251.4355, 1180.126
251.9176, 1179.621
252.3997, 1176.299
252.8818, 1173.833
253.3639, 1175.766
253.8460, 1182.203
254.3282, 1186.202
254.8103, 1185.220
255.2924, 1183.872
255.7745, 1185.739
256.2566, 1190.648
256.7387, 1195.478
257.2209, 1197.639
257.7030, 1197.738
258.1851, 1199.963
258.6672, 1205.910
259.1493, 1212.664
259.6314, 1218.916
260.1136, 1224.526
260.5957, 1228.355
261.0778, 1228.929
261.5599, 1227.364
262.0420, 1227.422
262.5241, 1229.647
263.0063, 1232.878
263.4884, 1236.125
263.9705, 1239.509
264.4526, 1244.298
264.9347, 1251.941
265.4168, 1260.828
265.8990, 1267.814
266.3811, 1272.535
266.8632, 1276.219
267.3453, 1279.833
267.8275, 1283.275
268.3096, 1285.509
268.7917, 1284.880
269.2738, 1284.062
269.7559, 1286.414
270.2380, 1292.309
270.7202, 1299.636
271.2023, 1307.859
271.6844, 1316.672
272.1665, 1323.945
272.6486, 1328.370
273.1307, 1331.783
273.6129, 1335.675
274.0950, 1340.090
274.5771, 1345.730
275.0592, 1354.239
275.5413, 1364.897
276.0234, 1373.257
276.5056, 1377.743
276.9877, 1380.892
277.4698, 1384.010
277.9519, 1387.355
278.4340, 1392.250
278.9161, 1400.249
279.3983, 1410.655
279.8804, 1420.668
280.3625, 1430.537
280.8446, 1439.173
281.3267, 1444.820
281.8088, 1448.790
282.2910, 1454.293
282.7731, 1463.902
283.2552, 1476.306
283.7373, 1487.176
284.2194, 1496.106
284.7015, 1504.134
285.1837, 1510.929
285.6658, 1517.464
286.1479, 1525.368
286.6300, 1535.682
287.1121, 1547.443
287.5942, 1558.350
288.0764, 1567.867
288.5585, 1577.818
289.0406, 1589.572
289.5227, 1601.780
290.0048, 1612.939
290.4869, 1622.601
290.9691, 1631.171
291.4512, 1638.808
291.9333, 1644.464
292.4154, 1652.607
292.8975, 1666.481
293.3796, 1682.014
293.8618, 1695.790
294.3439, 1706.953
294.8260, 1717.990
295.3081, 1733.181
295.7902, 1754.166
296.2723, 1771.385
296.7545, 1777.929
297.2366, 1783.961
297.7187, 1795.922
298.2008, 1814.017
298.6829, 1833.166
299.1650, 1847.356
299.6472, 1855.858
300.1293, 1866.467
300.6114, 1878.939
301.0935, 1894.401
301.5756, 1915.783
302.0577, 1941.171
302.5399, 1964.946
303.0220, 1981.169
303.5041, 1990.314
303.9862, 2004.082
304.4683, 2025.905
304.9504, 2048.833
305.4326, 2070.908
305.9147, 2092.172
306.3968, 2112.706
306.8789, 2132.020
307.3610, 2150.999
307.8431, 2173.320
308.3253, 2201.317
308.8074, 2229.172
309.2895, 2254.540
309.7716, 2279.184
310.2537, 2304.976
310.7358, 2332.920
311.2180, 2362.199
311.7001, 2390.594
312.1822, 2417.486
312.6643, 2445.405
313.1464, 2474.804
313.6285, 2505.358
314.1107, 2537.238
314.5928, 2570.421
315.0749, 2604.319
315.5570, 2638.354
316.0392, 2673.118
316.5213, 2705.674
317.0034, 2733.621
317.4855, 2761.099
317.9676, 2789.632
318.4497, 2819.667
318.9319, 2851.526
319.4140, 2886.163
319.8961, 2923.906
320.3782, 2960.644
320.8603, 2994.614
321.3424, 3029.111
321.8246, 3065.355
322.3067, 3103.176
322.7888, 3142.214
323.2709, 3181.609
323.7530, 3221.759
324.2351, 3264.558
324.7173, 3312.825
325.1994, 3359.990
325.6815, 3405.129
326.1636, 3447.958
326.6457, 3488.531
327.1278, 3526.534
327.6100, 3562.518
328.0921, 3598.656
328.5742, 3637.411
329.0563, 3670.683
329.5384, 3699.101
330.0205, 3720.750
330.5027, 3734.249
330.9848, 3739.243
331.4669, 3734.845
331.9490, 3718.803
332.4311, 3689.534
332.9132, 3655.576
333.3954, 3616.436
333.8775, 3573.809
334.3596, 3526.359
334.8417, 3475.129
335.3238, 3425.681
335.8059, 3384.411
336.2881, 3351.366
336.7702, 3317.068
337.2523, 3277.948
337.7344, 3241.593
338.2165, 3211.262
338.6986, 3186.132
339.1808, 3163.772
339.6629, 3143.156
340.1450, 3124.085
340.6271, 3105.327
341.1092, 3085.441
341.5913, 3068.936
342.0735, 3057.663
342.5556, 3050.174
343.0377, 3045.075
343.5198, 3042.098
344.0019, 3040.560
344.4840, 3039.602
344.9662, 3039.366
345.4483, 3039.060
345.9304, 3039.503
346.4125, 3039.125
346.8946, 3036.710
347.3767, 3032.060
347.8589, 3025.810
348.3410, 3018.283
348.8231, 3009.473
349.3052, 3000.320
349.7873, 2990.752
350.2694, 2980.991
350.7516, 2971.083
351.2337, 2961.080
351.7158, 2951.396
352.1979, 2941.049
352.6800, 2931.065
353.1621, 2925.399
353.6443, 2925.556
354.1264, 2926.792
354.6085, 2925.682
355.0906, 2923.868
355.5727, 2924.040
356.0548, 2927.296
356.5370, 2932.675
357.0191, 2939.494
357.5012, 2947.905
357.9833, 2955.750
358.4654, 2961.343
358.9475, 2966.389
359.4297, 2972.972
359.9118, 2981.532
360.3939, 2990.492
360.8760, 2998.762
361.3581, 3006.425
361.8402, 3014.116
362.3224, 3021.991
362.8045, 3029.806
363.2866, 3037.920
363.7687, 3046.177
364.2508, 3052.497
364.7329, 3056.015
365.2151, 3057.103
365.6972, 3055.852
366.1793, 3051.921
366.6614, 3047.786
367.1436, 3046.500
367.6257, 3046.491
368.1078, 3042.868
368.5899, 3032.599
369.0720, 3020.471
369.5541, 3010.676
370.0363, 3002.760
370.5184, 2994.046
371.0005, 2984.011
371.4826, 2971.620
371.9647, 2954.808
372.4468, 2933.131
372.9290, 2909.146
373.4111, 2881.249
373.8932, 2852.157
374.3753, 2828.573
374.8574, 2812.949
375.3395, 2798.627
375.8217, 2777.104
376.3038, 2747.659
376.7859, 2717.354
377.2680, 2686.032
377.7501, 2654.581
378.2322, 2622.935
378.7144, 2591.426
379.1965, 2562.102
379.6786, 2536.714
380.1607, 2514.975
380.6428, 2492.295
381.1249, 2467.503
381.6071, 2443.393
382.0892, 2420.395
382.5713, 2398.752
383.0534, 2379.157
383.5355, 2361.887
384.0176, 2346.185
384.4998, 2330.267
384.9819, 2313.933
385.4640, 2297.666
385.9461, 2280.591
386.4282, 2264.186
386.9103, 2249.928
387.3925, 2237.999
387.8746, 2227.297
388.3567, 2216.660
388.8388, 2205.730
389.3209, 2197.690
389.8030, 2192.011
390.2852, 2189.155
390.7673, 2191.250
391.2494, 2196.177
391.7315, 2199.770
392.2136, 2199.453
392.6957, 2196.521
393.1779, 2195.824
393.6600, 2196.371
394.1421, 2201.083
394.6242, 2213.193
395.1063, 2227.571
395.5884, 2239.332
396.0706, 2247.413
396.5527, 2254.318
397.0348, 2263.496
397.5169, 2275.511
397.9990, 2287.319
398.4811, 2298.201
398.9633, 2309.421
399.4454, 2321.713
399.9275, 2334.794
400.4096, 2348.114
400.8917, 2361.449
401.3738, 2374.579
401.8560, 2386.133
402.3381, 2394.099
402.8202, 2404.431
403.3023, 2418.487
403.7844, 2435.748
404.2665, 2456.642
404.7487, 2481.531
405.2308, 2507.321
405.7129, 2529.293
406.1950, 2547.248
406.6771, 2567.821
407.1592, 2593.607
407.6414, 2620.884
408.1235, 2647.823
408.6056, 2674.069
409.0877, 2698.293
409.5698, 2719.494
410.0519, 2738.046
410.5341, 2755.719
411.0162, 2773.416
411.4983, 2786.638
411.9804, 2793.146
412.4625, 2792.878
412.9446, 2784.964
413.4268, 2768.639
413.9089, 2745.667
414.3910, 2717.429
414.8731, 2683.799
415.3553, 2643.714
415.8374, 2595.906
416.3195, 2542.999
416.8016, 2487.488
417.2837, 2429.195
417.7658, 2372.281
418.2480, 2317.345
418.7301, 2264.676
419.2122, 2213.474
419.6943, 2163.833
420.1764, 2118.454
420.6585, 2080.303
421.1407, 2048.879
421.6228, 2017.736
422.1049, 1983.738
422.5870, 1952.994
423.0691, 1928.911
423.5512, 1909.573
424.0334, 1891.525
424.5155, 1873.523
424.9976, 1855.864
425.4797, 1839.233
425.9618, 1823.630
426.4439, 1809.369
426.9261, 1795.874
427.4082, 1784.056
427.8903, 1775.681
428.3724, 1769.984
428.8545, 1763.658
429.3366, 1753.596
429.8188, 1740.070
430.3009, 1730.191
430.7830, 1726.814
431.2651, 1724.194
431.7472, 1722.706
432.2293, 1721.022
432.7115, 1717.619
433.1936, 1711.948
433.6757, 1704.772
434.1578, 1696.895
434.6399, 1687.529
435.1220, 1680.261
435.6042, 1676.923
436.0863, 1674.476
436.5684, 1671.259
437.0505, 1667.609
437.5326, 1665.205
438.0147, 1666.548
438.4969, 1669.632
438.9790, 1666.263
439.4611, 1653.065
439.9432, 1641.970
440.4253, 1640.141
440.9074, 1641.922
441.3896, 1642.041
441.8717, 1639.532
442.3538, 1634.693
442.8359, 1626.584
443.3180, 1615.857
443.8001, 1606.981
444.2823, 1601.414
444.7644, 1596.711
445.2465, 1590.317
445.7286, 1582.601
446.2107, 1575.425
446.6928, 1569.737
447.1750, 1564.504
447.6571, 1558.680
448.1392, 1552.315
448.6213, 1546.012
449.1034, 1540.149
449.5855, 1534.545
450.0677, 1528.640
450.5498, 1522.152
451.0319, 1516.004
451.5140, 1510.648
451.9961, 1505.668
452.4782, 1500.652
452.9604, 1495.490
453.4425, 1490.255
453.9246, 1485.146
454.4067, 1480.305
454.8888, 1473.971
455.3709, 1464.585
455.8531, 1455.718
456.3352, 1448.710
456.8173, 1443.109
457.2994, 1438.176
457.7815, 1433.601
458.2636, 1429.033
458.7458, 1423.596
459.2279, 1416.502
459.7100, 1410.191
460.1921, 1405.746
460.6742, 1401.145
461.1563, 1395.106
461.6385, 1387.742
462.1206, 1379.825
462.6027, 1371.195
463.0848, 1362.634
463.5669, 1359.104
464.0491, 1364.504
464.5312, 1366.957
465.0133, 1360.005
465.4954, 1349.567
465.9775, 1341.557
466.4597, 1337.391
466.9418, 1334.026
467.4239, 1327.429
467.9060, 1318.522
468.3881, 1314.043
468.8702, 1316.735
469.3524, 1320.523
469.8345, 1321.077
470.3166, 1318.790
470.7987, 1314.041
471.2808, 1304.348
471.7629, 1294.267
472.2451, 1288.573
472.7272, 1286.447
473.2093, 1283.411
473.6914, 1277.189
474.1735, 1269.851
474.6556, 1265.613
475.1378, 1265.239
475.6199, 1264.772
476.1020, 1264.262
476.5841, 1262.982
477.0662, 1259.794
477.5483, 1254.941
478.0305, 1250.003
478.5126, 1246.194
478.9947, 1243.382
479.4768, 1240.613
479.9589, 1237.626
480.4410, 1234.950
480.9232, 1233.137
481.4053, 1231.405
481.8874, 1228.832
482.3695, 1225.252
482.8516, 1221.390
483.3337, 1217.917
483.8159, 1214.722
484.2980, 1212.925
484.7801, 1213.816
485.2622, 1214.711
485.7443, 1215.234
486.2264, 1215.021
486.7086, 1213.323
487.1907, 1209.541
487.6728, 1205.198
488.1549, 1202.834
488.6370, 1202.633
489.1191, 1201.227
489.6013, 1196.520
490.0834, 1191.941
490.5655, 1191.152
491.0476, 1193.544
491.5297, 1194.905
492.0118, 1192.680
492.4940, 1189.003
492.9761, 1186.903
493.4582, 1186.318
493.9403, 1184.688
494.4224, 1180.198
494.9045, 1174.294
495.3867, 1170.703
495.8688, 1169.673
496.3509, 1169.691
496.8330, 1171.532
497.3151, 1173.603
497.7972, 1173.932
498.2794, 1172.460
498.7615, 1170.833
499.2436, 1170.584
499.7257, 1171.564
500.2078, 1171.103
500.6899, 1168.231
501.1721, 1165.062
501.6542, 1160.547
502.1363, 1156.584
502.6184, 1156.211
503.1005, 1159.765
503.5826, 1163.273
504.0648, 1160.607
504.5469, 1150.627
505.0290, 1146.262
505.5111, 1152.520
505.9932, 1158.330
506.4753, 1159.211
506.9575, 1156.881
507.4396, 1154.115
507.9217, 1151.902
508.4038, 1149.665
508.8859, 1146.234
509.3680, 1141.738
509.8502, 1138.798
510.3323, 1138.530
510.8144, 1139.083
511.2965, 1138.952
511.7786, 1138.155
512.2607, 1136.497
512.7429, 1133.222
513.2250, 1129.626
513.7071, 1126.784
514.1892, 1124.591
514.6713, 1122.541
515.1534, 1120.480
515.6356, 1118.207
516.1177, 1115.270
516.5998, 1111.127
517.0819, 1107.494
517.5640, 1104.322
518.0461, 1101.761
518.5283, 1100.713
519.0104, 1100.476
519.4925, 1098.922
519.9746, 1094.500
520.4567, 1088.119
520.9388, 1083.243
521.4210, 1081.013
521.9031, 1078.153
522.3852, 1073.413
522.8673, 1068.619
523.3494, 1065.836
523.8315, 1064.647
524.3137, 1062.140
524.7958, 1055.047
525.2779, 1045.022
525.7600, 1038.346
526.2421, 1035.937
526.7242, 1033.409
527.2064, 1027.877
527.6885, 1021.744
528.1706, 1018.580
528.6527, 1019.377
529.1348, 1019.014
529.6169, 1013.810
530.0991, 1006.140
530.5812, 999.9500
531.0633, 995.7111
531.5454, 991.7067
532.0275, 986.7321
532.5096, 980.9000
532.9918, 975.0895
533.4739, 968.3401
533.9560, 962.8537
534.4381, 960.1479
534.9202, 958.3610
535.4023, 955.4613
535.8845, 951.1053
536.3666, 946.2059
536.8487, 941.6824
537.3308, 937.5233
537.8129, 933.2887
538.2951, 928.5123
538.7772, 924.2925
539.2593, 921.8792
539.7415, 919.6085
540.2236, 915.3249
540.7057, 908.5519
541.1878, 901.5467
541.6699, 896.6620
542.1520, 893.6393
542.6342, 890.6678
543.1163, 887.7188
543.5984, 884.6202
544.0805, 881.6030
544.5626, 878.2990
545.0447, 873.7855
545.5269, 867.1271
546.0090, 860.8246
546.4911, 856.0948
546.9732, 852.7536
547.4553, 850.8787
547.9374, 850.4774
548.4196, 850.1377
548.9017, 848.4650
549.3838, 845.4224
549.8659, 842.5516
550.3480, 840.1223
550.8301, 837.5007
551.3123, 834.4199
551.7944, 831.1019
552.2765, 827.7195
552.7586, 824.3693
553.2407, 821.2534
553.7228, 818.8765
554.2050, 817.3474
554.6871, 814.3766
555.1692, 808.1405
555.6513, 803.0873
556.1334, 801.5581
556.6155, 801.7080
557.0977, 801.3315
557.5798, 799.8978
558.0619, 797.5128
558.5440, 793.3351
559.0261, 788.1669
559.5082, 785.4678
559.9904, 786.3212
560.4725, 786.8939
560.9546, 783.8314
561.4367, 777.8997
561.9188, 773.3865
562.4009, 770.6877
562.8831, 768.9821
563.3652, 769.2934
563.8473, 769.8698
564.3294, 767.5305
564.8115, 761.9357
565.2936, 756.5221
565.7758, 754.9133
566.2579, 757.1213
566.7400, 758.1318
567.2221, 757.0443
567.7042, 755.7699
568.1863, 754.3202
568.6685, 753.0056
569.1506, 752.4067
569.6327, 752.5299
570.1148, 752.3322
570.5969, 750.4857
571.0790, 747.3043
571.5612, 744.7249
572.0433, 742.7137
572.5254, 741.4816
573.0075, 741.6791
573.4896, 742.5050
573.9717, 742.9091
574.4539, 742.9625
574.9360, 742.0462
575.4181, 739.0699
575.9002, 735.3202
576.3823, 732.4705
576.8644, 730.7227
577.3466, 729.8386
577.8287, 729.7859
578.3108, 730.3510
578.7929, 730.4742
579.2750, 730.1192
579.7571, 729.3332
580.2393, 727.2839
580.7214, 725.4168
581.2035, 725.2943
581.6856, 726.6206
582.1677, 727.6085
582.6498, 726.8813
583.1320, 724.8282
583.6141, 722.5864
584.0962, 719.8087
584.5783, 718.0377
585.0604, 718.8389
585.5425, 719.9164
586.0247, 719.0118
586.5068, 716.2511
586.9889, 713.9826
587.4710, 713.5895
587.9531, 713.9850
588.4352, 713.9796
588.9174, 713.6068
589.3995, 713.2069
589.8816, 712.8947
590.3637, 712.7382
590.8458, 712.9230
591.3279, 713.7954
591.8101, 713.9579
592.2922, 712.9153
592.7743, 711.6584
593.2564, 710.5195
593.7385, 709.5919
594.2206, 709.0362
594.7028, 708.9318
595.1849, 708.9414
595.6670, 708.5098
596.1491, 707.5994
596.6312, 706.3877
597.1133, 703.6464
597.5955, 702.3013
598.0776, 704.9816
598.5597, 709.8133
599.0418, 713.2396
599.5239, 714.2078
600.0060, 713.8857
600.4882, 712.8724
600.9703, 711.3135
601.4524, 709.2433
601.9345, 706.6193
602.4166, 704.6337
602.8987, 704.3929
603.3809, 705.8038
603.8630, 707.5698
604.3451, 710.4213
604.8272, 712.6410
605.3093, 713.4332
605.7914, 713.7356
606.2736, 714.2550
606.7557, 715.2187
607.2378, 716.7931
607.7199, 719.2360
608.2020, 722.3677
608.6841, 725.5225
609.1663, 729.2642
609.6484, 731.3647
610.1305, 729.1444
610.6126, 726.4673
611.0947, 727.0370
611.5768, 730.8373
612.0590, 734.3607
612.5411, 735.5358
613.0232, 736.1035
613.5053, 738.1547
613.9874, 741.4471
614.4695, 744.5511
614.9517, 746.8425
615.4338, 748.9045
615.9159, 751.7636
616.3980, 755.7471
616.8801, 759.3801
617.3622, 762.8222
617.8444, 765.8193
618.3265, 767.8915
618.8086, 769.5676
619.2907, 771.4401
619.7728, 773.7526
620.2549, 776.8457
620.7371, 781.6307
621.2192, 788.0009
621.7013, 793.0682
622.1834, 795.9266
622.6655, 799.1994
623.1476, 804.5118
623.6298, 811.1915
624.1119, 818.2489
624.5940, 825.7617
625.0761, 833.1877
625.5582, 839.6959
626.0403, 846.2485
626.5225, 854.5192
627.0046, 864.3239
627.4867, 873.2610
627.9688, 879.6907
628.4509, 884.6206
628.9330, 891.5485
629.4152, 901.7598
629.8973, 911.6385
630.3794, 920.6277
630.8615, 929.7611
631.3436, 940.4238
631.8257, 951.7228
632.3079, 961.1808
632.7900, 967.0400
633.2721, 972.2515
633.7542, 981.7334
634.2363, 994.8900
634.7184, 1005.690
635.2006, 1012.199
635.6827, 1018.490
636.1648, 1028.153
636.6469, 1040.854
637.1291, 1053.017
637.6112, 1065.029
638.0933, 1075.930
638.5754, 1084.878
639.0576, 1092.724
639.5397, 1100.286
640.0218, 1107.778
640.5039, 1115.391
640.9860, 1123.556
641.4681, 1131.820
641.9503, 1138.208
642.4324, 1142.757
642.9145, 1145.308
643.3966, 1144.813
643.8787, 1143.016
644.3608, 1141.757
644.8430, 1140.474
645.3251, 1136.243
645.8072, 1126.306
646.2893, 1114.247
646.7714, 1104.019
647.2535, 1094.771
647.7357, 1083.561
648.2178, 1069.543
648.6999, 1054.318
649.1820, 1039.850
649.6641, 1026.159
650.1462, 1011.821
650.6284, 996.5710
651.1105, 980.9486
651.5926, 964.4520
652.0747, 948.0410
652.5568, 932.8676
653.0389, 918.9496
653.5211, 905.4681
654.0032, 891.6768
654.4853, 877.8358
654.9674, 864.6569
655.4495, 852.1670
655.9316, 840.2673
656.4138, 829.1862
656.8959, 818.4252
657.3780, 806.9490
657.8601, 794.8029
658.3422, 784.1996
658.8243, 776.4427
659.3065, 769.3144
659.7886, 761.8842
660.2707, 754.1520
660.7528, 745.5037
661.2349, 736.0638
661.7170, 727.8024
662.1992, 723.4835
662.6813, 722.8677
663.1634, 720.1364
663.6455, 714.4677
664.1276, 708.2303
664.6097, 701.7072
665.0919, 695.2303
665.5740, 688.8284
666.0561, 682.5409
666.5382, 677.3426
667.0203, 674.4880
667.5024, 672.3187
667.9846, 668.7324
668.4667, 664.2535
668.9488, 661.0140
669.4309, 659.8788
669.9130, 659.1838
670.3951, 656.5921
670.8773, 651.7747
671.3594, 647.7751
671.8415, 644.8329
672.3236, 642.4727
672.8057, 640.6257
673.2878, 639.3080
673.7700, 639.0441
674.2521, 639.6931
674.7342, 639.5166
675.2163, 635.8196
675.6984, 630.8900
676.1805, 630.1983
676.6627, 633.5641
677.1448, 635.8551
677.6269, 635.1539
678.1090, 632.5363
678.5911, 628.9388
679.0732, 623.7375
679.5554, 621.5443
680.0375, 624.6329
680.5196, 628.0141
681.0017, 629.5638
681.4838, 630.4524
681.9659, 632.7437
682.4481, 636.6141
682.9302, 639.6105
683.4123, 638.4896
683.8944, 634.7841
684.3765, 635.2073
684.8586, 640.5364
685.3408, 645.3750
685.8229, 647.7160
686.3050, 648.9607
686.7871, 650.9327
687.2692, 653.6013
687.7513, 655.6745
688.2335, 656.5108
688.7156, 657.1819
689.1977, 658.2346
689.6798, 659.5025
690.1619, 660.9882
690.6440, 662.5496
691.1262, 663.3466
691.6083, 662.3209
692.0904, 659.8073
692.5725, 658.2313
693.0546, 657.9132
693.5367, 657.6598
694.0189, 657.7313
694.5010, 657.2117
694.9831, 654.6239
695.4652, 650.3678
695.9473, 647.5720
696.4294, 648.4572
696.9116, 649.7875
697.3937, 648.7989
697.8758, 646.8333
698.3579, 646.6412
698.8400, 648.7264
699.3221, 651.2369
699.8043, 652.4357
700.2864, 652.4633
700.7685, 652.3143
701.2506, 651.5845
701.7327, 651.5225
702.2148, 653.3034
702.6970, 655.0489
703.1791, 655.2858
703.6612, 654.3517
704.1433, 653.8284
704.6254, 654.8036
705.1075, 655.7012
705.5897, 655.2567
706.0718, 653.7828
706.5539, 652.1925
707.0360, 650.5709
707.5181, 647.5800
708.0002, 641.8695
708.4824, 634.1163
708.9645, 627.6582
709.4466, 622.7048
709.9287, 618.6438
710.4108, 616.7700
710.8929, 614.4806
711.3751, 609.8449
711.8572, 603.6267
712.3393, 598.1420
712.8214, 594.7019
713.3035, 590.8811
713.7856, 584.1385
714.2678, 575.6032
714.7499, 566.9733
715.2320, 558.6717
715.7141, 552.2512
716.1962, 549.0643
716.6783, 547.9482
717.1605, 545.4704
717.6426, 541.1095
718.1247, 536.3922
718.6068, 530.5261
719.0889, 525.1719
719.5710, 521.2833
720.0532, 518.3433
720.5353, 515.4523
721.0174, 512.3501
721.4995, 509.2010
721.9816, 506.0926
722.4637, 503.0309
722.9459, 500.2185
723.4280, 497.5854
723.9101, 494.1265
724.3922, 489.0659
724.8743, 483.7206
725.3564, 480.6524
725.8386, 480.5201
726.3207, 480.2716
726.8028, 480.5291
727.2849, 479.9449
727.7670, 477.3119
728.2491, 474.0125
728.7313, 471.9772
729.2134, 471.4630
729.6955, 470.5305
730.1776, 467.3320
730.6597, 463.1396
731.1418, 459.6907
731.6240, 457.0354
732.1061, 455.4022
732.5882, 454.9835
733.0703, 454.8334
733.5524, 453.7463
734.0345, 451.6636
734.5167, 450.0910
734.9988, 449.2037
735.4809, 448.6316
735.9631, 449.3716
736.4452, 449.6217
736.9273, 447.2519
737.4094, 442.7483
737.8915, 438.9354
738.3737, 437.2997
738.8558, 436.9784
739.3379, 437.7833
739.8200, 439.1013
740.3021, 438.7299
740.7842, 436.2418
741.2664, 433.7625
741.7485, 433.0797
742.2306, 433.7344
742.7127, 433.4589
743.1948, 431.4482
743.6769, 429.9669
744.1591, 429.6812
744.6412, 429.3848
745.1233, 427.9683
745.6054, 426.1627
746.0875, 425.8166
746.5696, 427.9902
747.0518, 429.5858
747.5339, 427.1608
748.0160, 423.0397
748.4981, 421.2899
748.9802, 421.9828
749.4623, 423.2343
749.9445, 424.2068
750.4266, 424.5015
750.9087, 423.1071
751.3908, 419.2680
751.8729, 417.3856
752.3550, 419.1031
752.8372, 420.6173
753.3193, 420.1279
753.8014, 419.1811
754.2835, 419.9540
754.7656, 422.6116
755.2477, 424.0794
755.7299, 422.1350
756.2120, 419.0226
756.6941, 416.1011
757.1762, 413.8207
757.6583, 413.2145
758.1404, 414.5283
758.6226, 417.1353
759.1047, 420.7932
759.5868, 425.0374
760.0689, 426.5169
760.5510, 424.0241
761.0331, 421.9086
761.5153, 420.2371
761.9974, 419.9769
762.4795, 422.9139
762.9616, 427.8253
763.4437, 430.6881
763.9258, 429.5668
764.4080, 428.2825
764.8901, 428.6840
765.3722, 429.8801
765.8543, 430.9535
766.3364, 431.8211
766.8185, 432.6457
767.3007, 433.4959
767.7828, 434.5766
768.2649, 436.5162
768.7470, 439.3703
769.2291, 441.1328
769.7112, 441.3181
770.1934, 441.5024
770.6755, 442.5450
771.1576, 443.9616
771.6397, 444.9957
772.1218, 445.6728
772.6039, 445.9147
773.0861, 445.5491
773.5682, 444.9225
774.0503, 443.7841
774.5324, 442.7027
775.0145, 442.4391
775.4966, 443.1439
775.9788, 444.5333
776.4609, 446.7316
776.9430, 449.1131
777.4251, 450.2431
777.9072, 450.1269
778.3893, 448.8206
778.8715, 445.9697
779.3536, 443.2948
779.8357, 442.4157
780.3178, 443.0436
780.7999, 443.2109
781.2820, 442.7158
781.7642, 442.0540
782.2463, 440.4638
782.7284, 439.4403
783.2105, 440.5728
783.6926, 442.8595
784.1747, 444.1890
784.6569, 443.7931
785.1390, 442.6841
785.6211, 440.9530
786.1032, 439.4473
786.5853, 440.3297
787.0674, 443.3527
787.5496, 445.9384
788.0317, 446.9390
788.5138, 447.2314
788.9959, 448.1334
789.4780, 449.7565
789.9601, 450.3315
790.4423, 448.7569
790.9244, 447.9187
791.4065, 448.1200
791.8886, 449.5834
792.3707, 453.5315
792.8528, 459.2732
793.3350, 463.1830
793.8171, 462.9414
794.2992, 462.1266
794.7813, 462.8492
795.2634, 464.4129
795.7455, 465.8036
796.2277, 466.9936
796.7098, 468.6246
797.1919, 471.1183
797.6740, 474.0957
798.1561, 476.9171
798.6382, 479.5861
799.1204, 481.8758
799.6025, 483.6609
800.0846, 485.4189
800.5667, 487.4714
801.0488, 489.5847
801.5309, 491.1234
802.0131, 491.8545
802.4952, 493.5479
802.9773, 497.1553
803.4594, 500.8439
803.9415, 504.3382
804.4236, 507.1970
804.9058, 508.2533
805.3879, 507.8401
805.8700, 508.4189
806.3521, 511.9696
806.8342, 516.9402
807.3163, 521.4785
807.7985, 525.4252
808.2806, 527.8228
808.7627, 528.4820
809.2448, 528.8811
809.7269, 530.1179
810.2090, 531.8063
810.6912, 532.5663
811.1733, 531.0679
811.6554, 531.8339
812.1375, 537.0598
812.6196, 542.0642
813.1017, 544.8999
813.5839, 546.5739
814.0660, 548.3649
814.5481, 550.4557
815.0302, 552.4725
815.5123, 553.9548
815.9944, 555.5756
816.4766, 557.8083
816.9587, 560.5931
817.4408, 564.2969
817.9229, 568.6712
818.4050, 571.7741
818.8871, 571.6328
819.3693, 569.7400
819.8514, 570.2448
820.3335, 573.2444
820.8156, 576.5212
821.2977, 580.0883
821.7798, 582.7314
822.2620, 583.0787
822.7441, 582.1857
823.2262, 583.2868
823.7083, 587.8830
824.1904, 590.9841
824.6725, 591.0734
825.1547, 591.1843
825.6368, 592.3667
826.1189, 594.5489
826.6010, 598.0159
827.0831, 602.6126
827.5652, 606.4982
828.0474, 607.5757
828.5295, 608.0287
829.0116, 610.7404
829.4937, 614.9096
829.9758, 618.5963
830.4579, 621.3589
830.9401, 623.3039
831.4222, 624.2705
831.9043, 625.1589
832.3864, 629.1556
832.8685, 637.1496
833.3506, 643.5734
833.8328, 647.2225
834.3149, 650.6507
834.7971, 654.2846
835.2792, 659.0059
835.7613, 666.9142
836.2434, 678.9847
836.7255, 688.5659
837.2076, 691.4515
837.6898, 695.0931
838.1719, 703.7928
838.6540, 714.8683
839.1361, 724.8802
839.6182, 733.4677
840.1003, 742.5421
840.5825, 753.0641
841.0646, 765.1405
841.5467, 779.2524
842.0288, 795.0846
842.5109, 811.2108
842.9930, 827.5000
843.4752, 844.9287
843.9573, 864.1019
844.4394, 884.2944
844.9215, 903.2018
845.4036, 919.9713
845.8857, 940.1659
846.3679, 964.4110
846.8500, 991.1187
847.3321, 1020.173
847.8142, 1051.011
848.2963, 1083.195
848.7784, 1116.605
849.2606, 1151.428
849.7427, 1185.554
850.2248, 1223.603
850.7069, 1269.297
851.1890, 1318.411
851.6711, 1366.626
852.1533, 1414.200
852.6354, 1463.551
853.1175, 1515.841
853.5996, 1570.933
854.0817, 1628.294
854.5638, 1688.928
855.0460, 1755.477
855.5281, 1827.770
856.0102, 1899.629
856.4923, 1968.529
856.9744, 2038.948
857.4565, 2116.739
857.9387, 2201.829
858.4208, 2284.421
858.9029, 2363.681
859.3850, 2441.961
859.8671, 2515.623
860.3492, 2592.513
860.8314, 2679.960
861.3135, 2774.802
861.7956, 2869.693
862.2777, 2964.512
862.7598, 3057.597
863.2419, 3148.658
863.7241, 3237.045
864.2062, 3324.320
864.6883, 3408.046
865.1704, 3485.477
865.6525, 3555.977
866.1346, 3620.346
866.6168, 3681.466
867.0989, 3735.655
867.5810, 3776.727
868.0631, 3805.723
868.5452, 3826.322
869.0273, 3839.140
869.5095, 3839.514
869.9916, 3823.572
870.4737, 3794.450
870.9558, 3760.763
871.4379, 3723.500
871.9200, 3674.302
872.4022, 3609.289
872.8843, 3540.229
873.3664, 3472.479
873.8485, 3403.127
874.3306, 3328.338
874.8127, 3248.001
875.2949, 3165.956
875.7770, 3078.359
876.2591, 2994.802
876.7412, 2920.817
877.2233, 2850.490
877.7054, 2779.803
878.1876, 2708.678
878.6697, 2636.901
879.1518, 2564.105
879.6339, 2494.379
880.1160, 2433.489
880.5981, 2376.303
881.0803, 2313.416
881.5624, 2247.047
882.0445, 2185.555
882.5266, 2131.911
883.0087, 2081.844
883.4908, 2031.558
883.9730, 1980.825
884.4551, 1928.873
884.9372, 1875.675
885.4193, 1824.683
885.9014, 1776.147
886.3835, 1731.731
886.8657, 1694.401
887.3478, 1660.601
887.8299, 1619.613
888.3120, 1567.503
888.7941, 1519.231
889.2762, 1476.812
889.7584, 1435.617
890.2405, 1394.198
890.7226, 1353.458
891.2047, 1314.257
891.6868, 1276.630
892.1689, 1239.603
892.6511, 1202.422
893.1332, 1166.436
893.6153, 1132.753
894.0974, 1100.115
894.5795, 1066.957
895.0616, 1033.500
895.5438, 1001.098
896.0259, 970.0663
896.5080, 940.0292
896.9901, 910.6587
897.4722, 881.9901
897.9543, 854.2814
898.4365, 827.6825
898.9186, 802.6332
899.4007, 779.4061
899.8828, 756.4366
900.3649, 732.0883
900.8470, 707.1276
901.3292, 683.9521
901.8113, 662.7693
902.2934, 642.7079
902.7755, 624.1211
903.2576, 605.7162
903.7397, 586.2750
904.2219, 567.1937
904.7040, 551.0013
905.1861, 538.2167
905.6682, 525.0291
906.1503, 510.1121
906.6324, 496.5373
907.1146, 485.3314
907.5967, 475.4523
908.0788, 466.6036
908.5609, 458.2852
909.0430, 449.2375
909.5251, 438.5796
910.0073, 429.1725
910.4894, 424.0618
910.9715, 419.8368
911.4536, 413.0958
911.9357, 404.5061
912.4178, 395.5080
912.9000, 386.6459
913.3821, 378.5485
913.8642, 371.6782
914.3463, 365.9392
914.8284, 361.6286
915.3105, 358.3715
915.7927, 354.1278
916.2748, 348.7009
916.7569, 344.1278
917.2390, 341.7007
917.7211, 339.7800
918.2032, 335.2957
918.6854, 328.1160
919.1675, 322.7762
919.6496, 319.8847
920.1317, 317.0519
920.6138, 313.8210
921.0959, 310.1484
921.5781, 305.4665
922.0602, 300.2468
922.5423, 296.9063
923.0244, 297.0157
923.5065, 295.9595
923.9886, 292.8189
924.4708, 289.3189
924.9529, 285.8861
925.4350, 282.7155
925.9171, 280.2464
926.3992, 278.4229
926.8813, 276.1272
927.3635, 272.5617
927.8456, 268.8423
928.3277, 265.1966
928.8098, 262.0277
929.2919, 260.0471
929.7740, 258.9215
930.2562, 257.7248
930.7383, 256.0876
931.2204, 253.9902
931.7025, 250.9430
932.1846, 247.6672
932.6667, 245.7723
933.1489, 244.8864
933.6310, 243.6476
934.1132, 241.7377
934.5953, 239.4283
935.0774, 236.8806
935.5595, 234.2406
936.0416, 231.8708
936.5237, 229.7664
937.0059, 227.9268
937.4880, 226.4135
937.9701, 224.7729
938.4522, 222.7437
938.9343, 220.6976
939.4164, 219.0385
939.8986, 217.7614
940.3807, 216.8009
940.8628, 216.4945
941.3449, 215.8439
941.8270, 214.5639
942.3091, 213.1508
942.7913, 211.9138
943.2734, 210.7032
943.7555, 209.2185
944.2376, 207.3918
944.7197, 205.7765
945.2018, 204.2717
945.6840, 203.2390
946.1661, 203.3692
946.6482, 203.5922
947.1303, 202.9536
947.6124, 201.5268
948.0945, 199.8426
948.5767, 198.0660
949.0588, 196.0865
949.5409, 193.0453
950.0230, 190.4323
950.5051, 190.2591
950.9872, 191.4332
951.4694, 191.8290
951.9515, 191.0531
952.4336, 189.9915
952.9157, 189.2115
953.3978, 188.5766
953.8799, 187.8450
954.3621, 187.1128
954.8442, 186.8038
955.3263, 186.8310
955.8084, 186.3040
956.2905, 184.8692
956.7726, 183.4102
957.2548, 182.9809
957.7369, 183.3218
958.2190, 183.3553
958.7011, 183.0869
959.1832, 182.2030
959.6653, 180.4507
960.1475, 179.1509
960.6296, 179.2126
961.1117, 179.8932
961.5938, 179.8059
962.0759, 178.8487
962.5580, 178.1322
963.0402, 177.9246
963.5223, 177.3722
964.0044, 175.9705
964.4865, 174.5540
964.9686, 173.7168
965.4507, 173.3741
965.9329, 173.2215
966.4150, 173.1630
966.8971, 173.5524
967.3792, 175.7676
967.8613, 176.7777
968.3434, 174.1405
968.8256, 170.7650
969.3077, 169.7086
969.7898, 170.7313
970.2719, 171.5340
970.7540, 171.3738
971.2361, 171.1797
971.7183, 171.6152
972.2004, 171.8986
972.6825, 171.2040
973.1646, 170.0288
973.6467, 169.3030
974.1288, 169.1280
974.6110, 168.6555
975.0931, 166.9497
975.5752, 165.4890
976.0573, 166.1274
976.5394, 167.6048
977.0215, 168.0274
977.5037, 167.5056
977.9858, 167.0251
978.4679, 166.9429
978.9500, 166.9143
979.4321, 166.6414
979.9142, 166.1595
980.3964, 165.2532
980.8785, 164.1974
981.3606, 164.2271
981.8427, 165.3969
982.3248, 166.4423
982.8069, 166.6998
983.2891, 166.3300
983.7712, 165.4416
984.2533, 164.1211
984.7354, 162.7798
985.2175, 161.3887
985.6996, 161.1890
986.1818, 162.5889
986.6639, 164.3330
987.1460, 165.6401
987.6281, 166.4692
988.1102, 166.6920
988.5923, 166.2623
989.0745, 165.4954
989.5566, 164.1802
990.0387, 163.1526
990.5208, 162.6996
991.0029, 162.5315
991.4850, 162.5585
991.9672, 162.6289
992.4493, 162.0421
992.9314, 159.7521
993.4135, 159.3630
993.8956, 162.9595
994.3777, 165.6505
994.8599, 164.9957
995.3420, 163.4787
995.8241, 163.4951
996.3062, 164.7799
996.7883, 165.5843
997.2704, 165.7131
997.7526, 165.4599
998.2347, 164.6313
998.7168, 163.6896
999.1989, 162.4634
999.6810, 161.4973
1000.163, 161.7902
1000.645, 163.1775
1001.127, 163.8172
1001.609, 162.6313
1002.092, 161.4659
1002.574, 160.9664
1003.056, 160.8573
1003.538, 161.1336
1004.020, 161.5626
1004.502, 161.8538
1004.984, 161.9342
1005.466, 161.8061
1005.949, 161.5036
1006.431, 160.9450
1006.913, 159.5289
1007.395, 158.2215
1007.877, 158.3793
1008.359, 159.6024
1008.841, 160.8799
1009.323, 161.8326
1009.805, 162.1558
1010.288, 161.1303
1010.770, 159.9207
1011.252, 160.1385
1011.734, 161.1022
1012.216, 161.6901
1012.698, 161.7815
1013.180, 161.0761
1013.662, 159.5725
1014.145, 159.6179
1014.627, 165.5123
1015.109, 172.9265
1015.591, 171.8088
1016.073, 164.8162
1016.555, 160.5088
1017.037, 159.8672
1017.519, 159.9588
1018.001, 159.3210
1018.484, 158.6843
1018.966, 159.1387
1019.448, 160.3141
1019.930, 160.8706
1020.412, 160.8593
1020.894, 160.6769
1021.376, 160.4007
1021.858, 160.5678
1022.341, 161.5676
1022.823, 162.6073
1023.305, 162.2768
1023.787, 160.7704
1024.269, 160.0209
1024.751, 160.0573
1025.233, 160.3293
1025.715, 160.7853
1026.198, 160.9885
1026.680, 160.5304
1027.162, 160.0680
1027.644, 161.1131
1028.126, 163.7406
1028.608, 164.2000
1029.090, 161.8985
1029.572, 160.3169
1030.054, 160.3840
1030.536, 160.7408
1031.019, 160.4637
1031.501, 159.8412
1031.983, 159.4173
1032.465, 159.1243
1032.947, 159.7306
1033.429, 161.9359
1033.911, 163.1323
1034.393, 162.2062
1034.876, 161.1536
1035.358, 161.6454
1035.840, 162.8343
1036.322, 162.5265
1036.804, 160.0957
1037.286, 159.2572
1037.768, 161.4011
1038.250, 162.5686
1038.733, 160.6264
1039.215, 159.0536
1039.697, 161.2159
1040.179, 165.3429
1040.661, 166.7700
1041.143, 164.5442
1041.625, 163.1776
1042.107, 162.9755
1042.589, 163.2187
1043.072, 164.2797
1043.554, 165.2555
1044.036, 165.1937
1044.518, 164.6316
1045.000, 165.0440
1045.482, 166.9754
1045.964, 167.8573
1046.446, 166.8866
1046.928, 165.7005
1047.411, 164.1751
1047.893, 163.0803
1048.375, 163.3210
1048.857, 164.3448
1049.339, 164.7256
1049.821, 164.0987
1050.303, 164.0346
1050.785, 165.6718
1051.268, 166.7154
1051.750, 165.7837
1052.232, 164.5744
1052.714, 164.6042
1053.196, 165.3667
1053.678, 165.3996
1054.160, 164.2659
1054.642, 164.0007
1055.125, 166.2973
1055.607, 167.9434
1056.089, 167.0272
1056.571, 165.6408
1057.053, 165.5056
1057.535, 166.2619
1058.017, 166.9320
1058.499, 167.3525
1058.981, 167.5782
1059.464, 167.4889
1059.946, 167.3852
1060.428, 167.3945
1060.910, 167.4357
1061.392, 167.5315
1061.874, 167.5739
1062.356, 167.2874
1062.838, 166.6006
1063.320, 166.1216
1063.803, 166.0379
1064.285, 166.2438
1064.767, 166.7693
1065.249, 167.4961
1065.731, 168.6773
1066.213, 169.8554
1066.695, 170.1042
1067.177, 169.2576
1067.660, 168.3554
1068.142, 167.4554
1068.624, 167.0504
1069.106, 167.9250
1069.588, 168.8784
1070.070, 168.7566
1070.552, 168.0257
1071.034, 167.6928
1071.516, 167.9220
1071.999, 168.0243
1072.481, 167.6263
1072.963, 167.1530
1073.445, 166.8248
1073.927, 166.4757
1074.409, 165.7998
1074.891, 165.0844
1075.373, 164.9011
1075.855, 165.2749
1076.338, 165.4666
1076.820, 164.5525
1077.302, 164.4408
1077.784, 167.5883
1078.266, 170.3667
1078.748, 169.3813
1079.230, 166.4155
1079.712, 163.9922
1080.195, 162.6251
1080.677, 162.3457
1081.159, 163.7304
1081.641, 164.9887
1082.123, 165.2354
1082.605, 165.0876
1083.087, 164.6972
1083.569, 164.3699
1084.052, 164.5305
1084.534, 165.1297
1085.016, 165.6705
1085.498, 165.8822
1085.980, 166.3242
1086.462, 168.1190
1086.944, 169.2558
1087.426, 167.5172
1087.908, 165.0130
1088.391, 164.2956
1088.873, 165.2415
1089.355, 166.4889
1089.837, 167.8929
1090.319, 168.5073
1090.801, 167.0379
1091.283, 165.7729
1091.765, 166.3621
1092.248, 167.4946
1092.730, 167.8082
1093.212, 167.4610
1093.694, 167.2431
1094.176, 167.3483
1094.658, 167.4764
1095.140, 167.2641
1095.622, 167.3781
1096.104, 168.5923
1096.587, 169.8365
1097.069, 170.0210
1097.551, 169.5636
1098.033, 169.3375
1098.515, 169.4841
1098.997, 170.1864
1099.479, 172.8654
1099.961, 174.2273
1100.443, 171.8521
1100.926, 169.1063
1101.408, 168.4159
1101.890, 168.9513
1102.372, 169.1574
1102.854, 168.8938
1103.336, 169.1425
1103.818, 170.7070
1104.300, 171.9327
1104.783, 172.5728
1105.265, 172.6586
1105.747, 171.8164
1106.229, 170.6843
1106.711, 170.0202
1107.193, 169.8232
1107.675, 169.6710
1108.157, 169.2372
1108.640, 169.3724
1109.122, 170.8235
1109.604, 172.0638
1110.086, 172.4120
1110.568, 172.3512
1111.050, 172.2901
1111.532, 172.2257
1112.014, 172.0150
1112.496, 171.3002
1112.979, 171.4116
1113.461, 173.2965
1113.943, 174.7914
1114.425, 175.3769
1114.907, 175.4109
1115.389, 174.6766
1115.871, 173.7253
1116.353, 173.9274
1116.835, 175.5839
1117.318, 176.5906
1117.800, 176.4076
1118.282, 176.6003
1118.764, 177.8449
1119.246, 178.8018
1119.728, 178.3843
1120.210, 177.6006
1120.692, 178.1651
1121.175, 180.0334
1121.657, 180.7150
1122.139, 179.4623
1122.621, 179.1374
1123.103, 180.2181
1123.585, 181.7027
1124.067, 183.4653
1124.549, 184.8869
1125.031, 185.2689
1125.514, 184.7152
1125.996, 183.4684
1126.478, 181.0918
1126.960, 180.6214
1127.442, 182.6347
1127.924, 184.2653
1128.406, 184.6065
1128.888, 184.4967
1129.370, 184.5428
1129.853, 184.7557
1130.335, 185.2199
1130.817, 185.9360
1131.299, 186.3871
1131.781, 186.5705
1132.263, 186.5388
1132.745, 186.2734
1133.227, 186.3132
1133.710, 186.9698
1134.192, 188.1231
1134.674, 189.8787
1135.156, 191.8022
1135.638, 191.6909
1136.120, 189.8872
1136.602, 189.0092
1137.084, 189.3292
1137.567, 190.3278
1138.049, 191.7781
1138.531, 193.0915
1139.013, 193.6708
1139.495, 193.8435
1139.977, 194.3388
1140.459, 194.9246
1140.941, 194.7633
1141.423, 194.0595
1141.906, 193.6789
1142.388, 193.8642
1142.870, 194.6084
1143.352, 195.9924
1143.834, 197.3698
1144.316, 197.5140
1144.798, 197.5138
1145.280, 199.7774
1145.762, 202.8664
1146.245, 203.4108
1146.727, 201.7769
1147.209, 201.0183
1147.691, 202.3188
1148.173, 204.0607
1148.655, 205.5876
1149.137, 206.4057
1149.619, 205.3803
1150.102, 203.9691
1150.584, 203.9146
1151.066, 204.8164
1151.548, 205.5696
1152.030, 205.9728
1152.512, 206.5623
1152.994, 207.8295
1153.476, 208.7869
1153.958, 208.6355
1154.441, 208.3553
1154.923, 208.5824
1155.405, 209.0754
1155.887, 209.6158
1156.369, 210.1114
1156.851, 210.3061
1157.333, 209.9537
1157.815, 210.0923
1158.297, 211.2823
1158.780, 212.5352
1159.262, 213.4537
1159.744, 214.4135
1160.226, 215.9478
1160.708, 217.6093
1161.190, 218.4814
1161.672, 218.4894
1162.154, 218.6953
1162.637, 219.1494
1163.119, 219.6849
1163.601, 220.0032
1164.083, 220.9718
1164.565, 223.5178
1165.047, 226.0378
1165.529, 226.8141
1166.011, 226.1796
1166.494, 225.3121
1166.976, 223.9103
1167.458, 223.9280
1167.940, 225.6735
1168.422, 227.3860
1168.904, 228.7164
1169.386, 229.5232
1169.868, 229.6416
1170.350, 229.4169
1170.833, 229.3346
1171.315, 229.4438
1171.797, 230.0779
1172.279, 231.2090
1172.761, 232.6443
1173.243, 234.3179
1173.725, 235.6111
1174.207, 236.3084
1174.689, 237.1841
1175.172, 239.0484
1175.654, 241.1855
1176.136, 242.3464
1176.618, 242.8494
1177.100, 243.4625
1177.582, 244.0414
1178.064, 243.6540
1178.546, 242.5396
1179.029, 242.7901
1179.511, 245.5207
1179.993, 248.2671
1180.475, 248.7263
1180.957, 248.4086
1181.439, 248.2803
1181.921, 248.6733
1182.403, 250.6385
1182.885, 253.2140
1183.368, 254.1424
1183.850, 253.1017
1184.332, 252.2937
1184.814, 252.6522
1185.296, 253.3447
1185.778, 254.0462
1186.260, 254.9660
1186.742, 256.3117
1187.225, 257.8701
1187.707, 259.7498
1188.189, 261.6301
1188.671, 262.2236
1189.153, 260.5768
1189.635, 260.9221
1190.117, 266.0906
1190.599, 269.3344
1191.082, 268.1575
1191.564, 267.0059
1192.046, 268.5310
1192.528, 271.0568
1193.010, 272.2240
1193.492, 272.2580
1193.974, 273.0790
1194.456, 274.7996
1194.938, 276.9109
1195.421, 279.6414
1195.903, 281.0009
1196.385, 280.1411
1196.867, 279.6227
1197.349, 281.4493
1197.831, 284.3680
1198.313, 286.1816
1198.795, 287.0590
1199.277, 287.3663
1199.760, 287.4128
1200.242, 289.3731
1200.724, 293.0269
1201.206, 295.0002
1201.688, 294.1758
1202.170, 293.4316
1202.652, 295.1092
1203.134, 298.1152
1203.617, 301.8779
1204.099, 305.4796
1204.581, 307.4939
1205.063, 308.3638
1205.545, 308.8169
1206.027, 309.1090
1206.509, 309.3459
1206.991, 309.5018
1207.474, 310.4358
1207.956, 313.3676
1208.438, 316.1848
1208.920, 317.7709
1209.402, 318.8354
1209.884, 319.4753
1210.366, 320.2399
1210.848, 322.2720
1211.330, 325.3957
1211.813, 327.1995
1212.295, 326.0635
1212.777, 326.3802
1213.259, 328.9176
1213.741, 331.8543
1214.223, 334.9642
1214.705, 338.0331
1215.187, 341.1377
1215.669, 343.7934
1216.152, 344.8480
1216.634, 344.4677
1217.116, 345.7417
1217.598, 348.9098
1218.080, 350.2400
1218.562, 349.2165
1219.044, 350.0204
1219.526, 354.1775
1220.009, 358.3120
1220.491, 359.5742
1220.973, 359.8400
1221.455, 362.8034
1221.937, 367.0819
1222.419, 368.7845
1222.901, 368.8738
1223.383, 370.0341
1223.865, 372.3743
1224.348, 374.6334
1224.830, 376.3941
1225.312, 378.2574
1225.794, 380.6943
1226.276, 383.2540
1226.758, 385.9322
1227.240, 388.2477
1227.722, 389.2970
1228.204, 390.0195
1228.687, 391.6451
1229.169, 394.0855
1229.651, 396.7142
1230.133, 399.5599
1230.615, 401.6623
1231.097, 402.1185
1231.579, 402.8940
1232.061, 403.8747
1232.544, 405.9811
1233.026, 410.8158
1233.508, 415.5325
1233.990, 416.2562
1234.472, 414.4663
1234.954, 417.0354
1235.436, 425.3170
1235.918, 427.4483
1236.401, 422.4496
1236.883, 422.6310
1237.365, 430.7482
1237.847, 438.1983
1238.329, 440.4045
1238.811, 440.3652
1239.293, 441.1568
1239.775, 442.7213
1240.257, 445.2483
1240.740, 448.3224
1241.222, 451.1019
1241.704, 453.5571
1242.186, 455.5338
1242.668, 457.2802
1243.150, 459.9745
1243.632, 464.2303
1244.114, 468.2309
1244.596, 470.6360
1245.079, 472.5756
1245.561, 474.4271
1246.043, 476.4532
1246.525, 478.5409
1247.007, 481.1341
1247.489, 485.4290
1247.971, 491.0546
1248.453, 495.0322
1248.936, 495.7028
1249.418, 498.1574
1249.900, 503.7030
1250.382, 508.6815
1250.864, 512.7277
1251.346, 515.0902
1251.828, 514.7625
1252.310, 513.8514
1252.792, 515.0607
1253.275, 518.1804
1253.757, 523.1735
1254.239, 529.6654
1254.721, 531.7150
1255.203, 529.9269
1255.685, 532.2440
1256.167, 539.8046
1256.649, 546.0449
1257.131, 547.5732
1257.614, 547.8741
1258.096, 549.6825
1258.578, 553.0287
1259.060, 559.1135
1259.542, 565.7809
1260.024, 570.2577
1260.506, 573.2897
1260.988, 576.3822
1261.471, 579.7133
1261.953, 582.7928
1262.435, 585.3627
1262.917, 588.2565
1263.399, 591.0676
1263.881, 595.1205
1264.363, 601.9794
1264.845, 608.6910
1265.328, 613.4010
1265.810, 617.7418
1266.292, 624.1031
1266.774, 631.4219
1267.256, 634.7899
1267.738, 633.4774
1268.220, 636.2995
1268.702, 643.4134
1269.184, 648.9803
1269.667, 651.9881
1270.149, 655.3434
1270.631, 660.3954
1271.113, 666.1311
1271.595, 671.7465
1272.077, 677.1945
1272.559, 681.9782
1273.041, 686.8519
1273.523, 693.8391
1274.006, 701.2935
1274.488, 705.6629
1274.970, 707.7598
1275.452, 711.4860
1275.934, 717.8917
1276.416, 724.0925
1276.898, 728.4685
1277.380, 733.3046
1277.863, 738.4779
1278.345, 745.1353
1278.827, 755.5785
1279.309, 765.9498
1279.791, 772.7838
1280.273, 777.5375
1280.755, 783.3219
1281.237, 790.1256
1281.719, 796.9425
1282.202, 803.7399
1282.684, 810.5975
1283.166, 817.5423
1283.648, 825.8530
1284.130, 835.8458
1284.612, 844.8776
1285.094, 851.0710
1285.576, 856.7210
1286.059, 864.9063
1286.541, 874.1262
1287.023, 883.0286
1287.505, 891.7208
##END=



