##NAMES=Pucherite
##RRUFFID=R080137
##IDEAL CHEMISTRY=Bi^3+^V^5+^O_4_
##LOCALITY=Fazenda da Posse, Sao Jose do Brejauba, Minas Gerais, Brazil
##OWNER=RRUFF
##SOURCE=Luiz Menezes
##DESCRIPTION=Reddish brown tabular crystals associated with greenish yellow bismutite
##STATUS=The identification of this mineral has been confirmed by single-crystal X-ray diffraction.
##URL=rruff.info/R080137
91.00781, 48.28227
91.48993, 47.77755
91.97205, 47.57723
92.45416, 47.78097
92.93628, 48.28282
93.41840, 48.71813
93.90051, 48.77602
94.38263, 49.17178
94.86475, 51.26382
95.34686, 55.04102
95.82898, 59.44736
96.31110, 63.57197
96.79321, 67.49324
97.27533, 71.94475
97.75745, 77.14272
98.23956, 82.93037
98.72168, 88.19368
99.20380, 92.53076
99.68591, 97.43199
100.1680, 104.6616
100.6501, 114.4544
101.1323, 125.1098
101.6144, 135.9389
102.0965, 146.8325
102.5786, 159.1207
103.0607, 172.7943
103.5428, 187.9545
104.0250, 205.0667
104.5071, 223.8625
104.9892, 244.8258
105.4713, 268.1085
105.9534, 294.3189
106.4355, 321.4659
106.9177, 350.4670
107.3998, 380.4326
107.8819, 409.6592
108.3640, 439.5872
108.8461, 467.2892
109.3282, 491.7264
109.8104, 511.7437
110.2925, 529.3183
110.7746, 543.1188
111.2567, 553.6275
111.7388, 565.1698
112.2209, 578.8245
112.7031, 593.1714
113.1852, 607.3905
113.6673, 619.3076
114.1494, 632.8724
114.6315, 648.7271
115.1136, 667.0142
115.5958, 688.4985
116.0779, 716.1945
116.5600, 746.4041
117.0421, 774.8586
117.5242, 798.4744
118.0063, 821.4852
118.4885, 846.1815
118.9706, 872.7681
119.4527, 901.0219
119.9348, 932.4088
120.4169, 965.2157
120.8990, 996.8130
121.3812, 1024.518
121.8633, 1050.844
122.3454, 1077.774
122.8275, 1105.841
123.3096, 1134.461
123.7917, 1163.799
124.2739, 1193.489
124.7560, 1222.196
125.2381, 1248.060
125.7202, 1272.632
126.2023, 1297.938
126.6844, 1324.072
127.1666, 1351.893
127.6487, 1383.426
128.1308, 1418.629
128.6129, 1454.244
129.0950, 1486.698
129.5771, 1517.357
130.0593, 1551.438
130.5414, 1591.212
131.0235, 1634.780
131.5056, 1675.308
131.9877, 1705.993
132.4698, 1728.669
132.9520, 1753.821
133.4341, 1781.392
133.9162, 1810.458
134.3983, 1840.673
134.8804, 1871.913
135.3625, 1904.376
135.8447, 1938.479
136.3268, 1973.168
136.8089, 2007.146
137.2910, 2040.245
137.7731, 2074.643
138.2552, 2113.141
138.7374, 2156.778
139.2195, 2193.808
139.7016, 2222.446
140.1837, 2246.760
140.6658, 2275.203
141.1479, 2310.210
141.6301, 2344.090
142.1122, 2373.526
142.5943, 2397.737
143.0764, 2420.353
143.5585, 2443.852
144.0406, 2465.817
144.5228, 2478.174
145.0049, 2478.681
145.4870, 2472.493
145.9691, 2462.887
146.4512, 2454.208
146.9333, 2434.889
147.4155, 2401.969
147.8976, 2356.412
148.3797, 2309.682
148.8618, 2258.637
149.3439, 2208.164
149.8260, 2161.431
150.3082, 2117.818
150.7903, 2078.037
151.2724, 2041.983
151.7545, 2009.838
152.2366, 1979.039
152.7188, 1946.698
153.2009, 1916.822
153.6830, 1893.011
154.1651, 1877.070
154.6472, 1865.501
155.1293, 1857.883
155.6115, 1854.088
156.0936, 1853.996
156.5757, 1857.547
157.0578, 1864.753
157.5399, 1875.620
158.0220, 1891.405
158.5042, 1909.861
158.9863, 1929.740
159.4684, 1950.579
159.9505, 1974.813
160.4326, 2003.731
160.9147, 2036.295
161.3969, 2070.951
161.8790, 2106.105
162.3611, 2143.986
162.8432, 2186.247
163.3253, 2233.346
163.8074, 2282.647
164.2896, 2333.780
164.7717, 2386.174
165.2538, 2438.700
165.7359, 2487.394
166.2180, 2537.913
166.7001, 2595.753
167.1823, 2664.248
167.6644, 2733.210
168.1465, 2794.334
168.6286, 2850.299
169.1107, 2908.687
169.5928, 2976.339
170.0750, 3047.243
170.5571, 3116.207
171.0392, 3180.386
171.5213, 3243.714
172.0034, 3309.467
172.4855, 3377.458
172.9677, 3444.947
173.4498, 3511.101
173.9319, 3576.175
174.4140, 3640.276
174.8961, 3702.826
175.3782, 3765.239
175.8604, 3832.378
176.3425, 3903.840
176.8246, 3973.264
177.3067, 4036.917
177.7888, 4095.980
178.2709, 4151.953
178.7531, 4207.028
179.2352, 4258.705
179.7173, 4306.292
180.1994, 4349.800
180.6815, 4381.949
181.1636, 4394.347
181.6458, 4389.781
182.1279, 4376.257
182.6100, 4357.816
183.0921, 4331.535
183.5742, 4289.846
184.0563, 4233.282
184.5385, 4165.580
185.0206, 4093.910
185.5027, 4015.771
185.9848, 3922.429
186.4669, 3803.666
186.9490, 3668.001
187.4312, 3535.589
187.9133, 3408.963
188.3954, 3284.168
188.8775, 3158.055
189.3596, 3031.665
189.8417, 2908.948
190.3239, 2792.561
190.8060, 2681.411
191.2881, 2575.315
191.7702, 2475.375
192.2523, 2380.583
192.7344, 2288.303
193.2166, 2198.966
193.6987, 2115.939
194.1808, 2040.642
194.6629, 1972.994
195.1450, 1907.927
195.6271, 1845.217
196.1093, 1785.592
196.5914, 1730.657
197.0735, 1680.611
197.5556, 1632.510
198.0377, 1584.293
198.5198, 1535.493
199.0020, 1493.140
199.4841, 1458.378
199.9662, 1427.867
200.4483, 1394.975
200.9304, 1358.884
201.4125, 1325.316
201.8947, 1297.979
202.3768, 1277.543
202.8589, 1254.465
203.3410, 1227.721
203.8231, 1199.518
204.3052, 1174.198
204.7874, 1151.809
205.2695, 1131.480
205.7516, 1113.345
206.2337, 1097.817
206.7158, 1081.582
207.1979, 1064.251
207.6801, 1046.484
208.1622, 1029.771
208.6443, 1013.916
209.1264, 999.3903
209.6085, 986.5632
210.0906, 975.6915
210.5728, 965.4471
211.0549, 956.3486
211.5370, 947.5461
212.0191, 936.9484
212.5012, 923.3887
212.9833, 910.7161
213.4655, 901.1997
213.9476, 895.8129
214.4297, 889.7623
214.9118, 882.7811
215.3939, 875.1981
215.8760, 867.3975
216.3581, 858.9249
216.8403, 851.2952
217.3224, 845.6688
217.8045, 843.0818
218.2866, 839.0385
218.7687, 832.8986
219.2508, 825.4460
219.7330, 819.0262
220.2151, 814.1193
220.6972, 809.3315
221.1793, 803.8495
221.6614, 796.7934
222.1435, 791.3636
222.6257, 788.2479
223.1078, 786.5745
223.5899, 783.8284
224.0720, 779.6132
224.5541, 774.9559
225.0362, 770.2318
225.5184, 765.5315
226.0005, 760.5977
226.4826, 754.9814
226.9647, 749.2542
227.4468, 744.9403
227.9289, 742.7697
228.4111, 740.9756
228.8932, 738.8065
229.3753, 736.2581
229.8574, 733.3698
230.3395, 729.9919
230.8216, 726.3443
231.3038, 722.8587
231.7859, 719.1129
232.2680, 716.1807
232.7501, 714.7801
233.2322, 716.1784
233.7143, 716.1884
234.1965, 714.2826
234.6786, 711.0677
235.1607, 708.1371
235.6428, 705.2468
236.1249, 702.9714
236.6070, 701.8942
237.0892, 703.7377
237.5713, 702.7769
238.0534, 697.6782
238.5355, 690.1130
239.0176, 684.3654
239.4997, 680.8750
239.9819, 678.4757
240.4640, 676.8907
240.9461, 676.8601
241.4282, 675.8056
241.9103, 673.1609
242.3924, 669.6788
242.8746, 667.2757
243.3567, 666.8760
243.8388, 666.1614
244.3209, 663.9709
244.8030, 659.2466
245.2851, 656.0088
245.7673, 654.8062
246.2494, 654.8748
246.7315, 654.6948
247.2136, 654.6708
247.6957, 653.7531
248.1778, 651.1874
248.6600, 645.8893
249.1421, 642.4318
249.6242, 641.7943
250.1063, 642.4468
250.5884, 641.1333
251.0705, 636.0497
251.5527, 632.0708
252.0348, 631.3591
252.5169, 635.1533
252.9990, 637.6296
253.4811, 638.3177
253.9632, 638.0104
254.4454, 638.1960
254.9275, 639.4581
255.4096, 640.0834
255.8917, 639.2660
256.3738, 636.5254
256.8560, 634.5339
257.3381, 633.2138
257.8202, 632.6901
258.3023, 633.4003
258.7844, 636.1952
259.2665, 638.3537
259.7487, 638.8787
260.2308, 637.4917
260.7129, 636.3422
261.1950, 635.4069
261.6771, 634.7313
262.1592, 634.4095
262.6414, 634.5187
263.1235, 634.7931
263.6056, 635.1732
264.0877, 635.6655
264.5698, 636.3254
265.0519, 637.4520
265.5341, 638.3408
266.0162, 637.9564
266.4983, 635.7635
266.9804, 633.9127
267.4625, 632.6630
267.9446, 632.0379
268.4268, 633.4999
268.9089, 637.9420
269.3910, 642.8419
269.8731, 645.5978
270.3552, 645.8193
270.8373, 645.2925
271.3195, 643.9786
271.8016, 642.0704
272.2837, 641.7806
272.7658, 643.6205
273.2479, 645.9190
273.7300, 646.7839
274.2122, 645.7538
274.6943, 646.3732
275.1764, 650.3060
275.6585, 656.4469
276.1406, 658.2596
276.6227, 654.6114
277.1049, 650.4033
277.5870, 649.9189
278.0691, 653.5099
278.5512, 656.7892
279.0333, 659.0196
279.5154, 660.4857
279.9976, 662.0135
280.4797, 663.5641
280.9618, 665.3964
281.4439, 668.1914
281.9260, 671.9531
282.4081, 673.9385
282.8903, 672.7960
283.3724, 670.7759
283.8545, 674.1255
284.3366, 683.3289
284.8187, 692.7850
285.3008, 698.7447
285.7830, 701.5000
286.2651, 703.7250
286.7472, 705.5001
287.2293, 707.1837
287.7114, 709.3837
288.1935, 712.0960
288.6757, 715.1994
289.1578, 718.6344
289.6399, 722.4072
290.1220, 726.6315
290.6041, 731.5670
291.0862, 736.1886
291.5684, 738.0334
292.0505, 737.5314
292.5326, 738.6163
293.0147, 744.6239
293.4968, 753.7421
293.9789, 760.5363
294.4611, 764.5929
294.9432, 767.6407
295.4253, 771.5884
295.9074, 776.2440
296.3895, 780.6568
296.8716, 784.6863
297.3538, 788.1908
297.8359, 790.0631
298.3180, 790.1864
298.8001, 791.6060
299.2822, 798.5514
299.7643, 809.2164
300.2465, 818.7456
300.7286, 824.6011
301.2107, 828.9335
301.6928, 834.1870
302.1749, 840.3587
302.6570, 848.1344
303.1392, 859.7793
303.6213, 873.1165
304.1034, 883.9319
304.5855, 889.6245
305.0676, 894.1428
305.5497, 901.8547
306.0319, 912.2311
306.5140, 922.9210
306.9961, 931.5428
307.4782, 939.7692
307.9603, 949.8732
308.4424, 962.9567
308.9246, 976.7554
309.4067, 989.3531
309.8888, 1001.146
310.3709, 1013.547
310.8530, 1027.064
311.3351, 1041.513
311.8173, 1056.425
312.2994, 1071.428
312.7815, 1088.372
313.2636, 1110.916
313.7457, 1135.813
314.2278, 1157.375
314.7100, 1169.369
315.1921, 1179.832
315.6742, 1193.386
316.1563, 1210.626
316.6384, 1229.938
317.1205, 1251.732
317.6027, 1274.625
318.0848, 1296.747
318.5669, 1316.731
319.0490, 1336.530
319.5311, 1356.429
320.0132, 1376.400
320.4954, 1398.121
320.9775, 1422.154
321.4596, 1447.919
321.9417, 1474.580
322.4238, 1502.763
322.9059, 1531.004
323.3881, 1559.491
323.8702, 1587.875
324.3523, 1615.095
324.8344, 1637.594
325.3165, 1661.082
325.7986, 1689.137
326.2808, 1729.622
326.7629, 1765.774
327.2450, 1795.377
327.7271, 1819.548
328.2092, 1842.782
328.6913, 1865.367
329.1735, 1886.767
329.6556, 1907.236
330.1377, 1927.744
330.6198, 1945.490
331.1019, 1960.790
331.5840, 1973.157
332.0662, 1981.935
332.5483, 1986.692
333.0304, 1988.362
333.5125, 1986.620
333.9946, 1980.646
334.4767, 1975.198
334.9589, 1969.470
335.4410, 1965.091
335.9231, 1964.704
336.4052, 1970.094
336.8873, 1974.801
337.3694, 1977.080
337.8516, 1977.091
338.3336, 1976.962
338.8158, 1975.649
339.2979, 1976.504
339.7800, 1983.416
340.2621, 1997.229
340.7442, 2011.109
341.2263, 2023.705
341.7085, 2035.497
342.1906, 2046.512
342.6727, 2056.328
343.1548, 2068.629
343.6369, 2088.474
344.1190, 2114.976
344.6012, 2136.245
345.0833, 2150.140
345.5654, 2159.615
346.0475, 2169.405
346.5296, 2179.403
347.0117, 2188.924
347.4939, 2198.796
347.9760, 2207.869
348.4581, 2212.005
348.9402, 2210.495
349.4223, 2206.742
349.9044, 2204.581
350.3866, 2203.388
350.8687, 2200.989
351.3508, 2195.027
351.8329, 2187.962
352.3150, 2183.620
352.7971, 2181.948
353.2793, 2181.476
353.7614, 2181.276
354.2435, 2181.433
354.7256, 2181.969
355.2077, 2182.197
355.6898, 2183.655
356.1720, 2188.691
356.6541, 2196.536
357.1362, 2203.831
357.6183, 2207.782
358.1004, 2210.840
358.5826, 2215.197
359.0647, 2221.446
359.5468, 2228.539
360.0289, 2237.329
360.5110, 2246.482
360.9931, 2253.485
361.4753, 2254.396
361.9574, 2255.187
362.4395, 2259.661
362.9216, 2269.016
363.4037, 2276.479
363.8858, 2280.147
364.3680, 2280.900
364.8501, 2279.668
365.3322, 2276.001
365.8143, 2271.096
366.2964, 2265.370
366.7785, 2258.806
367.2607, 2250.746
367.7428, 2240.240
368.2249, 2228.809
368.7070, 2217.341
369.1891, 2207.434
369.6712, 2195.552
370.1534, 2181.526
370.6355, 2165.379
371.1176, 2147.079
371.5997, 2125.222
372.0818, 2102.887
372.5639, 2081.405
373.0461, 2061.616
373.5282, 2039.042
374.0103, 2012.245
374.4924, 1983.482
374.9745, 1956.924
375.4566, 1933.569
375.9388, 1908.644
376.4209, 1880.363
376.9030, 1848.722
377.3851, 1819.923
377.8672, 1794.347
378.3493, 1769.425
378.8315, 1742.380
379.3136, 1712.932
379.7957, 1686.178
380.2778, 1663.446
380.7599, 1643.316
381.2420, 1621.147
381.7242, 1597.304
382.2063, 1574.507
382.6884, 1555.117
383.1705, 1538.378
383.6526, 1522.394
384.1347, 1506.972
384.6169, 1492.289
385.0990, 1479.270
385.5811, 1467.478
386.0632, 1456.151
386.5453, 1443.560
387.0274, 1431.790
387.5096, 1423.911
387.9917, 1419.973
388.4738, 1418.473
388.9559, 1419.849
389.4380, 1422.588
389.9201, 1424.598
390.4023, 1423.762
390.8844, 1423.719
391.3665, 1426.099
391.8486, 1431.097
392.3307, 1439.362
392.8128, 1453.129
393.2950, 1468.973
393.7771, 1484.439
394.2592, 1498.098
394.7413, 1513.958
395.2234, 1534.028
395.7055, 1556.819
396.1877, 1580.047
396.6698, 1602.793
397.1519, 1626.270
397.6340, 1650.948
398.1161, 1676.860
398.5982, 1703.877
399.0804, 1733.261
399.5625, 1763.026
400.0446, 1791.609
400.5267, 1816.492
401.0088, 1844.085
401.4909, 1874.883
401.9731, 1908.720
402.4552, 1944.521
402.9373, 1982.852
403.4194, 2022.282
403.9015, 2062.280
404.3836, 2103.002
404.8658, 2143.861
405.3479, 2184.730
405.8300, 2225.297
406.3121, 2265.805
406.7942, 2306.416
407.2763, 2345.710
407.7585, 2383.871
408.2406, 2420.500
408.7227, 2453.315
409.2048, 2482.444
409.6869, 2505.591
410.1690, 2521.897
410.6512, 2530.659
411.1333, 2529.127
411.6154, 2516.472
412.0975, 2493.795
412.5796, 2461.646
413.0617, 2420.424
413.5439, 2371.819
414.0260, 2315.509
414.5081, 2252.332
414.9902, 2182.833
415.4723, 2106.273
415.9544, 2028.396
416.4366, 1954.189
416.9187, 1882.203
417.4008, 1810.556
417.8829, 1735.641
418.3650, 1662.684
418.8471, 1592.781
419.3293, 1526.766
419.8114, 1465.470
420.2935, 1411.740
420.7756, 1361.630
421.2577, 1313.710
421.7398, 1265.959
422.2220, 1222.112
422.7041, 1184.370
423.1862, 1150.545
423.6683, 1116.532
424.1504, 1078.241
424.6325, 1042.748
425.1147, 1012.639
425.5968, 987.9791
426.0789, 964.4530
426.5610, 942.4611
427.0431, 921.2239
427.5252, 900.0983
428.0074, 877.9805
428.4895, 858.7165
428.9716, 843.8117
429.4537, 831.9205
429.9358, 818.8988
430.4179, 804.3323
430.9001, 790.2100
431.3822, 777.9425
431.8643, 767.5650
432.3464, 756.5104
432.8285, 744.5985
433.3106, 732.5861
433.7928, 721.3060
434.2749, 710.7439
434.7570, 700.7694
435.2391, 691.2952
435.7212, 682.4242
436.2033, 674.6121
436.6855, 667.8306
437.1676, 661.0770
437.6497, 653.1320
438.1318, 644.9311
438.6139, 637.9514
439.0960, 632.5433
439.5782, 627.9449
440.0603, 624.2546
440.5424, 620.8508
441.0245, 616.6387
441.5066, 610.0054
441.9887, 603.3214
442.4709, 598.2955
442.9530, 594.8923
443.4351, 590.9672
443.9172, 584.9288
444.3993, 578.5358
444.8814, 573.1407
445.3636, 569.2386
445.8457, 565.9038
446.3278, 563.5439
446.8099, 561.6821
447.2920, 559.0607
447.7741, 555.0253
448.2563, 550.9273
448.7384, 547.4073
449.2205, 544.6387
449.7026, 540.7151
450.1847, 534.9205
450.6668, 528.9427
451.1490, 524.4286
451.6311, 521.7043
452.1132, 519.0954
452.5953, 516.1094
453.0774, 513.2538
453.5595, 512.2199
454.0417, 513.2537
454.5238, 513.7442
455.0059, 512.1208
455.4880, 508.6829
455.9701, 504.5859
456.4522, 499.7280
456.9344, 495.2230
457.4165, 492.4689
457.8986, 491.0369
458.3807, 489.8758
458.8628, 488.9693
459.3449, 487.7991
459.8271, 485.4379
460.3092, 482.1617
460.7913, 479.1160
461.2734, 476.9765
461.7555, 475.3651
462.2376, 474.0649
462.7198, 473.1701
463.2019, 472.0529
463.6840, 470.2122
464.1661, 468.0599
464.6482, 466.0946
465.1303, 464.4412
465.6125, 462.9823
466.0946, 461.7751
466.5767, 460.7751
467.0588, 459.7061
467.5409, 458.9717
468.0230, 457.7914
468.5052, 455.7582
468.9873, 452.4643
469.4694, 449.2992
469.9515, 446.0975
470.4336, 443.1849
470.9157, 441.1271
471.3979, 440.2518
471.8800, 439.1111
472.3621, 437.0552
472.8442, 434.4782
473.3263, 433.5270
473.8084, 434.4341
474.2906, 435.1562
474.7727, 434.1018
475.2548, 431.5472
475.7369, 428.6454
476.2190, 425.3422
476.7011, 422.3359
477.1833, 420.8399
477.6654, 420.3326
478.1475, 419.3743
478.6296, 416.5823
479.1117, 413.5981
479.5938, 412.4275
480.0760, 412.7942
480.5581, 412.8795
481.0402, 411.4914
481.5223, 409.4771
482.0044, 407.4555
482.4865, 405.4859
482.9687, 403.7163
483.4508, 401.9172
483.9329, 400.4195
484.4150, 399.7133
484.8971, 402.0643
485.3792, 402.9032
485.8614, 400.0041
486.3435, 393.7648
486.8256, 390.2134
487.3077, 391.3221
487.7898, 392.8373
488.2719, 392.3619
488.7541, 389.0707
489.2362, 386.5109
489.7183, 384.8749
490.2004, 383.7409
490.6825, 382.3991
491.1646, 380.7905
491.6468, 379.5388
492.1289, 378.9089
492.6110, 378.7126
493.0931, 378.4903
493.5752, 378.2352
494.0573, 377.6797
494.5395, 376.1534
495.0216, 374.2637
495.5037, 373.5452
495.9858, 374.4384
496.4679, 375.0806
496.9500, 373.2865
497.4322, 370.1690
497.9143, 367.6047
498.3964, 366.8237
498.8785, 366.3600
499.3606, 365.3119
499.8427, 363.8333
500.3249, 362.7221
500.8070, 362.4455
501.2891, 362.4443
501.7712, 362.5778
502.2533, 363.1827
502.7354, 362.9092
503.2176, 360.6443
503.6997, 357.9781
504.1818, 356.5815
504.6639, 357.3297
505.1460, 357.7058
505.6281, 357.2681
506.1103, 356.1980
506.5924, 355.2228
507.0745, 354.3743
507.5566, 353.4929
508.0387, 352.5385
508.5208, 351.5032
509.0030, 350.0230
509.4851, 347.9495
509.9672, 346.2711
510.4493, 346.8944
510.9314, 348.9343
511.4135, 349.1147
511.8957, 345.7333
512.3778, 341.7200
512.8599, 341.1049
513.3420, 342.7914
513.8242, 343.5617
514.3063, 340.6842
514.7884, 336.9980
515.2705, 334.7854
515.7526, 334.2153
516.2347, 333.6563
516.7169, 331.9811
517.1990, 330.3409
517.6811, 329.6245
518.1632, 330.7108
518.6453, 331.7155
519.1274, 332.7991
519.6096, 333.6120
520.0917, 333.4593
520.5738, 331.9270
521.0559, 330.0681
521.5380, 327.7918
522.0201, 325.2018
522.5023, 324.3589
522.9844, 325.7621
523.4665, 327.5056
523.9486, 328.3085
524.4307, 328.2037
524.9128, 327.5946
525.3950, 326.4156
525.8771, 325.1076
526.3592, 324.2994
526.8413, 323.8762
527.3234, 323.4177
527.8055, 322.9877
528.2877, 322.2424
528.7698, 320.1988
529.2519, 317.2896
529.7340, 315.2800
530.2161, 315.7760
530.6982, 317.1466
531.1804, 318.3803
531.6625, 319.4177
532.1446, 319.7965
532.6267, 318.7607
533.1088, 317.2917
533.5909, 316.3102
534.0731, 316.9492
534.5552, 316.7955
535.0373, 315.0591
535.5194, 312.5200
536.0015, 311.1252
536.4836, 311.3742
536.9658, 311.7678
537.4479, 311.7262
537.9300, 311.2847
538.4121, 311.5021
538.8942, 312.5842
539.3763, 313.4336
539.8585, 312.5049
540.3406, 310.2885
540.8227, 310.0681
541.3048, 312.7910
541.7869, 315.6180
542.2690, 314.2080
542.7512, 310.0850
543.2333, 307.0805
543.7154, 307.7151
544.1975, 309.3357
544.6796, 309.8749
545.1617, 309.5428
545.6439, 309.2349
546.1260, 309.3852
546.6081, 309.6677
547.0902, 309.8239
547.5723, 309.7000
548.0544, 309.9870
548.5366, 311.5386
549.0187, 313.1118
549.5008, 313.5833
549.9829, 312.1987
550.4650, 311.0759
550.9471, 310.3832
551.4293, 310.0591
551.9114, 310.0895
552.3935, 310.6295
552.8756, 310.7557
553.3577, 309.8677
553.8398, 308.2831
554.3220, 307.5895
554.8041, 307.8124
555.2862, 308.1266
555.7683, 307.7819
556.2504, 307.0837
556.7325, 306.6358
557.2147, 306.5295
557.6968, 306.6057
558.1789, 306.6760
558.6610, 306.8557
559.1431, 307.3140
559.6252, 308.3944
560.1074, 309.4667
560.5895, 310.4399
561.0716, 311.2348
561.5537, 311.5771
562.0358, 310.9064
562.5179, 310.2637
563.0001, 310.0361
563.4822, 310.2644
563.9643, 310.4427
564.4464, 310.4280
564.9285, 310.5681
565.4106, 311.2015
565.8928, 312.4334
566.3749, 313.4955
566.8570, 314.3320
567.3391, 315.0044
567.8212, 315.5481
568.3033, 315.9901
568.7855, 316.4831
569.2676, 317.0423
569.7497, 317.7222
570.2318, 318.9476
570.7139, 320.4807
571.1960, 321.3848
571.6782, 320.6398
572.1603, 319.3358
572.6424, 318.0788
573.1245, 316.8624
573.6066, 316.5914
574.0887, 318.3655
574.5709, 320.7693
575.0530, 322.7223
575.5351, 324.2319
576.0172, 325.0746
576.4993, 324.8853
576.9814, 324.2141
577.4636, 323.9290
577.9457, 324.0955
578.4278, 324.4754
578.9099, 325.0051
579.3920, 325.6999
579.8741, 326.9062
580.3563, 328.7009
580.8384, 329.8492
581.3205, 328.8095
581.8026, 326.5876
582.2847, 326.3256
582.7668, 328.1368
583.2490, 330.4102
583.7311, 332.1143
584.2132, 333.3478
584.6953, 334.2572
585.1774, 334.8799
585.6595, 335.1482
586.1416, 334.3196
586.6237, 333.2906
587.1058, 331.4922
587.5880, 334.8851
588.0701, 337.1156
588.5522, 338.2464
589.0343, 334.9840
589.5164, 337.3946
589.9985, 337.5317
590.4807, 337.5757
590.9628, 340.7848
591.4449, 338.1613
591.9270, 341.3202
592.4091, 342.1709
592.8912, 344.0779
593.3734, 343.6977
593.8555, 344.0238
594.3376, 346.6381
594.8197, 347.9854
595.3018, 347.3417
595.7839, 349.3159
596.2661, 346.6127
596.7482, 348.0141
597.2303, 351.1862
597.7124, 350.6575
598.1945, 352.6736
598.6766, 353.7204
599.1588, 350.3628
599.6409, 354.6652
600.1230, 355.6547
600.6051, 353.2428
601.0872, 357.2827
601.5693, 355.3397
602.0515, 359.2087
602.5336, 363.0568
603.0157, 365.6014
603.4978, 366.7057
603.9799, 367.1571
604.4620, 366.7394
604.9442, 366.3315
605.4263, 367.1893
605.9084, 369.1295
606.3905, 371.0244
606.8726, 372.6570
607.3547, 374.0900
607.8369, 375.1350
608.3190, 376.0392
608.8011, 377.4636
609.2832, 380.3431
609.7653, 383.2964
610.2474, 385.3464
610.7296, 386.6100
611.2117, 388.0256
611.6938, 389.8146
612.1759, 391.8634
612.6580, 394.3563
613.1401, 397.7260
613.6223, 399.5180
614.1044, 398.5329
614.5865, 397.5583
615.0686, 399.5547
615.5507, 405.0555
616.0328, 408.5678
616.5150, 409.1121
616.9971, 408.5690
617.4792, 409.8086
617.9613, 412.4858
618.4434, 414.9536
618.9255, 416.4196
619.4077, 417.7101
619.8898, 419.6701
620.3719, 422.2462
620.8540, 425.2928
621.3361, 429.4451
621.8182, 433.4041
622.3004, 436.0907
622.7825, 437.4811
623.2646, 439.6584
623.7467, 443.2661
624.2288, 447.5618
624.7109, 452.4971
625.1931, 458.9599
625.6752, 462.6672
626.1573, 462.3475
626.6394, 461.4130
627.1215, 463.6380
627.6036, 469.0666
628.0858, 474.3727
628.5679, 479.0006
629.0500, 483.4675
629.5321, 488.8362
630.0142, 494.7315
630.4963, 499.7303
630.9785, 502.2147
631.4606, 504.6859
631.9427, 509.6015
632.4248, 516.3629
632.9069, 523.0734
633.3890, 529.0291
633.8712, 534.6088
634.3533, 540.2369
634.8354, 545.9924
635.3175, 550.4265
635.7996, 552.3087
636.2817, 554.2245
636.7639, 557.7122
637.2460, 563.1436
637.7281, 568.1922
638.2102, 572.8990
638.6923, 577.1586
639.1744, 580.6625
639.6566, 583.5131
640.1387, 586.7894
640.6208, 590.9753
641.1029, 594.5323
641.5850, 595.3129
642.0671, 594.1481
642.5493, 592.7197
643.0314, 591.3052
643.5135, 590.2325
643.9956, 590.2474
644.4777, 590.8313
644.9598, 590.3520
645.4420, 587.2214
645.9241, 584.2804
646.4062, 582.9186
646.8883, 582.9987
647.3704, 580.7258
647.8525, 575.2744
648.3347, 569.3102
648.8168, 564.4406
649.2989, 560.5738
649.7810, 556.6519
650.2631, 552.5795
650.7452, 549.2684
651.2274, 548.8846
651.7095, 549.7410
652.1916, 547.9698
652.6737, 542.2877
653.1558, 536.2753
653.6379, 532.6354
654.1201, 530.1721
654.6022, 527.2877
655.0843, 523.0177
655.5664, 518.8496
656.0485, 515.1863
656.5306, 511.8831
657.0128, 508.4531
657.4949, 504.4076
657.9770, 501.2148
658.4591, 499.5336
658.9412, 498.9592
659.4233, 497.4634
659.9055, 494.9017
660.3876, 492.9993
660.8697, 493.5436
661.3518, 495.2768
661.8339, 494.8026
662.3160, 492.2336
662.7982, 489.5391
663.2803, 487.4587
663.7624, 486.3178
664.2445, 486.7365
664.7266, 489.0557
665.2087, 491.2174
665.6909, 492.6752
666.1730, 493.6042
666.6551, 494.0930
667.1372, 493.5244
667.6193, 493.6055
668.1014, 494.3061
668.5836, 495.6824
669.0657, 498.2137
669.5478, 502.0619
670.0299, 504.6948
670.5120, 505.1286
670.9941, 504.9277
671.4763, 507.2247
671.9584, 511.4058
672.4405, 515.0983
672.9226, 516.4028
673.4047, 517.4854
673.8868, 520.3018
674.3690, 524.4995
674.8511, 528.9079
675.3332, 532.9257
675.8153, 537.1972
676.2974, 542.2097
676.7795, 548.0318
677.2617, 553.5216
677.7438, 558.4966
678.2259, 563.4735
678.7080, 568.6284
679.1901, 573.9715
679.6722, 580.3027
680.1544, 587.8690
680.6365, 595.4420
681.1186, 601.6765
681.6007, 607.0966
682.0828, 613.2917
682.5649, 620.5137
683.0471, 628.0389
683.5292, 635.0526
684.0113, 641.9634
684.4934, 649.0172
684.9755, 655.3912
685.4576, 663.3793
685.9398, 674.8503
686.4219, 687.9818
686.9040, 699.9219
687.3861, 710.7716
687.8682, 720.0028
688.3503, 726.6655
688.8325, 732.3140
689.3146, 741.0096
689.7967, 752.7525
690.2788, 764.9806
690.7609, 776.9796
691.2430, 788.4552
691.7252, 798.9262
692.2073, 808.5936
692.6894, 817.9266
693.1715, 827.2318
693.6536, 836.2899
694.1357, 844.3752
694.6179, 851.5702
695.1000, 860.3279
695.5821, 874.0695
696.0642, 886.9005
696.5463, 895.3216
697.0284, 898.0826
697.5106, 905.1238
697.9927, 917.7255
698.4748, 931.6748
698.9569, 943.9731
699.4390, 954.6655
699.9211, 963.3029
700.4033, 969.7459
700.8854, 975.1471
701.3675, 979.8187
701.8496, 984.4807
702.3317, 990.5877
702.8138, 999.2972
703.2960, 1007.129
703.7781, 1013.067
704.2602, 1016.837
704.7423, 1018.097
705.2244, 1013.812
705.7065, 1010.829
706.1887, 1010.122
706.6708, 1010.644
707.1529, 1010.799
707.6350, 1010.802
708.1171, 1008.919
708.5992, 1004.215
709.0814, 997.9355
709.5635, 992.9372
710.0456, 988.7463
710.5277, 983.2452
711.0098, 973.6764
711.4919, 963.7137
711.9741, 957.0988
712.4562, 953.0731
712.9383, 948.2761
713.4204, 940.4462
713.9025, 932.5913
714.3846, 926.2230
714.8668, 921.2018
715.3489, 915.4998
715.8310, 908.4872
716.3131, 901.9751
716.7952, 897.2719
717.2773, 894.1908
717.7595, 888.7098
718.2416, 880.6443
718.7237, 873.8024
719.2058, 874.0050
719.6879, 876.3940
720.1700, 871.6589
720.6522, 858.3519
721.1343, 847.3568
721.6164, 846.8676
722.0985, 850.1105
722.5806, 851.6523
723.0627, 850.2811
723.5449, 848.0256
724.0270, 844.3573
724.5091, 840.4628
724.9912, 837.4908
725.4733, 835.5798
725.9554, 833.4912
726.4376, 830.9689
726.9197, 828.6571
727.4018, 827.5468
727.8839, 827.4095
728.3660, 827.6989
728.8481, 828.6867
729.3303, 829.0581
729.8124, 826.6714
730.2945, 823.1971
730.7766, 821.2098
731.2587, 822.3612
731.7408, 824.0055
732.2230, 825.7007
732.7051, 827.4794
733.1872, 829.4984
733.6693, 831.9603
734.1514, 833.9757
734.6335, 835.1693
735.1157, 835.9447
735.5978, 837.3063
736.0799, 839.2189
736.5620, 841.3854
737.0441, 844.3688
737.5262, 846.9761
738.0084, 847.0972
738.4905, 845.5568
738.9726, 845.1566
739.4547, 847.8260
739.9368, 851.2004
740.4189, 854.1437
740.9011, 856.7269
741.3832, 860.3328
741.8653, 865.6180
742.3474, 870.7686
742.8295, 874.9911
743.3116, 878.3778
743.7938, 881.3566
744.2759, 883.8992
744.7580, 886.7996
745.2401, 891.2443
745.7222, 896.0817
746.2043, 898.8405
746.6865, 899.6337
747.1686, 902.0154
747.6507, 910.9655
748.1328, 919.9393
748.6149, 923.6499
749.0970, 919.6678
749.5792, 919.9449
750.0613, 926.7181
750.5434, 935.3995
751.0255, 943.6149
751.5076, 951.3658
751.9897, 957.6034
752.4719, 962.1508
752.9540, 966.2916
753.4361, 971.2865
753.9182, 976.8334
754.4003, 982.2997
754.8824, 987.4485
755.3646, 993.3271
755.8467, 1000.618
756.3288, 1008.945
756.8109, 1017.956
757.2930, 1029.049
757.7751, 1037.957
758.2573, 1043.257
758.7394, 1047.592
759.2215, 1053.348
759.7036, 1060.661
760.1857, 1068.933
760.6678, 1078.084
761.1500, 1087.904
761.6321, 1098.751
762.1142, 1109.826
762.5963, 1119.064
763.0784, 1125.220
763.5605, 1131.356
764.0427, 1139.685
764.5248, 1149.234
765.0069, 1158.784
765.4890, 1170.031
765.9711, 1178.447
766.4532, 1182.259
766.9354, 1184.280
767.4175, 1188.606
767.8996, 1195.558
768.3817, 1203.368
768.8638, 1212.391
769.3459, 1220.746
769.8281, 1224.180
770.3102, 1224.266
770.7923, 1225.694
771.2744, 1230.865
771.7565, 1236.631
772.2386, 1241.455
772.7208, 1245.301
773.2029, 1248.110
773.6850, 1249.377
774.1671, 1250.144
774.6492, 1250.418
775.1313, 1250.343
775.6135, 1250.085
776.0956, 1249.538
776.5777, 1249.677
777.0598, 1251.262
777.5419, 1252.886
778.0240, 1251.705
778.5062, 1248.392
778.9883, 1245.045
779.4704, 1243.052
779.9525, 1240.912
780.4346, 1236.801
780.9167, 1231.877
781.3989, 1228.910
781.8810, 1230.945
782.3631, 1231.925
782.8452, 1230.353
783.3273, 1227.177
783.8094, 1225.327
784.2916, 1224.974
784.7737, 1224.150
785.2558, 1221.814
785.7379, 1218.973
786.2200, 1218.213
786.7021, 1218.701
787.1843, 1217.684
787.6664, 1212.148
788.1485, 1206.356
788.6306, 1202.572
789.1127, 1200.480
789.5948, 1198.953
790.0770, 1198.617
790.5591, 1197.551
791.0412, 1194.631
791.5233, 1190.855
792.0054, 1190.321
792.4875, 1193.097
792.9697, 1195.525
793.4518, 1195.830
793.9339, 1194.954
794.4160, 1194.282
794.8981, 1193.681
795.3802, 1192.717
795.8624, 1190.226
796.3445, 1188.273
796.8266, 1188.067
797.3087, 1189.355
797.7908, 1190.753
798.2729, 1193.099
798.7551, 1193.736
799.2372, 1190.914
799.7193, 1186.260
800.2014, 1186.168
800.6835, 1190.346
801.1656, 1194.685
801.6478, 1197.125
802.1299, 1198.579
802.6120, 1199.972
803.0941, 1201.285
803.5762, 1202.493
804.0583, 1203.171
804.5405, 1204.132
805.0226, 1205.873
805.5047, 1208.162
805.9868, 1210.085
806.4689, 1211.366
806.9510, 1213.029
807.4332, 1215.472
807.9153, 1218.492
808.3974, 1221.546
808.8795, 1224.632
809.3616, 1227.743
809.8438, 1230.840
810.3259, 1233.975
810.8080, 1237.560
811.2901, 1241.263
811.7722, 1244.087
812.2543, 1243.187
812.7365, 1244.503
813.2186, 1250.206
813.7007, 1259.077
814.1828, 1266.726
814.6649, 1273.131
815.1470, 1278.683
815.6292, 1283.119
816.1113, 1287.114
816.5934, 1291.111
817.0755, 1295.612
817.5576, 1302.212
818.0397, 1314.435
818.5219, 1326.151
819.0040, 1332.890
819.4861, 1336.510
819.9682, 1343.124
820.4503, 1354.634
820.9324, 1366.530
821.4146, 1377.634
821.8967, 1388.495
822.3788, 1400.580
822.8609, 1413.701
823.3430, 1426.222
823.8251, 1436.564
824.3073, 1447.352
824.7894, 1462.967
825.2715, 1481.370
825.7536, 1498.853
826.2357, 1512.072
826.7178, 1526.182
827.2000, 1542.683
827.6821, 1560.985
828.1642, 1579.474
828.6463, 1597.822
829.1284, 1618.477
829.6105, 1642.769
830.0927, 1668.828
830.5748, 1693.964
831.0569, 1718.375
831.5390, 1742.892
832.0211, 1767.590
832.5032, 1793.449
832.9854, 1820.261
833.4675, 1848.841
833.9496, 1879.864
834.4317, 1914.119
834.9138, 1950.127
835.3959, 1988.011
835.8781, 2026.931
836.3602, 2065.077
836.8423, 2102.026
837.3244, 2145.418
837.8065, 2197.747
838.2886, 2253.033
838.7708, 2304.313
839.2529, 2354.250
839.7350, 2407.487
840.2171, 2465.664
840.6992, 2526.714
841.1813, 2590.289
841.6635, 2656.588
842.1456, 2726.362
842.6277, 2799.511
843.1098, 2874.843
843.5919, 2951.460
844.0740, 3032.849
844.5562, 3123.277
845.0383, 3221.214
845.5204, 3321.005
846.0025, 3421.628
846.4846, 3525.380
846.9667, 3632.977
847.4489, 3745.538
847.9310, 3862.532
848.4131, 3984.169
848.8952, 4113.195
849.3773, 4250.876
849.8594, 4395.005
850.3416, 4543.969
850.8237, 4697.789
851.3058, 4856.560
851.7879, 5021.431
852.2700, 5193.015
852.7521, 5378.689
853.2343, 5572.007
853.7164, 5766.010
854.1985, 5958.256
854.6806, 6154.231
855.1627, 6354.037
855.6448, 6560.611
856.1270, 6776.196
856.6091, 7001.899
857.0912, 7222.794
857.5733, 7435.736
858.0554, 7650.433
858.5375, 7878.681
859.0197, 8110.951
859.5018, 8326.206
859.9839, 8525.633
860.4660, 8723.646
860.9481, 8934.421
861.4302, 9139.441
861.9124, 9332.369
862.3945, 9510.652
862.8766, 9680.332
863.3587, 9842.469
863.8408, 9986.548
864.3229, 10106.09
864.8051, 10205.40
865.2872, 10296.33
865.7693, 10377.41
866.2514, 10435.39
866.7335, 10461.42
867.2156, 10463.71
867.6978, 10445.42
868.1799, 10408.03
868.6620, 10354.34
869.1441, 10281.52
869.6262, 10196.33
870.1083, 10098.57
870.5905, 9988.334
871.0726, 9865.643
871.5547, 9729.297
872.0368, 9588.487
872.5189, 9445.089
873.0010, 9299.374
873.4832, 9149.904
873.9653, 8996.657
874.4474, 8840.876
874.9295, 8682.243
875.4116, 8519.981
875.8937, 8350.179
876.3759, 8178.560
876.8580, 8011.591
877.3401, 7848.922
877.8222, 7693.440
878.3043, 7545.677
878.7864, 7401.409
879.2686, 7256.272
879.7507, 7109.349
880.2328, 6957.512
880.7149, 6799.607
881.1970, 6644.741
881.6791, 6499.923
882.1613, 6358.158
882.6434, 6211.694
883.1255, 6058.808
883.6076, 5915.522
884.0897, 5784.388
884.5718, 5654.808
885.0540, 5518.675
885.5361, 5377.479
886.0182, 5241.022
886.5003, 5108.151
886.9824, 4977.998
887.4645, 4852.384
887.9467, 4727.118
888.4288, 4598.312
888.9109, 4467.376
889.3930, 4338.019
889.8751, 4210.110
890.3572, 4086.884
890.8394, 3972.443
891.3215, 3862.699
891.8036, 3745.441
892.2857, 3623.308
892.7678, 3504.618
893.2499, 3395.242
893.7321, 3290.192
894.2142, 3185.469
894.6963, 3081.312
895.1784, 2979.809
895.6605, 2879.825
896.1426, 2783.251
896.6248, 2689.272
897.1069, 2598.577
897.5890, 2511.440
898.0711, 2427.367
898.5532, 2349.846
899.0353, 2279.627
899.5175, 2211.668
899.9996, 2137.917
900.4817, 2063.890
900.9638, 1996.988
901.4459, 1938.739
901.9280, 1884.214
902.4102, 1833.470
902.8923, 1784.220
903.3744, 1734.705
903.8565, 1684.482
904.3386, 1635.448
904.8207, 1588.084
905.3029, 1544.932
905.7850, 1511.132
906.2671, 1481.543
906.7492, 1450.182
907.2313, 1417.030
907.7134, 1385.081
908.1956, 1353.973
908.6777, 1325.894
909.1598, 1302.750
909.6419, 1283.183
910.1240, 1259.910
910.6061, 1232.955
911.0883, 1206.806
911.5704, 1183.113
912.0525, 1161.922
912.5346, 1144.262
913.0167, 1128.739
913.4988, 1112.327
913.9810, 1091.939
914.4631, 1073.181
914.9452, 1057.845
915.4273, 1044.206
915.9094, 1029.869
916.3915, 1014.906
916.8737, 999.6879
917.3558, 984.1298
917.8379, 968.9777
918.3200, 955.0656
918.8021, 942.1071
919.2842, 929.5452
919.7664, 917.2360
920.2485, 906.0641
920.7306, 897.1863
921.2127, 888.7849
921.6948, 880.1744
922.1769, 871.4153
922.6591, 860.4209
923.1412, 846.8815
923.6233, 833.7723
924.1054, 824.0871
924.5875, 815.4447
925.0696, 803.5367
925.5518, 789.0490
926.0339, 776.1484
926.5160, 769.5601
926.9981, 761.4540
927.4802, 748.4867
927.9623, 732.4677
928.4445, 718.7926
928.9266, 707.5930
929.4087, 696.6264
929.8908, 685.1927
930.3729, 673.4609
930.8550, 660.8231
931.3372, 648.1534
931.8193, 637.3923
932.3014, 630.5350
932.7835, 623.0799
933.2656, 613.2767
933.7477, 602.9060
934.2299, 593.4965
934.7120, 585.2498
935.1941, 576.1877
935.6762, 566.0939
936.1583, 556.5005
936.6404, 549.5773
937.1226, 543.7340
937.6047, 536.9016
938.0868, 528.8831
938.5689, 521.1163
939.0510, 514.5214
939.5331, 507.7419
940.0153, 499.7299
940.4974, 490.9482
940.9795, 484.8521
941.4616, 481.4338
941.9437, 477.8702
942.4258, 472.9590
942.9080, 467.1916
943.3901, 460.5180
943.8722, 453.5897
944.3543, 447.7986
944.8364, 444.6411
945.3185, 441.2597
945.8007, 436.8969
946.2828, 432.4879
946.7649, 429.6086
947.2470, 428.1938
947.7291, 425.4271
948.2112, 420.8196
948.6934, 415.7417
949.1755, 411.2657
949.6576, 407.1061
950.1397, 402.6957
950.6218, 397.7593
951.1039, 393.9364
951.5861, 392.0097
952.0682, 390.2957
952.5503, 387.7007
953.0324, 384.5502
953.5145, 383.8441
953.9966, 385.2948
954.4788, 385.3983
954.9609, 380.8221
955.4430, 375.3069
955.9251, 371.6439
956.4072, 369.4044
956.8893, 367.3972
957.3715, 365.4968
957.8536, 363.7799
958.3357, 362.4250
958.8178, 361.0341
959.2999, 358.8399
959.7820, 356.0148
960.2642, 353.3615
960.7463, 350.9768
961.2284, 348.9395
961.7105, 347.2784
962.1926, 345.9781
962.6747, 345.1296
963.1569, 344.9081
963.6390, 344.1478
964.1211, 342.6471
964.6032, 341.1392
965.0853, 340.2315
965.5674, 339.6441
966.0496, 338.7740
966.5317, 337.5613
967.0138, 335.6653
967.4959, 331.5415
967.9780, 328.1463
968.4601, 327.8596
968.9423, 329.1920
969.4244, 328.8261
969.9065, 326.5306
970.3886, 323.1590
970.8707, 318.2798
971.3528, 314.0092
971.8350, 314.1241
972.3171, 316.5594
972.7992, 317.4012
973.2813, 315.5245
973.7634, 313.8381
974.2455, 313.9037
974.7277, 314.0465
975.2098, 313.0495
975.6919, 310.8827
976.1740, 310.3545
976.6561, 311.5742
977.1382, 312.0228
977.6204, 308.9723
978.1025, 305.1255
978.5846, 303.8212
979.0667, 304.4483
979.5488, 305.1204
980.0309, 305.9339
980.5131, 305.7961
980.9952, 304.3538
981.4773, 302.0962
981.9594, 299.1599
982.4415, 295.8457
982.9236, 295.2267
983.4058, 298.3459
983.8879, 301.0273
984.3700, 298.6932
984.8521, 294.9314
985.3342, 293.2961
985.8163, 294.8720
986.2985, 295.1864
986.7806, 293.7064
987.2627, 292.0995
987.7448, 291.1985
988.2269, 290.8385
988.7090, 290.7069
989.1912, 290.7070
989.6733, 290.4203
990.1554, 289.2998
990.6375, 288.2146
991.1196, 287.5775
991.6017, 287.2665
992.0839, 287.2374
992.5660, 287.8143
993.0481, 286.7789
993.5302, 283.3307
994.0123, 280.4501
994.4944, 282.9307
994.9766, 287.5717
995.4587, 289.1603
995.9408, 286.8198
996.4229, 284.7934
996.9050, 285.1748
997.3871, 285.3974
997.8693, 284.2937
998.3514, 282.1080
998.8335, 280.2421
999.3156, 278.7083
999.7977, 277.5833
1000.280, 276.8269
1000.762, 276.6300
1001.244, 278.1963
1001.726, 280.1699
1002.208, 280.2060
1002.690, 275.7703
1003.173, 273.1175
1003.655, 272.9081
1004.137, 273.5575
1004.619, 273.5682
1005.101, 273.0901
1005.583, 272.6837
1006.065, 272.3651
1006.547, 271.8399
1007.029, 270.5322
1007.512, 269.3217
1007.994, 268.8329
1008.476, 268.8904
1008.958, 268.8317
1009.440, 268.6832
1009.922, 268.1591
1010.404, 266.9859
1010.886, 265.8099
1011.369, 265.8050
1011.851, 266.3457
1012.333, 266.3698
1012.815, 265.4996
1013.297, 264.3432
1013.779, 262.7003
1014.261, 261.2014
1014.743, 260.5005
1015.225, 260.5148
1015.708, 259.4976
1016.190, 257.5106
1016.672, 255.5378
1017.154, 253.7719
1017.636, 252.6974
1018.118, 253.3049
1018.600, 254.9143
1019.082, 255.2410
1019.565, 253.5345
1020.047, 252.3872
1020.529, 252.4712
1021.011, 252.5756
1021.493, 250.4196
1021.975, 247.1669
1022.457, 245.3844
1022.939, 245.6333
1023.421, 246.1413
1023.904, 246.0264
1024.386, 246.1378
1024.868, 247.3271
1025.350, 249.2851
1025.832, 248.7948
1026.314, 245.8851
1026.796, 242.7350
1027.278, 239.6163
1027.760, 237.6842
1028.243, 239.5021
1028.725, 242.8758
1029.207, 244.0974
1029.689, 240.6725
1030.171, 238.0384
1030.653, 236.3579
1031.135, 235.2887
1031.617, 234.7528
1032.100, 234.5318
1032.582, 233.7384
1033.064, 232.4174
1033.546, 231.6418
1034.028, 232.7063
1034.510, 233.6884
1034.992, 233.6571
1035.474, 232.8497
1035.957, 231.8049
1036.439, 230.4822
1036.921, 229.4040
1037.403, 228.6831
1037.885, 228.2547
1038.367, 228.2248
1038.849, 228.3599
1039.331, 228.3429
1039.813, 228.0351
1040.296, 227.9747
1040.778, 228.3663
1041.260, 228.6522
1041.742, 228.6120
1042.224, 228.1963
1042.706, 226.9822
1043.188, 225.1991
1043.670, 223.6758
1044.152, 222.8327
1044.635, 222.3259
1045.117, 222.1578
1045.599, 222.1919
1046.081, 222.4163
1046.563, 222.9711
1047.045, 222.3048
1047.527, 220.2015
1048.009, 218.2776
1048.492, 218.2718
1048.974, 219.0070
1049.456, 219.2560
1049.938, 218.9988
1050.420, 219.0039
1050.902, 219.7445
1051.384, 219.9728
1051.866, 219.3008
1052.349, 218.0882
1052.831, 216.6777
1053.313, 215.3098
1053.795, 214.7071
1054.277, 215.1700
1054.759, 215.8926
1055.241, 217.3359
1055.723, 218.1075
1056.205, 216.9729
1056.688, 214.0155
1057.170, 212.8802
1057.652, 213.5673
1058.134, 214.4132
1058.616, 214.4872
1059.098, 214.3978
1059.580, 215.2425
1060.062, 216.2048
1060.544, 215.6152
1061.027, 211.7345
1061.509, 209.5412
1061.991, 209.5608
1062.473, 210.3191
1062.955, 210.4927
1063.437, 210.3200
1063.919, 210.3460
1064.401, 210.5655
1064.884, 210.6637
1065.366, 210.1505
1065.848, 209.9573
1066.330, 210.6457
1066.812, 211.6225
1067.294, 211.3524
1067.776, 209.9916
1068.258, 209.2890
1068.740, 209.7548
1069.223, 210.0894
1069.705, 208.5422
1070.187, 206.9345
1070.669, 207.3232
1071.151, 209.9374
1071.633, 210.3016
1072.115, 207.8210
1072.597, 206.1081
1073.079, 207.3912
1073.562, 209.4737
1074.044, 208.6991
1074.526, 206.3377
1075.008, 204.7599
1075.490, 205.3678
1075.972, 205.5056
1076.454, 204.6944
1076.936, 203.8051
1077.419, 203.6025
1077.901, 203.9182
1078.383, 204.0074
1078.865, 203.8670
1079.347, 203.5566
1079.829, 202.8806
1080.311, 202.2918
1080.793, 202.2087
1081.275, 202.2417
1081.758, 201.6220
1082.240, 200.2733
1082.722, 199.6588
1083.204, 200.0101
1083.686, 200.5495
1084.168, 201.0160
1084.650, 201.0329
1085.132, 199.9300
1085.615, 197.7597
1086.097, 196.3748
1086.579, 195.8062
1087.061, 196.2284
1087.543, 198.1015
1088.025, 200.1139
1088.507, 199.6748
1088.989, 197.9752
1089.471, 197.1976
1089.953, 198.0650
1090.436, 198.9952
1090.918, 200.1026
1091.400, 200.5424
1091.882, 199.5515
1092.364, 197.5815
1092.846, 196.9250
1093.328, 197.2774
1093.810, 197.1428
1094.293, 194.9595
1094.775, 193.3378
1095.257, 194.1485
1095.739, 195.7178
1096.221, 193.6787
1096.703, 196.0791
1097.185, 197.3173
1097.667, 197.4560
1098.150, 193.2008
1098.632, 194.6192
1099.114, 193.7640
1099.596, 192.8157
1100.078, 195.0324
1100.560, 191.4167
1101.042, 193.5834
1101.524, 193.4418
1102.006, 194.3566
1102.489, 192.9834
1102.971, 192.3172
1103.453, 193.9393
1103.935, 194.2943
1104.417, 192.6583
1104.899, 193.6403
1105.381, 189.9447
1105.863, 190.3537
1106.345, 192.5337
1106.828, 191.0122
1107.310, 192.0359
1107.792, 192.0905
1108.274, 187.7404
1108.756, 191.0505
1109.238, 191.0478
1109.720, 187.6436
1110.202, 190.6912
1110.685, 187.7554
1111.167, 186.9557
1111.649, 187.7630
1112.131, 187.9947
1112.613, 188.3000
1113.095, 189.0930
1113.577, 189.9438
1114.059, 190.8688
1114.542, 191.4726
1115.024, 191.2848
1115.506, 190.2112
1115.988, 188.5788
1116.470, 186.2493
1116.952, 184.7515
1117.434, 186.1583
1117.916, 188.0850
1118.398, 187.6413
1118.880, 185.6927
1119.363, 184.3797
1119.845, 184.0320
1120.327, 184.3731
1120.809, 185.6420
1121.291, 186.7854
1121.773, 186.3757
1122.255, 185.2902
1122.737, 185.4377
1123.220, 186.6003
1123.702, 186.7254
1124.184, 183.3173
1124.666, 181.3866
1125.148, 182.2768
1125.630, 184.3459
1126.112, 185.2394
1126.594, 185.1120
1127.077, 184.0951
1127.559, 182.1525
1128.041, 180.9386
1128.523, 182.0340
1129.005, 183.1906
1129.487, 183.4357
1129.969, 183.0031
1130.451, 182.5236
1130.933, 182.0133
1131.416, 181.6400
1131.898, 181.4820
1132.380, 181.3012
1132.862, 180.7694
1133.344, 180.2791
1133.826, 180.0910
1134.308, 180.2044
1134.790, 181.0036
1135.272, 182.5238
1135.755, 183.0891
1136.237, 181.5438
1136.719, 179.6375
1137.201, 178.9329
1137.683, 178.8928
1138.165, 178.8675
1138.647, 178.7829
1139.129, 178.7864
1139.612, 178.8918
1140.094, 179.0083
1140.576, 179.2673
1141.058, 179.3488
1141.540, 178.6923
1142.022, 177.5706
1142.504, 176.5353
1142.986, 175.2685
1143.469, 175.0863
1143.951, 176.3638
1144.433, 177.6722
1144.915, 177.7541
1145.397, 177.0390
1145.879, 175.8602
1146.361, 174.5214
1146.843, 174.1278
1147.325, 176.6503
1147.807, 177.6801
1148.290, 176.1877
1148.772, 173.9658
1149.254, 173.2654
1149.736, 173.5528
1150.218, 173.2922
1150.700, 172.4444
1151.182, 172.0434
1151.664, 172.8826
1152.147, 173.8466
1152.629, 174.7903
1153.111, 175.4852
1153.593, 175.2947
1154.075, 174.4506
1154.557, 173.9331
1155.039, 173.9114
1155.521, 173.8304
1156.004, 173.5513
1156.486, 172.9140
1156.968, 171.6030
1157.450, 170.0366
1157.932, 169.6694
1158.414, 170.3220
1158.896, 170.6797
1159.378, 170.3657
1159.860, 169.9941
1160.343, 169.8334
1160.825, 169.9057
1161.307, 170.3194
1161.789, 170.9903
1162.271, 171.2752
1162.753, 171.1844
1163.235, 170.8975
1163.717, 170.2801
1164.199, 169.9808
1164.682, 170.9610
1165.164, 172.2192
1165.646, 172.7403
1166.128, 172.4780
1166.610, 172.1328
1167.092, 171.7024
1167.574, 171.2825
1168.056, 170.9116
1168.539, 170.5908
1169.021, 170.3495
1169.503, 170.1442
1169.985, 169.8771
1170.467, 169.4481
1170.949, 169.4531
1171.431, 169.9368
1171.913, 170.4772
1172.396, 171.0889
1172.878, 171.3629
1173.360, 170.5404
1173.842, 169.1554
1174.324, 168.2526
1174.806, 168.1124
1175.288, 167.8752
1175.770, 167.4642
1176.252, 167.2657
1176.734, 167.9382
1177.217, 168.7279
1177.699, 168.6029
1178.181, 167.8113
1178.663, 167.0940
1179.145, 166.3949
1179.627, 166.2297
1180.109, 166.7537
1180.591, 167.3340
1181.074, 167.2754
1181.556, 166.9517
1182.038, 166.8996
1182.520, 167.0774
1183.002, 167.1461
1183.484, 166.9862
1183.966, 166.8664
1184.448, 166.8213
1184.931, 166.8272
1185.413, 167.0584
1185.895, 167.2180
1186.377, 166.5031
1186.859, 165.0597
1187.341, 164.5407
1187.823, 165.7482
1188.305, 166.9206
1188.787, 167.8361
1189.270, 168.3418
1189.752, 168.1393
1190.234, 167.4163
1190.716, 166.2901
1191.198, 164.8094
1191.680, 163.8712
1192.162, 164.0329
1192.644, 163.9565
1193.126, 163.0872
1193.609, 162.3240
1194.091, 163.8371
1194.573, 166.2462
1195.055, 166.6385
1195.537, 164.4597
1196.019, 163.2801
1196.501, 164.6254
1196.983, 165.6574
1197.466, 165.4404
1197.948, 164.6240
1198.430, 164.1540
1198.912, 164.0520
1199.394, 164.5841
1199.876, 165.9708
1200.358, 166.4699
1200.840, 165.0496
1201.323, 163.9557
1201.805, 164.0598
1202.287, 164.8808
1202.769, 165.8931
1203.251, 166.7547
1203.733, 166.6051
1204.215, 164.9972
1204.697, 163.5554
1205.179, 162.3143
1205.661, 161.7612
1206.144, 162.4416
1206.626, 163.5875
1207.108, 163.2257
1207.590, 162.0074
1208.072, 161.3420
1208.554, 161.7270
1209.036, 162.3524
1209.518, 163.4456
1210.001, 163.9883
1210.483, 163.0747
1210.965, 161.6151
1211.447, 162.3754
1211.929, 164.2268
1212.411, 164.5369
1212.893, 161.5244
1213.375, 159.7843
1213.858, 160.2570
1214.340, 161.1057
1214.822, 161.4313
1215.304, 161.3219
1215.786, 160.6743
1216.268, 159.8170
1216.750, 159.5133
1217.232, 160.1716
1217.714, 161.1526
1218.197, 162.8811
1218.679, 163.8275
1219.161, 162.6477
1219.643, 160.2896
1220.125, 158.0195
1220.607, 156.2850
1221.089, 156.1730
1221.571, 159.7471
1222.053, 161.5547
1222.536, 160.7965
1223.018, 159.7064
1223.500, 159.7623
1223.982, 160.5185
1224.464, 161.5341
1224.946, 162.4918
1225.428, 162.6596
1225.910, 160.7664
1226.393, 159.9399
1226.875, 160.4961
1227.357, 161.2853
1227.839, 161.6404
1228.321, 161.5797
1228.803, 161.0658
1229.285, 160.1766
1229.767, 159.0614
1230.250, 157.2863
1230.732, 156.3270
1231.214, 156.3789
1231.696, 156.5476
1232.178, 156.0938
1232.660, 155.3909
1233.142, 154.4363
1233.624, 153.7218
1234.106, 154.6129
1234.589, 158.7929
1235.071, 160.2488
1235.553, 158.3810
1236.035, 156.2898
1236.517, 156.4995
1236.999, 157.6810
1237.481, 158.9884
1237.963, 159.9475
1238.445, 159.3388
1238.928, 156.3856
1239.410, 154.5731
1239.892, 154.0779
1240.374, 154.0353
1240.856, 153.9856
1241.338, 153.8969
1241.820, 153.5956
1242.302, 153.2822
1242.785, 153.4164
1243.267, 154.1720
1243.749, 154.4767
1244.231, 154.2772
1244.713, 153.9749
1245.195, 153.8701
1245.677, 153.7657
1246.159, 153.5163
1246.641, 153.1618
1247.124, 152.7181
1247.606, 152.1353
1248.088, 152.2290
1248.570, 153.0155
1249.052, 153.4938
1249.534, 152.1743
1250.016, 151.2358
1250.498, 153.0254
1250.980, 155.3471
1251.463, 154.8557
1251.945, 151.6169
1252.427, 150.7168
1252.909, 152.1313
1253.391, 153.2110
1253.873, 151.4913
1254.355, 150.1086
1254.837, 150.9593
1255.320, 152.3761
1255.802, 152.3829
1256.284, 151.2533
1256.766, 150.8814
1257.248, 151.1821
1257.730, 150.9879
1258.212, 148.2393
1258.694, 147.0360
1259.177, 149.2206
1259.659, 152.0786
1260.141, 152.5415
1260.623, 151.3730
1261.105, 151.1129
1261.587, 151.6918
1262.069, 152.3155
1262.551, 153.4380
1263.033, 153.1700
1263.516, 150.6441
1263.998, 148.1447
1264.480, 148.4465
1264.962, 150.1498
1265.444, 150.1543
1265.926, 148.9084
1266.408, 148.3659
1266.890, 149.5830
1267.372, 150.6076
1267.855, 151.4190
1268.337, 151.7486
1268.819, 150.9518
1269.301, 149.8335
1269.783, 149.6914
1270.265, 150.1474
1270.747, 150.0042
1271.229, 148.7003
1271.712, 148.3760
1272.194, 149.2372
1272.676, 150.2116
1273.158, 150.5973
1273.640, 150.5966
1274.122, 149.9549
1274.604, 149.2342
1275.086, 149.7216
1275.568, 151.8872
1276.051, 151.8416
1276.533, 149.4598
1277.015, 147.4038
1277.497, 147.6693
1277.979, 148.5076
1278.461, 149.1167
1278.943, 149.5079
1279.425, 149.6893
1279.907, 149.6669
1280.390, 149.7279
1280.872, 149.8361
1281.354, 149.6558
1281.836, 148.5084
1282.318, 147.6884
1282.800, 147.6236
1283.282, 148.1031
1283.764, 149.5396
1284.247, 151.4280
1284.729, 150.5499
1285.211, 147.6811
1285.693, 145.7821
1286.175, 146.9105
1286.657, 147.8042
1287.139, 147.8491
1287.621, 148.0201
1288.104, 149.4112
1288.586, 151.2530
1289.068, 152.2008
1289.550, 152.2665
1290.032, 151.4532
1290.514, 148.7412
1290.996, 147.2417
1291.478, 147.2051
1291.960, 147.3370
1292.443, 146.6374
1292.925, 145.8421
1293.407, 145.9787
1293.889, 146.5924
1294.371, 146.9164
1294.853, 146.8218
1295.335, 146.9298
1295.817, 147.2430
1296.299, 147.6365
1296.782, 148.1582
1297.264, 148.5537
1297.746, 148.6649
1298.228, 148.5123
1298.710, 148.1069
1299.192, 147.4808
1299.674, 146.9343
1300.156, 146.4953
1300.639, 146.3086
1301.121, 146.4793
1301.603, 146.8180
1302.085, 147.6707
1302.567, 148.2427
1303.049, 148.1669
1303.531, 147.4173
##END=



