##NAMES=Pumpellyite-(Al)
##RRUFFID=R070131
##IDEAL CHEMISTRY=Ca_2_Al_3_(SiO_4_)(Si_2_O_7_)(OH,O)_2_&#183;H_2_O
##LOCALITY=La Fl√®che Quarry, Bertrix, Luxembourg Province, Belgium
##OWNER=RRUFF
##SOURCE=Michael Scott
##DESCRIPTION=Pale green radiating fibrous to bladed crystals
##STATUS=The identification of this mineral has been confirmed only by single crystal X-ray diffraction.
##URL=rruff.info/R070131
164.7005, 3329.834
165.1826, 3363.669
165.6648, 3394.448
166.1469, 3420.698
166.6290, 3442.433
167.1111, 3458.619
167.5932, 3461.404
168.0753, 3462.392
168.5575, 3476.471
169.0396, 3506.618
169.5217, 3539.208
170.0038, 3558.755
170.4859, 3565.273
170.9680, 3570.829
171.4502, 3577.917
171.9323, 3584.608
172.4144, 3587.092
172.8965, 3584.153
173.3786, 3582.540
173.8607, 3591.441
174.3429, 3609.370
174.8250, 3623.890
175.3071, 3630.922
175.7892, 3633.877
176.2713, 3636.542
176.7534, 3639.065
177.2356, 3642.561
177.7177, 3648.407
178.1998, 3656.177
178.6819, 3664.675
179.1640, 3673.659
179.6461, 3683.168
180.1283, 3693.433
180.6104, 3704.678
181.0925, 3715.947
181.5746, 3726.794
182.0567, 3737.159
182.5388, 3746.641
183.0210, 3753.779
183.5031, 3760.458
183.9852, 3769.232
184.4673, 3780.206
184.9494, 3793.377
185.4315, 3813.006
185.9137, 3834.851
186.3958, 3850.406
186.8779, 3854.154
187.3600, 3851.355
187.8421, 3849.942
188.3242, 3850.242
188.8064, 3850.699
189.2885, 3849.688
189.7706, 3848.269
190.2527, 3848.219
190.7348, 3851.018
191.2169, 3854.835
191.6991, 3856.157
192.1812, 3853.938
192.6633, 3853.422
193.1454, 3860.415
193.6275, 3870.116
194.1096, 3876.139
194.5918, 3874.314
195.0739, 3870.658
195.5560, 3875.308
196.0381, 3890.771
196.5202, 3903.692
197.0023, 3908.946
197.4845, 3907.788
197.9666, 3898.457
198.4487, 3876.475
198.9308, 3853.984
199.4129, 3851.261
199.8950, 3873.383
200.3772, 3889.116
200.8593, 3874.024
201.3414, 3852.107
201.8235, 3846.764
202.3056, 3867.500
202.7877, 3891.757
203.2699, 3887.783
203.7520, 3849.894
204.2341, 3821.038
204.7162, 3824.060
205.1983, 3836.935
205.6804, 3843.935
206.1626, 3842.075
206.6447, 3835.700
207.1268, 3830.158
207.6089, 3826.020
208.0910, 3816.266
208.5731, 3787.202
209.0553, 3760.531
209.5374, 3755.467
210.0195, 3774.287
210.5016, 3796.194
210.9837, 3801.034
211.4658, 3788.196
211.9480, 3774.314
212.4301, 3759.012
212.9122, 3746.277
213.3943, 3741.174
213.8764, 3742.943
214.3585, 3742.837
214.8407, 3727.993
215.3228, 3699.276
215.8049, 3688.025
216.2870, 3713.049
216.7691, 3740.044
217.2512, 3746.909
217.7334, 3736.520
218.2155, 3724.741
218.6976, 3720.829
219.1797, 3724.696
219.6618, 3737.615
220.1439, 3771.928
220.6261, 3798.499
221.1082, 3797.243
221.5903, 3776.369
222.0724, 3757.155
222.5545, 3752.522
223.0366, 3759.897
223.5188, 3770.011
224.0009, 3788.797
224.4830, 3799.636
224.9651, 3787.628
225.4472, 3764.090
225.9293, 3749.168
226.4115, 3757.251
226.8936, 3777.761
227.3757, 3783.578
227.8578, 3769.153
228.3399, 3752.595
228.8220, 3738.745
229.3041, 3728.249
229.7863, 3722.998
230.2684, 3725.369
230.7505, 3730.499
231.2326, 3731.480
231.7147, 3729.294
232.1968, 3719.243
232.6790, 3690.570
233.1611, 3657.183
233.6432, 3632.000
234.1253, 3619.289
234.6074, 3611.622
235.0895, 3598.105
235.5717, 3577.011
236.0538, 3564.267
236.5359, 3575.793
237.0180, 3590.554
237.5001, 3589.844
237.9822, 3570.411
238.4644, 3548.234
238.9465, 3539.376
239.4286, 3543.535
239.9107, 3544.884
240.3928, 3537.664
240.8749, 3529.211
241.3571, 3527.426
241.8392, 3531.861
242.3213, 3532.170
242.8034, 3515.664
243.2855, 3486.698
243.7676, 3470.885
244.2498, 3478.867
244.7319, 3489.368
245.2140, 3483.151
245.6961, 3464.682
246.1782, 3451.768
246.6603, 3458.791
247.1425, 3477.688
247.6246, 3487.417
248.1067, 3486.230
248.5888, 3477.967
249.0709, 3461.265
249.5530, 3439.721
250.0352, 3420.115
250.5173, 3404.620
250.9994, 3392.533
251.4815, 3383.042
251.9636, 3376.334
252.4457, 3371.405
252.9279, 3369.287
253.4100, 3368.236
253.8921, 3364.900
254.3742, 3355.344
254.8563, 3347.957
255.3384, 3354.882
255.8206, 3375.537
256.3027, 3389.199
256.7848, 3383.680
257.2669, 3368.370
257.7490, 3358.523
258.2311, 3354.894
258.7133, 3355.534
259.1954, 3361.030
259.6775, 3370.250
260.1596, 3379.353
260.6417, 3388.794
261.1238, 3395.162
261.6060, 3391.190
262.0881, 3375.653
262.5702, 3366.121
263.0523, 3375.888
263.5344, 3395.190
264.0165, 3404.417
264.4987, 3398.246
264.9808, 3389.042
265.4629, 3392.127
265.9450, 3406.328
266.4271, 3415.616
266.9092, 3411.500
267.3914, 3404.116
267.8735, 3403.896
268.3556, 3411.750
268.8377, 3424.162
269.3198, 3440.733
269.8019, 3460.308
270.2841, 3473.168
270.7662, 3477.356
271.2483, 3476.566
271.7304, 3469.108
272.2125, 3457.349
272.6946, 3451.302
273.1768, 3457.619
273.6589, 3473.063
274.1410, 3484.488
274.6231, 3487.603
275.1052, 3492.723
275.5873, 3500.619
276.0695, 3513.024
276.5516, 3535.929
277.0337, 3572.988
277.5158, 3614.086
277.9979, 3638.403
278.4800, 3636.833
278.9622, 3637.095
279.4443, 3643.029
279.9264, 3650.982
280.4085, 3660.444
280.8906, 3670.392
281.3727, 3673.197
281.8549, 3657.677
282.3370, 3615.615
282.8191, 3587.727
283.3012, 3579.861
283.7833, 3579.610
284.2654, 3581.025
284.7476, 3583.444
285.2297, 3588.863
285.7118, 3599.876
286.1939, 3616.382
286.6760, 3622.850
287.1581, 3611.314
287.6403, 3599.225
288.1224, 3586.926
288.6045, 3577.957
289.0866, 3579.992
289.5687, 3597.839
290.0508, 3623.628
290.5330, 3631.152
291.0151, 3603.286
291.4972, 3580.485
291.9793, 3566.334
292.4614, 3558.076
292.9435, 3554.003
293.4257, 3553.347
293.9078, 3555.030
294.3899, 3559.444
294.8720, 3572.214
295.3541, 3571.226
295.8362, 3539.059
296.3184, 3507.928
296.8005, 3495.799
297.2826, 3501.738
297.7647, 3513.828
298.2468, 3524.430
298.7289, 3533.386
299.2111, 3530.141
299.6932, 3498.382
300.1753, 3474.172
300.6574, 3475.645
301.1395, 3492.563
301.6216, 3506.384
302.1038, 3506.421
302.5859, 3498.786
303.0680, 3499.043
303.5501, 3511.078
304.0322, 3520.487
304.5143, 3517.870
304.9964, 3512.538
305.4785, 3514.897
305.9607, 3528.809
306.4428, 3541.832
306.9249, 3537.005
307.4070, 3514.554
307.8891, 3500.130
308.3712, 3503.399
308.8534, 3512.949
309.3355, 3518.108
309.8176, 3519.005
310.2997, 3520.093
310.7818, 3526.587
311.2639, 3534.851
311.7461, 3532.105
312.2282, 3511.798
312.7103, 3498.070
313.1924, 3521.502
313.6745, 3569.058
314.1566, 3602.051
314.6388, 3603.465
315.1209, 3593.398
315.6030, 3590.638
316.0851, 3594.489
316.5672, 3594.529
317.0493, 3583.243
317.5315, 3565.469
318.0136, 3555.113
318.4957, 3552.324
318.9778, 3555.735
319.4599, 3571.675
319.9420, 3592.377
320.4242, 3601.436
320.9063, 3592.611
321.3884, 3578.603
321.8705, 3579.703
322.3526, 3604.378
322.8347, 3619.106
323.3169, 3616.012
323.7990, 3606.916
324.2811, 3600.690
324.7632, 3598.068
325.2453, 3594.446
325.7274, 3584.359
326.2096, 3567.290
326.6917, 3566.070
327.1738, 3600.136
327.6559, 3626.657
328.1380, 3631.199
328.6201, 3619.277
329.1023, 3597.992
329.5844, 3570.270
330.0665, 3542.525
330.5486, 3534.167
331.0307, 3562.707
331.5128, 3582.544
331.9950, 3586.091
332.4771, 3583.747
332.9592, 3582.199
333.4413, 3583.301
333.9234, 3586.646
334.4055, 3592.959
334.8877, 3603.230
335.3698, 3609.071
335.8519, 3606.429
336.3340, 3602.995
336.8161, 3601.117
337.2982, 3600.792
337.7804, 3601.653
338.2625, 3603.931
338.7446, 3606.922
339.2267, 3607.945
339.7088, 3605.200
340.1909, 3605.548
340.6731, 3615.901
341.1552, 3628.822
341.6373, 3636.066
342.1194, 3634.889
342.6015, 3633.036
343.0836, 3638.028
343.5658, 3649.177
344.0479, 3661.040
344.5300, 3673.979
345.0121, 3684.956
345.4942, 3688.142
345.9763, 3684.390
346.4585, 3686.965
346.9406, 3704.782
347.4227, 3729.576
347.9048, 3754.913
348.3869, 3780.439
348.8690, 3791.308
349.3512, 3768.645
349.8333, 3721.347
350.3154, 3702.924
350.7975, 3730.136
351.2796, 3767.114
351.7617, 3806.182
352.2439, 3842.880
352.7260, 3865.657
353.2081, 3868.776
353.6902, 3863.613
354.1723, 3871.547
354.6544, 3902.605
355.1366, 3928.965
355.6187, 3955.970
356.1008, 3974.502
356.5829, 3969.868
357.0650, 3946.003
357.5471, 3927.199
358.0293, 3937.870
358.5114, 3978.696
358.9935, 3997.803
359.4756, 3968.331
359.9577, 3945.488
360.4398, 3940.685
360.9220, 3950.117
361.4041, 3971.553
361.8862, 4004.728
362.3683, 4038.201
362.8504, 4046.920
363.3326, 4021.190
363.8147, 3999.547
364.2968, 3986.796
364.7789, 3979.970
365.2610, 3977.778
365.7431, 3980.104
366.2253, 3987.341
366.7074, 4002.804
367.1895, 4024.330
367.6716, 4040.823
368.1537, 4051.229
368.6358, 4058.196
369.1180, 4060.999
369.6001, 4061.858
370.0822, 4064.139
370.5643, 4067.905
371.0464, 4074.505
371.5285, 4088.942
372.0107, 4109.209
372.4928, 4121.173
372.9749, 4117.443
373.4570, 4106.558
373.9391, 4102.115
374.4212, 4104.673
374.9034, 4107.572
375.3855, 4105.917
375.8676, 4105.513
376.3497, 4115.278
376.8318, 4135.304
377.3139, 4155.542
377.7961, 4169.751
378.2782, 4177.587
378.7603, 4169.719
379.2424, 4137.206
379.7245, 4102.360
380.2066, 4064.963
380.6888, 4031.287
381.1709, 4012.184
381.6530, 4011.735
382.1351, 4021.173
382.6172, 4024.766
383.0993, 4020.607
383.5815, 4014.377
384.0636, 4008.353
384.5457, 3998.665
385.0278, 3978.099
385.5099, 3950.750
385.9920, 3930.156
386.4742, 3928.074
386.9563, 3940.645
387.4384, 3949.452
387.9205, 3957.909
388.4026, 3955.327
388.8847, 3927.996
389.3669, 3893.240
389.8490, 3870.336
390.3311, 3864.798
390.8132, 3864.210
391.2953, 3856.971
391.7774, 3843.920
392.2596, 3829.870
392.7417, 3812.005
393.2238, 3800.163
393.7059, 3814.241
394.1880, 3847.466
394.6701, 3860.895
395.1523, 3827.446
395.6344, 3782.264
396.1165, 3757.277
396.5986, 3751.759
397.0807, 3754.961
397.5628, 3764.285
398.0450, 3774.944
398.5271, 3771.495
399.0092, 3745.640
399.4913, 3721.336
399.9734, 3702.436
400.4555, 3686.612
400.9377, 3670.819
401.4197, 3654.828
401.9019, 3641.237
402.3840, 3632.742
402.8661, 3629.646
403.3482, 3628.057
403.8303, 3631.165
404.3124, 3632.299
404.7946, 3629.351
405.2767, 3623.465
405.7588, 3616.417
406.2409, 3608.896
406.7230, 3600.474
407.2051, 3588.599
407.6873, 3570.928
408.1694, 3561.376
408.6515, 3569.275
409.1336, 3579.702
409.6157, 3582.679
410.0978, 3579.344
410.5800, 3577.408
411.0621, 3584.659
411.5442, 3595.062
412.0263, 3593.549
412.5084, 3578.029
412.9905, 3570.858
413.4727, 3592.505
413.9548, 3625.559
414.4369, 3630.553
414.9190, 3593.030
415.4011, 3559.754
415.8832, 3553.657
416.3654, 3562.693
416.8475, 3569.535
417.3296, 3570.547
417.8117, 3567.600
418.2938, 3560.712
418.7759, 3548.414
419.2581, 3550.705
419.7402, 3588.451
420.2223, 3616.022
420.7044, 3608.019
421.1865, 3580.417
421.6686, 3560.284
422.1508, 3559.385
422.6329, 3568.472
423.1150, 3569.964
423.5971, 3560.877
424.0792, 3552.305
424.5613, 3548.329
425.0435, 3541.883
425.5256, 3526.146
426.0077, 3504.231
426.4898, 3486.675
426.9719, 3482.058
427.4540, 3484.753
427.9362, 3480.408
428.4183, 3467.706
428.9004, 3454.521
429.3825, 3445.455
429.8646, 3436.443
430.3467, 3419.831
430.8289, 3392.375
431.3110, 3373.407
431.7931, 3379.295
432.2752, 3397.555
432.7573, 3408.064
433.2394, 3407.990
433.7216, 3403.140
434.2037, 3397.899
434.6858, 3392.077
435.1679, 3383.020
435.6500, 3366.258
436.1321, 3351.911
436.6143, 3341.434
437.0964, 3335.723
437.5785, 3336.844
438.0606, 3345.138
438.5427, 3357.349
439.0248, 3369.682
439.5070, 3383.331
439.9891, 3391.940
440.4712, 3401.224
440.9533, 3399.314
441.4354, 3370.182
441.9175, 3328.740
442.3997, 3301.716
442.8818, 3303.338
443.3639, 3320.305
443.8460, 3331.762
444.3281, 3337.470
444.8102, 3341.514
445.2924, 3347.819
445.7745, 3349.093
446.2566, 3333.157
446.7387, 3302.398
447.2208, 3283.906
447.7029, 3299.639
448.1851, 3325.110
448.6672, 3331.235
449.1493, 3319.045
449.6314, 3306.200
450.1135, 3301.836
450.5956, 3303.251
451.0778, 3303.015
451.5599, 3298.570
452.0420, 3297.027
452.5241, 3302.280
453.0062, 3308.458
453.4883, 3312.017
453.9705, 3311.850
454.4526, 3306.322
454.9347, 3292.779
455.4168, 3273.049
455.8989, 3261.680
456.3810, 3261.871
456.8632, 3265.861
457.3453, 3275.010
457.8274, 3284.895
458.3095, 3292.477
458.7916, 3296.967
459.2737, 3296.697
459.7559, 3286.514
460.2380, 3269.557
460.7201, 3260.589
461.2022, 3262.457
461.6843, 3266.470
462.1664, 3268.109
462.6486, 3267.523
463.1307, 3264.830
463.6128, 3256.995
464.0949, 3251.659
464.5770, 3257.685
465.0591, 3267.647
465.5413, 3265.597
466.0234, 3247.856
466.5055, 3229.266
466.9876, 3226.660
467.4697, 3242.259
467.9518, 3254.139
468.4340, 3262.627
468.9161, 3267.581
469.3982, 3264.861
469.8803, 3259.952
470.3624, 3262.684
470.8445, 3276.343
471.3267, 3290.169
471.8088, 3285.891
472.2909, 3260.572
472.7730, 3243.202
473.2551, 3239.914
473.7372, 3239.563
474.2194, 3234.543
474.7015, 3227.588
475.1836, 3225.042
475.6657, 3230.749
476.1478, 3239.052
476.6299, 3245.422
477.1121, 3249.833
477.5942, 3250.819
478.0763, 3246.572
478.5584, 3243.529
479.0405, 3251.292
479.5226, 3272.907
480.0048, 3286.375
480.4869, 3284.045
480.9690, 3280.542
481.4511, 3282.931
481.9332, 3290.209
482.4153, 3299.168
482.8975, 3308.393
483.3796, 3318.948
483.8617, 3334.702
484.3438, 3361.009
484.8259, 3376.116
485.3080, 3366.523
485.7902, 3356.978
486.2723, 3360.818
486.7544, 3372.921
487.2365, 3379.958
487.7186, 3374.097
488.2007, 3362.670
488.6829, 3355.499
489.1650, 3352.428
489.6471, 3350.145
490.1292, 3346.723
490.6113, 3345.403
491.0934, 3352.908
491.5756, 3369.024
492.0577, 3378.945
492.5398, 3376.290
493.0219, 3370.534
493.5040, 3366.584
493.9861, 3364.805
494.4683, 3366.467
494.9504, 3372.381
495.4325, 3377.920
495.9146, 3373.479
496.3967, 3354.414
496.8788, 3336.949
497.3610, 3323.031
497.8431, 3308.774
498.3252, 3287.606
498.8073, 3265.232
499.2894, 3255.139
499.7715, 3266.957
500.2536, 3285.847
500.7357, 3288.904
501.2179, 3276.125
501.7000, 3257.839
502.1821, 3233.931
502.6642, 3208.887
503.1463, 3182.789
503.6284, 3157.060
504.1106, 3146.094
504.5927, 3173.445
505.0748, 3197.196
505.5569, 3178.794
506.0390, 3134.957
506.5211, 3109.975
507.0033, 3121.422
507.4854, 3145.410
507.9675, 3142.855
508.4496, 3100.362
508.9317, 3078.487
509.4138, 3098.182
509.8960, 3115.392
510.3781, 3110.825
510.8602, 3093.255
511.3423, 3078.958
511.8244, 3074.783
512.3066, 3074.909
512.7887, 3072.085
513.2708, 3066.424
513.7529, 3059.980
514.2350, 3052.145
514.7172, 3045.452
515.1993, 3046.449
515.6814, 3051.105
516.1635, 3044.367
516.6456, 3009.851
517.1277, 2978.691
517.6099, 2968.953
518.0920, 2973.221
518.5741, 2981.788
519.0562, 2991.409
519.5383, 2996.405
520.0204, 2988.566
520.5026, 2966.138
520.9847, 2955.305
521.4668, 2968.168
521.9489, 2979.333
522.4310, 2985.882
522.9131, 2986.749
523.3953, 2978.271
523.8774, 2959.940
524.3595, 2942.860
524.8416, 2940.756
525.3237, 2949.551
525.8058, 2948.976
526.2880, 2934.636
526.7701, 2925.332
527.2522, 2936.865
527.7343, 2960.539
528.2164, 2970.814
528.6985, 2961.630
529.1807, 2951.602
529.6628, 2944.571
530.1449, 2940.670
530.6270, 2942.079
531.1091, 2947.611
531.5912, 2950.369
532.0734, 2943.828
532.5555, 2931.838
533.0376, 2934.741
533.5197, 2964.313
534.0018, 2986.364
534.4839, 2998.069
534.9661, 2999.414
535.4482, 2982.286
535.9303, 2951.585
536.4124, 2930.881
536.8945, 2942.288
537.3766, 2967.782
537.8588, 2976.555
538.3409, 2969.772
538.8230, 2967.590
539.3051, 2980.042
539.7872, 2995.904
540.2693, 2996.535
540.7515, 2976.972
541.2336, 2964.026
541.7157, 2960.800
542.1978, 2962.376
542.6799, 2968.134
543.1620, 2976.196
543.6442, 2984.518
544.1263, 2992.174
544.6084, 2997.269
545.0905, 2996.904
545.5726, 2991.035
546.0547, 2979.212
546.5369, 2956.262
547.0190, 2934.644
547.5011, 2921.744
547.9832, 2914.395
548.4653, 2907.204
548.9474, 2899.048
549.4296, 2890.735
549.9116, 2884.405
550.3937, 2877.957
550.8759, 2865.946
551.3580, 2847.730
551.8401, 2830.340
552.3222, 2819.580
552.8043, 2814.838
553.2864, 2810.584
553.7686, 2805.420
554.2507, 2802.636
554.7328, 2806.060
555.2149, 2809.455
555.6970, 2809.405
556.1791, 2804.597
556.6613, 2792.555
557.1434, 2767.105
557.6255, 2736.296
558.1076, 2720.429
558.5897, 2720.345
559.0718, 2726.004
559.5540, 2739.466
560.0361, 2750.911
560.5182, 2744.327
561.0003, 2719.850
561.4824, 2697.626
561.9645, 2673.958
562.4467, 2659.828
562.9288, 2670.958
563.4109, 2695.247
563.8930, 2709.297
564.3751, 2704.302
564.8572, 2687.965
565.3394, 2668.420
565.8215, 2643.518
566.3036, 2633.295
566.7857, 2650.214
567.2678, 2664.149
567.7499, 2662.287
568.2321, 2651.326
568.7142, 2638.539
569.1963, 2624.504
569.6784, 2614.250
570.1605, 2611.639
570.6426, 2614.733
571.1248, 2622.077
571.6069, 2632.944
572.0890, 2641.784
572.5711, 2644.761
573.0532, 2643.804
573.5353, 2645.189
574.0175, 2655.332
574.4996, 2657.555
574.9817, 2643.377
575.4638, 2629.396
575.9459, 2625.674
576.4280, 2630.655
576.9102, 2638.652
577.3923, 2647.761
577.8744, 2655.892
578.3565, 2660.104
578.8386, 2660.483
579.3207, 2656.638
579.8029, 2645.844
580.2850, 2638.481
580.7671, 2646.396
581.2492, 2667.381
581.7313, 2679.333
582.2134, 2673.424
582.6956, 2669.216
583.1777, 2677.796
583.6598, 2688.168
584.1419, 2684.780
584.6240, 2667.993
585.1061, 2653.549
585.5883, 2655.169
586.0704, 2669.170
586.5525, 2680.702
587.0346, 2689.828
587.5167, 2696.167
587.9988, 2699.968
588.4810, 2700.427
588.9631, 2697.129
589.4452, 2690.124
589.9273, 2680.057
590.4094, 2660.698
590.8915, 2644.223
591.3737, 2641.639
591.8558, 2648.590
592.3379, 2655.917
592.8200, 2660.760
593.3021, 2664.247
593.7842, 2667.823
594.2664, 2671.559
594.7485, 2673.313
595.2306, 2667.266
595.7127, 2668.012
596.1948, 2687.720
596.6769, 2709.962
597.1591, 2716.962
597.6412, 2707.020
598.1233, 2695.653
598.6054, 2689.404
599.0875, 2688.779
599.5696, 2696.296
600.0518, 2710.875
600.5339, 2727.199
601.0160, 2743.838
601.4981, 2757.592
601.9802, 2763.053
602.4623, 2758.326
602.9445, 2752.629
603.4266, 2744.505
603.9087, 2737.140
604.3908, 2730.524
604.8729, 2725.804
605.3550, 2727.022
605.8372, 2734.905
606.3193, 2738.097
606.8014, 2718.853
607.2835, 2687.814
607.7656, 2678.126
608.2477, 2692.329
608.7299, 2703.771
609.2120, 2700.268
609.6941, 2685.068
610.1762, 2663.407
610.6583, 2629.978
611.1404, 2604.175
611.6226, 2595.590
612.1047, 2585.595
612.5868, 2555.179
613.0689, 2518.709
613.5510, 2506.521
614.0331, 2529.967
614.5153, 2559.132
614.9974, 2554.424
615.4795, 2521.194
615.9616, 2496.427
616.4437, 2484.003
616.9258, 2472.209
617.4080, 2453.469
617.8901, 2432.033
618.3722, 2417.093
618.8543, 2407.303
619.3364, 2406.635
619.8185, 2428.462
620.3007, 2448.229
620.7828, 2446.506
621.2649, 2429.140
621.7470, 2411.997
622.2291, 2402.199
622.7112, 2395.291
623.1934, 2384.803
623.6755, 2370.734
624.1576, 2356.052
624.6397, 2339.206
625.1218, 2326.181
625.6039, 2321.556
626.0861, 2322.611
626.5682, 2323.178
627.0503, 2322.652
627.5324, 2323.250
628.0145, 2327.713
628.4966, 2331.781
628.9788, 2330.436
629.4609, 2325.614
629.9430, 2324.032
630.4251, 2329.051
630.9072, 2334.782
631.3893, 2330.007
631.8715, 2313.809
632.3536, 2302.015
632.8357, 2295.982
633.3178, 2293.065
633.7999, 2293.904
634.2820, 2296.274
634.7642, 2295.948
635.2463, 2291.503
635.7284, 2288.456
636.2105, 2291.550
636.6926, 2294.507
637.1747, 2292.113
637.6569, 2284.567
638.1390, 2271.862
638.6211, 2253.798
639.1032, 2237.464
639.5853, 2237.480
640.0674, 2255.983
640.5496, 2266.486
641.0317, 2268.887
641.5138, 2261.946
641.9959, 2233.290
642.4780, 2199.571
642.9601, 2188.257
643.4423, 2206.355
643.9244, 2223.278
644.4065, 2227.759
644.8886, 2227.575
645.3707, 2228.709
645.8528, 2231.094
646.3350, 2233.535
646.8171, 2235.503
647.2992, 2235.373
647.7813, 2228.463
648.2634, 2213.894
648.7455, 2209.031
649.2277, 2218.830
649.7098, 2227.983
650.1919, 2228.415
650.6740, 2224.737
651.1561, 2223.908
651.6382, 2227.048
652.1204, 2227.681
652.6025, 2220.957
653.0846, 2213.700
653.5667, 2212.451
654.0488, 2214.615
654.5309, 2214.086
655.0131, 2208.600
655.4952, 2200.142
655.9773, 2188.684
656.4594, 2174.672
656.9415, 2175.710
657.4236, 2199.550
657.9058, 2215.275
658.3879, 2204.379
658.8700, 2183.876
659.3521, 2178.126
659.8342, 2188.221
660.3163, 2196.154
660.7985, 2198.271
661.2806, 2197.147
661.7627, 2192.707
662.2448, 2186.622
662.7269, 2180.518
663.2090, 2175.220
663.6912, 2172.421
664.1733, 2174.042
664.6554, 2179.598
665.1375, 2187.521
665.6196, 2198.811
666.1017, 2206.905
666.5839, 2209.493
667.0660, 2208.428
667.5481, 2203.692
668.0302, 2195.485
668.5123, 2193.274
668.9944, 2205.455
669.4766, 2214.735
669.9587, 2210.489
670.4408, 2201.903
670.9229, 2202.225
671.4050, 2211.361
671.8871, 2215.636
672.3693, 2201.078
672.8514, 2179.275
673.3335, 2181.335
673.8156, 2207.172
674.2977, 2221.986
674.7798, 2214.835
675.2620, 2203.481
675.7441, 2203.068
676.2262, 2212.831
676.7083, 2223.684
677.1904, 2239.450
677.6725, 2250.994
678.1547, 2254.960
678.6368, 2255.759
679.1189, 2253.816
679.6010, 2251.784
680.0831, 2256.798
680.5652, 2274.645
681.0474, 2293.901
681.5295, 2295.224
682.0116, 2284.275
682.4937, 2286.802
682.9758, 2307.045
683.4579, 2328.064
683.9401, 2338.358
684.4222, 2341.624
684.9043, 2349.249
685.3864, 2362.441
685.8685, 2377.869
686.3506, 2398.308
686.8328, 2418.058
687.3149, 2435.515
687.7970, 2450.094
688.2791, 2460.069
688.7612, 2464.485
689.2433, 2469.807
689.7255, 2481.359
690.2076, 2496.740
690.6897, 2513.417
691.1718, 2530.611
691.6539, 2545.707
692.1360, 2557.371
692.6182, 2566.750
693.1003, 2574.976
693.5824, 2581.327
694.0645, 2592.689
694.5466, 2616.856
695.0287, 2633.810
695.5109, 2632.586
695.9930, 2624.807
696.4751, 2621.922
696.9572, 2624.577
697.4393, 2625.263
697.9214, 2620.622
698.4036, 2613.571
698.8857, 2605.921
699.3678, 2597.516
699.8499, 2586.041
700.3320, 2571.967
700.8141, 2563.020
701.2963, 2568.915
701.7784, 2582.709
702.2605, 2573.161
702.7426, 2534.424
703.2247, 2504.979
703.7068, 2496.158
704.1890, 2492.743
704.6711, 2482.462
705.1532, 2466.710
705.6353, 2452.109
706.1174, 2439.691
706.5995, 2427.413
707.0817, 2417.659
707.5638, 2405.556
708.0459, 2383.704
708.5280, 2355.972
709.0101, 2332.809
709.4922, 2319.384
709.9744, 2312.206
710.4565, 2308.878
710.9386, 2308.185
711.4207, 2305.064
711.9028, 2299.039
712.3849, 2291.201
712.8671, 2281.748
713.3492, 2271.576
713.8313, 2262.268
714.3134, 2253.227
714.7955, 2247.087
715.2776, 2253.574
715.7598, 2251.439
716.2419, 2223.339
716.7240, 2189.038
717.2061, 2173.912
717.6882, 2180.878
718.1703, 2187.714
718.6525, 2177.062
719.1346, 2164.541
719.6167, 2174.571
720.0988, 2195.364
720.5809, 2191.940
721.0630, 2157.287
721.5452, 2121.321
722.0273, 2112.594
722.5094, 2126.415
722.9915, 2139.749
723.4736, 2153.729
723.9557, 2163.352
724.4379, 2169.315
724.9200, 2168.628
725.4021, 2154.202
725.8842, 2131.192
726.3663, 2113.985
726.8484, 2104.440
727.3306, 2099.861
727.8127, 2105.904
728.2948, 2111.253
728.7769, 2103.202
729.2590, 2086.881
729.7411, 2076.115
730.2233, 2076.833
730.7054, 2083.891
731.1875, 2096.202
731.6696, 2109.840
732.1517, 2107.181
732.6339, 2087.420
733.1160, 2072.032
733.5981, 2070.612
734.0802, 2076.742
734.5623, 2081.843
735.0444, 2086.380
735.5266, 2086.166
736.0087, 2075.490
736.4908, 2067.581
736.9729, 2062.146
737.4550, 2062.617
737.9371, 2078.619
738.4193, 2105.829
738.9014, 2119.396
739.3835, 2100.982
739.8656, 2076.445
740.3477, 2061.684
740.8298, 2054.105
741.3120, 2051.877
741.7941, 2053.300
742.2762, 2053.635
742.7583, 2049.990
743.2404, 2042.592
743.7225, 2027.863
744.2047, 2004.996
744.6868, 2002.016
745.1689, 2027.610
745.6510, 2051.905
746.1331, 2058.373
746.6152, 2053.544
747.0973, 2050.605
747.5794, 2051.259
748.0615, 2047.978
748.5436, 2032.348
749.0258, 2022.157
749.5079, 2030.975
749.9900, 2045.683
750.4721, 2047.735
750.9542, 2035.920
751.4363, 2028.120
751.9185, 2044.180
752.4006, 2062.342
752.8827, 2051.452
753.3648, 2022.528
753.8469, 2002.716
754.3290, 1997.743
754.8112, 2003.580
755.2933, 2018.945
755.7754, 2038.448
756.2575, 2044.426
756.7396, 2034.297
757.2217, 2021.513
757.7039, 2001.397
758.1860, 1989.566
758.6681, 2004.860
759.1502, 2031.538
759.6323, 2032.075
760.1144, 1992.886
760.5966, 1972.940
761.0787, 2003.594
761.5608, 2032.057
762.0429, 2025.602
762.5250, 2000.398
763.0071, 1978.980
763.4893, 1967.092
763.9714, 1961.829
764.4535, 1963.316
764.9356, 1968.315
765.4177, 1972.225
765.8998, 1975.376
766.3820, 1980.523
766.8641, 1988.054
767.3462, 1989.849
767.8283, 1977.855
768.3104, 1957.563
768.7925, 1949.194
769.2747, 1956.207
769.7568, 1962.819
770.2389, 1968.906
770.7210, 1972.502
771.2031, 1968.530
771.6852, 1962.701
772.1674, 1968.061
772.6495, 1990.973
773.1316, 2001.025
773.6137, 1978.208
774.0958, 1956.688
774.5779, 1959.394
775.0601, 1972.907
775.5422, 1977.437
776.0243, 1969.668
776.5064, 1960.074
776.9885, 1954.526
777.4706, 1953.007
777.9528, 1957.869
778.4349, 1966.727
778.9170, 1972.276
779.3991, 1973.093
779.8812, 1970.910
780.3633, 1966.439
780.8455, 1961.381
781.3276, 1961.462
781.8097, 1968.881
782.2918, 1970.188
782.7739, 1961.660
783.2560, 1952.903
783.7382, 1948.676
784.2203, 1947.160
784.7024, 1943.882
785.1845, 1937.156
785.6666, 1938.884
786.1487, 1962.306
786.6309, 1980.237
787.1130, 1976.740
787.5951, 1965.040
788.0772, 1961.469
788.5593, 1966.029
789.0414, 1965.379
789.5236, 1947.152
790.0057, 1929.277
790.4878, 1936.858
790.9699, 1956.520
791.4520, 1957.720
791.9341, 1940.137
792.4163, 1928.322
792.8984, 1936.324
793.3805, 1954.822
793.8626, 1968.670
794.3447, 1977.825
794.8268, 1982.279
795.3090, 1981.442
795.7911, 1977.722
796.2732, 1969.797
796.7553, 1962.583
797.2374, 1963.047
797.7195, 1971.691
798.2017, 1978.435
798.6838, 1984.195
799.1659, 1986.913
799.6480, 1985.031
800.1301, 1981.081
800.6122, 1973.166
801.0944, 1964.995
801.5765, 1966.760
802.0586, 1985.088
802.5407, 2002.633
803.0228, 2008.204
803.5049, 2008.249
803.9871, 2009.211
804.4692, 2010.924
804.9513, 2010.241
805.4334, 2006.442
805.9155, 2004.645
806.3976, 2010.293
806.8798, 2022.147
807.3619, 2039.704
807.8440, 2062.185
808.3261, 2072.561
808.8082, 2065.153
809.2903, 2056.630
809.7725, 2061.294
810.2546, 2075.767
810.7367, 2086.363
811.2188, 2091.807
811.7009, 2096.914
812.1830, 2107.578
812.6652, 2110.404
813.1473, 2088.383
813.6294, 2060.041
814.1115, 2051.322
814.5936, 2065.104
815.0757, 2085.181
815.5579, 2120.920
816.0400, 2147.596
816.5221, 2151.506
817.0042, 2141.570
817.4863, 2123.618
817.9684, 2101.628
818.4506, 2084.444
818.9327, 2077.686
819.4148, 2074.708
819.8969, 2067.642
820.3790, 2059.978
820.8611, 2061.529
821.3433, 2070.182
821.8254, 2071.042
822.3075, 2057.140
822.7896, 2038.429
823.2717, 2028.108
823.7538, 2025.449
824.2360, 2023.001
824.7181, 2020.517
825.2002, 2022.447
825.6823, 2034.364
826.1644, 2038.081
826.6465, 2011.334
827.1287, 1961.554
827.6108, 1936.938
828.0929, 1948.891
828.5750, 1965.373
829.0571, 1997.576
829.5392, 2020.714
830.0214, 2018.913
830.5035, 2003.211
830.9856, 1987.353
831.4677, 1972.045
831.9498, 1967.674
832.4319, 1990.943
832.9141, 2010.756
833.3962, 2003.610
833.8783, 1986.925
834.3604, 1984.441
834.8425, 1995.896
835.3246, 2003.761
835.8068, 1997.951
836.2889, 1986.181
836.7710, 1972.191
837.2531, 1960.087
837.7352, 1961.007
838.2173, 1973.029
838.6995, 1982.800
839.1816, 1984.532
839.6637, 1982.572
840.1458, 1982.138
840.6279, 1982.933
841.1100, 1984.094
841.5922, 1986.132
842.0743, 1980.333
842.5564, 1961.273
843.0385, 1945.701
843.5206, 1948.231
844.0027, 1964.599
844.4849, 1978.726
844.9670, 1992.893
845.4491, 1999.815
845.9312, 1995.730
846.4133, 1988.970
846.8954, 1978.344
847.3776, 1969.465
847.8597, 1969.375
848.3418, 1978.488
848.8239, 1991.940
849.3060, 2015.845
849.7881, 2034.951
850.2703, 2041.818
850.7524, 2042.701
851.2345, 2042.988
851.7166, 2042.650
852.1987, 2038.127
852.6808, 2026.566
853.1630, 2019.006
853.6451, 2025.921
854.1272, 2039.841
854.6093, 2055.043
855.0914, 2068.937
855.5735, 2076.492
856.0557, 2076.635
856.5378, 2072.663
857.0199, 2065.839
857.5020, 2059.368
857.9841, 2063.391
858.4662, 2075.305
858.9484, 2075.593
859.4305, 2061.559
859.9126, 2054.504
860.3947, 2067.561
860.8768, 2090.340
861.3589, 2104.206
861.8411, 2108.427
862.3232, 2116.492
862.8053, 2131.712
863.2874, 2140.276
863.7695, 2136.324
864.2516, 2127.568
864.7338, 2120.721
865.2159, 2115.267
865.6980, 2107.948
866.1801, 2091.103
866.6622, 2084.330
867.1443, 2096.782
867.6265, 2109.095
868.1086, 2110.871
868.5907, 2108.130
869.0728, 2111.070
869.5549, 2120.790
870.0370, 2123.975
870.5192, 2107.276
871.0013, 2094.501
871.4834, 2101.166
871.9655, 2114.356
872.4476, 2121.928
872.9297, 2123.462
873.4119, 2122.731
873.8940, 2121.026
874.3761, 2118.954
874.8582, 2118.117
875.3403, 2116.391
875.8224, 2110.009
876.3046, 2100.590
876.7867, 2090.280
877.2688, 2080.775
877.7509, 2078.609
878.2330, 2090.677
878.7151, 2109.360
879.1973, 2121.137
879.6794, 2126.637
880.1615, 2130.060
880.6436, 2131.585
881.1257, 2122.598
881.6078, 2097.121
882.0900, 2073.410
882.5721, 2080.448
883.0542, 2115.287
883.5363, 2131.159
884.0184, 2124.093
884.5005, 2119.994
884.9827, 2125.432
885.4648, 2131.882
885.9469, 2132.865
886.4290, 2130.232
886.9111, 2130.220
887.3932, 2137.776
887.8754, 2133.223
888.3575, 2102.415
888.8396, 2079.608
889.3217, 2082.309
889.8038, 2093.581
890.2859, 2095.772
890.7681, 2090.657
891.2502, 2094.740
891.7323, 2127.196
892.2144, 2143.634
892.6965, 2118.742
893.1786, 2093.438
893.6608, 2097.343
894.1429, 2116.410
894.6250, 2123.860
895.1071, 2114.853
895.5892, 2111.684
896.0714, 2133.855
896.5535, 2153.706
897.0356, 2151.042
897.5177, 2138.434
897.9998, 2128.489
898.4819, 2123.252
898.9641, 2122.281
899.4462, 2125.679
899.9283, 2130.241
900.4104, 2136.933
900.8925, 2140.442
901.3746, 2125.895
901.8568, 2103.482
902.3389, 2101.038
902.8210, 2122.439
903.3031, 2147.532
903.7852, 2162.844
904.2673, 2170.076
904.7495, 2170.407
905.2316, 2165.123
905.7137, 2157.055
906.1958, 2147.206
906.6779, 2142.676
907.1600, 2146.359
907.6422, 2152.967
908.1243, 2156.289
908.6064, 2157.784
909.0885, 2164.095
909.5706, 2175.369
910.0527, 2189.022
910.5349, 2205.601
911.0170, 2218.813
911.4991, 2224.621
911.9812, 2225.828
912.4633, 2226.559
912.9454, 2226.430
913.4276, 2232.212
913.9097, 2246.047
914.3918, 2260.794
914.8739, 2279.884
915.3560, 2290.632
915.8381, 2277.088
916.3203, 2249.723
916.8024, 2241.767
917.2845, 2263.058
917.7666, 2278.036
918.2487, 2278.451
918.7308, 2283.121
919.2130, 2305.919
919.6951, 2328.471
920.1772, 2332.500
920.6593, 2320.423
921.1414, 2308.237
921.6235, 2289.013
922.1057, 2284.650
922.5878, 2319.125
923.0699, 2347.055
923.5520, 2333.055
924.0341, 2303.319
924.5162, 2297.133
924.9984, 2316.920
925.4805, 2329.067
925.9626, 2311.320
926.4447, 2297.310
926.9268, 2310.375
927.4089, 2326.115
927.8911, 2320.358
928.3732, 2300.879
928.8553, 2287.324
929.3374, 2284.894
929.8195, 2283.399
930.3016, 2280.506
930.7838, 2272.098
931.2659, 2248.533
931.7480, 2221.128
932.2301, 2205.108
932.7122, 2200.289
933.1943, 2199.719
933.6765, 2200.683
934.1586, 2199.391
934.6407, 2188.583
935.1228, 2176.150
935.6049, 2176.799
936.0870, 2183.979
936.5692, 2179.471
937.0513, 2162.745
937.5334, 2152.037
938.0155, 2159.393
938.4976, 2170.161
938.9797, 2160.099
939.4619, 2139.389
939.9440, 2137.252
940.4261, 2149.549
940.9082, 2150.754
941.3903, 2134.573
941.8724, 2113.760
942.3546, 2095.458
942.8367, 2059.481
943.3188, 2079.321
943.8009, 2090.725
944.2830, 2094.148
944.7651, 2065.682
945.2472, 2078.393
945.7293, 2074.603
946.2114, 2070.135
946.6935, 2088.643
947.1757, 2064.815
947.6578, 2060.823
948.1399, 2082.406
948.6220, 2095.554
949.1041, 2100.719
949.5862, 2073.997
950.0684, 2088.452
950.5505, 2086.404
951.0326, 2083.680
951.5147, 2103.930
951.9968, 2081.845
952.4789, 2101.731
952.9611, 2096.122
953.4432, 2103.901
953.9253, 2109.050
954.4074, 2104.685
954.8895, 2095.359
955.3716, 2088.830
955.8538, 2085.353
956.3359, 2073.515
956.8180, 2045.010
957.3001, 2033.697
957.7822, 2055.806
958.2643, 2074.526
958.7465, 2062.205
959.2286, 2035.391
959.7107, 2027.372
960.1928, 2040.300
960.6749, 2059.452
961.1570, 2098.106
961.6392, 2117.788
962.1213, 2100.091
962.6034, 2074.704
963.0855, 2055.821
963.5676, 2046.334
964.0497, 2057.522
964.5319, 2103.103
965.0140, 2121.353
965.4961, 2088.109
965.9782, 2061.126
966.4603, 2051.137
966.9424, 2053.345
967.4246, 2073.336
967.9067, 2102.060
968.3888, 2111.171
968.8709, 2089.026
969.3530, 2077.420
969.8351, 2083.394
970.3173, 2094.272
970.7994, 2109.891
971.2815, 2125.833
971.7636, 2141.927
972.2457, 2155.231
972.7278, 2155.130
973.2100, 2133.116
973.6921, 2116.954
974.1742, 2109.710
974.6563, 2110.378
975.1384, 2128.701
975.6205, 2147.080
976.1027, 2141.594
976.5848, 2119.169
977.0669, 2114.822
977.5490, 2146.581
978.0311, 2168.028
978.5132, 2167.344
978.9954, 2155.532
979.4775, 2124.472
979.9596, 2094.760
980.4417, 2092.386
980.9238, 2113.692
981.4059, 2130.417
981.8881, 2133.953
982.3702, 2136.689
982.8523, 2143.671
983.3344, 2149.441
983.8165, 2151.288
984.2986, 2149.826
984.7808, 2144.391
985.2629, 2136.160
985.7450, 2130.479
986.2271, 2129.310
986.7092, 2130.025
987.1913, 2133.067
987.6735, 2136.202
988.1556, 2139.114
988.6377, 2140.547
989.1198, 2137.834
989.6019, 2131.724
990.0840, 2127.910
990.5662, 2130.279
991.0483, 2131.004
991.5304, 2120.381
992.0125, 2113.706
992.4946, 2128.116
992.9767, 2149.479
993.4589, 2160.244
993.9410, 2157.559
994.4231, 2142.417
994.9052, 2106.145
995.3873, 2076.243
995.8694, 2066.960
996.3516, 2066.835
996.8337, 2074.468
997.3158, 2082.013
997.7979, 2074.747
998.2800, 2055.093
998.7621, 2049.261
999.2443, 2080.415
999.7264, 2098.690
1000.208, 2062.699
1000.691, 2023.412
1001.173, 2020.142
1001.655, 2037.112
1002.137, 2054.897
1002.619, 2067.664
1003.101, 2067.074
1003.583, 2047.511
1004.065, 2019.802
1004.548, 1971.210
1005.030, 1934.892
1005.512, 1947.345
1005.994, 1980.863
1006.476, 1997.006
1006.958, 1992.689
1007.440, 1987.147
1007.922, 1986.058
1008.404, 1987.631
1008.887, 1997.834
1009.369, 2003.293
1009.851, 1986.614
1010.333, 1964.174
1010.815, 1962.176
1011.297, 1978.215
1011.779, 1982.655
1012.261, 1956.542
1012.744, 1940.321
1013.226, 1967.004
1013.708, 1992.024
1014.190, 1980.716
1014.672, 1954.102
1015.154, 1939.817
1015.636, 1938.185
1016.118, 1932.976
1016.600, 1917.696
1017.083, 1903.125
1017.565, 1892.116
1018.047, 1884.279
1018.529, 1880.713
1019.011, 1879.190
1019.493, 1877.300
1019.975, 1875.062
1020.457, 1873.785
1020.940, 1874.120
1021.422, 1874.382
1021.904, 1873.586
1022.386, 1873.121
1022.868, 1877.184
1023.350, 1879.214
1023.832, 1868.921
1024.314, 1850.636
1024.797, 1841.043
1025.279, 1846.872
1025.761, 1848.498
1026.243, 1834.003
1026.725, 1823.197
1027.207, 1831.731
1027.689, 1841.227
1028.171, 1829.163
1028.653, 1805.004
1029.135, 1799.700
1029.618, 1823.823
1030.100, 1838.504
1030.582, 1834.814
1031.064, 1823.731
1031.546, 1797.760
1032.028, 1775.861
1032.510, 1776.690
1032.992, 1791.538
1033.475, 1799.775
1033.957, 1798.760
1034.439, 1797.190
1034.921, 1804.246
1035.403, 1798.866
1035.885, 1752.149
1036.367, 1716.694
1036.849, 1741.969
1037.332, 1795.112
1037.814, 1812.891
1038.296, 1789.205
1038.778, 1772.584
1039.260, 1761.882
1039.742, 1760.374
1040.224, 1778.238
1040.706, 1792.747
1041.188, 1789.617
1041.671, 1778.222
1042.153, 1772.627
1042.635, 1772.893
1043.117, 1767.811
1043.599, 1751.336
1044.081, 1743.813
1044.563, 1754.845
1045.045, 1759.305
1045.527, 1740.891
1046.010, 1717.695
1046.492, 1712.120
1046.974, 1722.022
1047.456, 1729.795
1047.938, 1735.528
1048.420, 1738.486
1048.902, 1737.639
1049.384, 1736.635
1049.866, 1735.791
1050.349, 1738.639
1050.831, 1751.260
1051.313, 1767.893
1051.795, 1763.829
1052.277, 1734.651
1052.759, 1725.225
1053.241, 1741.264
1053.723, 1742.853
1054.206, 1715.131
1054.688, 1689.719
1055.170, 1693.269
1055.652, 1711.642
1056.134, 1710.215
1056.616, 1690.287
1057.098, 1690.058
1057.580, 1709.297
1058.063, 1717.966
1058.545, 1709.496
1059.027, 1699.429
1059.509, 1697.779
1059.991, 1697.333
1060.473, 1682.660
1060.955, 1660.873
1061.437, 1666.701
1061.919, 1692.905
1062.401, 1696.196
1062.884, 1673.747
1063.366, 1658.839
1063.848, 1666.969
1064.330, 1681.487
1064.812, 1685.389
1065.294, 1682.051
1065.776, 1673.471
1066.258, 1664.268
1066.741, 1670.456
1067.223, 1687.536
1067.705, 1694.450
1068.187, 1684.699
1068.669, 1668.133
1069.151, 1648.402
1069.633, 1633.843
1070.115, 1639.092
1070.598, 1651.922
1071.080, 1655.129
1071.562, 1651.332
1072.044, 1648.505
1072.526, 1648.138
1073.008, 1646.606
1073.490, 1640.381
1073.972, 1638.484
1074.454, 1657.193
1074.937, 1673.077
1075.419, 1658.460
1075.901, 1632.890
1076.383, 1622.252
1076.865, 1626.791
1077.347, 1634.005
1077.829, 1640.054
1078.311, 1649.416
1078.793, 1670.459
1079.276, 1686.908
1079.758, 1686.062
1080.240, 1681.695
1080.722, 1684.370
1081.204, 1693.439
1081.686, 1706.350
1082.168, 1723.091
1082.650, 1739.851
1083.133, 1750.820
1083.615, 1769.560
1084.097, 1806.172
1084.579, 1842.590
1085.061, 1875.536
1085.543, 1898.366
1086.025, 1901.845
1086.507, 1886.768
1086.990, 1861.396
1087.472, 1814.767
1087.954, 1783.008
1088.436, 1773.284
1088.918, 1765.776
1089.400, 1755.968
1089.882, 1741.613
1090.364, 1718.984
1090.846, 1691.825
1091.328, 1672.473
1091.811, 1662.156
1092.293, 1646.153
1092.775, 1622.580
1093.257, 1608.066
1093.739, 1607.183
1094.221, 1609.233
1094.703, 1608.591
1095.185, 1601.328
1095.668, 1576.854
1096.150, 1542.203
1096.632, 1531.288
1097.114, 1541.770
1097.596, 1562.559
1098.078, 1589.443
1098.560, 1601.375
1099.042, 1590.375
1099.525, 1576.748
1100.007, 1581.700
1100.489, 1590.266
1100.971, 1570.485
1101.453, 1540.347
1101.935, 1541.831
1102.417, 1563.860
1102.899, 1567.559
1103.381, 1548.441
1103.864, 1535.967
1104.346, 1547.684
1104.828, 1562.977
1105.310, 1563.572
1105.792, 1561.360
1106.274, 1569.672
1106.756, 1580.521
1107.238, 1582.821
1107.720, 1577.677
1108.203, 1570.666
1108.685, 1562.879
1109.167, 1559.944
1109.649, 1569.591
1110.131, 1576.850
1110.613, 1573.396
1111.095, 1568.176
1111.577, 1566.862
1112.060, 1568.219
1112.542, 1571.093
1113.024, 1575.094
1113.506, 1575.450
1113.988, 1568.383
1114.470, 1563.254
1114.952, 1554.382
1115.434, 1557.902
1115.917, 1590.646
1116.399, 1620.159
1116.881, 1616.064
1117.363, 1590.016
1117.845, 1573.516
1118.327, 1567.299
1118.809, 1561.441
1119.291, 1554.225
1119.773, 1562.729
1120.255, 1593.192
1120.738, 1613.587
1121.220, 1605.778
1121.702, 1585.899
1122.184, 1573.414
1122.666, 1566.888
1123.148, 1562.167
1123.630, 1559.044
1124.112, 1553.818
1124.595, 1548.496
1125.077, 1559.039
1125.559, 1587.344
1126.041, 1607.115
1126.523, 1599.096
1127.005, 1580.056
1127.487, 1564.563
1127.969, 1553.980
1128.452, 1551.555
1128.934, 1554.585
1129.416, 1561.014
1129.898, 1568.243
1130.380, 1569.853
1130.862, 1563.560
1131.344, 1558.900
1131.826, 1562.569
1132.308, 1566.792
1132.791, 1566.111
1133.273, 1566.140
1133.755, 1575.125
1134.237, 1585.388
1134.719, 1583.165
1135.201, 1569.156
1135.683, 1561.136
1136.165, 1565.405
1136.647, 1566.944
1137.130, 1560.906
1137.612, 1559.422
1138.094, 1568.527
1138.576, 1579.151
1139.058, 1585.625
1139.540, 1587.707
1140.022, 1583.728
1140.504, 1573.679
1140.987, 1569.506
1141.469, 1571.010
1141.951, 1584.430
1142.433, 1611.830
1142.915, 1625.477
1143.397, 1612.877
1143.879, 1591.935
1144.361, 1578.933
1144.844, 1573.053
1145.326, 1574.066
1145.808, 1580.234
1146.290, 1588.692
1146.772, 1597.628
1147.254, 1601.132
1147.736, 1599.627
1148.218, 1601.398
1148.700, 1610.645
1149.182, 1618.940
1149.665, 1619.622
1150.147, 1616.502
1150.629, 1608.351
1151.111, 1601.942
1151.593, 1608.861
1152.075, 1620.898
1152.557, 1618.697
1153.039, 1601.988
1153.522, 1597.998
1154.004, 1625.776
1154.486, 1643.198
1154.968, 1635.439
1155.450, 1625.482
1155.932, 1619.799
1156.414, 1617.349
1156.896, 1620.035
1157.379, 1623.473
1157.861, 1615.576
1158.343, 1594.954
1158.825, 1597.302
1159.307, 1630.368
1159.789, 1639.144
1160.271, 1612.143
1160.753, 1599.568
1161.235, 1623.228
1161.718, 1656.516
1162.200, 1675.323
1162.682, 1681.665
1163.164, 1677.117
1163.646, 1664.568
1164.128, 1647.557
1164.610, 1631.255
1165.092, 1634.941
1165.574, 1656.581
1166.057, 1673.517
1166.539, 1676.024
1167.021, 1672.998
1167.503, 1668.025
1167.985, 1664.134
1168.467, 1663.616
1168.949, 1665.307
1169.431, 1669.101
1169.914, 1673.755
1170.396, 1678.119
1170.878, 1681.767
1171.360, 1683.576
1171.842, 1683.956
1172.324, 1680.878
1172.806, 1668.542
1173.288, 1661.084
1173.771, 1664.529
1174.253, 1668.472
1174.735, 1663.733
1175.217, 1660.778
1175.699, 1679.272
1176.181, 1713.307
1176.663, 1713.707
1177.145, 1678.573
1177.627, 1668.185
1178.109, 1685.802
1178.592, 1692.024
1179.074, 1676.405
1179.556, 1663.939
1180.038, 1671.610
1180.520, 1686.005
1181.002, 1690.391
1181.484, 1689.285
1181.966, 1685.937
1182.449, 1684.829
1182.931, 1698.165
1183.413, 1719.163
1183.895, 1729.336
1184.377, 1725.551
1184.859, 1719.766
1185.341, 1714.113
1185.823, 1714.145
1186.306, 1728.096
1186.788, 1740.662
1187.270, 1748.577
1187.752, 1747.991
1188.234, 1728.095
1188.716, 1700.666
1189.198, 1690.893
1189.680, 1699.323
1190.162, 1696.387
1190.645, 1675.327
1191.127, 1671.782
1191.609, 1692.133
1192.091, 1710.489
1192.573, 1718.352
1193.055, 1719.211
1193.537, 1715.132
1194.019, 1709.187
1194.501, 1708.450
1194.984, 1709.342
1195.466, 1698.806
1195.948, 1682.856
1196.430, 1677.269
1196.912, 1681.336
1197.394, 1686.151
1197.876, 1689.230
1198.358, 1694.581
1198.841, 1705.945
1199.323, 1716.196
1199.805, 1722.410
1200.287, 1724.907
1200.769, 1724.592
1201.251, 1720.080
1201.733, 1704.608
1202.215, 1685.446
1202.698, 1682.868
1203.180, 1698.163
1203.662, 1699.931
1204.144, 1677.814
1204.626, 1675.104
1205.108, 1701.392
1205.590, 1720.342
1206.072, 1719.643
1206.554, 1709.439
1207.036, 1696.128
1207.519, 1684.824
1208.001, 1684.012
1208.483, 1692.470
1208.965, 1716.803
1209.447, 1743.912
1209.929, 1729.399
1210.411, 1684.632
1210.893, 1658.502
1211.376, 1662.249
1211.858, 1671.516
1212.340, 1673.964
1212.822, 1679.288
1213.304, 1699.383
1213.786, 1716.042
1214.268, 1719.736
1214.750, 1714.559
1215.233, 1698.042
1215.715, 1678.319
1216.197, 1670.873
1216.679, 1675.015
1217.161, 1677.148
1217.643, 1677.384
1218.125, 1674.158
1218.607, 1665.714
1219.089, 1665.113
1219.572, 1677.022
1220.054, 1682.656
1220.536, 1669.454
1221.018, 1653.597
1221.500, 1658.465
1221.982, 1672.690
1222.464, 1670.079
1222.946, 1660.707
1223.428, 1669.227
1223.911, 1686.029
1224.393, 1681.272
1224.875, 1656.539
1225.357, 1644.638
1225.839, 1659.404
1226.321, 1673.560
1226.803, 1676.201
1227.285, 1676.333
##END=



