##NAMES=Pumpellyite-(Mg)
##RRUFFID=R070130
##IDEAL CHEMISTRY=Ca_2_MgAl_2_(SiO_4_)(Si_2_O_7_)(OH)_2_&#183;H_2_O
##LOCALITY=Isle Royale National Park, Lake Superior,  Keweenaw County, Michigan, USA
##OWNER=RRUFF
##SOURCE=Michael Scott
##DESCRIPTION=Green waterworn massive pebble
##STATUS=The identification of this mineral has been made only by X-ray diffraction.
##URL=rruff.info/R070130
186.8779, 19275.42
187.3600, 19287.55
187.8421, 19304.70
188.3242, 19325.93
188.8064, 19355.49
189.2885, 19405.50
189.7706, 19464.46
190.2527, 19514.39
190.7348, 19546.50
191.2169, 19569.00
191.6991, 19590.19
192.1812, 19606.85
192.6633, 19635.03
193.1454, 19693.48
193.6275, 19766.31
194.1096, 19835.89
194.5918, 19898.86
195.0739, 19954.16
195.5560, 19998.10
196.0381, 20027.68
196.5202, 20058.18
197.0023, 20099.50
197.4845, 20144.62
197.9666, 20187.34
198.4487, 20227.09
198.9308, 20261.75
199.4129, 20285.64
199.8950, 20296.20
200.3772, 20309.60
200.8593, 20334.02
201.3414, 20363.80
201.8235, 20397.46
202.3056, 20436.92
202.7877, 20471.56
203.2699, 20488.34
203.7520, 20486.08
204.2341, 20474.08
204.7162, 20441.65
205.1983, 20408.04
205.6804, 20388.66
206.1626, 20386.74
206.6447, 20394.24
207.1268, 20403.30
207.6089, 20413.77
208.0910, 20427.65
208.5731, 20453.70
209.0553, 20477.34
209.5374, 20488.17
210.0195, 20484.77
210.5016, 20472.79
210.9837, 20450.34
211.4658, 20416.33
211.9480, 20401.91
212.4301, 20428.36
212.9122, 20463.33
213.3943, 20480.73
213.8764, 20481.69
214.3585, 20491.46
214.8407, 20541.68
215.3228, 20630.64
215.8049, 20694.21
216.2870, 20708.54
216.7691, 20713.35
217.2512, 20732.51
217.7334, 20764.04
218.2155, 20795.43
218.6976, 20814.88
219.1797, 20824.36
219.6618, 20842.81
220.1439, 20881.07
220.6261, 20914.56
221.1082, 20922.28
221.5903, 20914.41
222.0724, 20917.81
222.5545, 20961.01
223.0366, 21030.19
223.5188, 21062.06
224.0009, 21033.07
224.4830, 21006.29
224.9651, 21017.97
225.4472, 21051.90
225.9293, 21080.72
226.4115, 21090.93
226.8936, 21087.42
227.3757, 21079.32
227.8578, 21060.87
228.3399, 21051.63
228.8220, 21068.52
229.3041, 21096.15
229.7863, 21114.08
230.2684, 21110.35
230.7505, 21100.83
231.2326, 21118.95
231.7147, 21177.26
232.1968, 21217.79
232.6790, 21204.93
233.1611, 21169.97
233.6432, 21136.67
234.1253, 21109.70
234.6074, 21091.22
235.0895, 21084.80
235.5717, 21091.10
236.0538, 21104.43
236.5359, 21137.19
237.0180, 21167.21
237.5001, 21170.97
237.9822, 21143.72
238.4644, 21117.03
238.9465, 21126.37
239.4286, 21170.78
239.9107, 21202.19
240.3928, 21199.37
240.8749, 21191.53
241.3571, 21205.76
241.8392, 21241.22
242.3213, 21271.17
242.8034, 21274.77
243.2855, 21255.92
243.7676, 21234.37
244.2498, 21205.62
244.7319, 21184.93
245.2140, 21181.32
245.6961, 21193.46
246.1782, 21217.31
246.6603, 21265.04
247.1425, 21322.61
247.6246, 21353.44
248.1067, 21354.32
248.5888, 21332.18
249.0709, 21265.44
249.5530, 21180.12
250.0352, 21130.28
250.5173, 21150.38
250.9994, 21207.80
251.4815, 21263.77
251.9636, 21321.65
252.4457, 21356.20
252.9279, 21329.19
253.4100, 21275.29
253.8921, 21249.93
254.3742, 21273.81
254.8563, 21313.40
255.3384, 21340.64
255.8206, 21355.61
256.3027, 21359.51
256.7848, 21344.53
257.2669, 21324.25
257.7490, 21318.15
258.2311, 21326.56
258.7133, 21349.70
259.1954, 21401.81
259.6775, 21472.68
260.1596, 21522.34
260.6417, 21540.18
261.1238, 21529.40
261.6060, 21477.58
262.0881, 21377.45
262.5702, 21321.29
263.0523, 21384.79
263.5344, 21509.89
264.0165, 21588.76
264.4987, 21598.81
264.9808, 21574.01
265.4629, 21537.65
265.9450, 21491.20
266.4271, 21462.97
266.9092, 21472.91
267.3914, 21495.48
267.8735, 21502.02
268.3556, 21490.23
268.8377, 21478.38
269.3198, 21481.72
269.8019, 21499.03
270.2841, 21509.78
270.7662, 21497.85
271.2483, 21493.25
271.7304, 21520.38
272.2125, 21573.60
272.6946, 21630.61
273.1768, 21686.16
273.6589, 21731.16
274.1410, 21729.21
274.6231, 21632.41
275.1052, 21557.16
275.5873, 21552.44
276.0695, 21591.35
276.5516, 21626.56
277.0337, 21639.84
277.5158, 21642.02
277.9979, 21654.76
278.4800, 21685.87
278.9622, 21711.51
279.4443, 21728.65
279.9264, 21739.88
280.4085, 21743.92
280.8906, 21741.66
281.3727, 21743.36
281.8549, 21764.23
282.3370, 21815.47
282.8191, 21839.21
283.3012, 21816.72
283.7833, 21785.65
284.2654, 21761.23
284.7476, 21747.34
285.2297, 21747.34
285.7118, 21766.02
286.1939, 21803.20
286.6760, 21828.52
287.1581, 21837.02
287.6403, 21840.22
288.1224, 21838.99
288.6045, 21834.77
289.0866, 21829.12
289.5687, 21822.82
290.0508, 21815.99
290.5330, 21808.91
291.0151, 21797.61
291.4972, 21792.22
291.9793, 21797.38
292.4614, 21806.25
292.9435, 21814.50
293.4257, 21820.27
293.9078, 21821.32
294.3899, 21813.98
294.8720, 21796.63
295.3541, 21775.13
295.8362, 21741.97
296.3184, 21711.38
296.8005, 21695.97
297.2826, 21692.29
297.7647, 21683.35
298.2468, 21645.78
298.7289, 21580.51
299.2111, 21556.04
299.6932, 21602.92
300.1753, 21656.35
300.6574, 21695.16
301.1395, 21723.29
301.6216, 21749.84
302.1038, 21781.16
302.5859, 21811.73
303.0680, 21826.88
303.5501, 21821.13
304.0322, 21814.43
304.5143, 21805.43
304.9964, 21802.76
305.4785, 21820.31
305.9607, 21864.61
306.4428, 21908.40
306.9249, 21920.55
307.4070, 21901.27
307.8891, 21879.04
308.3712, 21859.08
308.8534, 21838.92
309.3355, 21808.87
309.8176, 21770.31
310.2997, 21752.33
310.7818, 21793.82
311.2639, 21865.64
311.7461, 21889.09
312.2282, 21844.41
312.7103, 21790.98
313.1924, 21781.14
313.6745, 21801.72
314.1566, 21816.08
314.6388, 21811.39
315.1209, 21801.11
315.6030, 21799.67
316.0851, 21806.02
316.5672, 21805.16
317.0493, 21782.18
317.5315, 21751.04
318.0136, 21753.25
318.4957, 21814.75
318.9778, 21863.78
319.4599, 21861.06
319.9420, 21828.94
320.4242, 21809.39
320.9063, 21816.51
321.3884, 21833.54
321.8705, 21835.30
322.3526, 21816.14
322.8347, 21797.20
323.3169, 21763.31
323.7990, 21741.11
324.2811, 21769.05
324.7632, 21839.92
325.2453, 21892.92
325.7274, 21867.70
326.2096, 21760.80
326.6917, 21721.62
327.1738, 21812.46
327.6559, 21892.99
328.1380, 21914.13
328.6201, 21896.18
329.1023, 21874.22
329.5844, 21865.27
330.0665, 21868.40
330.5486, 21883.42
331.0307, 21933.13
331.5128, 21956.16
331.9950, 21919.93
332.4771, 21877.10
332.9592, 21880.11
333.4413, 21932.39
333.9234, 21984.63
334.4055, 21969.69
334.8877, 21873.33
335.3698, 21814.90
335.8519, 21827.64
336.3340, 21848.79
336.8161, 21854.56
337.2982, 21849.59
337.7804, 21847.70
338.2625, 21857.89
338.7446, 21876.05
339.2267, 21890.79
339.7088, 21900.83
340.1909, 21910.98
340.6731, 21919.02
341.1552, 21930.09
341.6373, 21953.27
342.1194, 21993.70
342.6015, 22030.61
343.0836, 22040.38
343.5658, 22026.33
344.0479, 22013.44
344.5300, 22000.58
345.0121, 22000.87
345.4942, 22035.96
345.9763, 22102.44
346.4585, 22158.07
346.9406, 22184.28
347.4227, 22193.32
347.9048, 22199.53
348.3869, 22204.08
348.8690, 22207.10
349.3512, 22204.27
349.8333, 22200.17
350.3154, 22216.57
350.7975, 22285.56
351.2796, 22340.67
351.7617, 22329.82
352.2439, 22285.49
352.7260, 22282.35
353.2081, 22352.76
353.6902, 22454.18
354.1723, 22505.91
354.6544, 22471.30
355.1366, 22450.92
355.6187, 22463.01
356.1008, 22476.46
356.5829, 22456.14
357.0650, 22407.12
357.5471, 22372.94
358.0293, 22397.39
358.5114, 22481.65
358.9935, 22532.90
359.4756, 22517.28
359.9577, 22503.82
360.4398, 22511.02
360.9220, 22528.45
361.4041, 22539.68
361.8862, 22537.13
362.3683, 22528.43
362.8504, 22529.92
363.3326, 22547.15
363.8147, 22557.95
364.2968, 22557.77
364.7789, 22551.39
365.2610, 22536.13
365.7431, 22514.61
366.2253, 22499.81
366.7074, 22498.80
367.1895, 22512.25
367.6716, 22550.49
368.1537, 22631.63
368.6358, 22697.98
369.1180, 22695.02
369.6001, 22658.25
370.0822, 22646.93
370.5643, 22693.39
371.0464, 22745.04
371.5285, 22742.71
372.0107, 22695.49
372.4928, 22665.11
372.9749, 22677.46
373.4570, 22710.19
373.9391, 22730.65
374.4212, 22740.13
374.9034, 22736.91
375.3855, 22701.19
375.8676, 22663.00
376.3497, 22668.03
376.8318, 22716.74
377.3139, 22752.75
377.7961, 22725.34
378.2782, 22636.85
378.7603, 22579.99
379.2424, 22568.78
379.7245, 22566.76
380.2066, 22569.05
380.6888, 22571.73
381.1709, 22570.83
381.6530, 22564.73
382.1351, 22552.61
382.6172, 22530.84
383.0993, 22486.20
383.5815, 22460.88
384.0636, 22466.23
384.5457, 22478.25
385.0278, 22488.58
385.5099, 22494.28
385.9920, 22492.20
386.4742, 22478.22
386.9563, 22454.93
387.4384, 22435.35
387.9205, 22419.89
388.4026, 22407.32
388.8847, 22399.02
389.3669, 22392.32
389.8490, 22385.42
390.3311, 22378.27
390.8132, 22367.82
391.2953, 22344.82
391.7774, 22312.69
392.2596, 22300.80
392.7417, 22325.31
393.2238, 22351.68
393.7059, 22337.46
394.1880, 22291.57
394.6701, 22260.69
395.1523, 22263.17
395.6344, 22280.90
396.1165, 22304.62
396.5986, 22331.13
397.0807, 22344.99
397.5628, 22337.41
398.0450, 22312.31
398.5271, 22279.64
399.0092, 22233.95
399.4913, 22190.77
399.9734, 22137.04
400.4555, 22095.56
400.9377, 22105.07
401.4197, 22164.11
401.9019, 22214.90
402.3840, 22192.59
402.8661, 22088.75
403.3482, 22027.11
403.8303, 22035.35
404.3124, 22056.66
404.7946, 22090.05
405.2767, 22123.88
405.7588, 22143.87
406.2409, 22144.05
406.7230, 22129.33
407.2051, 22100.16
407.6873, 22046.92
408.1694, 22026.88
408.6515, 22080.48
409.1336, 22142.32
409.6157, 22179.34
410.0978, 22189.80
410.5800, 22177.34
411.0621, 22130.21
411.5442, 22065.87
412.0263, 22005.91
412.5084, 21946.57
412.9905, 21936.89
413.4727, 22035.87
413.9548, 22186.02
414.4369, 22258.44
414.9190, 22221.42
415.4011, 22176.58
415.8832, 22164.30
416.3654, 22171.08
416.8475, 22180.55
417.3296, 22189.00
417.8117, 22187.48
418.2938, 22162.83
418.7759, 22110.79
419.2581, 22085.54
419.7402, 22102.35
420.2223, 22124.82
420.7044, 22145.00
421.1865, 22160.39
421.6686, 22169.66
422.1508, 22172.23
422.6329, 22166.30
423.1150, 22143.92
423.5971, 22089.76
424.0792, 22061.66
424.5613, 22093.39
425.0435, 22124.66
425.5256, 22130.32
426.0077, 22109.50
426.4898, 22067.14
426.9719, 21991.94
427.4540, 21905.83
427.9362, 21869.78
428.4183, 21894.99
428.9004, 21912.66
429.3825, 21879.97
429.8646, 21835.59
430.3467, 21836.44
430.8289, 21896.05
431.3110, 21940.23
431.7931, 21916.75
432.2752, 21859.44
432.7573, 21828.78
433.2394, 21833.31
433.7216, 21833.19
434.2037, 21791.57
434.6858, 21713.05
435.1679, 21662.16
435.6500, 21634.22
436.1321, 21635.48
436.6143, 21692.64
437.0964, 21770.95
437.5785, 21823.94
438.0606, 21837.09
438.5427, 21828.14
439.0248, 21820.63
439.5070, 21815.79
439.9891, 21806.70
440.4712, 21798.38
440.9533, 21780.31
441.4354, 21731.26
441.9175, 21672.65
442.3997, 21644.27
442.8818, 21669.41
443.3639, 21720.01
443.8460, 21752.14
444.3281, 21765.35
444.8102, 21766.31
445.2924, 21750.58
445.7745, 21729.06
446.2566, 21710.79
446.7387, 21695.89
447.2208, 21685.39
447.7029, 21683.08
448.1851, 21683.24
448.6672, 21682.63
449.1493, 21679.98
449.6314, 21664.20
450.1135, 21623.33
450.5956, 21573.75
451.0778, 21562.98
451.5599, 21624.60
452.0420, 21664.30
452.5241, 21659.95
453.0062, 21639.52
453.4883, 21624.14
453.9705, 21616.43
454.4526, 21609.22
454.9347, 21595.78
455.4168, 21577.77
455.8989, 21568.54
456.3810, 21572.60
456.8632, 21578.77
457.3453, 21590.00
457.8274, 21598.92
458.3095, 21599.94
458.7916, 21591.66
459.2737, 21573.42
459.7559, 21538.02
460.2380, 21490.75
460.7201, 21453.76
461.2022, 21428.11
461.6843, 21415.00
462.1664, 21424.45
462.6486, 21446.27
463.1307, 21455.39
463.6128, 21446.36
464.0949, 21429.42
464.5770, 21400.90
465.0591, 21370.21
465.5413, 21353.58
466.0234, 21355.00
466.5055, 21371.39
466.9876, 21405.17
467.4697, 21462.88
467.9518, 21475.73
468.4340, 21394.91
468.9161, 21329.95
469.3982, 21326.90
469.8803, 21356.51
470.3624, 21374.78
470.8445, 21365.73
471.3267, 21347.99
471.8088, 21351.10
472.2909, 21378.71
472.7730, 21395.87
473.2551, 21405.92
473.7372, 21396.78
474.2194, 21342.97
474.7015, 21268.49
475.1836, 21228.56
475.6657, 21254.61
476.1478, 21302.19
476.6299, 21329.08
477.1121, 21339.72
477.5942, 21357.53
478.0763, 21394.07
478.5584, 21423.49
479.0405, 21406.41
479.5226, 21329.81
480.0048, 21288.43
480.4869, 21308.28
480.9690, 21340.04
481.4511, 21358.81
481.9332, 21369.22
482.4153, 21385.85
482.8975, 21415.57
483.3796, 21447.69
483.8617, 21461.40
484.3438, 21450.67
484.8259, 21439.52
485.3080, 21423.82
485.7902, 21412.49
486.2723, 21411.01
486.7544, 21416.97
487.2365, 21423.92
487.7186, 21426.65
488.2007, 21432.42
488.6829, 21457.78
489.1650, 21501.07
489.6471, 21530.26
490.1292, 21535.21
490.6113, 21524.93
491.0934, 21510.37
491.5756, 21492.03
492.0577, 21460.52
492.5398, 21387.76
493.0219, 21325.20
493.5040, 21320.08
493.9861, 21353.56
494.4683, 21376.21
494.9504, 21365.75
495.4325, 21334.41
495.9146, 21303.24
496.3967, 21262.94
496.8788, 21246.98
497.3610, 21286.99
497.8431, 21319.26
498.3252, 21302.41
498.8073, 21256.45
499.2894, 21229.48
499.7715, 21249.97
500.2536, 21286.60
500.7357, 21288.34
501.2179, 21255.20
501.7000, 21222.31
502.1821, 21194.87
502.6642, 21174.14
503.1463, 21167.06
503.6284, 21170.92
504.1106, 21164.13
504.5927, 21125.99
505.0748, 21091.35
505.5569, 21088.59
506.0390, 21107.56
506.5211, 21121.84
507.0033, 21121.13
507.4854, 21115.44
507.9675, 21121.23
508.4496, 21144.55
508.9317, 21158.09
509.4138, 21161.32
509.8960, 21155.91
510.3781, 21133.87
510.8602, 21105.54
511.3423, 21088.14
511.8244, 21089.37
512.3066, 21099.20
512.7887, 21107.20
513.2708, 21113.13
513.7529, 21111.87
514.2350, 21104.15
514.7172, 21086.07
515.1993, 21050.51
515.6814, 21001.19
516.1635, 20950.65
516.6456, 20872.64
517.1277, 20823.54
517.6099, 20859.11
518.0920, 20936.90
518.5741, 20983.01
519.0562, 20977.85
519.5383, 20951.39
520.0204, 20935.92
520.5026, 20931.92
520.9847, 20932.79
521.4668, 20952.51
521.9489, 20960.74
522.4310, 20954.13
522.9131, 20931.20
523.3953, 20879.35
523.8774, 20797.16
524.3595, 20727.66
524.8416, 20719.04
525.3237, 20759.59
525.8058, 20805.57
526.2880, 20862.41
526.7701, 20888.29
527.2522, 20835.84
527.7343, 20739.70
528.2164, 20702.42
528.6985, 20759.66
529.1807, 20802.97
529.6628, 20783.20
530.1449, 20742.18
530.6270, 20725.61
531.1091, 20736.45
531.5912, 20750.93
532.0734, 20749.78
532.5555, 20738.82
533.0376, 20750.34
533.5197, 20812.03
534.0018, 20842.75
534.4839, 20803.75
534.9661, 20752.82
535.4482, 20731.21
535.9303, 20738.29
536.4124, 20747.06
536.8945, 20741.97
537.3766, 20728.60
537.8588, 20711.41
538.3409, 20691.37
538.8230, 20684.89
539.3051, 20702.70
539.7872, 20728.29
540.2693, 20733.70
540.7515, 20710.79
541.2336, 20704.37
541.7157, 20730.96
542.1978, 20760.24
542.6799, 20785.54
543.1620, 20798.81
543.6442, 20784.41
544.1263, 20736.05
544.6084, 20671.02
545.0905, 20611.72
545.5726, 20555.15
546.0547, 20529.84
546.5369, 20558.13
547.0190, 20587.93
547.5011, 20589.26
547.9832, 20573.83
548.4653, 20562.32
548.9474, 20561.43
549.4296, 20560.41
549.9116, 20560.62
550.3937, 20553.44
550.8759, 20510.74
551.3580, 20429.96
551.8401, 20363.00
552.3222, 20357.58
552.8043, 20404.11
553.2864, 20419.18
553.7686, 20363.25
554.2507, 20325.16
554.7328, 20324.47
555.2149, 20335.40
555.6970, 20341.06
556.1791, 20337.58
556.6613, 20324.43
557.1434, 20299.05
557.6255, 20265.27
558.1076, 20224.56
558.5897, 20173.99
559.0718, 20157.91
559.5540, 20210.50
560.0361, 20279.96
560.5182, 20288.09
561.0003, 20234.66
561.4824, 20200.54
561.9645, 20211.02
562.4467, 20231.86
562.9288, 20246.90
563.4109, 20255.13
563.8930, 20259.90
564.3751, 20262.02
564.8572, 20252.18
565.3394, 20208.25
565.8215, 20120.15
566.3036, 20081.29
566.7857, 20134.10
567.2678, 20175.96
567.7499, 20146.48
568.2321, 20092.09
568.7142, 20080.43
569.1963, 20132.56
569.6784, 20179.72
570.1605, 20168.79
570.6426, 20126.77
571.1248, 20090.93
571.6069, 20067.04
572.0890, 20074.64
572.5711, 20135.49
573.0532, 20222.38
573.5353, 20247.19
574.0175, 20141.49
574.4996, 20079.43
574.9817, 20079.91
575.4638, 20103.66
575.9459, 20141.51
576.4280, 20181.88
576.9102, 20202.26
577.3923, 20186.87
577.8744, 20160.31
578.3565, 20166.34
578.8386, 20201.00
579.3207, 20207.97
579.8029, 20164.21
580.2850, 20127.38
580.7671, 20158.20
581.2492, 20246.93
581.7313, 20296.03
582.2134, 20286.96
582.6956, 20260.67
583.1777, 20217.49
583.6598, 20170.09
584.1419, 20128.13
584.6240, 20095.52
585.1061, 20077.51
585.5883, 20080.88
586.0704, 20100.47
586.5525, 20114.23
587.0346, 20119.67
587.5167, 20128.54
587.9988, 20155.75
588.4810, 20176.18
588.9631, 20155.61
589.4452, 20100.38
589.9273, 20073.02
590.4094, 20117.58
590.8915, 20172.97
591.3737, 20200.76
591.8558, 20203.28
592.3379, 20182.29
592.8200, 20139.04
593.3021, 20090.64
593.7842, 20055.05
594.2664, 20032.01
594.7485, 20029.88
595.2306, 20073.32
595.7127, 20101.54
596.1948, 20091.43
596.6769, 20065.72
597.1591, 20040.66
597.6412, 20019.71
598.1233, 20015.06
598.6054, 20042.54
599.0875, 20085.77
599.5696, 20126.42
600.0518, 20162.54
600.5339, 20188.82
601.0160, 20203.64
601.4981, 20203.90
601.9802, 20182.48
602.4623, 20131.77
602.9445, 20089.63
603.4266, 20058.28
603.9087, 20032.26
604.3908, 20007.86
604.8729, 19988.64
605.3550, 19989.17
605.8372, 20012.06
606.3193, 20015.41
606.8014, 19936.24
607.2835, 19811.09
607.7656, 19745.96
608.2477, 19747.70
608.7299, 19762.58
609.2120, 19768.13
609.6941, 19766.37
610.1762, 19763.09
610.6583, 19766.27
611.1404, 19744.71
611.6226, 19672.63
612.1047, 19600.63
612.5868, 19543.33
613.0689, 19508.34
613.5510, 19516.71
614.0331, 19576.04
614.5153, 19633.88
614.9974, 19609.55
615.4795, 19519.24
615.9616, 19486.91
616.4437, 19538.62
616.9258, 19561.77
617.4080, 19478.47
617.8901, 19335.91
618.3722, 19241.12
618.8543, 19196.50
619.3364, 19184.19
619.8185, 19231.85
620.3007, 19283.49
620.7828, 19301.28
621.2649, 19291.36
621.7470, 19272.84
622.2291, 19254.09
622.7112, 19238.89
623.1934, 19237.02
623.6755, 19248.20
624.1576, 19244.90
624.6397, 19222.42
625.1218, 19192.96
625.6039, 19152.96
626.0861, 19114.50
626.5682, 19105.77
627.0503, 19142.09
627.5324, 19163.85
628.0145, 19148.16
628.4966, 19117.54
628.9788, 19079.75
629.4609, 19043.55
629.9430, 19027.37
630.4251, 19040.26
630.9072, 19068.85
631.3893, 19098.40
631.8715, 19130.74
632.3536, 19127.38
632.8357, 19065.55
633.3178, 19011.45
633.7999, 19021.16
634.2820, 19055.05
634.7642, 19036.27
635.2463, 18935.78
635.7284, 18867.68
636.2105, 18899.70
636.6926, 18956.17
637.1747, 18972.72
637.6569, 18953.20
638.1390, 18921.39
638.6211, 18888.22
639.1032, 18862.49
639.5853, 18862.92
640.0674, 18892.53
640.5496, 18914.83
641.0317, 18932.52
641.5138, 18935.73
641.9959, 18906.83
642.4780, 18865.08
642.9601, 18840.42
643.4423, 18838.14
643.9244, 18836.98
644.4065, 18827.54
644.8886, 18818.04
645.3707, 18818.40
645.8528, 18824.81
646.3350, 18826.74
646.8171, 18819.63
647.2992, 18805.16
647.7813, 18779.90
648.2634, 18741.82
648.7455, 18733.41
649.2277, 18772.78
649.7098, 18803.63
650.1919, 18792.85
650.6740, 18762.43
651.1561, 18743.95
651.6382, 18741.37
652.1204, 18733.79
652.6025, 18710.62
653.0846, 18684.27
653.5667, 18659.46
654.0488, 18639.74
654.5309, 18632.92
655.0131, 18641.44
655.4952, 18654.80
655.9773, 18659.31
656.4594, 18655.33
656.9415, 18655.00
657.4236, 18661.58
657.9058, 18662.09
658.3879, 18649.16
658.8700, 18629.07
659.3521, 18603.84
659.8342, 18570.87
660.3163, 18567.15
660.7985, 18640.90
661.2806, 18704.96
661.7627, 18697.85
662.2448, 18647.75
662.7269, 18597.90
663.2090, 18562.37
663.6912, 18538.68
664.1733, 18523.80
664.6554, 18518.52
665.1375, 18530.70
665.6196, 18565.32
666.1017, 18590.21
666.5839, 18596.16
667.0660, 18587.46
667.5481, 18558.30
668.0302, 18509.77
668.5123, 18492.62
668.9944, 18545.19
669.4766, 18589.23
669.9587, 18580.25
670.4408, 18554.19
670.9229, 18560.76
671.4050, 18600.99
671.8871, 18630.15
672.3693, 18607.11
672.8514, 18559.50
673.3335, 18556.32
673.8156, 18597.43
674.2977, 18629.84
674.7798, 18639.39
675.2620, 18644.18
675.7441, 18661.21
676.2262, 18688.85
676.7083, 18708.37
677.1904, 18716.66
677.6725, 18721.85
678.1547, 18723.63
678.6368, 18724.00
679.1189, 18723.68
679.6010, 18723.34
680.0831, 18724.16
680.5652, 18726.72
681.0474, 18730.70
681.5295, 18735.61
682.0116, 18741.53
682.4937, 18749.40
682.9758, 18759.46
683.4579, 18768.83
683.9401, 18774.81
684.4222, 18779.55
684.9043, 18790.12
685.3864, 18812.95
685.8685, 18829.46
686.3506, 18826.07
686.8328, 18831.12
687.3149, 18863.35
687.7970, 18911.59
688.2791, 18958.39
688.7612, 18999.58
689.2433, 19032.45
689.7255, 19048.81
690.2076, 19058.56
690.6897, 19080.81
691.1718, 19113.51
691.6539, 19140.23
692.1360, 19153.59
692.6182, 19156.11
693.1003, 19147.49
693.5824, 19122.74
694.0645, 19130.88
694.5466, 19209.59
695.0287, 19263.02
695.5109, 19248.75
695.9930, 19205.35
696.4751, 19163.53
696.9572, 19126.71
697.4393, 19100.59
697.9214, 19102.05
698.4036, 19100.93
698.8857, 19072.22
699.3678, 19025.38
699.8499, 18974.50
700.3320, 18924.68
700.8141, 18882.81
701.2963, 18858.10
701.7784, 18843.50
702.2605, 18808.25
702.7426, 18746.51
703.2247, 18695.23
703.7068, 18659.64
704.1890, 18639.68
704.6711, 18645.74
705.1532, 18669.77
705.6353, 18673.48
706.1174, 18644.90
706.5995, 18610.93
707.0817, 18578.72
707.5638, 18542.85
708.0459, 18493.52
708.5280, 18436.66
709.0101, 18389.89
709.4922, 18363.25
709.9744, 18339.80
710.4565, 18286.31
710.9386, 18215.86
711.4207, 18190.75
711.9028, 18218.22
712.3849, 18246.74
712.8671, 18251.01
713.3492, 18236.34
713.8313, 18210.64
714.3134, 18165.62
714.7955, 18137.29
715.2776, 18143.51
715.7598, 18144.89
716.2419, 18123.68
716.7240, 18094.28
717.2061, 18077.22
717.6882, 18074.42
718.1703, 18063.00
718.6525, 18018.90
719.1346, 17969.13
719.6167, 17940.03
720.0988, 17928.77
720.5809, 17930.62
721.0630, 17943.17
721.5452, 17956.55
722.0273, 17961.98
722.5094, 17959.76
722.9915, 17951.06
723.4736, 17935.12
723.9557, 17915.56
724.4379, 17893.04
724.9200, 17867.08
725.4021, 17828.36
725.8842, 17785.60
726.3663, 17766.04
726.8484, 17790.89
727.3306, 17805.98
727.8127, 17788.90
728.2948, 17762.43
728.7769, 17744.09
729.2590, 17732.44
729.7411, 17716.12
730.2233, 17689.80
730.7054, 17671.01
731.1875, 17689.57
731.6696, 17732.58
732.1517, 17754.48
732.6339, 17753.16
733.1160, 17738.45
733.5981, 17712.40
734.0802, 17681.39
734.5623, 17653.43
735.0444, 17626.87
735.5266, 17616.23
736.0087, 17640.19
736.4908, 17655.42
736.9729, 17645.93
737.4550, 17629.90
737.9371, 17620.66
738.4193, 17619.77
738.9014, 17626.68
739.3835, 17648.89
739.8656, 17669.35
740.3477, 17679.97
740.8298, 17679.01
741.3120, 17658.78
741.7941, 17622.16
742.2762, 17585.69
742.7583, 17559.85
743.2404, 17541.61
743.7225, 17520.43
744.2047, 17495.33
744.6868, 17502.91
745.1689, 17559.49
745.6510, 17603.24
746.1331, 17590.08
746.6152, 17550.75
747.0973, 17552.65
747.5794, 17616.94
748.0615, 17650.33
748.5436, 17638.07
749.0258, 17608.78
749.5079, 17558.92
749.9900, 17506.67
750.4721, 17475.08
750.9542, 17465.97
751.4363, 17458.91
751.9185, 17441.02
752.4006, 17418.86
752.8827, 17394.05
753.3648, 17371.97
753.8469, 17372.02
754.3290, 17396.00
754.8112, 17416.75
755.2933, 17411.67
755.7754, 17390.23
756.2575, 17385.41
756.7396, 17404.30
757.2217, 17405.21
757.7039, 17378.63
758.1860, 17343.14
758.6681, 17297.35
759.1502, 17254.15
759.6323, 17243.63
760.1144, 17279.92
760.5966, 17301.75
761.0787, 17296.92
761.5608, 17278.28
762.0429, 17239.80
762.5250, 17198.01
763.0071, 17175.60
763.4893, 17176.58
763.9714, 17187.26
764.4535, 17200.59
764.9356, 17215.05
765.4177, 17232.42
765.8998, 17249.14
766.3820, 17251.34
766.8641, 17236.06
767.3462, 17212.36
767.8283, 17186.33
768.3104, 17159.60
768.7925, 17136.97
769.2747, 17118.13
769.7568, 17105.45
770.2389, 17101.69
770.7210, 17100.15
771.2031, 17093.08
771.6852, 17087.18
772.1674, 17098.09
772.6495, 17133.97
773.1316, 17155.62
773.6137, 17143.08
774.0958, 17128.35
774.5779, 17137.33
775.0601, 17150.86
775.5422, 17134.39
776.0243, 17086.20
776.5064, 17047.00
776.9885, 17055.99
777.4706, 17080.06
777.9528, 17065.86
778.4349, 17026.89
778.9170, 17008.79
779.3991, 17019.27
779.8812, 17028.96
780.3633, 17015.85
780.8455, 16988.40
781.3276, 16968.68
781.8097, 16956.94
782.2918, 16953.09
782.7739, 16961.29
783.2560, 16968.96
783.7382, 16965.43
784.2203, 16960.01
784.7024, 16974.62
785.1845, 17017.34
785.6666, 17030.03
786.1487, 16980.40
786.6309, 16930.80
787.1130, 16894.22
787.5951, 16878.78
788.0772, 16905.03
788.5593, 16964.34
789.0414, 17009.69
789.5236, 17009.61
790.0057, 16994.24
790.4878, 17002.02
790.9699, 17015.30
791.4520, 16989.22
791.9341, 16925.78
792.4163, 16873.22
792.8984, 16859.00
793.3805, 16865.05
793.8626, 16855.99
794.3447, 16830.77
794.8268, 16830.76
795.3090, 16861.74
795.7911, 16898.64
796.2732, 16940.44
796.7553, 16971.48
797.2374, 16968.58
797.7195, 16929.77
798.2017, 16894.51
798.6838, 16857.59
799.1659, 16831.22
799.6480, 16813.95
800.1301, 16810.80
800.6122, 16834.06
801.0944, 16873.92
801.5765, 16904.76
802.0586, 16917.82
802.5407, 16922.94
803.0228, 16926.63
803.5049, 16925.06
803.9871, 16902.23
804.4692, 16871.82
804.9513, 16872.46
805.4334, 16915.71
805.9155, 16968.54
806.3976, 17000.16
806.8798, 17012.23
807.3619, 17007.48
807.8440, 16986.43
808.3261, 16949.66
808.8082, 16890.92
809.2903, 16866.81
809.7725, 16937.38
810.2546, 17069.46
810.7367, 17122.29
811.2188, 17051.11
811.7009, 17014.80
812.1830, 17054.55
812.6652, 17083.88
813.1473, 17046.91
813.6294, 16983.22
814.1115, 16949.03
814.5936, 16951.18
815.0757, 16947.98
815.5579, 16921.51
816.0400, 16898.78
816.5221, 16897.63
817.0042, 16903.65
817.4863, 16898.26
817.9684, 16882.38
818.4506, 16870.46
818.9327, 16867.37
819.4148, 16877.78
819.8969, 16927.91
820.3790, 16986.18
820.8611, 16987.11
821.3433, 16933.37
821.8254, 16862.58
822.3075, 16791.70
822.7896, 16741.08
823.2717, 16747.47
823.7538, 16802.80
824.2360, 16831.12
824.7181, 16830.58
825.2002, 16819.35
825.6823, 16802.43
826.1644, 16774.44
826.6465, 16724.08
827.1287, 16658.22
827.6108, 16621.90
828.0929, 16629.43
828.5750, 16640.52
829.0571, 16659.69
829.5392, 16675.70
830.0214, 16686.65
830.5035, 16689.97
830.9856, 16677.57
831.4677, 16646.26
831.9498, 16625.88
832.4319, 16630.82
832.9141, 16642.96
833.3962, 16661.20
833.8783, 16675.59
834.3604, 16670.73
834.8425, 16649.17
835.3246, 16629.83
835.8068, 16624.06
836.2889, 16621.66
836.7710, 16617.76
837.2531, 16606.81
837.7352, 16561.00
838.2173, 16492.20
838.6995, 16469.57
839.1816, 16522.89
839.6637, 16602.74
840.1458, 16651.37
840.6279, 16670.56
841.1100, 16663.92
841.5922, 16627.30
842.0743, 16620.99
842.5564, 16668.74
843.0385, 16716.70
843.5206, 16721.30
844.0027, 16690.75
844.4849, 16655.00
844.9670, 16599.79
845.4491, 16571.14
845.9312, 16596.05
846.4133, 16613.83
846.8954, 16580.91
847.3776, 16539.50
847.8597, 16546.70
848.3418, 16606.03
848.8239, 16655.83
849.3060, 16694.88
849.7881, 16709.04
850.2703, 16669.37
850.7524, 16620.72
851.2345, 16603.26
851.7166, 16614.42
852.1987, 16635.63
852.6808, 16662.02
853.1630, 16685.30
853.6451, 16701.87
854.1272, 16710.06
854.6093, 16705.40
855.0914, 16691.08
855.5735, 16670.93
856.0557, 16648.13
856.5378, 16637.89
857.0199, 16661.51
857.5020, 16693.17
857.9841, 16660.53
858.4662, 16578.48
858.9484, 16543.40
859.4305, 16568.67
859.9126, 16616.30
860.3947, 16667.91
860.8768, 16717.16
861.3589, 16754.78
861.8411, 16781.35
862.3232, 16784.11
862.8053, 16754.89
863.2874, 16727.16
863.7695, 16712.38
864.2516, 16698.09
864.7338, 16666.07
865.2159, 16622.75
865.6980, 16609.60
866.1801, 16650.95
866.6622, 16685.39
867.1443, 16715.44
867.6265, 16735.76
868.1086, 16741.80
868.5907, 16737.77
869.0728, 16728.78
869.5549, 16715.39
870.0370, 16698.20
870.5192, 16669.11
871.0013, 16646.26
871.4834, 16648.72
871.9655, 16654.06
872.4476, 16637.24
872.9297, 16601.98
873.4119, 16563.98
873.8940, 16526.93
874.3761, 16505.04
874.8582, 16520.59
875.3403, 16550.02
875.8224, 16569.20
876.3046, 16575.20
876.7867, 16558.92
877.2688, 16521.73
877.7509, 16487.97
878.2330, 16476.87
878.7151, 16481.46
879.1973, 16492.45
879.6794, 16507.83
880.1615, 16519.46
880.6436, 16526.18
881.1257, 16523.57
881.6078, 16509.18
882.0900, 16485.90
882.5721, 16454.36
883.0542, 16416.29
883.5363, 16401.58
884.0184, 16415.42
884.5005, 16424.03
884.9827, 16418.68
885.4648, 16411.48
885.9469, 16413.02
886.4290, 16418.46
886.9111, 16414.10
887.3932, 16402.64
887.8754, 16372.33
888.3575, 16294.38
888.8396, 16238.50
889.3217, 16240.41
889.8038, 16265.63
890.2859, 16289.34
890.7681, 16309.48
891.2502, 16313.55
891.7323, 16276.54
892.2144, 16257.59
892.6965, 16285.55
893.1786, 16315.78
893.6608, 16329.02
894.1429, 16322.04
894.6250, 16280.04
895.1071, 16201.58
895.5892, 16156.00
896.0714, 16208.72
896.5535, 16263.61
897.0356, 16249.94
897.5177, 16212.19
897.9998, 16205.56
898.4819, 16226.55
898.9641, 16241.19
899.4462, 16234.71
899.9283, 16222.10
900.4104, 16212.05
900.8925, 16206.93
901.3746, 16215.61
901.8568, 16230.90
902.3389, 16231.20
902.8210, 16214.73
903.3031, 16203.86
903.7852, 16214.69
904.2673, 16240.38
904.7495, 16285.49
905.2316, 16335.16
905.7137, 16313.63
906.1958, 16226.96
906.6779, 16188.63
907.1600, 16244.36
907.6422, 16324.79
908.1243, 16353.94
908.6064, 16340.84
909.0885, 16315.95
909.5706, 16277.37
910.0527, 16280.77
910.5349, 16343.24
911.0170, 16388.55
911.4991, 16366.44
911.9812, 16318.96
912.4633, 16325.26
912.9454, 16391.78
913.4276, 16411.39
913.9097, 16361.21
914.3918, 16328.75
914.8739, 16343.37
915.3560, 16363.45
915.8381, 16355.42
916.3203, 16329.05
916.8024, 16314.30
917.2845, 16313.00
917.7666, 16318.41
918.2487, 16332.60
918.7308, 16350.90
919.2130, 16380.11
919.6951, 16406.52
920.1772, 16421.34
920.6593, 16423.07
921.1414, 16404.24
921.6235, 16331.59
922.1057, 16294.49
922.5878, 16349.73
923.0699, 16397.76
923.5520, 16374.58
924.0341, 16316.53
924.5162, 16266.69
924.9984, 16232.67
925.4805, 16225.17
925.9626, 16285.45
926.4447, 16324.28
926.9268, 16282.51
927.4089, 16219.83
927.8911, 16174.52
928.3732, 16154.50
928.8553, 16173.47
929.3374, 16233.33
929.8195, 16280.41
930.3016, 16286.29
930.7838, 16261.67
931.2659, 16189.25
931.7480, 16107.83
932.2301, 16071.23
932.7122, 16076.92
933.1943, 16096.77
933.6765, 16119.74
934.1586, 16129.23
934.6407, 16101.58
935.1228, 16057.21
935.6049, 16016.30
936.0870, 15984.50
936.5692, 15978.58
937.0513, 15996.67
937.5334, 16014.11
938.0155, 16016.04
938.4976, 16010.50
938.9797, 16013.07
939.4619, 16015.19
939.9440, 15985.72
940.4261, 15933.37
940.9082, 15905.75
941.3903, 15914.11
941.8724, 15922.64
942.3546, 15898.56
942.8367, 15870.12
943.3188, 15919.33
943.8009, 16023.83
944.2830, 16037.16
944.7651, 15954.73
945.2472, 15873.03
945.7293, 15826.44
946.2114, 15808.03
946.6935, 15815.42
947.1757, 15838.83
947.6578, 15841.31
948.1399, 15822.53
948.6220, 15806.88
949.1041, 15796.33
949.5862, 15793.63
950.0684, 15801.55
950.5505, 15811.97
951.0326, 15814.47
951.5147, 15809.73
951.9968, 15803.78
952.4789, 15796.00
952.9611, 15789.72
953.4432, 15784.05
953.9253, 15785.34
954.4074, 15800.09
954.8895, 15818.21
955.3716, 15822.85
955.8538, 15813.60
956.3359, 15807.84
956.8180, 15805.87
957.3001, 15808.48
957.7822, 15824.92
958.2643, 15827.56
958.7465, 15792.84
959.2286, 15737.67
959.7107, 15690.72
960.1928, 15645.20
960.6749, 15655.82
961.1570, 15778.72
961.6392, 15852.58
962.1213, 15827.83
962.6034, 15767.37
963.0855, 15696.58
963.5676, 15627.45
964.0497, 15594.13
964.5319, 15609.25
965.0140, 15615.74
965.4961, 15614.80
965.9782, 15603.62
966.4603, 15562.76
966.9424, 15528.48
967.4246, 15535.97
967.9067, 15571.19
968.3888, 15591.99
968.8709, 15590.56
969.3530, 15592.83
969.8351, 15609.35
970.3173, 15618.12
970.7994, 15602.23
971.2815, 15584.34
971.7636, 15584.57
972.2457, 15600.04
972.7278, 15618.80
973.2100, 15645.72
973.6921, 15660.32
974.1742, 15650.62
974.6563, 15638.96
975.1384, 15632.41
975.6205, 15629.66
976.1027, 15631.76
976.5848, 15636.57
977.0669, 15635.39
977.5490, 15622.59
978.0311, 15613.64
978.5132, 15612.83
978.9954, 15615.73
979.4775, 15617.94
979.9596, 15624.24
980.4417, 15647.28
980.9238, 15681.24
981.4059, 15695.55
981.8881, 15673.34
982.3702, 15652.48
982.8523, 15647.64
983.3344, 15643.30
983.8165, 15632.83
984.2986, 15616.30
984.7808, 15587.73
985.2629, 15552.02
985.7450, 15533.54
986.2271, 15541.93
986.7092, 15563.07
987.1913, 15614.48
987.6735, 15652.88
988.1556, 15643.99
988.6377, 15608.92
989.1198, 15571.09
989.6019, 15535.54
990.0840, 15504.87
990.5662, 15470.77
991.0483, 15460.84
991.5304, 15519.79
992.0125, 15572.31
992.4946, 15555.58
992.9767, 15505.29
993.4589, 15471.24
993.9410, 15459.02
994.4231, 15451.92
994.9052, 15453.01
995.3873, 15439.66
995.8694, 15382.91
996.3516, 15327.28
996.8337, 15315.73
997.3158, 15320.34
997.7979, 15292.44
998.2800, 15233.32
998.7621, 15195.32
999.2443, 15212.50
999.7264, 15222.85
1000.208, 15177.73
1000.691, 15134.78
1001.173, 15135.20
1001.655, 15166.23
1002.137, 15222.49
1002.619, 15291.67
1003.101, 15323.68
1003.583, 15293.14
1004.065, 15238.00
1004.548, 15132.15
1005.030, 15053.87
1005.512, 15094.40
1005.994, 15180.25
1006.476, 15208.66
1006.958, 15172.51
1007.440, 15126.61
1007.922, 15082.28
1008.404, 15050.75
1008.887, 15035.92
1009.369, 15036.72
1009.851, 15068.28
1010.333, 15105.21
1010.815, 15112.68
1011.297, 15091.23
1011.779, 15065.61
1012.261, 15034.36
1012.744, 15024.32
1013.226, 15083.00
1013.708, 15127.38
1014.190, 15083.95
1014.672, 15006.54
1015.154, 14964.88
1015.636, 14959.20
1016.118, 14946.12
1016.600, 14906.93
1017.083, 14875.58
1017.565, 14871.62
1018.047, 14871.33
1018.529, 14861.64
1019.011, 14847.25
1019.493, 14831.84
1019.975, 14817.49
1020.457, 14809.96
1020.940, 14814.55
1021.422, 14813.69
1021.904, 14799.80
1022.386, 14781.44
1022.868, 14754.66
1023.350, 14731.95
1023.832, 14728.91
1024.314, 14741.06
1024.797, 14754.30
1025.279, 14774.60
1025.761, 14764.05
1026.243, 14660.69
1026.725, 14590.65
1027.207, 14651.51
1027.689, 14730.17
1028.171, 14712.96
1028.653, 14630.11
1029.135, 14586.37
1029.618, 14607.32
1030.100, 14616.83
1030.582, 14584.43
1031.064, 14562.02
1031.546, 14573.92
1032.028, 14594.43
1032.510, 14612.33
1032.992, 14621.38
1033.475, 14604.97
1033.957, 14553.85
1034.439, 14522.30
1034.921, 14536.62
1035.403, 14539.99
1035.885, 14510.12
1036.367, 14476.46
1036.849, 14451.74
1037.332, 14438.27
1037.814, 14440.60
1038.296, 14459.70
1038.778, 14488.18
1039.260, 14549.22
1039.742, 14582.01
1040.224, 14563.26
1040.706, 14535.79
1041.188, 14519.83
1041.671, 14509.48
1042.153, 14497.31
1042.635, 14483.38
1043.117, 14462.20
1043.599, 14423.80
1044.081, 14401.30
1044.563, 14407.12
1045.045, 14410.62
1045.527, 14397.84
1046.010, 14376.27
1046.492, 14351.23
1046.974, 14325.15
1047.456, 14321.05
1047.938, 14348.30
1048.420, 14363.67
1048.902, 14362.67
1049.384, 14355.57
1049.866, 14343.05
1050.349, 14333.54
1050.831, 14335.76
1051.313, 14347.46
1051.795, 14363.31
1052.277, 14386.01
1052.759, 14387.19
1053.241, 14362.43
1053.723, 14344.23
1054.206, 14345.27
1054.688, 14332.67
1055.170, 14275.10
1055.652, 14200.29
1056.134, 14171.23
1056.616, 14186.49
1057.098, 14213.17
1057.580, 14250.90
1058.063, 14269.87
1058.545, 14263.49
1059.027, 14262.15
1059.509, 14286.78
1059.991, 14310.76
1060.473, 14284.37
1060.955, 14224.84
1061.437, 14206.36
1061.919, 14219.28
1062.401, 14206.39
1062.884, 14163.51
1063.366, 14130.58
1063.848, 14126.26
1064.330, 14137.26
1064.812, 14156.96
1065.294, 14172.99
1065.776, 14149.13
1066.258, 14106.45
1066.741, 14103.72
1067.223, 14133.98
1067.705, 14149.87
1068.187, 14136.52
1068.669, 14115.58
1069.151, 14102.95
1069.633, 14092.09
1070.115, 14069.90
1070.598, 14048.63
1071.080, 14053.47
1071.562, 14071.05
1072.044, 14067.61
1072.526, 14041.11
1073.008, 14022.55
1073.490, 14029.72
1073.972, 14041.04
1074.454, 14049.73
1074.937, 14046.96
1075.419, 14012.53
1075.901, 13969.96
1076.383, 13947.73
1076.865, 13947.52
1077.347, 13961.33
1077.829, 13989.42
1078.311, 14015.00
1078.793, 14050.47
1079.276, 14057.25
1079.758, 13984.53
1080.240, 13904.16
1080.722, 13877.09
1081.204, 13891.47
1081.686, 13923.89
1082.168, 13974.92
1082.650, 13990.54
1083.133, 13928.79
1083.615, 13880.62
1084.097, 13855.14
1084.579, 13856.10
1085.061, 13917.70
1085.543, 13986.35
1086.025, 13985.39
1086.507, 13921.53
1086.990, 13875.19
1087.472, 13846.59
1087.954, 13836.40
1088.436, 13854.60
1088.918, 13870.41
1089.400, 13874.33
1089.882, 13870.56
1090.364, 13861.75
1090.846, 13849.30
1091.328, 13836.39
1091.811, 13821.75
1092.293, 13818.46
1092.775, 13828.06
1093.257, 13839.89
1093.739, 13853.18
1094.221, 13854.37
1094.703, 13833.22
1095.185, 13803.98
1095.668, 13787.01
1096.150, 13782.11
1096.632, 13792.86
1097.114, 13816.34
1097.596, 13835.22
1098.078, 13846.20
1098.560, 13842.15
1099.042, 13820.49
1099.525, 13790.79
1100.007, 13758.61
1100.489, 13730.83
1100.971, 13722.03
1101.453, 13723.99
1101.935, 13725.24
1102.417, 13721.39
1102.899, 13694.64
1103.381, 13650.06
1103.864, 13636.47
1104.346, 13689.12
1104.828, 13737.06
1105.310, 13704.71
1105.792, 13658.47
1106.274, 13664.60
1106.756, 13692.06
1107.238, 13700.42
1107.720, 13689.55
1108.203, 13672.63
1108.685, 13652.28
1109.167, 13640.55
1109.649, 13644.55
1110.131, 13654.57
1110.613, 13678.38
1111.095, 13695.06
1111.577, 13675.01
1112.060, 13646.75
1112.542, 13664.55
1113.024, 13727.02
1113.506, 13747.54
1113.988, 13686.61
1114.470, 13641.13
1114.952, 13615.76
1115.434, 13599.60
1115.917, 13590.28
1116.399, 13587.50
1116.881, 13592.22
1117.363, 13602.44
1117.845, 13615.02
1118.327, 13632.19
1118.809, 13621.83
1119.291, 13576.39
1119.773, 13558.34
1120.255, 13582.59
1120.738, 13609.37
1121.220, 13618.28
1121.702, 13612.31
1122.184, 13592.80
1122.666, 13564.24
1123.148, 13535.58
1123.630, 13510.43
1124.112, 13514.28
1124.595, 13540.27
1125.077, 13536.51
1125.559, 13492.40
1126.041, 13459.07
1126.523, 13473.93
1127.005, 13504.79
1127.487, 13510.33
1127.969, 13512.47
1128.452, 13564.93
1128.934, 13622.14
1129.416, 13581.95
1129.898, 13471.51
1130.380, 13417.28
1130.862, 13462.06
1131.344, 13507.42
1131.826, 13493.70
1132.308, 13479.24
1132.791, 13510.19
1133.273, 13533.98
1133.755, 13489.35
1134.237, 13423.44
1134.719, 13415.39
1135.201, 13464.26
1135.683, 13493.57
1136.165, 13489.45
1136.647, 13477.10
1137.130, 13450.05
1137.612, 13426.05
1138.094, 13404.46
1138.576, 13397.54
1139.058, 13425.99
1139.540, 13461.59
1140.022, 13435.78
1140.504, 13348.50
1140.987, 13337.77
1141.469, 13414.01
1141.951, 13455.64
1142.433, 13445.45
1142.915, 13423.81
1143.397, 13407.46
1143.879, 13392.01
1144.361, 13370.67
1144.844, 13353.94
1145.326, 13369.86
1145.808, 13405.45
1146.290, 13425.19
1146.772, 13431.82
1147.254, 13440.53
1147.736, 13452.96
1148.218, 13460.61
1148.700, 13459.43
1149.182, 13452.77
1149.665, 13449.23
1150.147, 13434.55
1150.629, 13370.58
1151.111, 13311.77
1151.593, 13339.42
1152.075, 13405.59
1152.557, 13408.34
1153.039, 13339.94
1153.522, 13291.32
1154.004, 13288.40
1154.486, 13300.63
1154.968, 13348.70
1155.450, 13377.00
1155.932, 13335.20
1156.414, 13297.10
1156.896, 13332.30
1157.379, 13401.66
1157.861, 13415.94
1158.343, 13371.78
1158.825, 13346.33
1159.307, 13342.57
1159.789, 13340.77
1160.271, 13338.67
1160.753, 13337.45
1161.235, 13337.59
1161.718, 13339.23
1162.200, 13343.30
1162.682, 13346.50
1163.164, 13340.90
1163.646, 13329.08
1164.128, 13317.60
1164.610, 13307.19
1165.092, 13299.92
1165.574, 13295.28
1166.057, 13289.94
1166.539, 13282.51
1167.021, 13273.05
1167.503, 13258.75
1167.985, 13245.98
1168.467, 13242.77
1168.949, 13240.38
1169.431, 13221.27
1169.914, 13202.58
1170.396, 13220.93
1170.878, 13269.45
1171.360, 13288.30
1171.842, 13249.08
1172.324, 13228.34
1172.806, 13251.91
1173.288, 13269.14
1173.771, 13261.80
1174.253, 13258.12
1174.735, 13282.15
1175.217, 13308.55
1175.699, 13294.06
1176.181, 13248.03
1176.663, 13246.95
1177.145, 13293.35
1177.627, 13311.48
1178.109, 13296.74
1178.592, 13261.58
1179.074, 13211.07
1179.556, 13175.08
1180.038, 13173.24
1180.520, 13196.82
1181.002, 13259.45
1181.484, 13320.15
1181.966, 13293.36
1182.449, 13227.25
1182.931, 13198.08
1183.413, 13205.77
1183.895, 13237.11
1184.377, 13281.77
1184.859, 13296.89
1185.341, 13248.49
1185.823, 13205.10
1186.306, 13198.96
1186.788, 13198.05
1187.270, 13187.54
1187.752, 13174.72
1188.234, 13165.92
1188.716, 13160.02
1189.198, 13153.87
1189.680, 13147.32
1190.162, 13147.03
1190.645, 13154.14
1191.127, 13164.03
1191.609, 13177.88
1192.091, 13187.50
1192.573, 13190.99
1193.055, 13178.26
1193.537, 13137.96
1194.019, 13093.97
1194.501, 13090.43
1194.984, 13115.13
1195.466, 13147.11
1195.948, 13175.30
1196.430, 13157.44
1196.912, 13109.93
1197.394, 13104.04
1197.876, 13153.39
1198.358, 13185.32
1198.841, 13150.07
1199.323, 13113.39
1199.805, 13117.02
1200.287, 13126.07
1200.769, 13117.21
1201.251, 13104.63
1201.733, 13104.47
1202.215, 13111.88
1202.698, 13111.34
1203.180, 13101.79
1203.662, 13105.79
1204.144, 13132.48
1204.626, 13143.34
1205.108, 13129.13
1205.590, 13129.45
1206.072, 13161.86
1206.554, 13183.87
1207.036, 13161.03
1207.519, 13116.82
1208.001, 13079.15
1208.483, 13058.59
1208.965, 13119.74
1209.447, 13214.68
1209.929, 13193.36
1210.411, 13083.87
1210.893, 13023.19
1211.376, 13043.19
1211.858, 13079.82
1212.340, 13107.13
1212.822, 13122.56
1213.304, 13115.72
1213.786, 13107.76
1214.268, 13125.05
1214.750, 13132.91
1215.233, 13076.39
1215.715, 13000.38
1216.197, 12998.60
1216.679, 13066.38
1217.161, 13109.45
1217.643, 13132.16
1218.125, 13104.93
1218.607, 13010.68
1219.089, 12956.74
1219.572, 12973.04
1220.054, 13021.88
1220.536, 13083.07
1221.018, 13136.47
1221.500, 13160.22
1221.982, 13152.84
1222.464, 13080.29
1222.946, 12992.11
1223.428, 13003.42
1223.911, 13075.09
1224.393, 13097.67
1224.875, 13063.97
1225.357, 13049.75
1225.839, 13088.30
1226.321, 13106.08
1226.803, 13051.25
1227.285, 13002.25
1227.768, 12987.62
1228.250, 12985.45
1228.732, 12990.11
1229.214, 12992.73
1229.696, 12979.02
1230.178, 12958.32
1230.660, 12967.54
1231.142, 13010.28
1231.625, 13029.14
1232.107, 13024.17
1232.589, 13004.63
1233.071, 12973.88
1233.553, 12959.59
1234.035, 12971.54
1234.517, 12975.60
1234.999, 12938.91
1235.481, 12897.56
##END=



