##NAMES=Pumpellyite-(Al)
##RRUFFID=R070131
##IDEAL CHEMISTRY=Ca_2_Al_3_(SiO_4_)(Si_2_O_7_)(OH,O)_2_&#183;H_2_O
##LOCALITY=La Fl√®che Quarry, Bertrix, Luxembourg Province, Belgium
##OWNER=RRUFF
##SOURCE=Michael Scott
##DESCRIPTION=Pale green radiating fibrous to bladed crystals
##STATUS=The identification of this mineral has been confirmed only by single crystal X-ray diffraction.
##URL=rruff.info/R070131
148.2532, 6279.741
148.7353, 6372.790
149.2174, 6464.963
149.6995, 6546.702
150.1817, 6610.535
150.6638, 6672.719
151.1459, 6737.788
151.6280, 6807.101
152.1101, 6864.991
152.5922, 6904.567
153.0744, 6934.581
153.5565, 6964.083
154.0386, 7000.020
154.5207, 7029.843
155.0028, 7049.690
155.4849, 7058.016
155.9671, 7061.332
156.4492, 7057.587
156.9313, 7050.067
157.4134, 7043.711
157.8955, 7033.847
158.3777, 7029.718
158.8598, 7036.554
159.3419, 7059.339
159.8240, 7083.932
160.3061, 7105.352
160.7882, 7125.305
161.2704, 7147.938
161.7525, 7179.142
162.2346, 7211.046
162.7167, 7238.102
163.1988, 7256.875
163.6809, 7273.944
164.1631, 7288.653
164.6452, 7302.908
165.1273, 7325.444
165.6094, 7379.422
166.0915, 7436.283
166.5736, 7467.864
167.0558, 7439.213
167.5379, 7403.850
168.0200, 7399.559
168.5021, 7424.398
168.9842, 7452.890
169.4663, 7468.104
169.9485, 7476.702
170.4306, 7488.299
170.9127, 7520.741
171.3948, 7550.009
171.8769, 7545.508
172.3590, 7504.580
172.8412, 7465.266
173.3233, 7463.259
173.8054, 7486.522
174.2875, 7509.878
174.7696, 7522.839
175.2517, 7528.437
175.7339, 7528.555
176.2160, 7521.838
176.6981, 7516.943
177.1802, 7527.828
177.6623, 7549.700
178.1444, 7565.239
178.6266, 7562.503
179.1087, 7547.153
179.5908, 7527.604
180.0729, 7501.716
180.5550, 7479.915
181.0371, 7477.702
181.5193, 7493.571
182.0014, 7517.051
182.4835, 7547.921
182.9656, 7581.719
183.4477, 7605.074
183.9298, 7612.249
184.4120, 7612.222
184.8941, 7622.222
185.3762, 7642.056
185.8583, 7660.340
186.3404, 7663.521
186.8225, 7655.562
187.3047, 7657.608
187.7868, 7677.793
188.2689, 7708.828
188.7510, 7733.388
189.2331, 7751.261
189.7152, 7764.341
190.1974, 7772.085
190.6795, 7775.001
191.1616, 7779.760
191.6437, 7789.753
192.1258, 7802.963
192.6080, 7808.234
193.0901, 7803.515
193.5722, 7800.732
194.0543, 7815.524
194.5364, 7847.972
195.0185, 7881.384
195.5007, 7912.284
195.9828, 7940.187
196.4649, 7957.188
196.9470, 7960.718
197.4291, 7960.832
197.9112, 7971.857
198.3934, 7994.805
198.8755, 8019.604
199.3576, 8041.939
199.8397, 8061.729
200.3218, 8085.437
200.8039, 8114.187
201.2861, 8145.035
201.7682, 8173.530
202.2503, 8199.671
202.7324, 8223.460
203.2145, 8243.779
203.6966, 8259.872
204.1788, 8278.783
204.6609, 8300.495
205.1430, 8324.907
205.6251, 8351.659
206.1072, 8380.720
206.5893, 8412.216
207.0715, 8446.913
207.5536, 8485.146
208.0357, 8523.419
208.5178, 8562.646
208.9999, 8601.142
209.4820, 8634.002
209.9642, 8658.158
210.4463, 8684.173
210.9284, 8718.145
211.4105, 8760.757
211.8926, 8808.994
212.3747, 8868.938
212.8569, 8933.019
213.3390, 8970.463
213.8211, 8967.343
214.3032, 8964.029
214.7853, 8992.275
215.2674, 9069.502
215.7496, 9121.960
216.2317, 9132.524
216.7138, 9110.616
217.1959, 9113.084
217.6780, 9151.568
218.1601, 9195.832
218.6423, 9222.075
219.1244, 9221.166
219.6065, 9226.753
220.0886, 9246.449
220.5707, 9278.397
221.0528, 9299.813
221.5350, 9307.354
222.0171, 9309.441
222.4992, 9311.214
222.9813, 9307.768
223.4634, 9315.846
223.9455, 9342.593
224.4277, 9387.429
224.9098, 9420.975
225.3919, 9443.641
225.8740, 9455.342
226.3561, 9453.870
226.8382, 9429.549
227.3204, 9412.076
227.8025, 9409.240
228.2846, 9421.419
228.7667, 9429.172
229.2488, 9433.173
229.7310, 9431.913
230.2131, 9423.281
230.6952, 9404.513
231.1773, 9383.430
231.6594, 9358.909
232.1415, 9330.053
232.6237, 9312.720
233.1058, 9312.645
233.5879, 9318.933
234.0700, 9319.474
234.5521, 9310.879
235.0342, 9302.728
235.5164, 9297.312
235.9985, 9294.952
236.4806, 9292.795
236.9627, 9292.064
237.4448, 9290.562
237.9269, 9285.561
238.4091, 9276.184
238.8912, 9264.621
239.3733, 9249.205
239.8554, 9227.638
240.3375, 9218.392
240.8196, 9231.458
241.3018, 9249.317
241.7839, 9247.014
242.2660, 9209.118
242.7481, 9178.246
243.2302, 9167.726
243.7123, 9182.151
244.1945, 9191.622
244.6766, 9195.204
245.1587, 9194.490
245.6408, 9191.608
246.1229, 9186.383
246.6050, 9179.292
247.0872, 9170.387
247.5693, 9159.565
248.0514, 9146.429
248.5335, 9125.533
249.0156, 9106.108
249.4977, 9104.104
249.9799, 9130.612
250.4620, 9153.790
250.9441, 9162.498
251.4262, 9152.553
251.9083, 9149.035
252.3904, 9157.297
252.8726, 9168.107
253.3547, 9163.791
253.8368, 9129.371
254.3189, 9108.912
254.8010, 9120.230
255.2831, 9172.162
255.7653, 9212.718
256.2474, 9240.338
256.7295, 9257.472
257.2116, 9264.643
257.6937, 9253.239
258.1758, 9250.523
258.6580, 9270.052
259.1401, 9319.587
259.6222, 9347.889
260.1043, 9344.582
260.5864, 9328.867
261.0685, 9331.766
261.5507, 9358.632
262.0328, 9391.366
262.5149, 9425.896
262.9970, 9463.521
263.4791, 9496.233
263.9612, 9525.803
264.4434, 9549.040
264.9255, 9556.171
265.4076, 9536.180
265.8897, 9530.938
266.3718, 9557.745
266.8539, 9620.195
267.3361, 9684.020
267.8182, 9751.063
268.3003, 9816.367
268.7824, 9873.578
269.2645, 9922.204
269.7466, 9963.063
270.2288, 9993.097
270.7109, 10010.44
271.1930, 10041.44
271.6751, 10087.40
272.1572, 10145.68
272.6393, 10217.60
273.1215, 10308.25
273.6036, 10389.25
274.0857, 10447.35
274.5678, 10482.22
275.0499, 10521.95
275.5320, 10566.64
276.0142, 10616.81
276.4963, 10678.39
276.9784, 10755.12
277.4605, 10818.94
277.9426, 10853.69
278.4247, 10861.76
278.9069, 10893.05
279.3890, 10954.14
279.8711, 11021.63
280.3532, 11067.13
280.8354, 11089.99
281.3175, 11099.69
281.7996, 11096.52
282.2817, 11081.90
282.7638, 11069.54
283.2459, 11062.80
283.7281, 11046.31
284.2102, 10989.04
284.6923, 10891.65
285.1744, 10815.39
285.6565, 10789.86
286.1386, 10803.03
286.6208, 10805.36
287.1029, 10796.88
287.5850, 10777.06
288.0671, 10732.25
288.5492, 10667.07
289.0313, 10627.65
289.5135, 10642.40
289.9956, 10690.95
290.4777, 10710.18
290.9598, 10698.80
291.4419, 10675.96
291.9240, 10654.18
292.4062, 10635.05
292.8883, 10628.62
293.3704, 10650.18
293.8525, 10679.74
294.3346, 10668.17
294.8167, 10615.24
295.2989, 10556.77
295.7810, 10519.75
296.2631, 10502.45
296.7452, 10500.96
297.2273, 10527.28
297.7094, 10557.40
298.1916, 10548.71
298.6737, 10503.57
299.1558, 10453.07
299.6379, 10414.77
300.1200, 10389.46
300.6021, 10379.02
301.0843, 10389.57
301.5664, 10408.86
302.0485, 10425.27
302.5306, 10438.55
303.0127, 10446.06
303.4948, 10436.81
303.9770, 10423.07
304.4591, 10423.13
304.9412, 10444.36
305.4233, 10476.20
305.9054, 10513.89
306.3875, 10555.21
306.8697, 10592.64
307.3518, 10625.04
307.8339, 10649.36
308.3160, 10660.22
308.7981, 10651.96
309.2802, 10639.67
309.7624, 10629.58
310.2445, 10623.50
310.7266, 10626.61
311.2087, 10643.21
311.6908, 10669.18
312.1729, 10705.24
312.6551, 10760.10
313.1372, 10802.64
313.6193, 10798.81
314.1014, 10770.55
314.5835, 10762.06
315.0656, 10812.56
315.5478, 10873.14
316.0299, 10914.40
316.5120, 10928.74
316.9941, 10937.72
317.4762, 10950.87
317.9583, 10963.37
318.4405, 10968.10
318.9226, 10940.27
319.4047, 10923.04
319.8868, 10941.16
320.3689, 11006.07
320.8510, 11059.50
321.3332, 11084.96
321.8153, 11092.28
322.2974, 11093.73
322.7795, 11092.15
323.2616, 11084.29
323.7437, 11067.35
324.2259, 11039.94
324.7080, 11013.87
325.1901, 10991.38
325.6722, 10970.25
326.1543, 10948.43
326.6364, 10919.40
327.1186, 10896.49
327.6007, 10886.45
328.0828, 10889.70
328.5649, 10880.24
329.0470, 10845.86
329.5291, 10807.46
330.0113, 10779.67
330.4934, 10765.32
330.9755, 10757.03
331.4576, 10755.48
331.9397, 10759.95
332.4218, 10765.08
332.9040, 10768.94
333.3861, 10775.90
333.8682, 10791.39
334.3503, 10826.37
334.8324, 10840.91
335.3145, 10823.77
335.7967, 10786.50
336.2788, 10767.33
336.7609, 10768.96
337.2430, 10782.12
337.7251, 10805.52
338.2072, 10843.24
338.6894, 10867.88
339.1715, 10873.80
339.6536, 10871.74
340.1357, 10884.52
340.6178, 10914.50
341.0999, 10946.77
341.5821, 10973.01
342.0642, 10993.06
342.5463, 11025.81
343.0284, 11076.03
343.5105, 11125.79
343.9926, 11139.05
344.4748, 11117.63
344.9569, 11111.68
345.4390, 11153.82
345.9211, 11228.36
346.4032, 11272.05
346.8853, 11281.82
347.3675, 11287.09
347.8496, 11315.74
348.3317, 11365.17
348.8138, 11427.53
349.2959, 11507.57
349.7780, 11593.53
350.2602, 11670.92
350.7423, 11739.22
351.2244, 11795.79
351.7065, 11828.14
352.1887, 11848.65
352.6708, 11880.35
353.1529, 11934.62
353.6350, 11995.79
354.1171, 12054.13
354.5992, 12108.37
355.0814, 12150.63
355.5635, 12156.84
356.0456, 12157.23
356.5277, 12187.97
357.0098, 12270.68
357.4919, 12352.00
357.9741, 12397.88
358.4562, 12417.30
358.9383, 12431.11
359.4204, 12441.17
359.9025, 12453.61
360.3846, 12472.85
360.8668, 12500.50
361.3489, 12530.80
361.8310, 12564.60
362.3131, 12598.78
362.7952, 12628.90
363.2773, 12648.72
363.7595, 12668.44
364.2416, 12693.00
364.7237, 12723.70
365.2058, 12749.98
365.6879, 12766.41
366.1700, 12779.19
366.6522, 12793.79
367.1343, 12815.60
367.6164, 12833.92
368.0985, 12843.67
368.5806, 12845.58
369.0627, 12857.07
369.5449, 12885.23
370.0270, 12916.94
370.5091, 12944.86
370.9912, 12966.54
371.4733, 12988.58
371.9554, 13009.14
372.4376, 13030.40
372.9197, 13062.82
373.4018, 13117.89
373.8839, 13162.31
374.3660, 13178.90
374.8481, 13162.61
375.3303, 13137.51
375.8124, 13097.25
376.2945, 13055.90
376.7766, 13045.07
377.2587, 13072.28
377.7408, 13086.06
378.2230, 13059.33
378.7051, 12996.41
379.1872, 12950.48
379.6693, 12926.42
380.1514, 12901.47
380.6335, 12838.96
381.1157, 12743.89
381.5978, 12671.17
382.0799, 12647.16
382.5620, 12651.30
383.0441, 12640.23
383.5262, 12613.96
384.0084, 12577.74
384.4905, 12525.12
384.9726, 12465.67
385.4547, 12423.36
385.9368, 12408.16
386.4189, 12401.83
386.9011, 12385.76
387.3832, 12361.31
387.8653, 12333.98
388.3474, 12302.17
388.8295, 12271.41
389.3116, 12248.41
389.7938, 12235.56
390.2759, 12225.85
390.7580, 12215.36
391.2401, 12204.97
391.7222, 12196.09
392.2043, 12190.00
392.6865, 12185.01
393.1686, 12181.98
393.6507, 12181.48
394.1328, 12175.50
394.6149, 12155.39
395.0970, 12131.40
395.5792, 12112.92
396.0613, 12100.65
396.5434, 12095.29
397.0255, 12102.51
397.5076, 12120.23
397.9897, 12128.06
398.4719, 12109.43
398.9540, 12092.00
399.4361, 12089.76
399.9182, 12120.31
400.4003, 12138.82
400.8824, 12140.85
401.3646, 12131.53
401.8467, 12122.39
402.3288, 12111.13
402.8109, 12104.20
403.2930, 12102.50
403.7751, 12104.77
404.2573, 12123.36
404.7394, 12164.60
405.2215, 12212.42
405.7036, 12243.91
406.1857, 12256.88
406.6678, 12271.04
407.1500, 12292.76
407.6321, 12319.91
408.1142, 12344.07
408.5963, 12365.18
409.0784, 12381.96
409.5605, 12385.94
410.0427, 12382.07
410.5248, 12397.06
411.0069, 12441.66
411.4890, 12496.78
411.9711, 12530.75
412.4532, 12547.38
412.9354, 12565.35
413.4175, 12600.26
413.8996, 12641.49
414.3817, 12671.81
414.8638, 12687.19
415.3459, 12704.16
415.8281, 12735.95
416.3102, 12778.31
416.7923, 12824.36
417.2744, 12883.79
417.7565, 12934.98
418.2386, 12958.92
418.7208, 12956.77
419.2029, 12954.96
419.6850, 12965.52
420.1671, 12980.69
420.6492, 12994.23
421.1313, 12995.26
421.6135, 13005.58
422.0956, 13041.92
422.5777, 13093.23
423.0598, 13123.62
423.5420, 13116.07
424.0241, 13097.16
424.5062, 13073.10
424.9883, 13031.38
425.4704, 13018.22
425.9525, 13054.11
426.4347, 13106.29
426.9168, 13130.34
427.3989, 13117.69
427.8810, 13094.19
428.3631, 13063.67
428.8452, 13026.71
429.3274, 12990.10
429.8095, 12953.98
430.2916, 12919.33
430.7737, 12885.36
431.2558, 12851.85
431.7379, 12828.38
432.2201, 12819.81
432.7022, 12817.94
433.1843, 12805.09
433.6664, 12781.63
434.1485, 12754.93
434.6306, 12723.77
435.1128, 12692.81
435.5949, 12674.97
436.0770, 12671.64
436.5591, 12676.87
437.0412, 12693.51
437.5233, 12714.08
438.0055, 12722.09
438.4876, 12693.57
438.9697, 12661.38
439.4518, 12661.75
439.9339, 12690.17
440.4160, 12712.95
440.8982, 12697.74
441.3803, 12675.38
441.8624, 12674.20
442.3445, 12715.33
442.8266, 12752.24
443.3087, 12755.01
443.7909, 12742.39
444.2730, 12753.97
444.7551, 12846.04
445.2372, 12921.05
445.7193, 12934.66
446.2014, 12862.73
446.6836, 12823.04
447.1657, 12834.53
447.6478, 12868.33
448.1299, 12900.51
448.6120, 12942.49
449.0941, 12960.11
449.5763, 12938.06
450.0584, 12886.52
450.5405, 12860.06
451.0226, 12863.77
451.5047, 12879.18
451.9868, 12897.94
452.4690, 12920.55
452.9511, 12940.90
453.4332, 12958.75
453.9153, 12974.15
454.3974, 12983.12
454.8795, 12986.75
455.3617, 12999.27
455.8438, 13041.98
456.3259, 13092.68
456.8080, 13087.68
457.2901, 13028.37
457.7722, 12975.61
458.2544, 12989.94
458.7365, 13042.28
459.2186, 13086.29
459.7007, 13113.65
460.1828, 13125.75
460.6649, 13112.00
461.1471, 13083.00
461.6292, 13065.46
462.1113, 13082.23
462.5934, 13105.97
463.0755, 13119.96
463.5576, 13121.45
464.0398, 13122.63
464.5219, 13125.28
465.0040, 13130.26
465.4861, 13138.41
465.9682, 13151.87
466.4503, 13166.18
466.9325, 13183.13
467.4146, 13201.29
467.8967, 13213.33
468.3788, 13216.91
468.8609, 13217.25
469.3430, 13216.00
469.8252, 13211.79
470.3073, 13210.31
470.7894, 13210.55
471.2715, 13214.87
471.7536, 13227.50
472.2357, 13249.10
472.7179, 13274.05
473.2000, 13303.33
473.6821, 13334.06
474.1642, 13352.05
474.6463, 13356.67
475.1284, 13364.42
475.6106, 13388.69
476.0927, 13426.56
476.5748, 13471.41
477.0569, 13524.83
477.5390, 13577.78
478.0211, 13620.94
478.5033, 13656.03
478.9854, 13687.41
479.4675, 13714.22
479.9496, 13739.88
480.4317, 13765.68
480.9138, 13791.54
481.3960, 13821.22
481.8781, 13853.82
482.3602, 13892.48
482.8423, 13939.37
483.3244, 13997.45
483.8065, 14061.04
484.2887, 14147.89
484.7708, 14240.83
485.2529, 14290.97
485.7350, 14239.60
486.2171, 14211.60
486.6992, 14256.94
487.1814, 14392.58
487.6635, 14484.70
488.1456, 14521.88
488.6277, 14530.78
489.1098, 14532.23
489.5919, 14522.87
490.0741, 14526.30
490.5562, 14549.11
491.0383, 14584.93
491.5204, 14621.21
492.0026, 14658.41
492.4847, 14683.42
492.9668, 14681.87
493.4489, 14662.72
493.9310, 14652.14
494.4131, 14652.70
494.8953, 14649.24
495.3774, 14623.71
495.8595, 14584.12
496.3416, 14546.64
496.8237, 14521.15
497.3058, 14493.70
497.7880, 14443.97
498.2701, 14381.09
498.7522, 14336.78
499.2343, 14354.10
499.7164, 14373.13
500.1985, 14352.26
500.6807, 14266.96
501.1628, 14206.99
501.6449, 14208.68
502.1270, 14234.52
502.6091, 14241.09
503.0912, 14218.71
503.5734, 14188.51
504.0555, 14145.12
504.5376, 14094.85
505.0197, 14072.07
505.5018, 14088.71
505.9839, 14107.29
506.4661, 14107.05
506.9482, 14086.57
507.4303, 14065.30
507.9124, 14043.67
508.3945, 14021.09
508.8766, 13989.51
509.3588, 13952.65
509.8409, 13938.69
510.3230, 13968.41
510.8051, 14015.05
511.2872, 14036.34
511.7693, 14034.25
512.2515, 14021.47
512.7336, 13994.10
513.2157, 13966.44
513.6978, 13954.76
514.1799, 13963.30
514.6620, 13977.96
515.1442, 13991.39
515.6263, 14006.47
516.1084, 14026.62
516.5905, 14054.66
517.0726, 14086.20
517.5547, 14126.56
518.0369, 14172.88
518.5190, 14200.79
519.0011, 14187.93
519.4832, 14178.84
519.9653, 14194.30
520.4474, 14243.37
520.9296, 14285.11
521.4117, 14315.98
521.8938, 14344.67
522.3759, 14384.26
522.8580, 14437.02
523.3401, 14484.19
523.8223, 14521.98
524.3044, 14551.35
524.7865, 14571.39
525.2686, 14582.58
525.7507, 14599.63
526.2328, 14639.49
526.7150, 14689.90
527.1971, 14722.13
527.6792, 14730.90
528.1613, 14750.71
528.6434, 14831.73
529.1255, 14935.76
529.6077, 15010.22
530.0898, 15010.29
530.5719, 15004.77
531.0540, 15027.41
531.5361, 15070.90
532.0182, 15109.56
532.5004, 15134.06
532.9825, 15154.69
533.4646, 15174.23
533.9467, 15191.67
534.4288, 15212.62
534.9109, 15229.95
535.3931, 15257.26
535.8752, 15314.96
536.3573, 15424.48
536.8394, 15493.44
537.3215, 15499.25
537.8036, 15466.67
538.2858, 15459.25
538.7679, 15478.28
539.2500, 15501.33
539.7321, 15515.62
540.2142, 15525.13
540.6964, 15548.81
541.1785, 15587.19
541.6606, 15615.29
542.1427, 15600.96
542.6248, 15563.95
543.1069, 15536.25
543.5891, 15528.68
544.0712, 15525.55
544.5533, 15514.32
545.0354, 15500.10
545.5175, 15492.94
545.9996, 15506.37
546.4818, 15518.24
546.9639, 15521.91
547.4460, 15517.06
547.9281, 15499.90
548.4102, 15454.66
548.8923, 15410.34
549.3745, 15384.27
549.8566, 15388.84
550.3387, 15382.62
550.8208, 15364.76
551.3029, 15336.20
551.7850, 15294.24
552.2672, 15236.38
552.7493, 15187.92
553.2314, 15157.82
553.7135, 15141.43
554.1956, 15133.18
554.6777, 15131.95
555.1599, 15116.31
555.6420, 15053.10
556.1241, 14971.94
556.6062, 14923.87
557.0883, 14918.12
557.5704, 14918.30
558.0526, 14897.00
558.5347, 14866.54
559.0168, 14842.24
559.4989, 14828.09
559.9810, 14822.62
560.4631, 14833.61
560.9453, 14854.50
561.4274, 14863.03
561.9095, 14840.23
562.3916, 14820.04
562.8737, 14810.93
563.3558, 14812.73
563.8380, 14831.11
564.3201, 14877.58
564.8022, 14922.03
565.2843, 14931.85
565.7664, 14902.29
566.2485, 14897.71
566.7307, 14933.49
567.2128, 14981.40
567.6949, 14985.66
568.1770, 14954.80
568.6591, 14937.98
569.1412, 14972.38
569.6234, 15024.00
570.1055, 15040.28
570.5876, 15026.58
571.0697, 15024.16
571.5518, 15074.10
572.0339, 15136.03
572.5161, 15173.92
572.9982, 15173.28
573.4803, 15179.08
573.9624, 15209.87
574.4445, 15252.05
574.9266, 15289.25
575.4088, 15323.15
575.8909, 15347.78
576.3730, 15355.49
576.8551, 15353.91
577.3372, 15372.70
577.8193, 15422.31
578.3015, 15462.20
578.7836, 15466.26
579.2657, 15439.30
579.7478, 15445.80
580.2299, 15488.58
580.7120, 15539.44
581.1942, 15567.73
581.6763, 15583.28
582.1584, 15614.46
582.6405, 15670.72
583.1226, 15729.32
583.6047, 15770.15
584.0869, 15797.31
584.5690, 15818.43
585.0511, 15830.88
585.5332, 15843.41
586.0153, 15860.94
586.4974, 15882.80
586.9796, 15903.03
587.4617, 15915.16
587.9438, 15930.46
588.4259, 15957.62
588.9080, 16005.88
589.3901, 16027.38
589.8723, 16010.75
590.3544, 15982.65
590.8365, 15963.29
591.3186, 15950.29
591.8007, 15975.13
592.2828, 16052.75
592.7650, 16152.94
593.2471, 16229.60
593.7292, 16282.41
594.2113, 16308.04
594.6934, 16280.70
595.1755, 16239.38
595.6577, 16229.60
596.1398, 16250.10
596.6219, 16288.86
597.1040, 16367.66
597.5862, 16443.03
598.0683, 16475.83
598.5504, 16441.12
599.0325, 16426.43
599.5146, 16472.55
599.9968, 16537.76
600.4789, 16576.87
600.9610, 16566.83
601.4431, 16570.46
601.9252, 16602.34
602.4073, 16648.03
602.8895, 16671.54
603.3716, 16670.56
603.8537, 16659.84
604.3358, 16642.96
604.8179, 16621.43
605.3000, 16596.74
605.7822, 16568.80
606.2643, 16550.25
606.7464, 16558.91
607.2285, 16579.71
607.7106, 16589.86
608.1927, 16584.54
608.6749, 16575.80
609.1570, 16587.53
609.6391, 16594.38
610.1212, 16565.58
610.6033, 16451.66
611.0854, 16348.62
611.5676, 16278.97
612.0497, 16235.62
612.5318, 16198.26
613.0139, 16164.88
613.4960, 16141.79
613.9781, 16139.54
614.4603, 16154.79
614.9424, 16128.17
615.4245, 16050.11
615.9066, 15974.73
616.3887, 15951.19
616.8708, 15966.80
617.3530, 15959.20
617.8351, 15919.68
618.3172, 15880.79
618.7993, 15884.86
619.2814, 15909.46
619.7635, 15914.47
620.2457, 15866.17
620.7278, 15825.08
621.2099, 15834.01
621.6920, 15874.06
622.1741, 15901.93
622.6563, 15896.73
623.1384, 15888.29
623.6205, 15885.31
624.1026, 15887.54
624.5847, 15888.58
625.0668, 15888.69
625.5490, 15887.12
626.0311, 15883.69
626.5132, 15878.47
626.9953, 15868.43
627.4774, 15851.93
627.9595, 15837.74
628.4417, 15838.46
628.9238, 15849.78
629.4059, 15856.32
629.8880, 15850.14
630.3701, 15848.31
630.8522, 15875.80
631.3344, 15918.93
631.8165, 15951.01
632.2986, 15954.98
632.7807, 15951.73
633.2628, 15942.22
633.7449, 15929.40
634.2271, 15936.02
634.7092, 15991.87
635.1913, 16037.70
635.6734, 16047.87
636.1555, 16017.21
636.6376, 15992.92
637.1198, 15974.35
637.6019, 15963.59
638.0840, 15964.46
638.5661, 15975.87
639.0482, 15986.70
639.5303, 15995.02
640.0125, 16004.13
640.4946, 16018.64
640.9767, 16036.83
641.4588, 16054.94
641.9409, 16066.07
642.4230, 16082.52
642.9052, 16125.19
643.3873, 16180.76
643.8694, 16210.63
644.3515, 16173.22
644.8336, 16137.74
645.3157, 16134.74
645.7979, 16163.94
646.2800, 16178.28
646.7621, 16169.55
647.2442, 16159.27
647.7263, 16159.13
648.2084, 16169.27
648.6906, 16190.67
649.1727, 16225.39
649.6548, 16260.92
650.1369, 16287.82
650.6190, 16304.08
651.1011, 16299.33
651.5833, 16259.85
652.0654, 16226.14
652.5475, 16245.95
653.0296, 16295.88
653.5117, 16333.80
653.9938, 16333.08
654.4760, 16329.09
654.9581, 16329.34
655.4402, 16335.60
655.9223, 16356.90
656.4044, 16413.78
656.8865, 16457.45
657.3687, 16465.58
657.8508, 16438.07
658.3329, 16427.53
658.8150, 16434.67
659.2971, 16455.83
659.7792, 16502.76
660.2614, 16564.54
660.7435, 16583.97
661.2256, 16551.63
661.7077, 16513.65
662.1898, 16514.91
662.6719, 16538.83
663.1541, 16561.55
663.6362, 16579.48
664.1183, 16589.73
664.6004, 16574.41
665.0825, 16553.13
665.5646, 16561.51
666.0468, 16641.73
666.5289, 16708.85
667.0110, 16746.14
667.4931, 16759.78
667.9752, 16777.59
668.4573, 16800.28
668.9395, 16824.02
669.4216, 16850.64
669.9037, 16877.02
670.3858, 16885.53
670.8679, 16876.34
671.3500, 16868.95
671.8322, 16879.14
672.3143, 16900.12
672.7964, 16923.20
673.2785, 16946.93
673.7606, 16974.99
674.2427, 17017.14
674.7249, 17060.23
675.2070, 17092.00
675.6891, 17100.36
676.1712, 17109.00
676.6533, 17108.62
677.1354, 17114.86
677.6176, 17156.55
678.0997, 17243.15
678.5818, 17327.18
679.0639, 17400.80
679.5460, 17462.92
680.0281, 17503.36
680.5103, 17525.53
680.9924, 17558.57
681.4745, 17627.26
681.9566, 17709.33
682.4387, 17771.93
682.9208, 17819.20
683.4030, 17877.58
683.8851, 17971.65
684.3672, 18072.64
684.8493, 18158.05
685.3314, 18218.18
685.8135, 18306.94
686.2957, 18454.97
686.7778, 18605.17
687.2599, 18716.16
687.7420, 18778.33
688.2241, 18844.88
688.7062, 18916.42
689.1884, 18995.82
689.6705, 19092.61
690.1526, 19201.44
690.6347, 19295.61
691.1168, 19361.08
691.5989, 19426.41
692.0811, 19530.91
692.5632, 19656.16
693.0453, 19765.48
693.5274, 19831.06
694.0095, 19893.37
694.4916, 19981.85
694.9738, 20084.58
695.4559, 20143.44
695.9380, 20144.42
696.4201, 20120.66
696.9022, 20072.94
697.3843, 20005.09
697.8665, 19966.29
698.3486, 19961.75
698.8307, 19952.67
699.3128, 19905.17
699.7949, 19833.79
700.2770, 19782.25
700.7592, 19752.94
701.2413, 19718.30
701.7234, 19654.84
702.2055, 19576.25
702.6876, 19495.38
703.1697, 19416.05
703.6519, 19335.14
704.1340, 19243.34
704.6161, 19154.38
705.0982, 19083.77
705.5803, 19048.21
706.0624, 18993.67
706.5446, 18907.36
707.0267, 18811.37
707.5088, 18747.09
707.9909, 18713.64
708.4730, 18671.71
708.9551, 18602.23
709.4373, 18529.41
709.9194, 18495.55
710.4015, 18490.65
710.8836, 18482.95
711.3657, 18452.30
711.8478, 18418.28
712.3300, 18399.90
712.8121, 18392.50
713.2942, 18362.90
713.7763, 18270.41
714.2584, 18189.70
714.7405, 18152.20
715.2227, 18158.21
715.7048, 18148.08
716.1869, 18118.82
716.6690, 18084.32
717.1511, 18052.00
717.6332, 18022.46
718.1154, 18001.87
718.5975, 17991.13
719.0796, 17979.36
719.5617, 17943.83
720.0438, 17907.84
720.5259, 17904.36
721.0081, 17956.30
721.4902, 17994.25
721.9723, 17976.40
722.4544, 17940.52
722.9365, 17930.02
723.4186, 17966.08
723.9008, 17990.04
724.3829, 17997.77
724.8650, 17992.14
725.3471, 17969.92
725.8292, 17930.58
726.3113, 17914.00
726.7935, 17934.63
727.2756, 17976.66
727.7577, 18035.54
728.2398, 18098.38
728.7219, 18128.38
729.2040, 18082.31
729.6862, 18022.15
730.1683, 17972.91
730.6504, 17937.33
731.1325, 17924.46
731.6146, 17951.13
732.0967, 17985.01
732.5789, 18022.09
733.0610, 18060.90
733.5431, 18080.08
734.0252, 18076.67
734.5073, 18065.80
734.9894, 18051.54
735.4716, 18037.29
735.9537, 18037.48
736.4358, 18052.08
736.9179, 18066.16
737.4000, 18063.79
737.8821, 18057.93
738.3643, 18062.81
738.8464, 18083.40
739.3286, 18099.38
739.8107, 18098.59
740.2928, 18095.20
740.7749, 18098.81
741.2570, 18107.28
741.7391, 18133.26
742.2213, 18189.11
742.7034, 18239.54
743.1855, 18222.64
743.6676, 18151.43
744.1497, 18125.42
744.6318, 18173.55
745.1140, 18240.43
745.5961, 18269.83
746.0782, 18274.58
746.5603, 18275.44
747.0424, 18274.11
747.5245, 18276.75
748.0067, 18290.49
748.4888, 18309.02
748.9709, 18316.78
749.4530, 18296.42
749.9351, 18299.72
750.4172, 18347.30
750.8994, 18418.22
751.3815, 18449.85
751.8636, 18442.69
752.3457, 18427.39
752.8278, 18412.02
753.3099, 18400.16
753.7921, 18396.63
754.2742, 18401.19
754.7563, 18412.97
755.2384, 18443.39
755.7205, 18470.30
756.2026, 18479.29
756.6848, 18470.31
757.1669, 18466.09
757.6490, 18472.06
758.1311, 18476.34
758.6132, 18468.89
759.0953, 18451.16
759.5775, 18465.13
760.0596, 18513.95
760.5417, 18566.09
761.0238, 18598.49
761.5059, 18617.48
761.9880, 18632.27
762.4702, 18643.46
762.9523, 18654.04
763.4344, 18664.86
763.9165, 18676.38
764.3986, 18691.30
764.8807, 18716.44
765.3629, 18722.01
765.8450, 18686.93
766.3271, 18653.81
766.8092, 18663.68
767.2913, 18725.16
767.7734, 18746.39
768.2556, 18714.77
768.7377, 18674.65
769.2198, 18679.00
769.7019, 18712.43
770.1840, 18741.52
770.6661, 18760.22
771.1483, 18770.72
771.6304, 18767.88
772.1125, 18760.43
772.5946, 18758.37
773.0767, 18769.29
773.5588, 18777.94
774.0410, 18780.22
774.5231, 18782.54
775.0052, 18798.34
775.4873, 18831.31
775.9694, 18844.18
776.4515, 18823.90
776.9337, 18794.98
777.4158, 18797.72
777.8979, 18823.04
778.3800, 18845.20
778.8621, 18846.88
779.3442, 18853.12
779.8264, 18886.51
780.3085, 18934.73
780.7906, 18971.40
781.2727, 18977.46
781.7548, 18990.83
782.2369, 19028.55
782.7191, 19072.95
783.2012, 19062.81
783.6833, 18990.79
784.1654, 18945.75
784.6475, 18973.26
785.1296, 19031.73
785.6118, 19035.64
786.0939, 19001.18
786.5760, 18984.84
787.0581, 19030.04
787.5402, 19088.89
788.0223, 19148.72
788.5045, 19203.19
788.9866, 19221.81
789.4687, 19168.14
789.9508, 19126.14
790.4329, 19119.11
790.9150, 19144.70
791.3972, 19203.22
791.8793, 19299.05
792.3614, 19357.76
792.8435, 19299.38
793.3256, 19193.79
793.8077, 19163.08
794.2899, 19199.99
794.7720, 19252.90
795.2541, 19308.19
795.7362, 19360.28
796.2183, 19407.31
796.7004, 19449.36
797.1826, 19480.17
797.6647, 19490.26
798.1468, 19505.16
798.6289, 19540.72
799.1110, 19594.26
799.5931, 19632.03
800.0753, 19654.04
800.5574, 19672.79
801.0395, 19703.68
801.5216, 19733.67
802.0037, 19736.48
802.4858, 19711.62
802.9680, 19706.56
803.4501, 19745.92
803.9322, 19808.93
804.4143, 19892.51
804.8964, 20001.98
805.3785, 20079.24
805.8607, 20114.51
806.3428, 20137.45
806.8249, 20167.36
807.3070, 20203.06
807.7891, 20231.58
808.2712, 20252.11
808.7534, 20287.56
809.2355, 20384.06
809.7176, 20490.02
810.1997, 20543.08
810.6818, 20529.24
811.1639, 20518.19
811.6461, 20525.59
812.1282, 20546.14
812.6103, 20579.17
813.0924, 20629.91
813.5745, 20668.45
814.0566, 20695.62
814.5388, 20706.55
815.0209, 20678.63
815.5030, 20631.46
815.9851, 20635.29
816.4672, 20699.72
816.9493, 20753.07
817.4315, 20731.36
817.9136, 20681.46
818.3957, 20644.46
818.8778, 20632.65
819.3599, 20612.76
819.8420, 20570.06
820.3242, 20533.02
820.8063, 20529.99
821.2884, 20565.61
821.7705, 20571.24
822.2526, 20541.91
822.7347, 20499.89
823.2169, 20458.28
823.6990, 20421.45
824.1811, 20395.73
824.6632, 20382.09
825.1453, 20379.11
825.6274, 20394.85
826.1096, 20414.90
826.5917, 20427.16
827.0738, 20428.66
827.5559, 20430.97
828.0380, 20438.63
828.5201, 20438.37
829.0023, 20405.40
829.4844, 20349.15
829.9665, 20331.60
830.4486, 20361.22
830.9307, 20398.28
831.4128, 20407.48
831.8950, 20404.67
832.3771, 20407.19
832.8592, 20419.57
833.3413, 20432.03
833.8234, 20443.36
834.3055, 20453.42
834.7877, 20464.16
835.2698, 20479.16
835.7519, 20469.52
836.2340, 20426.22
836.7161, 20395.13
837.1982, 20438.06
837.6804, 20522.65
838.1625, 20575.23
838.6446, 20583.17
839.1267, 20588.89
839.6088, 20630.78
840.0909, 20673.37
840.5731, 20682.63
841.0552, 20635.79
841.5373, 20611.86
842.0194, 20613.90
842.5015, 20633.77
842.9836, 20675.47
843.4658, 20734.99
843.9479, 20759.03
844.4300, 20742.30
844.9121, 20727.76
845.3942, 20752.58
845.8763, 20799.91
846.3585, 20857.81
846.8406, 20929.45
847.3227, 20978.94
847.8048, 20978.25
848.2869, 20966.95
848.7690, 20967.80
849.2512, 20982.48
849.7333, 20994.44
850.2154, 21000.53
850.6975, 21019.64
851.1796, 21080.01
851.6617, 21162.05
852.1439, 21221.83
852.6260, 21256.52
853.1081, 21291.86
853.5902, 21347.17
854.0723, 21405.62
854.5544, 21460.58
855.0366, 21516.71
855.5187, 21528.14
856.0008, 21464.15
856.4829, 21417.28
856.9650, 21462.87
857.4471, 21584.42
857.9293, 21661.29
858.4114, 21693.73
858.8935, 21703.90
859.3756, 21682.80
859.8577, 21665.12
860.3398, 21690.48
860.8220, 21761.09
861.3041, 21820.28
861.7862, 21834.58
862.2683, 21856.91
862.7504, 21915.29
863.2325, 22004.88
863.7147, 22056.76
864.1968, 22068.07
864.6789, 22074.07
865.1610, 22101.51
865.6431, 22134.98
866.1252, 22145.84
866.6074, 22138.04
867.0895, 22138.31
867.5716, 22165.85
868.0537, 22197.45
868.5358, 22224.75
869.0179, 22247.52
869.5001, 22261.46
869.9822, 22264.04
870.4643, 22267.14
870.9464, 22280.05
871.4285, 22293.76
871.9106, 22276.09
872.3928, 22235.40
872.8749, 22209.66
873.3570, 22223.89
873.8391, 22254.79
874.3212, 22299.04
874.8033, 22350.08
875.2855, 22381.67
875.7676, 22383.83
876.2497, 22382.17
876.7318, 22378.66
877.2139, 22377.95
877.6960, 22395.70
878.1782, 22429.69
878.6603, 22460.38
879.1424, 22478.65
879.6245, 22493.79
880.1067, 22521.67
880.5888, 22551.56
881.0709, 22563.07
881.5530, 22527.30
882.0352, 22502.66
882.5173, 22497.57
882.9994, 22506.60
883.4815, 22522.38
883.9636, 22545.06
884.4457, 22571.56
884.9279, 22604.48
885.4100, 22631.42
885.8921, 22624.49
886.3742, 22604.18
886.8563, 22605.73
887.3384, 22656.30
887.8206, 22696.61
888.3027, 22703.72
888.7848, 22695.79
889.2669, 22689.29
889.7490, 22684.36
890.2311, 22678.00
890.7133, 22667.29
891.1954, 22666.17
891.6775, 22701.69
892.1596, 22755.29
892.6417, 22790.59
893.1238, 22800.37
893.6060, 22800.64
894.0881, 22787.01
894.5702, 22776.06
895.0523, 22785.21
895.5344, 22824.29
896.0165, 22834.14
896.4987, 22805.22
896.9808, 22775.27
897.4629, 22771.88
897.9450, 22790.31
898.4271, 22824.31
898.9092, 22871.71
899.3914, 22907.57
899.8735, 22909.45
900.3556, 22899.03
900.8377, 22879.19
901.3198, 22850.49
901.8019, 22871.07
902.2841, 22969.04
902.7662, 23054.42
903.2483, 23077.20
903.7304, 23059.69
904.2125, 23091.27
904.6946, 23164.17
905.1768, 23226.92
905.6589, 23228.67
906.1410, 23230.33
906.6231, 23284.08
907.1052, 23375.57
907.5873, 23453.37
908.0695, 23526.20
908.5516, 23555.17
909.0337, 23512.48
909.5158, 23440.48
909.9979, 23439.75
910.4800, 23503.52
910.9622, 23579.58
911.4443, 23656.65
911.9264, 23728.96
912.4085, 23787.96
912.8906, 23840.74
913.3727, 23898.12
913.8549, 23971.42
914.3370, 24038.37
914.8191, 24105.92
915.3012, 24157.08
915.7833, 24152.59
916.2654, 24098.40
916.7476, 24099.50
917.2297, 24176.28
917.7118, 24269.11
918.1939, 24334.27
918.6760, 24378.50
919.1581, 24405.81
919.6403, 24409.84
920.1224, 24422.98
920.6045, 24455.71
921.0866, 24491.04
921.5687, 24521.53
922.0508, 24547.01
922.5330, 24549.88
923.0151, 24529.26
923.4972, 24517.97
923.9793, 24564.04
924.4614, 24615.96
924.9435, 24614.61
925.4257, 24561.23
925.9078, 24505.53
926.3899, 24437.73
926.8720, 24399.43
927.3541, 24418.39
927.8362, 24475.89
928.3184, 24482.82
928.8005, 24439.56
929.2826, 24392.44
929.7647, 24364.20
930.2468, 24339.14
930.7289, 24286.95
931.2111, 24224.62
931.6932, 24191.35
932.1753, 24246.00
932.6574, 24267.85
933.1395, 24223.93
933.6216, 24150.22
934.1038, 24102.16
934.5859, 24080.04
935.0680, 24068.76
935.5501, 24067.36
936.0322, 24068.98
936.5143, 24067.60
936.9965, 24064.15
937.4786, 24060.73
937.9607, 24061.28
938.4428, 24052.11
938.9249, 24028.63
939.4070, 23998.03
939.8892, 23961.20
940.3713, 23917.39
940.8534, 23890.88
941.3355, 23882.21
941.8176, 23884.96
942.2997, 23903.42
942.7819, 23924.40
943.2640, 23934.94
943.7461, 23934.28
944.2282, 23926.87
944.7103, 23906.12
945.1924, 23887.52
945.6746, 23873.55
946.1567, 23865.99
946.6388, 23876.83
947.1209, 23904.81
947.6030, 23927.27
948.0851, 23925.94
948.5673, 23923.42
949.0494, 23949.70
949.5315, 23990.32
950.0136, 24015.41
950.4957, 23982.64
950.9778, 23985.53
951.4600, 24051.67
951.9421, 24135.52
952.4242, 24166.85
952.9063, 24150.36
953.3884, 24125.84
953.8705, 24098.38
954.3527, 24074.51
954.8348, 24050.94
955.3169, 24039.33
955.7990, 24054.65
956.2811, 24110.10
956.7632, 24157.77
957.2454, 24198.38
957.7275, 24225.96
958.2096, 24225.69
958.6917, 24205.40
959.1738, 24223.97
959.6559, 24278.12
960.1381, 24324.50
960.6202, 24314.64
961.1023, 24303.59
961.5844, 24341.38
962.0665, 24418.07
962.5486, 24457.67
963.0308, 24432.38
963.5129, 24428.89
963.9950, 24480.27
964.4771, 24554.47
964.9592, 24567.55
965.4413, 24539.22
965.9235, 24538.34
966.4056, 24609.39
966.8877, 24674.57
967.3698, 24671.71
967.8519, 24647.12
968.3340, 24662.93
968.8162, 24737.82
969.2983, 24806.08
969.7804, 24866.99
970.2625, 24918.48
970.7446, 24947.71
971.2267, 24969.04
971.7089, 25025.80
972.1910, 25121.98
972.6731, 25187.12
973.1552, 25136.95
973.6373, 25091.34
974.1194, 25126.95
974.6016, 25234.80
975.0837, 25307.54
975.5658, 25341.16
976.0479, 25365.74
976.5300, 25398.93
977.0121, 25428.44
977.4943, 25414.79
977.9764, 25382.43
978.4585, 25392.48
978.9406, 25532.29
979.4227, 25635.76
979.9048, 25654.06
980.3870, 25627.93
980.8691, 25598.25
981.3512, 25564.00
981.8333, 25594.20
982.3154, 25710.22
982.7975, 25822.84
983.2797, 25822.58
983.7618, 25778.84
984.2439, 25773.78
984.7260, 25831.45
985.2081, 25861.98
985.6902, 25854.30
986.1724, 25820.93
986.6545, 25742.08
987.1366, 25639.95
987.6187, 25680.13
988.1008, 25844.24
988.5829, 25971.88
989.0651, 25932.22
989.5472, 25857.24
990.0293, 25832.65
990.5114, 25846.04
990.9935, 25852.17
991.4756, 25839.29
991.9578, 25843.65
992.4399, 25879.12
992.9220, 25918.24
993.4041, 25907.57
993.8862, 25866.41
994.3683, 25844.58
994.8505, 25852.13
995.3326, 25881.73
995.8147, 25973.53
996.2968, 26050.80
996.7789, 26045.78
997.2610, 25944.40
997.7432, 25888.75
998.2253, 25884.56
998.7074, 25887.43
999.1895, 25863.93
999.6716, 25830.64
1000.154, 25808.88
1000.636, 25798.96
1001.118, 25800.97
1001.600, 25838.27
1002.082, 25856.59
1002.564, 25830.62
1003.046, 25787.98
1003.529, 25791.28
1004.011, 25837.83
1004.493, 25886.39
1004.975, 25932.69
1005.457, 25961.83
1005.939, 25946.86
1006.421, 25915.23
1006.903, 25896.14
1007.385, 25896.20
1007.868, 25905.26
1008.350, 25924.67
1008.832, 25949.69
1009.314, 25985.28
1009.796, 26023.07
1010.278, 26025.89
1010.760, 25999.68
1011.242, 25983.69
1011.725, 26029.90
1012.207, 26060.23
1012.689, 26001.96
1013.171, 25903.20
1013.653, 25899.29
1014.135, 26014.94
1014.617, 26079.15
1015.099, 26043.34
1015.581, 25984.35
1016.064, 26014.95
1016.546, 26084.81
1017.028, 26112.64
1017.510, 26067.28
1017.992, 26028.55
1018.474, 26017.56
1018.956, 26012.78
1019.438, 26004.47
1019.921, 25992.14
1020.403, 25965.45
1020.885, 25925.75
1021.367, 25888.90
1021.849, 25863.72
1022.331, 25846.18
1022.813, 25834.40
1023.295, 25828.00
1023.778, 25827.20
1024.260, 25839.01
1024.742, 25836.93
1025.224, 25813.75
1025.706, 25782.16
1026.188, 25753.40
1026.670, 25731.69
1027.152, 25730.94
1027.634, 25758.96
1028.117, 25778.74
1028.599, 25776.13
1029.081, 25757.48
1029.563, 25714.96
1030.045, 25651.05
1030.527, 25662.60
1031.009, 25751.38
1031.491, 25827.65
1031.974, 25814.71
1032.456, 25782.35
1032.938, 25813.39
1033.420, 25878.91
1033.902, 25906.54
1034.384, 25835.43
1034.866, 25806.73
1035.348, 25849.98
1035.830, 25911.39
1036.313, 25912.79
1036.795, 25874.67
1037.277, 25866.39
1037.759, 25899.18
1038.241, 25930.53
1038.723, 25942.31
1039.205, 25937.64
1039.687, 25910.49
1040.169, 25864.61
1040.652, 25842.83
1041.134, 25844.83
1041.616, 25876.58
1042.098, 25964.77
1042.580, 26052.48
1043.062, 26050.88
1043.544, 25999.77
1044.026, 25971.60
1044.509, 26005.43
1044.991, 26037.79
1045.473, 26067.94
1045.955, 26091.90
1046.437, 26099.70
1046.919, 26097.17
1047.401, 26119.20
1047.883, 26166.05
1048.365, 26191.75
1048.848, 26137.57
1049.330, 26081.95
1049.812, 26077.29
1050.294, 26112.13
1050.776, 26137.76
1051.258, 26152.19
1051.740, 26176.88
1052.222, 26227.44
1052.704, 26268.40
1053.187, 26231.45
1053.669, 26163.56
1054.151, 26139.82
1054.633, 26203.57
1055.115, 26243.05
1055.597, 26238.45
1056.079, 26226.12
1056.561, 26231.76
1057.044, 26251.85
1057.526, 26264.90
1058.008, 26273.11
1058.490, 26292.04
1058.972, 26358.47
1059.454, 26408.00
1059.936, 26383.08
1060.418, 26326.13
1060.901, 26332.98
1061.383, 26417.08
1061.865, 26454.33
1062.347, 26417.93
1062.829, 26372.51
1063.311, 26403.36
1063.793, 26456.95
1064.275, 26460.17
1064.757, 26394.26
1065.240, 26362.47
1065.722, 26381.00
1066.204, 26418.50
1066.686, 26467.45
1067.168, 26522.28
1067.650, 26573.62
1068.132, 26617.32
1068.614, 26635.69
1069.096, 26599.63
1069.579, 26569.86
1070.061, 26563.10
1070.543, 26579.96
1071.025, 26635.88
1071.507, 26740.23
1071.989, 26757.66
1072.471, 26678.07
1072.953, 26608.10
1073.436, 26638.46
1073.918, 26709.95
1074.400, 26780.56
1074.882, 26845.75
1075.364, 26897.29
1075.846, 26922.61
1076.328, 26964.01
1076.810, 27029.22
1077.292, 27117.45
1077.775, 27249.54
1078.257, 27399.63
1078.739, 27508.03
1079.221, 27549.48
1079.703, 27610.90
1080.185, 27741.38
1080.667, 27881.04
1081.149, 28011.79
1081.631, 28129.06
1082.114, 28179.96
1082.596, 28175.19
1083.078, 28205.22
1083.560, 28352.13
1084.042, 28510.85
1084.524, 28620.10
1085.006, 28696.82
1085.488, 28775.31
1085.971, 28870.81
1086.453, 28919.43
1086.935, 28920.39
1087.417, 28857.90
1087.899, 28690.10
1088.381, 28466.93
1088.863, 28231.56
1089.345, 27992.79
1089.828, 27799.73
1090.310, 27662.59
1090.792, 27572.00
1091.274, 27542.08
1091.756, 27536.55
1092.238, 27473.32
1092.720, 27377.16
1093.202, 27325.35
1093.684, 27349.99
1094.167, 27362.63
1094.649, 27297.92
1095.131, 27231.61
1095.613, 27209.91
1096.095, 27230.38
1096.577, 27258.11
1097.059, 27292.45
1097.541, 27325.56
1098.024, 27351.60
1098.506, 27376.24
1098.988, 27410.66
1099.470, 27443.72
1099.952, 27453.51
1100.434, 27427.00
1100.916, 27418.83
1101.398, 27433.64
1101.880, 27456.74
1102.363, 27485.86
1102.845, 27507.72
1103.327, 27491.63
1103.809, 27443.53
1104.291, 27420.84
1104.773, 27456.33
1105.255, 27485.84
1105.737, 27487.46
1106.219, 27489.01
1106.702, 27567.03
1107.184, 27684.77
1107.666, 27725.91
1108.148, 27652.48
1108.630, 27589.17
1109.112, 27592.57
1109.594, 27625.31
1110.076, 27676.88
1110.559, 27740.52
1111.041, 27759.59
1111.523, 27737.58
1112.005, 27711.65
1112.487, 27692.93
1112.969, 27684.17
1113.451, 27690.78
1113.933, 27707.01
1114.416, 27726.39
1114.898, 27751.50
1115.380, 27765.38
1115.862, 27765.89
1116.344, 27770.36
1116.826, 27805.50
1117.308, 27842.34
1117.790, 27834.33
1118.272, 27796.15
1118.755, 27792.15
1119.237, 27850.53
1119.719, 27904.54
1120.201, 27945.59
1120.683, 27978.12
1121.165, 28001.03
1121.647, 28022.63
1122.129, 28067.30
1122.611, 28139.31
1123.094, 28187.79
1123.576, 28177.60
1124.058, 28160.36
1124.540, 28150.40
1125.022, 28147.22
1125.504, 28151.99
1125.986, 28162.86
1126.468, 28169.27
1126.951, 28159.28
1127.433, 28169.36
1127.915, 28258.74
1128.397, 28341.11
1128.879, 28338.26
1129.361, 28250.58
1129.843, 28240.02
1130.325, 28303.47
1130.807, 28367.04
1131.290, 28377.46
1131.772, 28383.29
1132.254, 28430.78
1132.736, 28493.18
1133.218, 28523.23
1133.700, 28510.04
1134.182, 28501.62
1134.664, 28500.05
1135.146, 28502.99
1135.629, 28506.44
1136.111, 28514.58
1136.593, 28539.49
1137.075, 28575.99
1137.557, 28592.03
1138.039, 28571.98
1138.521, 28562.59
1139.003, 28574.45
1139.486, 28593.43
1139.968, 28596.03
1140.450, 28593.96
1140.932, 28607.95
1141.414, 28641.23
1141.896, 28683.79
1142.378, 28749.31
1142.860, 28797.35
1143.343, 28809.92
1143.825, 28798.80
1144.307, 28787.96
1144.789, 28778.93
1145.271, 28773.59
1145.753, 28764.21
1146.235, 28781.79
1146.717, 28876.49
1147.199, 28965.03
1147.682, 28993.57
1148.164, 28969.79
1148.646, 28942.19
1149.128, 28916.25
1149.610, 28929.83
1150.092, 29069.93
1150.574, 29173.56
1151.056, 29108.05
1151.538, 28993.20
1152.021, 28979.02
1152.503, 29077.82
1152.985, 29116.02
1153.467, 29087.19
1153.949, 29057.83
1154.431, 29068.13
1154.913, 29102.87
1155.395, 29175.32
1155.878, 29261.15
1156.360, 29286.04
1156.842, 29233.69
1157.324, 29207.73
1157.806, 29223.32
1158.288, 29255.67
1158.770, 29290.71
1159.252, 29322.11
1159.734, 29340.08
1160.217, 29344.93
1160.699, 29361.67
1161.181, 29401.37
1161.663, 29411.83
1162.145, 29370.59
1162.627, 29316.47
1163.109, 29286.38
1163.591, 29285.76
1164.073, 29337.61
1164.556, 29464.85
1165.038, 29519.97
1165.520, 29460.27
1166.002, 29418.29
1166.484, 29467.96
1166.966, 29555.12
1167.448, 29565.88
1167.930, 29532.04
1168.413, 29522.50
1168.895, 29574.04
1169.377, 29611.76
1169.859, 29619.41
1170.341, 29626.94
1170.823, 29660.58
1171.305, 29709.39
1171.787, 29736.22
1172.270, 29746.56
1172.752, 29758.74
1173.234, 29771.31
1173.716, 29801.22
1174.198, 29860.98
1174.680, 29924.61
1175.162, 29962.15
1175.644, 29980.53
1176.126, 30022.85
1176.609, 30085.05
1177.091, 30119.65
1177.573, 30063.38
1178.055, 30022.45
1178.537, 30045.88
1179.019, 30091.37
1179.501, 30081.94
1179.983, 30030.47
1180.465, 30024.62
1180.948, 30075.51
1181.430, 30129.09
1181.912, 30147.35
1182.394, 30164.83
1182.876, 30203.91
1183.358, 30252.76
1183.840, 30277.21
1184.322, 30279.19
1184.805, 30276.76
1185.287, 30274.72
1185.769, 30264.14
1186.251, 30193.27
1186.733, 30155.99
1187.215, 30248.16
1187.697, 30436.42
1188.179, 30482.40
1188.661, 30394.71
1189.144, 30348.49
1189.626, 30419.79
1190.108, 30510.97
1190.590, 30573.39
1191.072, 30602.38
1191.554, 30582.51
1192.036, 30512.95
1192.518, 30507.13
1193.000, 30564.82
1193.483, 30610.50
1193.965, 30603.79
1194.447, 30577.06
1194.929, 30520.05
1195.411, 30477.90
1195.893, 30515.83
1196.375, 30655.32
1196.857, 30772.06
1197.340, 30865.44
1197.822, 30906.16
1198.304, 30829.00
1198.786, 30734.55
1199.268, 30703.11
1199.750, 30714.58
1200.232, 30724.47
1200.714, 30728.66
1201.197, 30742.47
1201.679, 30766.15
1202.161, 30804.35
1202.643, 30886.69
1203.125, 30962.59
1203.607, 30977.51
1204.089, 30948.44
1204.571, 30938.16
1205.053, 30950.22
1205.536, 30969.37
1206.018, 30994.05
1206.500, 31022.91
1206.982, 31047.41
1207.464, 31080.94
1207.946, 31157.15
1208.428, 31260.48
1208.910, 31282.45
1209.392, 31202.96
1209.875, 31141.66
1210.357, 31118.80
1210.839, 31131.17
1211.321, 31208.41
1211.803, 31295.08
1212.285, 31329.21
1212.767, 31307.19
1213.249, 31313.05
1213.732, 31355.99
1214.214, 31370.03
1214.696, 31324.74
1215.178, 31280.73
1215.660, 31321.39
1216.142, 31391.79
1216.624, 31427.82
1217.106, 31420.71
1217.589, 31436.97
1218.071, 31483.11
1218.553, 31507.06
1219.035, 31476.58
1219.517, 31441.17
1219.999, 31463.39
1220.481, 31511.26
1220.963, 31544.72
1221.445, 31557.68
1221.927, 31569.83
1222.410, 31579.67
1222.892, 31601.89
1223.374, 31661.41
1223.856, 31711.26
1224.338, 31674.70
1224.820, 31607.20
1225.302, 31592.39
1225.784, 31643.72
1226.267, 31710.03
1226.749, 31794.83
1227.231, 31861.04
1227.713, 31863.97
1228.195, 31859.66
1228.677, 31920.48
1229.159, 32004.73
1229.641, 32036.92
1230.124, 31995.70
1230.606, 31982.96
1231.088, 32001.45
1231.570, 32026.15
1232.052, 32050.00
1232.534, 32062.16
1233.016, 32041.22
1233.498, 32005.76
1233.980, 31992.38
1234.463, 32003.47
1234.945, 32024.03
1235.427, 32052.73
1235.909, 32102.47
1236.391, 32224.17
1236.873, 32331.73
1237.355, 32332.04
1237.837, 32271.10
1238.320, 32268.93
1238.802, 32334.72
1239.284, 32357.26
1239.766, 32324.01
1240.248, 32302.78
1240.730, 32374.66
1241.212, 32451.43
1241.694, 32460.97
1242.177, 32430.36
1242.659, 32431.06
1243.141, 32464.18
1243.623, 32468.77
1244.105, 32435.61
1244.587, 32402.65
1245.069, 32379.71
1245.551, 32385.77
1246.033, 32448.78
1246.516, 32544.56
1246.998, 32632.89
1247.480, 32711.41
1247.962, 32741.28
1248.444, 32713.22
1248.926, 32676.57
1249.408, 32649.71
1249.890, 32640.47
1250.372, 32650.86
1250.855, 32681.02
1251.337, 32744.64
1251.819, 32832.83
1252.301, 32899.15
1252.783, 32934.21
1253.265, 32942.75
1253.747, 32887.00
1254.229, 32852.75
1254.712, 32890.64
1255.194, 32969.27
1255.676, 32987.64
1256.158, 32964.16
1256.640, 32967.33
1257.122, 33015.07
1257.604, 33074.02
1258.086, 33162.66
1258.568, 33216.73
1259.051, 33195.59
1259.533, 33136.73
1260.015, 33143.48
1260.497, 33191.96
1260.979, 33212.68
1261.461, 33175.44
1261.943, 33175.92
1262.425, 33264.92
1262.907, 33349.07
1263.390, 33391.49
1263.872, 33401.04
1264.354, 33377.54
1264.836, 33340.07
1265.318, 33329.79
1265.800, 33364.86
1266.282, 33397.14
1266.764, 33419.80
1267.247, 33445.20
1267.729, 33483.77
1268.211, 33522.07
1268.693, 33533.80
1269.175, 33530.56
1269.657, 33532.38
1270.139, 33547.32
1270.621, 33548.79
1271.104, 33527.88
1271.586, 33532.14
1272.068, 33597.73
1272.550, 33683.91
1273.032, 33744.64
1273.514, 33788.69
1273.996, 33833.43
1274.478, 33886.14
1274.960, 33900.99
1275.443, 33874.06
1275.925, 33849.76
1276.407, 33852.39
1276.889, 33865.20
1277.371, 33874.38
1277.853, 33883.81
1278.335, 33901.27
1278.817, 33929.54
1279.299, 33924.10
1279.782, 33886.96
1280.264, 33878.16
1280.746, 33944.72
1281.228, 34025.90
1281.710, 34098.39
1282.192, 34154.67
1282.674, 34187.43
1283.156, 34197.43
1283.639, 34192.66
1284.121, 34176.63
1284.603, 34172.21
1285.085, 34196.64
1285.567, 34226.08
1286.049, 34252.27
1286.531, 34280.06
1287.013, 34321.91
1287.495, 34369.47
1287.978, 34360.60
1288.460, 34313.33
1288.942, 34293.50
1289.424, 34359.05
1289.906, 34407.65
1290.388, 34420.63
1290.870, 34426.77
1291.352, 34461.57
1291.834, 34500.57
1292.317, 34466.80
1292.799, 34391.56
1293.281, 34357.38
1293.763, 34424.66
1294.245, 34473.91
1294.727, 34498.59
1295.209, 34524.77
1295.691, 34588.56
1296.174, 34652.71
1296.656, 34653.45
1297.138, 34619.76
1297.620, 34618.91
1298.102, 34669.24
1298.584, 34705.49
1299.066, 34727.41
1299.548, 34728.62
1300.031, 34660.40
1300.513, 34614.44
1300.995, 34703.53
1301.477, 34844.62
1301.959, 34894.20
1302.441, 34842.18
1302.923, 34864.05
1303.405, 34955.55
1303.887, 35004.87
1304.370, 34878.57
##END=



