##NAMES=Pyrite
##RRUFFID=R100166
##IDEAL CHEMISTRY=Fe^2+^(S_2_)^2-^
##LOCALITY=Boston Consolidated mine, Bingham Canyon, 20 mi SSW of Salt Lake City, Salt Lake County, Utah, USA
##OWNER=RRUFF
##SOURCE=Harvard microprobe standard, Mineralogical Museum, Harvard University
##DESCRIPTION=Brass-yellow pyritohedron
##STATUS=The identification of this mineral is confirmed by single-crystal X-ray diffraction and chemical analysis.
##URL=rruff.info/R100166
##MEASURED CHEMISTRY=FeS_2_ ; (Pure phase as determined by WDS analysis)
171.5487, 42.60375
172.0309, 41.06061
172.5130, 39.50080
172.9951, 38.99249
173.4772, 39.19643
173.9593, 39.59245
174.4414, 40.47686
174.9236, 41.19170
175.4057, 40.87067
175.8878, 39.50956
176.3699, 37.89235
176.8520, 36.36583
177.3341, 35.04607
177.8163, 34.19415
178.2984, 34.07060
178.7805, 34.42109
179.2626, 35.05482
179.7447, 36.00027
180.2268, 36.74036
180.7090, 36.66251
181.1911, 35.93011
181.6732, 35.02882
182.1553, 33.94258
182.6374, 32.87241
183.1195, 32.36455
183.6017, 32.48835
184.0838, 32.79370
184.5659, 32.74282
185.0480, 32.39984
185.5301, 32.08514
186.0123, 31.80064
186.4944, 31.64710
186.9765, 32.22335
187.4586, 33.78729
187.9407, 35.21581
188.4228, 34.40368
188.9050, 31.59703
189.3871, 29.35650
189.8692, 29.48506
190.3513, 31.46408
190.8334, 32.64841
191.3155, 32.79074
191.7977, 32.43019
192.2798, 32.36623
192.7619, 32.59749
193.2440, 32.89107
193.7261, 33.27256
194.2082, 33.70039
194.6904, 33.58418
195.1725, 32.73272
195.6546, 31.64332
196.1367, 31.34151
196.6188, 31.87643
197.1009, 32.48196
197.5831, 32.77052
198.0652, 32.74636
198.5473, 32.60262
199.0294, 32.30949
199.5115, 31.95881
199.9937, 31.70769
200.4758, 31.54822
200.9579, 31.54157
201.4400, 31.86460
201.9221, 32.57164
202.4042, 32.76686
202.8864, 32.19588
203.3685, 31.29176
203.8506, 31.21660
204.3327, 32.19886
204.8148, 33.08336
205.2969, 33.10377
205.7791, 32.09111
206.2612, 31.48851
206.7433, 31.50904
207.2254, 31.88580
207.7075, 31.90672
208.1896, 31.46146
208.6718, 30.98271
209.1539, 30.70524
209.6360, 30.66687
210.1181, 30.67606
210.6002, 30.80671
211.0823, 30.93488
211.5645, 30.63885
212.0466, 29.73189
212.5287, 28.84110
213.0108, 28.27284
213.4929, 28.02521
213.9750, 28.10669
214.4572, 28.61577
214.9393, 29.41330
215.4214, 30.16980
215.9035, 31.02225
216.3856, 31.55885
216.8678, 31.42065
217.3499, 30.26023
217.8320, 29.57290
218.3141, 29.54097
218.7962, 29.99333
219.2783, 30.46652
219.7605, 31.09884
220.2426, 31.49176
220.7247, 31.31088
221.2068, 30.16506
221.6889, 29.60212
222.1710, 29.92630
222.6532, 30.82070
223.1353, 31.25608
223.6174, 31.00776
224.0995, 30.68506
224.5816, 30.63934
225.0637, 31.11074
225.5459, 31.21362
226.0280, 30.71717
226.5101, 29.87996
226.9922, 29.55198
227.4743, 30.04525
227.9564, 30.55087
228.4386, 30.65713
228.9207, 30.15804
229.4028, 29.75440
229.8849, 29.47400
230.3670, 29.29033
230.8492, 29.15438
231.3313, 29.21566
231.8134, 29.10186
232.2955, 28.53964
232.7776, 27.04754
233.2597, 26.28004
233.7419, 26.51422
234.2240, 27.40338
234.7061, 28.03247
235.1882, 28.24877
235.6703, 28.43821
236.1524, 28.77557
236.6346, 29.35019
237.1167, 29.90750
237.5988, 30.68246
238.0809, 31.36465
238.5630, 31.11508
239.0451, 29.21630
239.5273, 27.46535
240.0094, 26.63906
240.4915, 27.14220
240.9736, 27.51463
241.4557, 27.70502
241.9378, 27.78937
242.4200, 27.93682
242.9021, 28.23680
243.3842, 28.46143
243.8663, 28.50353
244.3484, 28.27350
244.8306, 28.12743
245.3127, 28.07782
245.7948, 28.10622
246.2769, 28.19020
246.7590, 28.37047
247.2411, 28.54034
247.7233, 28.72586
248.2054, 29.05678
248.6875, 28.83614
249.1696, 27.57832
249.6517, 26.09598
250.1338, 25.83994
250.6160, 27.60518
251.0981, 29.16932
251.5802, 29.78363
252.0623, 29.26596
252.5444, 28.73702
253.0265, 28.09377
253.5087, 27.52753
253.9908, 27.38610
254.4729, 27.97222
254.9550, 28.35346
255.4371, 28.11711
255.9192, 27.10710
256.4014, 26.84055
256.8835, 27.74942
257.3656, 28.97377
257.8477, 29.41683
258.3298, 28.66302
258.8120, 28.06822
259.2941, 28.04468
259.7762, 28.64359
260.2583, 28.93995
260.7404, 28.88503
261.2225, 28.59095
261.7047, 28.09615
262.1868, 27.20685
262.6689, 26.63169
263.1510, 26.59488
263.6331, 27.07915
264.1152, 27.48678
264.5974, 27.86389
265.0795, 28.08728
265.5616, 27.96064
266.0437, 27.31665
266.5258, 26.88793
267.0079, 26.89810
267.4901, 27.27417
267.9722, 27.31461
268.4543, 26.86955
268.9364, 26.39095
269.4185, 26.30419
269.9006, 26.73813
270.3828, 26.96978
270.8649, 26.75293
271.3470, 26.26325
271.8291, 26.50622
272.3112, 27.84670
272.7933, 28.96721
273.2755, 28.60847
273.7576, 26.43800
274.2397, 25.13580
274.7218, 25.21015
275.2039, 26.24783
275.6860, 27.10232
276.1682, 27.82969
276.6503, 28.19338
277.1324, 27.86257
277.6145, 26.76137
278.0966, 26.06736
278.5787, 25.97338
279.0609, 26.21469
279.5430, 26.17532
280.0251, 25.80163
280.5072, 25.48474
280.9893, 25.48705
281.4715, 25.80653
281.9536, 26.04828
282.4357, 26.21495
282.9178, 26.26216
283.3999, 25.97012
283.8820, 25.30470
284.3642, 24.90522
284.8463, 25.29610
285.3284, 26.37586
285.8105, 26.85860
286.2926, 26.62047
286.7747, 26.16824
287.2569, 26.25220
287.7390, 26.85003
288.2211, 27.37730
288.7032, 27.57226
289.1853, 27.49892
289.6674, 27.50816
290.1496, 27.63843
290.6317, 27.60994
291.1138, 26.80428
291.5959, 25.38831
292.0780, 24.56335
292.5602, 24.96041
293.0423, 26.11844
293.5244, 26.88083
294.0065, 27.23202
294.4886, 27.46067
294.9707, 27.90481
295.4529, 28.46646
295.9350, 28.77112
296.4171, 28.65339
296.8992, 28.29552
297.3813, 28.02168
297.8634, 27.82185
298.3456, 27.56390
298.8277, 27.13704
299.3098, 26.58139
299.7919, 25.90851
300.2740, 24.95151
300.7561, 24.19287
301.2383, 24.51273
301.7204, 25.70720
302.2025, 26.83077
302.6846, 27.41085
303.1667, 27.51502
303.6488, 27.11634
304.1310, 26.03595
304.6131, 25.01072
305.0952, 24.89638
305.5773, 25.45119
306.0594, 26.01970
306.5415, 26.30750
307.0237, 26.41059
307.5058, 26.39572
307.9879, 26.25009
308.4700, 26.11783
308.9521, 26.11472
309.4343, 26.19946
309.9164, 26.29810
310.3985, 26.39749
310.8806, 26.48664
311.3627, 26.55176
311.8448, 26.59258
312.3270, 26.63428
312.8091, 26.83252
313.2912, 26.99605
313.7733, 26.89895
314.2554, 26.13735
314.7375, 25.37481
315.2197, 24.96511
315.7018, 24.87884
316.1839, 24.87698
316.6660, 24.68385
317.1481, 24.61621
317.6302, 24.96076
318.1124, 26.34492
318.5945, 27.45361
319.0766, 27.77135
319.5587, 27.44385
320.0408, 26.98921
320.5229, 26.37590
321.0051, 25.81583
321.4872, 25.42312
321.9693, 25.23503
322.4514, 25.18634
322.9335, 25.15409
323.4156, 25.26054
323.8978, 25.74152
324.3799, 27.03280
324.8620, 28.36119
325.3441, 29.41875
325.8262, 30.03154
326.3083, 30.82294
326.7905, 31.98286
327.2726, 33.30466
327.7547, 34.51801
328.2368, 35.73680
328.7189, 36.73026
329.2010, 37.50068
329.6832, 38.06044
330.1653, 38.18001
330.6474, 37.34262
331.1295, 36.43749
331.6116, 36.18205
332.0938, 36.83899
332.5759, 37.75166
333.0580, 39.00486
333.5401, 40.51805
334.0222, 41.60659
334.5043, 42.22020
334.9865, 42.49341
335.4686, 42.30909
335.9507, 41.03456
336.4328, 41.08966
336.9149, 42.92708
337.3970, 46.03130
337.8792, 48.85540
338.3613, 51.15318
338.8434, 53.97140
339.3255, 58.04963
339.8076, 63.65837
340.2898, 68.44128
340.7719, 72.13428
341.2540, 75.52836
341.7361, 79.89891
342.2182, 85.22963
342.7003, 91.12759
343.1825, 98.70346
343.6646, 107.0907
344.1467, 109.9453
344.6288, 107.0341
345.1109, 99.91228
345.5930, 88.01768
346.0752, 72.12569
346.5573, 58.56319
347.0394, 48.82533
347.5215, 42.26661
348.0036, 37.69975
348.4857, 35.12414
348.9679, 33.46664
349.4500, 32.16723
349.9321, 31.16140
350.4142, 30.26191
350.8963, 29.42641
351.3784, 28.70686
351.8606, 28.17874
352.3427, 27.83601
352.8248, 27.64857
353.3069, 27.83258
353.7890, 28.07578
354.2711, 27.90590
354.7533, 27.25705
355.2354, 26.48697
355.7175, 25.78424
356.1996, 25.18760
356.6817, 24.76475
357.1638, 24.88367
357.6460, 24.94070
358.1281, 24.13184
358.6102, 22.56750
359.0923, 21.62364
359.5744, 22.73462
360.0565, 24.56596
360.5387, 25.79904
361.0208, 25.53843
361.5029, 25.28047
361.9850, 25.60654
362.4671, 26.44351
362.9492, 27.57166
363.4314, 29.30138
363.9135, 31.02063
364.3956, 32.41248
364.8777, 33.43666
365.3598, 34.13164
365.8419, 34.19786
366.3241, 34.00928
366.8062, 34.12621
367.2883, 34.83840
367.7704, 35.65887
368.2526, 36.56452
368.7347, 37.63826
369.2168, 38.28694
369.6989, 38.00757
370.1810, 37.61207
370.6631, 37.77836
371.1453, 38.92148
371.6274, 40.00558
372.1095, 40.82204
372.5916, 41.45570
373.0737, 42.37502
373.5558, 43.35370
374.0380, 44.96176
374.5201, 47.63028
375.0022, 51.62353
375.4843, 55.72877
375.9664, 59.96140
376.4485, 64.23780
376.9307, 68.44930
377.4128, 72.49429
377.8949, 76.75403
378.3770, 81.36290
378.8591, 86.28978
379.3412, 92.24303
379.8234, 100.0427
380.3055, 105.8058
380.7876, 104.5991
381.2697, 96.66929
381.7518, 86.23575
382.2339, 73.14255
382.7161, 59.27104
383.1982, 48.66496
383.6803, 41.37394
384.1624, 36.29622
384.6445, 33.50832
385.1266, 32.36042
385.6088, 31.29568
386.0909, 30.11055
386.5730, 28.87889
387.0551, 27.60607
387.5372, 26.35888
388.0193, 25.30702
388.5015, 24.45265
388.9836, 23.89828
389.4657, 23.94780
389.9478, 24.63982
390.4299, 25.14960
390.9120, 24.62312
391.3942, 23.67819
391.8763, 23.08768
392.3584, 23.58305
392.8405, 24.05153
393.3226, 23.71810
393.8047, 22.79071
394.2869, 22.22093
394.7690, 22.95861
395.2511, 23.77412
395.7332, 23.83641
396.2154, 22.54196
396.6975, 21.48883
397.1796, 21.01938
397.6617, 20.99312
398.1438, 21.16494
398.6259, 21.75442
399.1081, 22.29159
399.5902, 22.66917
400.0723, 22.88877
400.5544, 22.92689
401.0365, 22.62317
401.5186, 22.25586
402.0008, 22.07188
402.4829, 22.24503
402.9650, 22.25422
403.4471, 21.93200
403.9292, 21.40267
404.4113, 21.23567
404.8935, 21.58094
405.3756, 21.94011
405.8577, 22.05862
406.3398, 21.91360
406.8219, 21.65540
407.3040, 21.21402
407.7862, 20.79618
408.2683, 20.73075
408.7504, 21.02678
409.2325, 21.39622
409.7146, 21.89962
410.1967, 22.36593
410.6789, 22.02731
411.1610, 20.84825
411.6431, 19.79083
412.1252, 19.95402
412.6073, 20.92241
413.0894, 21.48134
413.5716, 21.28750
414.0537, 20.82368
414.5358, 20.52947
415.0179, 20.42583
415.5000, 20.57274
415.9821, 21.27339
416.4643, 22.09345
416.9464, 22.55968
417.4285, 22.61800
417.9106, 22.56716
418.3927, 22.69616
418.8748, 22.79358
419.3570, 22.60711
419.8391, 21.52243
420.3212, 20.64783
420.8033, 20.63610
421.2854, 21.30096
421.7675, 21.75822
422.2497, 21.52149
422.7318, 21.16879
423.2139, 21.00497
423.6960, 21.12826
424.1781, 21.30146
424.6602, 21.54951
425.1424, 21.82087
425.6245, 22.02924
426.1066, 21.95450
426.5887, 22.10090
427.0709, 22.72077
427.5530, 23.81343
428.0351, 24.39255
428.5172, 24.21100
428.9993, 23.86148
429.4814, 23.73211
429.9636, 23.81803
430.4457, 24.23456
430.9278, 25.24749
431.4099, 26.34231
431.8920, 26.20518
432.3741, 24.67092
432.8563, 23.17587
433.3384, 22.40940
433.8205, 22.26640
434.3026, 22.03128
434.7847, 21.68130
435.2668, 21.40855
435.7490, 21.54697
436.2311, 21.95553
436.7132, 22.10844
437.1953, 21.78261
437.6774, 21.25896
438.1595, 20.88272
438.6417, 20.63068
439.1238, 20.40664
439.6059, 20.12432
440.0880, 19.85505
440.5701, 19.66904
441.0522, 19.57336
441.5344, 19.56395
442.0165, 19.71443
442.4986, 19.92441
442.9807, 20.07007
443.4628, 20.05352
443.9449, 20.02091
444.4271, 20.01529
444.9092, 20.03755
445.3913, 20.08808
445.8734, 20.37856
446.3555, 20.53424
446.8376, 20.32823
447.3198, 19.44243
447.8019, 18.79105
448.2840, 18.36102
448.7661, 18.19044
449.2482, 18.37968
449.7303, 19.24529
450.2125, 19.91780
450.6946, 20.11139
451.1767, 19.88061
451.6588, 20.10993
452.1409, 21.05602
452.6230, 21.87212
453.1052, 21.87242
453.5873, 20.99296
454.0694, 20.08747
454.5515, 19.14119
455.0337, 18.36275
455.5158, 18.25062
455.9979, 18.75843
456.4800, 19.21542
456.9621, 19.30430
457.4442, 19.15583
457.9264, 19.02465
458.4085, 18.91410
458.8906, 18.91512
459.3727, 19.32014
459.8548, 19.83341
460.3369, 19.93531
460.8191, 19.39709
461.3012, 18.70973
461.7833, 18.13679
462.2654, 17.70949
462.7475, 17.49356
463.2296, 17.54813
463.7118, 17.79384
464.1939, 18.33813
464.6760, 19.19692
465.1581, 19.71511
465.6402, 19.28468
466.1223, 18.67920
466.6045, 18.44781
467.0866, 19.18373
467.5687, 19.65176
468.0508, 19.67488
468.5329, 19.39887
469.0150, 19.13483
469.4972, 18.86377
469.9793, 18.63950
470.4614, 18.49767
470.9435, 18.44483
471.4256, 18.34788
471.9077, 18.20847
472.3899, 18.02243
472.8720, 17.73981
473.3541, 17.33633
473.8362, 17.07118
474.3183, 16.93796
474.8004, 17.02057
475.2826, 17.66175
475.7647, 18.81225
476.2468, 19.77203
476.7289, 20.10690
477.2110, 20.01452
477.6931, 19.98366
478.1753, 20.01799
478.6574, 19.80215
479.1395, 18.65475
479.6216, 17.20850
480.1037, 16.43001
480.5858, 16.76128
481.0680, 17.44883
481.5501, 18.11051
482.0322, 18.74339
482.5143, 19.33498
482.9964, 20.20435
483.4786, 20.75281
483.9607, 20.44595
484.4428, 19.17031
484.9249, 18.41716
485.4070, 18.86313
485.8892, 19.69157
486.3713, 20.34941
486.8534, 21.16566
487.3355, 21.26724
487.8176, 20.17237
488.2997, 18.50574
488.7819, 17.63917
489.2640, 17.95123
489.7461, 18.18381
490.2282, 17.77186
490.7103, 16.79112
491.1924, 16.74281
491.6746, 17.81071
492.1567, 19.04881
492.6388, 19.69164
493.1209, 19.77653
493.6030, 19.51687
494.0851, 18.85746
494.5673, 18.09761
495.0494, 17.59698
495.5315, 17.34887
496.0136, 17.34652
496.4957, 17.78485
496.9778, 18.34686
497.4600, 18.63606
497.9421, 18.68276
498.4242, 18.81237
498.9063, 19.33809
499.3884, 19.96619
499.8705, 20.48709
500.3527, 20.93623
500.8348, 21.07151
501.3169, 20.54444
501.7990, 19.71970
502.2811, 19.10675
502.7632, 19.17896
503.2454, 19.06567
503.7275, 18.33133
504.2096, 17.08435
504.6917, 16.52045
505.1738, 16.90947
505.6559, 17.61828
506.1381, 18.44440
506.6202, 19.58766
507.1023, 19.95150
507.5844, 19.31548
508.0665, 18.29952
508.5486, 17.74207
509.0308, 17.65172
509.5129, 17.55733
509.9950, 17.24582
510.4771, 16.94165
510.9592, 17.29938
511.4413, 18.24076
511.9235, 19.03104
512.4056, 19.00796
512.8877, 18.61363
513.3698, 18.62659
513.8519, 19.14483
514.3340, 19.42785
514.8162, 18.54977
515.2983, 17.26636
515.7804, 16.49516
516.2625, 16.84823
516.7446, 17.32840
517.2267, 17.56540
517.7089, 17.63398
518.1910, 17.71381
518.6731, 17.75053
519.1552, 17.89292
519.6373, 18.36506
520.1194, 19.26871
520.6016, 19.42312
521.0837, 18.17828
521.5658, 16.90747
522.0479, 16.74410
522.5300, 18.16664
523.0121, 18.89242
523.4943, 18.56112
523.9764, 17.74821
524.4585, 17.56067
524.9406, 18.01953
525.4227, 18.25812
525.9048, 17.78275
526.3870, 16.96416
526.8691, 16.76822
527.3513, 17.16410
527.8334, 17.68154
528.3155, 18.06540
528.7976, 18.33252
529.2797, 18.55057
529.7618, 18.75951
530.2440, 18.73250
530.7261, 17.97323
531.2082, 16.98711
531.6903, 16.43442
532.1724, 16.75520
532.6545, 17.29445
533.1367, 18.05767
533.6188, 18.91103
534.1009, 19.41236
534.5830, 19.22360
535.0651, 18.92370
535.5472, 18.67467
536.0294, 18.47012
536.5115, 18.35740
536.9936, 18.37897
537.4757, 18.43317
537.9578, 18.40509
538.4399, 18.25649
538.9221, 18.31795
539.4042, 18.72733
539.8863, 19.18035
540.3684, 18.97301
540.8505, 18.17789
541.3326, 17.68453
541.8148, 18.14330
542.2969, 18.95292
542.7790, 18.83661
543.2611, 17.92909
543.7432, 17.29942
544.2253, 18.13180
544.7075, 19.36493
545.1896, 19.83858
545.6717, 19.28122
546.1538, 18.61597
546.6359, 18.24990
547.1180, 18.02982
547.6002, 17.79818
548.0823, 17.38925
548.5644, 17.11417
549.0465, 16.99695
549.5286, 17.05179
550.0107, 17.36532
550.4929, 18.38918
550.9750, 18.97452
551.4571, 18.56786
551.9392, 17.15942
552.4213, 16.40781
552.9034, 16.41899
553.3856, 16.73529
553.8677, 17.11362
554.3498, 17.52989
554.8319, 17.58817
555.3140, 17.14132
555.7961, 16.73230
556.2783, 17.32463
556.7604, 18.55567
557.2425, 19.39222
557.7246, 19.35547
558.2067, 18.86206
558.6888, 17.87408
559.1710, 16.66880
559.6531, 16.21163
560.1352, 18.10531
560.6173, 19.99749
561.0994, 20.27481
561.5815, 18.59330
562.0637, 17.24939
562.5458, 16.74131
563.0279, 16.70437
563.5100, 16.86966
563.9921, 17.41438
564.4742, 17.85893
564.9564, 18.23671
565.4385, 18.47544
565.9206, 18.40849
566.4027, 17.98091
566.8848, 17.50490
567.3669, 16.99493
567.8491, 16.54063
568.3312, 16.59092
568.8133, 17.12162
569.2954, 17.49595
569.7775, 17.04464
570.2596, 16.22933
570.7418, 15.92042
571.2239, 16.17525
571.7060, 16.62653
572.1881, 17.17801
572.6702, 17.69110
573.1523, 18.01610
573.6345, 18.08489
574.1166, 18.01016
574.5987, 17.73958
575.0808, 17.37116
575.5629, 17.06254
576.0450, 16.52564
576.5272, 16.43512
577.0093, 17.19226
577.4914, 18.59808
577.9735, 19.31515
578.4556, 19.09849
578.9377, 18.68735
579.4199, 18.44906
579.9020, 18.39264
580.3841, 18.09022
580.8662, 17.48244
581.3483, 16.95051
581.8304, 17.07599
582.3126, 17.62733
582.7947, 17.71060
583.2768, 17.01096
583.7589, 16.26234
584.2410, 16.38212
584.7231, 17.01607
585.2053, 17.46315
585.6874, 17.29280
586.1696, 16.98095
586.6517, 16.60448
587.1338, 16.24899
587.6159, 16.27551
588.0980, 17.39987
588.5801, 18.37137
589.0623, 18.54408
589.5444, 17.75881
590.0265, 17.24868
590.5086, 17.06996
590.9907, 17.09452
591.4728, 17.27746
591.9550, 17.66247
592.4371, 17.90919
592.9192, 17.97376
593.4013, 17.93594
593.8834, 17.82971
594.3655, 17.68929
594.8477, 17.76220
595.3298, 18.28250
595.8119, 18.85712
596.2940, 18.92372
596.7761, 18.58239
597.2582, 18.17156
597.7404, 17.76464
598.2225, 17.43272
598.7046, 17.28763
599.1867, 17.33047
599.6688, 17.25927
600.1509, 16.81887
600.6331, 16.35367
601.1152, 16.09531
601.5973, 16.16897
602.0794, 16.14082
602.5615, 15.83609
603.0436, 15.59755
603.5258, 15.90557
604.0079, 16.90362
604.4900, 17.70068
604.9721, 18.20914
605.4542, 18.35785
605.9363, 17.69127
606.4185, 16.33983
606.9006, 15.41896
607.3827, 15.71448
607.8648, 16.57501
608.3469, 17.13574
608.8290, 17.42766
609.3112, 17.59350
609.7933, 17.48831
610.2754, 17.45438
610.7575, 17.91223
611.2396, 19.01278
611.7217, 19.66012
612.2039, 19.26140
612.6860, 18.46732
613.1681, 17.74710
613.6502, 16.95352
614.1323, 16.54626
614.6144, 16.69804
615.0966, 17.09415
615.5787, 17.27657
616.0608, 17.20760
616.5429, 17.18332
617.0250, 17.34612
617.5071, 17.51055
617.9893, 17.05267
618.4714, 16.07907
618.9535, 15.43397
619.4356, 15.82597
619.9177, 16.63822
620.3998, 17.17168
620.8820, 17.41763
621.3641, 17.41347
621.8462, 16.70851
622.3283, 16.08571
622.8104, 16.28251
623.2925, 17.71950
623.7747, 18.62391
624.2568, 18.16303
624.7389, 17.36206
625.2210, 17.04312
625.7031, 17.40836
626.1852, 17.85421
626.6674, 18.47272
627.1495, 19.01166
627.6316, 18.93015
628.1137, 18.19662
628.5958, 17.62761
629.0779, 17.49639
629.5601, 17.62096
630.0422, 17.68649
630.5243, 17.69906
631.0064, 17.68950
631.4885, 17.72887
631.9706, 17.71760
632.4528, 17.49087
632.9349, 17.07455
633.4170, 16.76816
633.8991, 16.78622
634.3812, 16.89250
634.8633, 16.91986
635.3455, 16.76424
635.8276, 16.82159
636.3097, 17.16574
636.7918, 17.66308
637.2739, 18.31069
637.7560, 19.29413
638.2382, 19.53973
638.7203, 18.70610
639.2024, 17.59529
639.6845, 17.58146
640.1666, 18.51692
640.6487, 19.19874
641.1309, 19.26230
641.6130, 18.90518
642.0951, 18.16286
642.5772, 17.19610
643.0594, 16.49100
643.5415, 16.26139
644.0236, 16.37615
644.5057, 17.06482
644.9879, 18.20545
645.4700, 18.72036
645.9521, 17.63752
646.4342, 16.53652
646.9163, 16.13030
647.3984, 16.52956
647.8806, 16.84658
648.3627, 17.01746
648.8448, 17.23141
649.3269, 17.74114
649.8090, 18.54540
650.2911, 19.01917
650.7733, 19.10455
651.2554, 18.94123
651.7375, 18.57986
652.2196, 18.10375
652.7017, 17.67967
653.1838, 17.24111
653.6660, 17.09148
654.1481, 17.87595
654.6302, 19.04513
655.1123, 19.63710
655.5944, 18.59938
656.0765, 17.70514
656.5587, 17.62902
657.0408, 18.19279
657.5229, 18.49187
658.0050, 18.30261
658.4871, 18.22663
658.9692, 18.53635
659.4514, 19.17988
659.9335, 19.57468
660.4156, 19.70485
660.8977, 19.71185
661.3798, 19.84925
661.8619, 19.92604
662.3441, 19.15325
662.8262, 17.45523
663.3083, 16.12230
663.7904, 16.59592
664.2725, 17.78945
664.7546, 18.47445
665.2368, 18.19802
665.7189, 17.96947
666.2010, 18.35640
666.6831, 18.86637
667.1652, 18.89968
667.6473, 17.81282
668.1295, 17.30926
668.6116, 17.70594
669.0937, 18.59808
669.5758, 19.25471
670.0579, 19.68318
670.5400, 19.82635
671.0222, 19.58449
671.5043, 19.13564
671.9864, 18.78559
672.4685, 18.54034
672.9506, 18.43024
673.4327, 18.61026
673.9149, 18.83389
674.3970, 18.83455
674.8791, 18.64536
675.3612, 18.53857
675.8433, 18.67931
676.3254, 18.88153
676.8076, 19.10225
677.2897, 19.37809
677.7718, 19.36516
678.2539, 18.86871
678.7360, 18.35681
679.2181, 18.17885
679.7003, 18.38013
680.1824, 18.43288
680.6645, 18.29213
681.1466, 18.13186
681.6287, 18.08299
682.1108, 18.16654
682.5930, 18.54421
683.0751, 19.40383
683.5572, 20.02356
684.0393, 19.42737
684.5214, 18.31531
685.0035, 17.68679
685.4857, 18.39200
685.9678, 19.00075
686.4499, 19.09774
686.9320, 18.86038
687.4141, 18.70528
687.8962, 18.75819
688.3784, 18.62746
688.8605, 18.08242
689.3426, 17.35247
689.8247, 17.37904
690.3068, 18.19756
690.7889, 18.82865
691.2711, 18.62311
691.7532, 17.99045
692.2353, 17.70939
692.7174, 17.75460
693.1995, 17.95066
693.6816, 18.33609
694.1638, 18.72463
694.6459, 18.95118
695.1280, 18.99683
695.6101, 19.06290
696.0922, 19.24626
696.5743, 19.42425
697.0565, 19.55967
697.5386, 19.70032
698.0207, 19.53872
698.5028, 18.91052
698.9849, 18.32878
699.4670, 18.41952
699.9492, 19.09374
700.4313, 19.41697
700.9135, 19.26946
701.3956, 18.83612
701.8777, 18.04092
702.3598, 17.16043
702.8419, 16.67250
703.3240, 16.76620
703.8062, 17.15751
704.2883, 18.08235
704.7704, 19.10378
705.2525, 19.56692
705.7346, 18.80013
706.2167, 18.17624
706.6989, 17.74627
707.1810, 17.57203
707.6631, 17.91296
708.1452, 18.88623
708.6273, 19.62143
709.1094, 19.76018
709.5916, 19.59274
710.0737, 19.90533
710.5558, 20.57219
711.0379, 20.95628
711.5200, 20.46167
712.0021, 19.72188
712.4843, 19.23698
712.9664, 18.99290
713.4485, 18.86394
713.9306, 18.91318
714.4127, 18.96868
714.8948, 18.91403
715.3770, 18.74383
715.8591, 18.77526
716.3412, 19.20655
716.8233, 19.44772
717.3054, 18.97274
717.7875, 17.82911
718.2697, 17.43511
718.7518, 17.82874
719.2339, 18.41280
719.7160, 18.83902
720.1981, 19.05799
720.6802, 18.85059
721.1624, 18.13619
721.6445, 17.66640
722.1266, 18.03125
722.6087, 18.75491
723.0908, 19.46002
723.5729, 20.19688
724.0551, 20.65405
724.5372, 20.72982
725.0193, 20.60872
725.5014, 20.43060
725.9835, 20.16196
726.4656, 20.08244
726.9478, 20.28604
727.4299, 20.50811
727.9120, 20.27065
728.3941, 19.72707
728.8762, 19.36716
729.3583, 19.32940
729.8405, 19.51044
730.3226, 20.06737
730.8047, 20.73485
731.2868, 21.05845
731.7689, 20.76620
732.2510, 20.27781
732.7332, 19.29794
733.2153, 18.26423
733.6974, 18.19373
734.1795, 19.59365
734.6616, 20.54374
735.1437, 20.44283
735.6259, 19.69911
736.1080, 19.26716
736.5901, 19.13959
737.0722, 19.25841
737.5543, 19.88174
738.0364, 20.51777
738.5186, 20.42613
739.0007, 19.81513
739.4828, 19.42695
739.9649, 19.85516
740.4470, 20.31498
740.9291, 20.47217
741.4113, 20.32212
741.8934, 20.08224
742.3755, 19.62062
742.8576, 19.31520
743.3397, 19.39673
743.8218, 19.79381
744.3040, 19.93452
744.7861, 19.81682
745.2682, 19.49508
745.7503, 18.55886
746.2324, 17.62817
746.7145, 18.05943
747.1967, 19.77872
747.6788, 21.06302
748.1609, 20.46835
748.6430, 19.49251
749.1251, 19.06831
749.6072, 19.35507
750.0894, 19.93474
750.5715, 21.17353
751.0536, 22.18552
751.5357, 22.29361
752.0178, 21.40259
752.4999, 20.73918
752.9821, 20.28946
753.4642, 20.14242
753.9463, 20.55239
754.4284, 21.28866
754.9105, 21.94842
755.3926, 22.50431
755.8748, 22.78819
756.3569, 22.58370
756.8390, 22.12718
757.3211, 21.57755
757.8032, 20.73677
758.2853, 20.34876
758.7675, 20.65856
759.2496, 21.20792
759.7318, 21.70420
760.2139, 22.21352
760.6960, 21.96707
761.1781, 20.70108
761.6602, 19.40343
762.1423, 19.45867
762.6245, 20.40589
763.1066, 21.15152
763.5887, 21.45505
764.0708, 21.52299
764.5529, 21.24982
765.0350, 20.92109
765.5172, 20.87528
765.9993, 21.37586
766.4814, 21.93680
766.9635, 22.76922
767.4456, 23.46268
767.9277, 23.40022
768.4099, 22.46067
768.8920, 21.50876
769.3741, 20.60605
769.8562, 19.91935
770.3383, 19.74950
770.8204, 19.98489
771.3026, 20.33883
771.7847, 20.77627
772.2668, 21.20685
772.7489, 21.65169
773.2310, 22.02970
773.7131, 22.20890
774.1953, 21.96702
774.6774, 21.77098
775.1595, 21.62123
775.6416, 21.57363
776.1237, 21.77576
776.6058, 22.26779
777.0880, 22.72276
777.5701, 23.10285
778.0522, 23.32779
778.5343, 23.20684
779.0164, 22.81056
779.4985, 22.33800
779.9807, 21.81744
780.4628, 21.31542
780.9449, 20.75748
781.4270, 20.26283
781.9091, 20.06661
782.3912, 20.35951
782.8734, 20.80772
783.3555, 21.49530
783.8376, 22.25240
784.3197, 22.61248
784.8018, 22.54836
785.2839, 22.45822
785.7661, 22.50880
786.2482, 22.53877
786.7303, 22.09906
787.2124, 21.39917
787.6945, 21.02355
788.1766, 21.59490
788.6588, 22.20754
789.1409, 22.35271
789.6230, 22.18138
790.1051, 22.14976
790.5872, 22.60095
791.0693, 22.70332
791.5515, 22.12323
792.0336, 21.17616
792.5157, 20.80837
792.9978, 21.02214
793.4799, 21.36248
793.9620, 21.67223
794.4442, 22.00726
794.9263, 22.52601
795.4084, 23.14789
795.8905, 23.65448
796.3726, 24.31474
796.8547, 24.45588
797.3369, 23.29298
797.8190, 21.33525
798.3011, 20.35775
798.7832, 20.87150
799.2653, 21.37281
799.7474, 21.45288
800.2296, 21.31637
800.7117, 21.67995
801.1938, 22.47335
801.6759, 22.91251
802.1580, 22.43109
802.6401, 21.68900
803.1223, 21.25717
803.6044, 21.17056
804.0865, 21.52065
804.5686, 23.21469
805.0507, 24.38710
805.5328, 23.93872
806.0150, 22.56753
806.4971, 22.14981
806.9792, 23.04000
807.4613, 23.73474
807.9434, 23.75941
808.4255, 23.40597
808.9077, 23.38076
809.3898, 23.59506
809.8719, 23.65173
810.3540, 23.36751
810.8361, 22.86551
811.3182, 21.91084
811.8004, 20.82793
812.2825, 20.36182
812.7646, 21.42151
813.2467, 22.24460
813.7288, 22.46546
814.2109, 22.25884
814.6931, 21.93246
815.1752, 21.41752
815.6573, 21.48208
816.1394, 22.61285
816.6215, 24.00231
817.1037, 24.29440
817.5858, 23.74118
818.0679, 23.01021
818.5500, 22.06009
819.0322, 21.35363
819.5143, 21.17443
819.9964, 21.39747
820.4785, 21.82720
820.9606, 22.82611
821.4427, 23.26673
821.9249, 22.79377
822.4070, 21.86506
822.8891, 21.37882
823.3712, 21.31315
823.8533, 21.45914
824.3354, 21.84432
824.8176, 22.23249
825.2997, 22.23670
825.7818, 22.08004
826.2639, 22.14410
826.7460, 22.91364
827.2281, 23.48505
827.7103, 23.59129
828.1924, 23.42183
828.6745, 23.18303
829.1566, 22.84060
829.6387, 22.56397
830.1208, 22.36591
830.6030, 22.27396
831.0851, 22.40908
831.5672, 22.68710
832.0493, 22.87452
832.5314, 22.89083
833.0135, 22.84773
833.4957, 22.78076
833.9778, 22.71507
834.4599, 22.67947
834.9420, 22.70334
835.4241, 22.72709
835.9063, 22.75075
836.3884, 22.77471
836.8705, 22.83270
837.3526, 22.92026
837.8347, 22.86330
838.3168, 22.63506
838.7990, 22.28227
839.2811, 21.59167
839.7632, 20.91094
840.2453, 20.77382
840.7274, 21.42804
841.2095, 22.12315
841.6917, 22.87582
842.1738, 23.36402
842.6559, 23.32136
843.1380, 22.57161
843.6201, 21.82165
844.1022, 20.96032
844.5844, 20.48196
845.0665, 21.25952
845.5486, 22.74996
846.0307, 23.33403
846.5128, 22.85330
846.9949, 22.30983
847.4771, 22.54597
847.9592, 22.86424
848.4413, 22.61722
848.9234, 21.54157
849.4055, 21.02250
849.8876, 21.35455
850.3698, 21.83264
850.8519, 22.04430
851.3340, 22.01670
851.8161, 22.10502
852.2982, 22.30802
852.7803, 22.48162
853.2625, 22.52101
853.7446, 22.47525
854.2267, 22.31788
854.7088, 22.07743
855.1909, 22.03555
855.6730, 22.58156
856.1552, 23.02649
856.6373, 23.02929
857.1194, 22.67200
857.6015, 22.76615
858.0836, 23.42990
858.5657, 23.63140
859.0479, 22.46798
859.5300, 20.81760
860.0121, 20.46036
860.4942, 21.12476
860.9763, 21.87662
861.4584, 22.28869
861.9406, 22.62772
862.4227, 23.21436
862.9048, 23.82298
863.3869, 23.61658
863.8690, 21.97683
864.3511, 21.13329
864.8333, 21.89504
865.3154, 23.36386
865.7975, 23.65185
866.2796, 22.95942
866.7617, 22.16950
867.2438, 21.58045
867.7260, 20.99967
868.2081, 19.90679
868.6902, 18.83017
869.1723, 18.56647
869.6544, 20.22908
870.1365, 21.39071
870.6187, 21.83466
871.1008, 21.83579
871.5829, 21.66210
872.0650, 21.32745
872.5471, 21.13928
873.0292, 21.17066
873.5114, 21.21539
873.9935, 21.04720
874.4756, 20.77253
874.9577, 20.49650
875.4399, 20.17584
875.9220, 20.05763
876.4041, 20.42576
876.8862, 20.83223
877.3683, 20.98928
877.8505, 20.86343
878.3326, 20.66438
878.8147, 20.36561
879.2968, 20.18709
879.7789, 20.56948
880.2610, 21.09508
880.7432, 20.86230
881.2253, 19.86354
881.7074, 19.32427
882.1895, 20.59854
882.6716, 21.78206
883.1537, 21.63123
883.6359, 20.23779
884.1180, 19.42896
884.6001, 19.30367
885.0822, 19.33029
885.5643, 19.29611
886.0464, 19.21354
886.5286, 19.10673
887.0107, 18.97687
887.4928, 18.82745
887.9749, 18.61748
888.4570, 18.43590
888.9391, 18.37549
889.4213, 18.38165
889.9034, 18.23421
890.3855, 17.67874
890.8676, 17.63648
891.3497, 18.53576
891.8318, 19.69093
892.3140, 19.69153
892.7961, 18.80315
893.2782, 18.05015
893.7603, 17.71903
894.2424, 17.66469
894.7245, 17.95185
895.2067, 18.38304
895.6888, 18.72201
896.1709, 18.95632
896.6530, 19.05867
897.1351, 19.08358
897.6172, 18.88898
898.0994, 17.98084
898.5815, 16.57216
899.0636, 16.58445
899.5457, 18.28551
900.0278, 19.77082
900.5099, 19.03389
900.9921, 17.65698
901.4742, 17.17972
901.9563, 17.93367
902.4384, 18.33916
902.9205, 17.96303
903.4026, 17.58547
903.8848, 17.61704
904.3669, 17.99032
904.8490, 18.14307
905.3311, 18.07817
905.8132, 17.91138
906.2953, 17.70312
906.7775, 17.43229
907.2596, 16.97735
907.7417, 16.42546
908.2238, 16.06963
908.7059, 16.07343
909.1880, 16.21253
909.6702, 16.55170
910.1523, 16.92788
910.6344, 16.89882
911.1165, 16.47350
911.5986, 16.06811
912.0807, 15.77973
912.5629, 15.59601
913.0450, 15.49316
913.5271, 15.48881
914.0092, 15.63643
914.4913, 16.21974
914.9734, 16.43842
915.4556, 15.79941
915.9377, 15.11194
916.4198, 15.17225
916.9019, 16.03227
917.3840, 16.76278
917.8661, 17.32927
918.3483, 17.65763
918.8304, 17.48980
919.3125, 17.15936
919.7946, 17.12814
920.2767, 17.44595
920.7589, 17.63800
921.2410, 17.39749
921.7231, 17.17774
922.2052, 17.21548
922.6873, 17.45365
923.1694, 17.35329
923.6516, 16.90703
924.1337, 16.39915
924.6158, 15.77541
925.0979, 15.34028
925.5800, 15.69444
926.0621, 16.55832
926.5443, 17.23916
927.0264, 17.46273
927.5085, 17.50574
927.9906, 17.32745
928.4727, 17.08408
928.9548, 17.06223
929.4370, 17.27172
929.9191, 17.45607
930.4012, 17.60595
930.8833, 17.56316
931.3654, 16.82342
931.8475, 15.92091
932.3297, 15.65417
932.8118, 16.39725
933.2939, 16.97270
933.7761, 16.98117
934.2582, 16.86832
934.7403, 16.91300
935.2224, 17.12369
935.7045, 17.06854
936.1866, 16.73806
936.6688, 16.39271
937.1509, 16.25836
937.6330, 16.17849
938.1151, 15.78658
938.5972, 15.21935
939.0793, 15.19537
939.5615, 16.74822
940.0436, 17.87615
940.5257, 18.03308
941.0078, 17.47372
941.4899, 16.69804
941.9720, 15.72542
942.4542, 15.05594
942.9363, 14.78179
943.4184, 14.97234
943.9005, 16.21916
944.3826, 17.77075
944.8647, 18.57639
945.3469, 17.88162
945.8290, 17.36387
946.3111, 17.25658
946.7932, 17.24710
947.2753, 17.11081
947.7574, 16.84255
948.2396, 16.23055
948.7217, 15.26169
949.2038, 14.65523
949.6859, 15.31237
950.1680, 16.32969
950.6501, 16.96725
951.1323, 17.18487
951.6144, 17.21894
952.0965, 17.17505
952.5786, 16.81260
953.0607, 15.86385
953.5428, 14.67529
954.0250, 14.38672
954.5071, 14.86714
954.9892, 15.34389
955.4713, 15.46479
955.9534, 15.57204
956.4355, 16.06774
956.9177, 16.65518
957.3998, 16.89579
957.8819, 16.50895
958.3640, 16.21733
958.8461, 16.06111
959.3282, 15.94797
959.8104, 15.76569
960.2925, 15.54734
960.7746, 15.35611
961.2567, 15.19972
961.7388, 15.28539
962.2209, 16.13761
962.7031, 16.94845
963.1852, 17.08046
963.6673, 16.54968
964.1494, 16.16145
964.6315, 15.94532
965.1136, 15.77593
965.5958, 15.58255
966.0779, 15.43401
966.5600, 15.55424
967.0421, 15.83748
967.5242, 15.99174
968.0063, 15.83904
968.4885, 15.62775
968.9706, 15.46243
969.4527, 15.27954
969.9348, 14.94221
970.4169, 14.34151
970.8990, 14.14712
971.3812, 14.41528
971.8633, 14.98257
972.3454, 16.01457
972.8275, 17.07821
973.3096, 17.47554
973.7917, 17.14662
974.2739, 16.71895
974.7560, 16.36534
975.2381, 15.99701
975.7202, 15.48200
976.2023, 14.92503
976.6844, 15.00272
977.1666, 15.70436
977.6487, 16.04268
978.1308, 15.30788
978.6129, 14.52661
979.0950, 15.12404
979.5771, 16.32147
980.0593, 16.84376
980.5414, 15.43432
981.0235, 14.71264
981.5056, 14.95556
981.9877, 15.64658
982.4698, 16.49825
982.9520, 17.40116
983.4341, 17.52437
983.9162, 16.82435
984.3983, 16.08329
984.8804, 15.76564
985.3625, 15.69740
985.8447, 15.86652
986.3268, 16.23862
986.8089, 16.35028
987.2910, 16.09350
987.7731, 15.87561
988.2552, 15.82968
988.7374, 15.89648
989.2195, 16.11877
989.7016, 16.34870
990.1837, 16.11812
990.6658, 14.77282
991.1479, 13.93577
991.6301, 14.83866
992.1122, 16.21329
992.5944, 16.80826
993.0765, 16.45371
993.5586, 16.13656
994.0407, 15.84333
994.5228, 15.77125
995.0049, 16.44864
995.4871, 17.22261
995.9692, 17.02108
996.4513, 15.97996
996.9334, 15.30995
997.4155, 15.64068
997.8976, 16.12813
998.3798, 16.76864
998.8619, 17.29814
999.3440, 16.78910
999.8261, 15.40238
1000.308, 14.77468
1000.790, 15.52273
1001.272, 16.48206
1001.755, 16.68398
1002.237, 16.57915
1002.719, 16.69870
1003.201, 17.34444
1003.683, 17.34251
1004.165, 16.40158
1004.647, 15.54659
1005.129, 15.47887
1005.612, 15.99717
1006.094, 16.68576
1006.576, 17.46618
1007.058, 18.00216
1007.540, 18.14439
1008.022, 17.97283
1008.504, 17.16488
1008.986, 16.19737
1009.468, 15.94237
1009.951, 16.50133
1010.433, 17.00735
1010.915, 17.36406
1011.397, 17.48993
1011.879, 17.14320
1012.361, 16.59533
1012.843, 16.12926
1013.325, 15.77158
1013.807, 15.68278
1014.290, 16.08125
1014.772, 16.45576
1015.254, 16.57248
1015.736, 16.49268
1016.218, 16.49383
1016.700, 16.54864
1017.182, 16.49425
1017.664, 16.15063
1018.147, 15.81430
1018.629, 15.55060
1019.111, 15.46829
1019.593, 15.77884
1020.075, 16.75719
1020.557, 17.21886
1021.039, 17.00728
1021.521, 16.70666
1022.003, 17.03164
1022.486, 17.58448
1022.968, 17.52739
1023.450, 16.88610
1023.932, 16.48575
1024.414, 17.03157
1024.896, 17.41953
1025.378, 17.23985
1025.860, 16.68526
1026.343, 16.28479
1026.825, 16.03486
1027.307, 15.76952
1027.789, 15.38936
1028.271, 15.16104
1028.753, 15.49432
1029.235, 16.01675
1029.717, 16.26340
1030.199, 15.99476
1030.682, 16.18990
1031.164, 17.06754
1031.646, 17.80071
1032.128, 17.73604
1032.610, 17.20618
1033.092, 17.02441
1033.574, 17.13467
1034.056, 17.33759
1034.539, 17.58007
1035.021, 17.85887
1035.503, 18.33133
1035.985, 18.73643
1036.467, 18.63771
1036.949, 18.01861
1037.431, 17.55348
1037.913, 17.30700
1038.396, 17.34315
1038.878, 18.13938
1039.360, 18.94297
1039.842, 18.99556
1040.324, 18.22537
1040.806, 17.38166
1041.288, 16.36319
1041.770, 15.59815
1042.252, 15.17859
1042.734, 15.12727
1043.217, 15.77833
1043.699, 16.81488
1044.181, 17.37348
1044.663, 16.99593
1045.145, 16.59417
1045.627, 16.45435
1046.109, 16.49081
1046.591, 16.69189
1047.074, 17.07074
1047.556, 17.22916
1048.038, 17.16766
1048.520, 17.13282
1049.002, 17.34131
1049.484, 17.60019
1049.966, 17.92349
1050.448, 18.15757
1050.931, 17.81358
1051.413, 16.34679
1051.895, 15.48905
1052.377, 15.54299
1052.859, 15.97059
1053.341, 16.23312
1053.823, 16.33869
1054.305, 16.23153
1054.787, 15.90489
1055.270, 15.73288
1055.752, 16.03802
1056.234, 16.36899
1056.716, 16.51743
1057.198, 16.54105
1057.680, 16.74645
1058.162, 17.10405
1058.644, 17.10407
1059.126, 16.43872
1059.609, 15.73125
1060.091, 15.44797
1060.573, 15.48485
1061.055, 15.79419
1061.537, 16.48569
1062.019, 16.96414
1062.501, 17.22297
1062.983, 17.29260
1063.466, 17.02077
1063.948, 16.66396
1064.430, 16.93297
1064.912, 17.54119
1065.394, 17.62833
1065.876, 15.94079
1066.358, 15.00648
1066.840, 15.59360
1067.323, 16.65493
1067.805, 16.87147
1068.287, 16.36549
1068.769, 15.92592
1069.251, 15.61865
1069.733, 15.53417
1070.215, 15.91447
1070.697, 16.37936
1071.179, 16.77288
1071.661, 17.04027
1072.144, 16.88155
1072.626, 16.20806
1073.108, 15.71482
1073.590, 15.58238
1074.072, 15.69902
1074.554, 16.25124
1075.036, 16.81143
1075.518, 16.65516
1076.001, 15.34279
1076.483, 14.90610
1076.965, 15.99198
1077.447, 16.88859
1077.929, 16.49174
1078.411, 15.40041
1078.893, 15.42881
1079.375, 16.28114
1079.858, 16.99438
1080.340, 17.05886
1080.822, 17.09300
1081.304, 17.40922
1081.786, 17.70987
1082.268, 17.65071
1082.750, 17.22049
1083.232, 17.15146
1083.714, 17.45547
1084.197, 17.70114
1084.679, 17.46419
1085.161, 17.15714
1085.643, 17.26944
1086.125, 17.56086
1086.607, 17.15434
1087.089, 15.64382
1087.571, 14.90955
1088.054, 15.35177
1088.536, 16.15047
1089.018, 16.36122
1089.500, 16.30081
1089.982, 16.45552
1090.464, 16.88404
1090.946, 17.16981
1091.428, 17.18596
1091.911, 17.12980
1092.393, 17.07636
1092.875, 16.97135
1093.357, 16.61957
1093.839, 16.10545
1094.321, 15.68037
1094.803, 15.41648
1095.285, 15.24138
1095.767, 15.10972
1096.250, 15.07323
1096.732, 15.12343
1097.214, 15.27079
1097.696, 15.96324
1098.178, 17.15442
1098.660, 17.84246
1099.142, 17.20634
1099.624, 16.24603
1100.106, 15.48442
1100.589, 14.99141
1101.071, 14.89904
1101.553, 15.34474
1102.035, 15.68691
1102.517, 15.90203
1102.999, 16.08056
1103.481, 16.21441
1103.963, 16.40919
1104.446, 17.06501
1104.928, 17.95647
1105.410, 18.12961
1105.892, 16.72242
1106.374, 15.66909
1106.856, 15.20228
1107.338, 15.20836
1107.820, 15.74692
1108.302, 16.58357
1108.785, 17.21439
1109.267, 17.57572
1109.749, 17.69631
1110.231, 17.39003
1110.713, 17.07133
1111.195, 16.89423
1111.677, 16.80975
1112.159, 16.66273
1112.641, 16.47304
1113.124, 16.39098
1113.606, 16.49490
1114.088, 16.53181
1114.570, 16.23499
1115.052, 15.87789
1115.534, 15.61380
1116.016, 15.45497
1116.498, 15.84924
1116.981, 16.83285
1117.463, 17.28223
1117.945, 16.26644
1118.427, 15.21044
1118.909, 15.82444
1119.391, 17.18004
1119.873, 17.92957
1120.355, 17.69509
1120.838, 17.62364
1121.320, 17.80791
1121.802, 17.75452
1122.284, 16.77456
1122.766, 15.56757
1123.248, 15.25785
1123.730, 15.59245
1124.212, 15.86800
1124.694, 15.91446
1125.177, 15.79541
1125.659, 15.39840
1126.141, 15.07012
1126.623, 15.22645
1127.105, 15.72927
1127.587, 16.38638
1128.069, 17.11020
1128.551, 17.37425
1129.033, 16.36633
1129.516, 15.59913
1129.998, 15.53304
1130.480, 15.87039
1130.962, 16.19418
1131.444, 16.48395
1131.926, 16.69080
1132.408, 16.81583
1132.890, 16.66177
1133.373, 15.63249
1133.855, 14.76808
1134.337, 14.73041
1134.819, 15.29728
1135.301, 15.83128
1135.783, 16.31964
1136.265, 16.45995
1136.747, 16.11378
1137.229, 15.64467
1137.712, 15.08890
1138.194, 14.75025
1138.676, 15.09631
1139.158, 16.11395
1139.640, 16.47964
1140.122, 16.12224
1140.604, 15.82170
1141.086, 15.88692
1141.569, 16.16341
1142.051, 16.73719
1142.533, 17.29187
1143.015, 17.35623
1143.497, 16.67172
1143.979, 16.11353
1144.461, 15.63978
1144.943, 15.49119
1145.426, 16.15687
1145.908, 16.95502
1146.390, 16.56416
1146.872, 15.48982
1147.354, 14.78500
1147.836, 15.00964
1148.318, 15.26709
1148.800, 15.56783
1149.282, 15.81808
1149.765, 15.86211
1150.247, 15.82591
1150.729, 16.07244
1151.211, 16.51930
1151.693, 16.80412
1152.175, 16.69470
1152.657, 16.55561
1153.139, 16.57493
1153.621, 16.40189
1154.104, 15.17035
1154.586, 13.43152
1155.068, 13.29591
1155.550, 14.75305
1156.032, 16.12749
1156.514, 17.11650
1156.996, 17.13912
1157.478, 15.49173
1157.961, 13.40784
1158.443, 13.36306
1158.925, 14.95968
1159.407, 15.93691
1159.889, 15.96524
1160.371, 15.85797
1160.853, 16.16745
1161.335, 16.38978
1161.818, 16.10299
1162.300, 15.59989
1162.782, 15.86693
1163.264, 16.82391
1163.746, 17.53633
1164.228, 17.82243
1164.710, 17.72555
1165.192, 16.89254
1165.674, 16.01882
1166.156, 15.57757
1166.639, 15.54693
1167.121, 16.07415
1167.603, 17.14849
1168.085, 17.42127
1168.567, 16.15241
1169.049, 14.89581
1169.531, 15.12170
1170.013, 15.93158
1170.496, 16.46550
1170.978, 16.68438
1171.460, 16.92967
1171.942, 17.22281
1172.424, 17.14729
1172.906, 16.27551
1173.388, 15.38537
1173.870, 15.41367
1174.353, 14.98677
1174.835, 14.98599
1175.317, 15.25848
1175.799, 15.33814
1176.281, 16.21322
1176.763, 16.63530
1177.245, 15.30019
1177.727, 13.80509
1178.209, 14.28928
1178.692, 15.77163
1179.174, 16.55258
1179.656, 16.10233
1180.138, 15.90273
1180.620, 16.01621
1181.102, 16.05007
1181.584, 15.55617
1182.066, 14.94639
1182.548, 14.62883
1183.031, 14.62563
1183.513, 15.03833
1183.995, 16.35968
1184.477, 16.89996
1184.959, 16.45361
1185.441, 15.77013
1185.923, 15.31889
1186.405, 15.16062
1186.888, 15.60378
1187.370, 16.43873
1187.852, 16.91197
1188.334, 16.71856
1188.816, 16.52309
1189.298, 16.39246
1189.780, 16.24070
1190.262, 15.81489
1190.745, 15.40580
1191.227, 15.61073
1191.709, 16.30673
1192.191, 16.67658
1192.673, 16.23983
1193.155, 16.15203
1193.637, 16.70684
1194.119, 17.26846
1194.601, 17.01658
1195.084, 16.30017
1195.566, 15.55361
1196.048, 14.84479
1196.530, 14.44670
1197.012, 14.38376
1197.494, 14.73300
1197.976, 15.69482
1198.458, 16.63284
1198.941, 16.52077
1199.423, 15.81747
1199.905, 15.16987
1200.387, 14.66041
1200.869, 14.62929
1201.351, 15.51115
1201.833, 16.06046
1202.315, 15.84412
1202.797, 15.42819
1203.280, 15.86163
1203.762, 16.68250
1204.244, 17.07099
1204.726, 16.88549
1205.208, 16.66694
1205.690, 16.49815
1206.172, 16.32902
1206.654, 16.12637
1207.136, 15.94534
1207.619, 15.83328
1208.101, 15.82862
1208.583, 16.08361
1209.065, 16.69729
1209.547, 16.92564
1210.029, 16.37125
1210.511, 16.13238
1210.993, 16.79660
1211.476, 17.67457
1211.958, 17.21741
1212.440, 16.16197
1212.922, 15.97639
1213.404, 17.22217
1213.886, 17.80289
1214.368, 17.32491
1214.850, 16.59023
1215.333, 15.77180
1215.815, 15.12708
1216.297, 15.39234
1216.779, 16.08451
1217.261, 16.27829
1217.743, 15.58736
1218.225, 15.15930
1218.707, 15.12495
1219.189, 15.27610
1219.672, 15.64950
1220.154, 15.97888
1220.636, 15.44748
1221.118, 14.62221
1221.600, 14.60551
1222.082, 16.08976
1222.564, 16.96706
1223.046, 17.02332
1223.528, 16.83047
1224.011, 16.62332
1224.493, 16.41607
1224.975, 16.19382
1225.457, 16.00248
1225.939, 15.92523
1226.421, 16.03196
1226.903, 16.14506
1227.385, 16.29945
1227.868, 16.32239
1228.350, 16.02922
1228.832, 15.64771
1229.314, 15.50684
1229.796, 15.53501
1230.278, 15.61903
1230.760, 15.75033
1231.242, 15.90498
1231.724, 16.08141
1232.207, 16.30176
1232.689, 16.75792
1233.171, 17.07378
1233.653, 16.53850
1234.135, 15.60696
1234.617, 15.03487
1235.099, 14.92356
1235.581, 15.24258
1236.063, 16.09325
1236.546, 16.64800
1237.028, 16.02318
1237.510, 15.22839
1237.992, 15.35343
1238.474, 16.03071
1238.956, 16.70133
1239.438, 17.41362
1239.920, 17.67297
1240.403, 17.44260
1240.885, 17.21679
1241.367, 17.52593
1241.849, 17.75023
1242.331, 17.11771
1242.813, 16.16197
1243.295, 15.68929
1243.777, 15.78276
1244.260, 15.98048
1244.742, 16.28433
1245.224, 16.64922
1245.706, 17.25754
1246.188, 17.69426
1246.670, 17.46440
1247.152, 17.80912
1247.634, 17.04373
1248.116, 17.60843
1248.599, 17.53429
1249.081, 16.87031
1249.563, 16.42291
1250.045, 16.94704
1250.527, 17.50372
1251.009, 17.57882
1251.491, 17.44306
1251.973, 17.36734
1252.455, 17.34655
1252.938, 17.17905
1253.420, 16.90158
1253.902, 16.80738
1254.384, 17.02113
1254.866, 17.51208
1255.348, 18.72489
1255.830, 19.74914
1256.313, 19.53541
1256.795, 18.34385
1257.277, 17.77146
1257.759, 17.76295
1258.241, 17.94762
1258.723, 18.34725
1259.205, 18.64669
1259.687, 18.79509
1260.169, 18.82434
1260.651, 18.69213
1261.134, 18.47586
1261.616, 18.41726
1262.098, 18.49773
1262.580, 18.64069
1263.062, 19.13647
1263.544, 19.10005
1264.026, 18.16899
1264.508, 17.39226
1264.991, 18.04219
1265.473, 19.23811
1265.955, 19.04266
1266.437, 17.98666
1266.919, 17.51255
1267.401, 18.55009
1267.883, 19.17489
1268.365, 19.33735
1268.848, 19.17736
1269.330, 18.57261
1269.812, 17.88819
1270.294, 17.56509
1270.776, 17.52699
1271.258, 17.61585
1271.740, 17.78766
1272.222, 18.20473
1272.704, 18.91734
1273.187, 19.40441
1273.669, 19.22779
1274.151, 18.74619
1274.633, 17.98462
1275.115, 17.26746
1275.597, 17.11128
1276.079, 17.61634
1276.561, 18.07963
1277.043, 18.48828
1277.526, 18.60501
1278.008, 17.71965
1278.490, 17.14817
1278.972, 18.22313
1279.454, 19.59867
1279.936, 19.82943
1280.418, 18.95850
1280.900, 18.23682
1281.383, 17.69435
1281.865, 17.50490
1282.347, 18.21716
1282.829, 18.62646
1283.311, 18.04350
1283.793, 17.36520
1284.275, 17.31761
1284.757, 17.72756
1285.240, 17.87893
1285.722, 17.84918
1286.204, 17.89015
1286.686, 18.22710
1287.168, 18.39167
1287.650, 18.28147
1288.132, 18.13116
1288.614, 18.14917
1289.096, 18.20206
1289.578, 17.85027
1290.061, 17.35916
1290.543, 17.28558
1291.025, 17.94298
1291.507, 18.70528
1291.989, 19.66420
1292.471, 20.29061
1292.953, 20.18350
1293.435, 19.71241
1293.918, 19.07180
1294.400, 18.47440
1294.882, 18.33086
1295.364, 18.73986
1295.846, 18.53274
1296.328, 17.69306
1296.810, 17.23696
1297.292, 17.87824
1297.775, 18.63176
1298.257, 18.58514
1298.739, 18.43987
1299.221, 18.98807
1299.703, 20.09143
1300.185, 20.22238
1300.667, 19.51180
1301.149, 18.67067
1301.631, 17.76250
1302.114, 17.31474
1302.596, 17.55634
##END=



