##NAMES=Pyrite
##RRUFFID=R080030
##IDEAL CHEMISTRY=Fe^2+^(S_2_)^2-^
##LOCALITY=Schaft 209, Aue, Niederschlema, Erzgebirge, Saxony, Germany
##OWNER=RRUFF
##SOURCE=William W. Pinch
##DESCRIPTION=Dark-bronze and blue, tarnished pseudohexagonal prisms; bright grey when a fresh surface is exposed. Associated with wire silver. These crystals were labeled argentopyrite, but are pseudomorphs.
##STATUS=The identification of this mineral has been confirmed by X-ray diffraction and chemical analysis
##URL=rruff.info/R080030
##MEASURED CHEMISTRY=Fe_1.04_Ag_0.01_As_0.08_S_2_
158.8006, 34.81247
159.2827, 35.41468
159.7648, 35.91580
160.2469, 36.19547
160.7290, 36.26033
161.2112, 36.16902
161.6933, 35.66031
162.1754, 35.13396
162.6575, 34.92238
163.1396, 35.67091
163.6217, 36.26599
164.1039, 36.12664
164.5860, 35.26153
165.0681, 34.43073
165.5502, 33.95649
166.0323, 33.71155
166.5145, 33.54354
166.9966, 33.22076
167.4787, 33.08801
167.9608, 33.48819
168.4429, 34.46473
168.9250, 35.35595
169.4072, 35.68901
169.8893, 35.68596
170.3714, 35.69751
170.8535, 35.99068
171.3356, 36.29273
171.8177, 36.39322
172.2999, 36.27532
172.7820, 35.97428
173.2641, 35.37878
173.7462, 34.61324
174.2283, 33.94207
174.7104, 33.44458
175.1926, 33.12304
175.6747, 33.00779
176.1568, 33.11966
176.6389, 33.34602
177.1210, 33.60437
177.6031, 33.89360
178.0853, 34.21215
178.5674, 34.70432
179.0495, 35.19177
179.5316, 35.36133
180.0137, 35.11108
180.4958, 34.71447
180.9780, 34.43424
181.4601, 34.26878
181.9422, 34.21434
182.4243, 34.44429
182.9064, 34.77515
183.3885, 34.71466
183.8707, 34.03231
184.3528, 33.25096
184.8349, 33.20907
185.3170, 33.85065
185.7991, 34.61764
186.2812, 35.24702
186.7633, 35.70551
187.2455, 35.83431
187.7276, 35.51556
188.2097, 34.98610
188.6918, 34.67115
189.1739, 34.57198
189.6560, 34.55017
190.1382, 34.53299
190.6203, 34.51533
191.1024, 34.45620
191.5845, 34.33089
192.0666, 34.17757
192.5487, 34.10118
193.0309, 34.11004
193.5130, 34.11227
193.9951, 34.01012
194.4772, 33.81107
194.9593, 33.64404
195.4414, 33.49872
195.9236, 33.41677
196.4057, 33.59600
196.8878, 34.07536
197.3699, 34.58581
197.8520, 34.91188
198.3341, 35.05468
198.8163, 35.05090
199.2984, 34.82774
199.7805, 34.47322
200.2626, 34.44952
200.7447, 34.83152
201.2268, 35.25755
201.7090, 35.28873
202.1911, 34.85802
202.6732, 34.71385
203.1553, 35.21169
203.6374, 36.17490
204.1195, 36.29390
204.6017, 35.33056
205.0838, 34.16133
205.5659, 33.72823
206.0480, 34.18294
206.5301, 34.49865
207.0122, 34.35966
207.4944, 33.82928
207.9765, 33.64536
208.4586, 33.92200
208.9407, 34.31101
209.4228, 34.39662
209.9049, 34.05651
210.3871, 33.90960
210.8692, 34.19120
211.3513, 34.87171
211.8334, 35.25740
212.3155, 35.27736
212.7976, 35.12034
213.2798, 34.93984
213.7619, 34.66453
214.2440, 34.60369
214.7261, 34.94991
215.2082, 35.70819
215.6903, 36.00677
216.1725, 35.70012
216.6546, 35.13488
217.1367, 34.62831
217.6188, 34.07429
218.1009, 33.87508
218.5830, 34.28389
219.0652, 35.36404
219.5473, 35.82652
220.0294, 35.37599
220.5115, 34.67732
220.9936, 34.53664
221.4757, 35.21569
221.9579, 35.83988
222.4400, 36.17143
222.9221, 36.17752
223.4042, 36.34765
223.8863, 36.81415
224.3684, 37.30414
224.8506, 37.49413
225.3327, 37.26624
225.8148, 36.98546
226.2969, 36.73222
226.7790, 36.50703
227.2611, 36.26243
227.7433, 35.93681
228.2254, 35.64928
228.7075, 35.55520
229.1896, 35.77129
229.6717, 35.94520
230.1538, 35.96260
230.6360, 35.79454
231.1181, 35.80240
231.6002, 36.09734
232.0823, 36.46247
232.5644, 36.65427
233.0465, 36.62232
233.5287, 36.50676
234.0108, 36.28075
234.4929, 35.91245
234.9750, 35.82235
235.4571, 36.25642
235.9392, 36.73435
236.4214, 36.67141
236.9035, 35.60434
237.3856, 34.86594
237.8677, 34.85417
238.3498, 35.64507
238.8319, 36.09514
239.3141, 35.99792
239.7962, 35.75279
240.2783, 35.79462
240.7604, 36.33553
241.2425, 36.76225
241.7246, 36.92936
242.2068, 36.82348
242.6889, 36.71732
243.1710, 36.55284
243.6531, 36.44355
244.1352, 36.52034
244.6173, 36.90933
245.0995, 37.24575
245.5816, 37.47896
246.0637, 37.60946
246.5458, 37.57787
247.0279, 37.26223
247.5100, 36.90934
247.9922, 36.77100
248.4743, 36.98552
248.9564, 37.12992
249.4385, 37.08725
249.9206, 36.86473
250.4027, 36.81466
250.8848, 37.02810
251.3670, 37.31115
251.8491, 37.50432
252.3312, 37.61825
252.8133, 37.60986
253.2954, 37.38530
253.7775, 36.97339
254.2597, 36.88903
254.7418, 37.31871
255.2239, 37.84026
255.7060, 38.08880
256.1881, 37.88363
256.6703, 37.85326
257.1524, 38.17046
257.6345, 38.77273
258.1166, 39.11821
258.5987, 39.15174
259.0808, 39.00677
259.5630, 38.72124
260.0451, 38.16384
260.5272, 37.84871
261.0093, 37.89805
261.4914, 38.24737
261.9735, 38.54942
262.4557, 38.78287
262.9378, 39.00230
263.4199, 39.28288
263.9020, 39.72367
264.3841, 39.87978
264.8662, 39.58764
265.3484, 39.00604
265.8305, 38.73708
266.3126, 38.84998
266.7947, 39.13286
267.2768, 39.53307
267.7589, 40.17022
268.2411, 40.43766
268.7232, 40.13393
269.2053, 39.52082
269.6874, 39.39571
270.1695, 39.89652
270.6516, 40.51676
271.1338, 41.00558
271.6159, 41.36060
272.0980, 41.62684
272.5801, 41.82339
273.0622, 41.91898
273.5443, 41.75373
274.0265, 41.21337
274.5086, 40.82841
274.9907, 40.97528
275.4728, 41.75108
275.9549, 42.17565
276.4370, 42.11254
276.9192, 41.85212
277.4013, 41.95324
277.8834, 42.47607
278.3655, 43.03036
278.8476, 43.47709
279.3297, 43.82180
279.8118, 44.02731
280.2939, 44.08252
280.7761, 44.02235
281.2582, 43.76674
281.7403, 43.26900
282.2224, 43.11776
282.7045, 43.68849
283.1866, 44.90472
283.6688, 45.89033
284.1509, 46.65808
284.6330, 47.15783
285.1151, 47.17363
285.5972, 46.70666
286.0793, 46.46330
286.5615, 46.75943
287.0436, 47.47980
287.5257, 48.08395
288.0078, 48.55766
288.4899, 49.00304
288.9720, 49.53842
289.4542, 50.15563
289.9363, 50.77489
290.4184, 51.40825
290.9005, 52.01201
291.3826, 52.39236
291.8647, 52.53076
292.3469, 52.77419
292.8290, 53.51516
293.3111, 54.65472
293.7932, 55.78804
294.2753, 56.87200
294.7574, 57.84753
295.2396, 58.53560
295.7217, 58.95094
296.2038, 59.29605
296.6859, 59.57681
297.1680, 59.89402
297.6501, 60.55358
298.1323, 61.66980
298.6144, 63.05071
299.0965, 64.56966
299.5786, 66.20021
300.0607, 67.66521
300.5428, 68.63492
301.0250, 69.37047
301.5071, 70.42376
301.9892, 71.95647
302.4713, 73.57112
302.9534, 74.80627
303.4355, 75.74854
303.9177, 76.73479
304.3998, 77.93302
304.8819, 79.27329
305.3640, 80.68398
305.8461, 82.19736
306.3282, 83.62476
306.8104, 84.83108
307.2925, 85.83871
307.7746, 86.66660
308.2567, 87.12305
308.7388, 87.52550
309.2209, 88.23227
309.7031, 89.27271
310.1852, 90.27972
310.6673, 90.85586
311.1494, 91.27963
311.6315, 91.94751
312.1136, 93.29455
312.5958, 94.72861
313.0779, 95.83712
313.5600, 96.63418
314.0421, 97.43369
314.5242, 98.40042
315.0063, 99.44418
315.4885, 100.4657
315.9706, 101.2363
316.4527, 102.1948
316.9348, 103.7129
317.4169, 105.6606
317.8990, 107.4568
318.3812, 108.7779
318.8633, 109.9225
319.3454, 111.1114
319.8275, 112.6542
320.3096, 113.8451
320.7917, 114.5996
321.2739, 114.8664
321.7560, 114.5110
322.2381, 113.2777
322.7202, 111.5905
323.2023, 109.5773
323.6844, 107.0641
324.1666, 104.6798
324.6487, 102.8372
325.1308, 101.1462
325.6129, 99.01047
326.0950, 95.72090
326.5771, 92.55683
327.0593, 89.88181
327.5414, 87.76551
328.0235, 85.89546
328.5056, 84.11330
328.9877, 82.64262
329.4698, 81.73508
329.9520, 81.65224
330.4341, 81.81863
330.9162, 82.24102
331.3983, 82.93274
331.8804, 83.46178
332.3625, 83.68698
332.8447, 83.86803
333.3268, 84.18703
333.8089, 84.62127
334.2910, 85.24800
334.7731, 86.13787
335.2552, 87.24629
335.7374, 88.27470
336.2195, 89.10064
336.7016, 90.05623
337.1837, 91.43096
337.6658, 93.45322
338.1479, 95.06828
338.6301, 96.10886
339.1122, 96.78324
339.5943, 97.53082
340.0764, 98.34187
340.5585, 99.24069
341.0406, 100.4092
341.5228, 101.9353
342.0049, 102.5889
342.4870, 102.2951
342.9691, 101.2999
343.4512, 99.90739
343.9333, 98.09858
344.4155, 95.95472
344.8976, 93.22438
345.3797, 90.15154
345.8618, 88.20351
346.3439, 87.44744
346.8260, 87.25612
347.3082, 86.98766
347.7903, 86.70338
348.2724, 86.82044
348.7545, 87.50713
349.2366, 88.59174
349.7188, 89.79098
350.2009, 91.11069
350.6830, 92.47775
351.1651, 93.83720
351.6472, 95.21268
352.1293, 96.60587
352.6115, 97.96516
353.0936, 99.43556
353.5757, 101.4096
354.0578, 103.7031
354.5399, 105.7053
355.0220, 106.7066
355.5042, 107.3916
355.9863, 108.6273
356.4684, 110.5307
356.9505, 112.5878
357.4326, 114.5830
357.9147, 116.4342
358.3969, 118.0024
358.8790, 118.9758
359.3611, 119.8547
359.8432, 121.1272
360.3253, 122.7727
360.8074, 124.0909
361.2896, 124.6384
361.7717, 124.7458
362.2538, 124.7174
362.7359, 124.7034
363.2180, 124.4967
363.7001, 123.9832
364.1823, 123.2046
364.6644, 122.3264
365.1465, 121.0553
365.6286, 119.9440
366.1107, 119.3556
366.5928, 119.7721
367.0750, 119.8518
367.5571, 119.0109
368.0392, 117.7641
368.5213, 116.9969
369.0034, 117.2575
369.4855, 117.5687
369.9677, 117.6643
370.4498, 117.4946
370.9319, 117.3329
371.4140, 117.0336
371.8961, 116.8297
372.3782, 116.9599
372.8604, 117.5701
373.3425, 118.2734
373.8246, 119.1710
374.3067, 120.1739
374.7888, 120.5850
375.2709, 120.2888
375.7531, 119.5959
376.2352, 118.7079
376.7173, 117.6741
377.1994, 116.3289
377.6815, 114.7913
378.1636, 112.8074
378.6458, 109.6664
379.1279, 105.1598
379.6100, 100.5129
380.0921, 96.06905
380.5742, 91.86102
381.0563, 88.29978
381.5385, 85.46230
382.0206, 83.00484
382.5027, 80.53425
382.9848, 78.06009
383.4669, 75.89633
383.9490, 74.16164
384.4312, 72.76905
384.9133, 71.63691
385.3954, 70.75574
385.8775, 69.73013
386.3596, 68.11914
386.8417, 66.15586
387.3239, 64.29906
387.8060, 62.66499
388.2881, 61.15576
388.7702, 59.53545
389.2523, 57.92334
389.7344, 56.68913
390.2166, 56.52388
390.6987, 56.55071
391.1808, 55.76568
391.6629, 53.95070
392.1450, 52.23785
392.6271, 51.45364
393.1093, 51.18882
393.5914, 50.91274
394.0735, 50.42871
394.5556, 49.89391
395.0377, 49.40130
395.5198, 48.94135
396.0020, 48.39345
396.4841, 47.56919
396.9662, 46.73782
397.4483, 46.08717
397.9304, 45.90541
398.4125, 45.55114
398.8947, 44.63975
399.3768, 43.48082
399.8589, 42.83931
400.3410, 43.30250
400.8231, 43.79051
401.3052, 43.98737
401.7874, 43.83321
402.2695, 43.61366
402.7516, 43.31709
403.2337, 42.96335
403.7158, 42.54152
404.1979, 41.90989
404.6800, 41.51938
405.1621, 41.49456
405.6443, 41.79273
406.1264, 42.14362
406.6085, 42.62894
407.0906, 42.96162
407.5727, 42.88421
408.0548, 42.36055
408.5370, 41.83721
409.0191, 41.29260
409.5012, 40.88359
409.9833, 41.07224
410.4654, 41.85085
410.9475, 42.43007
411.4297, 42.29085
411.9118, 41.64388
412.3939, 41.21120
412.8760, 41.00888
413.3581, 40.90443
413.8402, 40.84240
414.3224, 40.78410
414.8045, 40.61234
415.2866, 40.19165
415.7687, 39.76807
416.2508, 39.68268
416.7329, 39.86757
417.2151, 40.01792
417.6972, 39.89850
418.1793, 39.68588
418.6614, 39.53292
419.1435, 39.45501
419.6256, 39.47571
420.1078, 39.69492
420.5899, 40.00214
421.0720, 40.24202
421.5541, 40.41375
422.0362, 40.45510
422.5183, 40.30853
423.0005, 39.97709
423.4826, 39.61369
423.9647, 39.15843
424.4468, 38.74265
424.9289, 38.46070
425.4110, 38.34902
425.8932, 38.33535
426.3753, 38.51786
426.8574, 38.78856
427.3395, 38.88573
427.8216, 38.67768
428.3037, 38.47657
428.7859, 38.47407
429.2680, 38.77584
429.7501, 38.45072
430.2322, 37.16872
430.7143, 35.73267
431.1964, 35.11770
431.6786, 35.51111
432.1607, 35.73917
432.6428, 35.54458
433.1249, 35.05005
433.6070, 34.62414
434.0891, 34.26899
434.5713, 33.96424
435.0534, 33.74527
435.5355, 33.58088
436.0176, 33.27093
436.4997, 32.76220
436.9818, 32.27628
437.4640, 32.11502
437.9461, 32.20222
438.4282, 32.29692
438.9103, 32.32190
439.3924, 32.28887
439.8745, 32.16283
440.3567, 31.96220
440.8388, 31.83157
441.3209, 32.01022
441.8030, 32.24035
442.2851, 32.21325
442.7672, 31.71423
443.2494, 31.29166
443.7315, 31.41550
444.2136, 31.79711
444.6957, 31.91060
445.1778, 31.14115
445.6599, 30.47697
446.1421, 30.41087
446.6242, 31.03191
447.1063, 31.47484
447.5884, 31.55550
448.0705, 31.44992
448.5526, 31.28405
449.0348, 30.95797
449.5169, 30.72338
449.9990, 30.66548
450.4811, 30.69692
450.9632, 30.55471
451.4453, 30.14093
451.9275, 29.74134
452.4096, 29.49919
452.8917, 29.44430
453.3738, 29.15328
453.8559, 28.49847
454.3380, 27.91593
454.8202, 28.02594
455.3023, 28.83665
455.7844, 29.39408
456.2665, 29.41377
456.7486, 29.13476
457.2307, 29.08595
457.7129, 29.24949
458.1950, 29.38316
458.6771, 29.31237
459.1592, 29.10714
459.6413, 28.88180
460.1234, 28.63678
460.6056, 28.44784
461.0877, 28.37408
461.5698, 28.40244
462.0519, 28.51169
462.5340, 28.81399
463.0161, 29.08349
463.4983, 29.17134
463.9804, 29.09841
464.4625, 28.96294
464.9446, 28.58865
465.4267, 28.31980
465.9088, 28.44401
466.3910, 29.24849
466.8731, 29.74222
467.3552, 29.42770
467.8373, 28.80044
468.3194, 28.49228
468.8015, 28.94007
469.2837, 29.22222
469.7658, 29.13686
470.2479, 28.72735
470.7300, 28.41992
471.2121, 28.19629
471.6942, 28.10247
472.1764, 28.22025
472.6585, 28.62803
473.1406, 28.81965
473.6227, 28.72386
474.1048, 28.50924
474.5869, 28.39548
475.0691, 28.38233
475.5512, 28.51697
476.0333, 28.95468
476.5154, 29.47468
476.9975, 29.41690
477.4796, 28.80617
477.9618, 28.16056
478.4439, 27.84913
478.9260, 27.76951
479.4081, 27.77722
479.8902, 27.88695
480.3723, 27.92302
480.8545, 27.46950
481.3366, 26.87279
481.8187, 26.73065
482.3008, 27.88890
482.7829, 29.04764
483.2650, 29.41201
483.7472, 29.06506
484.2293, 28.72285
484.7114, 28.69128
485.1935, 28.69057
485.6756, 28.54176
486.1577, 28.10203
486.6399, 27.76479
487.1220, 27.65626
487.6041, 27.63249
488.0862, 27.50128
488.5683, 27.11919
489.0504, 26.86625
489.5326, 26.84640
490.0147, 27.03091
490.4968, 27.21426
490.9789, 27.41326
491.4610, 27.56187
491.9431, 27.61576
492.4253, 27.57349
492.9074, 27.45602
493.3895, 27.23598
493.8716, 27.02536
494.3537, 26.99526
494.8358, 27.12000
495.3180, 27.24558
495.8001, 27.28976
496.2822, 27.33009
496.7643, 27.57065
497.2464, 27.96140
497.7285, 28.20135
498.2107, 27.87014
498.6928, 27.41079
499.1749, 27.33428
499.6570, 27.78506
500.1391, 28.22008
500.6212, 28.37280
501.1034, 28.33370
501.5855, 28.20971
502.0676, 27.70257
502.5497, 27.46353
503.0318, 27.94894
503.5139, 28.96490
503.9961, 29.42239
504.4782, 28.74074
504.9603, 28.00360
505.4424, 27.63951
505.9245, 27.78179
506.4066, 27.70258
506.8888, 27.24654
507.3709, 26.76666
507.8530, 26.67990
508.3351, 27.06677
508.8172, 27.41370
509.2993, 27.66785
509.7815, 27.79116
510.2636, 27.55418
510.7457, 26.96182
511.2278, 26.58213
511.7099, 26.94393
512.1920, 27.71681
512.6741, 28.07047
513.1563, 27.97664
513.6384, 27.80955
514.1205, 27.89606
514.6026, 28.10940
515.0847, 28.26990
515.5668, 28.33304
516.0490, 28.32744
516.5311, 28.21192
517.0132, 28.04373
517.4953, 27.93843
517.9774, 28.05119
518.4595, 28.12916
518.9417, 27.97651
519.4238, 27.56458
519.9059, 27.44630
520.3880, 28.03775
520.8701, 28.66348
521.3522, 28.96189
521.8344, 28.80993
522.3165, 28.57207
522.7986, 28.21638
523.2807, 27.80182
523.7628, 27.41140
524.2449, 27.02215
524.7271, 26.75225
525.2092, 26.62918
525.6913, 26.65372
526.1734, 26.92931
526.6555, 27.46410
527.1376, 27.85667
527.6198, 27.59838
528.1019, 27.01090
528.5840, 26.88723
529.0661, 27.34036
529.5482, 27.93345
530.0303, 28.43665
530.5125, 28.77862
530.9946, 28.84986
531.4767, 28.46057
531.9588, 27.96555
532.4409, 27.41649
532.9230, 26.89635
533.4052, 26.62917
533.8873, 26.85863
534.3694, 27.20762
534.8515, 27.55563
535.3336, 27.91908
535.8157, 28.15695
536.2979, 28.26514
536.7800, 28.25567
537.2621, 28.12151
537.7442, 27.79888
538.2263, 27.48838
538.7084, 27.10396
539.1906, 26.83495
539.6727, 27.20752
540.1548, 28.30070
540.6369, 29.09586
541.1190, 29.07917
541.6011, 28.55763
542.0833, 28.53419
542.5654, 28.98136
543.0475, 29.31410
543.5296, 28.91045
544.0117, 28.17814
544.4938, 27.78744
544.9760, 27.85712
545.4581, 27.99500
545.9402, 27.96323
546.4223, 27.80863
546.9044, 27.59124
547.3865, 27.10713
547.8687, 26.79922
548.3508, 26.97428
548.8329, 27.46395
549.3150, 27.72904
549.7971, 27.33388
550.2792, 27.05959
550.7614, 27.22590
551.2435, 27.89282
551.7256, 28.26641
552.2077, 28.24736
552.6898, 28.08279
553.1719, 27.93181
553.6541, 27.78527
554.1362, 27.76178
554.6183, 27.92869
555.1004, 28.09909
555.5825, 27.84546
556.0646, 27.25391
556.5468, 26.92373
557.0289, 27.24610
557.5110, 27.80260
557.9931, 27.93214
558.4752, 27.70188
558.9573, 27.46400
559.4395, 27.35067
559.9216, 27.37428
560.4037, 27.66902
560.8858, 28.31439
561.3679, 28.62324
561.8500, 27.86023
562.3322, 26.87996
562.8143, 26.41457
563.2964, 27.19794
563.7785, 27.73763
564.2606, 27.81625
564.7427, 27.63264
565.2249, 27.57425
565.7070, 27.70259
566.1891, 27.82678
566.6712, 27.90341
567.1533, 27.93233
567.6354, 27.87832
568.1176, 27.71224
568.5997, 27.64313
569.0818, 28.01153
569.5639, 28.62967
570.0460, 28.61689
570.5281, 27.84860
571.0103, 27.04049
571.4924, 26.89402
571.9745, 27.20347
572.4566, 27.64237
572.9387, 28.28597
573.4208, 28.74958
573.9030, 28.60857
574.3851, 28.11123
574.8672, 27.80291
575.3493, 28.16750
575.8314, 28.45817
576.3135, 28.27112
576.7957, 27.59705
577.2778, 27.31110
577.7599, 27.71118
578.2420, 28.19628
578.7241, 28.45599
579.2062, 28.43707
579.6884, 28.41605
580.1705, 28.39524
580.6526, 28.36766
581.1347, 28.29363
581.6168, 28.17775
582.0989, 28.19597
582.5811, 28.45590
583.0632, 28.73837
583.5453, 28.60327
584.0274, 28.16566
584.5095, 27.85200
584.9916, 28.04159
585.4738, 28.34162
585.9559, 28.32346
586.4380, 28.02780
586.9201, 27.84733
587.4022, 28.08676
587.8843, 28.41104
588.3665, 28.57302
588.8486, 28.43439
589.3307, 28.47895
589.8128, 29.12062
590.2949, 29.75257
590.7770, 29.78231
591.2592, 28.79519
591.7413, 28.18236
592.2234, 28.16660
592.7055, 28.52171
593.1876, 28.79161
593.6697, 28.97481
594.1519, 29.09740
594.6340, 29.17038
595.1161, 29.18735
595.5982, 29.15221
596.0803, 29.05792
596.5624, 28.83556
597.0446, 28.15115
597.5267, 27.44801
598.0088, 27.41516
598.4909, 28.15799
598.9730, 28.80344
599.4551, 28.80675
599.9373, 28.52232
600.4194, 28.27057
600.9015, 28.06036
601.3836, 27.96506
601.8657, 27.91510
602.3478, 28.01437
602.8300, 28.49644
603.3121, 29.83209
603.7942, 30.61704
604.2763, 30.43801
604.7584, 29.52618
605.2405, 28.75661
605.7227, 28.12632
606.2048, 27.63298
606.6869, 27.11334
607.1690, 26.71771
607.6511, 27.20407
608.1332, 28.57827
608.6154, 29.73626
609.0975, 29.45648
609.5796, 28.55665
610.0617, 28.17855
610.5438, 28.65451
611.0259, 29.17091
611.5081, 29.29422
611.9902, 29.20384
612.4723, 29.11363
612.9544, 29.08858
613.4365, 29.04715
613.9186, 28.90133
614.4008, 28.73911
614.8829, 28.81125
615.3650, 29.33442
615.8471, 29.63029
616.3292, 29.40904
616.8113, 28.76779
617.2935, 28.38909
617.7756, 28.28560
618.2577, 28.30917
618.7398, 28.40450
619.2219, 28.54366
619.7040, 28.63552
620.1862, 28.67056
620.6683, 28.73327
621.1504, 28.98919
621.6325, 29.27636
622.1146, 29.38493
622.5967, 29.19782
623.0789, 28.97790
623.5610, 28.82133
624.0431, 28.70701
624.5252, 28.60457
625.0073, 28.39206
625.4894, 28.34347
625.9716, 28.60912
626.4537, 29.05542
626.9358, 29.20890
627.4179, 28.93794
627.9000, 28.73920
628.3821, 28.86808
628.8643, 29.24574
629.3464, 29.34694
629.8285, 29.16741
630.3106, 28.86719
630.7927, 28.44661
631.2748, 28.01763
631.7570, 27.83003
632.2391, 27.92142
632.7212, 28.05098
633.2033, 28.04099
633.6854, 27.97314
634.1675, 27.92853
634.6497, 27.89124
635.1318, 27.94057
635.6139, 28.28183
636.0960, 28.66998
636.5781, 28.69505
637.0602, 27.92594
637.5424, 27.51550
638.0245, 27.78997
638.5066, 28.48679
638.9887, 28.75968
639.4708, 28.54828
639.9529, 28.30093
640.4351, 28.21199
640.9172, 28.23670
641.3993, 28.20646
641.8814, 28.13127
642.3635, 28.15288
642.8456, 28.48456
643.3278, 28.91158
643.8099, 29.20168
644.2920, 29.32755
644.7741, 29.31376
645.2562, 28.99855
645.7383, 28.64906
646.2205, 28.49900
646.7026, 28.73519
647.1847, 28.91770
647.6668, 29.02682
648.1489, 29.07091
648.6310, 29.03280
649.1132, 28.84891
649.5953, 28.82236
650.0774, 29.07110
650.5595, 29.42750
651.0416, 29.48536
651.5237, 29.26628
652.0059, 29.08359
652.4880, 29.13164
652.9701, 29.25335
653.4522, 29.13741
653.9343, 28.85117
654.4164, 28.71909
654.8986, 29.26008
655.3807, 29.76298
655.8628, 29.57126
656.3449, 28.57353
656.8270, 27.98898
657.3091, 28.43710
657.7913, 29.09016
658.2734, 29.47852
658.7555, 29.51130
659.2376, 29.55928
659.7197, 29.63342
660.2018, 29.70321
660.6840, 29.77065
661.1661, 29.83184
661.6482, 29.66131
662.1303, 29.11481
662.6124, 28.64848
663.0945, 29.13463
663.5767, 30.19854
664.0588, 30.89775
664.5409, 30.73153
665.0230, 30.24948
665.5051, 29.61398
665.9872, 28.94758
666.4694, 28.55302
666.9515, 28.95447
667.4336, 29.20327
667.9157, 28.73602
668.3978, 27.70959
668.8799, 27.38586
669.3621, 28.08013
669.8442, 28.87515
670.3263, 29.40076
670.8084, 29.66153
671.2905, 29.68713
671.7726, 29.45403
672.2548, 29.21171
672.7369, 29.27410
673.2190, 29.46126
673.7011, 29.33838
674.1832, 28.81983
674.6653, 28.35842
675.1475, 28.29440
675.6296, 28.45454
676.1117, 28.66747
676.5938, 28.97034
677.0759, 29.18052
677.5580, 29.20477
678.0402, 29.13416
678.5223, 29.07853
679.0044, 28.99227
679.4865, 29.03316
679.9686, 29.28580
680.4507, 29.62070
680.9329, 29.72139
681.4150, 29.58875
681.8971, 29.53806
682.3792, 29.77518
682.8613, 30.08405
683.3434, 30.01923
683.8256, 29.67224
684.3077, 29.40679
684.7898, 29.57566
685.2719, 29.77935
685.7540, 29.67286
686.2361, 29.27439
686.7183, 29.01740
687.2004, 29.20347
687.6825, 29.38640
688.1646, 29.33257
688.6467, 28.98613
689.1288, 28.79700
689.6110, 28.78258
690.0931, 28.89093
690.5752, 29.18394
691.0573, 29.62826
691.5394, 29.70540
692.0215, 29.33282
692.5037, 28.93199
692.9858, 29.05253
693.4679, 29.42506
693.9500, 29.57741
694.4321, 29.35489
694.9142, 29.01800
695.3964, 28.55648
695.8785, 28.12953
696.3606, 27.94494
696.8427, 28.25657
697.3248, 28.55144
697.8069, 28.79986
698.2891, 28.98917
698.7712, 29.05681
699.2533, 28.93901
699.7354, 28.98166
700.2175, 29.36142
700.6996, 29.87395
701.1818, 29.97636
701.6639, 29.71714
702.1460, 29.42822
702.6281, 29.28388
703.1102, 29.19809
703.5923, 29.08134
704.0745, 28.93850
704.5566, 28.79798
705.0387, 28.64487
705.5208, 28.52072
706.0029, 28.43863
706.4850, 28.40073
706.9672, 28.43229
707.4493, 28.55159
707.9314, 28.71219
708.4135, 28.91150
708.8956, 29.15667
709.3777, 29.28134
709.8599, 29.26481
710.3420, 29.26233
710.8241, 29.52550
711.3062, 29.89552
711.7883, 29.92599
712.2704, 29.51599
712.7525, 29.17051
713.2346, 29.47660
713.7167, 29.94566
714.1989, 30.03746
714.6810, 29.32159
715.1631, 28.80753
715.6452, 28.79996
716.1273, 29.01223
716.6094, 29.14912
717.0916, 29.15736
717.5737, 29.26751
718.0558, 29.57339
718.5379, 29.89260
719.0200, 29.76882
719.5021, 29.29198
719.9843, 29.16120
720.4664, 29.79673
720.9485, 30.55378
721.4306, 30.56511
721.9127, 30.08880
722.3948, 29.73032
722.8770, 29.91347
723.3591, 30.08669
723.8412, 29.96695
724.3233, 29.63330
724.8054, 29.44199
725.2875, 29.45903
725.7697, 29.53922
726.2518, 29.67508
726.7339, 29.83958
727.2160, 29.86480
727.6981, 29.73619
728.1802, 29.65428
728.6624, 29.76759
729.1445, 29.99449
729.6266, 30.18379
730.1087, 30.33177
730.5908, 30.42764
731.0729, 30.43818
731.5551, 30.41545
732.0372, 30.41906
732.5193, 30.46192
733.0014, 30.40175
733.4835, 29.92838
733.9656, 29.60931
734.4478, 29.83227
734.9299, 30.76401
735.4120, 31.00134
735.8941, 30.36016
736.3762, 29.65926
736.8583, 29.78795
737.3405, 30.47888
737.8226, 30.61746
738.3047, 30.05895
738.7868, 29.48771
739.2689, 29.53286
739.7510, 29.86233
740.2332, 30.07286
740.7153, 29.96211
741.1974, 30.05186
741.6795, 30.91565
742.1616, 31.79455
742.6437, 31.89719
743.1259, 30.73266
743.6080, 30.07898
744.0901, 30.20246
744.5722, 30.57093
745.0543, 30.31284
745.5364, 29.52558
746.0186, 29.14549
746.5007, 29.46410
746.9828, 29.96622
747.4649, 30.05841
747.9470, 29.92781
748.4291, 29.90226
748.9113, 30.17235
749.3934, 30.47503
749.8755, 30.79952
750.3576, 31.07914
750.8397, 31.17533
751.3218, 30.97542
751.8040, 30.80759
752.2861, 30.73782
752.7682, 30.72248
753.2503, 30.65655
753.7324, 30.54199
754.2145, 30.40853
754.6967, 30.25171
755.1788, 30.10172
755.6609, 30.03377
756.1430, 30.01294
756.6251, 29.94316
757.1072, 29.60334
757.5894, 29.38204
758.0715, 29.59375
758.5536, 30.11382
759.0357, 30.34838
759.5178, 30.10028
759.9999, 29.83488
760.4821, 29.63461
760.9642, 29.52813
761.4463, 29.74062
761.9284, 30.28493
762.4105, 30.70828
762.8926, 30.68423
763.3748, 30.43351
763.8569, 30.31558
764.3390, 30.31153
764.8211, 30.33134
765.3032, 30.32894
765.7853, 30.33348
766.2675, 30.33933
766.7496, 30.34998
767.2317, 30.47566
767.7138, 30.90220
768.1959, 31.17322
768.6780, 31.01575
769.1602, 30.47810
769.6423, 30.24432
770.1244, 30.32810
770.6065, 30.52679
771.0886, 30.74730
771.5707, 30.97328
772.0529, 31.25673
772.5350, 31.57523
773.0171, 31.64069
773.4992, 30.99598
773.9813, 30.26780
774.4634, 29.84287
774.9456, 29.77732
775.4277, 29.91529
775.9098, 30.38480
776.3919, 30.86044
776.8740, 31.18443
777.3561, 31.35427
777.8383, 31.37992
778.3204, 31.25025
778.8025, 31.10260
779.2846, 31.12590
779.7667, 31.18104
780.2488, 31.00520
780.7310, 30.57355
781.2131, 30.09376
781.6952, 29.47453
782.1773, 28.99419
782.6594, 28.91638
783.1415, 29.45933
783.6237, 29.68815
784.1058, 29.38255
784.5879, 29.08221
785.0700, 29.27143
785.5521, 29.94803
786.0342, 30.22505
786.5164, 30.05313
786.9985, 29.74105
787.4806, 29.46554
787.9627, 29.27448
788.4448, 29.24858
788.9269, 29.41064
789.4091, 29.62699
789.8912, 29.91980
790.3733, 30.18472
790.8554, 30.34736
791.3375, 30.41101
791.8196, 30.31509
792.3018, 29.90710
792.7839, 29.60712
793.2660, 29.97709
793.7481, 30.91363
794.2302, 31.08139
794.7123, 30.32278
795.1945, 29.47321
795.6766, 29.27172
796.1587, 29.42701
796.6408, 29.61921
797.1229, 29.82894
797.6050, 29.88808
798.0872, 29.57035
798.5693, 29.19564
799.0514, 29.02959
799.5335, 29.18930
800.0156, 29.17170
800.4977, 28.91639
800.9799, 28.63515
801.4620, 28.49200
801.9441, 28.49316
802.4262, 28.73808
802.9083, 29.25958
803.3904, 29.72044
803.8726, 29.78884
804.3547, 29.67242
804.8368, 29.59110
805.3189, 29.60737
805.8010, 29.56483
806.2831, 29.26124
806.7653, 29.01978
807.2474, 29.09709
807.7295, 29.59821
808.2116, 29.91920
808.6937, 30.03398
809.1758, 30.05713
809.6580, 30.11496
810.1401, 30.16540
810.6222, 30.06436
811.1043, 29.78285
811.5864, 29.54472
812.0685, 29.52805
812.5507, 29.60403
813.0328, 29.67580
813.5149, 29.74418
813.9970, 29.75315
814.4791, 29.64658
814.9612, 29.54945
815.4434, 29.60464
815.9255, 29.82318
816.4076, 29.72942
816.8897, 29.27308
817.3718, 28.87058
817.8539, 28.99635
818.3361, 29.38438
818.8182, 29.66718
819.3003, 29.80597
819.7824, 29.79532
820.2645, 29.48442
820.7466, 29.13386
821.2288, 28.89883
821.7109, 28.76024
822.1930, 28.88735
822.6751, 29.40745
823.1572, 29.88865
823.6393, 29.99013
824.1215, 29.76842
824.6036, 29.42159
825.0857, 28.96216
825.5678, 28.69724
826.0499, 29.12907
826.5320, 29.69886
827.0142, 29.83087
827.4963, 29.43539
827.9784, 29.16522
828.4605, 29.30550
828.9426, 29.48275
829.4247, 29.52984
829.9069, 29.44344
830.3890, 29.42647
830.8711, 29.50485
831.3532, 29.46133
831.8353, 29.01852
832.3174, 28.39115
832.7996, 27.98517
833.2817, 27.80704
833.7638, 27.78828
834.2459, 27.99827
834.7280, 28.26163
835.2101, 28.50864
835.6923, 28.72997
836.1744, 28.85795
836.6565, 28.89830
837.1386, 28.82466
837.6207, 28.54313
838.1028, 28.14680
838.5850, 28.17936
839.0671, 28.59864
839.5492, 28.86669
840.0313, 28.36687
840.5134, 27.78220
840.9955, 27.88879
841.4777, 28.53974
841.9598, 28.96953
842.4419, 28.71115
842.9240, 28.46057
843.4061, 28.44051
843.8882, 28.59012
844.3704, 28.64296
844.8525, 28.58784
845.3346, 28.51996
845.8167, 28.46614
846.2988, 28.43103
846.7809, 28.44922
847.2631, 28.49610
847.7452, 28.49830
848.2273, 28.33400
848.7094, 28.21039
849.1915, 28.25493
849.6736, 28.40861
850.1558, 28.51019
850.6379, 28.55423
851.1200, 28.55661
851.6021, 28.53436
852.0842, 28.45380
852.5663, 28.17325
853.0485, 27.74877
853.5306, 27.46765
854.0127, 27.45264
854.4948, 27.54613
854.9769, 27.70970
855.4590, 27.85903
855.9412, 27.86776
856.4233, 27.51008
856.9054, 27.26687
857.3875, 27.16890
857.8696, 27.20199
858.3517, 27.45351
858.8339, 27.95056
859.3160, 27.96415
859.7981, 27.28623
860.2802, 26.57207
860.7623, 26.67424
861.2444, 27.19956
861.7266, 27.54701
862.2087, 27.57034
862.6908, 27.45066
863.1729, 26.99727
863.6550, 26.61193
864.1371, 26.67446
864.6193, 27.42389
865.1014, 27.73514
865.5835, 27.53039
866.0656, 27.16491
866.5477, 26.89217
867.0298, 26.72016
867.5120, 26.70390
867.9941, 26.84806
868.4762, 26.96958
868.9583, 26.89490
869.4404, 26.80017
869.9225, 26.86119
870.4047, 27.13954
870.8868, 27.12883
871.3689, 26.64044
871.8510, 26.23019
872.3331, 26.23794
872.8152, 26.57709
873.2974, 26.77926
873.7795, 26.85546
874.2616, 26.94844
874.7437, 27.25070
875.2258, 27.52576
875.7079, 27.58543
876.1901, 27.44027
876.6722, 27.18868
877.1543, 26.62716
877.6364, 26.25081
878.1185, 26.26348
878.6006, 26.51425
879.0828, 26.44535
879.5649, 26.05987
880.0470, 25.70999
880.5291, 25.46143
881.0112, 25.40487
881.4933, 25.86874
881.9755, 26.58647
882.4576, 27.01019
882.9397, 26.63333
883.4218, 26.31437
883.9039, 26.30563
884.3860, 26.42925
884.8682, 26.45911
885.3503, 26.40040
885.8324, 26.15907
886.3145, 25.65309
886.7966, 25.19600
887.2787, 25.30196
887.7609, 25.72154
888.2430, 25.98457
888.7251, 25.94264
889.2072, 25.90458
889.6893, 26.12411
890.1714, 26.32320
890.6536, 26.23522
891.1357, 25.73361
891.6178, 25.44751
892.0999, 25.42404
892.5820, 25.44436
893.0641, 25.30425
893.5463, 25.06854
894.0284, 24.89466
894.5105, 24.79385
894.9926, 24.74200
895.4747, 24.72290
895.9568, 24.75084
896.4390, 24.82928
896.9211, 24.96076
897.4032, 25.20203
897.8853, 25.67576
898.3674, 25.95895
898.8495, 25.83768
899.3317, 25.42686
899.8138, 25.00936
900.2959, 24.60102
900.7780, 24.26068
901.2601, 23.94235
901.7422, 23.78308
902.2244, 23.98558
902.7065, 24.40846
903.1886, 24.68817
903.6707, 24.78253
904.1528, 24.72904
904.6349, 24.41755
905.1171, 24.11379
905.5992, 24.45783
906.0813, 25.28848
906.5634, 25.71149
907.0455, 25.42807
907.5276, 25.01269
908.0098, 24.89311
908.4919, 24.93617
908.9740, 25.01002
909.4561, 25.17704
909.9382, 25.16245
910.4203, 24.86333
910.9025, 24.53403
911.3846, 24.38760
911.8667, 24.41156
912.3488, 24.50556
912.8309, 24.66707
913.3130, 24.78254
913.7952, 24.74495
914.2773, 24.63928
914.7594, 24.53654
915.2415, 24.44215
915.7236, 24.33577
916.2057, 24.21235
916.6879, 24.06996
917.1700, 23.85534
917.6521, 23.63250
918.1342, 23.72514
918.6163, 24.11304
919.0984, 24.56253
919.5806, 25.18793
920.0627, 25.57787
920.5448, 25.06608
921.0269, 24.05494
921.5090, 23.38493
921.9911, 23.47638
922.4733, 23.70485
922.9554, 24.17598
923.4375, 24.57854
923.9196, 24.20267
924.4017, 23.12493
924.8839, 22.88636
925.3660, 23.85965
925.8481, 24.92526
926.3302, 24.97670
926.8123, 24.53989
927.2944, 24.17288
927.7766, 23.96001
928.2587, 23.86248
928.7408, 23.91509
929.2229, 24.01331
929.7050, 24.10855
930.1871, 24.19819
930.6693, 24.28967
931.1514, 24.37946
931.6335, 24.31355
932.1156, 23.72577
932.5977, 23.14161
933.0798, 23.18450
933.5620, 23.71300
934.0441, 23.96607
934.5262, 23.37560
935.0083, 23.05012
935.4904, 23.29989
935.9725, 23.89100
936.4547, 24.34704
936.9368, 24.65698
937.4189, 24.68366
937.9010, 24.23744
938.3831, 23.86637
938.8652, 24.38375
939.3474, 25.17107
939.8295, 25.36539
940.3116, 24.18138
940.7937, 23.52375
941.2758, 23.65509
941.7579, 24.02380
942.2401, 24.15987
942.7222, 24.08417
943.2043, 23.92734
943.6864, 23.69841
944.1685, 23.54165
944.6506, 23.62801
945.1328, 23.78437
945.6149, 23.88589
946.0970, 23.92199
946.5791, 23.88720
947.0612, 23.65519
947.5433, 23.60254
948.0255, 23.91759
948.5076, 24.45681
948.9897, 24.87971
949.4718, 25.16039
949.9539, 25.15521
950.4360, 24.67114
950.9182, 24.07681
951.4003, 23.35214
951.8824, 22.76418
952.3645, 22.80251
952.8466, 24.05628
953.3287, 24.72650
953.8109, 24.65047
954.2930, 24.16059
954.7751, 23.34299
955.2572, 22.43024
955.7393, 22.33059
956.2214, 23.14993
956.7036, 23.91821
957.1857, 23.83890
957.6677, 23.63074
958.1498, 23.87476
958.6320, 24.58466
959.1141, 24.93807
959.5962, 24.89670
960.0783, 24.59231
960.5604, 23.83961
961.0425, 23.07002
961.5247, 23.55316
962.0068, 24.84812
962.4889, 25.63773
962.9710, 24.72696
963.4531, 23.89747
963.9352, 24.04434
964.4174, 24.55363
964.8995, 24.48778
965.3816, 23.65118
965.8637, 23.18548
966.3458, 23.24547
966.8279, 23.46675
967.3101, 23.42587
967.7922, 23.29241
968.2743, 23.38366
968.7564, 23.75642
969.2385, 24.01913
969.7206, 24.01073
970.2028, 23.86134
970.6849, 23.57217
971.1670, 23.17969
971.6491, 22.97921
972.1312, 22.97257
972.6133, 23.13125
973.0955, 23.58145
973.5776, 24.03770
974.0597, 24.15664
974.5418, 24.03116
975.0239, 23.85011
975.5060, 23.66677
975.9882, 23.41101
976.4703, 22.96608
976.9524, 22.58026
977.4345, 22.63817
977.9166, 23.08286
978.3987, 23.41212
978.8809, 23.56871
979.3630, 23.65356
979.8451, 23.70572
980.3272, 23.75229
980.8093, 23.85314
981.2914, 24.02133
981.7736, 23.99626
982.2557, 23.69548
982.7378, 23.36280
983.2199, 23.01996
983.7020, 22.77195
984.1841, 23.00908
984.6663, 23.61097
985.1484, 24.15597
985.6305, 24.53355
986.1126, 24.72728
986.5947, 24.62510
987.0768, 24.37589
987.5590, 24.21558
988.0411, 24.21694
988.5232, 24.00415
989.0053, 23.50555
989.4874, 23.02019
989.9695, 22.79153
990.4517, 22.80274
990.9338, 23.13848
991.4159, 23.78332
991.8980, 24.23658
992.3801, 24.14669
992.8622, 23.98254
993.3444, 23.91297
993.8265, 23.91924
994.3086, 23.96950
994.7907, 24.06060
995.2728, 23.92194
995.7549, 23.26776
996.2371, 22.70968
996.7192, 23.10074
997.2013, 23.93566
997.6834, 24.48928
998.1655, 24.40407
998.6476, 24.33906
999.1298, 24.32542
999.6119, 24.31103
1000.094, 24.28564
1000.576, 24.22500
1001.058, 23.96029
1001.540, 23.50496
1002.022, 23.10411
1002.505, 22.79822
1002.987, 22.70938
1003.469, 23.05933
1003.951, 23.72176
1004.433, 24.15955
1004.915, 24.37784
1005.397, 24.32333
1005.879, 23.89547
1006.362, 23.39880
1006.844, 23.31694
1007.326, 23.48623
1007.808, 23.59681
1008.290, 23.54602
1008.772, 23.53442
1009.254, 23.73569
1009.736, 23.88908
1010.218, 23.76131
1010.701, 23.35966
1011.183, 23.46556
1011.665, 24.06628
1012.147, 24.58411
1012.629, 24.60129
1013.111, 24.42195
1013.593, 24.27483
1014.075, 24.15117
1014.557, 24.01887
1015.040, 23.87003
1015.522, 23.70679
1016.004, 23.50924
1016.486, 23.33546
1016.968, 23.27664
1017.450, 23.30640
1017.932, 23.33596
1018.414, 23.34814
1018.897, 23.42861
1019.379, 23.74203
1019.861, 24.03294
1020.343, 24.12980
1020.825, 24.05151
1021.307, 23.97890
1021.789, 23.91016
1022.271, 23.87502
1022.753, 23.95084
1023.236, 23.97106
1023.718, 23.56553
1024.200, 22.98381
1024.682, 22.66491
1025.164, 22.83899
1025.646, 23.14198
1026.128, 23.60244
1026.610, 24.07967
1027.093, 24.50248
1027.575, 24.84489
1028.057, 24.90575
1028.539, 24.68810
1029.021, 24.35758
1029.503, 23.72576
1029.985, 23.30038
1030.467, 23.62629
1030.949, 24.44900
1031.432, 24.72586
1031.914, 24.30256
1032.396, 23.97600
1032.878, 23.91374
1033.360, 24.01998
1033.842, 24.34301
1034.324, 24.67723
1034.806, 24.63948
1035.289, 24.05357
1035.771, 23.60677
1036.253, 23.53790
1036.735, 23.55153
1037.217, 23.46482
1037.699, 23.33697
1038.181, 23.66318
1038.663, 24.37053
1039.146, 24.85581
1039.628, 24.62667
1040.110, 24.28925
1040.592, 24.27095
1041.074, 24.39872
1041.556, 24.37133
1042.038, 24.10165
1042.520, 23.90825
1043.002, 23.80250
1043.484, 23.79507
1043.967, 23.99053
1044.449, 24.24527
1044.931, 24.28292
1045.413, 24.11472
1045.895, 24.04351
1046.377, 24.29842
1046.859, 24.52545
1047.341, 24.68715
1047.824, 24.71339
1048.306, 24.28809
1048.788, 23.50815
1049.270, 23.06228
1049.752, 23.17373
1050.234, 23.41352
1050.716, 23.47503
1051.198, 23.50234
1051.681, 23.66004
1052.163, 23.97801
1052.645, 24.16841
1053.127, 24.24427
1053.609, 24.12236
1054.091, 23.56668
1054.573, 22.95423
1055.055, 23.02975
1055.537, 23.52810
1056.020, 23.83892
1056.502, 23.63092
1056.984, 23.38549
1057.466, 23.09318
1057.948, 22.87321
1058.430, 22.87075
1058.912, 23.05871
1059.394, 23.31884
1059.876, 23.63389
1060.359, 23.84944
1060.841, 23.96666
1061.323, 23.85475
1061.805, 23.15079
1062.287, 22.16016
1062.769, 21.91282
1063.251, 22.51510
1063.733, 23.17710
1064.216, 23.79334
1064.698, 24.19457
1065.180, 24.01574
1065.662, 23.59747
1066.144, 23.44407
1066.626, 23.74281
1067.108, 23.56708
1067.590, 22.45170
1068.073, 21.63989
1068.555, 21.83291
1069.037, 22.65135
1069.519, 23.08527
1070.001, 23.18967
1070.483, 23.15545
1070.965, 22.96406
1071.447, 22.79739
1071.929, 22.68045
1072.411, 22.65796
1072.894, 22.80412
1073.376, 23.13821
1073.858, 23.39721
1074.340, 23.57523
1074.822, 23.58012
1075.304, 23.16297
1075.786, 22.70148
1076.268, 22.49394
1076.751, 22.51491
1077.233, 22.66687
1077.715, 23.02499
1078.197, 23.27460
1078.679, 23.36726
1079.161, 23.36649
1079.643, 23.38809
1080.125, 23.35408
1080.608, 23.03707
1081.090, 22.40466
1081.572, 22.00506
1082.054, 22.08572
1082.536, 22.37055
1083.018, 22.91321
1083.500, 23.50605
1083.982, 23.40165
1084.464, 22.77319
1084.947, 22.51883
1085.429, 23.05776
1085.911, 23.52831
1086.393, 23.34237
1086.875, 22.92401
1087.357, 22.63440
1087.839, 22.48569
1088.321, 22.31456
1088.803, 22.11525
1089.286, 21.99463
1089.768, 22.06886
1090.250, 22.18747
1090.732, 22.08314
1091.214, 21.93763
1091.696, 22.12387
1092.178, 23.10999
1092.660, 23.54390
1093.142, 23.28076
1093.625, 22.80042
1094.107, 22.41270
1094.589, 22.17238
1095.071, 22.27929
1095.553, 22.67629
1096.035, 23.00052
1096.517, 23.15607
1096.999, 23.12666
1097.482, 22.80445
1097.964, 22.42760
1098.446, 22.48020
1098.928, 22.85479
1099.410, 22.97538
1099.892, 22.74602
1100.374, 22.44834
1100.856, 22.11566
1101.339, 21.90902
1101.821, 21.97802
1102.303, 22.25994
1102.785, 22.49459
1103.267, 22.67993
1103.749, 22.83907
1104.231, 22.99905
1104.713, 23.07294
1105.195, 22.95418
1105.677, 22.71412
1106.160, 22.37346
1106.642, 21.84750
1107.124, 21.74732
1107.606, 22.18237
1108.088, 22.61960
1108.570, 22.80319
1109.052, 22.80492
1109.534, 22.68965
1110.017, 22.50017
1110.499, 22.32112
1110.981, 22.06389
1111.463, 22.04946
1111.945, 22.46511
1112.427, 22.81901
1112.909, 22.56276
1113.391, 21.92002
1113.874, 21.67838
1114.356, 21.82105
1114.838, 22.12822
1115.320, 22.73979
1115.802, 23.20104
1116.284, 23.41039
1116.766, 23.36097
1117.248, 22.87039
1117.730, 21.99444
1118.213, 21.63297
1118.695, 21.87626
1119.177, 22.22075
1119.659, 22.42000
1120.141, 22.48551
1120.623, 22.29080
1121.105, 21.96793
1121.587, 22.03608
1122.069, 22.55732
1122.552, 22.81975
1123.034, 22.63309
1123.516, 22.35214
1123.998, 22.34399
1124.480, 22.43788
1124.962, 22.44299
1125.444, 22.32691
1125.926, 22.33009
1126.409, 22.51691
1126.891, 22.59319
1127.373, 22.41496
1127.855, 22.14182
1128.337, 21.99077
1128.819, 21.93557
1129.301, 21.93375
1129.783, 21.97710
1130.266, 22.09812
1130.748, 22.41855
1131.230, 22.56639
1131.712, 22.22228
1132.194, 21.61556
1132.676, 21.36269
1133.158, 21.41129
1133.640, 21.60160
1134.122, 22.11938
1134.604, 22.37854
1135.087, 22.05943
1135.569, 21.66223
1136.051, 21.61179
1136.533, 21.86100
1137.015, 22.08036
1137.497, 22.25547
1137.979, 22.31996
1138.461, 22.08245
1138.944, 21.90407
1139.426, 22.07124
1139.908, 22.31880
1140.390, 22.22655
1140.872, 21.79329
1141.354, 21.82463
1141.836, 22.37744
1142.318, 22.86687
1142.801, 22.83933
1143.283, 22.60509
1143.765, 22.23920
1144.247, 21.85562
1144.729, 21.76416
1145.211, 21.99811
1145.693, 22.28019
1146.175, 22.57780
1146.657, 22.84326
1147.140, 23.07527
1147.622, 23.21494
1148.104, 23.11798
1148.586, 22.81082
1149.068, 22.81316
1149.550, 23.31261
1150.032, 23.32906
1150.514, 22.48468
1150.996, 21.46298
1151.479, 21.08557
1151.961, 21.14007
1152.443, 21.47946
1152.925, 22.15478
1153.407, 22.34077
1153.889, 21.77678
1154.371, 21.32223
1154.853, 21.31493
1155.336, 21.57446
1155.818, 21.87661
1156.300, 22.16975
1156.782, 22.35607
1157.264, 22.40158
1157.746, 22.36890
1158.228, 22.26513
1158.710, 22.09671
1159.193, 21.80030
1159.675, 21.49161
1160.157, 21.52223
1160.639, 21.79544
1161.121, 22.06173
1161.603, 22.31347
1162.085, 22.38643
1162.567, 22.14511
1163.049, 21.86958
1163.531, 21.75332
1164.014, 21.76626
1164.496, 21.74390
1164.978, 21.71300
1165.460, 21.78850
1165.942, 22.22391
1166.424, 22.51166
1166.906, 22.42092
1167.388, 22.20988
1167.871, 22.14563
1168.353, 22.19245
1168.835, 21.99221
1169.317, 21.56086
1169.799, 21.12469
1170.281, 20.59941
1170.763, 20.34173
1171.245, 20.73852
1171.728, 21.34123
1172.210, 21.54915
1172.692, 21.39040
1173.174, 21.57571
1173.656, 22.13394
1174.138, 22.55681
1174.620, 22.37286
1175.102, 22.09062
1175.584, 21.92991
1176.067, 21.90211
1176.549, 22.13486
1177.031, 22.63113
1177.513, 22.60340
1177.995, 21.93286
1178.477, 21.33100
1178.959, 21.45353
1179.441, 21.75726
1179.923, 21.94873
1180.406, 22.00533
1180.888, 21.81917
1181.370, 21.37013
1181.852, 21.21585
1182.334, 21.48821
1182.816, 21.82344
1183.298, 21.99634
1183.780, 22.01654
1184.263, 21.78811
1184.745, 21.38804
1185.227, 21.20198
1185.709, 21.23790
1186.191, 21.45389
1186.673, 21.89511
1187.155, 22.26906
1187.637, 22.29871
1188.120, 22.12210
1188.602, 21.78167
1189.084, 21.31033
1189.566, 21.15892
1190.048, 21.37179
1190.530, 21.47786
1191.012, 21.28695
1191.494, 21.04886
1191.976, 20.98411
1192.458, 21.05277
1192.941, 21.27280
1193.423, 21.65983
1193.905, 21.85563
1194.387, 21.87273
1194.869, 21.53437
1195.351, 20.52387
1195.833, 19.64872
1196.315, 20.19075
1196.798, 21.20716
1197.280, 21.40498
1197.762, 20.46423
1198.244, 20.34019
1198.726, 21.18596
1199.208, 21.78138
1199.690, 21.29528
1200.172, 20.66651
1200.655, 21.17041
1201.137, 22.12462
1201.619, 22.55762
1202.101, 22.26546
1202.583, 21.82882
1203.065, 21.19611
1203.547, 20.78440
1204.029, 20.88942
1204.511, 21.26180
1204.994, 21.90599
1205.476, 22.51613
1205.958, 22.50471
1206.440, 21.53298
1206.922, 20.96216
1207.404, 20.81391
1207.886, 20.86311
1208.368, 21.02332
1208.850, 21.25120
1209.333, 21.60263
1209.815, 21.95468
1210.297, 22.04888
1210.779, 21.79555
1211.261, 21.51310
1211.743, 21.18042
1212.225, 20.95867
1212.707, 20.99720
1213.190, 21.16932
1213.672, 21.40131
1214.154, 21.64954
1214.636, 21.84684
1215.118, 22.06190
1215.600, 21.96149
1216.082, 21.50372
1216.564, 21.01605
1217.047, 20.60203
1217.529, 20.41670
1218.011, 20.81784
1218.493, 21.51766
1218.975, 21.82703
1219.457, 21.57815
1219.939, 21.55308
1220.421, 21.82552
1220.903, 21.97797
1221.385, 21.41144
1221.868, 20.81253
1222.350, 20.94833
1222.832, 21.50477
1223.314, 21.63141
1223.796, 21.14480
1224.278, 21.06900
1224.760, 21.50256
1225.242, 21.94236
1225.725, 21.93636
1226.207, 21.81731
1226.689, 21.89657
1227.171, 22.07067
1227.653, 22.04975
1228.135, 21.79403
1228.617, 21.64167
1229.099, 21.62674
1229.582, 21.52561
1230.064, 20.93637
1230.546, 20.40909
1231.028, 20.42990
1231.510, 20.81932
1231.992, 21.14272
1232.474, 21.40093
1232.956, 21.51674
1233.438, 21.47980
1233.921, 21.48691
1234.403, 21.89315
1234.885, 22.19137
1235.367, 21.82502
1235.849, 21.18132
1236.331, 21.06031
1236.813, 21.46470
1237.295, 21.65966
1237.777, 21.57721
1238.260, 21.38052
1238.742, 20.99564
1239.224, 20.73474
1239.706, 20.90439
1240.188, 21.25482
1240.670, 21.36539
1241.152, 21.25946
1241.634, 21.23156
1242.117, 21.30996
1242.599, 21.37204
1243.081, 21.19703
1243.563, 21.16628
1244.045, 21.55200
1244.527, 22.08182
1245.009, 22.32825
1245.491, 22.31772
1245.974, 22.17121
1246.456, 21.90857
1246.938, 21.64840
1247.420, 21.30692
1247.902, 21.18928
1248.384, 21.48551
1248.866, 21.90518
1249.348, 21.93813
1249.830, 21.71140
1250.313, 21.66859
1250.795, 21.83801
1251.277, 22.00181
1251.759, 22.08237
1252.241, 22.13061
1252.723, 22.19707
1253.205, 22.17273
1253.687, 21.78102
1254.169, 21.21570
1254.652, 20.92810
1255.134, 20.93075
1255.616, 20.91567
1256.098, 20.67850
1256.580, 20.62693
1257.062, 20.87523
1257.544, 21.21981
1258.026, 21.43699
1258.509, 21.55030
1258.991, 21.61949
1259.473, 21.63337
1259.955, 21.40958
1260.437, 20.63321
1260.919, 20.47136
1261.401, 21.22029
1261.883, 22.16306
1262.365, 22.67187
1262.848, 22.81441
1263.330, 22.53613
1263.812, 21.92547
1264.294, 21.45087
1264.776, 21.10911
1265.258, 21.04119
1265.740, 21.29811
1266.222, 21.59434
1266.704, 21.63736
1267.187, 21.61045
1267.669, 21.73559
1268.151, 21.92155
1268.633, 21.81094
1269.115, 21.37322
1269.597, 21.02482
1270.079, 20.81087
1270.561, 20.77551
1271.044, 21.19621
1271.526, 21.56101
1272.008, 21.43907
1272.490, 21.05551
1272.972, 20.72557
1273.454, 20.46572
1273.936, 20.55493
1274.418, 21.00787
1274.901, 21.37782
1275.383, 21.29339
1275.865, 21.18806
1276.347, 21.21652
1276.829, 21.33888
1277.311, 21.52758
1277.793, 21.76079
1278.275, 22.00689
1278.757, 22.24167
1279.240, 22.29016
1279.722, 21.97583
1280.204, 21.55152
1280.686, 20.92257
1281.168, 20.48996
1281.650, 21.02031
1282.132, 21.98847
1282.614, 22.25391
1283.096, 21.85744
1283.579, 21.42241
1284.061, 20.98024
1284.543, 20.74608
1285.025, 20.75159
1285.507, 20.93158
1285.989, 21.39565
1286.471, 21.87411
1286.953, 22.03272
1287.436, 21.90201
1287.918, 21.57324
1288.400, 20.88046
1288.882, 20.77774
1289.364, 21.38747
1289.846, 22.01538
1290.328, 22.05923
1290.810, 21.91769
1291.292, 21.96490
1291.775, 22.02747
1292.257, 21.71543
1292.739, 20.97960
1293.221, 20.55810
1293.703, 20.48179
1294.185, 20.65774
1294.667, 21.33381
1295.149, 21.89050
1295.631, 21.94421
1296.114, 21.76602
1296.596, 21.58933
1297.078, 21.40567
1297.560, 21.11914
1298.042, 20.76254
1298.524, 20.51401
1299.006, 20.36369
1299.488, 20.50289
1299.971, 21.06814
1300.453, 21.68715
1300.935, 22.12692
1301.417, 22.36875
1301.899, 22.34275
1302.381, 22.08140
1302.863, 21.67334
1303.345, 20.78440
1303.828, 20.44308
1304.310, 20.78687
1304.792, 21.18626
1305.274, 21.33911
##END=



