##NAMES=Pyrite
##RRUFFID=R100166
##IDEAL CHEMISTRY=Fe^2+^(S_2_)^2-^
##LOCALITY=Boston Consolidated mine, Bingham Canyon, 20 mi SSW of Salt Lake City, Salt Lake County, Utah, USA
##OWNER=RRUFF
##SOURCE=Harvard microprobe standard, Mineralogical Museum, Harvard University
##DESCRIPTION=Brass-yellow pyritohedron
##STATUS=The identification of this mineral is confirmed by single-crystal X-ray diffraction and chemical analysis.
##URL=rruff.info/R100166
##MEASURED CHEMISTRY=FeS_2_ ; (Pure phase as determined by WDS analysis)
145.5667, 110.7058
146.0488, 109.8281
146.5310, 109.1369
147.0131, 108.0689
147.4952, 106.4500
147.9773, 104.8456
148.4594, 104.0488
148.9415, 103.9123
149.4237, 103.7169
149.9058, 103.3496
150.3879, 102.7394
150.8700, 101.6169
151.3521, 99.60829
151.8342, 97.50467
152.3164, 95.92431
152.7985, 94.83511
153.2806, 93.94430
153.7627, 93.07576
154.2448, 92.22697
154.7269, 91.41912
155.2091, 90.59814
155.6912, 89.87624
156.1733, 89.27689
156.6554, 88.81492
157.1375, 88.54751
157.6196, 88.62854
158.1018, 89.28347
158.5839, 89.61498
159.0660, 89.44388
159.5481, 89.07301
160.0302, 88.64182
160.5123, 88.20058
160.9945, 87.75710
161.4766, 87.31185
161.9587, 86.66087
162.4408, 86.34643
162.9229, 86.67632
163.4050, 87.17092
163.8871, 87.30611
164.3693, 86.89338
164.8514, 86.25677
165.3335, 86.20722
165.8156, 87.54129
166.2977, 88.34799
166.7798, 88.27434
167.2620, 87.58174
167.7441, 86.51877
168.2262, 85.08150
168.7083, 83.59501
169.1904, 83.06533
169.6725, 83.86417
170.1547, 84.69398
170.6368, 85.11440
171.1189, 85.17184
171.6010, 84.97994
172.0831, 84.44313
172.5652, 83.80156
173.0474, 83.54384
173.5295, 83.85745
174.0116, 84.19624
174.4937, 84.08152
174.9758, 83.51464
175.4579, 83.02206
175.9401, 83.03167
176.4222, 83.12765
176.9043, 82.81214
177.3864, 81.88738
177.8685, 80.78893
178.3506, 80.01860
178.8328, 79.58530
179.3149, 79.46897
179.7970, 79.95919
180.2791, 80.61226
180.7612, 81.06834
181.2433, 81.20339
181.7255, 81.06802
182.2076, 80.75300
182.6897, 80.18610
183.1718, 79.55264
183.6539, 78.82299
184.1360, 78.08625
184.6181, 77.45248
185.1003, 76.97933
185.5824, 76.61086
186.0645, 76.13187
186.5466, 75.00906
187.0287, 74.47337
187.5108, 75.27776
187.9930, 76.59269
188.4751, 77.31550
188.9572, 76.79817
189.4393, 75.30976
189.9214, 74.35091
190.4035, 74.37867
190.8857, 74.42904
191.3678, 74.34830
191.8499, 74.17141
192.3320, 73.97260
192.8141, 73.79093
193.2962, 73.62920
193.7784, 73.51046
194.2605, 73.56651
194.7426, 73.51945
195.2247, 73.11349
195.7068, 72.49641
196.1889, 72.10247
196.6711, 72.23938
197.1532, 72.80752
197.6353, 73.21693
198.1174, 73.61248
198.5995, 73.74517
199.0816, 73.34425
199.5638, 72.47928
200.0459, 71.60730
200.5280, 70.92527
201.0101, 70.46879
201.4922, 70.26186
201.9743, 70.54829
202.4565, 70.83959
202.9386, 70.59650
203.4207, 69.79893
203.9028, 69.18096
204.3849, 69.33443
204.8670, 69.85571
205.3492, 70.17555
205.8313, 70.16415
206.3134, 69.95332
206.7955, 69.66885
207.2776, 69.29244
207.7597, 68.92833
208.2419, 68.53535
208.7240, 68.21147
209.2061, 68.08865
209.6882, 68.24004
210.1703, 68.54489
210.6524, 68.89774
211.1346, 69.50464
211.6167, 69.58575
212.0988, 68.34598
212.5809, 66.75565
213.0630, 65.77585
213.5451, 65.83446
214.0273, 66.52666
214.5094, 66.93436
214.9915, 66.81827
215.4736, 66.84959
215.9557, 67.29401
216.4378, 67.86724
216.9200, 68.31099
217.4021, 68.51035
217.8842, 68.49778
218.3663, 68.34589
218.8484, 67.90728
219.3305, 67.53803
219.8127, 67.27518
220.2948, 67.09666
220.7769, 66.96688
221.2590, 66.86958
221.7411, 66.83119
222.2232, 66.93370
222.7054, 67.40459
223.1875, 67.74727
223.6696, 67.85558
224.1517, 67.84952
224.6338, 67.89617
225.1159, 68.07188
225.5980, 68.28032
226.0802, 68.23722
226.5623, 67.40035
227.0444, 66.96035
227.5265, 67.32545
228.0086, 68.04493
228.4907, 68.55386
228.9729, 68.61462
229.4550, 68.35159
229.9371, 68.06719
230.4192, 67.76223
230.9013, 67.43702
231.3834, 67.02258
231.8656, 66.60380
232.3477, 66.27865
232.8298, 66.07092
233.3119, 66.02733
233.7940, 66.33723
234.2761, 67.19650
234.7583, 67.85201
235.2404, 68.02525
235.7225, 67.88542
236.2046, 67.68193
236.6867, 67.45216
237.1688, 67.29878
237.6510, 67.53891
238.1331, 68.30517
238.6152, 68.69544
239.0973, 67.95122
239.5794, 66.64192
240.0615, 66.08454
240.5437, 66.82503
241.0258, 68.00861
241.5079, 68.58093
241.9900, 68.59195
242.4721, 68.23766
242.9542, 67.36107
243.4364, 66.17415
243.9185, 65.23573
244.4006, 64.71345
244.8827, 64.36015
245.3648, 63.94341
245.8469, 63.47134
246.3290, 62.99244
246.8112, 62.45563
247.2933, 61.92448
247.7754, 61.59578
248.2575, 61.54662
248.7396, 61.63010
249.2217, 61.77906
249.7039, 61.96626
250.1860, 62.09233
250.6681, 62.16658
251.1502, 62.14817
251.6323, 61.83402
252.1144, 61.00671
252.5966, 60.22704
253.0787, 59.82277
253.5608, 59.70560
254.0429, 59.68115
254.5250, 59.66476
255.0071, 59.65790
255.4893, 59.65293
255.9714, 59.58860
256.4535, 59.63778
256.9356, 60.03271
257.4177, 60.55302
257.8998, 60.80418
258.3820, 60.44202
258.8641, 59.71367
259.3462, 59.57172
259.8283, 60.57766
260.3104, 61.23570
260.7925, 60.92680
261.2747, 60.08142
261.7568, 59.21426
262.2389, 58.52961
262.7210, 58.06647
263.2031, 57.96195
263.6852, 58.41858
264.1674, 58.91185
264.6495, 59.53529
265.1316, 60.03988
265.6137, 60.09507
266.0958, 59.54120
266.5779, 58.63784
267.0601, 57.97890
267.5422, 57.58394
268.0243, 57.44406
268.5064, 57.62822
268.9885, 57.97787
269.4706, 58.44793
269.9528, 59.00800
270.4349, 59.47028
270.9170, 59.39498
271.3991, 58.25341
271.8812, 57.63192
272.3633, 58.12473
272.8455, 58.78114
273.3276, 58.81610
273.8097, 58.06828
274.2918, 57.00062
274.7739, 56.27449
275.2560, 55.87580
275.7382, 55.90792
276.2202, 56.86706
276.7024, 57.79580
277.1845, 58.00125
277.6666, 57.44553
278.1487, 56.64838
278.6308, 56.24383
279.1129, 56.37716
279.5951, 56.41119
280.0772, 56.21611
280.5593, 56.05005
281.0414, 56.06935
281.5235, 56.25975
282.0056, 56.49671
282.4878, 56.65894
282.9699, 56.73105
283.4520, 56.84766
283.9341, 57.03772
284.4162, 57.23800
284.8983, 57.48991
285.3805, 57.73954
285.8626, 57.84550
286.3447, 57.67137
286.8268, 57.22610
287.3089, 57.02031
287.7910, 57.39632
288.2732, 57.62700
288.7553, 57.32999
289.2374, 56.74447
289.7195, 56.39968
290.2016, 56.65433
290.6837, 57.32430
291.1659, 57.36169
291.6480, 55.96591
292.1301, 54.87703
292.6122, 54.45996
293.0943, 54.49830
293.5764, 54.69285
294.0586, 54.90958
294.5407, 55.17531
295.0228, 55.56511
295.5049, 56.45287
295.9870, 56.99921
296.4691, 56.90077
296.9513, 56.56456
297.4334, 56.50834
297.9155, 56.88536
298.3976, 57.31998
298.8797, 57.16899
299.3618, 56.02069
299.8440, 55.00075
300.3261, 53.89496
300.8082, 53.05139
301.2903, 52.85859
301.7724, 53.34568
302.2545, 54.10740
302.7367, 54.71393
303.2188, 55.19195
303.7009, 55.29162
304.1830, 54.59752
304.6651, 53.89791
305.1472, 53.74659
305.6294, 54.10998
306.1115, 54.56047
306.5936, 54.73343
307.0757, 54.61020
307.5578, 54.54355
308.0399, 54.49256
308.5221, 54.52481
309.0042, 54.72097
309.4863, 55.03054
309.9684, 55.33993
310.4505, 55.58870
310.9326, 55.76618
311.4148, 55.77716
311.8969, 55.37388
312.3790, 55.11566
312.8611, 55.31846
313.3432, 55.72129
313.8253, 55.86600
314.3075, 55.52922
314.7896, 54.91579
315.2717, 54.54460
315.7538, 54.43409
316.2359, 54.54566
316.7180, 54.63334
317.2001, 55.04968
317.6823, 56.20008
318.1644, 58.20364
318.6465, 60.85033
319.1286, 63.84197
319.6107, 67.16648
320.0928, 70.95267
320.5750, 75.69604
321.0571, 80.56014
321.5392, 85.52660
322.0213, 90.28046
322.5034, 93.52806
322.9855, 93.72747
323.4677, 90.31278
323.9498, 87.74045
324.4319, 85.93348
324.9140, 84.87595
325.3961, 84.55254
325.8782, 84.96451
326.3604, 86.18788
326.8425, 88.36082
327.3246, 91.38855
327.8067, 94.25051
328.2888, 96.83188
328.7709, 99.40807
329.2531, 102.2001
329.7352, 104.9989
330.2173, 107.3423
330.6994, 108.9785
331.1815, 110.3014
331.6636, 112.4003
332.1458, 115.4141
332.6279, 119.1217
333.1100, 123.1183
333.5921, 127.9787
334.0742, 134.2630
334.5563, 142.0972
335.0385, 151.4089
335.5206, 162.0323
336.0027, 174.1834
336.4848, 187.4670
336.9669, 203.0387
337.4490, 218.8260
337.9312, 238.7730
338.4133, 259.7950
338.8954, 269.5320
339.3775, 255.2333
339.8596, 214.6412
340.3417, 177.5723
340.8239, 139.9693
341.3060, 109.4559
341.7881, 90.62362
342.2702, 80.88287
342.7523, 75.48512
343.2344, 71.71644
343.7166, 69.42742
344.1987, 67.94516
344.6808, 68.56625
345.1629, 68.53598
345.6450, 67.50382
346.1271, 65.74077
346.6093, 63.33459
347.0914, 60.37937
347.5735, 57.31803
348.0556, 55.04613
348.5377, 53.85907
349.0198, 52.99375
349.5020, 52.58084
349.9841, 52.33681
350.4662, 52.05890
350.9483, 51.73719
351.4304, 51.51099
351.9125, 51.53844
352.3947, 51.84561
352.8768, 52.23516
353.3589, 52.82780
353.8410, 53.38127
354.3231, 53.59848
354.8052, 53.71175
355.2874, 54.20126
355.7695, 55.41272
356.2516, 57.24368
356.7337, 59.18148
357.2158, 61.71109
357.6979, 63.63958
358.1800, 64.62576
358.6621, 65.00640
359.1443, 65.11939
359.6264, 65.09727
360.1085, 64.90130
360.5906, 64.36047
361.0727, 63.14948
361.5548, 62.46275
362.0370, 62.51957
362.5191, 63.01826
363.0012, 63.90913
363.4833, 65.12716
363.9654, 66.45398
364.4475, 67.66743
364.9297, 68.75538
365.4118, 69.93604
365.8939, 71.29012
366.3760, 72.65293
366.8581, 73.73682
367.3402, 74.78200
367.8224, 76.31250
368.3045, 78.76652
368.7866, 81.79178
369.2687, 84.15957
369.7508, 85.11966
370.2329, 87.12864
370.7151, 91.38962
371.1972, 96.83140
371.6793, 102.6889
372.1614, 108.7604
372.6435, 114.7752
373.1256, 120.7070
373.6078, 126.6491
374.0899, 131.3105
374.5720, 137.2865
375.0541, 138.8295
375.5362, 130.1182
376.0183, 111.9905
376.5005, 93.10425
376.9826, 77.89440
377.4647, 66.26982
377.9468, 58.07905
378.4289, 54.07185
378.9110, 51.90662
379.3932, 50.64778
379.8753, 49.98745
380.3574, 49.38940
380.8395, 48.63623
381.3216, 47.91854
381.8037, 47.56361
382.2859, 47.58092
382.7680, 47.43142
383.2501, 46.62288
383.7322, 45.69813
384.2143, 45.55711
384.6964, 46.43821
385.1786, 47.31945
385.6607, 47.62190
386.1428, 47.47585
386.6249, 47.18169
387.1070, 46.75916
387.5891, 46.34386
388.0713, 46.09029
388.5534, 45.98377
389.0355, 45.97765
389.5176, 46.20807
389.9997, 46.44450
390.4818, 46.38796
390.9640, 46.04487
391.4461, 45.76796
391.9282, 45.83910
392.4103, 46.17242
392.8924, 46.28695
393.3745, 45.91390
393.8567, 45.63470
394.3388, 45.85480
394.8209, 46.30946
395.3030, 46.44571
395.7851, 46.03676
396.2672, 45.35460
396.7494, 44.84386
397.2315, 44.44349
397.7136, 44.40969
398.1957, 45.18253
398.6778, 46.03914
399.1599, 46.38765
399.6420, 46.17892
400.1241, 45.67558
400.6063, 45.06593
401.0884, 44.33757
401.5705, 43.87341
402.0526, 43.75194
402.5347, 43.76429
403.0168, 43.91093
403.4990, 44.13738
403.9811, 44.35414
404.4632, 44.51618
404.9453, 44.68048
405.4274, 45.02660
405.9095, 46.01227
406.3917, 46.36488
406.8738, 45.53736
407.3559, 44.50508
407.8380, 43.88367
408.3201, 43.78524
408.8022, 44.05407
409.2844, 44.66317
409.7665, 45.66676
410.2486, 46.05892
410.7307, 45.04765
411.2128, 44.26633
411.6949, 44.36794
412.1771, 44.98023
412.6592, 45.47318
413.1413, 45.52491
413.6234, 45.32938
414.1055, 45.27299
414.5876, 45.34232
415.0698, 45.59634
415.5519, 46.36234
416.0340, 47.10715
416.5161, 47.42566
416.9982, 47.28460
417.4803, 46.99716
417.9625, 46.81841
418.4446, 46.72649
418.9267, 46.53678
419.4088, 46.13551
419.8909, 45.82543
420.3730, 45.85016
420.8552, 46.09679
421.3373, 46.35570
421.8194, 46.60039
422.3015, 46.78194
422.7836, 46.80995
423.2657, 46.68622
423.7479, 46.55947
424.2300, 46.44637
424.7121, 46.40418
425.1942, 46.51943
425.6763, 46.81533
426.1584, 47.13790
426.6406, 47.53561
427.1227, 47.88568
427.6048, 47.88977
428.0869, 47.47198
428.5690, 47.06295
429.0511, 47.04562
429.5333, 47.44332
430.0154, 47.92571
430.4975, 48.87200
430.9796, 49.54522
431.4617, 49.38378
431.9438, 48.60963
432.4260, 47.81149
432.9081, 47.27357
433.3902, 46.85194
433.8723, 46.18451
434.3544, 44.73365
434.8365, 43.95886
435.3187, 44.49631
435.8008, 45.33602
436.2829, 45.63482
436.7650, 45.31783
437.2471, 44.83489
437.7292, 44.61503
438.2114, 44.66899
438.6935, 44.52276
439.1756, 43.73310
439.6577, 43.23761
440.1398, 43.52462
440.6219, 44.14644
441.1040, 44.46114
441.5862, 44.19917
442.0683, 43.67964
442.5504, 43.49909
443.0325, 43.78405
443.5146, 44.01974
443.9967, 44.09423
444.4789, 44.16665
444.9610, 44.48193
445.4431, 44.91121
445.9252, 44.98203
446.4073, 44.13055
446.8894, 42.68258
447.3716, 41.91428
447.8537, 41.97956
448.3358, 42.34732
448.8179, 43.09549
449.3000, 43.88900
449.7821, 44.30626
450.2643, 44.19460
450.7464, 44.02062
451.2285, 44.28566
451.7106, 44.87262
452.1927, 45.16488
452.6748, 44.97857
453.1570, 44.59832
453.6391, 44.20971
454.1212, 43.83421
454.6033, 43.63710
455.0854, 43.85871
455.5675, 44.12668
456.0497, 44.01180
456.5318, 43.58587
457.0139, 43.33453
457.4960, 43.54437
457.9781, 44.03946
458.4602, 44.36532
458.9424, 44.60308
459.4245, 44.55482
459.9066, 43.86967
460.3887, 43.05777
460.8708, 42.70117
461.3529, 42.85150
461.8351, 43.08318
462.3172, 42.96176
462.7993, 42.46419
463.2814, 42.37177
463.7635, 43.15968
464.2456, 43.77810
464.7278, 43.84189
465.2099, 43.62127
465.6920, 43.52224
466.1741, 43.69864
466.6562, 43.95924
467.1383, 43.95448
467.6205, 43.55524
468.1026, 43.29245
468.5847, 43.34010
469.0668, 43.38697
469.5489, 43.23900
470.0310, 42.96782
470.5132, 42.79899
470.9953, 42.91580
471.4774, 43.18419
471.9595, 43.23544
472.4416, 43.00305
472.9237, 42.80022
473.4059, 42.69225
473.8880, 42.69713
474.3701, 42.90225
474.8522, 43.32676
475.3343, 43.66601
475.8164, 43.61352
476.2986, 43.33818
476.7807, 43.35584
477.2628, 43.81177
477.7449, 44.06458
478.2270, 43.42395
478.7091, 42.15276
479.1913, 41.39355
479.6734, 41.47922
480.1555, 41.78020
480.6376, 42.06799
481.1197, 42.32757
481.6018, 42.54530
482.0839, 42.72074
482.5660, 42.79994
483.0482, 42.68589
483.5303, 42.29222
484.0124, 42.01927
484.4945, 41.77318
484.9766, 41.72609
485.4587, 42.25195
485.9409, 43.04999
486.4230, 43.37336
486.9051, 42.77410
487.3872, 41.61579
487.8693, 40.99217
488.3514, 41.38179
488.8336, 41.39550
489.3157, 40.43902
489.7978, 39.52212
490.2799, 39.37611
490.7620, 39.96840
491.2441, 40.78773
491.7263, 41.57317
492.2084, 42.23751
492.6905, 42.26036
493.1726, 41.33594
493.6547, 40.50707
494.1368, 40.21777
494.6190, 40.23687
495.1011, 40.42429
495.5832, 40.78851
496.0653, 41.05922
496.5474, 40.80481
497.0295, 40.28452
497.5117, 40.42488
497.9938, 41.52221
498.4759, 42.60597
498.9580, 42.85746
499.4401, 42.38784
499.9222, 41.90377
500.4044, 41.35253
500.8865, 40.89129
501.3686, 40.68591
501.8507, 40.61595
502.3328, 40.36742
502.8149, 39.82398
503.2971, 39.29064
503.7792, 39.22043
504.2613, 39.78054
504.7434, 40.22599
505.2255, 40.67824
505.7076, 40.91239
506.1898, 40.69139
506.6719, 40.18439
507.1540, 39.71852
507.6361, 39.46370
508.1182, 39.35902
508.6003, 39.25081
509.0825, 39.07146
509.5646, 39.07149
510.0467, 39.44305
510.5288, 39.85595
511.0109, 40.13934
511.4930, 40.30330
511.9752, 40.46070
512.4573, 40.79573
512.9394, 41.09851
513.4215, 40.75506
513.9036, 39.63032
514.3857, 38.71307
514.8679, 38.48820
515.3500, 38.58793
515.8321, 38.49834
516.3142, 38.17689
516.7963, 37.96846
517.2784, 38.04858
517.7606, 38.31562
518.2427, 38.69883
518.7248, 39.17569
519.2069, 39.54235
519.6890, 39.63847
520.1711, 39.52374
520.6533, 39.49192
521.1354, 39.73338
521.6175, 39.79342
522.0996, 39.42030
522.5817, 38.93288
523.0638, 38.69407
523.5460, 38.73475
524.0281, 38.76189
524.5102, 38.42969
524.9923, 37.76352
525.4744, 37.72675
525.9565, 39.01046
526.4387, 40.03365
526.9208, 40.29678
527.4029, 40.25262
527.8850, 40.47378
528.3671, 41.08004
528.8492, 41.52448
529.3314, 40.99779
529.8135, 39.64524
530.2956, 38.91526
530.7777, 39.01101
531.2598, 39.48218
531.7419, 40.45813
532.2241, 41.53640
532.7062, 41.99360
533.1883, 41.44976
533.6704, 40.77020
534.1525, 40.46481
534.6346, 40.47137
535.1168, 40.70510
535.5989, 41.16779
536.0810, 41.62896
536.5631, 41.82894
537.0452, 41.75255
537.5273, 41.83366
538.0095, 42.33643
538.4916, 42.68814
538.9737, 42.49923
539.4558, 42.08612
539.9379, 41.95103
540.4200, 42.24693
540.9022, 42.69848
541.3843, 42.88179
541.8664, 42.68749
542.3485, 42.84978
542.8306, 43.74199
543.3127, 44.59834
543.7948, 45.15393
544.2769, 45.52628
544.7590, 45.89463
545.2411, 46.32215
545.7233, 46.78505
546.2054, 47.26381
546.6875, 47.75696
547.1696, 48.20932
547.6517, 48.58883
548.1339, 48.96936
548.6160, 49.48357
549.0981, 50.05647
549.5802, 50.46453
550.0623, 50.75532
550.5444, 50.77304
551.0266, 50.10812
551.5087, 49.11868
551.9908, 48.75326
552.4729, 49.32270
552.9550, 50.07607
553.4371, 50.05989
553.9193, 49.11500
554.4014, 48.33974
554.8835, 47.65760
555.3656, 47.20131
555.8477, 47.36608
556.3298, 47.67060
556.8120, 47.23436
557.2941, 45.77533
557.7762, 44.19353
558.2583, 44.01616
558.7404, 45.52845
559.2225, 46.01115
559.7047, 44.61108
560.1868, 43.17741
560.6689, 42.60334
561.1510, 42.57098
561.6331, 42.52773
562.1152, 42.28067
562.5974, 42.06758
563.0795, 42.23118
563.5616, 42.62922
564.0437, 42.71149
564.5258, 42.33080
565.0079, 41.79237
565.4901, 41.30306
565.9722, 40.88488
566.4543, 40.70171
566.9364, 41.08925
567.4185, 41.32755
567.9006, 40.93641
568.3828, 40.30844
568.8649, 40.01542
569.3470, 40.19749
569.8291, 40.59522
570.3112, 40.95615
570.7933, 41.29756
571.2755, 41.29695
571.7576, 40.49884
572.2397, 39.93026
572.7218, 40.03169
573.2039, 40.38372
573.6860, 40.43784
574.1682, 40.06927
574.6503, 39.77868
575.1324, 40.17908
575.6145, 41.08734
576.0966, 41.67525
576.5787, 41.84752
577.0609, 41.87172
577.5430, 41.86943
578.0251, 41.83636
578.5072, 41.76092
578.9893, 41.60700
579.4714, 41.49176
579.9536, 41.64088
580.4357, 41.75911
580.9178, 41.29913
581.3999, 40.30519
581.8820, 39.53897
582.3641, 39.63276
582.8463, 40.40444
583.3284, 40.78815
583.8105, 40.50051
584.2926, 40.21810
584.7747, 39.77021
585.2568, 39.51133
585.7390, 39.92164
586.2211, 40.85402
586.7032, 41.56366
587.1853, 41.40908
587.6674, 40.73281
588.1495, 40.47895
588.6317, 40.70689
589.1138, 41.00275
589.5959, 41.32276
590.0780, 41.56722
590.5601, 41.59614
591.0422, 41.41386
591.5244, 41.24571
592.0065, 41.14614
592.4886, 41.10061
592.9707, 41.12676
593.4528, 41.20056
593.9349, 41.26642
594.4171, 41.30676
594.8992, 41.26947
595.3813, 41.03975
595.8634, 40.48346
596.3455, 40.13495
596.8276, 40.05894
597.3098, 40.09032
597.7919, 40.26189
598.2740, 40.46673
598.7561, 40.52369
599.2382, 40.35380
599.7203, 40.11432
600.2025, 39.94497
600.6846, 39.85114
601.1667, 40.11784
601.6488, 40.97907
602.1309, 41.78934
602.6130, 42.12303
603.0952, 42.08512
603.5773, 41.80261
604.0594, 41.10538
604.5415, 40.51952
605.0236, 40.32231
605.5057, 40.40141
605.9879, 40.66800
606.4700, 41.07566
606.9521, 41.39869
607.4342, 41.41354
607.9163, 41.18910
608.3984, 41.26122
608.8806, 42.06594
609.3627, 42.56371
609.8448, 42.65082
610.3269, 42.42258
610.8090, 41.73957
611.2911, 40.75720
611.7733, 40.02604
612.2554, 39.99699
612.7375, 40.41388
613.2196, 40.72377
613.7017, 40.92992
614.1838, 40.98680
614.6660, 40.78012
615.1481, 40.54022
615.6302, 40.56781
616.1123, 40.84208
616.5944, 41.07665
617.0765, 41.24496
617.5587, 41.32624
618.0408, 41.27314
618.5229, 41.12591
619.0050, 40.91856
619.4871, 40.66865
619.9692, 40.53698
620.4514, 40.79324
620.9335, 41.53419
621.4156, 41.92708
621.8977, 41.62594
622.3798, 41.37472
622.8619, 41.37690
623.3441, 41.52114
623.8262, 41.69093
624.3083, 41.85582
624.7904, 42.01243
625.2725, 42.23919
625.7546, 42.44676
626.2367, 42.31982
626.7188, 41.81159
627.2009, 41.33468
627.6830, 41.10563
628.1652, 41.03912
628.6473, 40.90801
629.1294, 40.59834
629.6115, 40.58173
630.0936, 41.32069
630.5757, 42.03899
631.0579, 42.10093
631.5400, 41.66044
632.0221, 41.18267
632.5042, 40.89826
632.9863, 40.82066
633.4684, 41.02576
633.9506, 41.58966
634.4327, 42.07732
634.9148, 42.58836
635.3969, 42.84935
635.8790, 42.48452
636.3611, 41.86595
636.8433, 41.68127
637.3254, 42.21680
637.8075, 42.83385
638.2896, 43.19252
638.7717, 43.27564
639.2538, 42.91458
639.7360, 42.11015
640.2181, 41.39280
640.7002, 41.12840
641.1823, 41.25136
641.6644, 41.49866
642.1465, 42.29603
642.6287, 42.61029
643.1108, 41.94347
643.5929, 41.21016
644.0750, 41.06371
644.5571, 41.39279
645.0392, 41.70156
645.5214, 41.69747
646.0035, 41.59388
646.4856, 41.81011
646.9677, 42.34426
647.4498, 42.68890
647.9319, 42.69606
648.4141, 42.61894
648.8962, 42.64996
649.3783, 42.76626
649.8604, 42.88093
650.3425, 42.96961
650.8246, 43.07923
651.3068, 43.36443
651.7889, 43.60866
652.2710, 43.40430
652.7531, 42.79485
653.2352, 42.34157
653.7173, 42.51249
654.1995, 43.14018
654.6816, 43.50605
655.1637, 43.45076
655.6458, 43.51278
656.1279, 43.97670
656.6100, 44.41219
657.0922, 44.51498
657.5743, 44.36773
658.0564, 44.30769
658.5385, 44.65545
659.0206, 44.87318
659.5027, 44.13095
659.9849, 42.85046
660.4670, 42.33620
660.9491, 42.90717
661.4312, 43.69381
661.9133, 43.89017
662.3954, 43.55338
662.8776, 43.49479
663.3597, 44.29346
663.8418, 44.60571
664.3239, 43.61517
664.8060, 42.60609
665.2881, 42.83209
665.7703, 44.11554
666.2524, 45.25550
666.7345, 45.45996
667.2166, 45.14246
667.6987, 45.07305
668.1808, 45.24180
668.6630, 45.25214
669.1451, 44.95872
669.6272, 44.60921
670.1093, 44.44438
670.5914, 44.45207
671.0735, 44.43925
671.5557, 44.21500
672.0378, 44.19916
672.5199, 44.74877
673.0020, 45.44569
673.4841, 45.87091
673.9662, 45.95275
674.4484, 45.78836
674.9305, 45.41280
675.4126, 44.90936
675.8947, 44.58046
676.3768, 44.48864
676.8589, 44.27840
677.3411, 43.68760
677.8232, 43.17609
678.3053, 43.11710
678.7874, 43.43467
679.2695, 43.87423
679.7516, 44.59126
680.2338, 45.14688
680.7159, 45.23951
681.1980, 45.02009
681.6801, 44.60374
682.1622, 44.07210
682.6443, 43.74256
683.1265, 43.90288
683.6086, 44.44735
684.0907, 44.89364
684.5728, 45.34973
685.0549, 45.46743
685.5370, 44.80359
686.0192, 44.13690
686.5013, 43.96887
686.9834, 44.17161
687.4655, 44.31532
687.9476, 44.22663
688.4297, 44.05416
688.9119, 43.84435
689.3940, 43.66492
689.8761, 43.70674
690.3582, 43.99954
690.8403, 44.37041
691.3224, 44.71189
691.8046, 45.00265
692.2867, 45.14066
692.7688, 45.00508
693.2509, 44.90846
693.7330, 44.81551
694.2151, 44.80720
694.6973, 44.96692
695.1794, 45.24836
695.6615, 45.57833
696.1436, 45.98502
696.6257, 46.22208
697.1078, 45.89129
697.5900, 45.15731
698.0721, 44.56728
698.5542, 44.19873
699.0363, 43.98904
699.5184, 43.87976
700.0005, 43.91010
700.4827, 44.23528
700.9648, 45.32638
701.4469, 45.93023
701.9290, 45.68068
702.4111, 45.26952
702.8932, 44.95362
703.3754, 44.82597
703.8575, 45.00355
704.3396, 45.54384
704.8217, 46.25714
705.3038, 47.06205
705.7859, 47.86806
706.2681, 48.17016
706.7502, 47.86674
707.2323, 47.48837
707.7144, 47.32092
708.1965, 47.27117
708.6786, 47.11260
709.1607, 46.77513
709.6428, 46.53956
710.1249, 46.39246
710.6071, 46.38241
711.0892, 46.60461
711.5713, 46.96176
712.0534, 47.35746
712.5355, 47.74647
713.0176, 47.96142
713.4998, 47.63123
713.9819, 46.92051
714.4640, 46.81342
714.9461, 47.42958
715.4282, 47.96235
715.9103, 48.11494
716.3925, 47.95887
716.8746, 47.41747
717.3567, 46.36784
717.8388, 46.01654
718.3209, 47.11210
718.8030, 48.22130
719.2852, 48.63502
719.7673, 48.66451
720.2494, 48.75616
720.7315, 49.01908
721.2136, 49.31240
721.6957, 49.52427
722.1779, 49.65623
722.6600, 49.69947
723.1421, 49.64521
723.6242, 49.58115
724.1063, 49.53886
724.5884, 49.48239
725.0706, 49.29940
725.5527, 49.01754
726.0348, 49.02486
726.5169, 49.68850
726.9990, 50.21778
727.4811, 50.34336
727.9633, 50.20646
728.4454, 49.88837
728.9275, 49.45042
729.4096, 48.98964
729.8917, 48.54002
730.3738, 48.19298
730.8560, 48.19147
731.3381, 48.54594
731.8202, 48.88676
732.3023, 49.15562
732.7844, 49.41011
733.2665, 49.78196
733.7487, 50.16272
734.2308, 50.15644
734.7129, 49.48413
735.1950, 48.95712
735.6771, 48.73442
736.1592, 48.71878
736.6414, 49.04807
737.1235, 49.49709
737.6056, 49.48924
738.0877, 48.75018
738.5698, 47.89079
739.0519, 47.86584
739.5341, 48.56105
740.0162, 48.90281
740.4983, 48.76508
740.9804, 48.60844
741.4625, 48.60680
741.9446, 48.76177
742.4268, 49.20414
742.9089, 50.11382
743.3910, 50.38872
743.8731, 49.28540
744.3552, 48.23602
744.8373, 47.86710
745.3195, 48.01065
745.8016, 48.51396
746.2837, 49.26679
746.7658, 49.93591
747.2479, 50.13029
747.7300, 50.70918
748.2122, 50.43758
748.6943, 51.25247
749.1764, 51.75219
749.6585, 51.64017
750.1406, 51.36386
750.6227, 51.36662
751.1049, 51.64252
751.5870, 51.90744
752.0691, 52.38721
752.5512, 52.55438
753.0333, 51.94866
753.5154, 51.28137
753.9976, 51.16629
754.4797, 51.54047
754.9618, 52.00743
755.4439, 52.39587
755.9260, 52.68772
756.4081, 52.78905
756.8903, 52.76385
757.3724, 52.89919
757.8545, 53.23856
758.3366, 53.58940
758.8187, 53.83850
759.3008, 54.01076
759.7830, 54.14423
760.2651, 54.05025
760.7472, 54.38152
761.2293, 55.63566
761.7114, 56.72878
762.1935, 57.24264
762.6757, 57.32280
763.1578, 57.12039
763.6399, 56.68572
764.1220, 56.23887
764.6041, 55.82246
765.0862, 55.55554
765.5684, 55.69686
766.0505, 56.17696
766.5326, 56.67529
767.0147, 57.09614
767.4968, 57.40796
767.9789, 57.55754
768.4611, 57.55413
768.9432, 57.61069
769.4253, 57.87793
769.9074, 57.94218
770.3895, 57.46898
770.8716, 57.01861
771.3538, 57.10432
771.8359, 57.54104
772.3180, 57.67621
772.8001, 57.16978
773.2822, 56.58973
773.7643, 56.40275
774.2465, 56.34296
774.7286, 55.99082
775.2107, 55.35083
775.6928, 54.66082
776.1749, 54.03716
776.6570, 53.56013
777.1392, 53.40141
777.6213, 53.58987
778.1034, 53.90589
778.5855, 54.44471
779.0676, 54.92305
779.5497, 55.19908
780.0319, 55.35452
780.5140, 55.47469
780.9961, 55.55931
781.4782, 55.66532
781.9603, 55.70594
782.4424, 55.87783
782.9246, 56.44169
783.4067, 57.14444
783.8888, 57.58405
784.3709, 57.71268
784.8530, 57.81856
785.3351, 58.16073
785.8173, 58.59158
786.2994, 58.60651
786.7815, 58.20366
787.2636, 58.37209
787.7457, 59.46672
788.2278, 60.56828
788.7100, 60.91282
789.1921, 60.72175
789.6742, 60.87397
790.1563, 61.65020
790.6384, 62.23916
791.1205, 62.87813
791.6026, 63.03852
792.0847, 61.86710
792.5668, 60.20966
793.0490, 59.51501
793.5311, 60.19939
794.0132, 61.24026
794.4953, 61.94320
794.9774, 62.38140
795.4595, 62.65728
795.9417, 62.77893
796.4238, 62.74756
796.9059, 62.55893
797.3880, 62.27670
797.8701, 61.93597
798.3522, 61.55417
798.8344, 61.47985
799.3165, 62.03105
799.7986, 62.27438
800.2807, 61.70014
800.7628, 61.09983
801.2449, 61.00252
801.7271, 61.25177
802.2092, 61.40159
802.6913, 61.35986
803.1734, 61.18151
803.6555, 60.86426
804.1376, 60.44689
804.6198, 59.95134
805.1019, 59.39724
805.5840, 58.75657
806.0661, 58.02769
806.5482, 57.42746
807.0303, 57.42707
807.5125, 56.71787
807.9946, 57.50179
808.4767, 55.99028
808.9588, 54.91579
809.4409, 54.90392
809.9230, 55.36007
810.4052, 55.70791
810.8873, 55.94202
811.3694, 55.98483
811.8515, 55.77352
812.3336, 55.46016
812.8157, 54.97830
813.2979, 54.48481
813.7800, 54.05705
814.2621, 53.73267
814.7442, 53.61937
815.2263, 53.82107
815.7084, 53.93740
816.1906, 53.45639
816.6727, 52.65043
817.1548, 52.08088
817.6369, 51.76257
818.1190, 51.41814
818.6011, 50.90547
819.0833, 50.51884
819.5654, 50.75695
820.0475, 51.65685
820.5296, 52.10380
821.0117, 51.91351
821.4938, 51.64922
821.9760, 51.35668
822.4581, 51.13106
822.9402, 51.06261
823.4223, 51.13193
823.9044, 51.25564
824.3865, 51.58149
824.8687, 51.71248
825.3508, 51.24368
825.8329, 50.70107
826.3150, 50.68414
826.7971, 51.05215
827.2792, 51.22468
827.7614, 50.94083
828.2435, 50.68212
828.7256, 51.20657
829.2077, 52.25172
829.6898, 52.77366
830.1719, 52.74390
830.6541, 52.64459
831.1362, 52.63884
831.6183, 52.68496
832.1004, 52.76211
832.5825, 52.86727
833.0646, 52.75426
833.5468, 51.97192
834.0289, 51.68618
834.5110, 52.57964
834.9931, 53.47075
835.4752, 53.51713
835.9573, 52.98060
836.4395, 52.61446
836.9216, 52.65996
837.4037, 52.71846
837.8858, 52.39116
838.3679, 52.11748
838.8500, 52.54415
839.3322, 53.39630
839.8143, 53.87926
840.2964, 53.73879
840.7785, 53.47099
841.2606, 53.67157
841.7427, 54.16804
842.2249, 54.15604
842.7070, 53.59845
843.1891, 53.49163
843.6712, 54.21590
844.1533, 54.97762
844.6354, 55.04034
845.1176, 54.58115
845.5997, 54.47301
846.0818, 55.06099
846.5639, 55.45557
847.0460, 55.57159
847.5281, 55.59470
848.0103, 55.51765
848.4924, 55.44527
848.9745, 55.51764
849.4566, 55.76241
849.9387, 56.11487
850.4208, 56.74467
850.9030, 57.28477
851.3851, 57.44299
851.8672, 57.25386
852.3493, 56.54882
852.8314, 55.46292
853.3135, 54.87223
853.7957, 55.53394
854.2778, 56.84423
854.7599, 57.35239
855.2420, 57.08218
855.7241, 57.29593
856.2062, 58.29069
856.6884, 58.89013
857.1705, 58.25393
857.6526, 57.11455
858.1347, 56.88806
858.6168, 57.89526
859.0989, 58.36377
859.5811, 57.99279
860.0632, 57.48800
860.5453, 56.86107
861.0274, 56.27702
861.5095, 55.83812
861.9916, 55.56741
862.4738, 55.52273
862.9559, 55.87371
863.4380, 56.16325
863.9201, 56.09203
864.4022, 55.79961
864.8843, 55.39022
865.3665, 54.91792
865.8486, 54.52308
866.3307, 54.25921
866.8128, 53.92379
867.2949, 53.21465
867.7770, 52.22675
868.2592, 51.36564
868.7413, 50.63435
869.2234, 49.93820
869.7055, 49.24463
870.1876, 48.60533
870.6697, 48.10614
871.1519, 47.69763
871.6340, 47.08077
872.1161, 45.90947
872.5981, 45.19478
873.0803, 45.49963
873.5624, 45.71281
874.0445, 45.12020
874.5266, 44.27138
875.0087, 44.09449
875.4908, 44.75924
875.9730, 45.03735
876.4551, 44.19825
876.9372, 43.18676
877.4193, 42.45007
877.9014, 41.96962
878.3835, 41.76838
878.8657, 41.78115
879.3478, 41.79307
879.8299, 41.67287
880.3120, 41.51073
880.7941, 41.47377
881.2762, 41.49422
881.7584, 41.31166
882.2405, 40.92621
882.7226, 40.56861
883.2047, 40.32941
883.6868, 40.28234
884.1689, 40.62364
884.6511, 41.32188
885.1332, 41.22315
885.6153, 39.90379
886.0974, 38.96093
886.5795, 38.82886
887.0616, 38.99781
887.5438, 39.19114
888.0259, 39.37676
888.5080, 39.43952
888.9901, 39.24638
889.4722, 39.24334
889.9543, 39.90377
890.4365, 40.32355
890.9186, 39.65346
891.4007, 38.64826
891.8828, 38.47506
892.3649, 39.20421
892.8470, 39.74826
893.3292, 39.29114
893.8113, 38.64542
894.2934, 38.70103
894.7755, 39.06445
895.2576, 39.00653
895.7397, 38.52121
896.2219, 38.06495
896.7040, 37.87823
897.1861, 37.82967
897.6682, 37.77171
898.1503, 37.69159
898.6324, 37.44259
899.1146, 37.00854
899.5967, 36.67024
900.0788, 36.53370
900.5609, 36.42872
901.0430, 36.14611
901.5251, 35.75626
902.0073, 35.73463
902.4894, 36.48320
902.9715, 36.76719
903.4536, 36.06385
903.9357, 35.42557
904.4178, 35.37715
904.9000, 35.63715
905.3821, 35.84242
905.8642, 35.96157
906.3463, 36.06953
906.8284, 36.31030
907.3105, 36.39075
907.7927, 35.93153
908.2748, 35.41925
908.7569, 35.40890
909.2390, 35.82795
909.7211, 36.28064
910.2032, 36.61986
910.6854, 36.77124
911.1675, 36.51174
911.6496, 36.10734
912.1317, 36.04970
912.6138, 36.24942
913.0959, 36.29139
913.5781, 36.06140
914.0602, 35.83111
914.5423, 35.87968
915.0244, 36.07582
915.5065, 36.02840
915.9886, 35.73600
916.4708, 35.23767
916.9529, 34.43908
917.4350, 33.99712
917.9171, 34.37403
918.3992, 35.12654
918.8813, 35.47071
919.3635, 35.34713
919.8456, 35.29066
920.3277, 35.34745
920.8098, 35.39599
921.2919, 35.37524
921.7740, 35.37061
922.2562, 35.51654
922.7383, 35.72477
923.2204, 35.71146
923.7025, 35.32539
924.1846, 35.02478
924.6667, 34.92089
925.1489, 34.93628
925.6310, 35.11927
926.1131, 35.34167
926.5952, 35.46322
927.0773, 35.45074
927.5594, 35.29902
928.0416, 34.93541
928.5237, 34.54773
929.0058, 34.31002
929.4879, 34.15599
929.9700, 33.84044
930.4521, 33.48999
930.9343, 33.75787
931.4164, 34.88820
931.8985, 35.94912
932.3806, 35.68525
932.8627, 34.54596
933.3448, 34.01180
933.8270, 34.03061
934.3091, 33.94121
934.7912, 33.58213
935.2733, 33.55312
935.7554, 34.37333
936.2375, 35.57347
936.7197, 35.97887
937.2018, 35.43133
937.6839, 34.97983
938.1660, 34.61658
938.6481, 34.37145
939.1302, 34.30279
939.6124, 34.29277
940.0945, 34.21507
940.5766, 34.08109
941.0587, 33.99936
941.5408, 33.94841
942.0229, 33.97890
942.5051, 34.25924
942.9872, 34.43854
943.4693, 34.42867
943.9514, 34.17105
944.4335, 33.36523
944.9156, 32.03131
945.3978, 31.33330
945.8799, 32.22535
946.3620, 33.16468
946.8441, 33.32910
947.3262, 33.17635
947.8083, 33.14653
948.2905, 33.22896
948.7726, 33.23144
949.2547, 33.08250
949.7368, 32.91471
950.2189, 32.83231
950.7010, 32.79911
951.1832, 32.79486
951.6653, 32.79298
952.1474, 32.67254
952.6295, 32.45475
953.1116, 32.43238
953.5938, 32.82492
954.0759, 33.29271
954.5580, 33.14156
955.0400, 33.28745
955.5222, 33.35833
956.0043, 32.97478
956.4864, 33.18580
956.9685, 32.80921
957.4506, 32.31036
957.9327, 32.13616
958.4149, 32.22311
958.8970, 32.33860
959.3791, 32.52168
959.8612, 32.54102
960.3433, 32.38263
960.8254, 32.02615
961.3076, 31.27880
961.7897, 30.55700
962.2718, 30.44287
962.7539, 30.94495
963.2360, 31.56463
963.7181, 32.62632
964.2003, 33.29650
964.6824, 33.38729
965.1645, 33.20086
965.6466, 32.70235
966.1287, 32.10795
966.6108, 31.78906
967.0930, 31.79974
967.5751, 31.84339
968.0572, 31.95212
968.5393, 31.96372
969.0214, 31.57635
969.5035, 31.25753
969.9857, 31.66068
970.4678, 32.47097
970.9499, 32.73133
971.4320, 32.05900
971.9141, 31.49358
972.3962, 31.70817
972.8784, 32.22680
973.3605, 32.91114
973.8426, 33.47610
974.3247, 33.35331
974.8068, 32.63733
975.2889, 32.04848
975.7711, 31.98288
976.2532, 32.18373
976.7353, 32.46222
977.2174, 32.75971
977.6995, 33.03970
978.1816, 33.24348
978.6638, 33.11036
979.1459, 32.61010
979.6280, 32.15982
980.1101, 32.12032
980.5922, 32.26284
981.0743, 32.01010
981.5565, 32.16984
982.0386, 31.52495
982.5207, 32.18175
983.0028, 32.55916
983.4849, 32.28912
983.9670, 31.84580
984.4492, 31.74022
984.9313, 31.91144
985.4134, 32.12263
985.8955, 32.41204
986.3776, 32.40346
986.8597, 31.97374
987.3419, 31.56314
987.8240, 31.37336
988.3061, 31.33865
988.7882, 31.41302
989.2703, 31.59424
989.7524, 31.47198
990.2346, 30.79090
990.7167, 30.37240
991.1988, 30.35447
991.6809, 30.56609
992.1630, 31.02920
992.6451, 31.60038
993.1273, 32.06171
993.6094, 32.43468
994.0915, 32.53941
994.5736, 32.06281
995.0557, 31.75191
995.5378, 31.81669
996.0200, 32.02219
996.5021, 32.21128
996.9842, 32.42593
997.4663, 32.87875
997.9484, 33.70216
998.4305, 33.95601
998.9127, 32.74256
999.3948, 31.74054
999.8769, 31.87186
1000.359, 32.37734
1000.841, 32.64915
1001.323, 32.65014
1001.805, 32.43876
1002.287, 31.98299
1002.770, 31.69842
1003.252, 31.99253
1003.734, 32.32663
1004.216, 32.24254
1004.698, 31.99972
1005.180, 31.98247
1005.662, 32.16869
1006.144, 32.29686
1006.627, 32.26105
1007.109, 32.09631
1007.591, 31.79227
1008.073, 31.40832
1008.555, 30.78655
1009.037, 30.22284
1009.519, 30.49033
1010.001, 31.50462
1010.483, 32.21859
1010.966, 31.99228
1011.448, 31.52119
1011.930, 31.73340
1012.412, 31.47546
1012.894, 32.11071
1013.376, 31.57625
1013.858, 31.50267
1014.340, 32.02339
1014.823, 32.43132
1015.305, 32.21608
1015.787, 31.70964
1016.269, 31.40830
1016.751, 31.28577
1017.233, 31.26320
1017.715, 31.33179
1018.197, 31.48872
1018.679, 31.72877
1019.162, 31.87062
1019.644, 31.72497
1020.126, 31.53247
1020.608, 32.01938
1021.090, 33.09098
1021.572, 33.35728
1022.054, 32.74028
1022.536, 32.12179
1023.018, 31.75511
1023.501, 31.73152
1023.983, 32.20299
1024.465, 32.94569
1024.947, 33.23166
1025.429, 33.02059
1025.911, 32.79742
1026.393, 32.55987
1026.875, 32.40479
1027.358, 32.36416
1027.840, 32.42934
1028.322, 32.62165
1028.804, 32.88795
1029.286, 33.03727
1029.768, 33.13543
1030.250, 32.78386
1030.732, 31.74957
1031.214, 30.85901
1031.697, 30.30723
1032.179, 30.20747
1032.661, 30.87045
1033.143, 32.04804
1033.625, 32.43086
1034.107, 31.53591
1034.589, 31.07126
1035.071, 31.22602
1035.553, 31.49688
1036.036, 31.77029
1036.518, 32.01704
1037.000, 32.21876
1037.482, 32.36901
1037.964, 32.42148
1038.446, 32.19488
1038.928, 32.23772
1039.410, 33.09212
1039.893, 33.47714
1040.375, 32.41879
1040.857, 31.13553
1041.339, 30.97854
1041.821, 31.69489
1042.303, 31.89216
1042.785, 31.05318
1043.267, 30.65841
1043.750, 31.12126
1044.232, 31.59604
1044.714, 31.75809
1045.196, 31.81914
1045.678, 32.00265
1046.160, 32.27562
1046.642, 32.46516
1047.124, 32.61360
1047.606, 32.54534
1048.089, 32.08164
1048.571, 31.58718
1049.053, 31.01538
1049.535, 30.63062
1050.017, 30.80562
1050.499, 31.40179
1050.981, 31.83138
1051.463, 31.95441
1051.945, 32.03500
1052.428, 32.03192
1052.910, 32.11556
1053.392, 32.69336
1053.874, 33.13747
1054.356, 32.54483
1054.838, 31.25985
1055.320, 30.64787
1055.802, 31.25363
1056.285, 31.59155
1056.767, 31.04116
1057.249, 30.36743
1057.731, 29.62727
1058.213, 29.19322
1058.695, 29.65820
1059.177, 30.71466
1059.659, 31.41360
1060.141, 31.50220
1060.624, 31.39379
1061.106, 31.02969
1061.588, 30.74971
1062.070, 30.76024
1062.552, 30.91107
1063.034, 31.18441
1063.516, 31.44144
1063.998, 31.28557
1064.480, 30.52818
1064.963, 30.11566
1065.445, 30.89202
1065.927, 31.53356
1066.409, 31.07055
1066.891, 30.37279
1067.373, 30.26488
1067.855, 30.65059
1068.337, 31.18058
1068.820, 31.79031
1069.302, 32.14610
1069.784, 31.85949
1070.266, 31.59000
1070.748, 31.82014
1071.230, 32.10617
1071.712, 32.00300
1072.194, 31.63338
1072.677, 31.25048
1073.159, 30.92068
1073.641, 30.88807
1074.123, 31.75869
1074.605, 32.31425
1075.087, 31.46106
1075.569, 30.45906
1076.051, 30.57257
1076.533, 31.30086
1077.016, 31.54687
1077.498, 31.13994
1077.980, 30.80806
1078.462, 30.85663
1078.944, 31.04756
1079.426, 31.39058
1079.908, 31.70798
1080.390, 31.93597
1080.872, 32.00011
1081.354, 31.70770
1081.837, 31.10175
1082.319, 30.64506
1082.801, 30.55425
1083.283, 30.55762
1083.765, 30.52238
1084.247, 30.54299
1084.729, 30.66917
1085.211, 30.90567
1085.694, 31.40442
1086.176, 32.04604
1086.658, 32.26625
1087.140, 31.75741
1087.622, 31.15724
1088.104, 30.46534
1088.586, 30.06324
1089.068, 30.46090
1089.551, 31.09253
1090.033, 31.22431
1090.515, 30.97137
1090.997, 30.98438
1091.479, 31.49170
1091.961, 32.01953
1092.443, 32.69289
1092.925, 32.97345
1093.407, 32.27602
1093.890, 31.29793
1094.372, 30.51977
1094.854, 30.07791
1095.336, 30.20373
1095.818, 31.01188
1096.300, 31.71214
1096.782, 32.28469
1097.264, 32.40031
1097.746, 31.41174
1098.229, 30.41052
1098.711, 30.38535
1099.193, 30.93015
1099.675, 31.23409
1100.157, 31.18103
1100.639, 31.04400
1101.121, 30.81733
1101.603, 30.61867
1102.086, 30.44471
1102.568, 30.34426
1103.050, 30.27584
1103.532, 30.34167
1104.014, 30.89576
1104.496, 31.84737
1104.978, 32.10056
1105.460, 30.58163
1105.943, 29.85716
1106.425, 31.05397
1106.907, 32.24307
1107.389, 32.62593
1107.871, 32.52975
1108.353, 32.23351
1108.835, 31.78492
1109.317, 31.28764
1109.799, 30.61170
1110.281, 30.22896
1110.764, 30.34624
1111.246, 30.53272
1111.728, 30.81920
1112.210, 30.98905
1112.692, 30.68079
1113.174, 30.16237
1113.656, 30.17554
1114.138, 30.89335
1114.621, 31.35927
1115.103, 31.56074
1115.585, 31.52050
1116.067, 31.09294
1116.549, 30.61569
1117.031, 30.20104
1117.513, 29.91888
1117.995, 29.90659
1118.478, 30.16657
1118.960, 30.47354
1119.442, 31.08577
1119.924, 31.06589
1120.406, 29.89028
1120.888, 28.99767
1121.370, 29.07775
1121.852, 29.61680
1122.334, 30.09413
1122.817, 30.49626
1123.299, 30.76288
1123.781, 30.92777
1124.263, 30.74002
1124.745, 29.99089
1125.227, 29.68716
1125.709, 30.28393
1126.191, 30.92090
1126.673, 30.84168
1127.156, 30.37866
1127.638, 30.35624
1128.120, 30.79079
1128.602, 31.18411
1129.084, 31.54891
1129.566, 31.71154
1130.048, 31.63251
1130.530, 31.34025
1131.013, 30.80566
1131.495, 30.32150
1131.977, 30.38324
1132.459, 30.83932
1132.941, 30.88969
1133.423, 30.57476
1133.905, 30.45752
1134.387, 30.59509
1134.870, 30.82501
1135.352, 31.08323
1135.834, 31.19474
1136.316, 30.95076
1136.798, 30.56098
1137.280, 30.43975
1137.762, 30.55684
1138.244, 30.90337
1138.726, 31.39874
1139.208, 31.78121
1139.691, 31.94475
1140.173, 31.56550
1140.655, 30.36750
1141.137, 29.19782
1141.619, 29.29148
1142.101, 30.02947
1142.583, 30.52742
1143.065, 30.71214
1143.548, 30.12077
1144.030, 29.08529
1144.512, 29.01907
1144.994, 30.42106
1145.476, 31.88736
1145.958, 32.30589
1146.440, 32.25522
1146.922, 32.25055
1147.405, 32.17366
1147.887, 31.60978
1148.369, 30.95039
1148.851, 31.22425
1149.333, 32.41117
1149.815, 33.08700
1150.297, 32.42094
1150.779, 31.56313
1151.261, 30.99175
1151.744, 30.69190
1152.226, 30.65673
1152.708, 30.88643
1153.190, 31.67703
1153.672, 32.70209
1154.154, 32.95258
1154.636, 32.07339
1155.118, 31.36343
1155.600, 31.29843
1156.083, 31.33443
1156.565, 31.21963
1157.047, 31.20631
1157.529, 31.74559
1158.011, 32.36752
1158.493, 32.12043
1158.975, 30.98882
1159.457, 30.53938
1159.940, 31.71591
1160.422, 32.17040
1160.904, 31.05786
1161.386, 30.36621
1161.868, 31.29831
1162.350, 32.26775
1162.832, 31.56301
1163.314, 29.89309
1163.796, 29.55247
1164.279, 30.86661
1164.761, 31.70294
1165.243, 31.98040
1165.725, 32.04410
1166.207, 31.94117
1166.689, 31.65008
1167.171, 31.06657
1167.653, 30.57215
1168.135, 30.76451
1168.618, 31.49668
1169.100, 31.96631
1169.582, 32.17360
1170.064, 32.19425
1170.546, 32.03893
1171.028, 31.92236
1171.510, 31.91619
1171.992, 32.02755
1172.474, 32.27941
1172.957, 32.56297
1173.439, 32.73066
1173.921, 32.76463
1174.403, 32.57098
1174.885, 32.20254
1175.367, 31.71051
1175.849, 31.20426
1176.331, 31.18381
1176.814, 31.84369
1177.296, 32.48565
1177.778, 32.39899
1178.260, 32.70580
1178.742, 32.26662
1179.224, 32.54086
1179.706, 32.40409
1180.188, 32.00575
1180.671, 31.71298
1181.153, 31.58495
1181.635, 31.44997
1182.117, 31.19142
1182.599, 31.07379
1183.081, 31.48351
1183.563, 31.78933
1184.045, 31.48498
1184.527, 30.98145
1185.010, 30.53055
1185.492, 30.26683
1185.974, 30.51591
1186.456, 31.36633
1186.938, 31.82619
1187.420, 31.16213
1187.902, 30.97067
1188.384, 31.96362
1188.866, 32.91278
1189.349, 33.37266
1189.831, 33.45275
1190.313, 33.15905
1190.795, 32.59307
1191.277, 32.13530
1191.759, 31.74863
1192.241, 31.66554
1192.723, 31.97153
1193.206, 32.31895
1193.688, 32.70737
1194.170, 32.77680
1194.652, 32.20334
1195.134, 31.64471
1195.616, 32.13778
1196.098, 33.32850
1196.580, 33.59955
1197.063, 33.06526
1197.545, 32.98093
1198.027, 33.37416
1198.509, 33.56670
1198.991, 33.35966
1199.473, 32.83930
1199.955, 32.02074
1200.437, 31.29434
1200.919, 31.24909
1201.401, 31.57930
1201.884, 31.85842
1202.366, 32.04979
1202.848, 32.05877
1203.330, 31.93696
1203.812, 31.84901
1204.294, 31.84127
1204.776, 31.81146
1205.258, 31.53147
1205.741, 31.54609
1206.223, 32.59282
1206.705, 33.65162
1207.187, 33.91078
1207.669, 33.74389
1208.151, 33.55689
1208.633, 33.41350
1209.115, 33.35561
1209.598, 33.44090
1210.080, 33.31761
1210.562, 32.59932
1211.044, 32.16099
1211.526, 32.38857
1212.008, 32.67208
1212.490, 32.79335
1212.972, 32.76171
1213.454, 32.53870
1213.937, 32.18204
1214.419, 31.96079
1214.901, 31.86680
1215.383, 32.00225
1215.865, 32.43989
1216.347, 32.65464
1216.829, 32.51795
1217.311, 32.17978
1217.793, 31.68267
1218.276, 31.38688
1218.758, 31.87518
1219.240, 32.80029
1219.722, 33.23175
1220.204, 33.24067
1220.686, 32.97060
1221.168, 32.52347
1221.650, 32.07097
1222.133, 31.74367
1222.615, 32.06834
1223.097, 33.43277
1223.579, 34.65682
1224.061, 34.45361
1224.543, 33.82998
1225.025, 33.75924
1225.507, 33.83619
1225.990, 33.47581
1226.472, 32.89558
1226.954, 32.59876
1227.436, 32.65903
1227.918, 32.80836
1228.400, 32.91811
1228.882, 33.22124
1229.364, 34.19794
1229.846, 34.82107
1230.328, 34.29729
1230.811, 33.67494
1231.293, 33.91803
1231.775, 34.48332
1232.257, 34.23953
1232.739, 34.36863
1233.221, 34.58203
1233.703, 34.13446
1234.185, 34.73987
1234.668, 34.68810
1235.150, 34.49107
1235.632, 34.28693
1236.114, 34.25692
1236.596, 34.57588
1237.078, 34.97683
1237.560, 34.89492
1238.042, 34.55412
1238.525, 34.89949
1239.007, 34.58615
1239.489, 34.33491
1239.971, 34.41179
1240.453, 33.83421
1240.935, 33.94602
1241.417, 34.12550
1241.899, 33.94085
1242.381, 33.87792
1242.864, 34.63090
1243.346, 35.33022
1243.828, 35.04476
1244.310, 34.47265
1244.792, 34.29372
1245.274, 34.53751
1245.756, 35.30285
1246.238, 36.58528
1246.720, 37.10992
1247.203, 35.91668
1247.685, 35.20694
1248.167, 35.56585
1248.649, 35.75169
1249.131, 35.20123
1249.613, 34.67119
1250.095, 34.75246
1250.577, 35.21370
1251.059, 35.64910
1251.542, 36.04007
1252.024, 36.14968
1252.506, 35.97913
1252.988, 35.55397
1253.470, 34.91188
1253.952, 34.68431
1254.434, 35.04747
1254.916, 35.56954
1255.399, 35.96860
1255.881, 36.20941
1256.363, 36.25018
1256.845, 36.10022
1257.327, 35.53816
1257.809, 34.95342
1258.291, 35.05091
1258.773, 35.58766
1259.255, 35.95026
1259.738, 36.01034
1260.220, 35.90854
1260.702, 35.58355
1261.184, 35.41244
1261.666, 35.67799
1262.148, 35.90259
1262.630, 35.89132
1263.112, 35.77819
1263.594, 35.59899
1264.077, 35.43158
1264.559, 35.42566
1265.041, 35.26588
1265.523, 35.45058
1266.005, 35.08333
1266.487, 34.85055
1266.969, 34.76410
1267.451, 34.88003
1267.934, 35.22358
1268.416, 35.26946
1268.898, 34.69718
1269.380, 34.18269
1269.862, 34.61914
1270.344, 35.46647
1270.826, 35.81220
1271.308, 35.80759
1271.791, 35.55651
1272.273, 35.26918
1272.755, 35.30542
1273.237, 35.70618
1273.719, 36.47150
1274.201, 37.65572
1274.683, 38.29996
1275.165, 37.54475
1275.647, 36.79604
1276.130, 36.54992
1276.612, 36.49486
1277.094, 36.57728
1277.576, 36.64445
1278.058, 36.47696
1278.540, 36.20234
1279.022, 36.18564
1279.504, 36.44634
1279.986, 36.67977
1280.469, 36.85702
1280.951, 37.26543
1281.433, 37.96643
1281.915, 38.49548
1282.397, 38.69026
1282.879, 38.32980
1283.361, 37.14585
1283.843, 35.96834
1284.326, 35.78396
1284.808, 36.59375
##END=



