##NAMES=Pyrite
##RRUFFID=R050070
##IDEAL CHEMISTRY=Fe^2+^(S_2_)^2-^
##LOCALITY=Mina San Jose de Huanzala, Minero de Huallanca District, Department de Huanuco, Peru
##OWNER=RRUFF
##SOURCE=Rock Currier
##DESCRIPTION=Brass-yellow metallic cube
##STATUS=The identification of this mineral has been confirmed by X-ray diffraction and chemical analysis
##URL=rruff.info/R050070
##MEASURED CHEMISTRY=Fe_1.00_S_2.00_
118.6088, 136.0455
119.0909, 135.4291
119.5731, 137.4321
120.0552, 143.3251
120.5373, 151.6347
121.0194, 160.6000
121.5015, 170.7992
121.9836, 179.9344
122.4658, 186.9959
122.9479, 192.9554
123.4300, 198.8547
123.9121, 205.3271
124.3942, 211.4551
124.8763, 214.5264
125.3585, 211.5469
125.8406, 210.7455
126.3227, 214.0714
126.8048, 220.1772
127.2869, 228.0418
127.7690, 237.3744
128.2512, 247.4604
128.7333, 254.7402
129.2154, 253.0844
129.6975, 256.4572
130.1796, 271.5938
130.6617, 292.2557
131.1439, 309.1248
131.6260, 315.9853
132.1081, 314.7861
132.5902, 320.8484
133.0723, 343.4389
133.5544, 364.2072
134.0366, 376.7256
134.5187, 385.1217
135.0008, 396.9902
135.4829, 417.5876
135.9650, 446.4960
136.4471, 475.5236
136.9293, 505.3265
137.4114, 534.5059
137.8935, 565.6815
138.3756, 596.2182
138.8577, 621.4834
139.3398, 638.6631
139.8220, 647.6936
140.3041, 641.9200
140.7862, 614.7921
141.2683, 582.9257
141.7504, 549.1699
142.2325, 515.9362
142.7147, 488.9172
143.1968, 473.0407
143.6789, 468.8856
144.1610, 464.5129
144.6431, 457.7377
145.1252, 452.5786
145.6074, 450.4608
146.0895, 451.7372
146.5716, 457.5594
147.0537, 469.7546
147.5358, 488.6015
148.0179, 505.9088
148.5001, 521.9752
148.9822, 536.3277
149.4643, 547.1180
149.9464, 554.6443
150.4285, 563.7199
150.9106, 578.7463
151.3928, 599.4794
151.8749, 620.3406
152.3570, 641.3762
152.8391, 662.1935
153.3212, 683.6477
153.8033, 705.8619
154.2855, 725.2717
154.7676, 739.1978
155.2497, 747.8154
155.7318, 751.7867
156.2139, 747.8188
156.6960, 740.8781
157.1782, 738.0472
157.6603, 740.6757
158.1424, 740.4975
158.6245, 727.7181
159.1066, 706.8630
159.5887, 688.5938
160.0709, 674.9286
160.5530, 665.6148
161.0351, 661.6583
161.5172, 664.3480
161.9993, 667.7032
162.4814, 666.2555
162.9636, 662.4133
163.4457, 660.6837
163.9278, 663.8953
164.4099, 669.8281
164.8920, 675.2452
165.3741, 681.0677
165.8563, 683.6293
166.3384, 678.9532
166.8205, 669.7858
167.3026, 660.3733
167.7847, 652.1036
168.2668, 644.7422
168.7490, 638.0496
169.2311, 632.6415
169.7132, 626.3768
170.1953, 617.5004
170.6774, 607.1867
171.1595, 597.1428
171.6417, 587.7542
172.1238, 579.2964
172.6059, 573.3110
173.0880, 572.4988
173.5701, 568.4926
174.0522, 554.8116
174.5344, 536.4454
175.0165, 520.6086
175.4986, 510.6819
175.9807, 505.5200
176.4628, 502.2172
176.9449, 501.7993
177.4271, 501.4157
177.9092, 499.7255
178.3913, 497.4522
178.8734, 495.6626
179.3555, 495.0779
179.8376, 495.1035
180.3197, 493.6240
180.8019, 488.7340
181.2840, 485.8508
181.7661, 486.5208
182.2482, 489.8191
182.7303, 494.8287
183.2124, 501.3341
183.6946, 508.9044
184.1767, 516.5190
184.6588, 524.9219
185.1409, 531.8414
185.6230, 539.6650
186.1051, 544.9754
186.5873, 543.0708
187.0694, 531.0087
187.5515, 512.6048
188.0336, 497.6647
188.5157, 488.0463
188.9978, 479.1599
189.4800, 470.2480
189.9621, 461.3785
190.4442, 452.3181
190.9263, 442.9557
191.4084, 433.8674
191.8905, 426.3313
192.3727, 419.9250
192.8548, 416.1289
193.3369, 416.0881
193.8190, 417.8295
194.3011, 419.4539
194.7832, 420.2029
195.2654, 420.7254
195.7475, 422.7636
196.2296, 428.6224
196.7117, 431.5083
197.1938, 428.2403
197.6759, 423.4135
198.1581, 421.3505
198.6402, 423.4484
199.1223, 427.3392
199.6044, 428.1687
200.0865, 422.5837
200.5686, 420.8180
201.0508, 426.2909
201.5329, 433.6190
202.0150, 438.7856
202.4971, 440.6723
202.9792, 440.6816
203.4613, 441.2866
203.9435, 443.8894
204.4256, 443.7441
204.9077, 438.1425
205.3898, 431.8980
205.8719, 428.8173
206.3540, 429.3932
206.8362, 430.7617
207.3183, 428.6220
207.8004, 420.8011
208.2825, 415.0608
208.7646, 414.5122
209.2467, 413.4559
209.7289, 407.7124
210.2110, 397.3455
210.6931, 386.1377
211.1752, 379.3398
211.6573, 379.8238
212.1395, 374.0773
212.6216, 354.6131
213.1037, 335.7730
213.5858, 325.1064
214.0679, 322.2607
214.5500, 322.0657
215.0322, 319.7800
215.5143, 315.2844
215.9964, 309.4141
216.4785, 298.3700
216.9606, 289.4482
217.4427, 287.0103
217.9249, 289.4532
218.4070, 291.7253
218.8891, 289.2941
219.3712, 281.9658
219.8533, 276.9805
220.3354, 277.3048
220.8176, 277.1963
221.2997, 275.3921
221.7818, 271.9493
222.2639, 266.8510
222.7460, 259.5192
223.2281, 250.5222
223.7103, 246.6475
224.1924, 253.4333
224.6745, 259.6722
225.1566, 263.6752
225.6387, 265.5614
226.1208, 265.6666
226.6030, 264.0921
227.0851, 261.0745
227.5672, 257.5025
228.0493, 252.0497
228.5314, 247.8932
229.0135, 245.6116
229.4957, 244.8038
229.9778, 245.3860
230.4599, 247.3863
230.9420, 249.8983
231.4241, 250.5914
231.9062, 248.2556
232.3884, 246.0728
232.8705, 244.4390
233.3526, 243.1248
233.8347, 241.6141
234.3168, 239.7970
234.7989, 238.5254
235.2811, 239.7350
235.7632, 245.4711
236.2453, 248.7640
236.7274, 246.2755
237.2095, 243.3857
237.6916, 244.2000
238.1738, 249.2574
238.6559, 255.4957
239.1380, 259.2330
239.6201, 260.0143
240.1022, 259.9198
240.5843, 258.4589
241.0665, 256.5971
241.5486, 255.1583
242.0307, 253.9206
242.5128, 251.6801
242.9949, 246.1007
243.4770, 236.5006
243.9592, 231.8607
244.4413, 238.8211
244.9234, 244.6225
245.4055, 244.6881
245.8876, 239.6656
246.3697, 231.7319
246.8519, 220.2330
247.3340, 206.4328
247.8161, 203.2015
248.2982, 221.5454
248.7803, 235.8958
249.2624, 235.0370
249.7446, 225.1153
250.2267, 216.0829
250.7088, 213.1263
251.1909, 214.6117
251.6730, 215.9527
252.1551, 217.1230
252.6373, 218.2015
253.1194, 219.9703
253.6015, 221.3834
254.0836, 221.1514
254.5657, 218.6731
255.0478, 214.9209
255.5300, 211.0823
256.0121, 206.8575
256.4942, 203.7492
256.9763, 203.5429
257.4584, 203.8613
257.9406, 202.7492
258.4227, 199.7562
258.9048, 196.5570
259.3869, 195.0547
259.8690, 195.3323
260.3511, 195.3617
260.8333, 194.8159
261.3154, 193.8208
261.7975, 191.9820
262.2796, 189.4377
262.7617, 187.7652
263.2438, 189.1186
263.7260, 192.7353
264.2081, 193.9901
264.6902, 191.5076
265.1723, 187.9061
265.6544, 183.7926
266.1365, 179.8606
266.6187, 178.7463
267.1008, 183.7543
267.5829, 192.0470
268.0650, 197.5835
268.5471, 199.7630
269.0292, 200.6757
269.5114, 201.8365
269.9935, 202.6840
270.4756, 201.9194
270.9577, 197.5459
271.4398, 192.7854
271.9219, 192.0147
272.4041, 195.3727
272.8862, 197.7394
273.3683, 195.2013
273.8504, 190.7561
274.3325, 190.2000
274.8146, 195.2615
275.2968, 201.5746
275.7789, 207.8511
276.2610, 213.4018
276.7431, 214.7825
277.2252, 209.2410
277.7073, 201.0140
278.1895, 197.4725
278.6716, 199.4194
279.1537, 201.0732
279.6358, 200.4414
280.1179, 198.1513
280.6000, 194.9285
281.0822, 190.7569
281.5643, 186.7030
282.0464, 184.1498
282.5285, 183.2289
283.0106, 182.2875
283.4927, 181.6443
283.9749, 180.5883
284.4570, 177.7559
284.9391, 173.2851
285.4212, 169.7949
285.9033, 169.9285
286.3854, 173.5649
286.8676, 174.3688
287.3497, 169.5181
287.8318, 164.8440
288.3139, 163.7044
288.7960, 165.0903
289.2781, 166.0395
289.7603, 164.8552
290.2424, 162.0879
290.7245, 160.0618
291.2066, 159.0006
291.6887, 158.3356
292.1708, 158.1898
292.6530, 158.3245
293.1351, 158.3450
293.6172, 158.1237
294.0993, 158.0401
294.5814, 158.8160
295.0635, 161.2553
295.5457, 163.0466
296.0278, 164.6541
296.5099, 165.3376
296.9920, 163.9841
297.4741, 160.8285
297.9562, 157.4813
298.4384, 155.4447
298.9205, 154.6619
299.4026, 155.7072
299.8847, 160.9215
300.3668, 165.5699
300.8489, 167.5578
301.3311, 167.7094
301.8131, 168.2727
302.2953, 171.0736
302.7774, 175.1123
303.2595, 174.8584
303.7416, 165.4157
304.2237, 158.9241
304.7058, 159.3731
305.1880, 163.0560
305.6701, 166.2148
306.1522, 167.4754
306.6343, 167.5113
307.1164, 166.8306
307.5985, 164.5855
308.0807, 164.8184
308.5628, 171.4433
309.0449, 178.5724
309.5270, 183.0783
310.0091, 184.5616
310.4912, 183.8137
310.9734, 180.4337
311.4555, 174.7753
311.9376, 170.9281
312.4197, 169.9576
312.9018, 169.7930
313.3839, 168.8388
313.8661, 167.5437
314.3482, 167.1423
314.8303, 168.9564
315.3124, 171.6672
315.7945, 172.7447
316.2766, 171.9010
316.7588, 171.1233
317.2409, 171.8161
317.7230, 173.1332
318.2051, 173.7027
318.6872, 173.3234
319.1693, 172.2434
319.6515, 170.3262
320.1336, 167.7632
320.6157, 165.2880
321.0978, 162.9901
321.5799, 161.1661
322.0620, 160.5130
322.5442, 161.2209
323.0263, 161.6227
323.5084, 159.8262
323.9905, 158.0636
324.4726, 159.5972
324.9547, 164.9700
325.4369, 171.4456
325.9190, 175.3423
326.4011, 176.2060
326.8832, 185.7040
327.3653, 209.3603
327.8474, 236.2327
328.3296, 261.5779
328.8117, 285.1828
329.2938, 308.0477
329.7759, 331.2029
330.2580, 353.5819
330.7401, 369.5657
331.2223, 370.6505
331.7044, 375.9518
332.1865, 391.3482
332.6686, 410.1612
333.1507, 424.4767
333.6328, 432.1031
334.1150, 437.7711
334.5971, 448.9290
335.0792, 468.4223
335.5613, 485.6219
336.0434, 493.9711
336.5255, 505.9799
337.0077, 527.2604
337.4898, 557.9075
337.9719, 595.7830
338.4540, 638.9999
338.9361, 687.7976
339.4182, 744.0602
339.9004, 804.7797
340.3825, 878.2407
340.8646, 972.1996
341.3467, 1076.915
341.8288, 1188.838
342.3109, 1313.149
342.7931, 1415.226
343.2752, 1441.712
343.7573, 1387.357
344.2394, 1292.275
344.7215, 1141.701
345.2036, 970.0693
345.6858, 792.5598
346.1679, 611.4102
346.6500, 457.1828
347.1321, 353.0035
347.6142, 290.3259
348.0963, 248.2516
348.5785, 228.3814
349.0606, 218.0159
349.5427, 210.7022
350.0248, 205.3799
350.5069, 198.9295
350.9890, 188.9954
351.4712, 179.1382
351.9533, 172.6866
352.4354, 169.0747
352.9175, 164.9227
353.3996, 157.9438
353.8817, 150.2509
354.3639, 148.1718
354.8460, 154.8611
355.3281, 159.2724
355.8102, 156.6618
356.2923, 151.5255
356.7744, 149.5054
357.2566, 151.6889
357.7387, 155.0120
358.2208, 156.1651
358.7029, 154.9068
359.1850, 152.5403
359.6671, 146.8581
360.1493, 142.4113
360.6314, 142.9363
361.1135, 146.2378
361.5956, 146.6928
362.0777, 140.4787
362.5598, 130.7318
363.0420, 129.3655
363.5241, 143.6676
364.0062, 154.8476
364.4883, 157.7243
364.9704, 158.7502
365.4525, 164.2412
365.9347, 175.1265
366.4168, 186.2619
366.8989, 191.4326
367.3810, 190.3058
367.8631, 189.2129
368.3452, 187.0767
368.8274, 186.7070
369.3095, 191.0429
369.7916, 198.1066
370.2737, 202.9111
370.7558, 201.0099
371.2379, 197.2580
371.7201, 200.8108
372.2022, 212.4553
372.6843, 223.5582
373.1664, 228.7487
373.6485, 232.4816
374.1306, 241.6497
374.6128, 257.6670
375.0949, 274.7210
375.5770, 288.6606
376.0591, 301.6017
376.5412, 317.8580
377.0233, 338.4304
377.5055, 361.8547
377.9876, 390.0604
378.4697, 423.8943
378.9518, 439.7328
379.4339, 430.2859
379.9160, 408.9909
380.3982, 380.6732
380.8803, 346.8340
381.3624, 308.5809
381.8445, 265.6241
382.3266, 221.7893
382.8087, 188.0646
383.2909, 170.0820
383.7730, 156.3102
384.2551, 147.4306
384.7372, 141.9732
385.2193, 139.7684
385.7014, 140.2053
386.1836, 141.1929
386.6657, 140.5938
387.1478, 138.3467
387.6299, 135.7207
388.1120, 132.2502
388.5941, 128.9093
389.0763, 125.8365
389.5584, 123.1399
390.0405, 120.8371
390.5226, 118.7300
391.0047, 117.5565
391.4868, 119.0481
391.9690, 123.5682
392.4511, 127.2801
392.9332, 129.4247
393.4153, 130.0334
393.8974, 128.6913
394.3795, 125.4472
394.8617, 122.8345
395.3438, 122.7039
395.8259, 123.7856
396.3080, 124.1029
396.7901, 123.4884
397.2722, 121.9531
397.7544, 118.6582
398.2365, 114.4623
398.7186, 113.4013
399.2007, 118.9291
399.6828, 123.6613
400.1649, 124.1455
400.6471, 122.0945
401.1292, 120.4736
401.6113, 120.2525
402.0934, 120.1342
402.5755, 117.9283
403.0576, 112.0118
403.5398, 109.1390
404.0219, 110.9776
404.5040, 113.8309
404.9861, 116.4825
405.4682, 118.5558
405.9503, 119.6975
406.4325, 119.6438
406.9146, 118.5976
407.3967, 117.2360
407.8788, 115.4574
408.3609, 113.5637
408.8430, 110.4342
409.3252, 107.9734
409.8073, 108.2140
410.2894, 111.2956
410.7715, 114.7140
411.2536, 116.3967
411.7357, 116.5857
412.2179, 116.2984
412.7000, 115.2967
413.1821, 114.5450
413.6642, 114.3920
414.1463, 114.9930
414.6284, 117.0064
415.1106, 122.2389
415.5927, 126.8673
416.0748, 128.1945
416.5569, 126.6579
417.0390, 122.8886
417.5211, 116.5261
418.0033, 110.1606
418.4854, 107.8201
418.9675, 110.7628
419.4496, 113.8084
419.9317, 118.3052
420.4138, 121.6008
420.8960, 120.6412
421.3781, 116.6790
421.8602, 113.9485
422.3423, 115.3184
422.8244, 119.7426
423.3065, 122.6848
423.7887, 123.2949
424.2708, 123.6711
424.7529, 123.8941
425.2350, 124.0917
425.7171, 124.5940
426.1992, 125.3277
426.6814, 125.5784
427.1635, 124.0676
427.6456, 121.0570
428.1277, 120.1277
428.6098, 122.6127
429.0919, 124.6150
429.5741, 123.5760
430.0562, 120.9398
430.5383, 118.6885
431.0204, 117.1291
431.5025, 116.3839
431.9846, 116.9954
432.4668, 118.5813
432.9489, 119.7174
433.4310, 119.9594
433.9131, 119.9631
434.3952, 120.7938
434.8773, 122.6485
435.3595, 122.8044
435.8416, 119.2353
436.3237, 115.6164
436.8058, 114.0847
437.2879, 114.3601
437.7701, 115.4975
438.2522, 117.0667
438.7343, 118.8600
439.2164, 120.4853
439.6985, 123.2340
440.1806, 123.3366
440.6628, 118.8685
441.1449, 113.6149
441.6270, 109.3368
442.1091, 106.4732
442.5912, 105.2606
443.0733, 106.2954
443.5555, 108.9762
444.0376, 111.0169
444.5197, 112.3284
445.0018, 113.2448
445.4839, 113.2998
445.9660, 113.3368
446.4482, 114.5492
446.9303, 117.3168
447.4124, 119.3435
447.8945, 119.0489
448.3766, 117.0471
448.8587, 113.8190
449.3409, 109.2042
449.8230, 106.4314
450.3051, 108.7797
450.7872, 115.6036
451.2693, 119.8210
451.7514, 118.7987
452.2336, 118.4407
452.7157, 121.8046
453.1978, 126.5853
453.6799, 129.5565
454.1620, 129.7900
454.6441, 128.4841
455.1263, 127.2351
455.6084, 126.3121
456.0905, 123.9324
456.5726, 115.6980
457.0547, 110.6057
457.5368, 114.1549
458.0190, 122.0308
458.5011, 127.0264
458.9832, 125.7980
459.4653, 122.1725
459.9474, 122.0680
460.4295, 125.5634
460.9117, 126.9791
461.3938, 123.9417
461.8759, 120.2854
462.3580, 119.5179
462.8401, 121.1777
463.3222, 123.0175
463.8044, 125.2087
464.2865, 126.7219
464.7686, 126.1102
465.2507, 123.8798
465.7328, 121.9988
466.2149, 121.3045
466.6971, 121.4732
467.1792, 121.9621
467.6613, 123.3330
468.1434, 123.7738
468.6255, 122.0337
469.1076, 120.4635
469.5898, 120.3968
470.0719, 121.7978
470.5540, 124.5199
471.0361, 128.8754
471.5182, 133.4207
472.0003, 133.3788
472.4825, 126.5448
472.9646, 121.1406
473.4467, 120.7029
473.9288, 120.9863
474.4109, 119.0749
474.8930, 115.0056
475.3752, 111.0486
475.8573, 107.9588
476.3394, 106.0240
476.8215, 106.2896
477.3036, 108.7946
477.7857, 110.8772
478.2679, 110.8980
478.7500, 109.9115
479.2321, 110.8896
479.7142, 115.6560
480.1963, 117.6366
480.6784, 113.0748
481.1606, 106.8771
481.6427, 102.9771
482.1248, 101.8825
482.6069, 103.1250
483.0890, 106.8236
483.5711, 112.0428
484.0533, 113.2952
484.5354, 106.2328
485.0175, 102.4005
485.4996, 105.6797
485.9817, 110.8374
486.4638, 114.0008
486.9460, 114.6644
487.4281, 114.2370
487.9102, 113.3274
488.3923, 112.1966
488.8744, 111.6927
489.3565, 111.8989
489.8387, 112.3379
490.3208, 113.1502
490.8029, 113.8272
491.2850, 113.2466
491.7671, 110.7784
492.2492, 108.8876
492.7314, 108.3269
493.2135, 108.8316
493.6956, 110.7273
494.1777, 113.6979
494.6598, 115.9886
495.1419, 116.1460
495.6241, 114.5496
496.1062, 113.6526
496.5883, 113.5956
497.0704, 114.1202
497.5525, 115.4139
498.0346, 117.0990
498.5168, 119.8220
498.9989, 123.0751
499.4810, 124.1924
499.9631, 119.3203
500.4452, 110.6103
500.9273, 106.5588
501.4095, 107.9637
501.8916, 110.8395
502.3737, 115.2057
502.8558, 118.9746
503.3379, 118.3990
503.8200, 112.0507
504.3022, 107.1595
504.7843, 108.0983
505.2664, 110.9664
505.7485, 110.5698
506.2306, 107.0503
506.7127, 104.9940
507.1949, 107.8663
507.6770, 114.0701
508.1591, 116.5014
508.6412, 110.5812
509.1233, 107.5778
509.6054, 110.1817
510.0876, 114.1509
510.5697, 116.9973
511.0518, 118.2568
511.5339, 118.0470
512.0161, 115.9409
512.4982, 112.7551
512.9803, 110.8350
513.4624, 110.4199
513.9445, 109.9259
514.4266, 108.9949
514.9088, 107.5368
515.3909, 105.1596
515.8730, 101.7145
516.3551, 99.20191
516.8372, 98.20045
517.3193, 98.40084
517.8015, 100.5306
518.2836, 103.8219
518.7657, 105.3346
519.2478, 103.3233
519.7299, 99.41649
520.2120, 97.59068
520.6942, 99.60236
521.1763, 100.3392
521.6584, 97.67619
522.1405, 95.86029
522.6226, 98.77673
523.1047, 104.4301
523.5869, 107.1889
524.0690, 103.1419
524.5511, 96.90195
525.0332, 96.74231
525.5153, 102.6157
525.9974, 107.0133
526.4796, 108.1702
526.9617, 107.2955
527.4438, 104.4392
527.9259, 99.97475
528.4080, 97.92169
528.8901, 101.1776
529.3723, 104.6867
529.8544, 105.4873
530.3365, 104.3778
530.8186, 102.5248
531.3007, 100.3985
531.7828, 99.26633
532.2650, 101.4005
532.7471, 107.8586
533.2292, 110.9772
533.7113, 107.0577
534.1934, 103.9787
534.6755, 105.0292
535.1577, 107.9768
535.6398, 109.7101
536.1219, 109.2892
536.6040, 108.1323
537.0861, 106.8507
537.5682, 105.8684
538.0504, 107.2825
538.5325, 111.7593
539.0146, 115.2544
539.4967, 114.3757
539.9788, 110.1526
540.4609, 107.8040
540.9431, 107.8796
541.4252, 108.8040
541.9073, 111.4799
542.3894, 114.0764
542.8715, 114.4797
543.3536, 112.7901
543.8358, 111.0147
544.3179, 110.9456
544.8000, 111.8923
545.2821, 110.1580
545.7642, 103.5601
546.2463, 100.3092
546.7285, 105.9307
547.2106, 113.1604
547.6927, 116.3132
548.1748, 115.4515
548.6569, 114.3889
549.1390, 114.4280
549.6211, 115.3307
550.1032, 117.9400
550.5853, 121.4751
551.0674, 121.9521
551.5496, 117.2909
552.0317, 111.4870
552.5138, 111.4357
552.9959, 120.1604
553.4780, 124.3565
553.9601, 122.1047
554.4423, 118.0964
554.9244, 111.2584
555.4065, 104.8195
555.8886, 104.3332
556.3707, 111.9829
556.8528, 121.6692
557.3350, 126.6561
557.8171, 127.2095
558.2992, 124.6326
558.7813, 117.6185
559.2634, 112.0492
559.7455, 112.8239
560.2277, 117.9609
560.7098, 120.7823
561.1919, 120.5023
561.6740, 119.2121
562.1561, 116.6559
562.6382, 113.9625
563.1204, 112.7221
563.6025, 112.7601
564.0846, 112.0292
564.5667, 108.6433
565.0488, 104.0067
565.5309, 104.1162
566.0131, 111.5143
566.4952, 117.2303
566.9773, 119.3023
567.4594, 119.5059
567.9415, 117.9949
568.4236, 115.3153
568.9058, 113.5220
569.3879, 114.1778
569.8700, 115.4629
570.3521, 115.5250
570.8342, 114.6556
571.3163, 113.9315
571.7985, 113.7212
572.2806, 113.2900
572.7627, 111.5690
573.2448, 108.2659
573.7269, 106.4123
574.2090, 106.5950
574.6912, 107.4256
575.1733, 108.9964
575.6554, 110.8084
576.1375, 112.4521
576.6196, 113.8002
577.1017, 114.7393
577.5839, 114.6432
578.0660, 114.0627
578.5481, 115.3802
579.0302, 118.9672
579.5123, 121.3524
579.9944, 120.5672
580.4766, 117.9914
580.9587, 116.0554
581.4408, 114.5775
581.9229, 114.1827
582.4050, 115.5148
582.8871, 117.4614
583.3693, 120.8641
583.8514, 124.0926
584.3335, 122.8993
584.8156, 115.2762
585.2977, 106.5078
585.7798, 105.9873
586.2620, 114.6619
586.7441, 120.5644
587.2262, 122.8751
587.7083, 122.8276
588.1904, 119.7786
588.6725, 115.2090
589.1547, 111.4033
589.6368, 108.5701
590.1189, 106.7201
590.6010, 105.8543
591.0831, 105.9738
591.5652, 107.6747
592.0474, 110.6052
592.5295, 112.9756
593.0116, 113.5800
593.4937, 112.8170
593.9758, 111.8423
594.4579, 110.4479
594.9401, 109.3479
595.4222, 108.3180
595.9043, 107.8817
596.3864, 108.0380
596.8685, 109.0228
597.3506, 111.7866
597.8328, 118.2764
598.3149, 123.4972
598.7970, 121.2344
599.2791, 114.3280
599.7612, 110.2939
600.2433, 110.5721
600.7255, 111.9261
601.2076, 111.4726
601.6897, 109.6531
602.1718, 110.1311
602.6539, 117.4339
603.1360, 120.7557
603.6182, 114.7854
604.1003, 108.1621
604.5824, 108.1611
605.0645, 113.9140
605.5466, 119.2604
606.0287, 120.7905
606.5109, 119.8603
606.9930, 117.6065
607.4751, 114.3524
607.9572, 112.8109
608.4393, 113.8143
608.9214, 116.1889
609.4036, 119.6018
609.8857, 124.0446
610.3678, 123.9339
610.8499, 113.7878
611.3320, 106.4799
611.8141, 107.0977
612.2963, 110.6347
612.7784, 112.2324
613.2605, 111.2889
613.7426, 109.7967
614.2247, 108.6464
614.7068, 108.5193
615.1890, 112.0051
615.6711, 119.3372
616.1532, 125.2009
616.6353, 128.4772
617.1174, 128.9627
617.5995, 125.5276
618.0817, 118.0634
618.5638, 111.8129
619.0459, 106.0492
619.5280, 102.6021
620.0101, 103.0616
620.4922, 105.8104
620.9744, 109.9044
621.4565, 114.5288
621.9386, 117.1407
622.4207, 114.4498
622.9028, 108.3442
623.3849, 106.7468
623.8671, 110.4970
624.3492, 113.8306
624.8313, 114.7242
625.3134, 114.8077
625.7955, 116.7154
626.2776, 120.3119
626.7598, 121.1052
627.2419, 115.4802
627.7240, 110.1520
628.2061, 108.9885
628.6882, 110.0865
629.1703, 110.4641
629.6525, 109.4971
630.1346, 108.7908
630.6167, 110.2713
631.0988, 113.3073
631.5809, 113.9396
632.0630, 111.2235
632.5452, 109.9391
633.0273, 112.8937
633.5094, 116.5693
633.9915, 116.5253
634.4736, 113.0033
634.9557, 110.7427
635.4379, 111.7862
635.9200, 113.1657
636.4021, 113.4671
636.8842, 112.9215
637.3663, 111.4409
637.8484, 109.2736
638.3306, 108.0315
638.8127, 109.6369
639.2948, 113.5134
639.7769, 116.1689
640.2590, 117.5446
640.7411, 117.8950
641.2233, 116.8659
641.7054, 115.2188
642.1875, 113.3269
642.6696, 111.2848
643.1517, 110.4994
643.6339, 113.2654
644.1160, 115.2169
644.5981, 112.6743
645.0802, 108.2734
645.5623, 106.0660
646.0444, 106.8717
646.5266, 108.9040
647.0087, 110.6592
647.4908, 112.1571
647.9729, 113.6423
648.4550, 115.3675
648.9371, 115.9051
649.4193, 113.8574
649.9014, 111.6174
650.3835, 111.7337
650.8656, 113.8642
651.3477, 115.6450
651.8298, 117.5622
652.3120, 118.0565
652.7941, 115.1213
653.2762, 110.9512
653.7583, 107.9113
654.2404, 106.6998
654.7225, 107.9677
655.2047, 112.9681
655.6868, 119.8630
656.1689, 121.8523
656.6510, 117.9258
657.1331, 115.5036
657.6152, 117.2493
658.0974, 119.2980
658.5795, 117.1122
659.0616, 111.9412
659.5437, 109.5351
660.0258, 112.9099
660.5079, 115.9976
660.9901, 116.6215
661.4722, 116.0188
661.9543, 115.0201
662.4364, 114.0497
662.9185, 113.9053
663.4006, 115.2952
663.8828, 117.3252
664.3649, 117.8650
664.8470, 116.8513
665.3291, 116.3549
665.8112, 116.5660
666.2933, 117.6753
666.7755, 120.2666
667.2576, 123.8993
667.7397, 126.7215
668.2218, 129.6967
668.7039, 130.3212
669.1860, 125.5802
669.6682, 120.3914
670.1503, 118.9147
670.6324, 120.4136
671.1145, 121.8484
671.5966, 121.7208
672.0787, 120.8922
672.5609, 120.5157
673.0430, 120.5274
673.5251, 120.5392
674.0072, 120.5643
674.4893, 120.1648
674.9714, 118.6060
675.4536, 116.8142
675.9357, 117.3693
676.4178, 122.0002
676.8999, 125.2026
677.3820, 126.0741
677.8641, 126.2692
678.3463, 126.6797
678.8284, 126.9934
679.3105, 126.3577
679.7926, 124.5054
680.2747, 122.7750
680.7568, 122.3972
681.2390, 123.0902
681.7211, 125.1287
682.2032, 128.2912
682.6853, 128.1365
683.1674, 121.8631
683.6495, 114.2646
684.1317, 112.9758
684.6138, 119.2834
685.0959, 125.1302
685.5780, 132.6132
686.0601, 137.1393
686.5422, 135.9188
687.0244, 132.2160
687.5065, 129.3684
687.9886, 127.7646
688.4707, 125.7819
688.9528, 121.0070
689.4349, 116.5208
689.9171, 117.0095
690.3992, 120.7119
690.8813, 122.1748
691.3634, 119.9473
691.8455, 116.7449
692.3276, 115.1703
692.8098, 115.1319
693.2919, 115.9834
693.7740, 118.2775
694.2561, 120.2203
694.7382, 120.3648
695.2203, 121.0969
695.7025, 125.7715
696.1846, 132.6911
696.6667, 135.2881
697.1488, 128.5596
697.6309, 122.2705
698.1130, 122.7071
698.5952, 125.9063
699.0773, 126.9255
699.5594, 125.5386
700.0415, 124.0446
700.5236, 123.8000
701.0057, 124.5881
701.4879, 126.6187
701.9700, 130.0782
702.4521, 130.5246
702.9342, 126.2233
703.4163, 122.3629
703.8984, 122.3509
704.3806, 124.7412
704.8627, 126.0708
705.3448, 126.1250
705.8269, 125.8344
706.3090, 124.5994
706.7911, 123.7776
707.2733, 124.0008
707.7554, 125.2591
708.2375, 127.9249
708.7196, 131.9894
709.2017, 135.5078
709.6838, 136.6691
710.1660, 135.8842
710.6481, 133.2254
711.1302, 128.9312
711.6123, 127.1813
712.0944, 129.8043
712.5765, 134.0776
713.0587, 136.7330
713.5408, 137.7065
714.0229, 138.4381
714.5050, 139.9530
714.9871, 139.7522
715.4692, 135.1806
715.9514, 130.5544
716.4335, 130.4402
716.9156, 133.8504
717.3977, 135.0585
717.8798, 129.7743
718.3619, 124.3916
718.8441, 124.7167
719.3262, 128.1205
719.8083, 129.9505
720.2904, 129.8151
720.7725, 130.5108
721.2546, 134.1357
721.7368, 138.8404
722.2189, 139.7866
722.7010, 136.3019
723.1831, 133.7435
723.6652, 132.8944
724.1473, 132.1609
724.6295, 129.4921
725.1116, 126.8474
725.5937, 128.8029
726.0758, 137.6256
726.5579, 143.0814
727.0400, 142.0567
727.5222, 138.4706
728.0043, 132.1596
728.4864, 125.8115
728.9685, 123.8922
729.4506, 127.2943
729.9327, 131.8754
730.4149, 134.2494
730.8970, 134.9908
731.3791, 135.1026
731.8612, 134.6644
732.3433, 134.4063
732.8254, 134.5267
733.3076, 135.0332
733.7897, 136.1376
734.2718, 137.6999
734.7539, 137.7731
735.2360, 134.1424
735.7181, 132.7627
736.2003, 137.4178
736.6824, 141.5504
737.1645, 139.9339
737.6466, 134.5611
738.1287, 131.4118
738.6108, 133.0655
739.0930, 134.6999
739.5751, 132.9508
740.0572, 130.1672
740.5393, 128.7442
741.0214, 128.8570
741.5035, 130.6231
741.9857, 134.1113
742.4678, 137.0849
742.9499, 134.7718
743.4320, 127.9057
743.9141, 128.1866
744.3962, 137.6499
744.8784, 143.3524
745.3605, 138.5790
745.8426, 130.3216
746.3247, 128.3415
746.8068, 133.5711
747.2889, 136.3818
747.7711, 134.9558
748.2532, 133.6411
748.7353, 133.2557
749.2174, 133.5604
749.6995, 134.6888
750.1816, 136.3296
750.6638, 137.4465
751.1459, 137.3430
751.6280, 136.9359
752.1101, 137.0422
752.5922, 137.4561
753.0743, 137.5358
753.5565, 137.3826
754.0386, 138.5053
754.5207, 142.0187
755.0028, 145.6295
755.4849, 143.8945
755.9670, 135.8510
756.4492, 131.9262
756.9313, 133.9400
757.4134, 135.9259
757.8955, 135.0426
758.3776, 132.9129
758.8597, 131.4884
759.3419, 130.5231
759.8240, 132.2556
760.3061, 141.1213
760.7882, 147.6291
761.2703, 146.1516
761.7524, 141.8813
762.2346, 140.2443
762.7167, 141.6723
763.1988, 143.5266
763.6809, 144.2158
764.1630, 144.8537
764.6451, 147.2484
765.1273, 150.5084
765.6094, 152.3374
766.0915, 152.4924
766.5736, 152.0455
767.0557, 151.5716
767.5378, 151.2890
768.0200, 152.1062
768.5021, 154.6268
768.9842, 153.9461
769.4663, 147.0277
769.9484, 143.4277
770.4305, 150.4299
770.9127, 160.8916
771.3948, 164.2602
771.8769, 160.0883
772.3590, 155.6828
772.8411, 150.7451
773.3232, 147.0532
773.8054, 145.5285
774.2875, 145.4376
774.7696, 146.2239
775.2517, 147.6732
775.7338, 149.5869
776.2159, 152.1180
776.6981, 154.5105
777.1802, 156.1938
777.6623, 157.0246
778.1444, 156.1812
778.6265, 153.8453
779.1086, 152.2260
779.5908, 152.7111
780.0729, 153.5711
780.5550, 151.0263
781.0371, 144.4772
781.5192, 141.0413
782.0013, 142.3947
782.4835, 142.2138
782.9656, 136.4994
783.4477, 129.6201
783.9298, 127.3334
784.4119, 129.7092
784.8940, 132.4698
785.3762, 135.4559
785.8583, 138.7881
786.3404, 143.4183
786.8225, 147.6757
787.3046, 149.8525
787.7867, 150.3542
788.2689, 150.7660
788.7510, 151.5084
789.2331, 153.1594
789.7152, 157.2642
790.1973, 162.0661
790.6794, 164.6626
791.1616, 165.2080
791.6437, 165.6586
792.1258, 166.8636
792.6079, 167.3784
793.0900, 164.4557
793.5721, 158.7473
794.0543, 157.5274
794.5364, 161.7753
795.0185, 164.0405
795.5006, 161.2930
795.9827, 157.8455
796.4648, 158.1846
796.9470, 161.8559
797.4291, 163.9482
797.9112, 163.3793
798.3933, 162.7403
798.8754, 161.5129
799.3575, 160.8660
799.8397, 161.7397
800.3218, 163.5978
800.8039, 165.6068
801.2860, 167.7119
801.7681, 168.9496
802.2502, 168.5737
802.7324, 167.3450
803.2145, 165.8229
803.6966, 164.0154
804.1787, 161.6189
804.6608, 158.6949
805.1429, 155.9686
805.6251, 153.6906
806.1072, 152.5049
806.5893, 155.3909
807.0714, 161.3683
807.5535, 161.6693
808.0356, 154.3876
808.5178, 148.6147
808.9999, 150.8459
809.4820, 157.6589
809.9641, 160.4552
810.4462, 158.4691
810.9283, 155.0743
811.4105, 148.4401
811.8926, 143.3629
812.3747, 142.4457
812.8568, 143.5531
813.3389, 144.6091
813.8210, 145.5720
814.3032, 145.9269
814.7853, 146.2467
815.2674, 145.1165
815.7495, 140.2283
816.2316, 135.1087
816.7137, 133.0951
817.1959, 133.7846
817.6780, 135.3598
818.1601, 137.6334
818.6422, 137.8565
819.1243, 130.0901
819.6064, 120.8027
820.0886, 122.2685
820.5707, 131.7433
821.0528, 136.8932
821.5349, 133.4811
822.0170, 127.8851
822.4991, 127.3413
822.9813, 130.3664
823.4634, 130.5751
823.9455, 127.8630
824.4276, 124.0686
824.9097, 119.0095
825.3918, 115.2312
825.8740, 115.0049
826.3561, 117.2633
826.8382, 118.4528
827.3203, 118.3551
827.8024, 117.6348
828.2845, 113.5809
828.7667, 112.2903
829.2488, 119.8934
829.7309, 129.0570
830.2130, 130.0521
830.6951, 122.3882
831.1772, 116.2120
831.6594, 113.2073
832.1415, 113.0583
832.6236, 117.5796
833.1057, 123.4458
833.5878, 128.2987
834.0699, 131.3593
834.5521, 131.3538
835.0342, 127.1896
835.5163, 122.8414
835.9984, 122.4015
836.4805, 123.9426
836.9626, 123.9941
837.4448, 123.0310
837.9269, 123.9583
838.4090, 127.6238
838.8911, 131.2042
839.3732, 131.5175
839.8553, 129.5282
840.3375, 128.9199
840.8196, 129.7297
841.3017, 129.7014
841.7838, 128.0829
842.2659, 127.5886
842.7480, 130.7081
843.2302, 135.3743
843.7123, 136.1856
844.1944, 131.6891
844.6765, 128.1584
845.1586, 125.7387
845.6407, 124.0702
846.1229, 122.7350
846.6050, 122.3150
847.0871, 123.9132
847.5692, 127.3169
848.0513, 129.8886
848.5334, 131.2527
849.0156, 131.7822
849.4977, 130.5640
849.9798, 129.4541
850.4619, 130.0743
850.9440, 131.9071
851.4261, 133.7383
851.9083, 135.2351
852.3904, 136.2295
852.8725, 136.1472
853.3546, 135.9128
853.8367, 136.0318
854.3188, 136.9073
854.8010, 140.0842
855.2831, 145.2790
855.7652, 149.2200
856.2473, 149.4308
856.7294, 147.2353
857.2115, 143.6718
857.6937, 139.6046
858.1758, 140.0517
858.6579, 145.2469
859.1400, 147.9900
859.6221, 144.5904
860.1042, 139.7005
860.5864, 140.0543
861.0685, 145.4647
861.5506, 151.2233
862.0327, 158.2728
862.5148, 161.8260
862.9969, 160.0753
863.4791, 155.9134
863.9612, 150.1811
864.4433, 144.1956
864.9254, 143.0199
865.4075, 150.2852
865.8896, 154.7747
866.3718, 154.9475
866.8539, 154.3345
867.3360, 154.2749
867.8181, 153.9991
868.3002, 151.7950
868.7823, 147.9022
869.2645, 146.4418
869.7466, 151.3974
870.2287, 155.1630
870.7108, 154.5616
871.1929, 151.7517
871.6750, 147.0760
872.1572, 142.1422
872.6393, 140.7133
873.1214, 144.2375
873.6035, 146.3781
874.0856, 140.8953
874.5677, 133.0160
875.0499, 128.7896
875.5320, 126.6782
876.0141, 123.0623
876.4962, 117.4288
876.9783, 111.3629
877.4604, 105.5061
877.9426, 101.5591
878.4247, 104.1465
878.9068, 111.0097
879.3889, 113.4064
879.8710, 111.0056
880.3531, 107.5317
880.8353, 104.4321
881.3174, 101.8117
881.7995, 99.97144
882.2816, 98.66409
882.7637, 95.49109
883.2458, 89.62612
883.7280, 88.76835
884.2101, 95.55018
884.6922, 103.0667
885.1743, 107.4047
885.6564, 108.8824
886.1385, 107.7652
886.6207, 102.9129
887.1028, 100.6982
887.5849, 102.5510
888.0670, 104.7707
888.5491, 107.2951
889.0313, 109.0108
889.5134, 108.2685
889.9955, 105.7699
890.4776, 104.7918
890.9597, 106.8601
891.4418, 108.0837
891.9240, 107.6250
892.4061, 106.5393
892.8882, 105.4467
893.3703, 104.0329
893.8524, 101.2277
894.3345, 97.14900
894.8167, 94.74756
895.2988, 96.52506
895.7809, 98.67725
896.2630, 99.27389
896.7451, 99.15736
897.2272, 98.98869
897.7094, 98.92294
898.1915, 99.02974
898.6736, 99.33310
899.1557, 99.83421
899.6378, 100.6074
900.1199, 101.5190
900.6021, 102.3127
901.0842, 103.1437
901.5663, 104.5511
902.0484, 106.4550
902.5305, 107.9209
903.0126, 108.3063
903.4948, 108.3198
903.9769, 109.0715
904.4590, 110.2837
904.9411, 111.0603
905.4232, 111.4047
905.9053, 112.1387
906.3875, 113.5055
906.8696, 112.7964
907.3517, 106.5125
907.8338, 97.65009
908.3159, 97.25967
908.7980, 105.4272
909.2802, 108.9723
909.7623, 105.8670
910.2444, 103.5367
910.7265, 106.0745
911.2086, 109.5683
911.6907, 107.9821
912.1729, 101.4078
912.6550, 97.46132
913.1371, 96.55586
913.6192, 97.04005
914.1013, 99.16734
914.5834, 101.7083
915.0656, 104.3700
915.5477, 106.5670
916.0298, 106.7487
916.5119, 104.0293
916.9940, 102.6307
917.4761, 103.5752
917.9583, 104.3958
918.4404, 104.8613
918.9225, 104.7031
919.4046, 103.4236
919.8867, 101.3190
920.3688, 99.28657
920.8510, 96.10644
921.3331, 95.85976
921.8152, 103.0379
922.2973, 108.7548
922.7794, 106.6139
923.2615, 102.2975
923.7437, 102.9610
924.2258, 108.5345
924.7079, 113.3786
925.1900, 116.6952
925.6721, 117.5661
926.1542, 113.6598
926.6364, 108.9855
927.1185, 105.8003
927.6006, 104.5660
928.0827, 106.7677
928.5648, 112.1859
929.0469, 115.2367
929.5291, 110.5643
930.0112, 104.9949
930.4933, 104.0693
930.9754, 104.8766
931.4575, 103.3945
931.9396, 100.3136
932.4218, 98.78543
932.9039, 99.93133
933.3860, 101.9503
933.8681, 103.5525
934.3502, 104.9438
934.8323, 106.2972
935.3145, 107.6669
935.7966, 109.5553
936.2787, 111.6564
936.7608, 112.4449
937.2429, 111.0811
937.7250, 108.5452
938.2072, 104.6820
938.6893, 101.0713
939.1714, 102.2058
939.6535, 106.9763
940.1356, 111.7324
940.6177, 115.2737
941.0999, 114.6645
941.5820, 107.1707
942.0641, 97.93355
942.5462, 97.41602
943.0283, 103.6245
943.5104, 105.8608
943.9926, 103.9991
944.4747, 102.5126
944.9568, 102.7784
945.4389, 103.6165
945.9210, 103.9577
946.4031, 104.1078
946.8853, 104.9405
947.3674, 106.4562
947.8495, 108.5933
948.3316, 111.5471
948.8137, 112.4866
949.2958, 110.0070
949.7780, 106.6683
950.2601, 105.3223
950.7422, 105.6118
951.2243, 105.6709
951.7064, 105.4662
952.1885, 105.2218
952.6707, 104.9129
953.1528, 104.7602
953.6349, 104.9260
954.1170, 105.1348
954.5991, 104.8254
955.0812, 104.0898
955.5634, 105.2567
956.0455, 109.7077
956.5276, 111.5755
957.0097, 108.8810
957.4918, 106.2531
957.9739, 106.6430
958.4561, 108.0339
958.9382, 106.7981
959.4203, 102.5803
959.9024, 100.9051
960.3845, 103.7043
960.8666, 99.75627
961.3488, 106.2303
961.8309, 109.8327
962.3130, 110.7176
962.7951, 100.7461
963.2772, 104.7934
963.7593, 103.2226
964.2415, 101.4214
964.7236, 107.4418
965.2057, 99.04928
965.6878, 104.9456
966.1699, 105.1381
966.6520, 107.9412
967.1342, 105.0914
967.6163, 103.9875
968.0984, 108.5384
968.5805, 109.9582
969.0626, 106.4576
969.5447, 109.4266
970.0269, 100.8366
970.5090, 102.3898
970.9911, 108.3192
971.4732, 105.1029
971.9553, 108.1752
972.4374, 108.8525
972.9196, 98.64524
973.4017, 107.3672
973.8838, 104.7150
974.3659, 104.1378
974.8480, 102.3870
975.3301, 99.45939
975.8123, 96.36050
976.2944, 95.93992
976.7765, 99.14305
977.2586, 103.3438
977.7407, 108.9107
978.2228, 114.1902
978.7050, 120.5381
979.1871, 124.6117
979.6692, 120.7320
980.1513, 111.6178
980.6334, 107.4702
981.1155, 112.3054
981.5977, 116.4223
982.0798, 116.0340
982.5619, 115.2945
983.0440, 116.7386
983.5261, 118.6599
984.0082, 119.4428
984.4904, 118.8750
984.9725, 116.7914
985.4546, 112.2899
985.9367, 108.8403
986.4188, 107.5072
986.9009, 107.7659
987.3831, 110.8301
987.8652, 114.2668
988.3473, 114.8529
988.8294, 113.0300
989.3115, 112.0778
989.7936, 113.5092
990.2758, 114.3159
990.7579, 112.0028
991.2400, 110.0496
991.7221, 111.5310
992.2042, 114.1118
992.6863, 114.8702
993.1685, 113.7798
993.6506, 112.5204
994.1327, 111.6604
994.6148, 110.6523
995.0969, 107.8880
995.5790, 106.3604
996.0612, 110.0365
996.5433, 114.9167
997.0254, 114.8872
997.5075, 110.7841
997.9896, 109.5022
998.4717, 114.5760
998.9539, 119.1056
999.4360, 120.4439
999.9181, 119.5725
1000.400, 115.3063
1000.882, 110.4354
1001.364, 108.4450
1001.847, 109.2708
1002.329, 110.6951
1002.811, 112.1229
1003.293, 113.5484
1003.775, 115.5467
1004.257, 116.9289
1004.739, 116.9803
1005.221, 115.8482
1005.703, 112.6691
1006.186, 108.4443
1006.668, 106.7706
1007.150, 109.3700
1007.632, 112.9013
1008.114, 117.2453
1008.596, 120.4646
1009.078, 121.1316
1009.560, 120.0527
1010.043, 117.1289
1010.525, 113.4112
1011.007, 112.3947
1011.489, 116.2678
1011.971, 118.6928
1012.453, 115.6092
1012.935, 111.7924
1013.417, 109.0111
1013.899, 107.9151
1014.382, 110.2198
1014.864, 114.7231
1015.346, 117.7105
1015.828, 118.2985
1016.310, 116.7178
1016.792, 109.6325
1017.274, 104.4414
1017.756, 106.9872
1018.239, 112.0082
1018.721, 114.2060
1019.203, 113.9472
1019.685, 113.9491
1020.167, 114.7940
1020.649, 116.1342
1021.131, 119.6631
1021.613, 121.4246
1022.095, 118.3524
1022.578, 113.7518
1023.060, 109.1608
1023.542, 105.9002
1024.024, 107.3803
1024.506, 115.4305
1024.988, 120.2204
1025.470, 116.4893
1025.952, 112.6130
1026.435, 111.9139
1026.917, 112.0795
1027.399, 111.2261
1027.881, 109.7521
1028.363, 108.4197
1028.845, 107.1099
1029.327, 107.9103
1029.809, 114.5853
1030.292, 118.7149
1030.774, 114.0801
1031.256, 110.1738
1031.738, 116.3427
1032.220, 126.5378
1032.702, 129.0393
1033.184, 122.3789
1033.666, 117.2957
1034.148, 115.3362
1034.630, 114.3468
1035.113, 114.0010
1035.595, 114.5234
1036.077, 116.0880
1036.559, 118.5761
1037.041, 123.1401
1037.523, 129.9928
1038.005, 130.7997
1038.487, 118.6438
1038.970, 111.6008
1039.452, 113.6953
1039.934, 117.1978
1040.416, 120.1159
1040.898, 121.5509
1041.380, 119.6657
1041.862, 114.9063
1042.344, 112.2509
1042.826, 112.5585
1043.309, 113.1150
1043.791, 113.6479
1044.273, 114.8631
1044.755, 117.7514
1045.237, 120.3685
1045.719, 120.3713
1046.201, 118.5228
1046.683, 118.7747
1047.166, 123.0574
1047.648, 122.0836
1048.130, 112.7544
1048.612, 107.4253
1049.094, 110.7172
1049.576, 117.0028
1050.058, 122.4281
1050.540, 126.1563
1051.022, 125.2354
1051.505, 118.9133
1051.987, 115.5073
1052.469, 115.3144
1052.951, 116.7982
1053.433, 120.1422
1053.915, 121.8893
1054.397, 119.3130
1054.879, 115.1138
1055.361, 114.5240
1055.844, 117.1319
1056.326, 117.5498
1056.808, 115.7981
1057.290, 116.2493
1057.772, 119.6688
1058.254, 123.8722
1058.736, 127.8941
1059.218, 129.9502
1059.701, 126.8161
1060.183, 120.5140
1060.665, 118.3821
1061.147, 119.5015
1061.629, 118.1385
1062.111, 114.2332
1062.593, 113.3470
1063.075, 117.5051
1063.557, 122.1342
1064.040, 122.7110
1064.522, 121.2200
1065.004, 121.2355
1065.486, 122.0457
1065.968, 122.0088
1066.450, 121.1012
1066.932, 119.3805
1067.414, 117.1146
1067.896, 115.8879
1068.379, 117.0591
1068.861, 118.6605
1069.343, 118.5731
1069.825, 117.4624
1070.307, 115.2655
1070.789, 113.1829
1071.271, 114.2868
1071.753, 118.0045
1072.236, 119.7702
1072.718, 117.1946
1073.200, 114.8600
1073.682, 116.5172
1074.164, 119.3467
1074.646, 121.9364
1075.128, 123.6305
1075.610, 123.2906
1076.093, 121.5264
1076.575, 119.9265
1077.057, 118.8980
1077.539, 118.3366
1078.021, 116.8261
1078.503, 117.5941
1078.985, 126.0470
1079.467, 133.4438
1079.949, 131.8745
1080.432, 125.1442
1080.914, 119.2765
1081.396, 115.1084
1081.878, 113.0910
1082.360, 114.7536
1082.842, 116.3345
1083.324, 117.6467
1083.806, 118.3126
1084.288, 117.5541
1084.771, 116.5122
1085.253, 116.4729
1085.735, 117.2498
1086.217, 118.0211
1086.699, 119.4937
1087.181, 118.8859
1087.663, 114.2966
1088.145, 111.6017
1088.628, 113.1491
1089.110, 115.4547
1089.592, 116.0984
1090.074, 115.6002
1090.556, 114.8738
1091.038, 113.8551
1091.520, 114.7374
1092.002, 117.9652
1092.484, 120.1484
1092.967, 120.6461
1093.449, 120.8595
1093.931, 121.6230
1094.413, 121.6509
1094.895, 118.8904
1095.377, 114.5548
1095.859, 113.7366
1096.341, 115.8050
1096.823, 115.2060
1097.306, 111.9562
1097.788, 110.8404
1098.270, 113.3340
1098.752, 117.3841
1099.234, 121.7390
1099.716, 125.1328
1100.198, 125.5042
1100.680, 123.5652
1101.163, 118.6397
1101.645, 113.2229
1102.127, 115.2909
1102.609, 123.8314
1103.091, 128.2955
1103.573, 123.5345
1104.055, 117.3734
1104.537, 116.3297
1105.020, 116.7533
1105.502, 115.5862
1105.984, 113.7124
1106.466, 111.1863
1106.948, 109.2608
1107.430, 111.0219
1107.912, 116.8192
1108.394, 121.3856
1108.876, 124.0171
1109.359, 122.8551
1109.841, 111.7947
1110.323, 102.8018
1110.805, 105.3805
1111.287, 112.7025
1111.769, 116.6399
1112.251, 117.2520
1112.733, 117.9018
1113.215, 118.8291
1113.698, 119.9000
1114.180, 122.2740
1114.662, 122.8944
1115.144, 120.0787
1115.626, 116.6799
1116.108, 114.1654
1116.590, 112.7998
1117.072, 113.4730
1117.555, 116.2042
1118.037, 116.1788
1118.519, 112.5752
1119.001, 110.9393
1119.483, 112.0976
1119.965, 114.2789
1120.447, 116.9439
1120.929, 118.8002
1121.411, 118.1223
1121.894, 116.5827
1122.376, 119.8718
1122.858, 126.3598
1123.340, 126.7862
1123.822, 121.9220
1124.304, 117.5900
1124.786, 115.3301
1125.268, 115.0793
1125.750, 116.8587
1126.233, 119.5939
1126.715, 123.5133
1127.197, 126.4121
1127.679, 123.2015
1128.161, 118.0998
1128.643, 118.7005
1129.125, 123.3661
1129.607, 126.0042
1130.090, 125.0689
1130.572, 122.9297
1131.054, 119.3448
1131.536, 117.3938
1132.018, 121.0709
1132.500, 124.2636
1132.982, 120.4578
1133.464, 115.4701
1133.947, 118.0220
1134.429, 126.0534
1134.911, 129.2176
1135.393, 125.1232
1135.875, 120.1588
1136.357, 112.3202
1136.839, 107.4334
1137.321, 107.6022
1137.803, 109.3173
1138.286, 110.7229
1138.768, 112.4382
1139.250, 115.6655
1139.732, 120.0914
1140.214, 122.8629
1140.696, 123.9240
1141.178, 123.8411
1141.660, 122.6689
1142.142, 119.6149
1142.625, 114.2482
1143.107, 110.1368
1143.589, 110.1298
1144.071, 112.6324
1144.553, 115.5374
1145.035, 118.4641
1145.517, 120.6143
1145.999, 121.6923
1146.482, 119.8086
1146.964, 115.8472
1147.446, 114.1905
1147.928, 116.3723
1148.410, 119.4748
1148.892, 122.8105
1149.374, 123.6748
1149.856, 116.0373
1150.339, 108.1720
1150.821, 109.4971
1151.303, 115.5173
1151.785, 120.0048
1152.267, 121.8358
1152.749, 120.8026
1153.231, 115.6230
1153.713, 112.5289
1154.195, 113.8822
1154.677, 116.1724
1155.160, 119.1068
1155.642, 121.8695
1156.124, 124.9271
1156.606, 126.7002
1157.088, 123.7029
1157.570, 116.7620
1158.052, 116.4801
1158.534, 125.3603
1159.017, 129.0968
1159.499, 126.2472
1159.981, 122.2712
1160.463, 118.5116
1160.945, 116.2669
1161.427, 116.5173
1161.909, 118.5644
1162.391, 122.7178
1162.874, 127.1325
1163.356, 123.1344
1163.838, 114.4643
1164.320, 114.3980
1164.802, 122.1400
1165.284, 128.5950
1165.766, 130.6460
1166.248, 129.3270
1166.730, 123.5610
1167.213, 119.2434
1167.695, 123.7312
1168.177, 129.2350
1168.659, 129.0620
1169.141, 125.5260
1169.623, 120.4307
1170.105, 115.2434
1170.587, 112.7715
1171.069, 113.6539
1171.552, 116.0137
1172.034, 121.8881
1172.516, 125.5878
1172.998, 125.6987
1173.480, 124.2474
1173.962, 121.1070
1174.444, 118.1329
1174.926, 117.4413
1175.409, 118.3379
1175.891, 118.7078
1176.373, 118.6560
1176.855, 115.7504
1177.337, 109.8537
1177.819, 107.2725
1178.301, 109.1173
1178.783, 111.9374
1179.266, 114.0551
1179.748, 115.3336
1180.230, 114.9091
1180.712, 114.8717
1181.194, 120.0630
1181.676, 127.0512
1182.158, 130.4002
1182.640, 130.4996
1183.122, 127.9311
1183.604, 123.8650
1184.087, 121.8517
1184.569, 123.5863
1185.051, 124.3093
1185.533, 120.7524
1186.015, 117.2234
1186.497, 115.2016
1186.979, 114.1809
1187.461, 114.9044
1187.944, 115.6436
1188.426, 112.3874
1188.908, 106.6516
1189.390, 108.5643
1189.872, 122.2681
1190.354, 128.3124
1190.836, 124.6476
1191.318, 122.6978
1191.801, 125.2804
1192.283, 127.6341
1192.765, 127.1340
1193.247, 124.2397
1193.729, 118.1852
1194.211, 112.2324
1194.693, 116.4689
1195.175, 126.4767
1195.657, 130.6433
1196.140, 129.8274
1196.622, 128.6820
1197.104, 128.1897
1197.586, 127.1396
1198.068, 124.8826
1198.550, 123.2504
1199.032, 122.9815
1199.514, 124.1997
1199.996, 129.0029
1200.479, 133.2302
1200.961, 133.4104
1201.443, 131.0573
1201.925, 127.9307
1202.407, 124.4472
1202.889, 122.6537
1203.371, 123.9985
1203.853, 121.7968
1204.336, 113.3780
1204.818, 110.6817
1205.300, 117.2879
1205.782, 124.6971
1206.264, 128.6734
1206.746, 129.2666
1207.228, 125.7737
1207.710, 120.4202
1208.193, 119.0131
1208.675, 120.2548
1209.157, 120.0508
1209.639, 119.2068
1210.121, 121.4130
1210.603, 126.2785
1211.085, 129.4839
1211.567, 129.3159
1212.049, 127.9740
1212.531, 127.1936
1213.014, 125.0816
1213.496, 116.9729
1213.978, 111.2321
1214.460, 116.5789
1214.942, 125.5468
1215.424, 129.0089
1215.906, 127.7875
1216.388, 125.9310
1216.871, 122.7924
1217.353, 123.6911
1217.835, 130.4277
1218.317, 133.4418
1218.799, 131.1441
1219.281, 126.2290
1219.763, 119.4605
1220.245, 115.0529
1220.728, 117.2397
1221.210, 122.3790
1221.692, 124.6796
1222.174, 124.8565
1222.656, 122.7802
1223.138, 120.5324
1223.620, 123.4145
1224.102, 129.7849
1224.584, 134.1021
1225.067, 134.7562
1225.549, 131.8196
1226.031, 120.8544
1226.513, 115.1461
1226.995, 125.3408
1227.477, 133.6792
1227.959, 130.1054
1228.441, 124.0500
1228.923, 121.8114
1229.406, 122.5114
1229.888, 125.1893
1230.370, 129.4717
1230.852, 130.8968
1231.334, 129.3632
1231.816, 126.9042
##END=



