##NAMES=Pyrite
##RRUFFID=R080030
##IDEAL CHEMISTRY=Fe^2+^(S_2_)^2-^
##LOCALITY=Schaft 209, Aue, Niederschlema, Erzgebirge, Saxony, Germany
##OWNER=RRUFF
##SOURCE=William W. Pinch
##DESCRIPTION=Dark-bronze and blue, tarnished pseudohexagonal prisms; bright grey when a fresh surface is exposed. Associated with wire silver. These crystals were labeled argentopyrite, but are pseudomorphs.
##STATUS=The identification of this mineral has been confirmed by X-ray diffraction and chemical analysis
##URL=rruff.info/R080030
##MEASURED CHEMISTRY=Fe_1.04_Ag_0.01_As_0.08_S_2_
158.0915, 42.53590
158.5736, 42.12701
159.0558, 41.95202
159.5379, 42.28917
160.0200, 43.23655
160.5021, 44.34093
160.9842, 44.73810
161.4663, 44.27314
161.9485, 43.78709
162.4306, 43.42480
162.9127, 43.16582
163.3948, 42.97710
163.8769, 42.86719
164.3590, 42.79403
164.8412, 42.68475
165.3233, 42.52980
165.8054, 42.38827
166.2875, 42.30492
166.7696, 42.27160
167.2517, 42.21783
167.7339, 42.02854
168.2160, 41.89434
168.6981, 42.02253
169.1802, 42.45687
169.6623, 42.99342
170.1444, 43.53202
170.6266, 44.13158
171.1087, 44.35534
171.5908, 43.61803
172.0729, 42.70336
172.5550, 42.15814
173.0371, 42.14957
173.5193, 42.39606
174.0014, 42.42781
174.4835, 42.12280
174.9656, 41.85809
175.4477, 41.68150
175.9298, 41.57170
176.4120, 41.52385
176.8941, 41.53635
177.3762, 41.58691
177.8583, 41.61092
178.3404, 41.54657
178.8225, 41.54101
179.3047, 41.68921
179.7868, 41.87512
180.2689, 41.93602
180.7510, 41.78125
181.2331, 41.48945
181.7152, 41.42254
182.1974, 41.90407
182.6795, 42.24281
183.1616, 42.34306
183.6437, 42.22245
184.1258, 41.85598
184.6079, 41.17602
185.0900, 40.29087
185.5722, 39.93813
186.0543, 40.47808
186.5364, 41.03465
187.0185, 41.26545
187.5006, 41.24203
187.9827, 41.23646
188.4649, 41.46839
188.9470, 41.81870
189.4291, 41.79970
189.9112, 41.00784
190.3933, 40.21959
190.8754, 39.96687
191.3576, 40.21934
191.8397, 40.59876
192.3218, 40.98803
192.8039, 41.31417
193.2860, 41.42768
193.7681, 41.14819
194.2503, 40.79364
194.7324, 40.77001
195.2145, 41.14378
195.6966, 41.40260
196.1787, 41.00103
196.6608, 40.37208
197.1430, 40.04370
197.6251, 40.28518
198.1072, 40.78980
198.5893, 41.03941
199.0714, 40.95037
199.5535, 40.81848
200.0357, 40.67499
200.5178, 40.58929
200.9999, 40.68247
201.4820, 41.07066
201.9641, 41.59972
202.4462, 41.81457
202.9284, 41.49711
203.4105, 41.21541
203.8926, 41.20678
204.3747, 41.30342
204.8568, 41.28025
205.3389, 40.99583
205.8211, 40.52607
206.3032, 40.22185
206.7853, 40.21858
207.2674, 40.23108
207.7495, 40.14215
208.2316, 40.04478
208.7138, 40.11278
209.1959, 40.47588
209.6780, 41.05635
210.1601, 41.27412
210.6422, 40.53111
211.1243, 40.04179
211.6065, 40.17632
212.0886, 40.69064
212.5707, 41.17870
213.0528, 41.38242
213.5349, 41.32880
214.0170, 41.26404
214.4992, 41.05819
214.9813, 40.97893
215.4634, 41.29329
215.9455, 41.79362
216.4276, 42.02782
216.9097, 41.67270
217.3919, 40.80930
217.8740, 40.21345
218.3561, 39.92864
218.8382, 39.79509
219.3203, 39.77443
219.8024, 39.86139
220.2845, 40.07499
220.7667, 40.47284
221.2488, 40.99055
221.7309, 41.28259
222.2130, 41.19997
222.6951, 41.06609
223.1772, 41.03063
223.6594, 41.07959
224.1415, 41.14556
224.6236, 41.20746
225.1057, 41.24876
225.5878, 41.23594
226.0699, 41.17853
226.5521, 41.05922
227.0342, 40.79751
227.5163, 40.41465
227.9984, 40.14298
228.4805, 40.13634
228.9626, 40.30935
229.4448, 40.48382
229.9269, 40.69228
230.4090, 40.83452
230.8911, 40.74712
231.3732, 40.42820
231.8553, 40.24302
232.3375, 40.46339
232.8196, 40.85440
233.3017, 41.15405
233.7838, 41.34890
234.2659, 41.39258
234.7480, 41.14644
235.2302, 40.56769
235.7123, 40.11781
236.1944, 40.14428
236.6765, 40.28048
237.1586, 40.16158
237.6407, 39.67064
238.1229, 39.18229
238.6050, 39.24374
239.0871, 39.99591
239.5692, 40.54030
240.0513, 40.36547
240.5334, 40.04903
241.0156, 40.00347
241.4977, 40.32368
241.9798, 40.73972
242.4619, 40.88422
242.9440, 40.68035
243.4261, 40.49783
243.9083, 40.31689
244.3904, 40.23001
244.8725, 40.34492
245.3546, 40.66937
245.8367, 41.06231
246.3188, 41.36929
246.8010, 41.63660
247.2831, 41.65678
247.7652, 41.12461
248.2473, 40.56828
248.7294, 40.37092
249.2115, 40.55858
249.6937, 40.81999
250.1758, 40.71241
250.6579, 40.01952
251.1400, 39.53963
251.6221, 39.16888
252.1042, 39.05755
252.5864, 39.46593
253.0685, 40.32809
253.5506, 41.22186
254.0327, 41.62782
254.5148, 41.37369
254.9969, 41.15660
255.4790, 40.92896
255.9612, 40.76687
256.4433, 40.73317
256.9254, 40.81765
257.4075, 40.95738
257.8896, 41.09380
258.3718, 41.24282
258.8539, 41.31023
259.3360, 41.34245
259.8181, 41.27486
260.3002, 40.97850
260.7823, 40.51707
261.2645, 40.11953
261.7466, 40.01044
262.2287, 40.23367
262.7108, 40.43331
263.1929, 40.55114
263.6750, 40.70301
264.1572, 40.99938
264.6393, 41.39564
265.1214, 41.73500
265.6035, 41.88866
266.0856, 41.84973
266.5677, 41.80828
267.0499, 41.65499
267.5320, 41.60280
268.0141, 41.85919
268.4962, 42.31408
268.9783, 42.62940
269.4604, 42.54019
269.9426, 42.09712
270.4247, 41.96087
270.9068, 42.30193
271.3889, 42.69442
271.8710, 43.05945
272.3531, 43.35914
272.8352, 43.50390
273.3174, 43.41913
273.7995, 43.16211
274.2816, 43.01408
274.7637, 42.95784
275.2458, 42.99857
275.7279, 43.19073
276.2101, 43.48083
276.6922, 43.74195
277.1743, 43.90229
277.6564, 44.02686
278.1385, 44.32991
278.6206, 44.88676
279.1028, 45.43067
279.5849, 45.98183
280.0670, 46.45608
280.5491, 46.67193
281.0312, 46.53286
281.5133, 46.20029
281.9955, 45.90802
282.4776, 45.51690
282.9597, 45.55035
283.4418, 46.49268
283.9239, 47.85096
284.4060, 48.84467
284.8882, 49.25600
285.3703, 49.36233
285.8524, 49.49502
286.3345, 49.65059
286.8166, 49.84446
287.2987, 50.13291
287.7809, 50.44006
288.2630, 50.60467
288.7451, 50.57441
289.2272, 50.62761
289.7093, 51.12773
290.1914, 52.04815
290.6736, 52.90539
291.1557, 53.58238
291.6378, 54.18999
292.1199, 54.84307
292.6020, 55.55201
293.0841, 56.28454
293.5663, 57.03519
294.0484, 57.79224
294.5305, 58.49119
295.0126, 59.11976
295.4947, 59.68877
295.9768, 60.10689
296.4590, 60.38606
296.9411, 60.86937
297.4232, 61.80482
297.9053, 63.12053
298.3874, 64.51280
298.8695, 66.11715
299.3517, 67.63653
299.8338, 68.76627
300.3159, 69.56356
300.7980, 70.40935
301.2801, 71.49040
301.7622, 72.71133
302.2444, 73.92313
302.7265, 75.27782
303.2086, 76.28008
303.6907, 76.40264
304.1728, 75.88533
304.6549, 75.58913
305.1371, 75.79728
305.6192, 76.34324
306.1013, 76.99266
306.5834, 77.74995
307.0655, 78.53141
307.5476, 79.41292
308.0298, 80.28919
308.5119, 80.90083
308.9940, 81.15556
309.4761, 81.23037
309.9582, 81.20815
310.4403, 81.11087
310.9225, 81.23611
311.4046, 81.76083
311.8867, 82.53863
312.3688, 83.41016
312.8509, 84.39964
313.3330, 85.27563
313.8152, 85.87861
314.2973, 86.20808
314.7794, 86.17968
315.2615, 85.44905
315.7436, 84.54314
316.2257, 84.13841
316.7079, 84.26740
317.1900, 84.26126
317.6721, 83.74174
318.1542, 82.76115
318.6363, 81.51466
319.1184, 79.92982
319.6006, 78.18963
320.0827, 76.35939
320.5648, 74.45938
321.0469, 72.66665
321.5290, 71.13381
322.0111, 69.67229
322.4933, 67.88165
322.9754, 65.60452
323.4575, 63.48008
323.9396, 61.82105
324.4217, 60.57810
324.9038, 59.64121
325.3860, 59.02676
325.8681, 58.61860
326.3502, 58.29030
326.8323, 58.03500
327.3144, 57.80938
327.7965, 57.61420
328.2787, 57.43412
328.7608, 57.25968
329.2429, 57.09946
329.7250, 56.89396
330.2071, 56.48618
330.6892, 55.93520
331.1714, 55.62646
331.6535, 55.73452
332.1356, 56.05647
332.6177, 56.43650
333.0998, 56.86486
333.5819, 57.24458
334.0641, 57.51794
334.5462, 57.67929
335.0283, 57.76243
335.5104, 57.68563
335.9925, 57.61077
336.4746, 57.71735
336.9568, 57.94619
337.4389, 58.03783
337.9210, 57.90334
338.4031, 57.51842
338.8852, 56.84068
339.3673, 55.81080
339.8495, 54.69368
340.3316, 53.54638
340.8137, 52.39790
341.2958, 51.29162
341.7779, 50.23961
342.2600, 49.25088
342.7421, 48.31395
343.2242, 47.40325
343.7064, 46.68835
344.1885, 46.38145
344.6706, 46.19625
345.1527, 45.74906
345.6348, 44.98629
346.1169, 44.27406
346.5991, 43.98716
347.0812, 44.15281
347.5633, 44.14259
348.0454, 43.68264
348.5275, 43.27160
349.0096, 43.33192
349.4918, 43.78204
349.9739, 44.17640
350.4560, 44.22343
350.9381, 44.00970
351.4202, 43.97561
351.9023, 44.29714
352.3845, 44.56324
352.8666, 44.53148
353.3487, 44.37551
353.8308, 44.45111
354.3129, 44.91817
354.7950, 45.55172
355.2772, 45.90376
355.7593, 45.81585
356.2414, 45.79288
356.7235, 45.92172
357.2056, 46.11157
357.6877, 46.26327
358.1699, 46.36272
358.6520, 46.47242
359.1341, 46.65610
359.6162, 46.91833
360.0983, 47.26812
360.5804, 47.77353
361.0626, 48.29534
361.5447, 48.66819
362.0268, 48.97407
362.5089, 49.51827
362.9910, 50.55891
363.4731, 52.01033
363.9553, 53.02612
364.4374, 53.34642
364.9195, 53.58363
365.4016, 53.75127
365.8837, 53.94227
366.3658, 54.32486
366.8480, 54.96839
367.3301, 55.69786
367.8122, 56.12251
368.2943, 55.92220
368.7764, 55.90329
369.2585, 56.14216
369.7407, 56.49387
370.2228, 56.95469
370.7049, 57.46455
371.1870, 57.81126
371.6691, 57.71243
372.1512, 57.05272
372.6334, 56.65210
373.1155, 56.51271
373.5976, 56.61434
374.0797, 57.20052
374.5618, 58.02081
375.0439, 58.57981
375.5261, 58.53012
376.0082, 57.99018
376.4903, 57.55297
376.9724, 57.16481
377.4545, 56.97798
377.9366, 57.24648
378.4188, 57.60019
378.9009, 57.59982
379.3830, 57.10788
379.8651, 56.45165
380.3472, 56.25405
380.8293, 56.80452
381.3115, 56.84494
381.7936, 55.95947
382.2757, 54.79073
382.7578, 53.64626
383.2399, 52.53179
383.7220, 51.27815
384.2042, 49.64818
384.6863, 47.67791
385.1684, 45.99018
385.6505, 44.82244
386.1326, 43.58351
386.6147, 41.82499
387.0969, 39.88136
387.5790, 38.30082
388.0611, 37.35197
388.5432, 36.79640
389.0253, 36.15808
389.5074, 35.35083
389.9896, 34.83717
390.4717, 35.20168
390.9538, 35.67307
391.4359, 35.51563
391.9180, 34.60405
392.4001, 33.65662
392.8823, 33.28970
393.3644, 33.41966
393.8465, 33.54641
394.3286, 33.63757
394.8107, 33.63690
395.2928, 33.48934
395.7750, 33.21782
396.2571, 32.88816
396.7392, 32.44286
397.2213, 31.99115
397.7034, 31.73565
398.1855, 31.69950
398.6677, 31.58182
399.1498, 31.04041
399.6319, 30.36812
400.1140, 30.24760
400.5961, 31.03192
401.0782, 31.80570
401.5604, 32.00306
402.0425, 31.76651
402.5246, 31.51048
403.0067, 31.36049
403.4888, 31.24490
403.9709, 31.03499
404.4531, 30.70782
404.9352, 30.47429
405.4173, 30.41699
405.8994, 30.44278
406.3815, 30.50116
406.8636, 30.57329
407.3458, 30.56879
407.8279, 30.39370
408.3100, 30.06246
408.7921, 29.83525
409.2742, 29.66993
409.7563, 29.63705
410.2385, 29.89465
410.7206, 30.28314
411.2027, 30.50300
411.6848, 30.42401
412.1669, 30.18071
412.6490, 30.05446
413.1311, 30.22964
413.6133, 30.19582
414.0954, 29.75391
414.5775, 29.25692
415.0596, 28.94706
415.5417, 28.85147
416.0238, 28.88009
416.5060, 28.97247
416.9881, 29.13351
417.4702, 29.15326
417.9523, 28.80602
418.4344, 28.55865
418.9165, 28.59092
419.3987, 28.77118
419.8808, 28.88799
420.3629, 28.84129
420.8450, 28.74232
421.3271, 28.88065
421.8092, 29.47948
422.2914, 29.74064
422.7735, 29.28158
423.2556, 28.70649
423.7377, 28.39134
424.2198, 28.34920
424.7019, 28.34009
425.1841, 28.10769
425.6662, 27.68842
426.1483, 27.51645
426.6304, 27.80489
427.1125, 27.99196
427.5946, 27.68060
428.0768, 27.15278
428.5589, 26.85143
429.0410, 26.98963
429.5231, 27.27431
430.0052, 27.31677
430.4873, 27.11107
430.9695, 26.93787
431.4516, 26.88229
431.9337, 26.89417
432.4158, 26.91155
432.8979, 26.93422
433.3800, 26.97529
433.8622, 27.07522
434.3443, 27.18789
434.8264, 27.24297
435.3085, 27.23597
435.7906, 27.14218
436.2727, 26.90704
436.7549, 26.56004
437.2370, 26.26172
437.7191, 25.90136
438.2012, 25.70932
438.6833, 26.01006
439.1654, 26.57544
439.6476, 26.78255
440.1297, 26.35343
440.6118, 25.67489
441.0939, 25.42374
441.5760, 25.80896
442.0581, 26.05406
442.5403, 25.96543
443.0224, 25.84059
443.5045, 25.98847
443.9866, 26.35901
444.4687, 26.59652
444.9508, 26.38863
445.4330, 25.79929
445.9151, 25.54033
446.3972, 25.88703
446.8793, 26.24595
447.3614, 26.66434
447.8435, 26.99127
448.3257, 26.99860
448.8078, 26.63834
449.2899, 26.16316
449.7720, 25.98497
450.2541, 26.26489
450.7362, 26.28089
451.2184, 25.66782
451.7005, 25.12740
452.1826, 25.02610
452.6647, 25.22871
453.1468, 25.34739
453.6289, 25.08964
454.1111, 24.66534
454.5932, 24.72301
455.0753, 25.48689
455.5574, 26.05835
456.0395, 25.89638
456.5216, 25.55582
457.0038, 25.50705
457.4859, 25.81840
457.9680, 26.12261
458.4501, 26.11356
458.9322, 25.86424
459.4143, 25.62249
459.8965, 25.38686
460.3786, 25.24158
460.8607, 25.35368
461.3428, 25.61468
461.8249, 25.73664
462.3070, 25.54711
462.7892, 25.32281
463.2713, 25.30520
463.7534, 25.43872
464.2355, 25.49251
464.7176, 25.35168
465.1997, 25.16555
465.6819, 25.23405
466.1640, 25.67051
466.6461, 25.90900
467.1282, 25.71557
467.6103, 25.42337
468.0924, 25.33524
468.5746, 25.43594
469.0567, 25.49100
469.5388, 25.31556
470.0209, 24.95657
470.5030, 24.73524
470.9851, 24.67862
471.4673, 24.73660
471.9494, 25.01270
472.4315, 25.34384
472.9136, 25.57437
473.3957, 25.66384
473.8778, 25.66768
474.3600, 25.64283
474.8421, 25.58396
475.3242, 25.53796
475.8063, 25.60049
476.2884, 25.56798
476.7705, 25.36188
477.2527, 25.01875
477.7348, 24.55569
478.2169, 23.93162
478.6990, 23.35594
479.1811, 23.24944
479.6632, 23.67687
480.1454, 24.00696
480.6275, 23.93583
481.1096, 23.88027
481.5917, 24.29858
482.0738, 25.12647
482.5559, 25.75018
483.0380, 25.72346
483.5201, 25.37779
484.0023, 25.28423
484.4844, 25.47378
484.9665, 25.55479
485.4486, 25.25225
485.9307, 24.72063
486.4128, 24.38176
486.8950, 24.30402
487.3771, 24.26020
487.8592, 24.21438
488.3413, 24.13970
488.8234, 23.94046
489.3055, 23.61227
489.7877, 23.37177
490.2698, 23.45753
490.7519, 23.89315
491.2340, 24.19730
491.7161, 24.39483
492.1982, 24.46329
492.6804, 24.31143
493.1625, 24.05371
493.6446, 23.83938
494.1267, 23.72518
494.6088, 23.68470
495.0909, 23.67970
495.5731, 23.71546
496.0552, 23.77028
496.5373, 23.91845
497.0194, 24.01472
497.5015, 23.94697
497.9836, 23.78209
498.4658, 23.65946
498.9479, 23.63924
499.4300, 23.72894
499.9121, 24.02760
500.3942, 24.60666
500.8763, 24.92150
501.3585, 24.54826
501.8406, 24.08125
502.3227, 24.17388
502.8048, 24.81063
503.2869, 25.23738
503.7690, 24.91619
504.2512, 24.24186
504.7333, 23.80086
505.2154, 23.62265
505.6975, 23.53496
506.1796, 23.44790
506.6617, 23.37444
507.1439, 23.36103
507.6260, 23.46500
508.1081, 23.51389
508.5902, 23.50533
509.0723, 23.39605
509.5544, 23.00595
510.0366, 22.36713
510.5187, 21.89807
511.0008, 22.02463
511.4829, 22.74412
511.9650, 23.30045
512.4471, 23.64585
512.9293, 23.88347
513.4114, 23.97659
513.8935, 23.99647
514.3756, 24.03924
514.8577, 24.12641
515.3398, 24.17305
515.8220, 24.03376
516.3041, 23.68175
516.7862, 23.44360
517.2683, 23.41471
517.7504, 23.38274
518.2325, 23.11512
518.7147, 22.80854
519.1968, 22.85330
519.6789, 23.50575
520.1610, 24.23779
520.6431, 24.45021
521.1252, 24.18944
521.6074, 23.80154
522.0895, 23.30968
522.5716, 22.83243
523.0537, 22.48546
523.5358, 22.25884
524.0179, 22.15513
524.5001, 22.21488
524.9822, 22.36127
525.4643, 22.63538
525.9464, 22.95893
526.4285, 23.07118
526.9106, 22.83773
527.3928, 22.48100
527.8749, 22.42681
528.3570, 22.87713
528.8391, 23.16782
529.3212, 23.25068
529.8033, 23.23093
530.2855, 23.14490
530.7676, 23.00600
531.2497, 22.79865
531.7318, 22.49616
532.2139, 22.19389
532.6960, 22.17989
533.1782, 22.59176
533.6603, 22.90017
534.1424, 22.87862
534.6245, 22.84014
535.1066, 23.03202
535.5887, 23.39898
536.0709, 23.64424
536.5530, 23.54118
537.0351, 23.23244
537.5172, 22.92951
537.9993, 22.62702
538.4814, 22.47220
538.9636, 22.55012
539.4457, 22.79217
539.9278, 23.10957
540.4099, 23.52428
540.8920, 23.87267
541.3741, 24.23814
541.8563, 24.43326
542.3384, 24.05741
542.8205, 23.23759
543.3026, 22.75763
543.7847, 23.17939
544.2668, 24.17953
544.7490, 24.57124
545.2311, 23.66487
545.7132, 23.08172
546.1953, 23.07871
546.6774, 23.23018
547.1595, 23.25396
547.6417, 23.12349
548.1238, 22.92282
548.6059, 22.67581
549.0880, 22.44024
549.5701, 22.49630
550.0522, 23.01199
550.5344, 23.38326
551.0165, 23.26731
551.4986, 23.03541
551.9807, 22.98156
552.4628, 23.12309
552.9449, 23.24789
553.4271, 23.26905
553.9092, 23.17990
554.3913, 22.87531
554.8734, 22.34976
555.3555, 22.02321
555.8376, 22.19842
556.3198, 22.65815
556.8019, 22.83291
557.2840, 22.63101
557.7661, 22.43012
558.2482, 22.17331
558.7303, 22.03675
559.2125, 22.34505
559.6946, 22.98625
560.1767, 23.37753
560.6588, 23.06490
561.1409, 22.27183
561.6230, 21.99201
562.1052, 22.69697
562.5873, 23.10617
563.0694, 22.93719
563.5515, 22.59332
564.0336, 22.26867
564.5157, 22.02497
564.9979, 21.94526
565.4800, 22.15996
565.9621, 22.53816
566.4442, 22.71001
566.9263, 22.63337
567.4084, 22.65896
567.8906, 23.10986
568.3727, 23.55085
568.8548, 23.31443
569.3369, 22.34669
569.8190, 21.62633
570.3011, 21.57539
570.7833, 21.86625
571.2654, 22.33008
571.7475, 22.87249
572.2296, 23.13686
572.7117, 22.89791
573.1938, 22.38936
573.6760, 22.18356
574.1581, 22.57194
574.6402, 22.73059
575.1223, 22.41629
575.6044, 22.10732
576.0865, 22.12660
576.5687, 22.39075
577.0508, 22.63255
577.5329, 22.70044
578.0150, 22.65660
578.4971, 22.62621
578.9792, 22.61087
579.4614, 22.59765
579.9435, 22.55495
580.4256, 22.54799
580.9077, 22.68489
581.3898, 22.90871
581.8719, 22.99954
582.3541, 22.78605
582.8362, 22.49191
583.3183, 22.33021
583.8004, 22.27250
584.2825, 22.19614
584.7646, 22.04725
585.2468, 21.94292
585.7289, 22.06128
586.2110, 22.46684
586.6931, 22.71046
587.1752, 22.70875
587.6573, 22.64651
588.1394, 22.60960
588.6215, 22.55776
589.1036, 22.37779
589.5858, 22.04274
590.0679, 21.72445
590.5500, 21.67735
591.0321, 21.92841
591.5142, 22.16852
591.9963, 22.41715
592.4785, 22.62298
592.9606, 22.76476
593.4427, 22.85657
593.9248, 22.93670
594.4069, 23.03541
594.8890, 23.01932
595.3712, 22.58136
595.8533, 21.98802
596.3354, 21.97327
596.8175, 22.65879
597.2996, 23.31797
597.7817, 23.41479
598.2639, 23.04945
598.7460, 22.75413
599.2281, 22.51433
599.7102, 22.35138
600.1923, 22.24150
600.6744, 22.22989
601.1566, 22.46418
601.6387, 22.87247
602.1208, 23.14514
602.6029, 23.03154
603.0850, 22.61978
603.5671, 22.23271
604.0493, 21.82991
604.5314, 21.55868
605.0135, 21.41262
605.4956, 21.44806
605.9777, 21.86787
606.4598, 22.57660
606.9420, 23.04836
607.4241, 22.80048
607.9062, 22.34303
608.3883, 22.34149
608.8704, 22.71032
609.3525, 22.99192
609.8347, 23.03409
610.3168, 22.88863
610.7989, 22.57698
611.2810, 22.01465
611.7631, 21.73927
612.2452, 21.91998
612.7274, 22.19038
613.2095, 22.53510
613.6916, 22.82239
614.1737, 22.82170
614.6558, 22.47293
615.1379, 22.02704
615.6201, 21.79202
616.1022, 21.77253
616.5843, 21.84066
617.0664, 22.07768
617.5485, 22.25504
618.0306, 22.11279
618.5128, 21.91869
618.9949, 22.06889
619.4770, 22.69382
619.9591, 23.22847
620.4412, 23.33783
620.9233, 23.16598
621.4055, 22.83813
621.8876, 22.39613
622.3697, 22.08119
622.8518, 22.04946
623.3339, 22.22934
623.8160, 22.41393
624.2982, 22.64206
624.7803, 22.80784
625.2624, 22.87869
625.7445, 22.91900
626.2266, 23.01516
626.7087, 23.11084
627.1909, 23.05648
627.6730, 22.75996
628.1551, 22.34504
628.6372, 21.98107
629.1193, 21.66372
629.6014, 21.54069
630.0836, 21.73820
630.5657, 21.95684
631.0478, 21.90467
631.5299, 21.69000
632.0120, 21.58075
632.4941, 21.63214
632.9763, 21.77041
633.4584, 22.06198
633.9405, 22.37577
634.4226, 22.44399
634.9047, 22.25759
635.3868, 22.15455
635.8690, 22.45466
636.3511, 23.06890
636.8332, 23.36764
637.3153, 23.13885
637.7974, 22.93642
638.2795, 22.86839
638.7617, 22.81372
639.2438, 22.62491
639.7259, 22.35279
640.2080, 22.23596
640.6901, 22.49833
641.1722, 22.89012
641.6544, 23.01505
642.1365, 22.89747
642.6186, 22.76369
643.1007, 22.65861
643.5828, 22.61066
644.0649, 22.67483
644.5471, 22.85901
645.0292, 22.96478
645.5113, 22.89341
645.9934, 22.85913
646.4755, 22.96713
646.9576, 23.14219
647.4398, 23.30783
647.9219, 23.43713
648.4040, 23.50440
648.8861, 23.46188
649.3682, 23.33856
649.8503, 23.34909
650.3325, 23.58954
650.8146, 23.69159
651.2967, 23.30257
651.7788, 22.91633
652.2609, 23.14679
652.7430, 23.94448
653.2252, 24.33896
653.7073, 23.49744
654.1894, 22.49122
654.6715, 22.37265
655.1536, 22.90653
655.6357, 23.36256
656.1179, 23.49187
656.6000, 23.46798
657.0821, 23.51588
657.5642, 23.65519
658.0463, 23.66879
658.5284, 23.43719
659.0106, 23.21654
659.4927, 22.93798
659.9748, 22.76294
660.4569, 22.94926
660.9390, 23.49195
661.4211, 23.97524
661.9033, 24.04982
662.3854, 23.85022
662.8675, 23.63168
663.3496, 23.39499
663.8317, 23.21535
664.3138, 23.14696
664.7960, 23.09730
665.2781, 22.87293
665.7602, 22.38498
666.2423, 22.27787
666.7244, 22.96572
667.2065, 23.60272
667.6887, 23.81563
668.1708, 23.73852
668.6529, 23.51155
669.1350, 23.21132
669.6171, 23.02341
670.0992, 23.23973
670.5814, 23.78262
671.0635, 23.92121
671.5456, 23.49985
672.0277, 23.18228
672.5098, 23.31909
672.9919, 23.60102
673.4741, 23.65497
673.9562, 23.47247
674.4383, 23.23654
674.9204, 22.77355
675.4025, 22.47602
675.8846, 22.82931
676.3668, 23.55984
676.8489, 24.04778
677.3310, 24.08129
677.8131, 23.88358
678.2952, 23.69081
678.7773, 23.49406
679.2595, 23.58602
679.7416, 24.32961
680.2237, 24.76917
680.7058, 24.37226
681.1879, 23.75064
681.6700, 23.51446
682.1522, 23.69820
682.6343, 23.82056
683.1164, 23.49426
683.5985, 23.06103
684.0806, 22.98489
684.5627, 23.18472
685.0449, 23.27812
685.5270, 23.12323
686.0091, 22.92190
686.4912, 22.93672
686.9733, 23.18866
687.4554, 23.41398
687.9376, 23.68847
688.4197, 23.84199
688.9018, 23.75301
689.3839, 23.58482
689.8660, 23.52234
690.3481, 23.56832
690.8303, 23.54693
691.3124, 23.27357
691.7945, 22.89607
692.2766, 22.69553
692.7587, 22.65753
693.2408, 22.59680
693.7230, 22.43909
694.2051, 22.29731
694.6872, 22.28725
695.1693, 22.41111
695.6514, 22.67825
696.1335, 23.22021
696.6157, 23.72730
697.0978, 24.28029
697.5799, 24.65996
698.0620, 24.52008
698.5441, 23.92417
699.0262, 23.36987
699.5084, 23.22225
699.9905, 23.35542
700.4726, 23.54680
700.9547, 23.80085
701.4368, 23.90826
701.9189, 23.78525
702.4011, 23.56842
702.8832, 23.32196
703.3653, 23.07113
703.8474, 23.04591
704.3295, 23.60818
704.8116, 23.94341
705.2938, 23.54379
705.7759, 22.98964
706.2580, 22.88813
706.7401, 23.24864
707.2222, 23.72909
707.7043, 24.13687
708.1865, 24.42201
708.6686, 24.39675
709.1507, 24.02089
709.6328, 23.86261
710.1149, 24.11848
710.5970, 24.41037
711.0792, 24.42947
711.5613, 24.26004
712.0434, 24.15795
712.5255, 24.21293
713.0076, 24.20408
713.4897, 23.90846
713.9719, 23.62437
714.4540, 23.76595
714.9361, 24.21243
715.4182, 24.41083
715.9003, 24.02787
716.3824, 23.48016
716.8646, 23.72305
717.3467, 24.88754
717.8288, 25.34725
718.3109, 24.61680
718.7930, 23.88629
719.2751, 23.94480
719.7573, 24.39477
720.2394, 24.59035
720.7215, 24.44781
721.2036, 24.22395
721.6857, 23.83514
722.1678, 23.53923
722.6500, 23.68085
723.1321, 24.10161
723.6142, 24.33549
724.0963, 24.19111
724.5784, 23.95732
725.0605, 24.08312
725.5427, 24.58268
726.0248, 24.86370
726.5069, 24.83045
726.9890, 24.79453
727.4711, 24.93391
727.9532, 25.09369
728.4354, 25.10648
728.9175, 24.96557
729.3995, 24.72837
729.8817, 24.16287
730.3638, 23.74924
730.8459, 23.99976
731.3280, 24.59275
731.8101, 24.90714
732.2922, 24.79130
732.7744, 24.55165
733.2565, 24.49631
733.7386, 24.58365
734.2207, 24.52426
734.7028, 24.23444
735.1849, 24.08043
735.6671, 24.26937
736.1492, 24.49603
736.6313, 24.44801
737.1134, 24.19763
737.5955, 24.06738
738.0776, 24.20609
738.5598, 24.37127
739.0419, 24.46866
739.5240, 24.51276
740.0061, 24.52437
740.4882, 24.50248
740.9703, 24.39595
741.4525, 24.14548
741.9346, 23.89314
742.4167, 24.05312
742.8988, 24.71537
743.3809, 25.11989
743.8630, 25.07565
744.3452, 24.96759
744.8273, 25.05735
745.3094, 25.23858
745.7915, 25.30237
746.2736, 25.18996
746.7557, 25.10374
747.2379, 25.08890
747.7200, 25.14172
748.2021, 25.36077
748.6842, 25.63254
749.1663, 25.68726
749.6484, 25.42170
750.1306, 25.00998
750.6127, 24.63891
751.0948, 24.31495
751.5769, 24.14614
752.0590, 24.18601
752.5411, 24.17271
753.0233, 23.86722
753.5054, 23.59847
753.9875, 24.00076
754.4696, 25.06876
754.9517, 25.52484
755.4338, 24.57437
755.9160, 23.71392
756.3981, 23.64951
756.8802, 24.02163
757.3623, 24.42407
757.8444, 24.75876
758.3265, 25.08613
758.8087, 25.48165
759.2908, 25.83949
759.7729, 25.85745
760.2550, 25.53429
760.7371, 25.35024
761.2192, 25.45391
761.7014, 25.52036
762.1835, 25.21745
762.6656, 24.67771
763.1477, 24.50126
763.6298, 25.02245
764.1119, 25.27928
764.5941, 24.89642
765.0762, 24.45637
765.5583, 24.29756
766.0404, 24.39064
766.5225, 24.63850
767.0046, 25.00543
767.4868, 25.39084
767.9689, 25.79762
768.4510, 26.12554
768.9331, 25.93770
769.4152, 25.21461
769.8973, 24.69363
770.3795, 24.72505
770.8616, 24.97018
771.3437, 24.90311
771.8258, 24.42647
772.3079, 24.35964
772.7900, 25.18541
773.2722, 25.78689
773.7543, 25.77562
774.2364, 25.54885
774.7185, 25.50197
775.2006, 25.62388
775.6827, 25.61029
776.1649, 25.22273
776.6470, 24.74978
777.1291, 24.48675
777.6112, 24.39605
778.0933, 24.42934
778.5754, 24.56592
779.0576, 24.61103
779.5397, 24.39313
780.0218, 24.05746
780.5039, 24.07325
780.9860, 24.62704
781.4681, 25.03980
781.9503, 25.33086
782.4324, 25.42741
782.9145, 25.11215
783.3966, 24.67410
783.8787, 24.54766
784.3608, 24.82777
784.8430, 25.12955
785.3251, 25.28947
785.8072, 25.38204
786.2893, 25.50970
786.7714, 25.62033
787.2535, 25.56405
787.7357, 25.30784
788.2178, 24.99915
788.6999, 24.79151
789.1820, 24.66060
789.6641, 24.44633
790.1462, 24.09303
790.6284, 23.91629
791.1105, 24.01902
791.5926, 24.26748
792.0747, 24.69461
792.5568, 25.19315
793.0389, 25.30734
793.5211, 24.67314
794.0032, 24.21926
794.4853, 24.40123
794.9674, 24.65752
795.4495, 24.46428
795.9316, 23.98172
796.4138, 23.65026
796.8959, 23.65225
797.3780, 23.85230
797.8601, 24.21514
798.3422, 24.64462
798.8243, 24.79099
799.3065, 24.64103
799.7886, 24.33966
800.2707, 23.86720
800.7528, 23.51053
801.2349, 23.71404
801.7170, 24.53741
802.1992, 24.94495
802.6813, 24.49270
803.1634, 24.20211
803.6455, 24.33951
804.1276, 24.57498
804.6097, 24.68637
805.0919, 24.66490
805.5740, 24.55679
806.0561, 24.32510
806.5382, 24.13834
807.0203, 24.16103
807.5024, 24.30266
807.9846, 24.45291
808.4667, 24.58266
808.9488, 24.61248
809.4309, 24.49317
809.9130, 24.36616
810.3951, 24.54721
810.8773, 25.08806
811.3594, 25.10360
811.8415, 24.28927
812.3236, 23.69948
812.8057, 23.86731
813.2878, 24.30201
813.7700, 24.44967
814.2521, 24.32401
814.7342, 24.18915
815.2163, 24.05513
815.6984, 23.95005
816.1805, 23.82776
816.6627, 23.77814
817.1448, 23.99847
817.6269, 24.39164
818.1090, 24.58994
818.5911, 24.37261
819.0732, 24.01299
819.5554, 23.80386
820.0375, 23.76157
820.5196, 24.09913
821.0017, 24.83435
821.4838, 25.15882
821.9659, 24.57247
822.4481, 23.66664
822.9302, 23.44832
823.4123, 24.07142
823.8944, 24.32815
824.3765, 23.80029
824.8586, 23.48097
825.3408, 23.75333
825.8229, 24.16918
826.3050, 24.41361
826.7871, 24.46050
827.2692, 24.32866
827.7513, 23.90260
828.2335, 23.49440
828.7156, 23.21603
829.1977, 23.11284
829.6798, 23.38411
830.1619, 23.90789
830.6440, 24.21008
831.1262, 24.04488
831.6083, 23.68509
832.0904, 23.48595
832.5725, 23.45057
833.0546, 23.69822
833.5367, 24.30525
834.0189, 24.70565
834.5010, 24.60181
834.9831, 24.34451
835.4652, 24.40265
835.9473, 24.79449
836.4294, 24.89735
836.9116, 24.46830
837.3937, 24.10829
837.8758, 23.86768
838.3579, 23.76690
838.8400, 23.88512
839.3221, 24.15079
839.8043, 24.38959
840.2864, 24.53343
840.7685, 24.66994
841.2506, 25.00557
841.7327, 25.29156
842.2148, 25.05005
842.6970, 24.40685
843.1791, 23.89579
843.6612, 23.71522
844.1433, 23.72840
844.6254, 23.79789
845.1075, 23.91091
845.5897, 23.99039
846.0718, 24.06161
846.5539, 23.94938
847.0360, 23.48796
847.5181, 23.05480
848.0002, 22.98717
848.4824, 23.21182
848.9645, 23.38877
849.4466, 23.62965
849.9287, 23.61920
850.4108, 23.00850
850.8929, 22.46180
851.3751, 22.39336
851.8572, 22.62889
852.3393, 22.94458
852.8214, 23.26341
853.3035, 23.38275
853.7856, 22.95574
854.2678, 22.40508
854.7499, 22.28410
855.2320, 22.47627
855.7141, 22.72334
856.1962, 22.95016
856.6783, 23.01386
857.1605, 22.76195
857.6426, 22.41226
858.1247, 22.69697
858.6068, 23.78296
859.0889, 24.08816
859.5710, 23.19074
860.0532, 22.31734
860.5353, 22.11869
861.0174, 22.26846
861.4995, 22.22042
861.9816, 21.93787
862.4637, 21.73560
862.9459, 21.66294
863.4280, 21.62561
863.9101, 21.65504
864.3922, 21.66271
864.8743, 21.48513
865.3564, 21.20185
865.8386, 21.12542
866.3207, 21.45331
866.8028, 21.84020
867.2849, 22.03517
867.7670, 22.07671
868.2491, 21.99012
868.7313, 21.80449
869.2134, 21.59282
869.6955, 21.38560
870.1776, 21.21365
870.6597, 21.12656
871.1418, 21.10820
871.6239, 21.07031
872.1060, 21.02959
872.5881, 20.82524
873.0703, 20.34517
873.5524, 19.85764
874.0345, 19.51062
874.5166, 19.35101
874.9987, 19.59710
875.4808, 20.76529
875.9630, 21.43394
876.4451, 21.27279
876.9272, 20.96780
877.4093, 20.79781
877.8914, 20.67502
878.3735, 20.46252
878.8557, 20.14213
879.3378, 19.80565
879.8199, 19.36759
880.3020, 19.06284
880.7841, 19.19007
881.2662, 19.51652
881.7484, 19.66751
882.2305, 19.63586
882.7126, 19.71711
883.1947, 20.10507
883.6768, 20.43109
884.1589, 19.94032
884.6411, 18.83862
885.1232, 18.38447
885.6053, 18.64775
886.0874, 18.83185
886.5695, 18.60993
887.0516, 18.31975
887.5338, 18.38163
888.0159, 18.76397
888.4980, 18.89720
888.9801, 18.57577
889.4622, 18.41931
889.9443, 18.65608
890.4265, 18.90486
890.9086, 18.96445
891.3907, 18.89219
891.8728, 18.79782
892.3549, 18.69854
892.8370, 18.54598
893.3192, 18.30267
893.8013, 18.02919
894.2834, 17.64022
894.7655, 17.31103
895.2476, 17.36251
895.7297, 17.73930
896.2119, 17.96891
896.6940, 17.73231
897.1761, 17.36052
897.6582, 17.12811
898.1403, 17.08346
898.6224, 17.50154
899.1046, 18.28380
899.5867, 18.73675
900.0688, 18.55194
900.5509, 18.10039
901.0330, 17.84382
901.5151, 17.77019
901.9973, 17.81245
902.4794, 18.01342
902.9615, 18.06010
903.4436, 17.83779
903.9257, 17.55260
904.4078, 17.33533
904.8900, 17.18906
905.3721, 17.13634
905.8542, 17.30169
906.3363, 17.28132
906.8184, 16.91112
907.3005, 16.55963
907.7827, 16.29337
908.2648, 16.15096
908.7469, 16.25036
909.2290, 16.55016
909.7111, 16.70929
910.1932, 16.47171
910.6754, 16.26697
911.1575, 16.29272
911.6396, 16.48748
912.1217, 17.03036
912.6038, 17.65466
913.0859, 17.63209
913.5681, 16.70793
914.0502, 15.68310
914.5323, 15.29989
915.0144, 15.38199
915.4965, 15.78445
915.9786, 16.36697
916.4608, 16.40245
916.9429, 15.76711
917.4250, 15.33422
917.9071, 15.81491
918.3892, 16.74236
918.8713, 16.91819
919.3535, 16.25678
919.8356, 15.78662
920.3177, 15.53200
920.7998, 15.52617
921.2819, 15.88624
921.7640, 16.34650
922.2462, 16.61098
922.7283, 16.68007
923.2104, 16.65177
923.6925, 16.50170
924.1746, 16.28739
924.6567, 15.83131
925.1389, 15.49833
925.6210, 15.65128
926.1031, 15.99771
926.5852, 15.98454
927.0673, 15.49296
927.5494, 15.16937
928.0316, 15.31077
928.5137, 15.60509
928.9958, 16.05526
929.4779, 16.43401
929.9600, 16.33480
930.4421, 15.88474
930.9243, 15.70027
931.4064, 16.13081
931.8885, 16.56047
932.3706, 16.23389
932.8527, 15.55261
933.3348, 15.17036
933.8170, 15.08058
934.2991, 15.19157
934.7812, 15.45131
935.2633, 15.60556
935.7454, 15.38806
936.2275, 14.98596
936.7097, 14.89567
937.1918, 15.11243
937.6739, 15.51587
938.1560, 16.15672
938.6381, 16.46204
939.1202, 16.05347
939.6024, 15.44542
940.0845, 15.43719
940.5666, 16.04494
941.0487, 16.34980
941.5308, 16.23344
942.0129, 16.06602
942.4951, 15.93058
942.9772, 15.73131
943.4593, 15.22068
943.9414, 14.64999
944.4235, 14.61685
944.9056, 15.35201
945.3878, 15.77093
945.8699, 15.61110
946.3520, 15.27509
946.8341, 14.65537
947.3162, 14.12683
947.7983, 14.12737
948.2805, 14.55931
948.7626, 14.94881
949.2447, 15.12030
949.7268, 15.28459
950.2089, 15.71790
950.6910, 16.06821
951.1732, 15.86817
951.6553, 15.36740
952.1374, 15.01750
952.6195, 14.94502
953.1016, 15.12792
953.5837, 15.67041
954.0659, 16.20879
954.5480, 16.10126
955.0301, 15.62250
955.5122, 15.53398
955.9943, 15.81040
956.4764, 15.82206
956.9586, 15.30413
957.4407, 14.67568
957.9228, 14.41583
958.4049, 14.46946
958.8870, 14.65803
959.3691, 14.98580
959.8513, 15.15630
960.3334, 15.10038
960.8155, 15.04353
961.2976, 15.15445
961.7797, 15.26634
962.2618, 15.01482
962.7440, 14.33099
963.2261, 13.99482
963.7082, 14.10727
964.1903, 14.34381
964.6724, 14.77893
965.1545, 15.12110
965.6367, 15.13021
966.1188, 14.87075
966.6009, 14.52085
967.0830, 13.94717
967.5651, 13.63980
968.0472, 13.73699
968.5294, 13.95222
969.0115, 14.36203
969.4936, 14.71879
969.9757, 14.69807
970.4578, 14.39549
970.9399, 14.27039
971.4221, 14.50344
971.9042, 14.75657
972.3863, 14.95960
972.8684, 15.08303
973.3505, 15.15939
973.8326, 15.11633
974.3148, 14.69690
974.7969, 13.97696
975.2790, 13.59474
975.7611, 14.00121
976.2432, 14.64204
976.7253, 15.23196
977.2075, 15.64160
977.6896, 15.57318
978.1717, 15.18057
978.6538, 14.91533
979.1359, 14.91181
979.6180, 14.94327
980.1002, 14.84116
980.5823, 14.61307
981.0644, 14.09505
981.5465, 13.47874
982.0286, 13.48273
982.5107, 14.09487
982.9929, 14.57649
983.4750, 14.58743
983.9571, 14.38381
984.4392, 14.26154
984.9213, 14.21838
985.4034, 14.31956
985.8856, 14.56246
986.3677, 14.38299
986.8498, 13.60563
987.3319, 13.21871
987.8140, 13.90297
988.2961, 15.03168
988.7783, 15.46747
989.2604, 15.18414
989.7425, 15.05678
990.2246, 15.17199
990.7067, 15.12419
991.1888, 14.77281
991.6710, 14.34878
992.1531, 13.96851
992.6352, 13.66716
993.1173, 13.54051
993.5994, 13.62137
994.0815, 13.74766
994.5637, 13.93758
995.0458, 14.14578
995.5279, 14.52492
996.0100, 14.76654
996.4921, 14.48858
996.9742, 13.90485
997.4564, 13.63712
997.9385, 13.82471
998.4206, 14.01276
998.9027, 14.19744
999.3848, 14.31607
999.8669, 14.33634
1000.349, 14.28672
1000.831, 14.11098
1001.313, 13.88750
1001.795, 13.89979
1002.278, 14.33751
1002.760, 14.63471
1003.242, 14.42282
1003.724, 14.18362
1004.206, 14.28758
1004.688, 14.50635
1005.170, 14.54363
1005.652, 14.38071
1006.134, 14.13768
1006.617, 13.81079
1007.099, 13.58675
1007.581, 13.64424
1008.063, 13.81789
1008.545, 13.99590
1009.027, 14.14624
1009.509, 14.22847
1009.991, 14.24269
1010.474, 14.24383
1010.956, 14.28916
1011.438, 14.24973
1011.920, 13.89516
1012.402, 13.42923
1012.884, 13.11992
1013.366, 12.98771
1013.848, 13.09607
1014.330, 13.41467
1014.813, 13.66130
1015.295, 13.60269
1015.777, 13.43541
1016.259, 13.41875
1016.741, 13.54263
1017.223, 13.89615
1017.705, 14.39182
1018.187, 14.58658
1018.669, 14.35161
1019.152, 13.91717
1019.634, 13.40977
1020.116, 13.04644
1020.598, 13.52041
1021.080, 14.62903
1021.562, 15.09991
1022.044, 14.87473
1022.526, 14.56636
1023.008, 14.38774
1023.491, 14.34313
1023.973, 14.47186
1024.455, 14.67039
1024.937, 14.55857
1025.419, 14.13306
1025.901, 13.89031
1026.383, 13.87578
1026.865, 13.90334
1027.348, 13.89161
1027.830, 13.97109
1028.312, 14.34259
1028.794, 14.85981
1029.276, 14.77895
1029.758, 13.94480
1030.240, 13.51439
1030.722, 13.64822
1031.204, 13.84907
1031.687, 13.95486
1032.169, 13.97284
1032.651, 13.87768
1033.133, 13.71048
1033.615, 13.73922
1034.097, 14.09173
1034.579, 14.21724
1035.061, 13.97623
1035.544, 13.76486
1036.026, 13.71990
1036.508, 13.79761
1036.990, 14.01018
1037.472, 14.31278
1037.954, 14.37959
1038.436, 14.13876
1038.918, 13.80245
1039.401, 13.16999
1039.883, 12.76258
1040.365, 12.84748
1040.847, 13.17435
1041.329, 13.56643
1041.811, 13.99031
1042.293, 14.18953
1042.775, 14.02559
1043.257, 13.87723
1043.740, 13.69380
1044.222, 13.58823
1044.704, 13.50241
1045.186, 13.58404
1045.668, 14.24767
1046.150, 15.28581
1046.632, 15.51629
1047.114, 14.25157
1047.596, 13.43380
1048.079, 13.43564
1048.561, 13.62517
1049.043, 13.98610
1049.525, 14.25222
1050.007, 14.09696
1050.489, 13.60801
1050.971, 13.18524
1051.453, 12.82647
1051.936, 12.66556
1052.418, 12.76234
1052.900, 13.01513
1053.382, 13.60865
1053.864, 14.15969
1054.346, 14.20426
1054.828, 13.87303
1055.310, 13.73682
1055.792, 14.05339
1056.275, 14.05545
1056.757, 13.06458
1057.239, 12.32272
1057.721, 12.62519
1058.203, 13.24257
1058.685, 13.52967
1059.167, 13.48873
1059.649, 13.27343
1060.131, 12.82599
1060.614, 12.63256
1061.096, 13.04132
1061.578, 13.49663
1062.060, 13.83700
1062.542, 14.01893
1063.024, 13.98064
1063.506, 13.76434
1063.988, 13.43211
1064.471, 12.96806
1064.953, 12.65212
1065.435, 12.70274
1065.917, 12.78340
1066.399, 12.68052
1066.881, 12.57446
1067.363, 12.71899
1067.845, 12.97537
1068.328, 12.97823
1068.810, 12.63689
1069.292, 12.36975
1069.774, 12.33509
1070.256, 12.42209
1070.738, 12.62784
1071.220, 12.88494
1071.702, 13.28878
1072.184, 13.64435
1072.667, 13.45532
1073.149, 12.66627
1073.631, 12.22060
1074.113, 12.89804
1074.595, 13.50898
1075.077, 13.38528
1075.559, 13.05029
1076.041, 12.95481
1076.523, 12.95774
1077.006, 12.68000
1077.488, 12.11774
1077.970, 11.82221
1078.452, 12.24122
1078.934, 12.58115
1079.416, 12.21578
1079.898, 11.87262
1080.380, 12.26478
1080.863, 12.96761
1081.345, 13.38346
1081.827, 13.42588
1082.309, 13.23351
1082.791, 12.68624
1083.273, 12.33585
1083.755, 12.53253
1084.237, 12.91403
1084.719, 13.48481
1085.202, 13.91834
1085.684, 13.62995
1086.166, 12.82027
1086.648, 12.43614
1087.130, 12.90349
1087.612, 13.28435
1088.094, 13.14564
1088.576, 12.82353
1089.058, 12.32047
1089.541, 11.89644
1090.023, 11.85862
1090.505, 12.12815
1090.987, 12.45553
1091.469, 12.79894
1091.951, 13.01924
1092.433, 12.95494
1092.915, 12.88681
1093.397, 13.05683
1093.880, 13.19316
1094.362, 12.95299
1094.844, 12.51775
1095.326, 12.30594
1095.808, 12.39586
1096.290, 12.47207
1096.772, 12.40608
1097.254, 12.33710
1097.737, 12.39463
1098.219, 12.39132
1098.701, 11.98651
1099.183, 11.53324
1099.665, 11.74632
1100.147, 12.60218
1100.629, 12.98586
1101.111, 12.25596
1101.594, 11.58763
1102.076, 11.09471
1102.558, 10.99311
1103.040, 11.72646
1103.522, 12.70084
1104.004, 13.32358
1104.486, 13.53130
1104.968, 13.30836
1105.450, 12.38174
1105.932, 11.71101
1106.415, 11.52132
1106.897, 11.58092
1107.379, 12.01356
1107.861, 12.46954
1108.343, 12.61445
1108.825, 12.53216
1109.307, 12.50585
1109.789, 12.59728
1110.272, 12.58606
1110.754, 12.33154
1111.236, 12.13229
1111.718, 12.10742
1112.200, 12.11352
1112.682, 11.97581
1113.164, 11.83883
1113.646, 12.05685
1114.129, 12.69211
1114.611, 12.92733
1115.093, 12.26937
1115.575, 11.93199
1116.057, 12.28940
1116.539, 12.63583
1117.021, 12.61711
1117.503, 12.46643
1117.985, 12.50663
1118.468, 12.69188
1118.950, 12.60181
1119.432, 11.92507
1119.914, 11.64248
1120.396, 11.96785
1120.878, 12.31687
1121.360, 12.55173
1121.842, 12.67896
1122.324, 12.68795
1122.807, 12.60175
1123.289, 12.47888
1123.771, 12.30127
1124.253, 12.18719
1124.735, 12.14260
1125.217, 12.14590
1125.699, 12.19341
1126.181, 12.30450
1126.664, 12.55048
1127.146, 12.75627
1127.628, 12.58734
1128.110, 12.07197
1128.592, 11.77566
1129.074, 11.70729
1129.556, 11.85794
1130.038, 12.30084
1130.521, 12.51131
1131.003, 12.20895
1131.485, 11.82727
1131.967, 11.85104
1132.449, 12.16193
1132.931, 12.34394
1133.413, 12.39877
1133.895, 12.58067
1134.377, 12.90434
1134.859, 13.06345
1135.342, 12.96507
1135.824, 12.97659
1136.306, 13.41706
1136.788, 13.83011
1137.270, 13.21175
1137.752, 11.85128
1138.234, 11.11308
1138.716, 10.94498
1139.199, 11.18682
1139.681, 11.74167
1140.163, 12.07768
1140.645, 11.94758
1141.127, 11.68155
1141.609, 11.57778
1142.091, 11.65862
1142.573, 12.09529
1143.056, 12.70565
1143.538, 13.08066
1144.020, 13.19850
1144.502, 13.14024
1144.984, 12.93580
1145.466, 12.56371
1145.948, 11.95398
1146.430, 11.40738
1146.912, 11.22566
1147.395, 11.33580
1147.877, 11.84648
1148.359, 12.47651
1148.841, 12.70388
1149.323, 12.53628
1149.805, 12.27931
1150.287, 12.04871
1150.769, 11.88045
1151.251, 11.78678
1151.734, 11.77786
1152.216, 11.96671
1152.698, 12.15460
1153.180, 11.98574
1153.662, 11.71100
1154.144, 12.02507
1154.626, 12.91580
1155.108, 13.18539
1155.591, 11.94018
1156.073, 10.87404
1156.555, 10.69143
1157.037, 10.82919
1157.519, 11.15276
1158.001, 11.47081
1158.483, 11.52108
1158.965, 11.40453
1159.448, 11.52885
1159.930, 12.04899
1160.412, 12.37484
1160.894, 12.30337
1161.376, 12.20913
1161.858, 12.04942
1162.340, 12.03184
1162.822, 12.50707
1163.304, 13.05667
1163.786, 12.98559
1164.269, 12.32192
1164.751, 11.98268
1165.233, 12.17018
1165.715, 12.18096
1166.197, 11.91564
1166.679, 11.60572
1167.161, 11.20629
1167.643, 11.09199
1168.126, 11.71852
1168.608, 12.69743
1169.090, 12.98633
1169.572, 12.55107
1170.054, 12.19662
1170.536, 11.91766
1171.018, 11.80076
1171.500, 11.86726
1171.983, 12.03868
1172.465, 12.28363
1172.947, 12.53897
1173.429, 12.75197
1173.911, 12.87489
1174.393, 12.68116
1174.875, 12.26132
1175.357, 12.10235
1175.839, 12.18402
1176.322, 12.18215
1176.804, 12.01770
1177.286, 11.83086
1177.768, 11.70677
1178.250, 11.66014
1178.732, 11.75319
1179.214, 11.90445
1179.696, 12.07606
1180.178, 12.15986
1180.661, 11.75624
1181.143, 11.09617
1181.625, 11.06180
1182.107, 11.85042
1182.589, 12.38579
1183.071, 11.76404
1183.553, 11.13615
1184.035, 11.52872
1184.518, 12.07139
1185.000, 11.83848
1185.482, 11.37670
1185.964, 11.58348
1186.446, 12.34254
1186.928, 12.86600
1187.410, 12.97436
1187.892, 12.83362
1188.375, 12.15302
1188.857, 11.69626
1189.339, 11.86825
1189.821, 12.18257
1190.303, 12.44023
1190.785, 12.56803
1191.267, 12.37825
1191.749, 11.91199
1192.231, 11.71769
1192.714, 11.88713
1193.196, 12.14496
1193.678, 12.62039
1194.160, 12.86890
1194.642, 12.70372
1195.124, 12.40380
1195.606, 12.15026
1196.088, 11.94783
1196.570, 11.80220
1197.053, 11.71529
1197.535, 11.72663
1198.017, 11.83611
1198.499, 12.12274
1198.981, 12.59240
1199.463, 12.78925
1199.945, 12.53465
1200.427, 12.14339
1200.910, 11.87883
1201.392, 11.69557
1201.874, 11.43667
1202.356, 11.22505
1202.838, 11.49327
1203.320, 12.05533
1203.802, 12.37790
1204.284, 12.41920
1204.766, 12.43961
1205.249, 12.53908
1205.731, 12.54392
1206.213, 12.23092
1206.695, 11.90888
1207.177, 11.87066
1207.659, 11.93442
1208.141, 11.94474
1208.623, 11.91051
1209.105, 11.76832
1209.588, 11.61058
1210.070, 11.84385
1210.552, 12.72371
1211.034, 13.28524
1211.516, 13.12911
1211.998, 12.77856
1212.480, 12.16696
1212.962, 11.67204
1213.445, 11.60593
1213.927, 11.75943
1214.409, 11.84149
1214.891, 11.85621
1215.373, 11.82052
1215.855, 11.60438
1216.337, 11.76611
1216.819, 12.53279
1217.302, 12.92933
1217.784, 12.61959
1218.266, 12.21554
1218.748, 12.11493
1219.230, 12.16006
1219.712, 12.10608
1220.194, 11.98839
1220.676, 11.95074
1221.158, 11.99648
1221.641, 12.25818
1222.123, 12.66751
1222.605, 12.59614
1223.087, 11.94706
1223.569, 11.57267
1224.051, 12.04922
1224.533, 12.71553
1225.015, 12.84831
1225.497, 12.69127
1225.979, 12.51506
1226.462, 12.30269
1226.944, 11.83637
1227.426, 11.36244
1227.908, 11.58633
1228.390, 12.52770
1228.872, 13.15297
1229.354, 12.95408
1229.836, 12.61629
1230.319, 12.29350
1230.801, 12.05570
1231.283, 11.96383
1231.765, 11.94993
1232.247, 11.99004
1232.729, 12.05145
1233.211, 12.05596
1233.693, 12.00046
1234.176, 12.04068
1234.658, 12.27633
1235.140, 12.33567
1235.622, 12.12145
1236.104, 11.96870
1236.586, 12.00676
1237.068, 12.05290
1237.550, 11.96534
1238.032, 11.80404
1238.515, 11.66224
1238.997, 11.55027
1239.479, 11.52992
1239.961, 11.59694
1240.443, 11.75233
1240.925, 11.97528
1241.407, 12.20472
1241.889, 12.40053
1242.371, 12.42030
1242.854, 12.14789
1243.336, 11.81009
1243.818, 11.45543
1244.300, 11.34674
1244.782, 12.01596
1245.264, 12.91959
1245.746, 13.47737
1246.228, 13.64510
1246.711, 13.42208
1247.193, 12.86180
1247.675, 12.33828
1248.157, 11.85514
1248.639, 11.64249
1249.121, 11.97546
1249.603, 12.29146
1250.085, 12.31448
1250.568, 12.33951
1251.050, 12.70450
1251.532, 13.06796
1252.014, 12.79317
1252.496, 11.96111
1252.978, 11.48735
1253.460, 11.38590
1253.942, 11.65996
1254.424, 12.36546
1254.906, 12.69528
1255.389, 12.42844
1255.871, 11.96009
1256.353, 11.51481
1256.835, 11.28092
1257.317, 11.62570
1257.799, 12.19670
1258.281, 12.21506
1258.763, 11.96788
1259.246, 12.04885
1259.728, 12.35753
1260.210, 12.54162
1260.692, 12.55488
1261.174, 12.58737
1261.656, 12.73475
1262.138, 12.72514
1262.620, 12.24900
1263.103, 11.80828
1263.585, 11.52545
1264.067, 11.48822
1264.549, 11.95939
1265.031, 12.57167
1265.513, 12.96542
1265.995, 13.07579
1266.477, 12.61091
1266.959, 11.29932
1267.442, 10.76501
1267.924, 11.20900
1268.406, 11.72883
1268.888, 12.22652
1269.370, 12.58637
1269.852, 12.75861
1270.334, 12.75785
1270.816, 12.56693
1271.298, 12.33338
1271.781, 12.41999
1272.263, 12.67721
1272.745, 12.64676
1273.227, 12.43749
1273.709, 12.40381
1274.191, 12.49887
1274.673, 12.33936
1275.155, 11.86486
1275.638, 11.58499
1276.120, 11.83316
1276.602, 12.17741
1277.084, 12.47154
1277.566, 12.66556
1278.048, 12.71947
1278.530, 12.66918
1279.012, 12.58946
1279.495, 12.41110
1279.977, 11.85824
1280.459, 10.99164
1280.941, 10.69292
1281.423, 11.27134
1281.905, 11.38735
1282.387, 10.81592
1282.869, 10.71420
1283.351, 11.41906
1283.833, 12.19518
1284.316, 12.65505
1284.798, 12.72491
1285.280, 12.20234
1285.762, 11.47825
1286.244, 11.43286
1286.726, 11.81328
1287.208, 12.13155
1287.690, 12.34942
##END=



