##NAMES=Pyrope
##RRUFFID=R050446
##IDEAL CHEMISTRY=Mg_3_Al_2_(SiO_4_)_3_
##LOCALITY=Sunset Crater, Arizona, USA
##OWNER=RRUFF
##SOURCE=Marcus Origlieri
##DESCRIPTION=Red fragment
##STATUS=The identification of this mineral has been confirmed by X-ray diffraction and chemical analysis
##URL=rruff.info/R050446
##MEASURED CHEMISTRY=(Mg_1.93_Fe^2+^_0.65_Ca_0.42_)_Î£=3_Al_2.00_(Si_1.00_O_4_)_3_
93.78320, 59.01215
94.26532, 59.48707
94.74744, 59.65310
95.22955, 59.35845
95.71167, 59.01586
96.19379, 58.99172
96.67590, 59.56428
97.15802, 59.94339
97.64014, 59.90233
98.12225, 59.61619
98.60437, 59.44994
99.08649, 59.66953
99.56860, 59.87495
100.0507, 59.41409
100.5328, 58.05968
101.0150, 56.66090
101.4971, 55.83381
101.9792, 55.58134
102.4613, 55.51355
102.9434, 55.66837
103.4255, 55.84531
103.9077, 55.85905
104.3898, 55.61690
104.8719, 55.29370
105.3540, 55.28083
105.8361, 55.85679
106.3182, 56.25372
106.8004, 56.29194
107.2825, 56.08772
107.7646, 55.71636
108.2467, 55.18261
108.7288, 54.52717
109.2109, 54.36163
109.6931, 55.52812
110.1752, 56.33467
110.6573, 55.95440
111.1394, 54.74323
111.6215, 53.71307
112.1036, 53.79190
112.5858, 55.18488
113.0679, 56.28902
113.5500, 57.14655
114.0321, 57.72314
114.5142, 57.87374
114.9964, 57.57756
115.4785, 57.19452
115.9606, 57.22217
116.4427, 57.63482
116.9248, 57.83675
117.4069, 57.42402
117.8891, 56.72301
118.3712, 56.46767
118.8533, 57.01633
119.3354, 57.70891
119.8175, 57.84653
120.2996, 57.48122
120.7818, 57.14550
121.2639, 57.29869
121.7460, 57.96259
122.2281, 58.50911
122.7102, 58.99014
123.1923, 59.18958
123.6745, 58.80604
124.1566, 57.83109
124.6387, 56.72024
125.1208, 56.16994
125.6029, 56.54783
126.0850, 56.72650
126.5672, 56.41902
127.0493, 56.01658
127.5314, 55.87003
128.0135, 56.11339
128.4956, 56.58559
128.9777, 56.83774
129.4599, 56.60851
129.9420, 56.43052
130.4241, 56.40073
130.9062, 56.43638
131.3883, 56.41056
131.8705, 56.24981
132.3526, 55.97620
132.8347, 55.71484
133.3168, 55.33006
133.7989, 55.08115
134.2810, 55.13046
134.7632, 55.43891
135.2453, 55.80649
135.7274, 56.15468
136.2095, 56.45005
136.6916, 56.61792
137.1737, 56.43764
137.6559, 56.25938
138.1380, 56.55520
138.6201, 57.44968
139.1022, 58.22884
139.5843, 58.22630
140.0664, 57.83492
140.5486, 57.60056
141.0307, 57.83981
141.5128, 58.38105
141.9949, 58.73125
142.4770, 58.89539
142.9591, 58.82162
143.4413, 58.33530
143.9234, 57.63570
144.4055, 57.08788
144.8876, 57.01399
145.3697, 57.41808
145.8518, 57.61720
146.3340, 57.39642
146.8161, 57.14405
147.2982, 56.99669
147.7803, 56.92822
148.2624, 56.83289
148.7445, 56.61370
149.2267, 56.28019
149.7088, 55.75692
150.1909, 54.75736
150.6730, 53.83346
151.1551, 53.38692
151.6372, 53.42590
152.1194, 53.58515
152.6015, 53.41295
153.0836, 52.75552
153.5657, 52.11909
154.0478, 51.53617
154.5299, 50.95789
155.0121, 50.28239
155.4942, 49.47074
155.9763, 48.71077
156.4584, 48.39844
156.9405, 48.58515
157.4227, 48.59449
157.9048, 48.01885
158.3869, 47.14723
158.8690, 46.66100
159.3511, 46.92283
159.8332, 47.32415
160.3154, 47.06103
160.7975, 46.12143
161.2796, 45.18008
161.7617, 44.67858
162.2438, 44.58490
162.7259, 44.51995
163.2081, 44.44397
163.6902, 44.32647
164.1723, 44.09053
164.6544, 43.73076
165.1365, 43.43664
165.6186, 43.52572
166.1008, 44.16550
166.5829, 44.42069
167.0650, 43.60607
167.5471, 42.70845
168.0292, 42.38443
168.5113, 42.78732
168.9935, 43.54197
169.4756, 44.03695
169.9577, 44.16267
170.4398, 44.21381
170.9219, 44.05437
171.4040, 43.92680
171.8862, 44.13265
172.3683, 44.76428
172.8504, 45.54472
173.3325, 45.80748
173.8146, 44.58989
174.2967, 43.99777
174.7789, 44.43214
175.2610, 45.40360
175.7431, 46.35357
176.2252, 47.03704
176.7073, 47.54991
177.1894, 48.20733
177.6716, 49.14679
178.1537, 50.04679
178.6358, 50.90516
179.1179, 51.68376
179.6000, 52.27469
180.0821, 52.55963
180.5643, 52.70447
181.0464, 53.23808
181.5285, 54.44973
182.0106, 55.56711
182.4927, 56.00486
182.9749, 55.94757
183.4570, 56.28013
183.9391, 57.65270
184.4212, 59.55653
184.9033, 60.82545
185.3854, 61.13475
185.8676, 61.31810
186.3497, 62.16640
186.8318, 63.70405
187.3139, 65.05009
187.7960, 65.72261
188.2781, 66.01383
188.7603, 66.17078
189.2424, 66.16895
189.7245, 66.20517
190.2066, 66.55884
190.6887, 67.29968
191.1708, 68.11559
191.6530, 68.85229
192.1351, 69.62888
192.6172, 70.58945
193.0993, 71.80358
193.5814, 73.13116
194.0635, 74.28121
194.5457, 75.19427
195.0278, 76.02863
195.5099, 76.72243
195.9920, 77.40942
196.4741, 78.27788
196.9562, 79.42577
197.4384, 80.68060
197.9205, 81.52010
198.4026, 81.39909
198.8847, 81.59927
199.3668, 82.48787
199.8489, 83.69164
200.3311, 84.79848
200.8132, 85.59991
201.2953, 86.16586
201.7774, 86.76349
202.2595, 87.54150
202.7416, 88.18409
203.2238, 88.64104
203.7059, 88.94974
204.1880, 89.15472
204.6701, 89.27254
205.1522, 89.32359
205.6344, 89.39761
206.1165, 89.29555
206.5986, 89.43522
207.0807, 90.27208
207.5628, 91.39520
208.0449, 92.00995
208.5271, 91.65614
209.0092, 90.55501
209.4913, 89.61341
209.9734, 88.85434
210.4555, 88.18362
210.9376, 87.66145
211.4198, 87.21867
211.9019, 86.63767
212.3840, 85.77223
212.8661, 84.73581
213.3482, 83.85448
213.8303, 83.18263
214.3125, 82.56733
214.7946, 82.02375
215.2767, 81.51048
215.7588, 80.78606
216.2409, 79.59862
216.7230, 78.23499
217.2052, 77.20977
217.6873, 76.64050
218.1694, 76.18553
218.6515, 75.68951
219.1336, 75.14280
219.6157, 74.31721
220.0979, 72.84090
220.5800, 71.21364
221.0621, 70.00584
221.5442, 69.33973
222.0263, 68.84245
222.5084, 68.16114
222.9906, 67.27563
223.4727, 66.39313
223.9548, 65.57898
224.4369, 64.79541
224.9190, 63.98334
225.4011, 63.12053
225.8833, 62.34769
226.3654, 61.88707
226.8475, 61.83048
227.3296, 61.65052
227.8117, 61.05135
228.2938, 60.41317
228.7760, 60.00121
229.2581, 59.86160
229.7402, 59.81166
230.2223, 59.62681
230.7044, 59.30112
231.1866, 58.84736
231.6687, 58.00994
232.1508, 57.23347
232.6329, 56.82920
233.1150, 56.83883
233.5971, 57.05157
234.0793, 57.19760
234.5614, 57.29446
235.0435, 57.26871
235.5256, 57.00338
236.0077, 56.71959
236.4898, 56.55216
236.9720, 56.52518
237.4541, 56.57743
237.9362, 56.64626
238.4183, 56.80739
238.9004, 56.78160
239.3825, 56.42574
239.8647, 56.02600
240.3468, 55.74866
240.8289, 55.62296
241.3110, 55.59266
241.7931, 55.58839
242.2752, 55.60378
242.7574, 55.67503
243.2395, 55.79702
243.7216, 55.96780
244.2037, 56.20231
244.6858, 56.49385
245.1679, 56.82188
245.6501, 57.20028
246.1322, 57.72437
246.6143, 57.80659
247.0964, 57.11309
247.5785, 56.27974
248.0606, 55.69819
248.5428, 55.41133
249.0249, 55.26237
249.5070, 55.11036
249.9891, 54.95185
250.4712, 54.83209
250.9533, 54.79517
251.4355, 54.76066
251.9176, 54.64033
252.3997, 54.44505
252.8818, 54.31431
253.3639, 54.42387
253.8460, 54.76360
254.3282, 54.76547
254.8103, 54.01516
255.2924, 53.26148
255.7745, 53.15569
256.2566, 53.64744
256.7387, 54.02882
257.2209, 53.68016
257.7030, 52.76439
258.1851, 52.40400
258.6672, 53.14315
259.1493, 53.99644
259.6314, 54.20816
260.1136, 53.84093
260.5957, 53.54357
261.0778, 53.77074
261.5599, 54.32815
262.0420, 54.58458
262.5241, 54.43016
263.0063, 54.09837
263.4884, 53.65426
263.9705, 53.12205
264.4526, 52.72562
264.9347, 52.63287
265.4168, 52.71000
265.8990, 52.67778
266.3811, 52.48756
266.8632, 52.28544
267.3453, 52.25002
267.8275, 52.34217
268.3096, 52.20275
268.7917, 51.46589
269.2738, 50.65793
269.7559, 50.51713
270.2380, 51.16719
270.7202, 51.86881
271.2023, 52.10979
271.6844, 51.94487
272.1665, 51.72798
272.6486, 51.46980
273.1307, 51.28049
273.6129, 51.31095
274.0950, 51.55779
274.5771, 51.72981
275.0592, 51.53427
275.5413, 51.05487
276.0234, 50.80578
276.5056, 51.01134
276.9877, 51.27041
277.4698, 51.23301
277.9519, 50.95454
278.4340, 50.71604
278.9161, 50.77360
279.3983, 51.03503
279.8804, 51.06745
280.3625, 50.73738
280.8446, 50.33727
281.3267, 49.99295
281.8088, 49.71901
282.2910, 49.55437
282.7731, 49.56507
283.2552, 49.70012
283.7373, 49.78254
284.2194, 49.76514
284.7015, 49.78532
285.1837, 49.81826
285.6658, 49.93893
286.1479, 50.33418
286.6300, 51.27752
287.1121, 52.35810
287.5942, 52.49624
288.0764, 51.17850
288.5585, 50.12785
289.0406, 50.09263
289.5227, 50.57361
290.0048, 51.11929
290.4869, 51.59912
290.9691, 51.99559
291.4512, 52.29766
291.9333, 52.53006
292.4154, 52.58250
292.8975, 52.14094
293.3796, 51.67871
293.8618, 51.65867
294.3439, 52.19674
294.8260, 52.81732
295.3081, 52.85516
295.7902, 52.17574
296.2723, 51.55428
296.7545, 50.82533
297.2366, 50.40516
297.7187, 50.66854
298.2008, 51.59560
298.6829, 52.75423
299.1650, 53.81897
299.6472, 54.83057
300.1293, 55.37989
300.6114, 54.93604
301.0935, 54.44685
301.5756, 54.25156
302.0577, 54.36682
302.5399, 54.71865
303.0220, 55.36679
303.5041, 56.28317
303.9862, 56.82257
304.4683, 56.59137
304.9504, 56.42403
305.4326, 56.61654
305.9147, 57.08708
306.3968, 57.67095
306.8789, 58.28564
307.3610, 58.92773
307.8431, 59.57105
308.3253, 60.21879
308.8074, 60.86338
309.2895, 61.52672
309.7716, 62.18035
310.2537, 62.74634
310.7358, 63.17365
311.2180, 63.59268
311.7001, 64.32140
312.1822, 65.54972
312.6643, 66.68324
313.1464, 67.67730
313.6285, 68.50851
314.1107, 69.09300
314.5928, 69.41904
315.0749, 69.68303
315.5570, 70.21360
316.0392, 71.14346
316.5213, 71.84898
317.0034, 72.22760
317.4855, 72.40035
317.9676, 72.33274
318.4497, 72.07002
318.9319, 71.79566
319.4140, 71.77245
319.8961, 72.06033
320.3782, 72.00980
320.8603, 71.32001
321.3424, 70.54816
321.8246, 69.78969
322.3067, 69.11365
322.7888, 68.61469
323.2709, 68.33863
323.7530, 68.29926
324.2351, 68.66786
324.7173, 70.00632
325.1994, 70.95131
325.6815, 70.91540
326.1636, 70.32112
326.6457, 69.70071
327.1278, 69.26591
327.6100, 69.08098
328.0921, 69.36731
328.5742, 70.39173
329.0563, 71.31984
329.5384, 71.84552
330.0205, 72.26366
330.5027, 72.82348
330.9848, 73.59917
331.4669, 74.48805
331.9490, 75.31677
332.4311, 76.02427
332.9132, 76.94205
333.3954, 78.25110
333.8775, 79.69951
334.3596, 81.16983
334.8417, 82.64909
335.3238, 84.16238
335.8059, 85.67944
336.2881, 87.20001
336.7702, 88.95103
337.2523, 91.16799
337.7344, 93.36639
338.2165, 95.21098
338.6986, 96.86144
339.1808, 98.72319
339.6629, 101.0971
340.1450, 103.8576
340.6271, 106.5496
341.1092, 109.1211
341.5913, 111.7132
342.0735, 114.2639
342.5556, 116.9017
343.0377, 119.8026
343.5198, 123.0442
344.0019, 126.5430
344.4840, 130.1416
344.9662, 133.8541
345.4483, 137.7061
345.9304, 141.7177
346.4125, 145.8911
346.8946, 150.1703
347.3767, 154.5769
347.8589, 159.2617
348.3410, 164.3677
348.8231, 169.9096
349.3052, 175.6826
349.7873, 181.7112
350.2694, 187.9736
350.7516, 194.3008
351.2337, 200.7742
351.7158, 207.6087
352.1979, 214.9826
352.6800, 222.8559
353.1621, 231.1056
353.6443, 239.8879
354.1264, 248.6843
354.6085, 257.1448
355.0906, 265.4473
355.5727, 273.8301
356.0548, 282.5266
356.5370, 291.1610
357.0191, 299.5323
357.5012, 307.6898
357.9833, 314.5674
358.4654, 319.4401
358.9475, 322.8085
359.4297, 325.3532
359.9118, 327.1960
360.3939, 327.9459
360.8760, 327.3895
361.3581, 325.5185
361.8402, 322.2582
362.3224, 317.5779
362.8045, 311.4548
363.2866, 303.7632
363.7687, 294.6478
364.2508, 284.8506
364.7329, 274.1063
365.2151, 262.9967
365.6972, 252.4384
366.1793, 242.4727
366.6614, 233.0080
367.1436, 224.1713
367.6257, 215.7940
368.1078, 207.3825
368.5899, 198.3327
369.0720, 189.6190
369.5541, 182.1883
370.0363, 175.8997
370.5184, 169.9316
371.0005, 163.9209
371.4826, 158.0016
371.9647, 152.4299
372.4468, 147.2654
372.9290, 142.2924
373.4111, 137.4968
373.8932, 132.8264
374.3753, 128.2308
374.8574, 123.6778
375.3395, 119.3187
375.8217, 115.3729
376.3038, 111.8524
376.7859, 108.7184
377.2680, 106.3346
377.7501, 104.0864
378.2322, 101.3718
378.7144, 98.20324
379.1965, 95.07149
379.6786, 92.32402
380.1607, 89.94334
380.6428, 87.56971
381.1249, 85.14311
381.6071, 82.80673
382.0892, 80.62094
382.5713, 78.55101
383.0534, 76.50176
383.5355, 74.40938
384.0176, 72.40466
384.4998, 70.76833
384.9819, 69.91913
385.4640, 68.75323
385.9461, 66.93958
386.4282, 64.99478
386.9103, 63.36428
387.3925, 62.11626
387.8746, 61.04436
388.3567, 59.95842
388.8388, 58.85946
389.3209, 57.73966
389.8030, 56.51350
390.2852, 55.34869
390.7673, 54.32438
391.2494, 53.40879
391.7315, 52.53729
392.2136, 51.67602
392.6957, 50.81907
393.1779, 49.95509
393.6600, 49.02629
394.1421, 48.17794
394.6242, 47.46627
395.1063, 46.80511
395.5884, 46.08613
396.0706, 45.29510
396.5527, 44.57064
397.0348, 44.16278
397.5169, 44.23713
397.9990, 43.97341
398.4811, 43.03198
398.9633, 42.05417
399.4454, 41.25615
399.9275, 40.63194
400.4096, 40.08332
400.8917, 39.53308
401.3738, 39.01583
401.8560, 38.73127
402.3381, 38.92873
402.8202, 38.87519
403.3023, 38.06390
403.7844, 37.05609
404.2665, 36.43191
404.7487, 36.37019
405.2308, 36.60428
405.7129, 36.93081
406.1950, 37.37370
406.6771, 37.50812
407.1592, 37.21055
407.6414, 36.60143
408.1235, 35.54719
408.6056, 34.18401
409.0877, 33.19412
409.5698, 33.23893
410.0519, 33.89716
410.5341, 34.15815
411.0162, 33.92017
411.4983, 33.58362
411.9804, 33.38610
412.4625, 33.24827
412.9446, 33.03787
413.4268, 32.71120
413.9089, 32.34666
414.3910, 31.99270
414.8731, 31.65121
415.3553, 31.32108
415.8374, 30.98053
416.3195, 30.68831
416.8016, 30.56561
417.2837, 30.61899
417.7658, 30.63852
418.2480, 30.59511
418.7301, 30.47537
419.2122, 30.16838
419.6943, 29.68293
420.1764, 29.37004
420.6585, 29.58623
421.1407, 30.25975
421.6228, 30.54422
422.1049, 30.31975
422.5870, 29.88778
423.0691, 29.16331
423.5512, 28.34698
424.0334, 27.82085
424.5155, 27.74783
424.9976, 27.91664
425.4797, 27.93264
425.9618, 27.65204
426.4439, 27.50800
426.9261, 27.55845
427.4082, 27.69430
427.8903, 27.87851
428.3724, 28.08403
428.8545, 28.25496
429.3366, 28.33995
429.8188, 28.34488
430.3009, 28.38623
430.7830, 28.59037
431.2651, 28.68769
431.7472, 28.50375
432.2293, 28.24037
432.7115, 28.18951
433.1936, 28.45125
433.6757, 28.78647
434.1578, 28.74984
434.6399, 28.17603
435.1220, 27.81663
435.6042, 27.90261
436.0863, 28.07068
436.5684, 28.19621
437.0505, 28.25946
437.5326, 28.25864
438.0147, 28.17309
438.4969, 28.02756
438.9790, 27.90764
439.4611, 27.81527
439.9432, 27.74438
440.4253, 27.74797
440.9074, 27.74628
441.3896, 27.62674
441.8717, 27.34324
442.3538, 27.07248
442.8359, 26.97679
443.3180, 27.03563
443.8001, 27.13808
444.2823, 27.27994
444.7644, 27.43128
445.2465, 27.59765
445.7286, 27.76484
446.2107, 27.83182
446.6928, 27.64755
447.1750, 27.43389
447.6571, 27.45890
448.1392, 27.69972
448.6213, 27.89581
449.1034, 27.88931
449.5855, 27.76487
450.0677, 27.77021
450.5498, 27.98137
451.0319, 28.13696
451.5140, 28.07896
451.9961, 27.97145
452.4782, 28.08563
452.9604, 28.45011
453.4425, 28.74588
453.9246, 28.60010
454.4067, 27.93766
454.8888, 27.64382
455.3709, 27.91443
455.8531, 28.26970
456.3352, 28.60182
456.8173, 28.88657
457.2994, 29.06847
457.7815, 29.11924
458.2636, 29.16815
458.7458, 29.52950
459.2279, 30.49927
459.7100, 31.15721
460.1921, 31.39824
460.6742, 31.43264
461.1563, 31.19733
461.6385, 30.82820
462.1206, 30.71801
462.6027, 31.28996
463.0848, 32.34695
463.5669, 32.81499
464.0491, 32.39779
464.5312, 31.98075
465.0133, 31.78271
465.4954, 31.77255
465.9775, 31.98094
466.4597, 32.43154
466.9418, 32.89429
467.4239, 33.09083
467.9060, 33.07808
468.3881, 33.27039
468.8702, 33.81512
469.3524, 34.40455
469.8345, 34.71941
470.3166, 34.86051
470.7987, 35.12033
471.2808, 35.78343
471.7629, 36.43108
472.2451, 36.57098
472.7272, 36.31281
473.2093, 36.22808
473.6914, 36.57839
474.1735, 37.18227
474.6556, 37.67254
475.1378, 37.94318
475.6199, 38.46444
476.1020, 39.60793
476.5841, 40.82685
477.0662, 41.64050
477.5483, 42.02507
478.0305, 42.17701
478.5126, 42.16208
478.9947, 42.06978
479.4768, 42.69320
479.9589, 44.90465
480.4410, 46.78428
480.9232, 47.96111
481.4053, 48.75605
481.8874, 49.36611
482.3695, 49.90325
482.8516, 50.59798
483.3337, 51.81542
483.8159, 53.65455
484.2980, 55.17564
484.7801, 56.32249
485.2622, 57.17850
485.7443, 57.79139
486.2264, 58.13528
486.7086, 58.14762
487.1907, 57.77972
487.6728, 57.15248
488.1549, 56.39574
488.6370, 55.50282
489.1191, 54.57640
489.6013, 53.55358
490.0834, 52.60204
490.5655, 51.99702
491.0476, 51.65654
491.5297, 51.01650
492.0118, 49.43896
492.4940, 47.66912
492.9761, 46.69215
493.4582, 46.50109
493.9403, 46.58241
494.4224, 46.72937
494.9045, 46.93475
495.3867, 47.16101
495.8688, 47.32911
496.3509, 47.69553
496.8330, 48.27300
497.3151, 49.10547
497.7972, 50.31364
498.2794, 51.86782
498.7615, 53.51223
499.2436, 54.99990
499.7257, 56.35062
500.2078, 58.04642
500.6899, 60.27943
501.1721, 62.63105
501.6542, 65.07594
502.1363, 67.58585
502.6184, 70.10188
503.1005, 72.62770
503.5826, 75.31648
504.0648, 78.45328
504.5469, 82.12254
505.0290, 85.40285
505.5111, 88.37844
505.9932, 90.82672
506.4753, 92.76217
506.9575, 94.12891
507.4396, 94.85359
507.9217, 94.92099
508.4038, 94.30386
508.8859, 92.94051
509.3680, 90.83372
509.8502, 88.03802
510.3323, 84.27110
510.8144, 80.27200
511.2965, 76.71933
511.7786, 73.56617
512.2607, 70.50395
512.7429, 67.25095
513.2250, 64.22963
513.7071, 61.90108
514.1892, 60.14219
514.6713, 58.32524
515.1534, 56.10981
515.6356, 53.84354
516.1177, 52.22378
516.5998, 51.50094
517.0819, 50.87994
517.5640, 50.56846
518.0461, 50.16699
518.5283, 49.22234
519.0104, 47.90929
519.4925, 46.86159
519.9746, 46.52918
520.4567, 46.67927
520.9388, 46.40924
521.4210, 45.32412
521.9031, 44.56150
522.3852, 44.35450
522.8673, 44.39205
523.3494, 44.48736
523.8315, 44.61411
524.3137, 44.82555
524.7958, 45.28568
525.2779, 45.84571
525.7600, 45.88055
526.2421, 45.21398
526.7242, 44.68793
527.2064, 44.79573
527.6885, 45.18627
528.1706, 45.39474
528.6527, 45.34594
529.1348, 45.36000
529.6169, 45.70933
530.0991, 46.18882
530.5812, 46.37715
531.0633, 46.23103
531.5454, 46.21880
532.0275, 46.72198
532.5096, 47.65748
532.9918, 48.43547
533.4739, 49.07568
533.9560, 49.55958
534.4381, 49.69169
534.9202, 49.76695
535.4023, 50.10546
535.8845, 50.76195
536.3666, 51.59587
536.8487, 52.47160
537.3308, 53.39056
537.8129, 54.34573
538.2951, 55.25088
538.7772, 56.32095
539.2593, 57.62617
539.7415, 59.09625
540.2236, 60.62743
540.7057, 62.19492
541.1878, 63.94111
541.6699, 66.24014
542.1520, 68.94358
542.6342, 70.91810
543.1163, 71.75948
543.5984, 72.65730
544.0805, 74.37125
544.5626, 76.67114
545.0447, 79.19795
545.5269, 81.98955
546.0090, 84.83537
546.4911, 87.64494
546.9732, 90.43340
547.4553, 93.09781
547.9374, 95.63743
548.4196, 98.43800
548.9017, 101.8749
549.3838, 105.9677
549.8659, 110.3763
550.3480, 115.2675
550.8301, 120.2365
551.3123, 125.0766
551.7944, 129.9616
552.2765, 135.0876
552.7586, 140.5046
553.2407, 146.1992
553.7228, 152.1378
554.2050, 158.3255
554.6871, 164.6848
555.1692, 171.4006
555.6513, 178.0167
556.1334, 184.5896
556.6155, 190.8581
557.0977, 196.7232
557.5798, 202.2535
558.0619, 206.6150
558.5440, 209.1576
559.0261, 209.9137
559.5082, 209.0159
559.9904, 206.4637
560.4725, 202.3366
560.9546, 196.4628
561.4367, 188.9266
561.9188, 180.6730
562.4009, 171.2956
562.8831, 161.7675
563.3652, 152.2390
563.8473, 142.8237
564.3294, 133.5493
564.8115, 124.4637
565.2936, 115.8335
565.7758, 107.9441
566.2579, 100.7677
566.7400, 94.03630
567.2221, 87.62431
567.7042, 81.86169
568.1863, 76.97935
568.6685, 72.69397
569.1506, 68.79272
569.6327, 65.22859
570.1148, 61.98412
570.5969, 59.17838
571.0790, 56.73487
571.5612, 54.12327
572.0433, 51.14274
572.5254, 48.55067
573.0075, 46.90065
573.4896, 45.82410
573.9717, 44.77496
574.4539, 43.72400
574.9360, 42.69227
575.4181, 41.61747
575.9002, 40.60119
576.3823, 39.85492
576.8644, 39.37068
577.3466, 38.85284
577.8287, 38.07824
578.3108, 37.10718
578.7929, 36.23652
579.2750, 35.48969
579.7571, 34.81712
580.2393, 34.15569
580.7214, 33.61642
581.2035, 33.31043
581.6856, 33.22264
582.1677, 33.23463
582.6498, 33.25702
583.1320, 33.31357
583.6141, 33.51089
584.0962, 33.90586
584.5783, 34.25380
585.0604, 34.59008
585.5425, 34.76386
586.0247, 34.61281
586.5068, 34.15208
586.9889, 33.61359
587.4710, 32.95749
587.9531, 32.36823
588.4352, 32.05035
588.9174, 31.99709
589.3995, 32.20344
589.8816, 32.74006
590.3637, 33.32064
590.8458, 33.43838
591.3279, 32.90730
591.8101, 32.40153
592.2922, 31.92971
592.7743, 31.47310
593.2564, 31.05489
593.7385, 30.63992
594.2206, 30.14585
594.7028, 29.53608
595.1849, 28.90676
595.6670, 28.43148
596.1491, 28.12919
596.6312, 27.84312
597.1133, 27.57490
597.5955, 27.30287
598.0776, 26.94600
598.5597, 26.58857
599.0418, 26.42547
599.5239, 26.61356
600.0060, 26.76180
600.4882, 26.45704
600.9703, 25.88665
601.4524, 25.53957
601.9345, 25.51772
602.4166, 25.53401
602.8987, 25.32442
603.3809, 24.91119
603.8630, 24.63894
604.3451, 24.45965
604.8272, 24.45886
605.3093, 24.90160
605.7914, 25.37638
606.2736, 25.38055
606.7557, 24.92661
607.2378, 24.51646
607.7199, 24.58785
608.2020, 25.05339
608.6841, 25.53956
609.1663, 26.16831
609.6484, 26.46181
610.1305, 26.02684
610.6126, 25.36848
611.0947, 24.84643
611.5768, 24.48564
612.0590, 24.32714
612.5411, 24.54024
613.0232, 24.85752
613.5053, 24.98507
613.9874, 24.94106
614.4695, 24.87238
614.9517, 24.85189
615.4338, 24.76671
615.9159, 24.36669
616.3980, 23.37738
616.8801, 23.05775
617.3622, 23.96597
617.8444, 24.86939
618.3265, 25.24129
618.8086, 25.26372
619.2907, 25.22435
619.7728, 25.23367
620.2549, 25.33041
620.7371, 25.61643
621.2192, 26.08014
621.7013, 26.41656
622.1834, 26.57364
622.6655, 26.68470
623.1476, 26.69631
623.6298, 26.75511
624.1119, 27.14987
624.5940, 28.02799
625.0761, 28.86420
625.5582, 29.41103
626.0403, 29.78464
626.5225, 30.05263
627.0046, 30.26290
627.4867, 30.54651
627.9688, 30.96746
628.4509, 31.58311
628.9330, 32.62242
629.4152, 34.45314
629.8973, 36.03236
630.3794, 37.35082
630.8615, 38.43326
631.3436, 38.99500
631.8257, 39.34970
632.3079, 40.23436
632.7900, 42.08110
633.2721, 44.41788
633.7542, 46.64272
634.2363, 48.76901
634.7184, 50.88163
635.2006, 52.99827
635.6827, 55.09462
636.1648, 57.11186
636.6469, 59.06683
637.1291, 61.06205
637.6112, 62.94378
638.0933, 65.04430
638.5754, 67.66522
639.0576, 70.43344
639.5397, 73.12411
640.0218, 75.58002
640.5039, 77.42809
640.9860, 78.32238
641.4681, 78.41717
641.9503, 78.57336
642.4324, 79.11626
642.9145, 78.90331
643.3966, 77.34970
643.8787, 75.19213
644.3608, 72.83037
644.8430, 70.28105
645.3251, 67.48100
645.8072, 64.10728
646.2893, 60.71934
646.7714, 57.90255
647.2535, 55.55273
647.7357, 53.38112
648.2178, 51.32545
648.6999, 49.32152
649.1820, 47.31648
649.6641, 45.29677
650.1462, 43.41793
650.6284, 41.64585
651.1105, 40.03708
651.5926, 38.60337
652.0747, 37.34386
652.5568, 36.28147
653.0389, 35.40553
653.5211, 34.68034
654.0032, 34.14764
654.4853, 33.71049
654.9674, 33.07325
655.4495, 32.21833
655.9316, 31.36584
656.4138, 30.56920
656.8959, 29.83655
657.3780, 29.18678
657.8601, 28.61780
658.3422, 28.09979
658.8243, 27.67101
659.3065, 27.25182
659.7886, 26.79792
660.2707, 26.32358
660.7528, 25.78317
661.2349, 25.19333
661.7170, 24.77595
662.1992, 24.89552
662.6813, 25.50553
663.1634, 25.41170
663.6455, 24.13032
664.1276, 23.09603
664.6097, 23.02879
665.0919, 23.24080
665.5740, 23.21156
666.0561, 22.89450
666.5382, 22.33425
667.0203, 21.18015
667.5024, 20.06852
667.9846, 19.75390
668.4667, 20.08609
668.9488, 20.58471
669.4309, 21.09884
669.9130, 21.38376
670.3951, 21.03440
670.8773, 19.91012
671.3594, 19.30051
671.8415, 19.62067
672.3236, 19.98322
672.8057, 20.34338
673.2878, 20.57364
673.7700, 20.46479
674.2521, 20.02443
674.7342, 19.61907
675.2163, 19.60910
675.6984, 19.79492
676.1805, 19.72548
676.6627, 19.41169
677.1448, 19.22928
677.6269, 19.38833
678.1090, 19.56778
678.5911, 19.26598
679.0732, 18.33904
679.5554, 17.75375
680.0375, 17.74934
680.5196, 17.79846
681.0017, 17.67323
681.4838, 17.50349
681.9659, 17.51663
682.4481, 17.73408
682.9302, 17.90087
683.4123, 17.74614
683.8944, 17.35210
684.3765, 17.02379
684.8586, 16.75623
685.3408, 16.59590
685.8229, 16.56349
686.3050, 16.64029
686.7871, 16.79583
687.2692, 17.02487
687.7513, 17.39347
688.2335, 18.31406
688.7156, 18.95044
689.1977, 18.60123
689.6798, 17.76561
690.1619, 17.23009
690.6440, 17.17601
691.1262, 17.24140
691.6083, 17.06176
692.0904, 16.68001
692.5725, 16.37908
693.0546, 16.12170
693.5367, 16.06864
694.0189, 16.49690
694.5010, 16.94762
694.9831, 16.92771
695.4652, 16.50343
695.9473, 16.23866
696.4294, 16.39326
696.9116, 16.66336
697.3937, 16.96643
697.8758, 17.20217
698.3579, 17.08811
698.8400, 16.60508
699.3221, 16.20021
699.8043, 16.34426
700.2864, 16.93205
700.7685, 17.12064
701.2506, 16.60461
701.7327, 16.33869
702.2148, 16.82941
702.6970, 17.36264
703.1791, 17.40956
703.6612, 17.07678
704.1433, 16.87149
704.6254, 17.06720
705.1075, 17.33590
705.5897, 17.42898
706.0718, 17.39377
706.5539, 17.30952
707.0360, 17.19621
707.5181, 17.08902
708.0002, 17.02343
708.4824, 16.98005
708.9645, 16.85593
709.4466, 16.59629
709.9287, 16.35926
710.4108, 16.09602
710.8929, 15.91585
711.3751, 15.85148
711.8572, 15.92221
712.3393, 16.19675
712.8214, 16.78687
713.3035, 17.35751
713.7856, 17.60051
714.2678, 17.61527
714.7499, 17.62774
715.2320, 17.66275
715.7141, 17.58180
716.1962, 17.27255
716.6783, 16.82436
717.1605, 16.50015
717.6426, 16.31012
718.1247, 16.23176
718.6068, 16.26741
719.0889, 16.40474
719.5710, 16.83497
720.0532, 17.30617
720.5353, 17.30106
721.0174, 16.59880
721.4995, 15.99816
721.9816, 16.40082
722.4637, 17.26716
722.9459, 17.45692
723.4280, 16.94565
723.9101, 16.43694
724.3922, 16.26498
724.8743, 16.32666
725.3564, 16.45592
725.8386, 16.73529
726.3207, 16.78279
726.8028, 16.12488
727.2849, 15.79082
727.7670, 16.46169
728.2491, 17.43978
728.7313, 17.83241
729.2134, 17.49388
729.6955, 17.06078
730.1776, 16.97719
730.6597, 17.07541
731.1418, 17.15510
731.6240, 17.19225
732.1061, 17.01255
732.5882, 16.51939
733.0703, 16.07166
733.5524, 16.15088
734.0345, 16.79022
734.5167, 17.15597
734.9988, 17.00463
735.4809, 16.88939
735.9631, 16.93498
736.4452, 17.01649
736.9273, 16.99033
737.4094, 16.88559
737.8915, 16.89235
738.3737, 17.17970
738.8558, 17.52461
739.3379, 17.67993
739.8200, 17.68920
740.3021, 17.65144
740.7842, 17.58825
741.2664, 17.63702
741.7485, 17.95878
742.2306, 18.44195
742.7127, 18.52223
743.1948, 17.88793
743.6769, 17.41548
744.1591, 17.08239
744.6412, 16.97990
745.1233, 17.30374
745.6054, 17.86997
746.0875, 18.33116
746.5696, 18.58712
747.0518, 18.67705
747.5339, 18.50563
748.0160, 18.23811
748.4981, 18.18985
748.9802, 18.35233
749.4623, 18.50401
749.9445, 18.54263
750.4266, 18.44597
750.9087, 18.13021
751.3908, 17.48620
751.8729, 17.14656
752.3550, 17.29258
752.8372, 17.50925
753.3193, 17.68425
753.8014, 17.84632
754.2835, 18.07669
754.7656, 18.37701
755.2477, 18.51038
755.7299, 18.20285
756.2120, 17.81805
756.6941, 17.69092
757.1762, 17.76522
757.6583, 17.91239
758.1404, 18.09002
758.6226, 18.25803
759.1047, 18.37900
759.5868, 18.45519
760.0689, 18.51701
760.5510, 18.60538
761.0331, 18.55569
761.5153, 18.06258
761.9974, 17.70555
762.4795, 18.09321
762.9616, 18.96007
763.4437, 19.43407
763.9258, 19.16011
764.4080, 18.78725
764.8901, 18.46680
765.3722, 18.31454
765.8543, 18.64155
766.3364, 19.29572
766.8185, 19.67257
767.3007, 19.43193
767.7828, 18.89763
768.2649, 18.63149
768.7470, 18.64433
769.2291, 18.65419
769.7112, 18.64958
770.1934, 18.64131
770.6755, 18.60526
771.1576, 18.58824
771.6397, 18.72661
772.1218, 19.08065
772.6039, 19.16669
773.0861, 18.49535
773.5682, 17.98183
774.0503, 18.32393
774.5324, 19.02771
775.0145, 19.34638
775.4966, 19.15599
775.9788, 18.91128
776.4609, 19.00348
776.9430, 19.29137
777.4251, 19.40289
777.9072, 19.34582
778.3893, 19.47451
778.8715, 19.93872
779.3536, 20.34471
779.8357, 20.29763
780.3178, 19.88445
780.7999, 19.70091
781.2820, 19.87008
781.7642, 20.08677
782.2463, 20.41700
782.7284, 20.71557
783.2105, 20.85455
783.6926, 20.89810
784.1747, 21.01809
784.6569, 21.29370
785.1390, 21.48312
785.6211, 21.19716
786.1032, 20.74169
786.5853, 20.78752
787.0674, 21.30195
787.5496, 21.79995
788.0317, 22.08500
788.5138, 22.14154
788.9959, 21.90155
789.4780, 21.32980
789.9601, 20.95930
790.4423, 20.75518
790.9244, 20.81666
791.4065, 21.45934
791.8886, 22.13819
792.3707, 22.42568
792.8528, 22.34081
793.3350, 22.14411
793.8171, 21.83100
794.2992, 21.54470
794.7813, 21.36748
795.2634, 21.27313
795.7455, 21.17652
796.2277, 21.10929
796.7098, 21.27518
797.1919, 21.81955
797.6740, 22.51609
798.1561, 22.91359
798.6382, 23.00037
799.1204, 23.10630
799.6025, 23.27519
800.0846, 23.38080
800.5667, 23.28606
801.0488, 23.14296
801.5309, 23.25164
802.0131, 23.64667
802.4952, 24.01854
802.9773, 24.50014
803.4594, 24.77097
803.9415, 24.44386
804.4236, 23.97380
804.9058, 23.99949
805.3879, 24.52748
805.8700, 24.93654
806.3521, 24.71139
806.8342, 24.28311
807.3163, 24.29021
807.7985, 24.67007
808.2806, 25.24839
808.7627, 25.99986
809.2448, 26.56857
809.7269, 26.66847
810.2090, 26.45729
810.6912, 26.41851
811.1733, 26.61241
811.6554, 26.83415
812.1375, 27.06257
812.6196, 27.34539
813.1017, 27.79754
813.5839, 28.26569
814.0660, 28.46801
814.5481, 28.35424
815.0302, 28.44673
815.5123, 29.19270
815.9944, 30.01443
816.4766, 30.39351
816.9587, 30.53287
817.4408, 30.83943
817.9229, 31.38337
818.4050, 31.91008
818.8871, 32.18818
819.3693, 32.33552
819.8514, 32.57880
820.3335, 32.90042
820.8156, 33.92927
821.2977, 36.12061
821.7798, 37.90636
822.2620, 38.07964
822.7441, 37.16141
823.2262, 36.65721
823.7083, 36.62345
824.1904, 36.87151
824.6725, 37.74118
825.1547, 38.51229
825.6368, 38.79946
826.1189, 38.81988
826.6010, 38.78278
827.0831, 38.76730
827.5652, 39.00018
828.0474, 39.89795
828.5295, 40.91091
829.0116, 41.30179
829.4937, 41.28362
829.9758, 41.35513
830.4579, 41.63912
830.9401, 42.17165
831.4222, 43.01966
831.9043, 44.03690
832.3864, 44.77802
832.8685, 45.18566
833.3506, 45.55772
833.8328, 45.79830
834.3149, 46.22685
834.7971, 47.17523
835.2792, 48.34441
835.7613, 49.14941
836.2434, 49.49567
836.7255, 49.99659
837.2076, 50.77623
837.6898, 51.69451
838.1719, 52.66201
838.6540, 53.74022
839.1361, 55.02178
839.6182, 56.50856
840.1003, 58.13633
840.5825, 59.88488
841.0646, 61.71787
841.5467, 63.63571
842.0288, 65.60191
842.5109, 67.33365
842.9930, 68.82911
843.4752, 70.71948
843.9573, 73.42547
844.4394, 76.56611
844.9215, 79.21981
845.4036, 81.19963
845.8857, 83.74934
846.3679, 87.37775
846.8500, 90.68028
847.3321, 92.49939
847.8142, 94.19269
848.2963, 97.32196
848.7784, 101.8269
849.2606, 106.2973
849.7427, 110.4689
850.2248, 114.5479
850.7069, 118.5771
851.1890, 122.5806
851.6711, 126.4156
852.1533, 130.2439
852.6354, 134.5941
853.1175, 139.7945
853.5996, 145.1138
854.0817, 149.8024
854.5638, 153.9863
855.0460, 157.9634
855.5281, 161.7340
856.0102, 164.9181
856.4923, 167.3504
856.9744, 169.4088
857.4565, 171.6913
857.9387, 174.1453
858.4208, 175.0354
858.9029, 173.8916
859.3850, 172.3010
859.8671, 170.3923
860.3492, 168.3059
860.8314, 166.3663
861.3135, 164.3284
861.7956, 161.4521
862.2777, 157.4640
862.7598, 153.1252
863.2419, 148.2463
863.7241, 143.4894
864.2062, 139.3236
864.6883, 135.5809
865.1704, 131.9591
865.6525, 128.3467
866.1346, 124.6393
866.6168, 120.5445
867.0989, 116.4409
867.5810, 112.9928
868.0631, 110.0607
868.5452, 107.2245
869.0273, 104.3889
869.5095, 101.6802
869.9916, 99.17497
870.4737, 96.89397
870.9558, 95.00048
871.4379, 93.64304
871.9200, 91.68278
872.4022, 88.62070
872.8843, 85.99025
873.3664, 84.64964
873.8485, 83.95554
874.3306, 83.00598
874.8127, 81.78634
875.2949, 80.72588
875.7770, 79.74302
876.2591, 79.06902
876.7412, 79.07487
877.2233, 79.18172
877.7054, 78.77483
878.1876, 78.02699
878.6697, 77.53380
879.1518, 77.53214
879.6339, 77.83498
880.1160, 78.49413
880.5981, 79.24029
881.0803, 79.62074
881.5624, 79.74132
882.0445, 79.99196
882.5266, 80.51511
883.0087, 81.32652
883.4908, 82.48384
883.9730, 83.90908
884.4551, 85.31527
884.9372, 86.70419
885.4193, 87.89282
885.9014, 88.74870
886.3835, 89.77518
886.8657, 91.42573
887.3478, 93.41486
887.8299, 94.93855
888.3120, 95.63102
888.7941, 96.82124
889.2762, 98.81863
889.7584, 100.9390
890.2405, 103.0547
890.7226, 105.1440
891.2047, 107.0287
891.6868, 108.7956
892.1689, 111.1344
892.6511, 114.8146
893.1332, 118.3810
893.6153, 121.1166
894.0974, 123.3703
894.5795, 125.3675
895.0616, 127.2468
895.5438, 129.0891
896.0259, 130.9429
896.5080, 133.2401
896.9901, 136.6580
897.4722, 140.7812
897.9543, 144.4864
898.4365, 147.8942
898.9186, 151.8712
899.4007, 156.6378
899.8828, 162.0116
900.3649, 167.8488
900.8470, 174.1915
901.3292, 181.3190
901.8113, 189.2754
902.2934, 197.7115
902.7755, 206.5106
903.2576, 215.9494
903.7397, 225.9622
904.2219, 236.8020
904.7040, 248.9793
905.1861, 262.5523
905.6682, 276.6873
906.1503, 290.8914
906.6324, 306.2576
907.1146, 323.3074
907.5967, 341.4678
908.0788, 360.0211
908.5609, 379.3335
909.0430, 400.5399
909.5251, 424.3094
910.0073, 448.5953
910.4894, 471.9217
910.9715, 495.4442
911.4536, 520.3890
911.9357, 546.4677
912.4178, 573.1855
912.9000, 600.3521
913.3821, 627.2979
913.8642, 653.8850
914.3463, 679.3136
914.8284, 702.1508
915.3105, 722.4703
915.7927, 741.5283
916.2748, 759.2685
916.7569, 772.6516
917.2390, 780.0811
917.7211, 781.8135
918.2032, 777.9862
918.6854, 768.5142
919.1675, 756.5291
919.6496, 742.7740
920.1317, 724.2118
920.6138, 698.9041
921.0959, 669.8721
921.5781, 638.6848
922.0602, 605.8370
922.5423, 573.8367
923.0244, 543.0381
923.5065, 512.0671
923.9886, 479.5051
924.4708, 448.3039
924.9529, 419.7134
925.4350, 393.2275
925.9171, 368.3499
926.3992, 345.0906
926.8813, 323.4280
927.3635, 303.4169
927.8456, 284.9504
928.3277, 268.2565
928.8098, 252.8794
929.2919, 238.0854
929.7740, 224.1044
930.2562, 211.5025
930.7383, 200.5974
931.2204, 190.7918
931.7025, 181.8157
932.1846, 173.3631
932.6667, 164.7820
933.1489, 156.2556
933.6310, 148.7179
934.1132, 142.3327
934.5953, 136.3460
935.0774, 130.1928
935.5595, 124.0949
936.0416, 118.6545
936.5237, 113.8623
937.0059, 109.6253
937.4880, 106.0539
937.9701, 102.3168
938.4522, 97.94093
938.9343, 93.61243
939.4164, 90.19977
939.8986, 87.63357
940.3807, 84.63885
940.8628, 80.65792
941.3449, 77.37770
941.8270, 75.47429
942.3091, 73.69608
942.7913, 71.29805
943.2734, 68.65945
943.7555, 66.39931
944.2376, 64.59325
944.7197, 62.80630
945.2018, 60.87478
945.6840, 59.07420
946.1661, 57.57666
946.6482, 56.21131
947.1303, 54.74262
947.6124, 53.26354
948.0945, 52.13105
948.5767, 51.53376
949.0588, 50.91257
949.5409, 49.70979
950.0230, 48.48939
950.5051, 47.98438
950.9872, 47.81963
951.4694, 47.17576
951.9515, 45.95726
952.4336, 44.80164
952.9157, 44.19718
953.3978, 43.72310
953.8799, 42.57102
954.3621, 41.10948
954.8442, 40.46896
955.3263, 40.60522
955.8084, 40.58868
956.2905, 40.05041
956.7726, 39.24729
957.2548, 38.38277
957.7369, 37.56311
958.2190, 37.35966
958.7011, 37.81663
959.1832, 37.94445
959.6653, 37.56409
960.1475, 36.97015
960.6296, 36.23215
961.1117, 35.57825
961.5938, 35.48370
962.0759, 36.03993
962.5580, 36.25403
963.0402, 35.98887
963.5223, 35.66161
964.0044, 35.30669
964.4865, 34.97940
964.9686, 34.71439
965.4507, 34.51283
965.9329, 34.38946
966.4150, 34.41697
966.8971, 34.32621
967.3792, 34.09791
967.8613, 33.75055
968.3434, 33.19896
968.8256, 32.59835
969.3077, 32.11958
969.7898, 31.74059
970.2719, 31.28959
970.7540, 30.61187
971.2361, 30.08924
971.7183, 29.82751
972.2004, 29.82878
972.6825, 30.30213
973.1646, 30.94643
973.6467, 31.34288
974.1288, 31.39472
974.6110, 31.18060
975.0931, 30.62741
975.5752, 30.02687
976.0573, 29.65645
976.5394, 29.40566
977.0215, 29.11224
977.5037, 28.78020
977.9858, 28.45770
978.4679, 28.16874
978.9500, 27.99677
979.4321, 28.04133
979.9142, 28.23965
980.3964, 28.49592
980.8785, 28.79661
981.3606, 29.14512
981.8427, 29.51725
982.3248, 29.67438
982.8069, 29.47916
983.2891, 29.15876
983.7712, 29.05401
984.2533, 29.12753
984.7354, 29.10799
985.2175, 28.99455
985.6996, 28.80282
986.1818, 28.52267
986.6639, 28.26010
987.1460, 28.11150
987.6281, 27.98119
988.1102, 27.60802
988.5923, 26.91333
989.0745, 26.56702
989.5566, 26.64386
990.0387, 26.88366
990.5208, 27.39916
991.0029, 27.72318
991.4850, 27.34394
991.9672, 26.46503
992.4493, 25.87512
992.9314, 25.71592
993.4135, 25.51084
993.8956, 25.21685
994.3777, 24.93616
994.8599, 24.63969
995.3420, 24.41608
995.8241, 24.38061
996.3062, 24.50327
996.7883, 24.60474
997.2704, 24.70722
997.7526, 24.72297
998.2347, 24.56716
998.7168, 24.40429
999.1989, 24.38806
999.6810, 24.36592
1000.163, 24.09132
1000.645, 23.58619
1001.127, 23.19673
1001.609, 22.98104
1002.092, 22.96888
1002.574, 23.29908
1003.056, 23.71529
1003.538, 24.09267
1004.020, 24.37708
1004.502, 24.50664
1004.984, 24.47473
1005.466, 24.33595
1005.949, 24.03564
1006.431, 23.75740
1006.913, 23.59845
1007.395, 23.56316
1007.877, 23.70860
1008.359, 23.97330
1008.841, 24.27216
1009.323, 24.55743
1009.805, 24.64574
1010.288, 24.13544
1010.770, 23.66301
1011.252, 24.21329
1011.734, 25.26181
1012.216, 25.86187
1012.698, 25.99417
1013.180, 26.03435
1013.662, 26.14658
1014.145, 26.40089
1014.627, 27.00284
1015.109, 27.67911
1015.591, 27.74681
1016.073, 27.42341
1016.555, 27.46982
1017.037, 27.93493
1017.519, 28.31628
1018.001, 28.35818
1018.484, 28.33381
1018.966, 28.58365
1019.448, 29.06388
1019.930, 29.77398
1020.412, 30.63829
1020.894, 30.83437
1021.376, 30.23481
1021.858, 29.88112
1022.341, 30.38739
1022.823, 31.35167
1023.305, 32.18504
1023.787, 32.89217
1024.269, 33.54360
1024.751, 34.14532
1025.233, 34.62298
1025.715, 34.96407
1026.198, 35.14624
1026.680, 35.12077
1027.162, 35.02976
1027.644, 35.15609
1028.126, 35.50643
1028.608, 35.74220
1029.090, 35.79789
1029.572, 36.03956
1030.054, 36.53735
1030.536, 37.29581
1031.019, 38.45209
1031.501, 39.68668
1031.983, 40.26526
1032.465, 40.05259
1032.947, 40.26144
1033.429, 41.13689
1033.911, 41.77373
1034.393, 41.83045
1034.876, 41.86609
1035.358, 42.27566
1035.840, 42.94563
1036.322, 43.57520
1036.804, 44.06955
1037.286, 45.01854
1037.768, 46.80712
1038.250, 48.36007
1038.733, 49.46698
1039.215, 50.24024
1039.697, 50.45128
1040.179, 50.47945
1040.661, 51.35168
1041.143, 53.37952
1041.625, 55.09934
1042.107, 56.29601
1042.589, 57.48310
1043.072, 58.75582
1043.554, 60.05461
1044.036, 61.36853
1044.518, 62.66092
1045.000, 63.81219
1045.482, 64.73506
1045.964, 65.85310
1046.446, 67.49486
1046.928, 68.92509
1047.411, 69.83202
1047.893, 70.57931
1048.375, 71.46307
1048.857, 72.39519
1049.339, 73.14363
1049.821, 73.67632
1050.303, 74.08937
1050.785, 74.44463
1051.268, 74.61942
1051.750, 74.49339
1052.232, 74.24434
1052.714, 74.17342
1053.196, 74.04893
1053.678, 73.29485
1054.160, 71.74876
1054.642, 70.13680
1055.125, 68.57801
1055.607, 67.04595
1056.089, 65.68752
1056.571, 64.21848
1057.053, 62.39161
1057.535, 60.28209
1058.017, 58.02134
1058.499, 55.61603
1058.981, 53.30936
1059.464, 51.18113
1059.946, 49.17691
1060.428, 47.42844
1060.910, 45.64748
1061.392, 43.38522
1061.874, 40.95842
1062.356, 39.03263
1062.838, 37.74773
1063.320, 36.60591
1063.803, 35.59118
1064.285, 34.47282
1064.767, 32.94762
1065.249, 31.46281
1065.731, 30.50482
1066.213, 29.85046
1066.695, 29.01374
1067.177, 27.90221
1067.660, 26.79863
1068.142, 25.71795
1068.624, 24.79983
1069.106, 24.08964
1069.588, 23.59329
1070.070, 23.49748
1070.552, 23.54434
1071.034, 23.28390
1071.516, 22.64135
1071.999, 21.88996
1072.481, 20.95109
1072.963, 20.18136
1073.445, 19.81988
1073.927, 19.61911
1074.409, 19.37399
1074.891, 19.14358
1075.373, 19.09582
1075.855, 19.23030
1076.338, 19.29191
1076.820, 19.23642
1077.302, 18.99076
1077.784, 18.31820
1078.266, 17.64367
1078.748, 17.34099
1079.230, 17.23739
1079.712, 17.02545
1080.195, 16.69177
1080.677, 16.47525
1081.159, 16.45881
1081.641, 16.59024
1082.123, 17.11206
1082.605, 17.49523
1083.087, 17.22329
1083.569, 16.65262
1084.052, 16.22073
1084.534, 15.98866
1085.016, 15.87699
1085.498, 15.87637
1085.980, 15.94073
1086.462, 16.15767
1086.944, 16.31358
1087.426, 16.24090
1087.908, 16.04825
1088.391, 15.85307
1088.873, 15.66783
1089.355, 15.46508
1089.837, 15.22138
1090.319, 15.02863
1090.801, 14.92814
1091.283, 14.88233
1091.765, 14.94357
1092.248, 14.99072
1092.730, 14.80736
1093.212, 14.52074
1093.694, 14.56676
1094.176, 15.12742
1094.658, 15.34023
1095.140, 14.58015
1095.622, 13.81453
1096.104, 13.30440
1096.587, 13.13046
1097.069, 13.55530
1097.551, 14.29177
1098.033, 14.80283
1098.515, 14.99399
1098.997, 14.98809
1099.479, 14.63295
1099.961, 14.34352
1100.443, 14.26939
1100.926, 14.29842
1101.408, 14.48397
1101.890, 14.65364
1102.372, 14.50742
1102.854, 14.03124
1103.336, 13.59650
1103.818, 13.18899
1104.300, 12.97473
1104.783, 13.12423
1105.265, 13.32436
1105.747, 13.51506
1106.229, 13.58890
1106.711, 13.28450
1107.193, 12.68923
1107.675, 12.49119
1108.157, 13.10278
1108.640, 13.47988
1109.122, 13.30899
1109.604, 13.10874
1110.086, 13.08779
1110.568, 13.12471
1111.050, 13.12025
1111.532, 13.07083
1112.014, 12.97410
1112.496, 12.80520
1112.979, 12.65728
1113.461, 12.43901
1113.943, 12.37376
1114.425, 12.70513
1114.907, 13.01556
1115.389, 13.01944
1115.871, 12.78608
1116.353, 12.42192
1116.835, 11.85892
1117.318, 11.57050
1117.800, 11.62105
1118.282, 11.84261
1118.764, 12.39822
1119.246, 12.83646
1119.728, 12.89067
1120.210, 12.69778
1120.692, 12.43938
1121.175, 12.11666
1121.657, 11.82265
1122.139, 11.48961
1122.621, 11.40033
1123.103, 11.73649
1123.585, 11.90389
1124.067, 11.53657
1124.549, 11.12742
1125.031, 11.26573
1125.514, 11.80902
1125.996, 12.09450
1126.478, 12.09980
1126.960, 11.90644
1127.442, 11.41301
1127.924, 11.23183
1128.406, 11.61421
1128.888, 12.10937
1129.370, 12.40414
1129.853, 12.45819
1130.335, 12.03156
1130.817, 11.12598
1131.299, 11.20786
1131.781, 12.35093
1132.263, 12.77513
1132.745, 12.07968
1133.227, 11.46513
1133.710, 11.64514
1134.192, 12.09290
1134.674, 12.02937
1135.156, 11.60450
1135.638, 11.48026
1136.120, 11.59987
1136.602, 11.39459
1137.084, 10.86571
1137.567, 10.87080
1138.049, 11.72962
1138.531, 12.52487
1139.013, 12.34035
1139.495, 11.63852
1139.977, 11.25798
1140.459, 11.11621
1140.941, 10.95235
1141.423, 10.79747
1141.906, 10.88400
1142.388, 11.22982
1142.870, 11.56973
1143.352, 11.75744
1143.834, 11.74752
1144.316, 11.32224
1144.798, 10.79023
1145.280, 10.64907
1145.762, 10.75247
1146.245, 10.77604
1146.727, 10.71710
1147.209, 10.78304
1147.691, 11.05345
1148.173, 11.32531
1148.655, 11.52790
1149.137, 11.57566
1149.619, 11.14714
1150.102, 10.71989
1150.584, 10.99206
1151.066, 11.65917
1151.548, 12.08764
1152.030, 12.13295
1152.512, 11.87014
1152.994, 11.07846
1153.476, 10.50954
1153.958, 10.56499
1154.441, 10.92994
1154.923, 11.74128
1155.405, 12.49233
1155.887, 12.40851
1156.369, 11.72376
1156.851, 11.50788
1157.333, 12.12029
1157.815, 12.57883
1158.297, 12.68394
1158.780, 12.58934
1159.262, 12.12904
1159.744, 11.69902
1160.226, 11.58890
1160.708, 11.70093
1161.190, 11.89090
1161.672, 12.16936
1162.154, 12.25300
1162.637, 11.90769
1163.119, 11.81872
1163.601, 12.19613
1164.083, 12.56020
1164.565, 12.77708
1165.047, 12.79051
1165.529, 12.42102
1166.011, 11.85799
1166.494, 11.97202
1166.976, 13.03732
1167.458, 13.30027
1167.940, 12.54274
1168.422, 12.09723
1168.904, 12.33358
1169.386, 12.64154
1169.868, 12.59017
1170.350, 12.49790
1170.833, 12.98761
1171.315, 13.88272
1171.797, 14.08294
1172.279, 13.64570
1172.761, 13.18874
1173.243, 12.79291
1173.725, 12.41045
1174.207, 12.02966
1174.689, 11.95156
1175.172, 12.53945
1175.654, 13.31521
1176.136, 13.36172
1176.618, 13.01188
1177.100, 13.05531
1177.582, 13.37112
1178.064, 13.51214
1178.546, 13.41059
1179.029, 13.24392
1179.511, 13.09406
1179.993, 12.97760
1180.475, 12.78855
1180.957, 12.76343
1181.439, 13.41972
1181.921, 14.16295
1182.403, 14.17198
1182.885, 13.66720
1183.368, 13.23337
1183.850, 13.00554
1184.332, 12.83243
1184.814, 12.55164
1185.296, 12.49862
1185.778, 13.00039
1186.260, 13.55314
1186.742, 13.96141
1187.225, 14.17535
1187.707, 14.05903
1188.189, 13.71975
1188.671, 13.54375
1189.153, 13.65027
1189.635, 13.59402
1190.117, 13.16266
1190.599, 12.84373
1191.082, 12.68619
1191.564, 12.69555
1192.046, 12.94885
1192.528, 13.28904
1193.010, 13.51977
1193.492, 13.63984
1193.974, 13.62868
1194.456, 13.45741
1194.938, 13.31033
1195.421, 13.20309
1195.903, 13.07125
1196.385, 12.88945
1196.867, 12.70341
1197.349, 12.52120
1197.831, 12.47315
1198.313, 12.91211
1198.795, 13.67559
1199.277, 13.89759
1199.760, 13.69608
1200.242, 13.75206
1200.724, 14.07150
1201.206, 14.05592
1201.688, 13.50264
1202.170, 12.84502
1202.652, 12.37607
1203.134, 12.14576
1203.617, 12.33536
1204.099, 12.70997
1204.581, 13.14234
1205.063, 13.39945
1205.545, 12.85875
1206.027, 11.74967
1206.509, 11.13921
1206.991, 11.43940
1207.474, 11.89341
1207.956, 12.26805
1208.438, 12.47326
1208.920, 12.29096
1209.402, 12.09226
1209.884, 12.17911
1210.366, 12.43968
1210.848, 12.76641
1211.330, 13.11037
1211.813, 13.15471
1212.295, 12.60530
1212.777, 12.28699
1213.259, 12.42907
1213.741, 12.45434
1214.223, 12.13459
1214.705, 11.78347
1215.187, 11.57387
1215.669, 11.52637
1216.152, 11.70342
1216.634, 12.09009
1217.116, 12.47939
1217.598, 12.89589
1218.080, 12.93227
1218.562, 12.52725
1219.044, 12.17708
1219.526, 12.05268
1220.009, 12.08796
1220.491, 12.24859
1220.973, 12.43357
1221.455, 12.45422
1221.937, 12.36910
1222.419, 12.30294
1222.901, 12.26618
1223.383, 12.28564
1223.865, 12.35537
1224.348, 12.44856
1224.830, 12.55366
1225.312, 12.65826
1225.794, 12.79426
1226.276, 12.85055
1226.758, 12.61361
1227.240, 12.39104
1227.722, 12.50514
1228.204, 12.76990
1228.687, 13.01236
1229.169, 13.15525
1229.651, 12.99527
1230.133, 12.39276
1230.615, 12.10439
1231.097, 12.57773
1231.579, 12.90980
1232.061, 12.83652
1232.544, 12.70205
1233.026, 12.69130
1233.508, 12.65558
1233.990, 12.40287
1234.472, 11.99532
1234.954, 11.68669
1235.436, 11.47537
1235.918, 11.33822
1236.401, 11.25033
1236.883, 11.60901
1237.365, 12.52435
1237.847, 13.14931
1238.329, 13.02571
1238.811, 12.58861
1239.293, 12.28220
1239.775, 12.10619
1240.257, 12.12903
1240.740, 12.24782
1241.222, 12.15299
1241.704, 11.95643
1242.186, 12.05833
1242.668, 12.44921
1243.150, 12.74195
1243.632, 12.77279
1244.114, 12.63868
1244.596, 12.25785
1245.079, 11.91818
1245.561, 11.69773
1246.043, 11.70023
1246.525, 12.30621
1247.007, 13.01509
1247.489, 12.98660
1247.971, 12.29128
1248.453, 11.87735
1248.936, 12.00910
1249.418, 11.99614
1249.900, 11.73468
1250.382, 11.49411
1250.864, 11.20959
1251.346, 11.27099
1251.828, 12.08434
1252.310, 12.89366
1252.792, 12.58773
1253.275, 11.54213
1253.757, 11.43639
1254.239, 12.16373
1254.721, 12.28670
1255.203, 11.83615
1255.685, 11.65664
1256.167, 11.91490
1256.649, 12.28872
1257.131, 12.61354
1257.614, 12.82557
1258.096, 12.85682
1258.578, 12.75194
1259.060, 12.39787
1259.542, 12.07674
1260.024, 12.29672
1260.506, 12.73011
1260.988, 12.66851
1261.471, 12.19756
1261.953, 12.13093
1262.435, 12.79686
1262.917, 13.32447
1263.399, 13.37615
1263.881, 13.43594
1264.363, 13.76815
1264.845, 13.97005
1265.328, 13.80401
1265.810, 13.44832
1266.292, 13.09151
1266.774, 12.72171
1267.256, 12.21913
1267.738, 11.52013
1268.220, 11.48229
1268.702, 12.13352
1269.184, 12.50668
1269.667, 12.43484
1270.149, 12.37903
1270.631, 12.55122
1271.113, 12.83785
1271.595, 13.22491
1272.077, 13.42505
1272.559, 12.69148
1273.041, 11.74497
1273.523, 11.76431
1274.006, 12.33017
1274.488, 12.70942
1274.970, 12.81518
1275.452, 12.73036
1275.934, 12.47803
1276.416, 12.47905
1276.898, 13.31857
1277.380, 13.78161
1277.863, 13.14782
1278.345, 12.55482
1278.827, 12.63829
1279.309, 12.88643
1279.791, 12.84286
1280.273, 12.70426
1280.755, 12.95778
1281.237, 13.59478
1281.719, 13.84215
1282.202, 13.67550
1282.684, 13.43026
1283.166, 13.14023
1283.648, 12.93570
1284.130, 12.86073
1284.612, 12.98914
1285.094, 13.40051
1285.576, 13.77684
1286.059, 13.65955
1286.541, 13.31804
1287.023, 13.05947
1287.505, 12.89123
##END=



