##NAMES=Pyrope
##RRUFFID=R060448
##IDEAL CHEMISTRY=Mg_3_Al_2_(SiO_4_)_3_
##LOCALITY=India
##OWNER=RRUFF
##SOURCE=Gemological Institute of America
##DESCRIPTION=Deep red water worn pebble, variety rhodolite
##STATUS=The identification of this mineral has been confirmed by X-ray diffraction and chemical analysis
##URL=rruff.info/R060448
##MEASURED CHEMISTRY=(Mg_1.47_Fe_1.27_Ca_0.21_Mn_0.05_)_Î£=3_Al_2.00_(Si_1.00_O_4_)_3_
92.37695, 90.21294
92.85907, 90.17153
93.34119, 90.33710
93.82330, 89.98940
94.30542, 88.97562
94.78754, 87.40039
95.26965, 85.46319
95.75177, 83.32666
96.23389, 80.86925
96.71600, 78.44675
97.19812, 76.41535
97.68024, 74.83799
98.16235, 73.59212
98.64447, 72.60868
99.12659, 72.07228
99.60870, 71.11364
100.0908, 69.52396
100.5729, 67.75600
101.0551, 66.17508
101.5372, 64.93057
102.0193, 63.99363
102.5014, 63.31417
102.9835, 62.97017
103.4656, 62.80990
103.9478, 63.01167
104.4299, 63.37987
104.9120, 63.56803
105.3941, 63.28654
105.8762, 62.47631
106.3583, 61.72611
106.8405, 60.92578
107.3226, 60.23234
107.8047, 59.78479
108.2868, 59.58010
108.7689, 59.44215
109.2510, 59.18395
109.7332, 58.79578
110.2153, 58.38657
110.6974, 57.95160
111.1795, 57.50700
111.6616, 57.02502
112.1437, 56.42296
112.6259, 55.97029
113.1080, 56.00513
113.5901, 56.48542
114.0722, 57.02386
114.5543, 57.43822
115.0364, 57.72859
115.5185, 57.85040
116.0007, 57.58975
116.4828, 57.30141
116.9649, 57.19395
117.4470, 57.29945
117.9291, 57.53097
118.4112, 57.77227
118.8934, 57.98822
119.3755, 58.30742
119.8576, 59.03471
120.3397, 59.70489
120.8218, 59.89043
121.3039, 59.42419
121.7861, 58.53395
122.2682, 57.87298
122.7503, 57.49249
123.2324, 57.33879
123.7145, 57.68393
124.1966, 58.21215
124.6788, 58.43970
125.1609, 58.05303
125.6430, 57.15001
126.1251, 56.59478
126.6072, 56.50695
127.0893, 56.54564
127.5715, 56.63643
128.0536, 56.75734
128.5357, 56.82213
129.0178, 56.70729
129.4999, 56.47701
129.9821, 56.47755
130.4642, 57.07432
130.9463, 57.72249
131.4284, 57.71977
131.9105, 56.89058
132.3926, 56.12357
132.8748, 56.30483
133.3569, 57.03450
133.8390, 57.62141
134.3211, 57.59243
134.8032, 57.16523
135.2853, 57.12067
135.7674, 57.71046
136.2496, 58.37379
136.7317, 58.89495
137.2138, 59.26635
137.6959, 59.48354
138.1780, 59.49311
138.6601, 59.26627
139.1423, 59.13912
139.6244, 59.09953
140.1065, 59.17579
140.5886, 59.45042
141.0707, 59.88561
141.5528, 60.34966
142.0350, 60.69897
142.5171, 60.94872
142.9992, 61.00745
143.4813, 60.64083
143.9634, 60.27715
144.4455, 60.32170
144.9277, 60.83339
145.4098, 61.40602
145.8919, 61.34445
146.3740, 60.05079
146.8561, 59.21338
147.3382, 59.20723
147.8204, 59.59030
148.3025, 59.77028
148.7846, 59.50001
149.2667, 59.09493
149.7488, 59.37460
150.2309, 60.67607
150.7131, 61.46556
151.1952, 60.71001
151.6773, 58.89212
152.1594, 57.58920
152.6415, 57.57093
153.1236, 58.21390
153.6058, 58.44944
154.0879, 58.18276
154.5700, 57.79785
155.0521, 57.57161
155.5342, 57.50758
156.0163, 57.52587
156.4985, 57.72508
156.9806, 57.93054
157.4627, 57.97010
157.9448, 57.77888
158.4269, 57.51842
158.9090, 57.47839
159.3912, 57.83054
159.8733, 57.95708
160.3554, 57.52618
160.8375, 56.91726
161.3196, 56.45866
161.8017, 56.29887
162.2839, 56.34651
162.7660, 56.34131
163.2481, 56.33659
163.7302, 56.18597
164.2123, 55.72141
164.6944, 55.14880
165.1766, 54.70807
165.6587, 54.53221
166.1408, 54.60119
166.6229, 54.78998
167.1050, 55.42316
167.5871, 55.82624
168.0693, 55.70185
168.5514, 55.24380
169.0335, 54.80017
169.5156, 54.57109
169.9977, 54.57129
170.4798, 54.94445
170.9620, 55.95302
171.4441, 56.99901
171.9262, 57.77835
172.4083, 58.33392
172.8904, 58.91687
173.3725, 59.69585
173.8547, 60.67731
174.3368, 61.72761
174.8189, 63.05781
175.3010, 64.31887
175.7831, 65.20857
176.2652, 65.71281
176.7474, 66.03604
177.2295, 66.27586
177.7116, 66.44151
178.1937, 66.54259
178.6758, 66.63454
179.1579, 66.64392
179.6401, 66.43075
180.1222, 65.93731
180.6043, 65.38790
181.0864, 64.98398
181.5685, 64.62112
182.0506, 64.11572
182.5328, 63.31939
183.0149, 62.32787
183.4970, 61.42133
183.9791, 60.59101
184.4612, 59.88422
184.9433, 59.44972
185.4255, 59.12573
185.9076, 58.58330
186.3897, 57.42677
186.8718, 55.78028
187.3539, 55.05573
187.8360, 56.34438
188.3182, 57.46520
188.8003, 57.67650
189.2824, 57.22679
189.7645, 56.68076
190.2466, 56.46423
190.7287, 56.58519
191.2109, 56.83445
191.6930, 57.44704
192.1751, 57.96393
192.6572, 58.15421
193.1393, 58.10204
193.6214, 58.03422
194.1036, 58.12664
194.5857, 58.36300
195.0678, 58.94424
195.5499, 60.20086
196.0320, 61.42230
196.5141, 62.23347
196.9963, 62.66607
197.4784, 63.00754
197.9605, 63.51768
198.4426, 64.22678
198.9247, 64.89156
199.4068, 65.39944
199.8890, 65.95029
200.3711, 66.68312
200.8532, 67.60692
201.3353, 68.64446
201.8174, 69.81612
202.2995, 71.11853
202.7817, 72.01902
203.2638, 72.10658
203.7459, 72.00889
204.2280, 72.42744
204.7101, 73.46580
205.1922, 74.42922
205.6744, 74.44978
206.1565, 73.76734
206.6386, 73.55611
207.1207, 74.47275
207.6028, 75.82527
208.0849, 76.64521
208.5671, 76.78313
209.0492, 76.71666
209.5313, 76.93311
210.0134, 77.25220
210.4955, 77.22784
210.9776, 76.46684
211.4598, 75.27780
211.9419, 74.36799
212.4240, 73.87710
212.9061, 73.40047
213.3882, 72.80021
213.8703, 72.04520
214.3525, 71.03577
214.8346, 69.57151
215.3167, 67.81432
215.7988, 66.39184
216.2809, 65.43307
216.7630, 64.63540
217.2451, 63.91867
217.7273, 63.24027
218.2094, 62.51449
218.6915, 61.64808
219.1736, 60.69008
219.6557, 59.96694
220.1378, 59.76452
220.6200, 59.45372
221.1021, 58.71445
221.5842, 57.75941
222.0663, 56.95467
222.5484, 56.58465
223.0305, 56.58281
223.5127, 56.30201
223.9948, 55.44623
224.4769, 54.60211
224.9590, 53.68287
225.4411, 52.87685
225.9232, 52.52077
226.4054, 52.88979
226.8875, 53.89502
227.3696, 54.50738
227.8517, 54.60453
228.3338, 54.41204
228.8159, 53.73914
229.2981, 52.81897
229.7802, 52.02808
230.2623, 51.60770
230.7444, 51.53288
231.2265, 51.53819
231.7086, 51.61673
232.1908, 51.77333
232.6729, 52.23260
233.1550, 52.76656
233.6371, 52.86511
234.1192, 52.14291
234.6013, 50.78528
235.0835, 50.22058
235.5656, 50.98217
236.0477, 51.77732
236.5298, 52.17089
237.0119, 52.30821
237.4940, 52.59964
237.9762, 53.34261
238.4583, 54.34153
238.9404, 54.65989
239.4225, 53.77009
239.9046, 52.93038
240.3867, 52.63073
240.8689, 52.71103
241.3510, 52.79282
241.8331, 52.70580
242.3152, 52.47655
242.7973, 52.18070
243.2794, 51.71948
243.7616, 51.35494
244.2437, 51.20152
244.7258, 51.23607
245.2079, 51.39708
245.6900, 51.67570
246.1721, 52.05500
246.6543, 52.55170
247.1364, 53.31004
247.6185, 53.80886
248.1006, 53.55022
248.5827, 52.75891
249.0648, 52.25819
249.5470, 52.40186
250.0291, 52.88066
250.5112, 53.25313
250.9933, 53.53625
251.4754, 53.66001
251.9576, 53.41656
252.4397, 52.92739
252.9218, 52.80155
253.4039, 53.51471
253.8860, 54.22631
254.3681, 53.87545
254.8503, 52.46624
255.3324, 51.22543
255.8145, 51.08235
256.2966, 51.82044
256.7787, 52.33718
257.2608, 52.38937
257.7430, 52.23104
258.2251, 51.97521
258.7072, 51.66381
259.1893, 51.57653
259.6714, 52.01283
260.1535, 52.87276
260.6357, 53.63755
261.1178, 54.39709
261.5999, 54.83091
262.0820, 54.66604
262.5641, 54.04449
263.0462, 53.40252
263.5284, 53.00215
264.0105, 52.81569
264.4926, 52.66978
264.9747, 52.55812
265.4568, 52.50505
265.9389, 52.56364
266.4211, 52.68005
266.9032, 52.72990
267.3853, 52.54646
267.8674, 52.24268
268.3495, 52.37981
268.8316, 53.41728
269.3138, 54.19056
269.7959, 54.16500
270.2780, 53.66234
270.7601, 53.13048
271.2422, 52.76271
271.7243, 52.57307
272.2065, 52.64750
272.6886, 53.17953
273.1707, 53.65551
273.6528, 54.05334
274.1349, 54.28983
274.6170, 54.20131
275.0992, 53.68037
275.5813, 52.95163
276.0634, 52.58371
276.5455, 52.72981
277.0276, 52.97448
277.5097, 53.25494
277.9919, 53.56872
278.4740, 53.97610
278.9561, 54.49704
279.4382, 54.96228
279.9203, 54.98887
280.4024, 54.20545
280.8846, 53.78215
281.3667, 53.93098
281.8488, 54.35577
282.3309, 54.96494
282.8130, 55.68991
283.2951, 56.32344
283.7773, 56.51947
284.2594, 56.06455
284.7415, 55.69099
285.2236, 55.38842
285.7057, 55.17945
286.1878, 55.10299
286.6700, 55.14994
287.1521, 55.25946
287.6342, 55.36963
288.1163, 55.48444
288.5984, 55.57970
289.0805, 55.83748
289.5627, 55.92009
290.0448, 55.44691
290.5269, 54.58693
291.0090, 53.92371
291.4911, 54.04662
291.9732, 55.04130
292.4554, 55.71979
292.9375, 55.76402
293.4196, 55.81603
293.9017, 56.13837
294.3838, 56.63549
294.8659, 57.04803
295.3481, 57.16922
295.8302, 57.03621
296.3123, 57.14581
296.7944, 57.72115
297.2765, 58.31557
297.7586, 58.93584
298.2408, 59.50389
298.7229, 59.91889
299.2050, 60.12455
299.6871, 60.13573
300.1692, 59.99221
300.6513, 59.07382
301.1335, 58.79065
301.6156, 59.72606
302.0977, 61.15977
302.5798, 62.40141
303.0619, 63.16391
303.5440, 63.49413
304.0262, 63.45186
304.5083, 62.46316
304.9904, 61.98181
305.4725, 62.18105
305.9546, 62.75119
306.4367, 63.56489
306.9189, 64.54013
307.4010, 65.49505
307.8831, 66.15716
308.3652, 66.36812
308.8473, 66.68698
309.3294, 66.93823
309.8116, 67.41253
310.2937, 68.38905
310.7758, 69.81252
311.2579, 71.36271
311.7400, 72.73144
312.2221, 73.92949
312.7043, 74.92049
313.1864, 75.47960
313.6685, 76.08720
314.1506, 76.95921
314.6327, 78.04405
315.1148, 79.20602
315.5970, 80.36800
316.0791, 81.51089
316.5612, 82.35709
317.0433, 82.75827
317.5254, 83.03309
318.0075, 83.24751
318.4897, 83.37326
318.9718, 83.32239
319.4539, 83.04170
319.9360, 82.62987
320.4181, 82.39461
320.9002, 82.15304
321.3824, 82.37746
321.8645, 83.50828
322.3466, 84.90290
322.8287, 85.89610
323.3108, 86.27390
323.7929, 86.37389
324.2751, 86.72671
324.7572, 87.14593
325.2393, 88.26817
325.7214, 90.67207
326.2035, 93.25708
326.6856, 95.21347
327.1678, 96.49162
327.6499, 97.64456
328.1320, 99.25488
328.6141, 101.3524
329.0962, 103.8238
329.5783, 107.0498
330.0605, 110.2374
330.5426, 112.9294
331.0247, 115.2864
331.5068, 117.7459
331.9889, 120.6406
332.4710, 123.9513
332.9532, 127.3622
333.4353, 131.1244
333.9174, 134.7472
334.3995, 137.8380
334.8816, 140.7937
335.3637, 144.2836
335.8459, 148.6424
336.3280, 153.4842
336.8101, 157.5075
337.2922, 159.9772
337.7743, 162.7085
338.2564, 165.9812
338.7386, 169.4885
339.2206, 172.9907
339.7028, 176.4199
340.1849, 179.7532
340.6670, 182.9046
341.1491, 185.6144
341.6312, 188.7920
342.1133, 192.4797
342.5955, 196.5086
343.0776, 200.7625
343.5597, 205.2602
344.0418, 210.1267
344.5239, 215.5088
345.0060, 221.4273
345.4882, 227.4915
345.9703, 233.2976
346.4524, 239.6974
346.9345, 247.0180
347.4166, 255.1039
347.8987, 263.7324
348.3809, 272.7836
348.8630, 282.1698
349.3451, 291.3376
349.8272, 300.2610
350.3093, 309.1306
350.7914, 318.1770
351.2736, 327.1153
351.7557, 335.8844
352.2378, 344.4731
352.7199, 352.1613
353.2020, 357.7672
353.6841, 361.2156
354.1663, 362.6982
354.6484, 362.5695
355.1305, 360.3096
355.6126, 355.1872
356.0947, 347.3277
356.5768, 337.7517
357.0590, 326.9623
357.5411, 314.9582
358.0232, 303.4698
358.5053, 293.1909
358.9874, 282.6962
359.4695, 271.1061
359.9517, 258.9089
360.4338, 247.1302
360.9159, 236.2619
361.3980, 226.3090
361.8801, 217.1538
362.3622, 208.9170
362.8444, 201.3585
363.3265, 194.1963
363.8086, 187.6724
364.2907, 182.1314
364.7728, 177.6932
365.2549, 174.0075
365.7371, 170.7369
366.2192, 167.9051
366.7013, 165.1458
367.1834, 162.4173
367.6655, 159.7032
368.1476, 156.7686
368.6298, 153.6604
369.1119, 151.1277
369.5940, 150.1976
370.0761, 150.4489
370.5582, 149.8064
371.0403, 147.7821
371.5225, 145.4164
372.0046, 143.4532
372.4867, 141.7173
372.9688, 139.7650
373.4509, 137.3354
373.9330, 134.6662
374.4152, 132.1542
374.8973, 129.8475
375.3794, 127.3642
375.8615, 124.4418
376.3436, 121.2650
376.8257, 118.1126
377.3079, 115.0206
377.7900, 111.9077
378.2721, 108.6383
378.7542, 105.2717
379.2363, 102.0846
379.7184, 99.16918
380.2006, 96.40986
380.6827, 93.68481
381.1648, 91.00782
381.6469, 88.26015
382.1290, 85.21925
382.6111, 82.14574
383.0933, 79.44011
383.5754, 77.14568
384.0575, 75.03500
384.5396, 72.92197
385.0217, 70.83152
385.5038, 68.82278
385.9860, 66.89317
386.4681, 65.06108
386.9502, 63.24915
387.4323, 61.53015
387.9144, 60.18852
388.3965, 59.46101
388.8787, 59.04529
389.3608, 58.11400
389.8429, 56.45271
390.3250, 54.82980
390.8071, 53.28007
391.2892, 51.90297
391.7714, 50.90186
392.2535, 50.30862
392.7356, 49.81970
393.2177, 49.08213
393.6998, 48.02825
394.1819, 47.02580
394.6641, 45.75877
395.1462, 44.81249
395.6283, 44.82007
396.1104, 45.48426
396.5925, 45.92741
397.0746, 45.57164
397.5568, 44.53886
398.0389, 43.48093
398.5210, 41.74059
399.0031, 40.79982
399.4852, 41.79871
399.9673, 43.23691
400.4495, 43.23793
400.9316, 41.29274
401.4137, 38.70937
401.8958, 37.55472
402.3779, 38.54050
402.8600, 39.04291
403.3422, 38.82129
403.8243, 38.40612
404.3064, 37.96871
404.7885, 37.56521
405.2706, 37.23452
405.7527, 37.00834
406.2349, 36.88144
406.7170, 36.85120
407.1991, 37.19011
407.6812, 37.21358
408.1633, 36.49916
408.6454, 35.53204
409.1276, 34.84373
409.6097, 34.62884
410.0918, 34.69576
410.5739, 34.81581
411.0560, 35.02080
411.5381, 35.10646
412.0203, 34.98921
412.5024, 34.77898
412.9845, 34.49872
413.4666, 34.16993
413.9487, 33.85819
414.4308, 33.61691
414.9130, 33.43106
415.3951, 33.23428
415.8772, 33.00079
416.3593, 32.82056
416.8414, 32.80049
417.3235, 32.84718
417.8057, 32.83593
418.2878, 32.72816
418.7699, 32.57154
419.2520, 32.38286
419.7341, 32.17015
420.2162, 32.02443
420.6984, 32.01851
421.1805, 32.03143
421.6626, 31.83894
422.1447, 31.43133
422.6268, 31.22977
423.1089, 31.76272
423.5911, 32.42421
424.0732, 32.19381
424.5553, 30.95555
425.0374, 29.78239
425.5195, 29.53543
426.0016, 30.09928
426.4838, 30.42953
426.9659, 30.35093
427.4480, 30.23226
427.9301, 30.30125
428.4122, 30.44657
428.8943, 30.35836
429.3765, 29.88882
429.8586, 29.36068
430.3407, 29.36877
430.8228, 30.32971
431.3049, 30.92477
431.7870, 30.90949
432.2692, 30.70021
432.7513, 30.56375
433.2334, 30.52706
433.7155, 30.50750
434.1976, 30.43782
434.6797, 30.32324
435.1619, 30.23922
435.6440, 30.04575
436.1261, 30.05191
436.6082, 30.52448
437.0903, 31.13348
437.5724, 31.52523
438.0546, 31.56973
438.5367, 31.34454
439.0188, 30.86728
439.5009, 29.90033
439.9830, 29.45693
440.4651, 30.23046
440.9473, 30.93457
441.4294, 30.85647
441.9115, 30.18830
442.3936, 29.57406
442.8757, 29.43632
443.3578, 29.67136
443.8400, 29.98458
444.3221, 30.48311
444.8042, 30.79148
445.2863, 30.51662
445.7684, 30.12856
446.2505, 30.13650
446.7327, 30.67095
447.2148, 31.18259
447.6969, 31.13501
448.1790, 30.62119
448.6611, 30.13122
449.1432, 29.69199
449.6254, 29.38338
450.1075, 29.40190
450.5896, 29.62903
451.0717, 29.68549
451.5538, 29.17483
452.0359, 28.66363
452.5181, 28.77470
453.0002, 29.43402
453.4823, 30.15339
453.9644, 30.79099
454.4465, 31.26214
454.9286, 31.28019
455.4108, 30.63940
455.8929, 30.24918
456.3750, 30.52998
456.8571, 31.04839
457.3392, 31.31773
457.8214, 31.27880
458.3035, 31.19802
458.7856, 31.32750
459.2677, 31.67174
459.7498, 31.82202
460.2319, 31.59078
460.7141, 31.41433
461.1962, 31.39355
461.6783, 31.50919
462.1604, 31.78926
462.6425, 32.23343
463.1246, 32.66777
463.6068, 32.74247
464.0889, 32.18692
464.5710, 31.99443
465.0531, 32.60494
465.5352, 33.14766
466.0173, 33.14451
466.4995, 32.71764
466.9816, 32.24770
467.4637, 31.93971
467.9458, 31.81451
468.4279, 31.95712
468.9100, 32.43816
469.3922, 33.00863
469.8743, 33.73792
470.3564, 34.44320
470.8385, 34.97780
471.3206, 35.31932
471.8027, 35.52147
472.2849, 35.54964
472.7670, 35.46116
473.2491, 35.46264
473.7312, 35.56264
474.2133, 35.78155
474.6954, 36.18963
475.1776, 36.72834
475.6597, 37.26114
476.1418, 37.69495
476.6239, 38.20255
477.1060, 39.03492
477.5881, 40.04780
478.0703, 40.77602
478.5524, 41.00908
479.0345, 41.09270
479.5166, 41.51957
479.9987, 42.35992
480.4808, 43.25512
480.9630, 44.26841
481.4451, 45.26210
481.9272, 46.20247
482.4093, 47.04459
482.8914, 47.69196
483.3735, 48.09052
483.8557, 48.24982
484.3378, 48.20194
484.8199, 47.76969
485.3020, 47.37133
485.7841, 47.14967
486.2662, 46.87689
486.7484, 46.31010
487.2305, 45.46888
487.7126, 44.61600
488.1947, 43.97367
488.6768, 43.53438
489.1589, 43.18394
489.6411, 43.02281
490.1232, 42.78726
490.6053, 42.20001
491.0874, 41.59083
491.5695, 41.32771
492.0516, 41.51410
492.5338, 42.02136
493.0159, 42.92660
493.4980, 44.14893
493.9801, 44.87119
494.4622, 44.78859
494.9443, 44.54470
495.4265, 44.48198
495.9086, 44.65078
496.3907, 45.29477
496.8728, 46.72604
497.3549, 48.43174
497.8370, 49.95158
498.3192, 51.36804
498.8013, 53.01387
499.2834, 55.03431
499.7655, 57.27354
500.2476, 59.49329
500.7297, 61.65051
501.2119, 63.95875
501.6940, 66.80377
502.1761, 69.49741
502.6582, 71.50549
503.1403, 72.91808
503.6224, 74.28780
504.1045, 76.02831
504.5866, 77.75647
505.0688, 78.07243
505.5509, 76.10580
506.0330, 74.00903
506.5151, 71.95715
506.9972, 69.79655
507.4793, 67.30594
507.9615, 64.54516
508.4436, 61.85189
508.9257, 59.54211
509.4078, 57.53592
509.8899, 55.38921
510.3720, 52.90232
510.8542, 50.70331
511.3363, 49.12597
511.8184, 47.89199
512.3005, 46.75829
512.7827, 45.67809
513.2648, 44.71740
513.7469, 43.90638
514.2290, 43.25061
514.7111, 42.78923
515.1932, 42.55705
515.6754, 42.37450
516.1575, 42.09927
516.6396, 41.75893
517.1217, 41.48255
517.6038, 41.10869
518.0859, 40.99327
518.5681, 41.68731
519.0502, 42.64808
519.5323, 42.82233
520.0144, 41.92662
520.4965, 40.71898
520.9786, 40.08424
521.4608, 40.06026
521.9429, 40.42113
522.4250, 41.73311
522.9071, 42.75748
523.3892, 42.83665
523.8713, 42.40208
524.3535, 42.18397
524.8356, 42.47825
525.3177, 42.88155
525.7998, 42.58996
526.2819, 41.34558
526.7640, 40.71307
527.2462, 41.31319
527.7283, 42.00912
528.2104, 42.24194
528.6925, 42.14744
529.1746, 42.09328
529.6567, 42.29169
530.1389, 42.51136
530.6210, 42.32835
531.1031, 41.77930
531.5852, 41.51717
532.0673, 41.76417
532.5494, 42.31268
533.0316, 43.00270
533.5137, 43.81978
533.9958, 44.54839
534.4779, 45.05205
534.9600, 45.52684
535.4421, 46.21626
535.9243, 47.02764
536.4064, 47.55219
536.8885, 47.53519
537.3706, 47.41831
537.8527, 48.17725
538.3348, 50.61729
538.8170, 52.33507
539.2991, 52.63298
539.7812, 52.88633
540.2633, 53.93479
540.7454, 55.63404
541.2275, 57.41349
541.7097, 58.93370
542.1918, 60.28773
542.6739, 61.65966
543.1560, 62.95329
543.6381, 64.60506
544.1202, 67.31305
544.6024, 69.89700
545.0845, 71.34762
545.5666, 71.87441
546.0487, 72.68700
546.5308, 74.47208
547.0129, 76.91238
547.4951, 79.60119
547.9772, 82.53732
548.4593, 85.50047
548.9414, 88.41111
549.4235, 91.26859
549.9056, 93.89204
550.3878, 96.08032
550.8699, 99.03183
551.3520, 103.2722
551.8341, 108.1091
552.3162, 113.0837
552.7983, 118.1419
553.2805, 123.3421
553.7626, 128.7647
554.2447, 134.2767
554.7268, 139.5482
555.2089, 144.7768
555.6910, 149.3535
556.1732, 153.3862
556.6553, 156.7697
557.1374, 159.5818
557.6195, 161.7248
558.1016, 162.9938
558.5837, 163.3929
559.0659, 162.6671
559.5480, 160.1087
560.0301, 155.5948
560.5122, 149.9642
560.9943, 142.8237
561.4764, 135.2341
561.9586, 128.3015
562.4407, 121.9954
562.9228, 115.5657
563.4049, 108.4710
563.8870, 101.2982
564.3691, 94.54292
564.8513, 88.26925
565.3334, 82.70711
565.8155, 77.99671
566.2976, 73.95826
566.7797, 70.26046
567.2618, 67.10697
567.7440, 63.86269
568.2261, 60.14671
568.7082, 56.71390
569.1903, 53.98576
569.6724, 51.90139
570.1545, 50.24206
570.6367, 48.92113
571.1188, 47.78730
571.6009, 46.52829
572.0830, 45.08004
572.5651, 43.70547
573.0472, 42.33083
573.5294, 41.15120
574.0115, 40.29797
574.4936, 39.71663
574.9757, 39.27763
575.4578, 39.03723
575.9399, 38.76574
576.4221, 38.10197
576.9042, 37.13128
577.3863, 36.32844
577.8684, 35.83079
578.3505, 35.54404
578.8326, 35.41810
579.3148, 35.47015
579.7969, 35.38937
580.2790, 35.06956
580.7611, 34.71853
581.2432, 34.37548
581.7253, 34.08597
582.2075, 33.92976
582.6896, 33.93097
583.1717, 34.00051
583.6538, 33.99990
584.1359, 33.89750
584.6180, 33.95450
585.1002, 34.31664
585.5823, 34.67141
586.0643, 34.94847
586.5464, 35.15022
587.0286, 35.29647
587.5107, 35.39722
587.9928, 35.39225
588.4749, 35.07531
588.9570, 34.58333
589.4391, 34.56388
589.9213, 35.21188
590.4034, 35.73111
590.8855, 35.51223
591.3676, 34.73561
591.8497, 34.16142
592.3318, 34.02887
592.8140, 33.68469
593.2961, 32.65448
593.7782, 31.46073
594.2603, 30.67471
594.7424, 30.36555
595.2245, 30.34550
595.7067, 30.51083
596.1888, 30.79764
596.6709, 30.83904
597.1530, 30.58059
597.6351, 30.15618
598.1172, 29.31049
598.5994, 28.53959
599.0815, 28.23293
599.5636, 28.37003
600.0457, 28.66300
600.5278, 29.04871
601.0099, 29.39147
601.4921, 29.32563
601.9742, 28.84299
602.4563, 28.56675
602.9384, 28.74901
603.4205, 29.18294
603.9026, 29.65431
604.3848, 30.17914
604.8669, 30.51898
605.3490, 30.52786
605.8311, 30.45179
606.3132, 30.39581
606.7953, 30.38561
607.2775, 30.50082
607.7596, 30.76719
608.2417, 31.00426
608.7238, 30.85979
609.2059, 30.16209
609.6880, 29.94873
610.1702, 30.77625
610.6523, 31.46168
611.1344, 31.61593
611.6165, 31.40515
612.0986, 31.05043
612.5807, 30.60963
613.0629, 30.10096
613.5450, 29.35261
614.0271, 28.54789
614.5092, 28.44202
614.9913, 29.22544
615.4734, 29.82596
615.9556, 29.44941
616.4377, 28.40078
616.9198, 27.75900
617.4019, 27.68323
617.8840, 27.65413
618.3661, 27.52611
618.8483, 27.43033
619.3304, 27.51252
619.8125, 27.74994
620.2946, 28.02789
620.7767, 28.28528
621.2589, 28.47963
621.7410, 28.43845
622.2231, 28.01857
622.7052, 27.78664
623.1873, 27.82971
623.6694, 28.08114
624.1516, 28.65707
624.6337, 29.42089
625.1158, 29.97822
625.5979, 30.05187
626.0800, 30.03614
626.5621, 30.29293
627.0443, 30.78878
627.5264, 31.48095
628.0085, 32.39821
628.4906, 33.19364
628.9727, 33.45550
629.4548, 33.18006
629.9370, 33.33236
630.4191, 34.02184
630.9012, 34.92686
631.3833, 36.15597
631.8654, 37.46654
632.3475, 38.64256
632.8297, 39.63906
633.3118, 40.49387
633.7939, 41.17252
634.2760, 41.76123
634.7581, 42.63845
635.2402, 43.88915
635.7224, 45.09306
636.2045, 46.04541
636.6866, 46.95802
637.1687, 48.11240
637.6508, 49.48380
638.1329, 50.66036
638.6151, 51.80500
639.0972, 52.45567
639.5793, 51.99030
640.0614, 50.72347
640.5435, 49.45911
641.0256, 48.48616
641.5078, 47.58343
641.9899, 46.46367
642.4720, 45.10546
642.9541, 43.70388
643.4362, 41.98940
643.9183, 40.55765
644.4005, 39.81674
644.8826, 39.28566
645.3647, 38.40924
645.8468, 37.09060
646.3289, 35.68793
646.8110, 34.42467
647.2932, 33.31808
647.7753, 32.44796
648.2574, 31.82509
648.7395, 31.28683
649.2216, 30.77484
649.7037, 30.29092
650.1859, 29.83543
650.6680, 29.39240
651.1501, 29.03629
651.6322, 28.89583
652.1143, 28.72146
652.5964, 28.33922
653.0786, 27.82491
653.5607, 27.31089
654.0428, 26.85203
654.5249, 26.46035
655.0070, 26.18262
655.4891, 26.02529
655.9713, 25.79223
656.4534, 25.42553
656.9355, 25.09604
657.4176, 24.82644
657.8997, 24.66884
658.3818, 24.79165
658.8640, 25.28393
659.3461, 25.50816
659.8282, 24.79102
660.3103, 23.91361
660.7924, 23.95856
661.2745, 24.73507
661.7567, 25.12956
662.2388, 24.56392
662.7209, 23.57465
663.2030, 23.20909
663.6851, 23.74677
664.1672, 23.98860
664.6494, 23.67775
665.1315, 23.34502
665.6136, 23.15169
666.0957, 23.04889
666.5778, 22.97308
667.0599, 22.90876
667.5421, 22.80858
668.0242, 22.55560
668.5063, 22.25049
668.9884, 22.18616
669.4705, 22.38446
669.9526, 22.54321
670.4348, 22.49353
670.9169, 22.31601
671.3990, 22.18598
671.8811, 22.13773
672.3632, 22.05085
672.8453, 21.72535
673.3275, 21.55719
673.8096, 21.98945
674.2917, 22.67129
674.7738, 22.92984
675.2559, 22.50890
675.7380, 21.91549
676.2202, 21.83833
676.7023, 22.21208
677.1844, 22.33713
677.6665, 22.10388
678.1486, 21.91456
678.6307, 22.01772
679.1129, 22.26714
679.5950, 22.38858
680.0771, 22.36979
680.5592, 22.29004
681.0413, 22.15804
681.5234, 21.98141
682.0056, 21.74330
682.4877, 21.46749
682.9698, 21.16691
683.4519, 20.85103
683.9340, 20.63792
684.4161, 20.78572
684.8983, 21.35297
685.3804, 21.56164
685.8625, 21.24417
686.3446, 20.85899
686.8267, 20.53442
687.3088, 20.28416
687.7910, 20.12285
688.2731, 20.05160
688.7552, 20.08392
689.2373, 20.24677
689.7194, 20.50118
690.2015, 20.91090
690.6837, 21.38518
691.1658, 21.63422
691.6479, 21.53531
692.1300, 21.20441
692.6121, 20.74091
693.0942, 20.05732
693.5764, 19.91187
694.0585, 20.89797
694.5406, 21.62750
695.0227, 21.61736
695.5048, 21.23103
695.9869, 20.77147
696.4691, 20.30239
696.9512, 19.97219
697.4333, 19.91399
697.9154, 20.01436
698.3975, 20.13614
698.8796, 20.27889
699.3618, 20.51887
699.8439, 20.90830
700.3260, 21.18122
700.8081, 20.91852
701.2902, 20.01921
701.7723, 19.54434
702.2545, 19.84142
702.7366, 20.15296
703.2187, 20.37183
703.7008, 20.51926
704.1829, 20.57384
704.6650, 20.56280
705.1472, 20.63941
705.6293, 21.02103
706.1114, 21.46487
706.5935, 21.53021
707.0756, 21.27324
707.5577, 21.05121
708.0399, 20.96187
708.5220, 20.97331
709.0041, 21.08113
709.4862, 21.28592
709.9683, 21.35104
710.4504, 21.18210
710.9326, 21.00567
711.4147, 20.67038
711.8968, 20.47871
712.3789, 20.87055
712.8610, 21.70467
713.3431, 22.31506
713.8253, 22.25377
714.3074, 21.82980
714.7895, 21.47178
715.2716, 21.17800
715.7537, 20.86664
716.2358, 20.47161
716.7180, 20.34955
717.2001, 20.97057
717.6822, 22.14204
718.1643, 22.56587
718.6464, 21.37951
719.1285, 20.71589
719.6107, 21.24681
720.0928, 21.96931
720.5749, 22.20852
721.0570, 22.00399
721.5391, 21.65333
722.0212, 21.27939
722.5034, 20.93703
722.9855, 20.62561
723.4676, 20.38683
723.9497, 20.56290
724.4318, 21.26294
724.9139, 21.91541
725.3961, 22.14982
725.8782, 22.10221
726.3603, 22.17258
726.8424, 22.62782
727.3245, 22.58401
727.8066, 21.33790
728.2888, 20.23213
728.7709, 20.10893
729.2530, 20.64458
729.7351, 21.29056
730.2172, 21.84322
730.6993, 22.18242
731.1815, 22.00937
731.6636, 21.50721
732.1457, 21.41738
732.6278, 21.78919
733.1099, 22.17995
733.5920, 22.46304
734.0742, 22.56891
734.5563, 22.31547
735.0384, 21.55738
735.5205, 21.20630
736.0026, 21.71727
736.4847, 22.09622
736.9669, 21.82562
737.4490, 21.32390
737.9311, 21.04849
738.4132, 21.09401
738.8953, 21.33892
739.3774, 21.82550
739.8596, 22.33628
740.3417, 22.33073
740.8238, 21.84531
741.3059, 21.44143
741.7880, 21.23865
742.2701, 21.26803
742.7523, 21.66477
743.2344, 22.38116
743.7165, 22.65651
744.1986, 22.04160
744.6807, 21.64203
745.1628, 21.83485
745.6450, 22.09106
746.1271, 21.89405
746.6092, 21.39861
747.0913, 21.17394
747.5734, 21.54801
748.0555, 22.08672
748.5377, 22.25443
749.0198, 22.13300
749.5019, 21.97124
749.9840, 21.78886
750.4661, 21.79744
750.9482, 22.18403
751.4304, 22.76296
751.9125, 23.08339
752.3946, 23.06905
752.8767, 22.96112
753.3588, 22.70337
753.8409, 22.42142
754.3231, 22.10090
754.8052, 21.81712
755.2873, 21.64952
755.7694, 21.61998
756.2515, 21.74842
756.7336, 22.24922
757.2158, 22.81767
757.6979, 22.81736
758.1800, 22.35113
758.6621, 22.11976
759.1442, 22.38718
759.6263, 22.74419
760.1085, 22.67803
760.5906, 22.18709
761.0727, 21.96539
761.5548, 22.22692
762.0369, 22.44497
762.5190, 22.47501
763.0012, 22.48913
763.4833, 22.69104
763.9654, 23.00521
764.4475, 23.09592
764.9296, 22.63457
765.4117, 22.25742
765.8939, 22.80838
766.3760, 23.70176
766.8581, 23.67979
767.3402, 22.69162
767.8223, 21.77049
768.3044, 21.56724
768.7866, 21.88350
769.2687, 22.29819
769.7508, 22.94395
770.2329, 23.18296
770.7150, 22.70628
771.1971, 22.22671
771.6793, 21.97898
772.1614, 21.95782
772.6435, 22.26188
773.1256, 22.95408
773.6077, 23.43146
774.0898, 23.11632
774.5720, 22.80562
775.0541, 23.45716
775.5362, 24.54443
776.0183, 24.90084
776.5004, 24.22495
776.9825, 23.19958
777.4647, 22.43885
777.9468, 21.95551
778.4289, 21.88327
778.9110, 22.30929
779.3931, 22.68077
779.8752, 22.85792
780.3574, 22.95683
780.8395, 23.05992
781.3216, 23.16932
781.8037, 23.29278
782.2858, 23.52718
782.7679, 23.63613
783.2501, 23.45757
783.7322, 23.21775
784.2143, 23.07134
784.6964, 23.03148
785.1785, 23.09625
785.6606, 23.27246
786.1428, 23.43413
786.6249, 23.33008
787.1070, 23.06887
787.5891, 23.19813
788.0712, 23.76828
788.5533, 24.14056
789.0355, 23.98378
789.5176, 23.57779
789.9997, 23.34406
790.4818, 23.30587
790.9639, 23.29197
791.4460, 23.23379
791.9282, 23.28596
792.4103, 23.64617
792.8924, 24.01488
793.3745, 24.04287
793.8566, 23.78092
794.3387, 23.65634
794.8209, 23.99469
795.3030, 24.37467
795.7851, 24.31788
796.2672, 24.01039
796.7493, 23.88718
797.2314, 23.99275
797.7136, 24.04342
798.1957, 23.84038
798.6778, 23.51882
799.1599, 23.40921
799.6420, 23.54263
800.1241, 23.78046
800.6063, 24.27476
801.0884, 24.63141
801.5705, 24.46661
802.0526, 24.16139
802.5347, 24.21501
803.0168, 24.68536
803.4990, 25.11342
803.9811, 25.52878
804.4632, 25.69716
804.9453, 25.25174
805.4274, 24.56217
805.9095, 24.14119
806.3917, 24.09512
806.8738, 24.28066
807.3559, 24.65013
807.8380, 25.06403
808.3201, 25.08866
808.8022, 24.75469
809.2844, 24.89185
809.7665, 25.76752
810.2486, 26.51847
810.7307, 26.46042
811.2128, 25.88752
811.6949, 25.71966
812.1771, 26.31060
812.6592, 26.58599
813.1413, 26.29902
813.6234, 25.97526
814.1055, 25.79865
814.5876, 25.74448
815.0698, 25.80314
815.5519, 25.95996
816.0340, 26.06499
816.5161, 25.74800
816.9982, 25.54471
817.4803, 26.47499
817.9625, 27.99470
818.4446, 28.50390
818.9267, 27.69539
819.4088, 26.73138
819.8909, 26.62438
820.3730, 27.09362
820.8552, 27.07816
821.3373, 26.38542
821.8194, 26.07103
822.3015, 26.36925
822.7836, 26.85491
823.2657, 27.35717
823.7479, 27.84677
824.2300, 28.28659
824.7121, 28.72642
825.1942, 28.91706
825.6763, 28.48584
826.1584, 28.13228
826.6406, 28.32871
827.1227, 28.82818
827.6048, 29.35804
828.0869, 29.79723
828.5690, 29.92077
829.0511, 29.34629
829.5333, 28.58333
830.0154, 28.59341
830.4975, 29.23431
830.9796, 29.79545
831.4617, 30.13506
831.9438, 30.54843
832.4260, 31.31559
832.9081, 32.20715
833.3902, 32.49011
833.8723, 31.82363
834.3544, 31.43264
834.8365, 31.33724
835.3187, 31.51303
835.8008, 32.19032
836.2829, 32.98540
836.7650, 33.38152
837.2471, 33.32238
837.7292, 33.31170
838.2114, 33.40490
838.6935, 33.71249
839.1756, 34.52532
839.6577, 35.48286
840.1398, 36.02043
840.6219, 36.13269
841.1041, 36.24330
841.5862, 36.60244
842.0683, 37.22660
842.5504, 38.25927
843.0325, 39.62238
843.5146, 40.80579
843.9968, 41.74834
844.4789, 42.47453
844.9610, 42.91557
845.4431, 43.31112
845.9252, 44.12717
846.4073, 45.48608
846.8895, 46.64582
847.3716, 47.21163
847.8537, 48.10606
848.3358, 49.69691
848.8179, 51.57160
849.3000, 53.61296
849.7822, 55.66083
850.2643, 57.07014
850.7464, 57.12987
851.2285, 57.33482
851.7106, 58.53360
852.1927, 60.34496
852.6749, 62.43096
853.1570, 64.71810
853.6391, 67.24394
854.1212, 70.01506
854.6033, 72.67327
855.0854, 74.52065
855.5676, 75.81107
856.0497, 77.84642
856.5318, 80.66664
857.0139, 83.36876
857.4960, 85.61108
857.9781, 87.82403
858.4603, 90.50526
858.9424, 93.59301
859.4245, 96.43130
859.9066, 99.16924
860.3887, 101.3854
860.8708, 102.9025
861.3530, 104.0702
861.8351, 105.0968
862.3172, 105.8928
862.7993, 106.3414
863.2814, 106.4710
863.7635, 105.9482
864.2457, 104.2771
864.7278, 102.2378
865.2099, 100.4405
865.6920, 98.72342
866.1741, 96.79537
866.6563, 94.58609
867.1384, 92.20772
867.6205, 89.72651
868.1026, 87.16997
868.5847, 84.46325
869.0668, 81.69205
869.5490, 79.39448
870.0311, 77.65176
870.5132, 76.29563
870.9953, 75.32066
871.4774, 74.39382
871.9595, 72.77466
872.4417, 70.23601
872.9238, 68.21600
873.4059, 66.76990
873.8880, 65.74235
874.3701, 65.43361
874.8522, 65.26940
875.3344, 64.77151
875.8165, 63.97642
876.2986, 63.16732
876.7807, 62.16362
877.2628, 61.50490
877.7449, 61.80408
878.2271, 62.17629
878.7092, 61.51038
879.1913, 60.34222
879.6734, 60.10811
880.1555, 61.28978
880.6376, 62.67680
881.1198, 62.93855
881.6019, 62.74155
882.0840, 63.46370
882.5661, 64.88219
883.0482, 65.89555
883.5303, 66.23458
884.0125, 66.57826
884.4946, 67.49948
884.9767, 68.86697
885.4588, 70.33424
885.9409, 72.00053
886.4230, 73.14903
886.9052, 73.43675
887.3873, 73.87533
887.8694, 74.97013
888.3515, 76.50863
888.8336, 78.19920
889.3157, 80.05421
889.7979, 81.94378
890.2800, 83.78015
890.7621, 85.77164
891.2442, 88.01616
891.7263, 90.40529
892.2084, 93.00198
892.6906, 95.65549
893.1727, 97.78917
893.6548, 98.91879
894.1369, 100.5812
894.6190, 104.3085
895.1011, 108.7712
895.5833, 112.3537
896.0654, 115.2902
896.5475, 118.4725
897.0296, 122.1441
897.5117, 125.8346
897.9938, 129.0090
898.4760, 131.9835
898.9581, 135.5036
899.4402, 139.5607
899.9223, 144.1907
900.4044, 149.4265
900.8865, 155.0542
901.3687, 160.9545
901.8508, 167.1314
902.3329, 173.5049
902.8150, 179.9076
903.2971, 187.5049
903.7792, 196.7546
904.2614, 206.4052
904.7435, 215.6786
905.2256, 225.5804
905.7077, 237.0737
906.1898, 249.9665
906.6719, 263.0763
907.1541, 275.7768
907.6362, 289.3732
908.1183, 304.2207
908.6004, 319.9253
909.0825, 335.7160
909.5646, 352.2111
910.0468, 370.8943
910.5289, 391.9913
911.0110, 414.0099
911.4931, 435.7491
911.9752, 459.0927
912.4573, 481.9897
912.9395, 507.2234
913.4216, 532.8164
913.9037, 558.5391
914.3858, 584.9067
914.8679, 612.2413
915.3500, 639.6422
915.8321, 665.8405
916.3142, 690.6174
916.7963, 713.5490
917.2784, 734.7416
917.7606, 751.6327
918.2427, 763.5496
918.7248, 770.0278
919.2069, 770.6433
919.6890, 765.4309
920.1711, 754.5074
920.6533, 737.3323
921.1354, 715.5878
921.6175, 688.5183
922.0996, 658.1395
922.5817, 623.5494
923.0638, 587.0017
923.5460, 551.4237
924.0281, 516.8248
924.5102, 483.9321
924.9923, 453.2151
925.4744, 423.5287
925.9565, 393.6068
926.4387, 365.1368
926.9208, 339.9269
927.4029, 317.5663
927.8850, 297.1888
928.3671, 278.5751
928.8492, 260.9362
929.3314, 243.1106
929.8135, 226.4787
930.2956, 212.8103
930.7777, 201.4206
931.2598, 190.7421
931.7419, 180.2785
932.2241, 170.4904
932.7062, 161.7745
933.1883, 153.7658
933.6704, 145.6039
934.1525, 137.5466
934.6346, 130.9141
935.1168, 125.7968
935.5989, 120.5979
936.0810, 114.5348
936.5631, 108.5851
937.0452, 104.1808
937.5273, 101.2088
938.0095, 97.73127
938.4916, 93.54417
938.9737, 89.65269
939.4558, 86.27254
939.9379, 83.08945
940.4200, 79.84882
940.9022, 76.64059
941.3843, 73.66848
941.8664, 70.88935
942.3485, 68.45963
942.8306, 66.55917
943.3127, 64.77193
943.7949, 63.06633
944.2770, 61.36568
944.7591, 59.51476
945.2412, 57.60407
945.7233, 56.01886
946.2054, 55.00885
946.6876, 53.96618
947.1697, 52.44267
947.6518, 51.02877
948.1339, 50.28412
948.6160, 49.90320
949.0981, 49.46848
949.5803, 48.84669
950.0624, 47.90615
950.5445, 46.33398
951.0266, 44.75561
951.5087, 43.81393
951.9908, 43.26875
952.4730, 42.71188
952.9551, 42.14005
953.4372, 41.81496
953.9193, 41.83165
954.4014, 41.78704
954.8835, 41.19922
955.3657, 40.21151
955.8478, 39.07876
956.3299, 37.87435
956.8120, 37.25152
957.2941, 37.34321
957.7762, 37.32088
958.2584, 36.60287
958.7405, 35.61615
959.2226, 35.26731
959.7047, 35.60970
960.1868, 35.72078
960.6689, 35.59347
961.1511, 35.23304
961.6332, 34.53155
962.1153, 33.81911
962.5974, 33.37587
963.0795, 33.17443
963.5616, 33.11528
964.0438, 33.42386
964.5259, 33.38793
965.0080, 32.78125
965.4901, 32.11977
965.9722, 31.32206
966.4543, 30.73607
966.9365, 30.86590
967.4186, 31.63162
967.9007, 32.21184
968.3828, 32.75991
968.8649, 32.72842
969.3470, 31.39168
969.8292, 30.05048
970.3113, 29.56766
970.7934, 29.63371
971.2755, 29.79821
971.7576, 29.94736
972.2397, 29.89349
972.7219, 29.28277
973.2040, 28.74898
973.6861, 28.81687
974.1682, 29.09542
974.6503, 29.18732
975.1324, 29.07214
975.6146, 28.72058
976.0967, 28.14323
976.5788, 27.91800
977.0609, 29.02602
977.5430, 30.41801
978.0251, 30.43722
978.5073, 29.62111
978.9894, 29.30733
979.4715, 29.59325
979.9536, 29.59435
980.4357, 28.80714
980.9178, 27.89749
981.4000, 27.96585
981.8821, 28.69369
982.3642, 28.83787
982.8463, 28.44429
983.3284, 27.90369
983.8105, 27.30889
984.2927, 27.08268
984.7748, 27.60467
985.2569, 28.47296
985.7390, 28.73015
986.2211, 28.33799
986.7032, 28.13165
987.1854, 28.17886
987.6675, 28.05249
988.1496, 27.54922
988.6317, 27.03765
989.1138, 26.88663
989.5959, 27.00165
990.0781, 26.94543
990.5602, 26.52802
991.0423, 26.53290
991.5244, 27.33026
992.0065, 27.87936
992.4886, 27.70185
992.9708, 27.18997
993.4529, 26.70981
993.9350, 26.26877
994.4171, 25.94972
994.8992, 25.68900
995.3813, 25.64885
995.8635, 26.19915
996.3456, 26.55517
996.8277, 26.10675
997.3098, 25.43314
997.7919, 25.33027
998.2740, 25.79627
998.7562, 26.03408
999.2383, 25.58298
999.7204, 25.31936
1000.203, 25.76217
1000.685, 26.17631
1001.167, 25.95505
1001.649, 25.40609
1002.131, 25.08236
1002.613, 25.06253
1003.095, 24.98093
1003.577, 24.36518
1004.059, 24.03069
1004.542, 24.78298
1005.024, 25.74272
1005.506, 26.12751
1005.988, 25.96356
1006.470, 25.31941
1006.952, 24.28157
1007.434, 23.68800
1007.916, 24.52728
1008.398, 25.64569
1008.881, 25.88447
1009.363, 25.71613
1009.845, 25.92272
1010.327, 26.39466
1010.809, 26.37498
1011.291, 25.60009
1011.773, 24.96901
1012.255, 25.59210
1012.738, 26.66275
1013.220, 26.85111
1013.702, 26.48961
1014.184, 26.35404
1014.666, 26.53119
1015.148, 26.79545
1015.630, 27.03646
1016.112, 27.26426
1016.594, 27.49571
1017.077, 27.72055
1017.559, 27.90820
1018.041, 28.06410
1018.523, 28.17930
1019.005, 28.26658
1019.487, 28.51812
1019.969, 29.05830
1020.451, 29.65770
1020.934, 30.04068
1021.416, 30.17859
1021.898, 29.69372
1022.380, 28.62005
1022.862, 28.31546
1023.344, 29.08616
1023.826, 29.90098
1024.308, 30.10731
1024.791, 30.02732
1025.273, 30.25788
1025.755, 30.78672
1026.237, 31.08128
1026.719, 31.08231
1027.201, 31.37581
1027.683, 32.17958
1028.165, 32.83582
1028.647, 32.80431
1029.130, 32.54643
1029.612, 33.12273
1030.094, 34.65871
1030.576, 35.30391
1031.058, 34.70992
1031.540, 34.43602
1032.022, 34.87400
1032.504, 35.58179
1032.986, 36.30186
1033.469, 37.04081
1033.951, 37.88263
1034.433, 38.94549
1034.915, 39.29753
1035.397, 38.35978
1035.879, 37.98744
1036.361, 38.88174
1036.843, 39.97688
1037.326, 40.45179
1037.808, 41.37636
1038.290, 42.21064
1038.772, 42.71539
1039.254, 43.72779
1039.736, 44.11657
1040.218, 44.49089
1040.700, 44.77474
1041.182, 45.28080
1041.665, 46.37853
1042.147, 47.81508
1042.629, 49.02495
1043.111, 50.03080
1043.593, 50.72777
1044.075, 50.79473
1044.557, 50.98925
1045.039, 51.46008
1045.521, 52.10775
1046.004, 53.05786
1046.486, 54.08151
1046.968, 54.67142
1047.450, 54.71554
1047.932, 54.77372
1048.414, 54.86244
1048.896, 55.03127
1049.378, 55.45812
1049.861, 55.81136
1050.343, 55.97717
1050.825, 55.85905
1051.307, 55.15196
1051.789, 53.71434
1052.271, 52.70637
1052.753, 52.87688
1053.235, 52.80324
1053.718, 51.81939
1054.200, 50.64366
1054.682, 49.96433
1055.164, 49.43866
1055.646, 48.28555
1056.128, 46.35992
1056.610, 44.52810
1057.092, 43.05220
1057.574, 41.66413
1058.057, 40.35532
1058.539, 39.00948
1059.021, 37.36310
1059.503, 35.68676
1059.985, 34.57582
1060.467, 34.10980
1060.949, 33.33799
1061.431, 31.43396
1061.913, 29.85754
1062.396, 29.48249
1062.878, 29.34405
1063.360, 28.68187
1063.842, 27.72670
1064.324, 26.94412
1064.806, 26.41058
1065.288, 25.95258
1065.770, 25.54972
1066.253, 25.15423
1066.735, 24.70515
1067.217, 24.29715
1067.699, 24.12700
1068.181, 23.98448
1068.663, 23.43008
1069.145, 22.47509
1069.627, 21.78064
1070.109, 21.69346
1070.592, 21.73821
1071.074, 21.78151
1071.556, 21.79241
1072.038, 21.80120
1072.520, 21.73291
1073.002, 21.43388
1073.484, 20.92865
1073.966, 20.46753
1074.448, 20.12267
1074.931, 19.87565
1075.413, 19.60839
1075.895, 19.55210
1076.377, 20.15156
1076.859, 20.89445
1077.341, 21.09987
1077.823, 20.75089
1078.305, 20.21815
1078.788, 19.54988
1079.270, 18.96390
1079.752, 18.45436
1080.234, 18.18485
1080.716, 18.48466
1081.198, 18.93185
1081.680, 18.99710
1082.162, 18.73141
1082.644, 18.53354
1083.127, 18.53754
1083.609, 18.55447
1084.091, 18.45463
1084.573, 18.39436
1085.055, 18.56546
1085.537, 18.75026
1086.019, 18.70312
1086.501, 18.46685
1086.984, 18.18127
1087.466, 17.86572
1087.948, 17.69220
1088.430, 18.02165
1088.912, 18.15194
1089.394, 17.40894
1089.876, 16.56855
1090.358, 16.43002
1090.840, 16.74247
1091.323, 16.85050
1091.805, 16.62005
1092.287, 16.51507
1092.769, 16.80056
1093.251, 17.12266
1093.733, 17.50148
1094.215, 17.69719
1094.697, 17.41610
1095.179, 16.87310
1095.662, 16.32016
1096.144, 15.83246
1096.626, 15.72707
1097.108, 16.60114
1097.590, 17.09072
1098.072, 16.25132
1098.554, 15.43304
1099.036, 15.61644
1099.519, 16.24670
1100.001, 16.60611
1100.483, 16.64495
1100.965, 16.61452
1101.447, 16.54403
1101.929, 16.46791
1102.411, 16.55587
1102.893, 16.44732
1103.375, 15.49777
1103.858, 14.63500
1104.340, 15.12042
1104.822, 16.52828
1105.304, 17.15414
1105.786, 16.46829
1106.268, 16.03810
1106.750, 16.44086
1107.232, 16.74294
1107.714, 16.57047
1108.197, 16.24134
1108.679, 15.96874
1109.161, 15.74337
1109.643, 15.43085
1110.125, 14.92604
1110.607, 15.00195
1111.089, 16.53033
1111.571, 17.48991
1112.054, 17.19948
1112.536, 16.57177
1113.018, 15.92362
1113.500, 15.36485
1113.982, 15.06832
1114.464, 15.03930
1114.946, 15.06220
1115.428, 15.10886
1115.911, 15.25832
1116.393, 15.62611
1116.875, 15.94286
1117.357, 16.10004
1117.839, 16.15579
1118.321, 16.13918
1118.803, 16.07355
1119.285, 16.11180
1119.767, 16.41116
1120.250, 16.40999
1120.732, 15.98422
1121.214, 15.49745
1121.696, 14.97403
1122.178, 14.55115
1122.660, 14.33049
1123.142, 14.30482
1123.624, 14.49527
1124.106, 14.96042
1124.589, 15.15843
1125.071, 14.97392
1125.553, 14.94705
1126.035, 15.26097
1126.517, 15.47713
1126.999, 15.27491
1127.481, 14.97449
1127.963, 15.12924
1128.446, 15.67482
1128.928, 15.82237
1129.410, 15.51638
1129.892, 15.30792
1130.374, 15.26073
1130.856, 15.29266
1131.338, 15.37349
1131.820, 15.50206
1132.302, 15.69116
1132.785, 15.89718
1133.267, 15.97177
1133.749, 15.92265
1134.231, 15.90339
1134.713, 15.91453
1135.195, 15.67475
1135.677, 15.11006
1136.159, 14.78241
1136.641, 15.13050
1137.124, 15.72545
1137.606, 15.81004
1138.088, 15.53092
1138.570, 15.44037
1139.052, 15.49776
1139.534, 15.50008
1140.016, 15.42326
1140.498, 15.39129
1140.981, 15.45926
1141.463, 15.43021
1141.945, 14.97595
1142.427, 15.11555
1142.909, 14.53981
1143.391, 14.97054
1143.873, 14.99380
1144.355, 14.73820
1144.838, 14.92518
1145.320, 15.66855
1145.802, 16.22171
1146.284, 16.04568
1146.766, 15.62038
1147.248, 15.34063
1147.730, 15.16344
1148.212, 14.95054
1148.694, 14.84443
1149.177, 15.26822
1149.659, 16.06073
1150.141, 16.44128
1150.623, 16.07494
1151.105, 15.65874
1151.587, 15.60575
1152.069, 15.67131
1152.551, 15.82295
1153.033, 15.89221
1153.516, 15.54541
1153.998, 15.04505
1154.480, 15.03321
1154.962, 15.58325
1155.444, 15.83021
1155.926, 14.99026
1156.408, 14.54464
1156.890, 15.46119
1157.373, 16.29880
1157.855, 16.09384
1158.337, 15.46859
1158.819, 14.99515
1159.301, 14.78064
1159.783, 15.13983
1160.265, 16.53433
1160.747, 17.33003
1161.229, 17.00708
1161.712, 16.67157
1162.194, 16.61321
1162.676, 16.55166
1163.158, 16.21029
1163.640, 15.81372
1164.122, 15.80085
1164.604, 16.18620
1165.086, 16.43402
1165.568, 16.49106
1166.051, 16.57234
1166.533, 16.70298
1167.015, 16.84961
1167.497, 17.01466
1167.979, 17.14335
1168.461, 17.17664
1168.943, 17.13286
1169.425, 17.03990
1169.908, 16.89284
1170.390, 16.95509
1170.872, 17.23876
1171.354, 17.34026
1171.836, 17.16225
1172.318, 17.04966
1172.800, 17.23153
1173.282, 17.35678
1173.765, 16.79036
1174.247, 16.97986
1174.729, 15.93309
1175.211, 16.57125
1175.693, 16.46672
1176.175, 15.71568
1176.657, 15.49602
1177.139, 16.14477
1177.621, 16.89905
1178.104, 17.23693
1178.586, 17.30579
1179.068, 17.01316
1179.550, 16.76592
1180.032, 17.36793
1180.514, 18.32159
1180.996, 18.69785
1181.478, 18.47881
1181.960, 18.14142
1182.443, 17.85287
1182.925, 17.63754
1183.407, 17.49099
1183.889, 17.44641
1184.371, 17.71900
1184.853, 17.91492
1185.335, 17.44839
1185.817, 16.79519
1186.300, 16.90534
1186.782, 17.74134
1187.264, 18.06237
1187.746, 17.23542
1188.228, 16.68355
1188.710, 16.84051
1189.192, 17.06201
1189.674, 17.06396
1190.156, 17.09852
1190.639, 17.50402
1191.121, 18.02081
1191.603, 18.02196
1192.085, 17.44176
1192.567, 17.23977
1193.049, 17.56795
1193.531, 17.83775
1194.013, 17.97593
1194.495, 18.10306
1194.978, 18.31520
1195.460, 18.37570
1195.942, 17.99695
1196.424, 17.35722
1196.906, 16.96296
1197.388, 16.80993
1197.870, 16.88995
1198.352, 17.18305
1198.835, 17.32458
1199.317, 17.25592
1199.799, 17.30873
1200.281, 17.66115
1200.763, 17.97462
1201.245, 17.81296
1201.727, 17.42461
1202.209, 17.26257
1202.692, 17.21227
1203.174, 16.95491
1203.656, 16.61012
1204.138, 16.64299
1204.620, 17.05373
1205.102, 17.21000
1205.584, 16.69553
1206.066, 16.37539
1206.548, 17.23662
1207.031, 18.12476
1207.513, 18.07657
1207.995, 17.64861
1208.477, 17.36554
1208.959, 17.23748
1209.441, 17.13974
1209.923, 17.05577
1210.405, 17.10154
1210.887, 17.48287
1211.370, 17.71528
1211.852, 17.68269
1212.334, 17.53683
1212.816, 17.29985
1213.298, 17.00357
1213.780, 16.50799
1214.262, 16.05513
1214.744, 16.35442
1215.227, 17.53482
1215.709, 18.01039
1216.191, 17.57754
1216.673, 17.29327
1217.155, 17.31764
1217.637, 17.37550
1218.119, 17.34428
1218.601, 17.33741
1219.083, 17.49466
1219.566, 17.68863
1220.048, 17.58307
1220.530, 17.23968
1221.012, 16.89185
1221.494, 16.57163
1221.976, 16.41203
1222.458, 16.40468
1222.940, 16.35454
1223.422, 16.17843
1223.905, 16.05062
1224.387, 16.11245
1224.869, 16.31272
1225.351, 16.81430
1225.833, 17.23893
1226.315, 16.88746
1226.797, 16.25696
1227.279, 16.36522
1227.762, 17.08850
1228.244, 17.27313
1228.726, 16.41497
1229.208, 15.92301
1229.690, 16.67234
1230.172, 17.30793
1230.654, 17.22004
1231.136, 17.01334
1231.619, 17.14172
1232.101, 17.34742
1232.583, 17.26006
1233.065, 16.92179
1233.547, 16.57738
1234.029, 16.09754
1234.511, 16.10086
1234.993, 16.75364
1235.475, 17.26283
1235.958, 17.43576
1236.440, 17.51424
1236.922, 17.64689
1237.404, 17.71445
1237.886, 17.53201
1238.368, 17.19304
1238.850, 16.96063
1239.332, 16.82924
1239.814, 16.80575
1240.297, 16.85883
1240.779, 16.88998
1241.261, 16.86250
1241.743, 16.67749
1242.225, 16.26524
1242.707, 16.02412
1243.189, 16.50625
1243.671, 17.09164
1244.154, 16.95822
1244.636, 16.86451
1245.118, 18.12488
1245.600, 19.77152
1246.082, 19.92966
1246.564, 18.64314
1247.046, 17.60392
1247.528, 17.18097
1248.010, 17.04707
1248.493, 17.55291
1248.975, 17.74764
1249.457, 17.03047
1249.939, 16.43761
1250.421, 16.61291
1250.903, 17.14439
1251.385, 17.52161
1251.867, 17.75207
1252.349, 17.90377
1252.832, 17.99224
1253.314, 17.69779
1253.796, 16.99356
1254.278, 16.73596
1254.760, 17.10474
1255.242, 17.42668
1255.724, 17.33331
1256.206, 17.56655
1256.689, 17.32964
1257.171, 17.60891
1257.653, 17.61028
1258.135, 17.49205
1258.617, 17.57221
1259.099, 17.46705
1259.581, 17.65786
1260.063, 17.36924
1260.546, 17.18396
1261.028, 17.21546
1261.510, 17.30557
1261.992, 17.37953
1262.474, 17.50335
1262.956, 17.80012
1263.438, 18.04469
1263.920, 18.10373
1264.402, 18.02403
1264.885, 17.69945
1265.367, 17.31794
1265.849, 17.63315
1266.331, 18.85753
1266.813, 19.37836
1267.295, 19.07255
1267.777, 18.60025
1268.259, 18.02062
1268.741, 17.56588
1269.224, 17.33183
1269.706, 17.31756
1270.188, 17.55021
1270.670, 17.89966
1271.152, 18.09718
1271.634, 18.24117
1272.116, 18.69376
1272.598, 19.23322
1273.081, 19.26312
1273.563, 18.87369
1274.045, 18.49487
1274.527, 18.28455
1275.009, 18.39044
1275.491, 19.14340
1275.973, 19.64151
1276.455, 19.20843
1276.938, 18.70284
1277.420, 18.60304
1277.902, 18.63942
1278.384, 18.56054
1278.866, 18.42815
1279.348, 18.41478
1279.830, 18.28665
1280.312, 18.41789
1280.794, 18.06309
1281.276, 17.80402
1281.759, 17.63436
1282.241, 17.70765
1282.723, 18.08066
1283.205, 18.54231
1283.687, 18.97890
1284.169, 19.31816
1284.651, 19.46895
1285.133, 19.45867
1285.616, 19.33034
1286.098, 19.08190
##END=



