##NAMES=Pyrolusite
##RRUFFID=R050361
##IDEAL CHEMISTRY=Mn^4+^O_2_
##LOCALITY=Serra do Navio, Amapa, Brazil
##OWNER=RRUFF
##SOURCE=University of Arizona Mineral Museum
##DESCRIPTION=Black prismatic crystals
##STATUS=The identification of this mineral has been confirmed by X-ray diffraction and chemical analysis
##URL=rruff.info/R050361
##MEASURED CHEMISTRY=Mn_1.00_O_2_
91.87140, 0.0000000E+00
92.35352, 5.793733
92.83563, 6.572196
93.31775, 6.904108
93.79987, 6.508301
94.28198, 5.628682
94.76410, 4.969729
95.24622, 4.701205
95.72833, 4.694411
96.21045, 4.751105
96.69257, 4.879532
97.17468, 4.949119
97.65680, 4.690261
98.13892, 4.114314
98.62103, 3.938261
99.10315, 4.536967
99.58527, 5.743970
100.0674, 6.296248
100.5495, 5.993874
101.0316, 5.465459
101.5137, 5.565793
101.9958, 6.521877
102.4780, 7.299877
102.9601, 7.459426
103.4422, 6.838940
103.9243, 6.669770
104.4064, 7.020386
104.8885, 7.775646
105.3707, 8.807956
105.8528, 10.46830
106.3349, 11.90115
106.8170, 12.78978
107.2991, 13.07516
107.7813, 12.90019
108.2634, 11.74449
108.7455, 10.05049
109.2276, 9.335737
109.7097, 10.56369
110.1918, 12.07181
110.6740, 13.17368
111.1561, 13.44339
111.6382, 13.76557
112.1203, 14.09103
112.6024, 14.46904
113.0845, 15.18324
113.5667, 16.76733
114.0488, 18.42850
114.5309, 19.64891
115.0130, 19.86953
115.4951, 20.04249
115.9772, 20.52081
116.4594, 21.30126
116.9415, 21.90141
117.4236, 22.03718
117.9057, 21.93524
118.3878, 21.83865
118.8699, 21.52151
119.3521, 21.46328
119.8342, 21.93339
120.3163, 22.95997
120.7984, 24.39148
121.2805, 26.59101
121.7626, 29.10487
122.2448, 31.15749
122.7269, 32.65721
123.2090, 33.38858
123.6911, 32.89641
124.1732, 30.90198
124.6553, 28.65103
125.1375, 26.98457
125.6196, 25.93270
126.1017, 25.59048
126.5838, 26.46532
127.0659, 28.02318
127.5480, 29.33297
128.0302, 30.27806
128.5123, 30.91900
128.9944, 31.26526
129.4765, 31.33523
129.9586, 31.30113
130.4407, 31.34787
130.9229, 31.41270
131.4050, 31.18697
131.8871, 30.47403
132.3692, 29.56765
132.8513, 29.09696
133.3334, 29.02182
133.8156, 29.19268
134.2977, 29.78499
134.7798, 30.87347
135.2619, 31.63500
135.7440, 31.70335
136.2261, 31.31290
136.7083, 31.64216
137.1904, 32.79850
137.6725, 34.29982
138.1546, 35.92508
138.6367, 37.87659
139.1188, 38.91988
139.6010, 38.64802
140.0831, 37.07053
140.5652, 35.12194
141.0473, 32.46002
141.5294, 29.85829
142.0115, 28.44831
142.4937, 28.65899
142.9758, 28.98164
143.4579, 28.90188
143.9400, 28.22547
144.4221, 28.10407
144.9042, 28.70023
145.3864, 29.74386
145.8685, 30.84309
146.3506, 32.56192
146.8327, 33.59513
147.3148, 33.36290
147.7969, 30.91240
148.2791, 29.36138
148.7612, 29.12217
149.2433, 29.73042
149.7254, 30.12646
150.2075, 30.11470
150.6896, 30.06142
151.1718, 30.09109
151.6539, 30.14063
152.1360, 30.36037
152.6181, 30.97590
153.1002, 31.79832
153.5823, 32.25856
154.0645, 32.16108
154.5466, 31.81673
155.0287, 31.36868
155.5108, 30.73514
155.9929, 30.10772
156.4750, 29.48698
156.9572, 28.88557
157.4393, 28.37259
157.9214, 27.90352
158.4035, 27.55538
158.8856, 27.37391
159.3677, 27.53349
159.8499, 27.69485
160.3320, 27.65042
160.8141, 27.46508
161.2962, 27.54525
161.7783, 28.50439
162.2604, 29.57078
162.7426, 30.10807
163.2247, 29.54709
163.7068, 28.75601
164.1889, 27.91978
164.6710, 27.07879
165.1531, 26.63655
165.6353, 27.30865
166.1174, 28.31024
166.5995, 28.79632
167.0816, 27.82216
167.5637, 26.71265
168.0458, 26.33376
168.5280, 26.70095
169.0101, 27.28511
169.4922, 28.00237
169.9743, 28.67710
170.4564, 29.05764
170.9385, 28.94582
171.4207, 28.55499
171.9028, 27.95948
172.3849, 27.15032
172.8670, 26.46347
173.3491, 26.19194
173.8312, 26.22049
174.3134, 26.32960
174.7955, 26.53039
175.2776, 26.70909
175.7597, 26.65870
176.2418, 26.33470
176.7239, 26.06840
177.2061, 26.33829
177.6882, 26.93823
178.1703, 27.30359
178.6524, 26.84072
179.1345, 26.05085
179.6166, 25.89576
180.0988, 26.52813
180.5809, 27.25571
181.0630, 27.18796
181.5451, 26.49723
182.0272, 25.87718
182.5093, 25.74002
182.9915, 25.93008
183.4736, 26.05787
183.9557, 26.07486
184.4378, 26.11096
184.9199, 26.45498
185.4020, 27.04326
185.8842, 27.46766
186.3663, 27.46085
186.8484, 27.09729
187.3305, 26.57688
187.8126, 25.83644
188.2947, 25.13436
188.7769, 24.96582
189.2590, 25.30660
189.7411, 25.65493
190.2232, 25.62676
190.7053, 25.30914
191.1874, 25.30835
191.6696, 25.75455
192.1517, 26.37979
192.6338, 26.68211
193.1159, 26.65298
193.5980, 26.54282
194.0801, 26.52946
194.5623, 26.59764
195.0444, 26.49172
195.5265, 26.13725
196.0086, 25.67195
196.4907, 25.37537
196.9728, 25.25455
197.4550, 25.23897
197.9371, 25.34581
198.4192, 25.57902
198.9013, 25.66808
199.3834, 25.54942
199.8655, 25.31581
200.3477, 25.17991
200.8298, 25.14734
201.3119, 25.19183
201.7940, 25.34618
202.2761, 25.63199
202.7582, 25.78014
203.2404, 25.74614
203.7225, 25.57665
204.2046, 25.34015
204.6867, 24.97036
205.1688, 24.75986
205.6509, 24.98312
206.1331, 25.73908
206.6152, 26.26818
207.0973, 26.44591
207.5794, 26.38757
208.0615, 26.46400
208.5436, 26.73174
209.0258, 26.98586
209.5079, 27.08463
209.9900, 26.99249
210.4721, 26.92179
210.9542, 26.92469
211.4363, 26.94825
211.9185, 26.77771
212.4006, 26.31452
212.8827, 25.86752
213.3648, 25.65476
213.8469, 25.74744
214.3290, 25.79540
214.8112, 25.74900
215.2933, 25.64411
215.7754, 25.61226
216.2575, 25.67727
216.7396, 25.77009
217.2217, 25.85976
217.7039, 25.96304
218.1860, 26.00655
218.6681, 25.96134
219.1502, 25.85643
219.6323, 25.81617
220.1144, 25.91302
220.5966, 25.95156
221.0787, 25.77862
221.5608, 25.24164
222.0429, 24.92137
222.5250, 24.92724
223.0071, 25.16737
223.4893, 25.32163
223.9714, 25.42774
224.4535, 25.39288
224.9356, 25.11783
225.4177, 24.40754
225.8998, 23.93771
226.3820, 23.78685
226.8641, 23.89177
227.3462, 24.06522
227.8283, 24.39676
228.3104, 24.66009
228.7925, 24.73139
229.2747, 24.55201
229.7568, 24.29865
230.2389, 23.90798
230.7210, 23.45538
231.2031, 23.18625
231.6852, 23.10480
232.1674, 23.19904
232.6495, 23.51583
233.1316, 24.29535
233.6137, 24.73660
234.0958, 24.64304
234.5779, 24.23242
235.0601, 24.14496
235.5422, 24.61897
236.0243, 25.07004
236.5064, 25.23057
236.9885, 24.97348
237.4706, 24.69814
237.9528, 24.36315
238.4349, 24.02511
238.9170, 23.83651
239.3991, 23.85807
239.8812, 23.93803
240.3633, 24.01013
240.8455, 24.04314
241.3276, 24.15801
241.8097, 24.43905
242.2918, 24.76910
242.7739, 24.87104
243.2560, 24.60704
243.7382, 24.32805
244.2203, 24.16951
244.7024, 24.17768
245.1845, 24.17467
245.6666, 24.14417
246.1487, 24.11044
246.6309, 24.11622
247.1130, 24.15237
247.5951, 24.24496
248.0772, 24.42512
248.5593, 24.74812
249.0414, 24.95102
249.5236, 24.96720
250.0057, 24.90480
250.4878, 24.94901
250.9699, 25.15910
251.4520, 25.37503
251.9341, 25.59222
252.4163, 25.87592
252.8984, 25.81022
253.3805, 25.18466
253.8626, 24.36815
254.3447, 23.91604
254.8268, 23.91286
255.3090, 24.09126
255.7911, 24.43594
256.2732, 24.99114
256.7553, 25.34523
257.2374, 25.43859
257.7195, 25.38960
258.2017, 25.30937
258.6838, 25.10537
259.1659, 25.09149
259.6480, 25.44164
260.1301, 26.17888
260.6122, 26.57449
261.0944, 26.55064
261.5765, 26.28060
262.0586, 25.89546
262.5407, 25.29234
263.0228, 24.87618
263.5049, 24.83247
263.9871, 25.13470
264.4692, 25.03153
264.9513, 24.24463
265.4334, 23.49578
265.9155, 23.59499
266.3976, 24.92499
266.8798, 25.77425
267.3619, 25.67327
267.8440, 24.77268
268.3261, 24.32913
268.8082, 24.47413
269.2903, 24.79886
269.7725, 24.97154
270.2546, 24.94334
270.7367, 24.99714
271.2188, 25.24349
271.7009, 25.58827
272.1830, 25.55665
272.6652, 24.99520
273.1473, 24.47840
273.6294, 24.49121
274.1115, 25.16395
274.5936, 25.53537
275.0757, 25.41513
275.5579, 25.00338
276.0400, 24.88430
276.5221, 25.10305
277.0042, 25.43099
277.4863, 25.82771
277.9684, 26.32168
278.4506, 26.44838
278.9327, 26.08416
279.4148, 25.45442
279.8969, 25.00167
280.3790, 24.73090
280.8611, 24.60233
281.3433, 24.64014
281.8254, 24.84338
282.3075, 25.03014
282.7896, 25.21830
283.2717, 25.34083
283.7538, 25.22847
284.2360, 24.86971
284.7181, 24.57687
285.2002, 24.52777
285.6823, 24.69136
286.1644, 24.76665
286.6465, 24.72786
287.1287, 24.69100
287.6108, 24.89587
288.0929, 25.31977
288.5750, 25.53874
289.0571, 25.27884
289.5392, 24.68377
290.0214, 24.34274
290.5035, 24.27554
290.9856, 24.30344
291.4677, 24.28193
291.9498, 24.20754
292.4319, 24.04365
292.9141, 23.67085
293.3962, 23.25918
293.8783, 23.29662
294.3604, 23.79007
294.8425, 24.30001
295.3246, 24.41032
295.8068, 24.22374
296.2889, 24.09311
296.7710, 24.14781
297.2531, 24.24396
297.7352, 24.10776
298.2173, 23.76362
298.6995, 23.41188
299.1816, 23.14665
299.6637, 22.98388
300.1458, 22.97611
300.6279, 23.15670
301.1100, 23.43958
301.5922, 23.83622
302.0743, 24.28308
302.5564, 24.52364
303.0385, 24.16026
303.5206, 23.57804
304.0027, 23.35897
304.4849, 23.63308
304.9670, 24.04872
305.4491, 24.31707
305.9312, 24.47001
306.4133, 24.58404
306.8954, 24.76460
307.3776, 24.89012
307.8597, 24.77133
308.3418, 24.37176
308.8239, 24.01923
309.3060, 24.05308
309.7881, 24.27840
310.2703, 24.38632
310.7524, 24.17208
311.2345, 23.85579
311.7166, 23.50568
312.1987, 23.13495
312.6808, 22.97632
313.1630, 23.43686
313.6451, 24.07379
314.1272, 24.41392
314.6093, 24.14795
315.0914, 23.69213
315.5735, 23.05243
316.0557, 22.31212
316.5378, 21.91453
317.0199, 22.47548
317.5020, 23.20222
317.9841, 23.48873
318.4662, 22.80771
318.9484, 22.25100
319.4305, 22.26320
319.9126, 22.67954
320.3947, 23.06721
320.8768, 23.37017
321.3589, 23.56063
321.8411, 23.60759
322.3232, 23.44963
322.8053, 23.28920
323.2874, 23.08793
323.7695, 22.92101
324.2516, 22.90756
324.7338, 23.23910
325.2159, 23.56693
325.6980, 23.84017
326.1801, 24.11124
326.6622, 24.07220
327.1443, 23.29083
327.6265, 22.36835
328.1086, 21.90933
328.5907, 22.19760
329.0728, 22.64921
329.5549, 23.29323
330.0370, 24.13615
330.5192, 24.70287
331.0013, 24.97774
331.4834, 24.99600
331.9655, 24.75713
332.4476, 24.03485
332.9297, 23.44329
333.4119, 23.07268
333.8940, 22.87746
334.3761, 22.63685
334.8582, 22.20916
335.3403, 21.96602
335.8224, 22.18237
336.3046, 23.14651
336.7867, 23.69272
337.2688, 23.69922
337.7509, 23.35649
338.2330, 23.02296
338.7151, 22.69000
339.1973, 22.39738
339.6794, 22.10131
340.1615, 21.78872
340.6436, 21.88507
341.1257, 22.52968
341.6078, 23.27805
342.0900, 23.49601
342.5721, 23.13688
343.0542, 22.84216
343.5363, 22.81383
344.0184, 22.99937
344.5005, 23.23990
344.9827, 23.56076
345.4648, 23.73877
345.9469, 23.40411
346.4290, 22.64515
346.9111, 22.21675
347.3932, 22.34070
347.8754, 22.75528
348.3575, 22.96187
348.8396, 22.97671
349.3217, 22.99914
349.8038, 23.22428
350.2859, 23.55284
350.7681, 23.71558
351.2502, 23.64719
351.7323, 23.54037
352.2144, 23.64459
352.6965, 23.89957
353.1786, 24.12005
353.6608, 24.23393
354.1429, 24.25313
354.6250, 24.10501
355.1071, 23.77796
355.5892, 23.60012
356.0714, 24.08364
356.5535, 24.82527
357.0356, 25.22579
357.5177, 24.81534
357.9998, 24.19942
358.4819, 23.71371
358.9641, 23.36637
359.4462, 23.22315
359.9283, 23.59511
360.4104, 24.03749
360.8925, 24.14249
361.3746, 23.56958
361.8568, 23.08088
362.3389, 23.14683
362.8210, 23.52868
363.3031, 23.68604
363.7852, 23.24705
364.2673, 22.70748
364.7495, 22.27956
365.2316, 21.98894
365.7137, 21.79819
366.1958, 21.61011
366.6779, 21.55145
367.1600, 21.76982
367.6422, 23.03101
368.1243, 23.79563
368.6064, 23.47520
369.0885, 21.99085
369.5706, 21.06007
370.0527, 20.95928
370.5349, 21.19088
371.0170, 21.46572
371.4991, 22.00599
371.9812, 22.18659
372.4633, 21.74266
372.9454, 20.91651
373.4276, 20.59089
373.9097, 20.96969
374.3918, 21.49045
374.8739, 21.92002
375.3560, 22.27292
375.8381, 22.50447
376.3203, 22.63230
376.8024, 22.61348
377.2845, 22.29281
377.7666, 21.58751
378.2487, 21.04456
378.7308, 20.85863
379.2130, 20.99492
379.6951, 21.29581
380.1772, 21.79741
380.6593, 22.28980
381.1414, 22.63207
381.6235, 22.81531
382.1057, 22.71965
382.5878, 22.16886
383.0699, 21.53498
383.5520, 21.68390
384.0341, 22.53666
384.5162, 23.27440
384.9984, 23.23443
385.4805, 22.72780
385.9626, 22.44524
386.4447, 22.48388
386.9268, 22.59033
387.4089, 22.46797
387.8911, 22.21397
388.3732, 22.04990
388.8553, 22.13634
389.3374, 22.31840
389.8195, 22.48364
390.3016, 22.62426
390.7838, 22.69185
391.2659, 22.63172
391.7480, 22.49148
392.2301, 22.29901
392.7122, 21.86721
393.1943, 21.65306
393.6765, 22.18140
394.1586, 23.14445
394.6407, 23.65922
395.1228, 22.98377
395.6049, 22.13903
396.0870, 21.67727
396.5692, 21.84446
397.0513, 21.80558
397.5334, 21.03613
398.0155, 20.09087
398.4976, 19.67256
398.9797, 20.34398
399.4619, 21.01487
399.9440, 21.49886
400.4261, 21.79597
400.9082, 22.04167
401.3903, 22.37642
401.8724, 22.52567
402.3546, 22.25146
402.8367, 21.18521
403.3188, 20.52005
403.8009, 20.43698
404.2830, 20.74344
404.7651, 20.99377
405.2473, 21.22767
405.7294, 21.27949
406.2115, 20.93947
406.6936, 20.18502
407.1757, 20.06055
407.6578, 20.75356
408.1400, 21.56884
408.6221, 21.61320
409.1042, 20.90560
409.5863, 20.32278
410.0684, 20.16299
410.5505, 20.22262
411.0327, 19.91497
411.5148, 19.25488
411.9969, 18.73338
412.4790, 18.82832
412.9611, 19.31101
413.4432, 19.64176
413.9254, 19.74722
414.4075, 19.71489
414.8896, 19.55977
415.3717, 19.33682
415.8538, 19.17662
416.3359, 19.15598
416.8181, 19.21795
417.3002, 19.34013
417.7823, 19.51951
418.2644, 19.67398
418.7465, 19.79285
419.2286, 19.85031
419.7108, 19.81836
420.1929, 19.65690
420.6750, 19.44894
421.1571, 19.19754
421.6392, 18.92003
422.1213, 18.66802
422.6035, 18.27057
423.0856, 18.05920
423.5677, 18.27451
424.0498, 19.15407
424.5319, 19.65955
425.0140, 19.32943
425.4962, 18.77396
425.9783, 18.62913
426.4604, 19.42390
426.9425, 19.84156
427.4246, 19.51780
427.9067, 18.59595
428.3889, 18.10152
428.8710, 18.13292
429.3531, 18.41564
429.8352, 18.91614
430.3173, 19.75931
430.7994, 20.08576
431.2816, 19.73270
431.7637, 19.08286
432.2458, 18.72244
432.7279, 18.65860
433.2100, 18.77847
433.6921, 19.19050
434.1743, 19.73374
434.6564, 19.66528
435.1385, 18.96111
435.6206, 18.33505
436.1027, 18.61132
436.5848, 19.45019
437.0670, 19.87919
437.5491, 19.60914
438.0312, 19.14758
438.5133, 19.04790
438.9954, 19.22348
439.4775, 19.43348
439.9597, 19.66072
440.4418, 19.80014
440.9239, 19.71400
441.4060, 19.39462
441.8881, 19.06123
442.3702, 18.83050
442.8524, 18.65385
443.3345, 18.47689
443.8166, 18.06810
444.2987, 17.91225
444.7808, 18.38935
445.2629, 19.26306
445.7451, 19.84545
446.2272, 19.75751
446.7093, 19.54871
447.1914, 19.42318
447.6735, 19.42975
448.1556, 19.37629
448.6378, 19.15259
449.1199, 18.94315
449.6020, 18.94390
450.0841, 19.23663
450.5662, 19.58290
451.0483, 20.02888
451.5305, 20.49938
452.0126, 20.59603
452.4947, 20.20261
452.9768, 19.79656
453.4589, 19.67115
453.9410, 19.83427
454.4232, 19.90149
454.9053, 19.84455
455.3874, 19.75669
455.8695, 19.73715
456.3516, 19.78653
456.8337, 19.91297
457.3159, 20.15597
457.7980, 20.44816
458.2801, 20.70604
458.7622, 20.92066
459.2443, 21.03313
459.7264, 20.89886
460.2086, 20.67723
460.6907, 20.56982
461.1728, 20.60607
461.6549, 20.75467
462.1370, 21.11603
462.6191, 21.54873
463.1013, 21.83660
463.5834, 21.88089
464.0655, 21.78178
464.5476, 21.49311
465.0297, 21.05087
465.5118, 20.72613
465.9940, 20.64333
466.4761, 20.66582
466.9582, 20.72541
467.4403, 20.84509
467.9224, 20.95525
468.4045, 21.16534
468.8867, 21.31899
469.3688, 21.14859
469.8509, 20.35402
470.3330, 19.80015
470.8151, 19.78969
471.2972, 20.24589
471.7794, 20.29128
472.2615, 19.75914
472.7436, 19.27244
473.2257, 19.35308
473.7078, 20.01417
474.1899, 20.46485
474.6721, 20.62513
475.1542, 20.62735
475.6363, 20.67210
476.1184, 20.74093
476.6005, 20.71139
477.0826, 20.46657
477.5648, 20.13460
478.0469, 19.90054
478.5290, 19.76412
479.0111, 19.72336
479.4932, 19.85455
479.9753, 20.04723
480.4575, 20.17222
480.9396, 20.19982
481.4217, 20.18064
481.9038, 20.10058
482.3859, 20.00348
482.8680, 19.95510
483.3502, 19.96967
483.8323, 20.04354
484.3144, 20.23130
484.7965, 20.51568
485.2786, 20.68680
485.7607, 20.66861
486.2429, 20.56067
486.7250, 20.36916
487.2071, 19.83051
487.6892, 19.81510
488.1713, 20.68487
488.6534, 21.82454
489.1356, 22.30116
489.6177, 21.87477
490.0998, 21.48144
490.5819, 21.30286
491.0640, 21.33665
491.5461, 21.66714
492.0283, 22.35195
492.5104, 22.92568
492.9925, 22.92768
493.4746, 22.49488
493.9567, 22.37449
494.4388, 22.65951
494.9210, 23.03636
495.4031, 23.23097
495.8852, 23.24042
496.3673, 23.03583
496.8494, 22.24488
497.3315, 21.58302
497.8137, 21.98303
498.2958, 23.19373
498.7779, 24.16626
499.2600, 24.30022
499.7421, 24.04418
500.2242, 23.62442
500.7064, 22.98569
501.1885, 22.55933
501.6706, 22.50608
502.1527, 22.71614
502.6348, 23.08282
503.1169, 24.02360
503.5991, 24.59756
504.0812, 24.47199
504.5633, 23.88208
505.0454, 23.73177
505.5275, 24.29139
506.0096, 24.83005
506.4918, 25.04132
506.9739, 24.89796
507.4560, 24.76119
507.9381, 24.61469
508.4202, 24.51811
508.9023, 24.52468
509.3845, 24.63415
509.8666, 24.87496
510.3487, 25.31517
510.8308, 25.77336
511.3129, 25.84648
511.7950, 25.62666
512.2772, 25.54366
512.7593, 25.94648
513.2414, 26.54562
513.7235, 26.97586
514.2056, 27.23831
514.6877, 27.54787
515.1699, 28.17429
515.6520, 28.84181
516.1341, 29.26960
516.6162, 29.23782
517.0983, 29.27512
517.5804, 29.53839
518.0626, 29.98478
518.5447, 30.54417
519.0268, 31.34865
519.5089, 32.11567
519.9910, 32.82221
520.4731, 33.46248
520.9553, 33.85188
521.4374, 33.75055
521.9195, 33.74971
522.4016, 34.26056
522.8837, 35.43164
523.3658, 36.27910
523.8480, 36.71919
524.3301, 36.99915
524.8122, 37.38704
525.2943, 37.88405
525.7764, 38.58280
526.2585, 39.63057
526.7407, 40.75345
527.2228, 41.40665
527.7049, 41.66048
528.1870, 41.90717
528.6691, 42.41343
529.1512, 43.03241
529.6334, 43.62098
530.1155, 44.17527
530.5976, 44.63845
531.0797, 44.87758
531.5618, 45.06178
532.0439, 45.36465
532.5261, 46.00490
533.0082, 46.51825
533.4903, 46.90369
533.9724, 47.07882
534.4545, 46.87048
534.9366, 45.89779
535.4188, 44.96072
535.9009, 44.27332
536.3830, 43.82804
536.8651, 43.27497
537.3472, 42.60341
537.8293, 41.85056
538.3115, 41.04826
538.7936, 40.20245
539.2757, 39.25412
539.7578, 38.17057
540.2399, 37.08934
540.7220, 36.16478
541.2042, 35.39928
541.6863, 34.72932
542.1684, 34.08903
542.6505, 33.58095
543.1326, 33.49397
543.6147, 33.70815
544.0969, 33.76162
544.5790, 33.22710
545.0611, 32.52279
545.5432, 31.99283
546.0253, 31.67472
546.5074, 31.37640
546.9896, 30.96012
547.4717, 30.56616
547.9538, 30.31331
548.4359, 30.46263
548.9180, 30.42059
549.4001, 29.92768
549.8823, 29.28160
550.3644, 29.00108
550.8465, 29.25222
551.3286, 29.56558
551.8107, 29.89476
552.2928, 30.20503
552.7750, 30.17090
553.2571, 29.72210
553.7392, 29.27608
554.2213, 29.10290
554.7034, 29.17135
555.1855, 29.27938
555.6677, 29.40808
556.1498, 29.64660
556.6319, 29.82117
557.1140, 30.15281
557.5961, 30.35419
558.0782, 30.43229
558.5604, 30.01794
559.0425, 30.23949
559.5246, 30.44293
560.0067, 30.42206
560.4888, 30.29189
560.9709, 30.17529
561.4531, 30.11840
561.9352, 30.12322
562.4173, 30.19301
562.8994, 30.44455
563.3815, 30.66616
563.8636, 30.74093
564.3458, 30.58718
564.8279, 30.50318
565.3100, 30.49057
565.7921, 30.54469
566.2742, 30.51727
566.7563, 30.75279
567.2385, 30.85802
567.7206, 30.84001
568.2027, 30.32951
568.6848, 30.45494
569.1669, 30.32553
569.6490, 30.18567
570.1312, 30.40059
570.6133, 29.96173
571.0954, 30.17104
571.5775, 30.12161
572.0596, 30.19061
572.5417, 30.00317
573.0239, 29.89492
573.5060, 29.52507
573.9881, 29.15373
574.4702, 28.81520
574.9523, 28.51122
575.4344, 28.26896
575.9166, 28.12924
576.3987, 28.31379
576.8808, 28.29549
577.3629, 27.91205
577.8450, 27.29634
578.3271, 26.88375
578.8093, 26.71384
579.2914, 26.63445
579.7735, 26.62785
580.2556, 26.67252
580.7377, 26.62488
581.2198, 26.49033
581.7020, 26.19230
582.1841, 25.44751
582.6662, 24.51275
583.1483, 24.04572
583.6304, 24.19574
584.1125, 24.51242
584.5947, 24.70983
585.0768, 24.79098
585.5589, 24.75646
586.0410, 24.44046
586.5231, 24.19693
587.0052, 24.24663
587.4874, 24.48800
587.9695, 24.64655
588.4516, 24.79880
588.9337, 24.72152
589.4158, 24.21249
589.8979, 23.26667
590.3801, 22.80713
590.8622, 23.03293
591.3443, 23.39304
591.8264, 23.50428
592.3085, 23.33832
592.7906, 23.40516
593.2728, 23.76227
593.7549, 24.20194
594.2370, 24.60992
594.7191, 24.92216
595.2012, 24.82128
595.6833, 24.03258
596.1655, 23.20077
596.6476, 23.08419
597.1297, 23.47690
597.6118, 23.89775
598.0939, 24.23217
598.5760, 24.44490
599.0582, 24.49001
599.5403, 24.37899
600.0224, 24.22387
600.5045, 23.89163
600.9866, 23.66117
601.4688, 23.66455
601.9509, 23.94365
602.4330, 24.30407
602.9151, 24.87886
603.3972, 25.34593
603.8793, 25.28926
604.3615, 24.62252
604.8436, 24.44623
605.3257, 25.05443
605.8078, 25.80594
606.2899, 25.45896
606.7720, 24.26998
607.2542, 23.47564
607.7363, 23.73479
608.2184, 24.39919
608.7005, 24.79640
609.1826, 24.96847
609.6647, 25.04725
610.1469, 25.05475
610.6290, 25.02912
611.1111, 24.92705
611.5932, 24.73902
612.0753, 24.77460
612.5574, 25.44749
613.0396, 26.08620
613.5217, 26.29303
614.0038, 25.87059
614.4859, 25.51730
614.9680, 25.22302
615.4501, 25.01098
615.9323, 24.87429
616.4144, 24.80326
616.8965, 25.03359
617.3786, 25.73409
617.8607, 26.52168
618.3428, 26.70079
618.8250, 26.36997
619.3071, 25.94011
619.7892, 25.38376
620.2713, 24.97640
620.7534, 25.07197
621.2355, 25.59195
621.7177, 26.16995
622.1998, 26.79291
622.6819, 27.29007
623.1640, 27.53779
623.6461, 27.49195
624.1282, 27.44031
624.6104, 27.38400
625.0925, 27.35422
625.5746, 27.37431
626.0567, 27.46318
626.5388, 27.55257
627.0209, 27.64965
627.5031, 27.72995
627.9852, 27.72958
628.4673, 27.65539
628.9494, 27.64885
629.4315, 27.73107
629.9136, 27.91871
630.3958, 28.30978
630.8779, 28.83718
631.3600, 29.29549
631.8421, 29.64450
632.3242, 29.83877
632.8063, 29.69879
633.2885, 29.31459
633.7706, 29.16161
634.2527, 29.54382
634.7348, 30.07866
635.2169, 30.63506
635.6990, 31.22820
636.1812, 31.65836
636.6633, 31.84524
637.1454, 31.97123
637.6275, 32.13679
638.1096, 32.32915
638.5917, 32.68404
639.0739, 33.24833
639.5560, 33.86319
640.0381, 34.33309
640.5202, 34.68538
641.0023, 35.02480
641.4844, 35.37281
641.9666, 35.73804
642.4487, 36.09270
642.9308, 36.48271
643.4129, 37.00010
643.8950, 37.76474
644.3771, 38.59266
644.8593, 39.48658
645.3414, 40.40008
645.8235, 41.14725
646.3056, 41.63586
646.7877, 41.98969
647.2698, 42.12729
647.7520, 42.02674
648.2341, 42.47612
648.7162, 43.60838
649.1983, 44.91789
649.6804, 46.14130
650.1625, 47.25315
650.6447, 47.90858
651.1268, 48.03456
651.6089, 48.13839
652.0910, 48.80043
652.5731, 49.78752
653.0552, 50.69087
653.5374, 51.36732
654.0195, 52.03908
654.5016, 53.03261
654.9837, 54.07177
655.4658, 54.75804
655.9479, 54.44938
656.4301, 54.40194
656.9122, 55.09613
657.3943, 56.22333
657.8764, 56.92488
658.3585, 57.03718
658.8406, 57.12377
659.3228, 57.40937
659.8049, 57.81072
660.2870, 57.83040
660.7691, 57.45403
661.2512, 57.04539
661.7333, 56.80833
662.2155, 56.71078
662.6976, 56.75264
663.1797, 56.92588
663.6618, 57.03361
664.1439, 57.02615
664.6260, 56.84068
665.1082, 56.36785
665.5903, 55.48710
666.0724, 54.70129
666.5545, 54.15455
667.0366, 53.74972
667.5187, 53.40374
668.0009, 53.21012
668.4830, 52.88368
668.9651, 52.39793
669.4472, 51.79321
669.9293, 51.06902
670.4114, 50.22266
670.8936, 49.54655
671.3757, 49.23569
671.8578, 48.94949
672.3399, 47.90612
672.8220, 46.34777
673.3041, 45.11983
673.7863, 44.96978
674.2684, 45.02380
674.7505, 44.63883
675.2326, 43.88917
675.7147, 43.21095
676.1968, 42.80085
676.6790, 42.42275
677.1611, 42.01884
677.6432, 41.59222
678.1253, 40.97519
678.6074, 40.03949
679.0895, 39.16290
679.5717, 38.67501
680.0538, 38.57184
680.5359, 38.14520
681.0180, 37.34326
681.5001, 36.52852
681.9822, 36.16981
682.4644, 36.04673
682.9465, 35.66712
683.4286, 34.85813
683.9107, 34.13042
684.3928, 33.77199
684.8749, 33.73463
685.3571, 33.57362
685.8392, 33.29621
686.3213, 32.53303
686.8034, 32.41253
687.2855, 32.04391
687.7676, 31.67163
688.2498, 31.66080
688.7319, 31.00301
689.2140, 31.00011
689.6961, 30.74522
690.1782, 30.61549
690.6603, 30.23611
691.1425, 29.94258
691.6246, 29.91240
692.1067, 29.74691
692.5888, 29.36496
693.0709, 29.28323
693.5530, 28.68393
694.0352, 28.55142
694.5173, 28.62424
694.9994, 28.28892
695.4815, 28.24561
695.9636, 28.10039
696.4457, 27.46820
696.9279, 27.70136
697.4100, 27.56998
697.8921, 27.06404
698.3742, 27.28806
698.8563, 26.84817
699.3384, 27.09099
699.8206, 26.74774
700.3027, 26.01274
700.7848, 25.67682
701.2669, 25.86765
701.7490, 26.11080
702.2311, 25.85685
702.7133, 25.40715
703.1954, 25.19917
703.6775, 25.46878
704.1596, 25.72626
704.6417, 25.81693
705.1238, 25.77567
705.6060, 25.63774
706.0881, 25.26076
706.5702, 25.04043
707.0523, 25.07702
707.5344, 25.24375
708.0165, 25.28176
708.4987, 25.18563
708.9808, 25.04635
709.4629, 24.88001
709.9450, 24.69927
710.4271, 24.38819
710.9092, 24.05053
711.3914, 24.06119
711.8735, 25.14454
712.3556, 26.19559
712.8377, 26.32023
713.3198, 25.67879
713.8019, 25.12641
714.2841, 25.05599
714.7662, 24.94891
715.2483, 24.51047
715.7304, 23.76512
716.2125, 23.51986
716.6946, 23.93029
717.1768, 24.40972
717.6589, 24.68871
718.1410, 24.76122
718.6231, 24.40983
719.1052, 23.61575
719.5873, 23.02546
720.0695, 23.33269
720.5516, 24.05272
721.0337, 24.61758
721.5158, 24.95798
721.9979, 25.08134
722.4800, 24.88077
722.9622, 24.53598
723.4443, 24.15265
723.9264, 23.52531
724.4085, 23.39074
724.8906, 24.07596
725.3727, 24.86782
725.8549, 24.95829
726.3370, 24.28629
726.8191, 23.84716
727.3012, 23.77016
727.7833, 23.90619
728.2654, 24.21361
728.7476, 24.57845
729.2297, 24.70922
729.7118, 24.43557
730.1939, 24.09542
730.6760, 23.86322
731.1581, 23.72979
731.6403, 23.67651
732.1224, 23.78223
732.6045, 23.86672
733.0866, 23.90811
733.5687, 23.91154
734.0508, 23.88760
734.5330, 23.83675
735.0151, 23.73358
735.4972, 23.49716
735.9793, 23.28726
736.4614, 23.66627
736.9435, 24.48218
737.4257, 24.95169
737.9078, 24.30527
738.3899, 23.43085
738.8720, 23.06316
739.3541, 23.14472
739.8362, 23.48210
740.3184, 24.49746
740.8005, 25.26799
741.2826, 25.30039
741.7647, 24.69656
742.2468, 24.25598
742.7289, 24.01527
743.2111, 23.84695
743.6932, 23.68155
744.1753, 23.53783
744.6574, 23.55485
745.1395, 23.72828
745.6216, 23.91338
746.1038, 24.02968
746.5859, 24.08760
747.0680, 24.13652
747.5501, 24.17142
748.0322, 24.03309
748.5143, 23.26923
748.9965, 22.61066
749.4786, 22.60060
749.9607, 23.46363
750.4428, 23.93359
750.9249, 23.87516
751.4070, 23.66657
751.8892, 23.56481
752.3713, 23.56662
752.8534, 23.52632
753.3355, 23.44080
753.8176, 23.30204
754.2997, 22.90858
754.7819, 22.52761
755.2640, 22.69534
755.7461, 23.60421
756.2282, 24.32051
756.7103, 24.22215
757.1924, 23.78557
757.6746, 23.40236
758.1567, 23.06901
758.6388, 22.90401
759.1209, 22.96383
759.6030, 23.12184
760.0851, 23.25779
760.5673, 23.37213
761.0494, 23.46785
761.5315, 23.53595
762.0136, 23.62435
762.4957, 23.91380
762.9778, 24.23941
763.4600, 24.26981
763.9421, 23.83642
764.4242, 23.30366
764.9063, 22.63740
765.3884, 22.07970
765.8705, 21.93410
766.3527, 22.61294
766.8348, 23.19037
767.3169, 23.72100
767.7990, 24.05528
768.2811, 23.86801
768.7632, 23.12711
769.2454, 22.51497
769.7275, 22.15380
770.2096, 22.02224
770.6917, 22.18263
771.1738, 22.54432
771.6559, 22.91768
772.1381, 23.27900
772.6202, 23.56847
773.1023, 23.78159
773.5844, 23.89398
774.0665, 23.85053
774.5486, 23.41163
775.0308, 23.16801
775.5129, 23.25453
775.9950, 23.53632
776.4771, 23.78281
776.9592, 24.00369
777.4413, 23.91305
777.9235, 23.25507
778.4056, 22.52169
778.8877, 22.68801
779.3698, 23.39979
779.8519, 23.74646
780.3340, 22.78836
780.8162, 21.91648
781.2983, 21.94524
781.7804, 22.55067
782.2625, 22.84024
782.7446, 22.58083
783.2267, 22.27481
783.7089, 21.95272
784.1910, 21.68527
784.6731, 21.72705
785.1552, 22.07476
785.6373, 22.41240
786.1194, 22.70550
786.6016, 22.81636
787.0837, 22.28735
787.5658, 21.38479
788.0479, 20.85236
788.5300, 21.31238
789.0121, 21.94540
789.4943, 22.63912
789.9764, 23.24437
790.4585, 23.20003
790.9406, 22.06234
791.4227, 21.14161
791.9048, 20.85677
792.3870, 21.00930
792.8691, 20.93809
793.3512, 20.66324
793.8333, 20.50317
794.3154, 20.64017
794.7975, 20.94272
795.2797, 21.24971
795.7618, 21.58926
796.2439, 22.03424
796.7260, 23.01344
797.2081, 23.69538
797.6902, 23.56839
798.1724, 22.84730
798.6545, 22.35987
799.1366, 22.20138
799.6187, 22.02616
800.1008, 21.69375
800.5829, 21.28295
801.0651, 21.01170
801.5472, 20.87634
802.0293, 20.84996
802.5114, 20.99080
802.9935, 21.17908
803.4756, 21.32289
803.9578, 21.42364
804.4399, 21.48596
804.9220, 21.57701
805.4041, 21.54842
805.8862, 21.28786
806.3683, 20.87683
806.8505, 20.63385
807.3326, 20.55275
807.8147, 20.69219
808.2968, 21.18668
808.7789, 21.82061
809.2610, 22.09530
809.7432, 22.07163
810.2253, 21.99768
810.7074, 22.09871
811.1895, 22.10271
811.6716, 21.76338
812.1537, 21.17049
812.6359, 20.65463
813.1180, 20.11980
813.6001, 19.87976
814.0822, 20.11280
814.5643, 20.66333
815.0464, 20.99573
815.5286, 21.10919
816.0107, 21.02518
816.4928, 20.58802
816.9749, 20.12898
817.4570, 20.28012
817.9391, 20.84040
818.4213, 21.23485
818.9034, 20.99623
819.3855, 20.75139
819.8676, 20.79719
820.3497, 21.04582
820.8318, 21.19106
821.3140, 21.24246
821.7961, 21.14892
822.2782, 20.83538
822.7603, 20.42776
823.2424, 20.15879
823.7245, 20.04290
824.2067, 20.21224
824.6888, 21.11114
825.1709, 21.82917
825.6530, 21.08314
826.1351, 19.55208
826.6172, 18.76623
827.0994, 20.11729
827.5815, 21.07579
828.0636, 21.00298
828.5457, 20.31147
829.0278, 19.79471
829.5099, 19.44375
829.9921, 19.40482
830.4742, 19.84093
830.9563, 20.35691
831.4384, 20.17723
831.9205, 19.56841
832.4026, 19.23098
832.8848, 19.71547
833.3669, 20.09976
833.8490, 19.69703
834.3311, 18.94027
834.8132, 18.58280
835.2953, 18.80018
835.7775, 19.18443
836.2596, 19.85077
836.7417, 20.46117
837.2238, 20.29854
837.7059, 19.46696
838.1880, 19.02011
838.6702, 19.33611
839.1523, 19.64543
839.6344, 18.81017
840.1165, 17.58713
840.5986, 17.11369
841.0807, 18.41523
841.5629, 19.28343
842.0450, 18.92173
842.5271, 18.17627
843.0092, 17.88049
843.4913, 18.11832
843.9734, 18.35853
844.4556, 18.57752
844.9377, 18.70603
845.4198, 18.63261
845.9019, 18.41281
846.3840, 18.09433
846.8661, 17.61358
847.3483, 17.39526
847.8304, 18.08349
848.3125, 18.89853
848.7946, 19.06295
849.2767, 18.09233
849.7589, 17.65968
850.2410, 17.95887
850.7231, 18.42910
851.2052, 18.58082
851.6873, 18.45804
852.1694, 18.33356
852.6516, 18.22132
853.1337, 18.16920
853.6158, 18.36662
854.0979, 18.54667
854.5800, 18.36700
855.0621, 17.72372
855.5443, 17.31462
856.0264, 17.38923
856.5085, 17.62352
856.9906, 17.87841
857.4727, 18.15263
857.9548, 18.57381
858.4370, 19.17612
858.9191, 19.56308
859.4012, 19.24183
859.8833, 18.63433
860.3654, 18.45608
860.8475, 18.67628
861.3297, 18.84854
861.8118, 18.64233
862.2939, 18.45822
862.7760, 18.58970
863.2581, 18.96763
863.7402, 19.00961
864.2224, 18.60297
864.7045, 18.23612
865.1866, 18.09639
865.6687, 18.14665
866.1508, 18.48051
866.6329, 18.97838
867.1151, 19.11094
867.5972, 18.17002
868.0793, 17.19924
868.5614, 16.89639
869.0435, 17.06492
869.5256, 17.07206
870.0078, 16.65830
870.4899, 16.47371
870.9720, 16.72949
871.4541, 17.18834
871.9362, 17.31937
872.4183, 17.15590
872.9005, 16.94911
873.3826, 16.74839
873.8647, 16.59259
874.3468, 16.45278
874.8289, 16.40197
875.3110, 16.55438
875.7932, 17.38176
876.2753, 17.79105
876.7574, 17.48135
877.2395, 16.93186
877.7216, 16.69394
878.2037, 16.78179
878.6859, 17.02092
879.1680, 17.44226
879.6501, 17.75680
880.1322, 17.54781
880.6143, 17.07510
881.0964, 16.70380
881.5786, 16.50340
882.0607, 16.39616
882.5428, 16.44362
883.0249, 16.50570
883.5070, 16.47956
883.9891, 16.34382
884.4713, 16.26207
884.9534, 16.24978
885.4355, 16.21550
885.9176, 16.00185
886.3997, 15.74090
886.8818, 15.79036
887.3640, 16.12862
887.8461, 16.32999
888.3282, 15.94283
888.8103, 15.55080
889.2924, 15.47607
889.7745, 15.71337
890.2567, 16.09936
890.7388, 16.74211
891.2209, 17.20356
891.7030, 17.32857
892.1851, 17.13335
892.6672, 16.42054
893.1494, 15.35585
893.6315, 14.66685
894.1136, 14.98787
894.5957, 15.51435
895.0778, 15.92062
895.5599, 16.17854
896.0421, 16.20241
896.5242, 15.87220
897.0063, 15.56480
897.4884, 15.32168
897.9705, 15.15877
898.4526, 15.17936
898.9348, 15.32810
899.4169, 15.29479
899.8990, 14.88719
900.3811, 14.63111
900.8632, 15.29858
901.3453, 16.18194
901.8275, 16.45027
902.3096, 15.39182
902.7917, 14.71048
903.2738, 14.49484
903.7559, 14.54227
904.2380, 14.77711
904.7202, 15.15927
905.2023, 15.24761
905.6844, 15.01101
906.1665, 14.71025
906.6486, 14.48158
907.1307, 14.34149
907.6129, 14.33723
908.0950, 14.48142
908.5771, 14.57173
909.0592, 14.50652
909.5413, 14.49643
910.0234, 14.70802
910.5056, 15.05603
910.9877, 14.89592
911.4698, 14.25964
911.9519, 13.74927
912.4340, 13.93411
912.9161, 14.22207
913.3983, 13.87925
913.8804, 13.14645
914.3625, 12.69900
914.8446, 12.92996
915.3267, 13.20867
915.8088, 13.41599
916.2910, 13.61499
916.7731, 14.01300
917.2552, 14.60026
917.7373, 14.88031
918.2194, 14.68155
918.7015, 14.34237
919.1837, 14.20528
919.6658, 14.16869
920.1479, 14.08815
920.6300, 13.88078
921.1121, 13.73414
921.5942, 13.62560
922.0764, 13.63057
922.5585, 13.88861
923.0406, 14.41730
923.5227, 14.60924
924.0048, 14.43010
924.4869, 14.20368
924.9691, 14.22778
925.4512, 14.32551
925.9333, 14.26110
926.4154, 14.03200
926.8975, 13.90136
927.3796, 14.10424
927.8618, 14.23376
928.3439, 14.12979
928.8260, 13.84280
929.3081, 13.60382
929.7902, 13.41263
930.2723, 13.34326
930.7545, 13.50367
931.2366, 13.71434
931.7187, 13.78743
932.2008, 13.75017
932.6829, 13.65864
933.1650, 13.42304
933.6472, 13.27551
934.1293, 13.23472
934.6114, 13.30076
935.0935, 13.57399
935.5756, 14.05109
936.0577, 14.09796
936.5399, 13.56732
937.0220, 13.00803
937.5041, 12.92295
937.9862, 13.13844
938.4683, 13.56394
938.9504, 14.30545
939.4326, 14.57548
939.9147, 13.89479
940.3968, 13.17969
940.8789, 12.94188
941.3610, 13.13436
941.8431, 13.12901
942.3253, 12.92984
942.8074, 12.65331
943.2895, 12.20292
943.7716, 11.85221
944.2537, 12.00284
944.7358, 12.49417
945.2180, 12.71944
945.7001, 12.10451
946.1822, 11.85620
946.6643, 12.34085
947.1464, 13.15512
947.6285, 13.44707
948.1107, 13.27083
948.5928, 12.96507
949.0749, 12.52869
949.5570, 12.26872
950.0391, 12.69973
950.5212, 13.33924
951.0034, 13.62020
951.4855, 13.27646
951.9676, 12.94351
952.4497, 12.60334
952.9318, 12.32519
953.4139, 12.14800
953.8961, 12.07623
954.3782, 12.20752
954.8603, 12.52386
955.3424, 12.74771
955.8245, 12.55970
956.3066, 12.32928
956.7888, 12.36974
957.2709, 12.63997
957.7530, 12.71230
958.2351, 12.46781
958.7172, 12.27646
959.1993, 12.24369
959.6815, 12.31308
960.1636, 12.39574
960.6457, 12.47959
961.1278, 12.51637
961.6099, 12.45068
962.0920, 12.41663
962.5742, 12.51986
963.0563, 12.67983
963.5384, 12.82348
964.0205, 13.03824
964.5026, 12.90896
964.9847, 12.31512
965.4669, 11.79848
965.9490, 11.98777
966.4311, 12.57672
966.9132, 13.00144
967.3953, 13.21479
967.8774, 13.17603
968.3596, 12.56112
968.8417, 11.98944
969.3238, 11.77354
969.8059, 11.85315
970.2880, 12.00822
970.7701, 12.26113
971.2523, 12.40000
971.7344, 12.31397
972.2165, 12.14836
972.6986, 12.03050
973.1807, 12.00379
973.6628, 12.16489
974.1450, 12.81834
974.6271, 13.20417
975.1092, 13.04968
975.5913, 12.70014
976.0734, 12.43757
976.5555, 12.26301
977.0377, 12.15474
977.5198, 12.11365
978.0019, 12.13667
978.4840, 12.28189
978.9661, 12.44870
979.4482, 12.53968
979.9304, 12.55044
980.4125, 12.53471
980.8946, 12.60361
981.3767, 12.46007
981.8588, 11.87743
982.3409, 11.12871
982.8231, 11.08716
983.3052, 11.62232
983.7873, 12.04445
984.2694, 12.05384
984.7515, 11.98360
985.2336, 12.04748
985.7158, 12.17780
986.1979, 12.28871
986.6800, 12.37985
987.1621, 12.41523
987.6442, 12.35086
988.1263, 12.35457
988.6085, 12.70415
989.0906, 13.20865
989.5727, 13.34730
990.0548, 13.12647
990.5369, 12.89563
991.0190, 12.84820
991.5012, 12.82135
991.9833, 12.72426
992.4654, 12.58495
992.9475, 12.52714
993.4296, 12.57070
993.9117, 12.49364
994.3939, 12.17289
994.8760, 11.83170
995.3581, 11.77492
995.8402, 11.90243
996.3223, 12.08241
996.8044, 12.46025
997.2866, 12.46069
997.7687, 11.70334
998.2508, 10.92509
998.7329, 10.67048
999.2150, 10.92504
999.6971, 11.44467
1000.179, 12.20306
1000.661, 12.79510
1001.143, 12.89679
1001.626, 12.75556
1002.108, 12.42940
1002.590, 12.00201
1003.072, 11.84344
1003.554, 12.13163
1004.036, 12.29674
1004.518, 12.20631
1005.000, 11.97161
1005.483, 11.72706
1005.965, 11.49546
1006.447, 11.33365
1006.929, 11.24205
1007.411, 11.27279
1007.893, 11.54786
1008.375, 11.88167
1008.857, 12.15123
1009.339, 12.36077
1009.822, 12.43901
1010.304, 12.37339
1010.786, 12.31334
1011.268, 12.41900
1011.750, 12.53786
1012.232, 12.42784
1012.714, 12.16600
1013.196, 11.97596
1013.679, 12.11042
1014.161, 12.04029
1014.643, 11.54385
1015.125, 10.99303
1015.607, 11.02507
1016.089, 11.53085
1016.571, 11.83747
1017.053, 11.83841
1017.535, 11.72655
1018.018, 11.49929
1018.500, 11.33404
1018.982, 11.43437
1019.464, 11.81677
1019.946, 11.97190
1020.428, 11.81282
1020.910, 11.76779
1021.392, 12.14880
1021.875, 12.61486
1022.357, 12.32191
1022.839, 11.59955
1023.321, 11.22918
1023.803, 11.86678
1024.285, 12.35355
1024.767, 12.27020
1025.249, 12.03679
1025.731, 12.08850
1026.214, 12.43065
1026.696, 12.45516
1027.178, 12.12304
1027.660, 11.87640
1028.142, 12.19187
1028.624, 12.63875
1029.106, 12.84090
1029.588, 12.80624
1030.071, 12.80526
1030.553, 12.96066
1031.035, 12.87052
1031.517, 12.30259
1031.999, 11.66833
1032.481, 11.82735
1032.963, 12.49924
1033.445, 13.00390
1033.927, 13.21616
1034.410, 13.11024
1034.892, 12.26819
1035.374, 11.44883
1035.856, 11.19349
1036.338, 11.51195
1036.820, 11.86065
1037.302, 12.23592
1037.784, 12.55315
1038.266, 12.83496
1038.749, 12.96704
1039.231, 12.73388
1039.713, 12.26556
1040.195, 11.87149
1040.677, 11.48519
1041.159, 11.43110
1041.641, 11.84874
1042.123, 12.38280
1042.605, 12.59352
1043.088, 12.57178
1043.570, 12.59093
1044.052, 12.67958
1044.534, 12.65479
1045.016, 12.19505
1045.498, 11.82514
1045.980, 11.86415
1046.462, 12.21790
1046.945, 12.50282
1047.427, 12.72438
1047.909, 12.75276
1048.391, 12.46030
1048.873, 12.15868
1049.355, 12.29565
1049.837, 12.57943
1050.319, 12.57591
1050.802, 11.87253
1051.284, 11.75212
1051.766, 12.51155
1052.248, 13.21497
1052.730, 13.02287
1053.212, 12.27226
1053.694, 12.01724
1054.176, 12.18556
1054.658, 12.42423
1055.141, 12.74641
1055.623, 12.88614
1056.105, 12.61704
1056.587, 12.18709
1057.069, 11.92772
1057.551, 11.83936
1058.033, 11.95275
1058.515, 12.29582
1058.998, 12.63130
1059.480, 12.86313
1059.962, 12.90470
1060.444, 12.52619
1060.926, 11.72134
1061.408, 11.40116
1061.890, 11.79461
1062.372, 12.11236
1062.854, 12.05305
1063.337, 11.82109
1063.819, 11.78265
1064.301, 11.87779
1064.783, 11.98859
1065.265, 12.12159
1065.747, 12.16630
1066.229, 12.02934
1066.711, 11.84776
1067.193, 11.65784
1067.676, 11.47229
1068.158, 11.58231
1068.640, 11.96856
1069.122, 12.33273
1069.604, 12.53529
1070.086, 12.61516
1070.568, 12.59405
1071.050, 12.46948
1071.532, 12.20972
1072.015, 11.69054
1072.497, 11.53446
1072.979, 11.88068
1073.461, 12.24730
1073.943, 11.95769
1074.425, 11.45536
1074.907, 11.43081
1075.389, 11.91751
1075.872, 12.26434
1076.354, 12.23169
1076.836, 12.14393
1077.318, 12.08363
1077.800, 12.02235
1078.282, 11.83484
1078.764, 11.58158
1079.246, 11.49450
1079.729, 11.66372
1080.211, 11.89376
1080.693, 12.22365
1081.175, 12.44471
1081.657, 12.38226
1082.139, 12.03745
1082.621, 11.64583
1083.103, 11.19797
1083.585, 11.10949
1084.068, 12.03912
1084.550, 12.96578
1085.032, 12.70640
1085.514, 11.79520
1085.996, 11.19073
1086.478, 11.10850
1086.960, 11.12154
1087.442, 11.22742
1087.925, 11.39397
1088.407, 11.75969
1088.889, 12.09133
1089.371, 11.80667
1089.853, 11.00032
1090.335, 10.42095
1090.817, 10.39946
1091.299, 10.61236
1091.781, 11.11516
1092.264, 11.65944
1092.746, 11.69631
1093.228, 10.23911
1093.710, 11.60906
1094.192, 12.37503
1094.674, 12.56948
1095.156, 10.48064
1095.638, 11.34019
1096.120, 11.01816
1096.603, 10.64766
1097.085, 11.92219
1097.567, 10.16545
1098.049, 11.41389
1098.531, 11.46272
1099.013, 12.06058
1099.495, 11.46956
1099.977, 11.24574
1100.459, 12.21120
1100.942, 12.51812
1101.424, 11.79024
1101.906, 12.42300
1102.388, 10.62473
1102.870, 10.95972
1103.352, 12.21512
1103.834, 11.54702
1104.316, 12.20152
1104.799, 12.35227
1105.281, 10.21385
1105.763, 12.05658
1106.245, 12.17759
1106.727, 10.53078
1107.209, 12.23709
1107.691, 10.83399
1108.173, 10.54076
1108.656, 11.08276
1109.138, 10.75406
1109.620, 11.79815
1110.102, 11.51974
1110.584, 11.12316
1111.066, 11.24224
1111.548, 10.88578
1112.030, 11.26882
1112.512, 10.78580
1112.995, 11.22321
1113.477, 11.86927
1113.959, 10.91784
1114.441, 11.65765
1114.923, 9.774740
1115.405, 10.08635
1115.887, 10.16165
1116.369, 11.63964
1116.852, 9.769503
1117.334, 10.02014
1117.816, 11.17377
1118.298, 11.06391
1118.780, 11.48232
1119.262, 10.33683
1119.744, 10.66050
1120.226, 10.57922
1120.708, 11.89729
1121.191, 12.11062
1121.673, 10.99166
1122.155, 9.878345
1122.637, 11.29713
1123.119, 10.31597
1123.601, 10.62955
1124.083, 9.605930
1124.565, 9.736886
1125.047, 9.849531
1125.530, 10.55402
1126.012, 10.42411
1126.494, 10.70165
1126.976, 10.59395
1127.458, 10.88259
1127.940, 11.12714
1128.422, 11.27763
1128.904, 10.99706
1129.386, 11.52228
1129.869, 10.32937
1130.351, 9.788390
1130.833, 9.710831
1131.315, 11.82039
1131.797, 11.89705
1132.279, 9.543773
1132.761, 11.55696
1133.243, 10.88380
1133.726, 11.00892
1134.208, 10.84282
1134.690, 10.76292
1135.172, 10.12717
1135.654, 9.978311
1136.136, 10.18645
1136.618, 10.53172
1137.100, 10.90553
1137.583, 11.19990
1138.065, 11.22541
1138.547, 11.44175
1139.029, 10.91351
1139.511, 11.43960
1139.993, 11.72827
1140.475, 11.39538
1140.957, 10.81000
1141.439, 10.45557
1141.922, 10.29770
1142.404, 10.30252
1142.886, 10.60261
1143.368, 10.66265
1143.850, 10.36248
1144.332, 10.00817
1144.814, 9.732902
1145.296, 9.572021
1145.779, 9.673047
1146.261, 9.967326
1146.743, 10.25751
1147.225, 10.42046
1147.707, 10.64406
1148.189, 11.06948
1148.671, 11.41616
1149.153, 11.36259
1149.635, 11.00728
1150.118, 10.79909
1150.600, 10.74487
1151.082, 10.80023
1151.564, 11.18538
1152.046, 11.37031
1152.528, 11.00076
1153.010, 10.46302
1153.492, 10.34486
1153.974, 10.58939
1154.457, 10.45234
1154.939, 9.877349
1155.421, 9.421000
1155.903, 9.540310
1156.385, 9.809505
1156.867, 10.04466
1157.349, 10.22650
1157.831, 10.29945
1158.313, 10.26169
1158.796, 10.21998
1159.278, 10.18161
1159.760, 10.22854
1160.242, 10.66661
1160.724, 11.02524
1161.206, 10.78197
1161.688, 10.03919
1162.170, 9.631578
1162.653, 9.570204
1163.135, 9.754661
1163.617, 10.25484
1164.099, 10.66177
1164.581, 10.36687
1165.063, 9.871587
1165.545, 9.769568
1166.027, 10.17105
1166.510, 10.27513
1166.992, 10.03236
1167.474, 9.768991
1167.956, 9.606662
1168.438, 9.504837
1168.920, 9.289762
1169.402, 9.151241
1169.884, 9.433700
1170.366, 10.48812
1170.849, 10.94543
1171.331, 10.66495
1171.813, 10.27477
1172.295, 10.06659
1172.777, 10.02194
1173.259, 10.23798
1173.741, 10.56499
1174.223, 10.69914
1174.706, 10.38363
1175.188, 10.18035
1175.670, 10.11554
1176.152, 10.10900
1176.634, 10.16370
1177.116, 10.20272
1177.598, 9.991032
1178.080, 9.629256
1178.563, 9.422193
1179.045, 9.623454
1179.527, 9.749510
1180.009, 9.739595
1180.491, 9.696184
1180.973, 9.816321
1181.455, 9.944570
1181.937, 9.543196
1182.419, 8.752673
1182.901, 8.317317
1183.384, 8.753910
1183.866, 9.312010
1184.348, 10.02089
1184.830, 10.54216
1185.312, 10.19002
1185.794, 9.367789
1186.276, 9.192520
1186.758, 9.697614
1187.240, 10.26825
1187.723, 11.02562
1188.205, 11.23088
1188.687, 10.47369
1189.169, 9.424978
1189.651, 9.284822
1190.133, 9.762681
1190.615, 9.975465
1191.097, 9.806351
1191.580, 9.562381
1192.062, 9.036503
1192.544, 8.928500
1193.026, 9.624552
1193.508, 10.69113
1193.990, 11.26791
1194.472, 11.40187
1194.954, 11.16391
1195.437, 10.51837
1195.919, 9.986625
1196.401, 9.798852
1196.883, 9.796846
1197.365, 9.943532
1197.847, 10.20058
1198.329, 10.61944
1198.811, 11.06669
1199.293, 10.91134
1199.776, 9.802301
1200.258, 9.006736
1200.740, 9.460055
1201.222, 10.02029
1201.704, 10.12992
1202.186, 9.889510
1202.668, 9.604260
1203.150, 9.312704
1203.633, 9.162749
1204.115, 9.198108
1204.597, 9.391696
1205.079, 10.02749
1205.561, 10.50592
1206.043, 10.37577
1206.525, 9.804297
1207.007, 9.682731
1207.490, 9.919401
1207.972, 10.10242
1208.454, 10.08313
1208.936, 9.960053
1209.418, 9.616977
1209.900, 9.335922
1210.382, 9.332959
1210.864, 9.561918
1211.346, 9.764724
1211.828, 9.919764
1212.311, 9.906459
1212.793, 9.511047
1213.275, 9.182292
1213.757, 9.054425
1214.239, 9.088599
1214.721, 9.366695
1215.203, 9.820482
1215.685, 9.829391
1216.167, 9.483274
1216.650, 9.262729
1217.132, 9.572477
1217.614, 9.830628
1218.096, 9.897029
1218.578, 9.798085
1219.060, 9.406681
1219.542, 8.824589
1220.024, 8.824574
1220.507, 9.326828
1220.989, 9.811846
1221.471, 10.13881
1221.953, 10.24446
1222.435, 9.952186
1222.917, 9.632184
1223.399, 9.747999
1223.881, 10.17908
1224.364, 10.32528
1224.846, 10.19466
1225.328, 9.963187
1225.810, 9.591605
1226.292, 9.306559
1226.774, 9.224857
1227.256, 9.159801
1227.738, 8.814012
1228.220, 8.304560
1228.703, 8.030921
1229.185, 8.005479
1229.667, 8.146994
1230.149, 8.708924
1230.631, 9.011261
1231.113, 8.782601
1231.595, 8.441677
1232.077, 8.581247
1232.560, 9.027920
1233.042, 9.292523
1233.524, 9.361982
1234.006, 9.434072
1234.488, 9.625837
1234.970, 9.769321
1235.452, 9.813973
1235.934, 9.831698
1236.417, 9.978052
1236.899, 9.883904
1237.381, 10.06940
1237.863, 9.742904
1238.345, 9.480942
1238.827, 9.390706
1239.309, 9.376999
1239.791, 9.436987
1240.273, 9.542822
1240.755, 9.671708
1241.238, 9.815040
1241.720, 10.00763
1242.202, 10.23181
1242.684, 10.24098
1243.166, 9.849087
1243.648, 9.531870
1244.130, 9.368183
1244.612, 9.329144
1245.094, 9.542826
1245.577, 9.764227
1246.059, 9.449832
1246.541, 8.624179
1247.023, 8.428701
1247.505, 9.220630
1247.987, 9.825205
1248.469, 9.970107
1248.951, 9.947968
1249.434, 10.17271
1249.916, 10.40067
1250.398, 10.27985
1250.880, 9.808095
1251.362, 9.501377
1251.844, 9.418689
1252.326, 9.293349
1252.808, 9.035233
1253.291, 8.860453
1253.773, 9.119872
1254.255, 9.489053
1254.737, 9.637397
1255.219, 9.563131
1255.701, 9.562606
1256.183, 9.661139
1256.665, 9.566195
1257.147, 9.164381
1257.630, 8.826193
1258.112, 8.992722
1258.594, 9.291203
1259.076, 9.427464
1259.558, 9.414687
1260.040, 9.323178
1260.522, 9.154799
1261.004, 8.960604
1261.487, 8.716949
1261.969, 8.691362
1262.451, 9.399081
1262.933, 10.08511
1263.415, 10.17257
1263.897, 10.50493
1264.379, 10.56254
1264.861, 10.32964
1265.344, 10.27010
1265.826, 9.544967
1266.308, 8.951755
1266.790, 9.017431
1267.272, 9.295358
1267.754, 9.642071
1268.236, 9.959642
1268.718, 9.933672
1269.200, 9.654962
1269.682, 9.458945
1270.165, 9.419086
1270.647, 9.362214
1271.129, 9.069540
1271.611, 8.952543
1272.093, 9.190539
1272.575, 9.614735
1273.057, 10.00041
1273.539, 10.28302
1274.021, 10.21680
1274.504, 9.711247
1274.986, 9.558622
1275.468, 10.19897
1275.950, 10.51759
1276.432, 10.06729
1276.914, 9.394058
1277.396, 9.441438
1277.878, 9.780835
1278.361, 9.615259
1278.843, 9.892905
1279.325, 10.30070
1279.807, 10.09029
1280.289, 10.24888
1280.771, 10.69099
1281.253, 10.15079
1281.735, 10.02733
1282.218, 10.01254
1282.700, 9.635493
1283.182, 9.736359
1283.664, 8.913787
1284.146, 9.673650
1284.628, 10.11656
1285.110, 9.911080
1285.592, 9.643365
1286.074, 9.907261
1286.557, 10.25559
1287.039, 10.31738
1287.521, 10.16604
1288.003, 10.04779
1288.485, 9.970203
1288.967, 10.08941
1289.449, 10.48245
1289.931, 10.69130
1290.414, 10.27142
1290.896, 9.755744
1291.378, 9.344800
1291.860, 9.082903
1292.342, 9.136323
1292.824, 9.434675
1293.306, 9.786154
1293.788, 10.17032
1294.271, 10.37443
1294.753, 10.09752
1295.235, 9.918278
1295.717, 10.02472
1296.199, 10.24339
1296.681, 10.36165
1297.163, 10.34126
1297.645, 9.997413
1298.127, 9.311477
1298.609, 8.991973
1299.092, 9.189746
1299.574, 9.543839
1300.056, 10.03958
1300.538, 10.43676
1301.020, 10.29513
1301.502, 10.00114
1301.984, 10.08570
1302.466, 10.51546
1302.948, 10.55068
1303.431, 10.12646
1303.913, 9.760332
1304.395, 9.537946
##END=



