##NAMES=Pyrope
##RRUFFID=R060445
##IDEAL CHEMISTRY=Mg_3_Al_2_(SiO_4_)_3_
##LOCALITY=Tanzania
##OWNER=RRUFF
##SOURCE=Gemological Institute of America
##DESCRIPTION=Deep red water worn pebble, variety rhodolite
##STATUS=The identification of this mineral has been confirmed by X-ray diffraction and chemical analysis
##URL=rruff.info/R060445
##MEASURED CHEMISTRY=(Mg_1.83_Fe_1.08_Ca_0.07_Mn_0.02_)_Î£=3_Al_2.00_(Si_1.00_O_4_)_3_
92.37695, 32.12938
92.85907, 31.65591
93.34119, 31.80595
93.82330, 32.37925
94.30542, 32.69722
94.78754, 32.51223
95.26965, 31.93647
95.75177, 31.23684
96.23389, 30.44934
96.71600, 29.64472
97.19812, 28.89097
97.68024, 28.19100
98.16235, 27.57439
98.64447, 27.08349
99.12659, 26.72997
99.60870, 26.39881
100.0908, 26.18370
100.5729, 26.01709
101.0551, 25.81508
101.5372, 25.52336
102.0193, 25.16970
102.5014, 24.92209
102.9835, 24.79583
103.4656, 24.76390
103.9478, 24.92871
104.4299, 25.18624
104.9120, 25.34159
105.3941, 25.22404
105.8762, 24.79264
106.3583, 24.51661
106.8405, 24.55134
107.3226, 24.57530
107.8047, 24.38346
108.2868, 23.96460
108.7689, 23.47100
109.2510, 23.04525
109.7332, 22.68537
110.2153, 22.44284
110.6974, 22.41831
111.1795, 22.49244
111.6616, 22.45083
112.1437, 22.18093
112.6259, 21.94105
113.1080, 22.05228
113.5901, 22.48368
114.0722, 22.92006
114.5543, 23.17330
115.0364, 23.25038
115.5185, 23.26786
116.0007, 23.16124
116.4828, 23.06611
116.9649, 23.07505
117.4470, 23.20031
117.9291, 23.37478
118.4112, 23.49826
118.8934, 23.51282
119.3755, 23.62277
119.8576, 23.90444
120.3397, 24.24501
120.8218, 24.59935
121.3039, 24.94537
121.7861, 25.22855
122.2682, 25.29058
122.7503, 24.70231
123.2324, 24.34898
123.7145, 24.45865
124.1966, 24.81518
124.6788, 25.10147
125.1609, 25.12862
125.6430, 24.93231
126.1251, 24.82714
126.6072, 24.82293
127.0893, 24.87185
127.5715, 25.04228
128.0536, 25.28971
128.5357, 25.38716
129.0178, 25.06814
129.4999, 24.43524
129.9821, 24.13117
130.4642, 24.50219
130.9463, 25.04066
131.4284, 25.14670
131.9105, 24.70254
132.3926, 24.28396
132.8748, 24.46473
133.3569, 24.98732
133.8390, 25.40063
134.3211, 25.40888
134.8032, 25.14324
135.2853, 25.07833
135.7674, 25.38489
136.2496, 25.66950
136.7317, 25.66456
137.2138, 25.46956
137.6959, 25.34113
138.1780, 25.55162
138.6601, 26.15670
139.1423, 26.51002
139.6244, 26.33525
140.1065, 26.12863
140.5886, 26.04792
141.0707, 26.11426
141.5528, 26.27937
142.0350, 26.49862
142.5171, 26.81588
142.9992, 27.07160
143.4813, 27.30416
143.9634, 27.46399
144.4455, 27.51139
144.9277, 27.43832
145.4098, 27.27343
145.8919, 27.04805
146.3740, 26.62847
146.8561, 26.41371
147.3382, 26.60696
147.8204, 26.95388
148.3025, 27.11197
148.7846, 26.93684
149.2667, 26.61678
149.7488, 26.58057
150.2309, 26.92407
150.7131, 27.16154
151.1952, 27.03011
151.6773, 26.63247
152.1594, 26.30569
152.6415, 26.22094
153.1236, 26.22274
153.6058, 26.05264
154.0879, 25.66157
154.5700, 25.25185
155.0521, 25.00620
155.5342, 24.93350
156.0163, 24.84074
156.4985, 24.63416
156.9806, 24.38690
157.4627, 24.13832
157.9448, 23.88789
158.4269, 23.67957
158.9090, 23.59588
159.3912, 23.69501
159.8733, 23.77552
160.3554, 23.87109
160.8375, 23.89301
161.3196, 23.70794
161.8017, 23.24131
162.2839, 22.63382
162.7660, 22.32563
163.2481, 22.67088
163.7302, 22.85030
164.2123, 22.60384
164.6944, 22.17167
165.1766, 21.87160
165.6587, 21.89255
166.1408, 22.16611
166.6229, 22.23662
167.1050, 21.88647
167.5871, 21.57130
168.0693, 21.33339
168.5514, 21.19803
169.0335, 21.22299
169.5156, 21.47409
169.9977, 21.92522
170.4798, 22.13989
170.9620, 22.04171
171.4441, 21.83823
171.9262, 21.54786
172.4083, 21.20638
172.8904, 20.93458
173.3725, 20.82226
173.8547, 20.87733
174.3368, 20.98681
174.8189, 21.19683
175.3010, 21.42958
175.7831, 21.62294
176.2652, 21.77431
176.7474, 21.90963
177.2295, 22.01433
177.7116, 22.11807
178.1937, 22.29496
178.6758, 22.61311
179.1579, 22.99496
179.6401, 23.34791
180.1222, 23.68755
180.6043, 23.94288
181.0864, 23.98690
181.5685, 23.92774
182.0506, 23.94677
182.5328, 24.20059
183.0149, 24.58473
183.4970, 24.75704
183.9791, 24.58868
184.4612, 24.39310
184.9433, 24.34560
185.4255, 24.36963
185.9076, 24.31029
186.3897, 23.98603
186.8718, 23.45261
187.3539, 23.33985
187.8360, 24.15914
188.3182, 24.88711
188.8003, 25.18553
189.2824, 25.16182
189.7645, 25.06656
190.2466, 25.09121
190.7287, 25.24125
191.2109, 25.38284
191.6930, 25.46606
192.1751, 25.58925
192.6572, 25.82117
193.1393, 26.12732
193.6214, 26.40996
194.1036, 26.56650
194.5857, 26.56079
195.0678, 26.74273
195.5499, 27.26331
196.0320, 27.78932
196.5141, 28.11573
196.9963, 28.27507
197.4784, 28.46510
197.9605, 28.86677
198.4426, 29.51184
198.9247, 30.21242
199.4068, 31.00464
199.8890, 31.81822
200.3711, 32.56464
200.8532, 33.25274
201.3353, 34.03260
201.8174, 35.11459
202.2995, 36.51585
202.7817, 37.62955
203.2638, 38.14069
203.7459, 38.52450
204.2280, 39.24199
204.7101, 40.35461
205.1922, 41.59173
205.6744, 42.79706
206.1565, 43.95296
206.6386, 44.92591
207.1207, 45.66056
207.6028, 46.20866
208.0849, 46.67932
208.5671, 47.12684
209.0492, 47.32367
209.5313, 47.01564
210.0134, 46.32873
210.4955, 45.44828
210.9776, 44.41698
211.4598, 43.23863
211.9419, 41.87880
212.4240, 40.25316
212.9061, 38.63626
213.3882, 37.16163
213.8703, 35.80827
214.3525, 34.55308
214.8346, 33.45037
215.3167, 32.43752
215.7988, 31.27093
216.2809, 29.74027
216.7630, 28.38962
217.2451, 27.49743
217.7273, 26.90976
218.2094, 26.35802
218.6915, 25.68238
219.1736, 24.90730
219.6557, 24.18093
220.1378, 23.47170
220.6200, 22.86947
221.1021, 22.43719
221.5842, 22.11850
222.0663, 21.82134
222.5484, 21.48581
223.0305, 21.11943
223.5127, 20.79386
223.9948, 20.52926
224.4769, 20.29308
224.9590, 20.03474
225.4411, 19.80324
225.9232, 19.69628
226.4054, 19.79484
226.8875, 20.07186
227.3696, 20.21061
227.8517, 20.21971
228.3338, 20.07217
228.8159, 19.59680
229.2981, 18.96813
229.7802, 18.49241
230.2623, 18.37718
230.7444, 18.58568
231.2265, 18.70403
231.7086, 18.58439
232.1908, 18.54223
232.6729, 18.78552
233.1550, 19.16133
233.6371, 19.33606
234.1192, 19.07302
234.6013, 18.46511
235.0835, 18.22398
235.5656, 18.54888
236.0477, 18.93938
236.5298, 19.33482
237.0119, 19.68724
237.4940, 19.90380
237.9762, 19.91941
238.4583, 19.77009
238.9404, 19.62611
239.4225, 19.40609
239.9046, 19.27581
240.3867, 19.31760
240.8689, 19.49442
241.3510, 19.74700
241.8331, 20.09527
242.3152, 20.44159
242.7973, 20.48977
243.2794, 20.05293
243.7616, 19.66802
244.2437, 19.62072
244.7258, 19.81845
245.2079, 19.96937
245.6900, 19.91846
246.1721, 19.79794
246.6543, 19.89332
247.1364, 20.28745
247.6185, 20.64846
248.1006, 20.78569
248.5827, 20.74681
249.0648, 20.70145
249.5470, 20.69949
250.0291, 20.72413
250.5112, 20.76179
250.9933, 20.82322
251.4754, 20.83943
251.9576, 20.68994
252.4397, 20.43661
252.9218, 20.37795
253.4039, 20.71382
253.8860, 21.11649
254.3681, 21.19650
254.8503, 20.95611
255.3324, 20.72421
255.8145, 20.76585
256.2966, 21.01276
256.7787, 21.09199
257.2608, 20.80894
257.7430, 20.51586
258.2251, 20.51956
258.7072, 20.78503
259.1893, 21.08077
259.6714, 21.26329
260.1535, 21.35103
260.6357, 21.45754
261.1178, 21.64784
261.5999, 21.77629
262.0820, 21.74145
262.5641, 21.57750
263.0462, 21.39021
263.5284, 21.19427
264.0105, 21.01257
264.4926, 20.99948
264.9747, 21.29292
265.4568, 21.56110
265.9389, 21.62155
266.4211, 21.54248
266.9032, 21.45802
267.3853, 21.42037
267.8674, 21.44177
268.3495, 21.59546
268.8316, 21.99890
269.3138, 22.35836
269.7959, 22.65766
270.2780, 22.83446
270.7601, 22.75150
271.2422, 22.25249
271.7243, 21.53007
272.2065, 21.26682
272.6886, 21.77097
273.1707, 22.23430
273.6528, 22.38058
274.1349, 22.39035
274.6170, 22.48978
275.0992, 22.79477
275.5813, 23.18413
276.0634, 23.34187
276.5455, 23.13846
277.0276, 22.93604
277.5097, 22.78817
277.9919, 22.67905
278.4740, 22.59075
278.9561, 22.51658
279.4382, 22.47019
279.9203, 22.47953
280.4024, 22.56257
280.8846, 22.66767
281.3667, 22.79642
281.8488, 22.93608
282.3309, 23.10409
282.8130, 23.29461
283.2951, 23.44534
283.7773, 23.44318
284.2594, 23.19154
284.7415, 23.02742
285.2236, 22.99255
285.7057, 23.00794
286.1878, 23.02905
286.6700, 23.05036
287.1521, 23.09554
287.6342, 23.20947
288.1163, 23.43698
288.5984, 23.54878
289.0805, 23.53375
289.5627, 23.42545
290.0448, 23.12355
290.5269, 22.70962
291.0090, 22.42839
291.4911, 22.54249
291.9732, 23.10147
292.4554, 23.41614
292.9375, 23.22082
293.4196, 23.05058
293.9017, 23.14014
294.3838, 23.39458
294.8659, 23.56055
295.3481, 23.43234
295.8302, 23.04960
296.3123, 22.95759
296.7944, 23.46837
297.2765, 23.95138
297.7586, 24.27535
298.2408, 24.49747
298.7229, 24.72864
299.2050, 25.03421
299.6871, 25.36471
300.1692, 25.52384
300.6513, 25.31100
301.1335, 25.15721
301.6156, 25.08553
302.0977, 25.09599
302.5798, 25.19576
303.0619, 25.38634
303.5440, 25.64230
304.0262, 25.91991
304.5083, 26.28783
304.9904, 26.56399
305.4725, 26.59228
305.9546, 26.62800
306.4367, 26.94701
306.9189, 27.58289
307.4010, 28.27335
307.8831, 28.62394
308.3652, 28.40124
308.8473, 28.45040
309.3294, 28.77787
309.8116, 29.31782
310.2937, 30.15206
310.7758, 31.20651
311.2579, 32.20849
311.7400, 32.83957
312.2221, 32.99798
312.7043, 33.56708
313.1864, 34.95260
313.6685, 36.29105
314.1506, 37.23513
314.6327, 37.84801
315.1148, 38.35746
315.5970, 38.92185
316.0791, 39.53496
316.5612, 40.10833
317.0433, 40.88276
317.5254, 41.35289
318.0075, 41.35143
318.4897, 40.98608
318.9718, 40.38659
319.4539, 39.61251
319.9360, 38.71832
320.4181, 37.86343
320.9002, 36.85923
321.3824, 36.17221
321.8645, 35.95698
322.3466, 35.99919
322.8287, 36.14329
323.3108, 36.32278
323.7929, 36.47602
324.2751, 36.46428
324.7572, 35.99282
325.2393, 35.95296
325.7214, 36.60793
326.2035, 37.43488
326.6856, 38.11549
327.1678, 38.59375
327.6499, 38.97156
328.1320, 39.34891
328.6141, 39.71142
329.0962, 40.15437
329.5783, 40.51955
330.0605, 41.09885
330.5426, 42.10743
331.0247, 43.45055
331.5068, 44.86814
331.9889, 46.16825
332.4710, 47.36001
332.9532, 48.59014
333.4353, 49.74664
333.9174, 51.08331
334.3995, 52.73836
334.8816, 54.58015
335.3637, 56.45809
335.8459, 58.28915
336.3280, 60.04956
336.8101, 61.60563
337.2922, 62.77827
337.7743, 64.01264
338.2564, 65.23551
338.7386, 66.59354
339.2206, 68.32434
339.7028, 70.45744
340.1849, 72.64130
340.6670, 74.28415
341.1491, 74.99748
341.6312, 76.13689
342.1133, 77.99461
342.5955, 79.96817
343.0776, 81.70847
343.5597, 83.22653
344.0418, 84.74064
344.5239, 86.39404
345.0060, 88.16465
345.4882, 90.46165
345.9703, 93.63857
346.4524, 97.05115
346.9345, 100.5485
347.4166, 104.1642
347.8987, 108.0101
348.3809, 112.1527
348.8630, 116.5435
349.3451, 120.8562
349.8272, 124.7553
350.3093, 129.2134
350.7914, 134.6041
351.2736, 140.4768
351.7557, 146.4257
352.2378, 152.3216
352.7199, 158.1022
353.2020, 163.8358
353.6841, 169.9790
354.1663, 174.6186
354.6484, 176.8690
355.1305, 178.1314
355.6126, 179.4208
356.0947, 180.6616
356.5768, 180.7651
357.0590, 178.5016
357.5411, 173.8234
358.0232, 168.5147
358.5053, 162.4438
358.9874, 155.8163
359.4695, 148.4394
359.9517, 140.6341
360.4338, 133.0215
360.9159, 125.8948
361.3980, 119.2652
361.8801, 113.0924
362.3622, 107.4990
362.8444, 102.1794
363.3265, 96.82900
363.8086, 91.74566
364.2907, 87.26536
364.7728, 83.48242
365.2549, 80.23481
365.7371, 77.35190
366.2192, 74.83293
366.7013, 72.58099
367.1834, 70.64629
367.6655, 68.93958
368.1476, 67.44514
368.6298, 66.14167
369.1119, 64.89154
369.5940, 63.51517
370.0761, 62.08448
370.5582, 60.98936
371.0403, 60.37959
371.5225, 59.90289
372.0046, 59.45532
372.4867, 58.95855
372.9688, 58.19031
373.4509, 56.91522
373.9330, 55.41948
374.4152, 54.15994
374.8973, 53.17730
375.3794, 52.12656
375.8615, 50.83652
376.3436, 49.37399
376.8257, 47.83548
377.3079, 46.20858
377.7900, 44.54901
378.2721, 42.86099
378.7542, 41.16242
379.2363, 39.54963
379.7184, 38.07899
380.2006, 36.64016
380.6827, 35.01540
381.1648, 33.20855
381.6469, 31.60378
382.1290, 30.41582
382.6111, 29.45677
383.0933, 28.46339
383.5754, 27.39774
384.0575, 26.38450
384.5396, 25.53140
385.0217, 24.82696
385.5038, 24.09001
385.9860, 23.13404
386.4681, 22.31280
386.9502, 21.95174
387.4323, 21.93377
387.9144, 21.84815
388.3965, 21.49933
388.8787, 20.96627
389.3608, 20.44691
389.8429, 19.95801
390.3250, 19.44083
390.8071, 18.72123
391.2892, 18.03668
391.7714, 17.76421
392.2535, 17.97188
392.7356, 18.26563
393.2177, 18.17139
393.6998, 17.58042
394.1819, 17.10165
394.6641, 16.82121
395.1462, 16.56267
395.6283, 16.15620
396.1104, 15.67639
396.5925, 15.39119
397.0746, 15.50560
397.5568, 15.91193
398.0389, 16.00392
398.5210, 15.36324
399.0031, 14.90646
399.4852, 14.90812
399.9673, 15.06340
400.4495, 15.01471
400.9316, 14.65724
401.4137, 14.17744
401.8958, 13.84854
402.3779, 13.68070
402.8600, 13.65026
403.3422, 13.90692
403.8243, 14.14807
404.3064, 14.18606
404.7885, 14.06405
405.2706, 13.95671
405.7527, 14.00737
406.2349, 14.18920
406.7170, 14.29255
407.1991, 14.35172
407.6812, 14.26592
408.1633, 13.85167
408.6454, 13.36471
409.1276, 13.12441
409.6097, 13.25162
410.0918, 13.50501
410.5739, 13.48622
411.0560, 13.11508
411.5381, 12.90526
412.0203, 13.14237
412.5024, 13.39024
412.9845, 13.37390
413.4666, 13.12233
413.9487, 12.85391
414.4308, 12.69487
414.9130, 12.63765
415.3951, 12.67432
415.8772, 12.84989
416.3593, 13.00874
416.8414, 13.09907
417.3235, 13.11177
417.8057, 12.99515
418.2878, 12.66284
418.7699, 12.34865
419.2520, 12.34507
419.7341, 12.61266
420.2162, 12.76672
420.6984, 12.67377
421.1805, 12.43926
421.6626, 12.12976
422.1447, 11.73340
422.6268, 11.53971
423.1089, 11.88951
423.5911, 12.39782
424.0732, 12.46805
424.5553, 12.03288
425.0374, 11.57459
425.5195, 11.45405
426.0016, 11.63955
426.4838, 11.79774
426.9659, 11.91367
427.4480, 12.01904
427.9301, 12.19006
428.4122, 12.35595
428.8943, 12.31944
429.3765, 11.98608
429.8586, 11.56510
430.3407, 11.43315
430.8228, 11.79296
431.3049, 12.01050
431.7870, 11.99528
432.2692, 11.90045
432.7513, 11.80684
433.2334, 11.73579
433.7155, 11.70510
434.1976, 11.73673
434.6797, 11.82347
435.1619, 11.85934
435.6440, 11.70907
436.1261, 11.66572
436.6082, 11.86321
437.0903, 12.15669
437.5724, 12.42855
438.0546, 12.62528
438.5367, 12.66925
439.0188, 12.33229
439.5009, 11.33232
439.9830, 10.86996
440.4651, 11.56559
440.9473, 12.27724
441.4294, 12.46531
441.9115, 12.21888
442.3936, 11.89741
442.8757, 11.70383
443.3578, 11.63353
443.8400, 11.72075
444.3221, 12.08449
444.8042, 12.30673
445.2863, 12.03193
445.7684, 11.65665
446.2505, 11.58893
446.7327, 11.92834
447.2148, 12.30657
447.6969, 12.39813
448.1790, 12.24384
448.6611, 12.05475
449.1432, 11.83064
449.6254, 11.63992
450.1075, 11.59332
450.5896, 11.63772
451.0717, 11.60138
451.5538, 11.31859
452.0359, 11.02224
452.5181, 10.91840
453.0002, 11.00027
453.4823, 11.25677
453.9644, 11.77268
454.4465, 12.35321
454.9286, 12.49425
455.4108, 12.02862
455.8929, 11.71954
456.3750, 11.87533
456.8571, 12.20055
457.3392, 12.37126
457.8214, 12.34499
458.3035, 12.27179
458.7856, 12.27971
459.2677, 12.36972
459.7498, 12.47134
460.2319, 12.72277
460.7141, 12.82761
461.1962, 12.54932
461.6783, 12.12176
462.1604, 11.88628
462.6425, 11.97009
463.1246, 12.22241
463.6068, 12.38514
464.0889, 12.40020
464.5710, 12.47785
465.0531, 12.72712
465.5352, 12.93414
466.0173, 12.96961
466.4995, 12.87473
466.9816, 12.76980
467.4637, 12.72484
467.9458, 12.73513
468.4279, 12.77552
468.9100, 12.81920
469.3922, 12.96514
469.8743, 13.35581
470.3564, 13.79263
470.8385, 14.11621
471.3206, 14.30286
471.8027, 14.43427
472.2849, 14.55182
472.7670, 14.66308
473.2491, 14.79175
473.7312, 14.93564
474.2133, 15.11050
474.6954, 15.38346
475.1776, 15.69387
475.6597, 15.87754
476.1418, 15.71725
476.6239, 15.65822
477.1060, 16.14125
477.5881, 16.98685
478.0703, 17.66235
478.5524, 17.97222
479.0345, 18.09960
479.5166, 18.27236
479.9987, 18.47479
480.4808, 18.82364
480.9630, 19.35395
481.4451, 20.00838
481.9272, 20.84297
482.4093, 21.77933
482.8914, 22.59257
483.3735, 23.14147
483.8557, 23.49924
484.3378, 23.93815
484.8199, 24.68256
485.3020, 25.17408
485.7841, 25.30180
486.2662, 25.24712
486.7484, 25.17616
487.2305, 25.08761
487.7126, 24.83154
488.1947, 24.20982
488.6768, 23.25720
489.1589, 22.55313
489.6411, 22.29432
490.1232, 21.97239
490.6053, 21.30108
491.0874, 20.54548
491.5695, 19.99466
492.0516, 19.72843
492.5338, 19.67399
493.0159, 19.83809
493.4980, 20.19113
493.9801, 20.47315
494.4622, 20.67397
494.9443, 20.74674
495.4265, 20.44146
495.9086, 19.95000
496.3907, 19.86246
496.8728, 20.55098
497.3549, 21.49169
497.8370, 22.27181
498.3192, 22.93514
498.8013, 23.63189
499.2834, 24.40210
499.7655, 25.27460
500.2476, 26.32154
500.7297, 27.59355
501.2119, 28.86587
501.6940, 30.21637
502.1761, 31.48785
502.6582, 32.47188
503.1403, 33.26389
503.6224, 34.24708
504.1045, 35.70275
504.5866, 37.39401
505.0688, 38.47316
505.5509, 38.68946
506.0330, 38.64100
506.5151, 38.32065
506.9972, 37.81067
507.4793, 37.24244
507.9615, 36.57380
508.4436, 35.56330
508.9257, 33.88746
509.4078, 31.68460
509.8899, 29.88461
510.3720, 28.61926
510.8542, 27.46303
511.3363, 26.23965
511.8184, 25.05134
512.3005, 24.00394
512.7827, 23.11733
513.2648, 22.34196
513.7469, 21.63562
514.2290, 21.03306
514.7111, 20.49146
515.1932, 20.09457
515.6754, 19.77343
516.1575, 19.52981
516.6396, 19.33825
517.1217, 19.07980
517.6038, 18.54429
518.0859, 18.18211
518.5681, 18.42319
519.0502, 18.91528
519.5323, 19.00227
520.0144, 18.50538
520.4965, 17.83193
520.9786, 17.47429
521.4608, 17.48574
521.9429, 17.49731
522.4250, 17.42108
522.9071, 17.43964
523.3892, 17.73072
523.8713, 18.12629
524.3535, 18.35938
524.8356, 18.32089
525.3177, 18.14908
525.7998, 18.06228
526.2819, 18.07267
526.7640, 18.10931
527.2462, 18.21674
527.7283, 18.29734
528.2104, 18.23102
528.6925, 18.10589
529.1746, 18.15421
529.6567, 18.60126
530.1389, 19.06311
530.6210, 18.82724
531.1031, 17.95627
531.5852, 17.62303
532.0673, 18.38400
532.5494, 19.46510
533.0316, 19.86726
533.5137, 19.64043
533.9958, 19.50662
534.4779, 19.68256
534.9600, 19.94399
535.4421, 20.14892
535.9243, 20.29021
536.4064, 20.32184
536.8885, 20.18856
537.3706, 20.10357
537.8527, 20.54986
538.3348, 22.04419
538.8170, 23.03806
539.2991, 23.09403
539.7812, 23.07937
540.2633, 23.48923
540.7454, 24.26526
541.2275, 25.10396
541.7097, 25.81186
542.1918, 26.80657
542.6739, 27.45860
543.1560, 28.83000
543.6381, 30.11030
544.1202, 31.25281
544.6024, 32.22075
545.0845, 32.82122
545.5666, 33.16054
546.0487, 33.73421
546.5308, 34.92887
547.0129, 36.45615
547.4951, 37.88505
547.9772, 39.22002
548.4593, 40.49210
548.9414, 41.61584
549.4235, 42.79264
549.9056, 44.40235
550.3878, 46.44035
550.8699, 48.69029
551.3520, 51.16062
551.8341, 53.77659
552.3162, 56.45823
552.7983, 59.22447
553.2805, 62.15477
553.7626, 65.31200
554.2447, 68.66308
554.7268, 72.14157
555.2089, 75.87631
555.6910, 79.50089
556.1732, 83.13504
556.6553, 86.57520
557.1374, 89.88757
557.6195, 92.93470
558.1016, 95.37701
558.5837, 97.03496
559.0659, 97.93195
559.5480, 98.17540
560.0301, 97.81807
560.5122, 96.45936
560.9943, 93.70550
561.4764, 90.11474
561.9586, 86.22669
562.4407, 82.05872
562.9228, 77.70805
563.4049, 73.10918
563.8870, 68.41313
564.3691, 63.68894
564.8513, 58.99916
565.3334, 54.59912
565.8155, 50.58447
566.2976, 46.98740
566.7797, 43.87160
567.2618, 41.46594
567.7440, 39.07555
568.2261, 36.55221
568.7082, 34.19745
569.1903, 32.17539
569.6724, 30.46600
570.1545, 28.96842
570.6367, 27.64317
571.1188, 26.45514
571.6009, 25.35100
572.0830, 24.32336
572.5651, 23.37275
573.0472, 22.49942
573.5294, 21.71129
574.0115, 21.02643
574.4936, 20.42566
574.9757, 19.86788
575.4578, 19.36317
575.9399, 18.85650
576.4221, 18.24389
576.9042, 17.55712
577.3863, 16.96099
577.8684, 16.49401
578.3505, 16.16538
578.8326, 16.03016
579.3148, 16.10731
579.7969, 16.09002
580.2790, 15.92756
580.7611, 15.71445
581.2432, 15.42795
581.7253, 15.14068
582.2075, 14.98225
582.6896, 14.99353
583.1717, 15.06704
583.6538, 15.05167
584.1359, 14.93029
584.6180, 14.84241
585.1002, 14.78929
585.5823, 14.77066
586.0643, 14.74478
586.5464, 14.76796
587.0286, 14.93732
587.5107, 15.28969
587.9928, 15.67641
588.4749, 15.95152
588.9570, 16.14184
589.4391, 16.38179
589.9213, 16.71930
590.4034, 16.95098
590.8855, 16.92148
591.3676, 16.67196
591.8497, 16.39284
592.3318, 16.03408
592.8140, 15.72650
593.2961, 15.62610
593.7782, 15.53398
594.2603, 15.12207
594.7424, 14.42671
595.2245, 13.88362
595.7067, 13.88949
596.1888, 14.30561
596.6709, 14.31573
597.1530, 13.60111
597.6351, 13.02773
598.1172, 12.76523
598.5994, 12.62156
599.0815, 12.49284
599.5636, 12.35567
600.0457, 12.18990
600.5278, 11.94659
601.0099, 11.69165
601.4921, 11.56880
601.9742, 11.57982
602.4563, 11.57538
602.9384, 11.47396
603.4205, 11.37562
603.9026, 11.45981
604.3848, 11.73379
604.8669, 11.92093
605.3490, 11.94437
605.8311, 11.90773
606.3132, 11.83147
606.7953, 11.75336
607.2775, 11.75709
607.7596, 11.87354
608.2417, 12.02722
608.7238, 12.09988
609.2059, 12.07745
609.6880, 12.04191
610.1702, 11.91353
610.6523, 11.86739
611.1344, 12.05863
611.6165, 12.32747
612.0986, 12.44733
612.5807, 12.34925
613.0629, 12.16340
613.5450, 11.91782
614.0271, 11.67913
614.5092, 11.74077
614.9913, 12.18533
615.4734, 12.51720
615.9556, 12.34303
616.4377, 11.83948
616.9198, 11.63426
617.4019, 11.87553
617.8840, 12.09503
618.3661, 12.18802
618.8483, 12.22896
619.3304, 12.28229
619.8125, 12.34920
620.2946, 12.39939
620.7767, 12.41337
621.2589, 12.39563
621.7410, 12.36396
622.2231, 12.33367
622.7052, 12.24064
623.1873, 11.88886
623.6694, 11.64867
624.1516, 11.84159
624.6337, 12.32887
625.1158, 12.68690
625.5979, 12.69760
626.0800, 12.59149
626.5621, 12.51105
627.0443, 12.49748
627.5264, 12.75777
628.0085, 13.37496
628.4906, 14.00225
628.9727, 14.26847
629.4548, 14.17073
629.9370, 14.31405
630.4191, 14.82889
630.9012, 15.37936
631.3833, 15.92369
631.8654, 16.45230
632.3475, 16.94649
632.8297, 17.41339
633.3118, 17.89759
633.7939, 18.43270
634.2760, 19.01595
634.7581, 19.62243
635.2402, 20.24951
635.7224, 20.90308
636.2045, 21.48205
636.6866, 22.18444
637.1687, 23.29880
637.6508, 24.79230
638.1329, 26.10009
638.6151, 27.01813
639.0972, 27.70842
639.5793, 28.22616
640.0614, 28.62462
640.5435, 29.04804
641.0256, 29.54568
641.5078, 30.02192
641.9899, 30.38640
642.4720, 30.68497
642.9541, 30.49252
643.4362, 29.42608
643.9183, 28.29042
644.4005, 27.26331
644.8826, 26.25834
645.3647, 25.17379
645.8468, 23.99141
646.3289, 22.75006
646.8110, 21.43183
647.2932, 20.09822
647.7753, 18.89577
648.2574, 17.83215
648.7395, 16.91096
649.2216, 16.14422
649.7037, 15.50882
650.1859, 14.98437
650.6680, 14.58362
651.1501, 14.21597
651.6322, 13.90139
652.1143, 13.58956
652.5964, 13.20434
653.0786, 12.81270
653.5607, 12.56793
654.0428, 12.52063
654.5249, 12.51262
655.0070, 12.29802
655.4891, 11.86485
655.9713, 11.56253
656.4534, 11.44550
656.9355, 11.35395
657.4176, 11.21504
657.8997, 11.06020
658.3818, 10.93291
658.8640, 10.84465
659.3461, 10.72939
659.8282, 10.50040
660.3103, 10.26691
660.7924, 10.17797
661.2745, 10.20831
661.7567, 10.20659
662.2388, 10.09420
662.7209, 9.946089
663.2030, 9.920680
663.6851, 10.10495
664.1672, 10.12573
664.6494, 9.769495
665.1315, 9.479478
665.6136, 9.491645
666.0957, 9.626101
666.5778, 9.602365
667.0599, 9.336871
667.5421, 9.054681
668.0242, 8.949884
668.5063, 8.973533
668.9884, 9.034748
669.4705, 9.128028
669.9526, 9.142660
670.4348, 8.987110
670.9169, 8.761280
671.3990, 8.691247
671.8811, 8.867599
672.3632, 8.979259
672.8453, 8.986080
673.3275, 8.961427
673.8096, 8.921871
674.2917, 8.885303
674.7738, 8.884595
675.2559, 8.931684
675.7380, 8.977509
676.2202, 8.951968
676.7023, 8.862955
677.1844, 8.788875
677.6665, 8.731675
678.1486, 8.690642
678.6307, 8.657121
679.1129, 8.645613
679.5950, 8.701623
680.0771, 8.863641
680.5592, 8.925079
681.0413, 8.720816
681.5234, 8.497404
682.0056, 8.463489
682.4877, 8.565326
682.9698, 8.655912
683.4519, 8.671626
683.9340, 8.629495
684.4161, 8.541869
684.8983, 8.402768
685.3804, 8.295982
685.8625, 8.245752
686.3446, 8.185987
686.8267, 8.067327
687.3088, 7.935077
687.7910, 7.820940
688.2731, 7.722524
688.7552, 7.718868
689.2373, 7.947574
689.7194, 8.213532
690.2015, 8.290801
690.6837, 8.217197
691.1658, 8.155070
691.6479, 8.172413
692.1300, 8.211024
692.6121, 8.167232
693.0942, 8.008491
693.5764, 8.011352
694.0585, 8.394669
694.5406, 8.643353
695.0227, 8.534511
695.5048, 8.274785
695.9869, 8.048740
696.4691, 7.891116
696.9512, 7.827772
697.4333, 7.960115
697.9154, 8.141734
698.3975, 8.130053
698.8796, 7.970462
699.3618, 7.937767
699.8439, 8.146034
700.3260, 8.397454
700.8081, 8.420107
701.2902, 8.183858
701.7723, 8.004866
702.2545, 7.921676
702.7366, 7.851511
703.2187, 7.736131
703.7008, 7.655060
704.1829, 7.697222
704.6650, 7.863016
705.1472, 8.073488
705.6293, 8.343294
706.1114, 8.577064
706.5935, 8.564900
707.0756, 8.349241
707.5577, 8.216846
708.0399, 8.260708
708.5220, 8.364139
709.0041, 8.408536
709.4862, 8.393771
709.9683, 8.364223
710.4504, 8.256109
710.9326, 8.217381
711.4147, 8.314973
711.8968, 8.460625
712.3789, 8.610961
712.8610, 8.739783
713.3431, 8.786807
713.8253, 8.682421
714.3074, 8.533034
714.7895, 8.554239
715.2716, 8.707485
715.7537, 8.652634
716.2358, 8.260705
716.7180, 7.963662
717.2001, 8.198326
717.6822, 8.850419
718.1643, 9.155975
718.6464, 8.765836
719.1285, 8.546209
719.6107, 8.719989
720.0928, 8.972097
720.5749, 9.130632
721.0570, 9.166205
721.5391, 9.059335
722.0212, 8.779613
722.5034, 8.464851
722.9855, 8.275070
723.4676, 8.208629
723.9497, 8.299699
724.4318, 8.582753
724.9139, 8.822229
725.3961, 8.855081
725.8782, 8.754790
726.3603, 8.737645
726.8424, 8.929862
727.3245, 8.911986
727.8066, 8.344382
728.2888, 7.875916
728.7709, 7.977791
729.2530, 8.410653
729.7351, 8.738730
730.2172, 8.810143
730.6993, 8.761907
731.1815, 8.703060
731.6636, 8.643907
732.1457, 8.615614
732.6278, 8.617067
733.1099, 8.701557
733.5920, 8.953618
734.0742, 9.196655
734.5563, 9.107800
735.0384, 8.563310
735.5205, 8.332781
736.0026, 8.761966
736.4847, 9.095423
736.9669, 8.926687
737.4490, 8.594090
737.9311, 8.509829
738.4132, 8.729641
738.8953, 9.007684
739.3774, 9.182483
739.8596, 9.270352
740.3417, 9.303234
740.8238, 9.281282
741.3059, 9.178445
741.7880, 8.954304
742.2701, 8.776596
742.7523, 8.843730
743.2344, 9.130493
743.7165, 9.243886
744.1986, 9.022646
744.6807, 8.864979
745.1628, 8.913862
745.6450, 8.965674
746.1271, 8.816978
746.6092, 8.532182
747.0913, 8.329482
747.5734, 8.320836
748.0555, 8.411513
748.5377, 8.522130
749.0198, 8.637181
749.5019, 8.660763
749.9840, 8.574005
750.4661, 8.584054
750.9482, 8.845703
751.4304, 9.246183
751.9125, 9.521503
752.3946, 9.698133
752.8767, 9.671409
753.3588, 9.206860
753.8409, 8.813555
754.3231, 8.783644
754.8052, 8.918491
755.2873, 8.880295
755.7694, 8.599553
756.2515, 8.434783
756.7336, 8.835720
757.2158, 9.434918
757.6979, 9.549397
758.1800, 9.250425
758.6621, 9.045030
759.1442, 9.116812
759.6263, 9.238202
760.1085, 9.113027
760.5906, 8.740346
761.0727, 8.621342
761.5548, 9.011465
762.0369, 9.277119
762.5190, 9.190854
763.0012, 9.062915
763.4833, 9.178166
763.9654, 9.470178
764.4475, 9.615291
764.9296, 9.382407
765.4117, 9.147434
765.8939, 9.340884
766.3760, 9.707683
766.8581, 9.714352
767.3402, 9.332734
767.8223, 8.952203
768.3044, 8.810415
768.7866, 8.871489
769.2687, 9.102025
769.7508, 9.634173
770.2329, 9.831733
770.7150, 9.399989
771.1971, 9.019856
771.6793, 9.051769
772.1614, 9.290055
772.6435, 9.479605
773.1256, 9.591943
773.6077, 9.660403
774.0898, 9.676978
774.5720, 9.672505
775.0541, 9.685668
775.5362, 9.694180
776.0183, 9.642417
776.5004, 9.518629
776.9825, 9.370069
777.4647, 9.229994
777.9468, 9.112721
778.4289, 9.098234
778.9110, 9.200013
779.3931, 9.346284
779.8752, 9.586191
780.3574, 9.762717
780.8395, 9.632825
781.3216, 9.290373
781.8037, 9.228247
782.2858, 9.776793
782.7679, 10.15588
783.2501, 10.11082
783.7322, 9.878347
784.2143, 9.512133
784.6964, 9.141477
785.1785, 9.047655
785.6606, 9.370845
786.1428, 9.797729
786.6249, 9.925471
787.1070, 9.822698
787.5891, 9.777147
788.0712, 9.807235
788.5533, 9.816451
789.0355, 9.750467
789.5176, 9.668405
789.9997, 9.675247
790.4818, 9.802642
790.9639, 9.818896
791.4460, 9.612860
791.9282, 9.442209
792.4103, 9.355485
792.8924, 9.334920
793.3745, 9.358788
793.8566, 9.428867
794.3387, 9.575091
794.8209, 9.886250
795.3030, 10.16536
795.7851, 10.16500
796.2672, 10.00210
796.7493, 9.940012
797.2314, 10.00994
797.7136, 10.07582
798.1957, 10.04475
798.6778, 9.969236
799.1599, 9.978368
799.6420, 10.08694
800.1241, 10.22927
800.6063, 10.47888
801.0884, 10.64545
801.5705, 10.48370
802.0526, 10.26803
802.5347, 10.41302
803.0168, 10.98430
803.4990, 11.33742
803.9811, 11.16650
804.4632, 10.85279
804.9453, 10.52095
805.4274, 10.25326
805.9095, 10.18425
806.3917, 10.31354
806.8738, 10.48873
807.3559, 10.60234
807.8380, 10.66195
808.3201, 10.62775
808.8022, 10.51093
809.2844, 10.64758
809.7665, 11.17015
810.2486, 11.59373
810.7307, 11.53348
811.2128, 11.15508
811.6949, 10.97112
812.1771, 11.11490
812.6592, 11.18601
813.1413, 11.04260
813.6234, 10.98424
814.1055, 11.20932
814.5876, 11.56571
815.0698, 11.89036
815.5519, 12.13805
816.0340, 12.21735
816.5161, 11.88486
816.9982, 11.49745
817.4803, 11.56186
817.9625, 11.90572
818.4446, 12.03444
818.9267, 11.84615
819.4088, 11.64157
819.8909, 11.69395
820.3730, 11.89726
820.8552, 11.81411
821.3373, 11.30540
821.8194, 11.15352
822.3015, 11.65195
822.7836, 12.16569
823.2657, 12.25839
823.7479, 12.12376
824.2300, 12.16024
824.7121, 12.44918
825.1942, 12.62957
825.6763, 12.48680
826.1584, 12.36764
826.6406, 12.53279
827.1227, 12.82089
827.6048, 13.00221
828.0869, 13.02424
828.5690, 12.94725
829.0511, 12.76106
829.5333, 12.56571
830.0154, 12.54018
830.4975, 12.66396
830.9796, 12.87771
831.4617, 13.17488
831.9438, 13.36412
832.4260, 13.26857
832.9081, 13.02439
833.3902, 13.07734
833.8723, 13.65975
834.3544, 13.92060
834.8365, 13.51322
835.3187, 13.21959
835.8008, 13.44804
836.2829, 13.89551
836.7650, 14.21414
837.2471, 14.36891
837.7292, 14.42387
838.2114, 14.21605
838.6935, 14.11227
839.1756, 14.46656
839.6577, 15.00614
840.1398, 15.35269
840.6219, 15.46230
841.1041, 15.46395
841.5862, 15.39344
842.0683, 15.43622
842.5504, 16.08216
843.0325, 17.20008
843.5146, 17.84567
843.9968, 17.88175
844.4789, 17.83980
844.9610, 17.97137
845.4431, 18.25305
845.9252, 18.65789
846.4073, 19.21876
846.8895, 19.73940
847.3716, 20.17498
847.8537, 20.62798
848.3358, 21.06858
848.8179, 21.57874
849.3000, 22.28470
849.7822, 23.14410
850.2643, 23.92459
850.7464, 24.49819
851.2285, 25.07139
851.7106, 25.78756
852.1927, 26.55085
852.6749, 27.19926
853.1570, 27.79242
853.6391, 28.52999
854.1212, 29.50097
854.6033, 30.65862
855.0854, 31.98207
855.5676, 33.44035
856.0497, 34.89803
856.5318, 36.35859
857.0139, 37.69324
857.4960, 38.80653
857.9781, 39.97865
858.4603, 41.52967
858.9424, 43.42306
859.4245, 45.25626
859.9066, 46.94210
860.3887, 48.71386
860.8708, 50.74852
861.3530, 52.71949
861.8351, 54.38147
862.3172, 55.88591
862.7993, 57.56565
863.2814, 59.55237
863.7635, 61.30130
864.2457, 62.55660
864.7278, 63.52491
865.2099, 64.55572
865.6920, 65.34390
866.1741, 65.16514
866.6563, 64.00512
867.1384, 62.80290
867.6205, 62.42154
868.1026, 62.16087
868.5847, 60.50238
869.0668, 57.66586
869.5490, 54.97435
870.0311, 52.60096
870.5132, 50.67392
870.9953, 49.36354
871.4774, 48.24891
871.9595, 46.41915
872.4417, 43.64945
872.9238, 41.36213
873.4059, 39.61756
873.8880, 38.24422
874.3701, 37.56237
874.8522, 36.95692
875.3344, 35.79772
875.8165, 34.20006
876.2986, 32.90394
876.7807, 32.12964
877.2628, 31.56740
877.7449, 31.32910
878.2271, 31.07666
878.7092, 30.30683
879.1913, 29.32245
879.6734, 28.92757
880.1555, 29.38883
880.6376, 29.90685
881.1198, 29.57762
881.6019, 28.88306
882.0840, 28.75216
882.5661, 29.07980
883.0482, 29.35859
883.5303, 29.45959
884.0125, 29.57249
884.4946, 29.86850
884.9767, 30.27647
885.4588, 30.57421
885.9409, 30.76477
886.4230, 30.78160
886.9052, 30.44301
887.3873, 30.33918
887.8694, 30.83959
888.3515, 31.68788
888.8336, 32.54110
889.3157, 33.43525
889.7979, 34.04374
890.2800, 33.84840
890.7621, 34.03274
891.2442, 35.19791
891.7263, 36.63933
892.2084, 37.79615
892.6906, 38.68373
893.1727, 39.52485
893.6548, 40.40081
894.1369, 41.24801
894.6190, 41.90315
895.1011, 42.59674
895.5833, 43.59599
896.0654, 44.86095
896.5475, 46.28947
897.0296, 47.82402
897.5117, 49.35366
897.9938, 50.77539
898.4760, 52.11222
898.9581, 53.31226
899.4402, 54.41144
899.9223, 56.00531
900.4044, 58.25970
900.8865, 60.29677
901.3687, 61.45655
901.8508, 62.27880
902.3329, 63.98543
902.8150, 66.84184
903.2971, 69.24287
903.7792, 70.56906
904.2614, 72.51234
904.7435, 75.98071
905.2256, 79.94955
905.7077, 83.37614
906.1898, 86.41303
906.6719, 89.91386
907.1541, 93.97341
907.6362, 98.49524
908.1183, 103.3996
908.6004, 108.7797
909.0825, 114.8849
909.5646, 121.4004
910.0468, 127.6964
910.5289, 133.6375
911.0110, 140.2942
911.4931, 148.6182
911.9752, 157.7929
912.4573, 166.9443
912.9395, 176.3521
913.4216, 186.7940
913.9037, 198.2437
914.3858, 209.9075
914.8679, 221.2086
915.3500, 233.0645
915.8321, 247.1125
916.3142, 263.0970
916.7963, 279.4854
917.2784, 296.2275
917.7606, 313.6482
918.2427, 332.2110
918.7248, 350.1783
919.2069, 365.8368
919.6890, 379.2900
920.1711, 391.8615
920.6533, 404.2469
921.1354, 414.2104
921.6175, 422.6974
922.0996, 427.2593
922.5817, 426.5849
923.0638, 421.1679
923.5460, 411.0485
924.0281, 395.8855
924.5102, 379.3012
924.9923, 361.2973
925.4744, 342.4660
925.9565, 322.4715
926.4387, 302.1215
926.9208, 281.9164
927.4029, 262.0257
927.8850, 243.0350
928.3671, 225.0121
928.8492, 208.2250
929.3314, 192.9436
929.8135, 178.9343
930.2956, 165.8376
930.7777, 153.7247
931.2598, 142.8492
931.7419, 133.1363
932.2241, 124.2910
932.7062, 116.0520
933.1883, 108.5260
933.6704, 102.0790
934.1525, 96.54863
934.6346, 91.11272
935.1168, 85.71129
935.5989, 80.73782
936.0810, 76.41103
936.5631, 72.49940
937.0452, 68.69026
937.5273, 64.98714
938.0095, 61.38464
938.4916, 57.73810
938.9737, 54.79684
939.4558, 52.94144
939.9379, 51.26686
940.4200, 49.09148
940.9022, 46.66142
941.3843, 44.61087
941.8664, 43.08065
942.3485, 41.48175
942.8306, 39.68252
943.3127, 37.99366
943.7949, 36.53590
944.2770, 35.19106
944.7591, 33.88081
945.2412, 32.59655
945.7233, 31.30882
946.2054, 29.85599
946.6876, 28.74234
947.1697, 28.49131
947.6518, 28.31107
948.1339, 27.51378
948.6160, 26.43115
949.0981, 25.66265
949.5803, 25.30138
950.0624, 24.93743
950.5445, 24.32233
951.0266, 23.59570
951.5087, 22.78057
951.9908, 21.99883
952.4730, 21.51722
952.9551, 21.27500
953.4372, 20.94847
953.9193, 20.40659
954.4014, 19.84619
954.8835, 19.56400
955.3657, 19.40081
955.8478, 18.75397
956.3299, 17.73238
956.8120, 17.19344
957.2941, 17.30866
957.7762, 17.52327
958.2584, 17.48317
958.7405, 17.29383
959.2226, 17.16026
959.7047, 17.08576
960.1868, 17.03469
960.6689, 17.05333
961.1511, 16.87646
961.6332, 16.31297
962.1153, 15.78155
962.5974, 15.72178
963.0795, 15.99298
963.5616, 15.96795
964.0438, 15.43066
964.5259, 15.06242
965.0080, 15.03577
965.4901, 14.95601
965.9722, 14.55929
966.4543, 14.13686
966.9365, 14.01199
967.4186, 14.16402
967.9007, 14.31767
968.3828, 14.55351
968.8649, 14.61532
969.3470, 14.26852
969.8292, 13.91092
970.3113, 13.81008
970.7934, 13.86555
971.2755, 13.91403
971.7576, 13.92255
972.2397, 13.91393
972.7219, 13.90442
973.2040, 13.87470
973.6861, 13.77992
974.1682, 13.68124
974.6503, 13.67658
975.1324, 13.72819
975.6146, 13.69730
976.0967, 13.53848
976.5788, 13.42096
977.0609, 13.49745
977.5430, 13.69651
978.0251, 14.01324
978.5073, 14.34863
978.9894, 14.44375
979.4715, 14.29547
979.9536, 14.10660
980.4357, 13.98367
980.9178, 13.95180
981.4000, 14.13573
981.8821, 14.43517
982.3642, 14.37620
982.8463, 14.01306
983.3284, 13.89326
983.8105, 14.15364
984.2927, 14.46664
984.7748, 14.58944
985.2569, 14.59970
985.7390, 14.70512
986.2211, 14.92013
986.7032, 14.88336
987.1854, 14.52820
987.6675, 14.28113
988.1496, 14.29420
988.6317, 14.40151
989.1138, 14.46587
989.5959, 14.48433
990.0781, 14.43453
990.5602, 14.27259
991.0423, 14.17305
991.5244, 14.17544
992.0065, 14.17654
992.4886, 14.18738
992.9708, 14.12773
993.4529, 13.84720
993.9350, 13.37767
994.4171, 13.09721
994.8992, 13.22766
995.3813, 13.20270
995.8635, 12.84057
996.3456, 12.50799
996.8277, 12.37766
997.3098, 12.36101
997.7919, 12.39841
998.2740, 12.46957
998.7562, 12.39043
999.2383, 11.98637
999.7204, 11.62505
1000.203, 11.32854
1000.685, 11.17908
1001.167, 11.38381
1001.649, 11.70638
1002.131, 11.74923
1002.613, 11.46068
1003.095, 11.17737
1003.577, 10.98201
1004.059, 10.90966
1004.542, 11.07260
1005.024, 11.29176
1005.506, 11.48429
1005.988, 11.55881
1006.470, 11.25698
1006.952, 10.54642
1007.434, 10.05140
1007.916, 10.41481
1008.398, 10.96576
1008.881, 11.02822
1009.363, 10.88114
1009.845, 10.98746
1010.327, 11.28137
1010.809, 11.35266
1011.291, 11.05090
1011.773, 10.72010
1012.255, 10.71380
1012.738, 10.59875
1013.220, 10.59803
1013.702, 10.72164
1014.184, 10.78602
1014.666, 11.01709
1015.148, 11.23650
1015.630, 11.35670
1016.112, 11.41509
1016.594, 11.44988
1017.077, 11.46108
1017.559, 11.43514
1018.041, 11.38308
1018.523, 11.33008
1019.005, 11.29158
1019.487, 11.41092
1019.969, 11.78364
1020.451, 12.19745
1020.934, 12.33524
1021.416, 12.23167
1021.898, 12.03811
1022.380, 11.76091
1022.862, 11.66330
1023.344, 11.80579
1023.826, 11.96528
1024.308, 12.00223
1024.791, 11.97670
1025.273, 11.99372
1025.755, 12.05240
1026.237, 12.10767
1026.719, 12.15020
1027.201, 12.28554
1027.683, 12.57014
1028.165, 12.78068
1028.647, 12.72125
1029.130, 12.58792
1029.612, 12.84321
1030.094, 12.84768
1030.576, 12.85804
1031.058, 13.26013
1031.540, 13.06279
1032.022, 13.51940
1032.504, 14.02847
1032.986, 14.13112
1033.469, 14.04333
1033.951, 14.29458
1034.433, 14.99463
1034.915, 15.33725
1035.397, 15.14395
1035.879, 14.97511
1036.361, 14.91644
1036.843, 14.95705
1037.326, 15.10112
1037.808, 15.33306
1038.290, 15.62713
1038.772, 16.00987
1039.254, 16.34002
1039.736, 16.56194
1040.218, 16.81741
1040.700, 17.11300
1041.182, 17.47098
1041.665, 17.95244
1042.147, 18.49414
1042.629, 18.94297
1043.111, 19.28543
1043.593, 19.60036
1044.075, 19.79409
1044.557, 20.09076
1045.039, 20.58367
1045.521, 21.14567
1046.004, 21.69622
1046.486, 22.25088
1046.968, 22.89175
1047.450, 23.67820
1047.932, 24.22132
1048.414, 24.30882
1048.896, 24.38578
1049.378, 24.36863
1049.861, 24.57260
1050.343, 25.51651
1050.825, 26.74897
1051.307, 27.25995
1051.789, 26.81637
1052.271, 26.73768
1052.753, 27.80914
1053.235, 28.56190
1053.718, 28.22361
1054.200, 27.69263
1054.682, 27.70855
1055.164, 28.00397
1055.646, 27.97963
1056.128, 27.53244
1056.610, 27.09046
1057.092, 26.89185
1057.574, 26.54879
1058.057, 25.78218
1058.539, 24.95434
1059.021, 24.35050
1059.503, 23.88572
1059.985, 23.43324
1060.467, 22.96421
1060.949, 22.22537
1061.431, 20.72657
1061.913, 19.48785
1062.396, 19.17302
1062.878, 19.00221
1063.360, 18.33316
1063.842, 17.39303
1064.324, 16.65682
1064.806, 16.18893
1065.288, 15.65675
1065.770, 14.79931
1066.253, 14.04657
1066.735, 13.66521
1067.217, 13.36761
1067.699, 12.90333
1068.181, 12.38374
1068.663, 12.03862
1069.145, 11.87833
1069.627, 11.64322
1070.109, 11.10646
1070.592, 10.69538
1071.074, 10.79545
1071.556, 10.89577
1072.038, 10.46569
1072.520, 9.863401
1073.002, 9.707686
1073.484, 9.996335
1073.966, 10.12323
1074.448, 9.782339
1074.931, 9.437720
1075.413, 9.267151
1075.895, 9.216782
1076.377, 9.366806
1076.859, 9.539308
1077.341, 9.506202
1077.823, 9.262574
1078.305, 8.924961
1078.788, 8.474554
1079.270, 8.123075
1079.752, 8.003977
1080.234, 7.982965
1080.716, 8.024169
1081.198, 8.072427
1081.680, 8.042296
1082.162, 7.963962
1082.644, 7.984383
1083.127, 8.189217
1083.609, 8.286258
1084.091, 7.989975
1084.573, 7.726973
1085.055, 7.857736
1085.537, 8.078337
1086.019, 8.025380
1086.501, 7.776142
1086.984, 7.612159
1087.466, 7.606231
1087.948, 7.680925
1088.430, 8.057755
1088.912, 8.190588
1089.394, 7.446859
1089.876, 6.632352
1090.358, 6.585250
1090.840, 7.031051
1091.323, 7.321432
1091.805, 7.322097
1092.287, 7.195890
1092.769, 6.817641
1093.251, 6.573554
1093.733, 6.734056
1094.215, 6.984120
1094.697, 7.133711
1095.179, 7.172765
1095.662, 7.071386
1096.144, 6.847395
1096.626, 6.722015
1097.108, 6.907035
1097.590, 6.976256
1098.072, 6.545167
1098.554, 6.221873
1099.036, 6.596711
1099.519, 7.177371
1100.001, 7.264016
1100.483, 6.879976
1100.965, 6.601235
1101.447, 6.591260
1101.929, 6.625188
1102.411, 6.794816
1102.893, 6.816748
1103.375, 6.246032
1103.858, 5.703235
1104.340, 6.004144
1104.822, 6.893379
1105.304, 7.348994
1105.786, 7.106538
1106.268, 6.866424
1106.750, 6.682131
1107.232, 6.611197
1107.714, 6.806336
1108.197, 6.996645
1108.679, 6.934686
1109.161, 6.716596
1109.643, 6.550881
1110.125, 6.438563
1110.607, 6.474979
1111.089, 6.914675
1111.571, 7.149703
1112.054, 6.927420
1112.536, 6.621840
1113.018, 6.371516
1113.500, 6.207408
1113.982, 6.208151
1114.464, 6.377666
1114.946, 6.458510
1115.428, 6.393732
1115.911, 6.333262
1116.393, 6.231372
1116.875, 6.211982
1117.357, 6.419024
1117.839, 6.640407
1118.321, 6.603595
1118.803, 6.731108
1119.285, 6.775444
1119.767, 6.650269
1120.250, 6.718406
1120.732, 6.402026
1121.214, 6.096490
1121.696, 5.881309
1122.178, 5.771994
1122.660, 5.804932
1123.142, 5.935310
1123.624, 6.056126
1124.106, 6.176757
1124.589, 6.196558
1125.071, 6.056146
1125.553, 6.038419
1126.035, 6.248650
1126.517, 6.428369
1126.999, 6.416326
1127.481, 6.307867
1127.963, 6.257763
1128.446, 6.255433
1128.928, 6.153440
1129.410, 5.927201
1129.892, 5.844011
1130.374, 5.953475
1130.856, 6.046370
1131.338, 6.033132
1131.820, 5.979945
1132.302, 5.951666
1132.785, 5.948236
1133.267, 5.987824
1133.749, 6.063814
1134.231, 6.059343
1134.713, 5.971368
1135.195, 5.852244
1135.677, 5.717804
1136.159, 5.698190
1136.641, 5.902328
1137.124, 6.179817
1137.606, 6.294266
1138.088, 6.264617
1138.570, 6.109115
1139.052, 5.869160
1139.534, 5.752355
1140.016, 5.775926
1140.498, 5.821763
1140.981, 5.832695
1141.463, 5.773490
1141.945, 5.555552
1142.427, 5.307593
1142.909, 5.257383
1143.391, 5.347272
1143.873, 5.486626
1144.355, 5.646345
1144.838, 5.772187
1145.320, 5.856416
1145.802, 5.982913
1146.284, 6.263077
1146.766, 6.428523
1147.248, 6.019091
1147.730, 5.501267
1148.212, 5.471853
1148.694, 5.737128
1149.177, 5.967288
1149.659, 6.093375
1150.141, 6.127268
1150.623, 6.068064
1151.105, 5.980848
1151.587, 5.874727
1152.069, 5.790780
1152.551, 5.786502
1153.033, 5.793460
1153.516, 5.717164
1153.998, 5.605847
1154.480, 5.589002
1154.962, 5.681189
1155.444, 5.703598
1155.926, 5.450420
1156.408, 5.337110
1156.890, 5.646339
1157.373, 5.949768
1157.855, 5.981913
1158.337, 5.891986
1158.819, 5.833540
1159.301, 5.821423
1159.783, 5.871822
1160.265, 6.034873
1160.747, 6.128953
1161.229, 6.110360
1161.712, 6.066949
1162.194, 5.971185
1162.676, 5.913053
1163.158, 5.992529
1163.640, 6.117965
1164.122, 6.110156
1164.604, 5.963123
1165.086, 5.892534
1165.568, 5.901906
1166.051, 5.988524
1166.533, 6.187614
1167.015, 6.358717
1167.497, 6.450225
1167.979, 6.462640
1168.461, 6.370975
1168.943, 6.236838
1169.425, 6.296764
1169.908, 6.560339
1170.390, 6.608895
1170.872, 6.428895
1171.354, 6.306662
1171.836, 6.308572
1172.318, 6.392362
1172.800, 6.544952
1173.282, 6.628327
1173.765, 6.379633
1174.247, 6.469960
1174.729, 5.963678
1175.211, 6.223456
1175.693, 6.107839
1176.175, 5.686047
1176.657, 5.648064
1177.139, 6.175003
1177.621, 6.681691
1178.104, 6.735156
1178.586, 6.594865
1179.068, 6.463336
1179.550, 6.409164
1180.032, 6.600049
1180.514, 6.904486
1180.996, 7.110697
1181.478, 7.186617
1181.960, 7.157432
1182.443, 7.029005
1182.925, 6.895041
1183.407, 6.779083
1183.889, 6.714196
1184.371, 6.750963
1184.853, 6.818046
1185.335, 6.879272
1185.817, 6.913690
1186.300, 6.870828
1186.782, 6.763148
1187.264, 6.724912
1187.746, 6.819999
1188.228, 6.908578
1188.710, 7.021774
1189.192, 7.052592
1189.674, 6.815599
1190.156, 6.625010
1190.639, 6.831030
1191.121, 7.210960
1191.603, 7.255823
1192.085, 6.929189
1192.567, 6.755219
1193.049, 6.772176
1193.531, 6.843376
1194.013, 6.987448
1194.495, 7.077280
1194.978, 7.047779
1195.460, 6.983881
1195.942, 6.982009
1196.424, 6.996466
1196.906, 6.850695
1197.388, 6.560006
1197.870, 6.481818
1198.352, 6.610463
1198.835, 6.738811
1199.317, 6.821804
1199.799, 6.871607
1200.281, 6.894742
1200.763, 6.866945
1201.245, 6.729593
1201.727, 6.565547
1202.209, 6.538519
1202.692, 6.591197
1203.174, 6.570106
1203.656, 6.527857
1204.138, 6.715461
1204.620, 7.106541
1205.102, 7.236459
1205.584, 6.800886
1206.066, 6.426178
1206.548, 6.734652
1207.031, 7.089102
1207.513, 6.949400
1207.995, 6.639933
1208.477, 6.457914
1208.959, 6.418752
1209.441, 6.523963
1209.923, 6.761537
1210.405, 6.888768
1210.887, 6.728655
1211.370, 6.642285
1211.852, 6.775886
1212.334, 6.880892
1212.816, 6.860209
1213.298, 6.760842
1213.780, 6.536380
1214.262, 6.304423
1214.744, 6.404649
1215.227, 6.894326
1215.709, 7.058451
1216.191, 6.778848
1216.673, 6.698862
1217.155, 6.960697
1217.637, 7.107694
1218.119, 6.925415
1218.601, 6.649987
1219.083, 6.508410
1219.566, 6.484749
1220.048, 6.617513
1220.530, 6.834357
1221.012, 6.723635
1221.494, 6.367976
1221.976, 6.228403
1222.458, 6.340759
1222.940, 6.378581
1223.422, 6.199084
1223.905, 6.018329
1224.387, 6.021350
1224.869, 6.119810
1225.351, 6.319638
1225.833, 6.474893
1226.315, 6.267218
1226.797, 5.963686
1227.279, 6.138690
1227.762, 6.691415
1228.244, 6.880906
1228.726, 6.399951
1229.208, 6.041906
1229.690, 6.173551
1230.172, 6.333206
1230.654, 6.347913
1231.136, 6.353070
1231.619, 6.496374
1232.101, 6.422783
1232.583, 6.580459
1233.065, 6.350175
1233.547, 6.214786
1234.029, 6.167124
1234.511, 6.270207
1234.993, 6.613302
1235.475, 6.739539
1235.958, 6.489836
1236.440, 6.287608
1236.922, 6.388207
1237.404, 6.620468
1237.886, 6.787545
1238.368, 6.858177
1238.850, 6.616397
1239.332, 6.787977
1239.814, 6.289266
1240.297, 6.765229
1240.779, 6.957865
1241.261, 6.754181
1241.743, 6.481787
1242.225, 6.302693
1242.707, 6.241804
1243.189, 6.427453
1243.671, 6.620252
1244.154, 6.539173
1244.636, 6.408258
1245.118, 6.502954
1245.600, 6.710402
1246.082, 6.845090
1246.564, 6.869585
1247.046, 6.742775
1247.528, 6.353095
1248.010, 6.114336
1248.493, 6.255544
1248.975, 6.321282
1249.457, 6.076938
1249.939, 5.896239
1250.421, 6.039093
1250.903, 6.292463
1251.385, 6.363883
1251.867, 6.472693
1252.349, 6.338278
1252.832, 6.512227
1253.314, 6.529032
1253.796, 6.372743
1254.278, 6.428634
1254.760, 6.774065
1255.242, 6.943511
1255.724, 6.679023
1256.206, 6.356985
1256.689, 6.424582
1257.171, 6.654274
1257.653, 6.698870
1258.135, 6.623903
1258.617, 6.509587
1259.099, 6.381750
1259.581, 6.241618
1260.063, 6.118401
1260.546, 6.118712
1261.028, 6.292318
1261.510, 6.445055
1261.992, 6.465937
1262.474, 6.482533
1262.956, 6.598876
1263.438, 6.665437
1263.920, 6.482953
1264.402, 6.279953
1264.885, 6.354413
1265.367, 6.634958
1265.849, 6.870842
1266.331, 7.064463
1266.813, 7.217378
1267.295, 7.362666
1267.777, 7.267313
1268.259, 6.858091
1268.741, 6.509165
1269.224, 6.381874
1269.706, 6.354125
1270.188, 6.315914
1270.670, 6.290530
1271.152, 6.296816
1271.634, 6.361220
1272.116, 6.629866
1272.598, 6.975661
1273.081, 7.077204
1273.563, 6.968280
1274.045, 6.857244
1274.527, 6.815778
1275.009, 6.871841
1275.491, 7.123712
1275.973, 7.283825
1276.455, 7.107481
1276.938, 6.933646
1277.420, 6.990600
1277.902, 7.095602
1278.384, 7.076217
1278.866, 6.982666
1279.348, 6.939222
1279.830, 6.941045
1280.312, 6.848113
1280.794, 6.610314
1281.276, 6.482051
1281.759, 6.489494
1282.241, 6.508727
1282.723, 6.503485
1283.205, 6.573932
1283.687, 6.791335
1284.169, 6.996164
1284.651, 6.964056
1285.133, 6.812182
1285.616, 6.740078
1286.098, 6.747223
##END=



