##NAMES=Pyrope
##RRUFFID=R050446
##IDEAL CHEMISTRY=Mg_3_Al_2_(SiO_4_)_3_
##LOCALITY=Sunset Crater, Arizona, USA
##OWNER=RRUFF
##SOURCE=Marcus Origlieri
##DESCRIPTION=Red fragment
##STATUS=The identification of this mineral has been confirmed by X-ray diffraction and chemical analysis
##URL=rruff.info/R050446
##MEASURED CHEMISTRY=(Mg_1.93_Fe^2+^_0.65_Ca_0.42_)_Î£=3_Al_2.00_(Si_1.00_O_4_)_3_
91.00781, 3.842762
91.48993, 3.922213
91.97205, 3.954101
92.45416, 3.849353
92.93628, 3.700503
93.41840, 3.751228
93.90051, 4.120140
94.38263, 4.563530
94.86475, 4.599627
95.34686, 4.233056
95.82898, 3.906435
96.31110, 4.119646
96.79321, 4.802947
97.27533, 5.159101
97.75745, 4.820813
98.23956, 4.040792
98.72168, 4.000721
99.20380, 4.867033
99.68591, 5.952112
100.1680, 6.469396
100.6501, 6.294608
101.1323, 6.135130
101.6144, 6.181223
102.0965, 6.441335
102.5786, 6.813401
103.0607, 7.332095
103.5428, 7.934733
104.0250, 8.530165
104.5071, 9.097258
104.9892, 9.683571
105.4713, 10.28883
105.9534, 10.85326
106.4355, 11.57684
106.9177, 12.63533
107.3998, 13.86077
107.8819, 14.75236
108.3640, 15.00098
108.8461, 15.15356
109.3282, 15.46588
109.8104, 16.03223
110.2925, 16.64130
110.7746, 17.12015
111.2567, 17.53487
111.7388, 18.43415
112.2209, 20.61592
112.7031, 22.89248
113.1852, 24.46612
113.6673, 24.21151
114.1494, 24.15009
114.6315, 24.90889
115.1136, 26.53783
115.5958, 28.20247
116.0779, 29.84781
116.5600, 31.32983
117.0421, 32.48240
117.5242, 32.78418
118.0063, 33.09850
118.4885, 33.92060
118.9706, 35.35419
119.4527, 36.96467
119.9348, 38.69662
120.4169, 40.42950
120.8990, 41.96862
121.3812, 43.00208
121.8633, 43.88523
122.3454, 45.05030
122.8275, 46.78375
123.3096, 48.26582
123.7917, 48.58553
124.2739, 47.97433
124.7560, 47.28173
125.2381, 46.83453
125.7202, 46.69900
126.2023, 47.02923
126.6844, 47.99582
127.1666, 49.26377
127.6487, 50.46029
128.1308, 51.58526
128.6129, 52.55862
129.0950, 53.19674
129.5771, 53.60574
130.0593, 54.17836
130.5414, 55.08788
131.0235, 56.20620
131.5056, 57.13527
131.9877, 57.64310
132.4698, 57.86681
132.9520, 58.25670
133.4341, 58.80472
133.9162, 59.36449
134.3983, 59.82821
134.8804, 60.23115
135.3625, 60.91954
135.8447, 61.96443
136.3268, 63.11647
136.8089, 63.98211
137.2910, 64.49343
137.7731, 65.15440
138.2552, 66.39680
138.7374, 68.39735
139.2195, 69.42660
139.7016, 69.29575
140.1837, 68.41468
140.6658, 67.57899
141.1479, 66.74666
141.6301, 66.02570
142.1122, 65.47438
142.5943, 65.15004
143.0764, 64.80848
143.5585, 64.36404
144.0406, 63.89887
144.5228, 63.70846
145.0049, 63.90582
145.4870, 64.23254
145.9691, 64.58353
146.4512, 65.27421
146.9333, 65.47428
147.4155, 64.92415
147.8976, 63.72304
148.3797, 62.85336
148.8618, 62.60631
149.3439, 62.47078
149.8260, 62.11806
150.3082, 61.17039
150.7903, 60.42144
151.2724, 60.10270
151.7545, 60.23495
152.2366, 59.95256
152.7188, 58.58471
153.2009, 57.10242
153.6830, 56.30087
154.1651, 57.36439
154.6472, 58.02349
155.1293, 57.50639
155.6115, 55.60236
156.0936, 54.16279
156.5757, 53.91771
157.0578, 54.14526
157.5399, 54.06067
158.0220, 53.19118
158.5042, 52.23541
158.9863, 51.40804
159.4684, 50.70380
159.9505, 50.22694
160.4326, 50.25255
160.9147, 50.49028
161.3969, 50.50763
161.8790, 49.94376
162.3611, 49.27547
162.8432, 48.76528
163.3253, 48.49933
163.8074, 48.24618
164.2896, 47.74026
164.7717, 47.16966
165.2538, 46.91158
165.7359, 47.40774
166.2180, 48.12189
166.7001, 48.62693
167.1823, 48.73562
167.6644, 48.86212
168.1465, 49.27166
168.6286, 49.90639
169.1107, 50.60521
169.5928, 51.47742
170.0750, 52.28553
170.5571, 52.74915
171.0392, 52.61224
171.5213, 52.42910
172.0034, 52.59084
172.4855, 53.08369
172.9677, 53.83582
173.4498, 55.02684
173.9319, 56.39930
174.4140, 57.56579
174.8961, 58.29847
175.3782, 58.93333
175.8604, 59.91544
176.3425, 61.20994
176.8246, 62.48032
177.3067, 63.42715
177.7888, 64.18501
178.2709, 65.01236
178.7531, 66.01506
179.2352, 67.11447
179.7173, 68.16393
180.1994, 69.17267
180.6815, 70.28202
181.1636, 71.73631
181.6458, 73.41335
182.1279, 74.88640
182.6100, 75.87312
183.0921, 76.64146
183.5742, 77.89127
184.0563, 79.62788
184.5385, 81.30811
185.0206, 82.17653
185.5027, 82.41931
185.9848, 82.90007
186.4669, 84.13121
186.9490, 85.80055
187.4312, 87.00961
187.9133, 87.70805
188.3954, 88.14297
188.8775, 88.45417
189.3596, 88.66635
189.8417, 89.04497
190.3239, 89.77184
190.8060, 90.77258
191.2881, 91.61871
191.7702, 92.27412
192.2523, 92.88505
192.7344, 93.70181
193.2166, 94.72117
193.6987, 95.61520
194.1808, 96.23369
194.6629, 96.59405
195.1450, 96.85422
195.6271, 96.92971
196.1093, 97.11877
196.5914, 97.99168
197.0735, 99.60915
197.5556, 101.1499
198.0377, 102.1942
198.5198, 102.7461
199.0020, 103.4799
199.4841, 104.4665
199.9662, 105.5095
200.4483, 106.3288
200.9304, 106.9191
201.4125, 107.3184
201.8947, 107.4798
202.3768, 107.3772
202.8589, 107.3589
203.3410, 107.4191
203.8231, 107.5751
204.3052, 107.9019
204.7874, 108.4547
205.2695, 108.9571
205.7516, 109.3249
206.2337, 109.5789
206.7158, 109.5472
207.1979, 109.1780
207.6801, 108.5708
208.1622, 107.9332
208.6443, 107.2726
209.1264, 106.5498
209.6085, 105.7195
210.0906, 104.7398
210.5728, 103.8410
211.0549, 103.0384
211.5370, 102.3152
212.0191, 101.6980
212.5012, 101.2758
212.9833, 100.7315
213.4655, 99.84873
213.9476, 98.45100
214.4297, 97.40414
214.9118, 96.93432
215.3939, 96.71835
215.8760, 95.87701
216.3581, 94.16786
216.8403, 92.34595
217.3224, 90.75266
217.8045, 89.36407
218.2866, 88.26813
218.7687, 87.61243
219.2508, 87.19736
219.7330, 86.49711
220.2151, 85.41939
220.6972, 84.22603
221.1793, 83.00642
221.6614, 81.62585
222.1435, 80.56561
222.6257, 79.91473
223.1078, 79.55987
223.5899, 79.19582
224.0720, 78.88895
224.5541, 78.46500
225.0362, 77.80707
225.5184, 76.78957
226.0005, 75.85979
226.4826, 75.00097
226.9647, 74.24049
227.4468, 73.65215
227.9289, 73.35713
228.4111, 73.05800
228.8932, 72.57036
229.3753, 71.65269
229.8574, 71.15398
230.3395, 71.30602
230.8216, 71.83663
231.3038, 71.99275
231.7859, 71.63779
232.2680, 71.10492
232.7501, 70.48013
233.2322, 69.51593
233.7143, 69.04041
234.1965, 69.25322
234.6786, 69.91373
235.1607, 70.37279
235.6428, 70.63933
236.1249, 70.68913
236.6070, 70.47090
237.0892, 69.78201
237.5713, 69.26595
238.0534, 68.92561
238.5355, 68.75639
239.0176, 68.76573
239.4997, 69.06055
239.9819, 69.38154
240.4640, 69.63178
240.9461, 69.84727
241.4282, 69.89511
241.9103, 69.65643
242.3924, 69.28837
242.8746, 69.18427
243.3567, 69.49805
243.8388, 69.84392
244.3209, 70.08957
244.8030, 70.26292
245.2851, 70.23482
245.7673, 69.84554
246.2494, 69.32089
246.7315, 69.19066
247.2136, 69.75182
247.6957, 70.23514
248.1778, 70.29078
248.6600, 69.68300
249.1421, 69.37051
249.6242, 69.44724
250.1063, 69.76546
250.5884, 70.06603
251.0705, 70.42500
251.5527, 70.63283
252.0348, 70.55819
252.5169, 70.06041
252.9990, 69.80368
253.4811, 69.89712
253.9632, 70.15738
254.4454, 70.26751
254.9275, 70.20492
255.4096, 70.03230
255.8917, 69.70159
256.3738, 69.10789
256.8560, 68.87966
257.3381, 69.16944
257.8202, 69.69408
258.3023, 70.04726
258.7844, 70.22266
259.2665, 70.22906
259.7487, 70.00541
260.2308, 69.49052
260.7129, 69.19221
261.1950, 69.17480
261.6771, 69.30283
262.1592, 69.39535
262.6414, 69.42670
263.1235, 69.49047
263.6056, 69.65456
264.0877, 69.94059
264.5698, 69.98456
265.0519, 69.66989
265.5341, 69.27328
266.0162, 69.15694
266.4983, 69.44751
266.9804, 69.62772
267.4625, 69.54167
267.9446, 69.19502
268.4268, 68.87984
268.9089, 68.58325
269.3910, 68.35147
269.8731, 68.25022
270.3552, 68.31258
270.8373, 68.37654
271.3195, 68.41730
271.8016, 68.43195
272.2837, 68.37312
272.7658, 68.19433
273.2479, 68.04463
273.7300, 68.14503
274.2122, 68.58112
274.6943, 68.69502
275.1764, 68.17973
275.6585, 67.23936
276.1406, 67.06624
276.6227, 67.85909
277.1049, 68.76411
277.5870, 69.07208
278.0691, 68.73849
278.5512, 68.29671
279.0333, 67.73997
279.5154, 67.17954
279.9976, 67.06889
280.4797, 67.48820
280.9618, 67.94319
281.4439, 68.01712
281.9260, 67.70366
282.4081, 67.62403
282.8903, 67.92966
283.3724, 68.43176
283.8545, 68.67173
284.3366, 68.63185
284.8187, 68.51623
285.3008, 68.39784
285.7830, 68.28795
286.2651, 68.34843
286.7472, 68.62502
287.2293, 69.01681
287.7114, 69.32571
288.1935, 69.55258
288.6757, 69.83401
289.1578, 70.37654
289.6399, 71.08389
290.1220, 71.35176
290.6041, 71.04893
291.0862, 70.62999
291.5684, 70.87733
292.0505, 71.71075
292.5326, 72.36454
293.0147, 72.31453
293.4968, 71.79415
293.9789, 71.47042
294.4611, 71.36101
294.9432, 71.46426
295.4253, 71.88021
295.9074, 72.54764
296.3895, 73.18811
296.8716, 73.67495
297.3538, 74.06393
297.8359, 74.46549
298.3180, 74.88374
298.8001, 75.30293
299.2822, 75.71980
299.7643, 76.13269
300.2465, 76.52601
300.7286, 76.82522
301.2107, 77.14683
301.6928, 77.67247
302.1749, 78.39034
302.6570, 79.19101
303.1392, 80.03490
303.6213, 80.89206
304.1034, 81.68069
304.5855, 82.31927
305.0676, 82.96150
305.5497, 83.90047
306.0319, 85.05200
306.5140, 86.02632
306.9961, 86.37161
307.4782, 86.45425
307.9603, 86.68977
308.4424, 87.12747
308.9246, 87.82077
309.4067, 88.94820
309.8888, 90.38380
310.3709, 91.79409
310.8530, 92.98976
311.3351, 94.07133
311.8173, 95.10201
312.2994, 96.07834
312.7815, 97.08473
313.2636, 98.29386
313.7457, 99.55074
314.2278, 100.5833
314.7100, 101.1934
315.1921, 101.5924
315.6742, 101.8376
316.1563, 101.8927
316.6384, 102.0699
317.1205, 102.6366
317.6027, 103.3638
318.0848, 103.9580
318.5669, 104.2076
319.0490, 104.4140
319.5311, 104.7602
320.0132, 105.2657
320.4954, 105.5563
320.9775, 105.4404
321.4596, 105.1032
321.9417, 104.7014
322.4238, 103.7563
322.9059, 103.2775
323.3881, 103.7433
323.8702, 105.0607
324.3523, 106.1269
324.8344, 106.5090
325.3165, 106.7761
325.7986, 107.2691
326.2808, 108.1338
326.7629, 109.0858
327.2450, 110.0824
327.7271, 111.1471
328.2092, 112.3731
328.6913, 113.8359
329.1735, 115.3920
329.6556, 117.0120
330.1377, 118.7148
330.6198, 120.4318
331.1019, 121.9998
331.5840, 123.6239
332.0662, 125.7564
332.5483, 128.7153
333.0304, 131.7413
333.5125, 134.4623
333.9946, 136.7491
334.4767, 139.6273
334.9589, 143.4656
335.4410, 147.4963
335.9231, 150.5848
336.4052, 152.1244
336.8873, 154.2691
337.3694, 157.6716
337.8516, 162.2363
338.3336, 166.5384
338.8158, 170.4476
339.2979, 174.3973
339.7800, 178.9642
340.2621, 184.2376
340.7442, 189.2320
341.2263, 193.5242
341.7085, 197.4774
342.1906, 202.1426
342.6727, 207.6435
343.1548, 213.3358
343.6369, 218.8183
344.1190, 224.0716
344.6012, 229.5658
345.0833, 235.2939
345.5654, 241.3116
346.0475, 247.7668
346.5296, 254.6155
347.0117, 261.7016
347.4939, 268.7560
347.9760, 275.8851
348.4581, 283.7358
348.9402, 292.4328
349.4223, 301.2014
349.9044, 309.2830
350.3866, 316.8488
350.8687, 324.5640
351.3508, 332.6485
351.8329, 341.1460
352.3150, 350.3732
352.7971, 360.3487
353.2793, 370.2379
353.7614, 379.5699
354.2435, 388.5317
354.7256, 397.4977
355.2077, 406.6395
355.6898, 415.7037
356.1720, 424.9998
356.6541, 434.2794
357.1362, 442.4465
357.6183, 448.6900
358.1004, 453.7369
358.5826, 458.4679
359.0647, 463.6360
359.5468, 466.9758
360.0289, 467.0113
360.5110, 464.3792
360.9931, 460.2729
361.4753, 455.2450
361.9574, 448.8458
362.4395, 440.6471
362.9216, 430.4371
363.4037, 419.5965
363.8858, 408.5264
364.3680, 397.0436
364.8501, 384.9037
365.3322, 371.4221
365.8143, 358.1022
366.2964, 345.2965
366.7785, 332.9589
367.2607, 320.9482
367.7428, 308.6039
368.2249, 296.9120
368.7070, 286.4576
369.1891, 278.4015
369.6712, 270.1400
370.1534, 261.2967
370.6355, 252.1444
371.1176, 243.5106
371.5997, 235.2154
372.0818, 227.6561
372.5639, 221.0607
373.0461, 215.7719
373.5282, 210.1214
374.0103, 203.6811
374.4924, 197.1560
374.9745, 191.8875
375.4566, 188.3578
375.9388, 184.4315
376.4209, 179.3244
376.9030, 173.0894
377.3851, 167.7697
377.8672, 163.4886
378.3493, 159.5269
378.8315, 155.1537
379.3136, 150.3191
379.7957, 146.0037
380.2778, 142.4750
380.7599, 139.4404
381.2420, 136.0478
381.7242, 132.3533
382.2063, 128.6904
382.6884, 125.3204
383.1705, 122.1785
383.6526, 119.1638
384.1347, 116.2771
384.6169, 113.4820
385.0990, 110.8140
385.5811, 108.2458
386.0632, 105.8154
386.5453, 103.6848
387.0274, 101.6260
387.5096, 99.28642
387.9917, 96.67773
388.4738, 94.16927
388.9559, 92.26609
389.4380, 90.63391
389.9201, 88.79524
390.4023, 86.34073
390.8844, 83.96344
391.3665, 82.16465
391.8486, 80.83289
392.3307, 79.62375
392.8128, 78.53672
393.2950, 77.40349
393.7771, 76.06602
394.2592, 74.40489
394.7413, 72.80278
395.2234, 71.48210
395.7055, 70.28699
396.1877, 68.97682
396.6698, 67.25862
397.1519, 65.64710
397.6340, 64.30818
398.1161, 63.27320
398.5982, 62.28529
399.0804, 61.32467
399.5625, 60.40918
400.0446, 59.55914
400.5267, 58.88964
401.0088, 58.10822
401.4909, 57.09224
401.9731, 55.94092
402.4552, 55.09166
402.9373, 54.68426
403.4194, 54.35110
403.9015, 53.93443
404.3836, 53.43463
404.8658, 52.83079
405.3479, 52.08590
405.8300, 51.29379
406.3121, 50.54605
406.7942, 49.82179
407.2763, 49.29865
407.7585, 49.14491
408.2406, 49.25089
408.7227, 48.94929
409.2048, 48.19968
409.6869, 47.39198
410.1690, 46.87865
410.6512, 46.61617
411.1333, 46.39001
411.6154, 46.19516
412.0975, 45.95436
412.5796, 45.50719
413.0617, 44.88824
413.5439, 44.26302
414.0260, 43.71577
414.5081, 43.21687
414.9902, 42.68957
415.4723, 42.10976
415.9544, 41.67229
416.4366, 41.71910
416.9187, 41.97578
417.4008, 42.03107
417.8829, 41.50640
418.3650, 40.92875
418.8471, 40.61857
419.3293, 40.53991
419.8114, 40.45271
420.2935, 40.34882
420.7756, 40.14101
421.2577, 39.73995
421.7398, 38.92786
422.2220, 38.30932
422.7041, 38.17299
423.1862, 38.28697
423.6683, 38.23243
424.1504, 37.67448
424.6325, 37.22524
425.1147, 37.08987
425.5968, 37.31022
426.0789, 37.44463
426.5610, 37.43983
427.0431, 37.39767
427.5252, 37.40208
428.0074, 37.47885
428.4895, 37.53819
428.9716, 37.55282
429.4537, 37.54833
429.9358, 37.64346
430.4179, 37.89705
430.9001, 38.04191
431.3822, 37.89652
431.8643, 37.45576
432.3464, 37.05240
432.8285, 36.66799
433.3106, 36.38354
433.7928, 36.36029
434.2749, 36.56670
434.7570, 36.74026
435.2391, 36.81026
435.7212, 36.79026
436.2033, 36.64271
436.6855, 36.38765
437.1676, 36.21275
437.6497, 36.32352
438.1318, 36.58001
438.6139, 36.79742
439.0960, 36.97465
439.5782, 37.00634
440.0603, 36.60372
440.5424, 36.00871
441.0245, 35.67873
441.5066, 36.05444
441.9887, 36.54469
442.4709, 36.81299
442.9530, 36.85321
443.4351, 36.85255
443.9172, 36.92443
444.3993, 36.95602
444.8814, 36.85520
445.3636, 36.34100
445.8457, 36.05043
446.3278, 36.23498
446.8099, 36.70478
447.2920, 36.99250
447.7741, 36.98386
448.2563, 36.90786
448.7384, 36.81129
449.2205, 36.68355
449.7026, 36.60627
450.1847, 36.55548
450.6668, 36.58636
451.1490, 36.77025
451.6311, 37.15038
452.1132, 37.52686
452.5953, 37.89191
453.0774, 38.22256
453.5595, 38.45795
454.0417, 38.58956
454.5238, 38.71112
455.0059, 38.86236
455.4880, 39.04385
455.9701, 39.26346
456.4522, 39.51826
456.9344, 39.82533
457.4165, 40.29429
457.8986, 40.84079
458.3807, 41.20575
458.8628, 41.23463
459.3449, 41.13239
459.8271, 40.98700
460.3092, 40.86650
460.7913, 41.05452
461.2734, 42.18375
461.7555, 43.40963
462.2376, 43.88755
462.7198, 43.29815
463.2019, 42.90679
463.6840, 43.53691
464.1661, 44.61782
464.6482, 45.45896
465.1303, 45.60095
465.6125, 45.77477
466.0946, 46.24644
466.5767, 46.97527
467.0588, 47.51475
467.5409, 47.56615
468.0230, 47.65703
468.5052, 48.01297
468.9873, 48.68348
469.4694, 49.53002
469.9515, 50.72781
470.4336, 51.94794
470.9157, 52.66450
471.3979, 52.68332
471.8800, 52.85735
472.3621, 53.43974
472.8442, 54.34348
473.3263, 55.20532
473.8084, 56.02874
474.2906, 56.78384
474.7727, 57.38607
475.2548, 57.88223
475.7369, 58.49206
476.2190, 59.23714
476.7011, 60.10741
477.1833, 61.14980
477.6654, 62.32172
478.1475, 63.50788
478.6296, 64.73773
479.1117, 65.90509
479.5938, 66.78359
480.0760, 67.43949
480.5581, 68.28094
481.0402, 69.71571
481.5223, 71.33858
482.0044, 72.80553
482.4865, 73.94714
482.9687, 75.18593
483.4508, 76.99150
483.9329, 78.89923
484.4150, 80.22426
484.8971, 80.34685
485.3792, 80.41750
485.8614, 80.78590
486.3435, 81.41474
486.8256, 81.69569
487.3077, 81.59162
487.7898, 81.18240
488.2719, 80.46056
488.7541, 79.33083
489.2362, 78.22346
489.7183, 77.09751
490.2004, 76.05028
490.6825, 75.18507
491.1646, 74.49367
491.6468, 74.05656
492.1289, 73.94189
492.6110, 74.07054
493.0931, 74.22504
493.5752, 74.40611
494.0573, 74.61360
494.5395, 74.65993
495.0216, 74.76336
495.5037, 75.47791
495.9858, 76.93197
496.4679, 78.55696
496.9500, 79.65617
497.4322, 80.59333
497.9143, 81.95284
498.3964, 84.19078
498.8785, 86.71458
499.3606, 89.28386
499.8427, 91.89808
500.3249, 94.38206
500.8070, 96.23033
501.2891, 98.31258
501.7712, 101.1587
502.2533, 105.1618
502.7354, 108.9308
503.2176, 112.2948
503.6997, 115.3889
504.1818, 118.3573
504.6639, 121.3139
505.1460, 123.9309
505.6281, 126.1491
506.1103, 128.0009
506.5924, 129.6479
507.0745, 131.2529
507.5566, 132.0735
508.0387, 131.6349
508.5208, 129.9753
509.0030, 127.8701
509.4851, 125.3411
509.9672, 122.2560
510.4493, 118.2453
510.9314, 113.5261
511.4135, 108.7483
511.8957, 103.9488
512.3778, 99.47869
512.8599, 95.88592
513.3420, 93.00018
513.8242, 90.33286
514.3063, 87.52061
514.7884, 84.86268
515.2705, 82.57718
515.7526, 80.68565
516.2347, 79.14182
516.7169, 78.11641
517.1990, 77.32225
517.6811, 76.54353
518.1632, 75.74962
518.6453, 74.96001
519.1274, 74.05695
519.6096, 73.17763
520.0917, 72.59432
520.5738, 72.41103
521.0559, 72.35681
521.5380, 72.40643
522.0201, 72.54976
522.5023, 72.60057
522.9844, 72.53990
523.4665, 72.44176
523.9486, 72.31108
524.4307, 72.15624
524.9128, 72.21087
525.3950, 72.53882
525.8771, 72.91456
526.3592, 73.01588
526.8413, 72.90298
527.3234, 72.78623
527.8055, 72.62793
528.2877, 72.61334
528.7698, 73.11938
529.2519, 74.01264
529.7340, 74.74597
530.2161, 74.78951
530.6982, 74.70362
531.1804, 74.92052
531.6625, 75.52584
532.1446, 76.20682
532.6267, 76.80534
533.1088, 77.45847
533.5909, 78.28289
534.0731, 79.45808
534.5552, 80.60887
535.0373, 81.58758
535.5194, 82.53749
536.0015, 83.94071
536.4836, 86.08709
536.9658, 88.05148
537.4479, 89.30305
537.9300, 89.90121
538.4121, 91.48679
538.8942, 94.20319
539.3763, 97.27676
539.8585, 99.97791
540.3406, 102.4275
540.8227, 105.3568
541.3048, 108.9453
541.7869, 112.8166
542.2690, 116.6219
542.7512, 120.3582
543.2333, 124.0136
543.7154, 127.1903
544.1975, 130.6117
544.6796, 134.9683
545.1617, 140.1445
545.6439, 145.4596
546.1260, 150.7022
546.6081, 155.9220
547.0902, 161.0629
547.5723, 165.9220
548.0544, 171.3159
548.5366, 177.7494
549.0187, 184.6002
549.5008, 191.3522
549.9829, 198.0672
550.4650, 204.5073
550.9471, 210.3120
551.4293, 216.0027
551.9114, 223.1676
552.3935, 232.1448
552.8756, 240.9592
553.3577, 248.7385
553.8398, 255.7481
554.3220, 263.2995
554.8041, 271.4455
555.2862, 279.4821
555.7683, 287.4882
556.2504, 294.9332
556.7325, 300.8531
557.2147, 305.0447
557.6968, 308.1108
558.1789, 311.2617
558.6610, 313.4433
559.1431, 313.0765
559.6252, 309.0032
560.1074, 302.9207
560.5895, 295.1963
561.0716, 285.9033
561.5537, 275.4808
562.0358, 263.6353
562.5179, 250.8772
563.0001, 237.1580
563.4822, 222.3907
563.9643, 208.3215
564.4464, 194.8919
564.9285, 182.2261
565.4106, 170.2554
565.8928, 158.9134
566.3749, 148.5153
566.8570, 139.0790
567.3391, 130.3623
567.8212, 121.7784
568.3033, 113.3747
568.7855, 106.1281
569.2676, 100.5878
569.7497, 96.06022
570.2318, 91.40385
570.7139, 86.79436
571.1960, 82.61206
571.6782, 79.22505
572.1603, 76.32153
572.6424, 73.79826
573.1245, 71.64145
573.6066, 69.50918
574.0887, 67.02803
574.5709, 64.64089
575.0530, 62.66911
575.5351, 61.33794
576.0172, 60.14247
576.4993, 59.15120
576.9814, 58.24368
577.4636, 57.22033
577.9457, 55.99028
578.4278, 54.89585
578.9099, 54.07127
579.3920, 53.44487
579.8741, 52.69531
580.3563, 51.80626
580.8384, 51.06524
581.3205, 50.74880
581.8026, 50.70473
582.2847, 50.45077
582.7668, 49.96531
583.2490, 49.59441
583.7311, 49.80986
584.2132, 50.24440
584.6953, 50.40916
585.1774, 50.10794
585.6595, 49.71725
586.1416, 49.40568
586.6237, 49.13649
587.1058, 48.84873
587.5880, 48.46012
588.0701, 48.12712
588.5522, 47.91858
589.0343, 47.80391
589.5164, 47.64654
589.9985, 47.44384
590.4807, 47.20179
590.9628, 46.92277
591.4449, 46.60680
591.9270, 46.26038
592.4091, 45.90150
592.8912, 45.43377
593.3734, 44.67964
593.8555, 43.71306
594.3376, 42.92187
594.8197, 42.39135
595.3018, 41.92126
595.7839, 41.18684
596.2661, 40.36820
596.7482, 39.81756
597.2303, 39.96817
597.7124, 40.11915
598.1945, 39.74317
598.6766, 39.02608
599.1588, 38.50962
599.6409, 38.62283
600.1230, 38.71735
600.6051, 38.47117
601.0872, 37.84841
601.5693, 37.50145
602.0515, 37.60035
602.5336, 37.74735
603.0157, 37.68913
603.4978, 37.38533
603.9799, 37.09206
604.4620, 36.78428
604.9442, 36.56895
605.4263, 36.70404
605.9084, 37.10518
606.3905, 37.23350
606.8726, 36.84450
607.3547, 36.36652
607.8369, 36.38547
608.3190, 36.74160
608.8011, 37.02828
609.2832, 37.09789
609.7653, 36.99356
610.2474, 36.56904
610.7296, 35.89999
611.2117, 35.57281
611.6938, 36.12653
612.1759, 36.73796
612.6580, 36.97718
613.1401, 36.73499
613.6223, 36.59875
614.1044, 36.63297
614.5865, 36.68805
615.0686, 36.62461
615.5507, 36.42764
616.0328, 36.20547
616.5150, 35.90218
616.9971, 35.74289
617.4792, 36.25065
617.9613, 37.26328
618.4434, 38.01056
618.9255, 38.09999
619.4077, 37.96623
619.8898, 38.12770
620.3719, 38.48932
620.8540, 38.75292
621.3361, 38.57512
621.8182, 38.42190
622.3004, 38.50532
622.7825, 38.83790
623.2646, 39.44090
623.7467, 40.52615
624.2288, 41.71155
624.7109, 42.78928
625.1931, 43.67906
625.6752, 44.75060
626.1573, 46.03621
626.6394, 47.45852
627.1215, 48.97154
627.6036, 50.57670
628.0858, 52.11435
628.5679, 53.51359
629.0500, 54.96085
629.5321, 56.80555
630.0142, 58.94136
630.4963, 60.96396
630.9785, 62.62109
631.4606, 64.21486
631.9427, 65.92366
632.4248, 67.77280
632.9069, 69.85060
633.3890, 72.09999
633.8712, 74.64474
634.3533, 77.72401
634.8354, 81.39955
635.3175, 84.66181
635.7996, 87.27207
636.2817, 89.70128
636.7639, 92.22955
637.2460, 94.87690
637.7281, 97.45338
638.2102, 99.97923
638.6923, 102.4121
639.1744, 104.8898
639.6566, 107.2903
640.1387, 108.9968
640.6208, 109.8039
641.1029, 110.0636
641.5850, 110.2052
642.0671, 110.0841
642.5493, 109.4103
643.0314, 108.1020
643.5135, 106.1889
643.9956, 103.5236
644.4777, 100.2449
644.9598, 96.75774
645.4420, 92.97176
645.9241, 89.18140
646.4062, 85.47240
646.8883, 81.86200
647.3704, 78.33152
647.8525, 74.87002
648.3347, 71.56078
648.8168, 68.52958
649.2989, 65.73569
649.7810, 63.14764
650.2631, 60.78335
650.7452, 58.53527
651.2274, 56.22667
651.7095, 54.00596
652.1916, 52.17492
652.6737, 50.87252
653.1558, 49.76423
653.6379, 48.56490
654.1201, 47.41901
654.6022, 46.50941
655.0843, 46.33844
655.5664, 45.89109
656.0485, 44.76766
656.5306, 43.23042
657.0128, 41.85699
657.4949, 40.67908
657.9770, 39.60443
658.4591, 38.59125
658.9412, 37.67497
659.4233, 37.08975
659.9055, 36.86896
660.3876, 36.58955
660.8697, 35.93051
661.3518, 35.05555
661.8339, 34.38780
662.3160, 33.91732
662.7982, 33.45181
663.2803, 32.84759
663.7624, 32.18394
664.2445, 31.53707
664.7266, 30.91190
665.2087, 30.31295
665.6909, 29.79516
666.1730, 29.27249
666.6551, 28.66496
667.1372, 27.83286
667.6193, 27.15462
668.1014, 26.66631
668.5836, 26.30356
669.0657, 25.97567
669.5478, 25.67919
670.0299, 25.52005
670.5120, 25.59066
670.9941, 25.68391
671.4763, 25.31949
671.9584, 24.62758
672.4405, 24.10954
672.9226, 24.18795
673.4047, 24.36937
673.8868, 24.22202
674.3690, 23.81355
674.8511, 23.38047
675.3332, 22.90215
675.8153, 22.52221
676.2974, 22.33966
676.7795, 22.36447
677.2617, 22.30650
677.7438, 22.11666
678.2259, 21.91841
678.7080, 21.80147
679.1901, 21.77778
679.6722, 21.57682
680.1544, 21.17089
680.6365, 20.73684
681.1186, 20.45884
681.6007, 20.27639
682.0828, 19.98595
682.5649, 19.52708
683.0471, 19.16421
683.5292, 19.20477
684.0113, 19.43876
684.4934, 19.62705
684.9755, 19.81206
685.4576, 19.78643
685.9398, 19.24537
686.4219, 18.53736
686.9040, 18.23849
687.3861, 18.56732
687.8682, 18.87139
688.3503, 19.04585
688.8325, 19.13503
689.3146, 19.25569
689.7967, 19.40874
690.2788, 19.51679
690.7609, 19.54972
691.2430, 19.51602
691.7252, 19.44167
692.2073, 19.31849
692.6894, 19.11197
693.1715, 18.69633
693.6536, 18.27374
694.1357, 17.99826
694.6179, 17.87203
695.1000, 17.75521
695.5821, 17.57731
696.0642, 17.43460
696.5463, 17.36528
697.0284, 17.36923
697.5106, 17.46919
697.9927, 17.71707
698.4748, 17.94034
698.9569, 17.96448
699.4390, 17.81751
699.9211, 17.73484
700.4033, 17.73991
700.8854, 17.75821
701.3675, 17.69147
701.8496, 17.59534
702.3317, 17.56688
702.8138, 17.65976
703.2960, 17.74029
703.7781, 17.70547
704.2602, 17.63398
704.7423, 17.62214
705.2244, 17.74760
705.7065, 17.85488
706.1887, 17.94269
706.6708, 18.00032
707.1529, 18.00235
707.6350, 17.93876
708.1171, 17.87597
708.5992, 17.82507
709.0814, 17.79211
709.5635, 17.83138
710.0456, 17.91450
710.5277, 17.90732
711.0098, 17.62561
711.4919, 17.31836
711.9741, 17.16702
712.4562, 17.17033
712.9383, 17.31104
713.4204, 17.74378
713.9025, 18.16227
714.3846, 18.45899
714.8668, 18.63697
715.3489, 18.65775
715.8310, 18.44031
716.3131, 18.22858
716.7952, 18.16982
717.2773, 18.24826
717.7595, 18.21379
718.2416, 18.06036
718.7237, 17.89867
719.2058, 17.78265
719.6879, 17.72909
720.1700, 17.79021
720.6522, 17.97725
721.1343, 18.16492
721.6164, 18.35166
722.0985, 18.46430
722.5806, 18.42158
723.0627, 18.06969
723.5449, 17.90173
724.0270, 18.06190
724.5091, 18.29384
724.9912, 18.35774
725.4733, 18.22642
725.9554, 18.07246
726.4376, 17.89381
726.9197, 17.74572
727.4018, 17.72067
727.8839, 17.79181
728.3660, 17.86749
728.8481, 17.90419
729.3303, 17.98939
729.8124, 18.31271
730.2945, 18.70289
730.7766, 18.89529
731.2587, 18.60993
731.7408, 18.35718
732.2230, 18.19608
732.7051, 18.15322
733.1872, 18.33272
733.6693, 18.86379
734.1514, 19.23061
734.6335, 19.27365
735.1157, 19.11388
735.5978, 19.05406
736.0799, 19.08201
736.5620, 19.09371
737.0441, 19.01475
737.5262, 18.91602
738.0084, 18.88579
738.4905, 18.90613
738.9726, 18.91580
739.4547, 18.82345
739.9368, 18.77697
740.4189, 18.89475
740.9011, 19.16053
741.3832, 19.26157
741.8653, 19.07294
742.3474, 18.94722
742.8295, 19.04321
743.3116, 19.33497
743.7938, 19.69815
744.2759, 20.14164
744.7580, 20.35924
745.2401, 19.91088
745.7222, 19.20155
746.2043, 18.82230
746.6865, 18.79485
747.1686, 18.97605
747.6507, 19.50592
748.1328, 20.04918
748.6149, 20.38090
749.0970, 20.43505
749.5792, 20.44132
750.0613, 20.37741
750.5434, 20.30794
751.0255, 20.27245
751.5076, 20.27329
751.9897, 20.30411
752.4719, 20.37980
752.9540, 20.39861
753.4361, 20.15911
753.9182, 19.81759
754.4003, 19.72268
754.8824, 19.94944
755.3646, 20.18847
755.8467, 20.21083
756.3288, 20.16197
756.8109, 20.18430
757.2930, 20.38060
757.7751, 20.47802
758.2573, 20.39573
758.7394, 20.27468
759.2215, 20.25214
759.7036, 20.34212
760.1857, 20.42974
760.6678, 20.49994
761.1500, 20.57865
761.6321, 20.74325
762.1142, 20.93784
762.5963, 20.99260
763.0784, 20.78734
763.5605, 20.66058
764.0427, 20.93766
764.5248, 21.39978
765.0069, 21.77283
765.4890, 21.85233
765.9711, 22.04498
766.4532, 22.60926
766.9354, 23.14617
767.4175, 22.91441
767.8996, 21.70123
768.3817, 21.14203
768.8638, 21.66935
769.3459, 22.60329
769.8281, 22.88242
770.3102, 22.67037
770.7923, 22.44301
771.2744, 22.35515
771.7565, 22.31539
772.2386, 22.25176
772.7208, 22.19373
773.2029, 22.19264
773.6850, 22.19383
774.1671, 22.35640
774.6492, 22.85964
775.1313, 23.45748
775.6135, 23.54066
776.0956, 23.01078
776.5777, 22.67569
777.0598, 22.78493
777.5419, 23.15051
778.0240, 23.55046
778.5062, 23.93620
778.9883, 24.15466
779.4704, 23.92310
779.9525, 23.71756
780.4346, 23.93278
780.9167, 24.39413
781.3989, 24.67284
781.8810, 24.47875
782.3631, 24.34346
782.8452, 24.36683
783.3273, 24.50910
783.8094, 24.63497
784.2916, 24.73182
784.7737, 24.97459
785.2558, 25.54332
785.7379, 26.16941
786.2200, 26.24120
786.7021, 25.91654
787.1843, 25.72418
787.6664, 26.05521
788.1485, 26.45547
788.6306, 26.65737
789.1127, 26.71685
789.5948, 26.85408
790.0770, 27.18879
790.5591, 27.46312
791.0412, 27.61698
791.5233, 27.66663
792.0054, 27.60444
792.4875, 27.42444
792.9697, 27.43472
793.4518, 27.89159
793.9339, 28.51231
794.4160, 28.82335
794.8981, 28.90408
795.3802, 29.01910
795.8624, 29.35707
796.3445, 29.69605
796.8266, 29.98799
797.3087, 30.20029
797.7908, 30.18845
798.2729, 29.72959
798.7551, 29.47533
799.2372, 29.64637
799.7193, 30.14653
800.2014, 30.68074
800.6835, 31.24061
801.1656, 31.73298
801.6478, 32.02504
802.1299, 32.28352
802.6120, 32.78281
803.0941, 33.42770
803.5762, 33.92276
804.0583, 34.01780
804.5405, 34.06876
805.0226, 34.10236
805.5047, 34.18509
805.9868, 34.65919
806.4689, 35.70304
806.9510, 36.55375
807.4332, 36.85569
807.9153, 36.85255
808.3974, 37.32249
808.8795, 38.16478
809.3616, 38.80598
809.8438, 38.60212
810.3259, 38.35836
810.8080, 38.76334
811.2901, 39.67517
811.7722, 40.62397
812.2543, 41.69314
812.7365, 42.52623
813.2186, 42.89214
813.7007, 42.98344
814.1828, 43.55289
814.6649, 44.67566
815.1470, 45.68754
815.6292, 46.24686
816.1113, 46.63785
816.5934, 47.37796
817.0755, 48.40533
817.5576, 49.50073
818.0397, 50.61496
818.5219, 51.70871
819.0040, 52.74818
819.4861, 53.75190
819.9682, 54.76243
820.4503, 55.80323
820.9324, 56.84137
821.4146, 57.87550
821.8967, 58.87752
822.3788, 59.69469
822.8609, 60.33937
823.3430, 61.11652
823.8251, 62.23463
824.3073, 63.40646
824.7894, 64.25804
825.2715, 64.90757
825.7536, 65.65187
826.2357, 66.66571
826.7178, 67.70300
827.2000, 68.77354
827.6821, 69.79617
828.1642, 70.53693
828.6463, 70.86799
829.1284, 71.43102
829.6105, 72.44484
830.0927, 73.62364
830.5748, 74.47337
831.0569, 75.05775
831.5390, 75.58775
832.0211, 76.04038
832.5032, 76.63615
832.9854, 77.55275
833.4675, 78.70412
833.9496, 79.94217
834.4317, 81.21712
834.9138, 82.60280
835.3959, 84.03889
835.8781, 85.63067
836.3602, 87.67081
836.8423, 90.13292
837.3244, 92.36827
837.8065, 94.15902
838.2886, 95.99281
838.7708, 98.59830
839.2529, 101.6197
839.7350, 104.4703
840.2171, 106.8423
840.6992, 109.3389
841.1813, 112.1592
841.6635, 115.2179
842.1456, 118.4184
842.6277, 121.6478
843.1098, 125.3463
843.5919, 129.5957
844.0740, 134.1771
844.5562, 138.6806
845.0383, 143.2695
845.5204, 148.5330
846.0025, 154.6723
846.4846, 160.6785
846.9667, 165.4759
847.4489, 170.0229
847.9310, 175.1387
848.4131, 181.0651
848.8952, 187.4817
849.3773, 194.8197
849.8594, 202.0529
850.3416, 208.2720
850.8237, 213.5079
851.3058, 218.9353
851.7879, 224.6211
852.2700, 230.7344
852.7521, 238.1648
853.2343, 245.8400
853.7164, 252.3735
854.1985, 257.5318
854.6806, 262.7571
855.1627, 269.3022
855.6448, 275.2957
856.1270, 279.8352
856.6091, 282.9265
857.0912, 285.3371
857.5733, 287.0632
858.0554, 288.0045
858.5375, 288.1041
859.0197, 287.3549
859.5018, 285.7873
859.9839, 283.3934
860.4660, 280.0639
860.9481, 275.6407
861.4302, 270.3583
861.9124, 263.8948
862.3945, 256.4499
862.8766, 249.6012
863.3587, 243.8430
863.8408, 237.7913
864.3229, 230.8437
864.8051, 223.4275
865.2872, 217.1249
865.7693, 211.7408
866.2514, 206.4283
866.7335, 200.8097
867.2156, 195.1257
867.6978, 189.3647
868.1799, 183.7782
868.6620, 178.8518
869.1441, 175.3065
869.6262, 171.7167
870.1083, 167.7053
870.5905, 163.6476
871.0726, 160.3676
871.5547, 157.8108
872.0368, 155.4518
872.5189, 153.1463
873.0010, 151.0332
873.4832, 149.2270
873.9653, 147.7090
874.4474, 146.4578
874.9295, 145.4689
875.4116, 144.7197
875.8937, 144.3524
876.3759, 144.1259
876.8580, 143.7430
877.3401, 143.0678
877.8222, 143.0927
878.3043, 143.9971
878.7864, 145.1134
879.2686, 145.6184
879.7507, 145.8738
880.2328, 146.5203
880.7149, 147.6570
881.1970, 149.1148
881.6791, 151.1422
882.1613, 153.2049
882.6434, 154.8515
883.1255, 155.9550
883.6076, 157.6141
884.0897, 159.9192
884.5718, 162.4945
885.0540, 165.1410
885.5361, 167.8766
886.0182, 170.5747
886.5003, 173.2868
886.9824, 176.2600
887.4645, 179.7885
887.9467, 183.4935
888.4288, 187.0336
888.9109, 190.4436
889.3930, 194.4675
889.8751, 199.2855
890.3572, 204.2908
890.8394, 209.3345
891.3215, 214.3373
891.8036, 218.7878
892.2857, 222.8250
892.7678, 227.4484
893.2499, 233.4218
893.7321, 239.6675
894.2142, 244.9888
894.6963, 250.1499
895.1784, 256.5355
895.6605, 265.5902
896.1426, 274.1734
896.6248, 281.6111
897.1069, 289.0784
897.5890, 298.3553
898.0711, 309.4218
898.5532, 321.3054
899.0353, 333.9762
899.5175, 347.2443
899.9996, 360.3225
900.4817, 374.4611
900.9638, 391.0281
901.4459, 410.9836
901.9280, 432.0076
902.4102, 453.7034
902.8923, 476.7300
903.3744, 501.4100
903.8565, 527.9353
904.3386, 556.8194
904.8207, 587.7462
905.3029, 619.8964
905.7850, 651.0823
906.2671, 683.4905
906.7492, 720.4304
907.2313, 761.6810
907.7134, 803.8338
908.1956, 845.4342
908.6777, 888.3934
909.1598, 933.5744
909.6419, 980.5696
910.1240, 1027.168
910.6061, 1073.162
911.0883, 1120.546
911.5704, 1170.817
912.0525, 1221.517
912.5346, 1271.059
913.0167, 1319.083
913.4988, 1364.803
913.9810, 1408.768
914.4631, 1449.299
914.9452, 1487.291
915.4273, 1521.123
915.9094, 1549.079
916.3915, 1571.166
916.8737, 1584.393
917.3558, 1588.230
917.8379, 1583.527
918.3200, 1571.972
918.8021, 1552.199
919.2842, 1521.296
919.7664, 1477.783
920.2485, 1428.843
920.7306, 1374.947
921.2127, 1317.320
921.6948, 1256.867
922.1769, 1193.146
922.6591, 1129.008
923.1412, 1064.020
923.6233, 1000.729
924.1054, 939.3128
924.5875, 880.8956
925.0696, 826.1007
925.5518, 774.9072
926.0339, 726.8278
926.5160, 682.8175
926.9981, 641.3410
927.4802, 601.8107
927.9623, 564.6769
928.4445, 530.8850
928.9266, 500.3958
929.4087, 472.5335
929.8908, 447.0713
930.3729, 423.4559
930.8550, 400.8231
931.3372, 379.3063
931.8193, 359.6703
932.3014, 342.4218
932.7835, 326.2680
933.2656, 310.8261
933.7477, 296.2687
934.2299, 282.5980
934.7120, 269.9001
935.1941, 257.8467
935.6762, 246.4470
936.1583, 235.7956
936.6404, 226.4782
937.1226, 217.8401
937.6047, 209.0887
938.0868, 200.1476
938.5689, 191.7382
939.0510, 184.0179
939.5331, 177.0412
940.0153, 171.0022
940.4974, 165.7275
940.9795, 159.5925
941.4616, 152.5216
941.9437, 146.3176
942.4258, 142.2957
942.9080, 139.0839
943.3901, 135.2912
943.8722, 131.1003
944.3543, 126.9011
944.8364, 122.3926
945.3185, 118.4940
945.8007, 115.4967
946.2828, 113.0109
946.7649, 110.4814
947.2470, 107.9147
947.7291, 105.5477
948.2112, 103.4142
948.6934, 101.4690
949.1755, 99.70580
949.6576, 98.06346
950.1397, 96.46101
950.6218, 94.89799
951.1039, 93.29323
951.5861, 91.52261
952.0682, 89.86790
952.5503, 88.48831
953.0324, 87.34960
953.5145, 86.19741
953.9966, 85.04643
954.4788, 84.01572
954.9609, 83.39189
955.4430, 82.70787
955.9251, 81.41714
956.4072, 79.77560
956.8893, 78.47034
957.3715, 77.69707
957.8536, 77.14382
958.3357, 76.88551
958.8178, 76.67318
959.2999, 76.12704
959.7820, 75.27797
960.2642, 74.21147
960.7463, 72.86805
961.2284, 71.70068
961.7105, 71.21964
962.1926, 70.92644
962.6747, 70.35078
963.1569, 69.36629
963.6390, 68.48809
964.1211, 67.65608
964.6032, 67.07942
965.0853, 67.09450
965.5674, 67.41853
966.0496, 67.16174
966.5317, 66.43259
967.0138, 65.73640
967.4959, 65.28758
967.9780, 64.99859
968.4601, 65.04639
968.9423, 65.18703
969.4244, 64.80943
969.9065, 63.70791
970.3886, 63.00568
970.8707, 62.98897
971.3528, 63.12790
971.8350, 62.59650
972.3171, 61.73937
972.7992, 61.18454
973.2813, 61.09372
973.7634, 61.09022
974.2455, 61.08788
974.7277, 61.08443
975.2098, 61.12051
975.6919, 61.19963
976.1740, 60.95688
976.6561, 60.37716
977.1382, 59.80155
977.6204, 59.40866
978.1025, 59.15300
978.5846, 58.97694
979.0667, 58.89004
979.5488, 58.92079
980.0309, 59.31219
980.5131, 59.50013
980.9952, 59.33150
981.4773, 58.98886
981.9594, 58.80781
982.4415, 58.75384
982.9236, 58.49939
983.4058, 57.96362
983.8879, 57.39413
984.3700, 56.97462
984.8521, 56.63829
985.3342, 56.32822
985.8163, 56.04047
986.2985, 55.78774
986.7806, 55.63110
987.2627, 55.36454
987.7448, 54.81580
988.2269, 54.10057
988.7090, 53.60385
989.1912, 53.27192
989.6733, 52.87762
990.1554, 52.17317
990.6375, 51.52340
991.1196, 51.18555
991.6017, 50.99563
992.0839, 50.69316
992.5660, 50.28666
993.0481, 49.66962
993.5302, 48.75787
994.0123, 47.91549
994.4944, 47.70461
994.9766, 47.76592
995.4587, 47.55470
995.9408, 46.99075
996.4229, 46.33234
996.9050, 45.34995
997.3871, 44.64943
997.8693, 44.65155
998.3514, 45.16304
998.8335, 44.90340
999.3156, 43.92453
999.7977, 43.10691
1000.280, 42.92319
1000.762, 42.96752
1001.244, 43.00533
1001.726, 42.97545
1002.208, 42.76402
1002.690, 42.01632
1003.173, 41.69489
1003.655, 41.94212
1004.137, 42.39133
1004.619, 42.65177
1005.101, 42.80236
1005.583, 43.14923
1006.065, 43.70255
1006.547, 44.17629
1007.029, 44.34304
1007.512, 44.43914
1007.994, 44.57808
1008.476, 44.76139
1008.958, 44.95116
1009.440, 45.11617
1009.922, 45.49932
1010.404, 46.23176
1010.886, 47.08509
1011.369, 47.74607
1011.851, 48.31096
1012.333, 48.96072
1012.815, 49.84395
1013.297, 50.57495
1013.779, 50.92038
1014.261, 51.31166
1014.743, 52.12197
1015.225, 53.32363
1015.708, 54.15702
1016.190, 54.64858
1016.672, 55.22924
1017.154, 56.27483
1017.636, 57.41605
1018.118, 58.32094
1018.600, 59.09673
1019.082, 60.17802
1019.565, 61.84224
1020.047, 63.05518
1020.529, 63.53899
1021.011, 63.80081
1021.493, 64.55873
1021.975, 65.62576
1022.457, 66.63993
1022.939, 67.54848
1023.421, 68.32671
1023.904, 68.77365
1024.386, 69.28068
1024.868, 70.11859
1025.350, 71.22762
1025.832, 72.01638
1026.314, 72.48893
1026.796, 72.94319
1027.278, 73.52550
1027.760, 74.14540
1028.243, 74.68536
1028.725, 75.21031
1029.207, 75.82485
1029.689, 76.55299
1030.171, 77.38077
1030.653, 78.33080
1031.135, 79.34169
1031.617, 80.41701
1032.100, 81.48979
1032.582, 82.39462
1033.064, 83.13813
1033.546, 83.86253
1034.028, 84.46706
1034.510, 85.27327
1034.992, 86.56798
1035.474, 88.15778
1035.957, 89.36511
1036.439, 90.16493
1036.921, 91.32622
1037.403, 93.12428
1037.885, 95.04662
1038.367, 96.38829
1038.849, 97.56937
1039.331, 99.09783
1039.813, 101.1902
1040.296, 103.1689
1040.778, 104.8902
1041.260, 106.6966
1041.742, 108.8733
1042.224, 111.2307
1042.706, 112.9102
1043.188, 114.0825
1043.670, 115.5111
1044.152, 117.7460
1044.635, 120.0722
1045.117, 122.3417
1045.599, 124.4371
1046.081, 126.1857
1046.563, 127.5776
1047.045, 128.8827
1047.527, 130.1367
1048.009, 131.1548
1048.492, 131.5930
1048.974, 131.8211
1049.456, 132.3414
1049.938, 133.1212
1050.420, 133.4137
1050.902, 133.1440
1051.384, 132.4263
1051.866, 131.1942
1052.349, 129.6708
1052.831, 128.4380
1053.313, 127.2550
1053.795, 125.4021
1054.277, 122.6171
1054.759, 119.5933
1055.241, 116.7044
1055.723, 113.6137
1056.205, 110.0098
1056.688, 105.9160
1057.170, 102.4679
1057.652, 99.65251
1058.134, 96.47646
1058.616, 92.00185
1059.098, 87.34578
1059.580, 83.54993
1060.062, 80.31827
1060.544, 77.10140
1061.027, 73.69301
1061.509, 70.51804
1061.991, 67.61574
1062.473, 64.91031
1062.955, 62.39222
1063.437, 60.00848
1063.919, 57.55727
1064.401, 55.08931
1064.884, 52.92745
1065.366, 51.47781
1065.848, 50.08371
1066.330, 48.53585
1066.812, 46.92606
1067.294, 45.47118
1067.776, 44.17001
1068.258, 42.90145
1068.740, 41.66717
1069.223, 40.36163
1069.705, 38.67242
1070.187, 37.02977
1070.669, 35.81575
1071.151, 35.05513
1071.633, 34.40410
1072.115, 33.84638
1072.597, 33.47701
1073.079, 33.48456
1073.562, 33.50739
1074.044, 32.90576
1074.526, 31.93374
1075.008, 31.04425
1075.490, 30.33451
1075.972, 29.81091
1076.454, 29.54229
1076.936, 29.32563
1077.419, 29.01729
1077.901, 28.62291
1078.383, 28.11790
1078.865, 27.52344
1079.347, 27.00804
1079.829, 26.67367
1080.311, 26.42765
1080.793, 26.34739
1081.275, 26.27575
1081.758, 25.90950
1082.240, 25.21966
1082.722, 24.74752
1083.204, 24.57773
1083.686, 24.42751
1084.168, 23.83449
1084.650, 23.29426
1085.132, 23.44612
1085.615, 24.27389
1086.097, 24.49911
1086.579, 23.91588
1087.061, 23.25325
1087.543, 22.66309
1088.025, 22.22647
1088.507, 22.20350
1088.989, 22.40343
1089.471, 22.47322
1089.953, 22.29005
1090.436, 22.14517
1090.918, 22.12108
1091.400, 22.12433
1091.882, 22.12516
1092.364, 22.11092
1092.846, 22.02162
1093.328, 21.86363
1093.810, 21.66223
1094.293, 21.36499
1094.775, 21.11418
1095.257, 21.00401
1095.739, 20.95534
1096.221, 20.89368
1096.703, 20.82372
1097.185, 20.66563
1097.667, 20.41350
1098.150, 20.21124
1098.632, 20.18653
1099.114, 20.24212
1099.596, 20.37053
1100.078, 20.50905
1100.560, 20.46002
1101.042, 20.15161
1101.524, 19.85384
1102.006, 19.59294
1102.489, 19.37153
1102.971, 19.17363
1103.453, 19.01774
1103.935, 18.95496
1104.417, 18.98536
1104.899, 18.99752
1105.381, 19.05826
1105.863, 18.92683
1106.345, 18.42852
1106.828, 17.83830
1107.310, 17.85848
1107.792, 18.28757
1108.274, 18.50610
1108.756, 18.34494
1109.238, 18.09691
1109.720, 17.76945
1110.202, 17.53485
1110.685, 17.51208
1111.167, 17.67056
1111.649, 17.83536
1112.131, 17.99160
1112.613, 17.97190
1113.095, 17.56965
1113.577, 17.20479
1114.059, 17.27561
1114.542, 17.49719
1115.024, 17.51677
1115.506, 17.26416
1115.988, 17.14739
1116.470, 17.18280
1116.952, 17.18878
1117.434, 16.99513
1117.916, 16.74740
1118.398, 16.57519
1118.880, 16.47750
1119.363, 16.45802
1119.845, 16.58871
1120.327, 16.63563
1120.809, 16.57619
1121.291, 16.45553
1121.773, 16.25616
1122.255, 16.05563
1122.737, 16.01176
1123.220, 16.11140
1123.702, 16.21345
1124.184, 16.34169
1124.666, 16.35142
1125.148, 16.15688
1125.630, 15.92103
1126.112, 15.98760
1126.594, 16.22476
1127.077, 16.17358
1127.559, 15.75742
1128.041, 15.41730
1128.523, 15.36854
1129.005, 15.45550
1129.487, 15.64773
1129.969, 15.89276
1130.451, 16.06417
1130.933, 16.15250
1131.416, 16.04790
1131.898, 15.66049
1132.380, 15.32680
1132.862, 15.33364
1133.344, 15.43642
1133.826, 15.43313
1134.308, 15.32852
1134.790, 15.27928
1135.272, 15.28543
1135.755, 15.37274
1136.237, 15.62226
1136.719, 15.83224
1137.201, 15.78558
1137.683, 15.60018
1138.165, 15.39860
1138.647, 15.14537
1139.129, 15.12152
1139.612, 15.35993
1140.094, 15.60925
1140.576, 15.77483
1141.058, 15.80817
1141.540, 15.45236
1142.022, 14.95007
1142.504, 14.83479
1142.986, 15.62362
1143.469, 15.95512
1143.951, 15.68349
1144.433, 15.30903
1144.915, 15.30748
1145.397, 15.47718
1145.879, 15.41505
1146.361, 15.17778
1146.843, 15.04185
1147.325, 15.25501
1147.807, 15.31389
1148.290, 15.04425
1148.772, 14.81049
1149.254, 15.26692
1149.736, 16.06725
1150.218, 16.21197
1150.700, 15.69160
1151.182, 15.31636
1151.664, 15.65539
1152.147, 15.91035
1152.629, 15.82885
1153.111, 15.57443
1153.593, 15.41325
1154.075, 15.34265
1154.557, 15.36914
1155.039, 15.49954
1155.521, 15.61220
1156.004, 15.61489
1156.486, 15.61278
1156.968, 15.67367
1157.450, 15.75963
1157.932, 15.69511
1158.414, 15.52085
1158.896, 15.56931
1159.378, 15.97765
1159.860, 16.33959
1160.343, 16.34226
1160.825, 16.23195
1161.307, 16.12995
1161.789, 16.06423
1162.271, 16.35419
1162.753, 16.97404
1163.235, 17.30142
1163.717, 17.02468
1164.199, 16.61455
1164.682, 16.33623
1165.164, 16.20160
1165.646, 16.24141
1166.128, 16.45453
1166.610, 16.74408
1167.092, 17.11395
1167.574, 17.38731
1168.056, 17.44950
1168.539, 17.41466
1169.021, 17.28878
1169.503, 17.17690
1169.985, 17.25636
1170.467, 17.59916
1170.949, 17.80186
1171.431, 17.85342
1171.913, 17.85384
1172.396, 17.82193
1172.878, 17.81097
1173.360, 17.93143
1173.842, 18.09948
1174.324, 18.12371
1174.806, 17.80578
1175.288, 17.92898
1175.770, 18.60268
1176.252, 19.22530
1176.734, 19.25136
1177.217, 19.01051
1177.699, 18.78868
1178.181, 18.63996
1178.663, 18.73169
1179.145, 19.28545
1179.627, 19.54161
1180.109, 19.38710
1180.591, 19.16908
1181.074, 19.28896
1181.556, 19.50857
1182.038, 19.42657
1182.520, 19.11598
1183.002, 19.02112
1183.484, 19.40510
1183.966, 19.56112
1184.448, 19.34561
1184.931, 19.06348
1185.413, 19.11997
1185.895, 19.31004
1186.377, 19.24612
1186.859, 18.95004
1187.341, 18.84043
1187.823, 19.12205
1188.305, 19.33272
1188.787, 19.37417
1189.270, 19.34443
1189.752, 19.42155
1190.234, 19.50246
1190.716, 19.35446
1191.198, 18.96566
1191.680, 18.71470
1192.162, 18.75049
1192.644, 18.77746
1193.126, 18.67724
1193.609, 18.63656
1194.091, 19.15218
1194.573, 19.87285
1195.055, 20.09562
1195.537, 19.69419
1196.019, 19.32224
1196.501, 19.15977
1196.983, 18.95225
1197.466, 18.54668
1197.948, 18.17894
1198.430, 18.37000
1198.912, 18.89207
1199.394, 19.32947
1199.876, 19.61371
1200.358, 19.67641
1200.840, 19.35748
1201.323, 19.09755
1201.805, 19.09305
1202.287, 19.18919
1202.769, 19.03910
1203.251, 18.75010
1203.733, 18.53730
1204.215, 18.43418
1204.697, 18.48426
1205.179, 18.78634
1205.661, 19.05511
1206.144, 19.17953
1206.626, 19.17354
1207.108, 18.99683
1207.590, 18.72662
1208.072, 18.52571
1208.554, 18.44036
1209.036, 18.43674
1209.518, 18.54832
1210.001, 18.65060
1210.483, 18.67036
1210.965, 18.64744
1211.447, 18.67931
1211.929, 18.74324
1212.411, 18.78608
1212.893, 18.76637
1213.375, 18.82218
1213.858, 19.11366
1214.340, 19.17112
1214.822, 18.57920
1215.304, 17.68381
1215.786, 17.23561
1216.268, 17.15936
1216.750, 17.33290
1217.232, 17.94633
1217.714, 18.31556
1218.197, 18.40448
1218.679, 18.22335
1219.161, 17.57520
1219.643, 16.80816
1220.125, 16.71096
1220.607, 17.07725
1221.089, 17.43468
1221.571, 17.74169
1222.053, 17.80565
1222.536, 17.53296
1223.018, 17.25233
1223.500, 17.19987
1223.982, 17.27689
1224.464, 17.37436
1224.946, 17.43611
1225.428, 17.33138
1225.910, 16.71504
1226.393, 16.49537
1226.875, 16.79569
1227.357, 17.15161
1227.839, 17.30558
1228.321, 17.24519
1228.803, 16.68480
1229.285, 15.93483
1229.767, 15.73612
1230.250, 16.84203
1230.732, 17.28514
1231.214, 16.89306
1231.696, 16.42816
1232.178, 16.57382
1232.660, 16.92549
1233.142, 16.90497
1233.624, 16.65407
1234.106, 16.51937
1234.589, 16.62760
1235.071, 16.63681
1235.553, 16.51819
1236.035, 16.41423
1236.517, 16.50711
1236.999, 16.61551
1237.481, 16.43225
1237.963, 16.12309
1238.445, 16.10328
1238.928, 16.54819
1239.410, 16.72108
1239.892, 16.57603
1240.374, 16.36047
1240.856, 16.25761
1241.338, 16.17592
1241.820, 15.96417
1242.302, 15.73384
1242.785, 15.74348
1243.267, 16.08554
1243.749, 16.15259
1244.231, 15.90738
1244.713, 15.73866
1245.195, 16.03974
1245.677, 16.41174
1246.159, 16.61086
1246.641, 16.64281
1247.124, 16.52938
1247.606, 16.25458
1248.088, 16.01969
1248.570, 15.83592
1249.052, 15.69491
1249.534, 15.55238
1250.016, 15.49153
1250.498, 15.52789
1250.980, 15.70374
1251.463, 16.20771
1251.945, 17.02532
1252.427, 17.17955
1252.909, 16.68355
1253.391, 16.11615
1253.873, 15.62504
1254.355, 15.39781
1254.837, 15.67295
1255.320, 16.12074
1255.802, 16.41603
1256.284, 16.56769
1256.766, 16.57683
1257.248, 16.46801
1257.730, 16.40953
1258.212, 16.57553
1258.694, 16.68159
1259.177, 16.62789
1259.659, 16.52785
1260.141, 16.46873
1260.623, 16.46456
1261.105, 16.61799
1261.587, 16.88714
1262.069, 17.06759
1262.551, 16.96004
1263.033, 16.93097
1263.516, 17.05711
1263.998, 17.20452
1264.480, 17.22832
1264.962, 17.18456
1265.444, 17.14819
1265.926, 17.14576
1266.408, 17.26459
1266.890, 17.82644
1267.372, 17.87593
1267.855, 17.19764
1268.337, 16.56704
1268.819, 16.77627
1269.301, 17.35173
1269.783, 17.70364
1270.265, 17.86719
1270.747, 17.96473
1271.229, 17.93957
1271.712, 18.13872
1272.194, 18.62144
1272.676, 18.99422
1273.158, 18.80914
1273.640, 18.50948
1274.122, 18.50652
1274.604, 18.69278
1275.086, 18.86898
1275.568, 19.06282
1276.051, 18.97017
1276.533, 18.57969
1277.015, 18.24921
1277.497, 18.22848
1277.979, 18.31924
1278.461, 18.47815
1278.943, 18.62786
1279.425, 18.67773
1279.907, 18.62928
1280.390, 18.52019
1280.872, 18.36150
1281.354, 18.23373
1281.836, 18.21466
1282.318, 18.19221
1282.800, 18.15869
1283.282, 18.07186
1283.764, 17.82339
1284.247, 17.48195
1284.729, 17.40996
1285.211, 17.56946
1285.693, 17.81429
1286.175, 18.27367
1286.657, 18.52539
1287.139, 18.53455
1287.621, 18.33523
1288.104, 17.75304
1288.586, 17.09335
1289.068, 17.11150
1289.550, 17.54824
1290.032, 17.80030
1290.514, 17.56664
1290.996, 17.41516
1291.478, 17.36401
1291.960, 17.31944
1292.443, 17.21725
1292.925, 17.09328
1293.407, 17.00883
1293.889, 16.92591
1294.371, 16.73497
1294.853, 16.34710
1295.335, 16.39159
1295.817, 16.87822
1296.299, 17.40590
1296.782, 17.84672
1297.264, 18.13038
1297.746, 18.19649
1298.228, 18.07272
1298.710, 17.74589
1299.192, 17.24635
1299.674, 17.08912
1300.156, 17.22472
1300.639, 17.31737
1301.121, 17.18436
1301.603, 17.10192
1302.085, 17.33270
1302.567, 17.51023
1303.049, 17.46660
1303.531, 17.19873
##END=



