##NAMES=Pyrochlore
##RRUFFID=R060151
##IDEAL CHEMISTRY=Ca_2_Nb_2_O_7_
##LOCALITY=Oka, Quebec, Canada
##OWNER=RRUFF
##SOURCE=Marcus Origlieri
##DESCRIPTION=Reddish-brown octahedral crystals associated with calcite
##STATUS=The identification of this mineral has been confirmed by X-ray diffraction and chemical analysis
##URL=rruff.info/R060151
##MEASURED CHEMISTRY=(Ca_1.41_Na_0.59_)_Σ=2_(Nb_1.49_Ti_0.26_Ce_0.15_Fe^3+^_0.05_La_0.02_Nd_0.02_Mn_0.02_)_Σ=2_(O_5.40_(OH)_1.10_F_0.50_)_Σ=7_
90.26367, 21.57867
90.74579, 21.52852
91.22791, 21.56816
91.71002, 21.68448
92.19214, 21.76039
92.67426, 21.67818
93.15637, 21.47800
93.63850, 21.24907
94.12061, 20.77267
94.60273, 20.34778
95.08485, 20.95769
95.56696, 22.74475
96.04908, 24.56668
96.53120, 24.90936
97.01331, 23.83280
97.49543, 22.66084
97.97755, 21.90204
98.45966, 21.54849
98.94178, 21.34585
99.42390, 21.31192
99.90602, 21.40020
100.3881, 21.59605
100.8703, 21.98141
101.3524, 22.18068
101.8345, 21.90012
102.3166, 20.96410
102.7987, 20.32060
103.2808, 20.09246
103.7630, 20.20235
104.2451, 20.33554
104.7272, 20.53351
105.2093, 20.70156
105.6914, 20.76220
106.1735, 20.57769
106.6557, 20.52366
107.1378, 20.68588
107.6199, 21.07381
108.1020, 21.40761
108.5841, 21.62565
109.0662, 21.82416
109.5484, 22.09196
110.0305, 22.36646
110.5126, 22.77487
110.9947, 23.29820
111.4768, 23.89953
111.9590, 24.81019
112.4411, 26.30971
112.9232, 28.07681
113.4053, 29.65374
113.8874, 30.56209
114.3695, 31.60431
114.8517, 33.00649
115.3338, 34.68429
115.8159, 37.00499
116.2980, 40.31964
116.7801, 44.39196
117.2622, 48.66327
117.7444, 52.81887
118.2265, 57.20181
118.7086, 62.03508
119.1907, 67.53842
119.6728, 73.32905
120.1549, 78.62576
120.6371, 83.81737
121.1192, 90.51064
121.6013, 100.4723
122.0834, 112.0888
122.5655, 123.5325
123.0477, 134.0971
123.5298, 144.4039
124.0119, 154.9019
124.4940, 165.5962
124.9761, 176.6071
125.4582, 187.9682
125.9404, 199.6390
126.4225, 211.4482
126.9046, 223.6821
127.3867, 235.9064
127.8688, 247.4119
128.3509, 258.1763
128.8331, 268.4398
129.3152, 278.4688
129.7973, 288.2712
130.2794, 297.6410
130.7615, 305.3212
131.2436, 312.3321
131.7258, 322.3418
132.2079, 335.8546
132.6900, 351.2901
133.1721, 366.6270
133.6542, 381.7987
134.1364, 396.7144
134.6185, 411.4749
135.1006, 426.1341
135.5827, 440.3847
136.0648, 454.3057
136.5469, 467.8430
137.0291, 480.9815
137.5112, 493.7094
137.9933, 505.7289
138.4754, 517.1282
138.9575, 527.9192
139.4396, 537.3453
139.9218, 544.9968
140.4039, 551.1808
140.8860, 557.0731
141.3681, 562.3150
141.8502, 567.8419
142.3323, 574.3649
142.8145, 582.4783
143.2966, 590.2452
143.7787, 597.0423
144.2608, 602.9592
144.7429, 609.8314
145.2251, 618.1500
145.7072, 627.0697
146.1893, 635.7917
146.6714, 643.8073
147.1535, 652.3612
147.6356, 661.6177
148.1178, 671.5453
148.5999, 682.1508
149.0820, 693.9761
149.5641, 706.2139
150.0462, 717.8022
150.5283, 728.4902
151.0105, 738.6326
151.4926, 741.5188
151.9747, 742.7645
152.4568, 743.9932
152.9389, 745.5673
153.4210, 747.0886
153.9032, 748.0120
154.3853, 748.0283
154.8674, 747.6832
155.3495, 747.1448
155.8316, 746.4334
156.3138, 745.5031
156.7959, 744.1022
157.2780, 742.4828
157.7601, 741.1330
158.2422, 740.3431
158.7243, 739.6676
159.2065, 738.8326
159.6886, 737.5092
160.1707, 736.4930
160.6528, 736.1230
161.1349, 736.2255
161.6170, 736.3617
162.0992, 736.1318
162.5813, 736.0141
163.0634, 736.3624
163.5455, 737.6655
164.0276, 738.8721
164.5097, 739.7285
164.9919, 740.1745
165.4740, 739.9561
165.9561, 737.8458
166.4382, 735.5238
166.9203, 734.5500
167.4025, 736.7399
167.8846, 738.9854
168.3667, 739.0206
168.8488, 737.1718
169.3309, 735.5230
169.8130, 735.9037
170.2952, 737.0409
170.7773, 737.3470
171.2594, 735.7155
171.7415, 733.4839
172.2236, 731.7220
172.7057, 730.3953
173.1879, 729.1114
173.6700, 727.5119
174.1521, 725.7526
174.6342, 724.0982
175.1163, 722.6523
175.5984, 721.3226
176.0806, 720.1597
176.5627, 719.1609
177.0448, 717.8989
177.5269, 716.0176
178.0090, 713.5987
178.4911, 710.7740
178.9733, 707.2229
179.4554, 703.4593
179.9375, 700.3743
180.4196, 698.0682
180.9017, 695.8572
181.3839, 692.9564
181.8660, 689.5605
182.3481, 686.2294
182.8302, 683.1130
183.3123, 680.2923
183.7944, 678.1620
184.2766, 676.8525
184.7587, 675.5448
185.2408, 673.0727
185.7229, 669.6136
186.2050, 666.0714
186.6871, 662.8566
187.1693, 659.8947
187.6514, 657.0940
188.1335, 654.3774
188.6156, 651.8820
189.0977, 650.0001
189.5798, 648.6833
190.0620, 647.0266
190.5441, 644.2619
191.0262, 640.5786
191.5083, 637.3965
191.9904, 634.8427
192.4725, 632.5440
192.9547, 629.6815
193.4368, 626.2015
193.9189, 623.1179
194.4010, 621.3088
194.8831, 620.6659
195.3652, 619.4453
195.8474, 617.5614
196.3295, 615.0256
196.8116, 611.4570
197.2937, 606.7082
197.7758, 602.4283
198.2579, 600.0420
198.7401, 599.6069
199.2222, 598.1127
199.7043, 595.0848
200.1864, 591.2086
200.6685, 588.1109
201.1507, 585.9772
201.6328, 583.7974
202.1149, 580.8212
202.5970, 576.9299
203.0791, 573.4268
203.5612, 570.4863
204.0434, 567.9824
204.5255, 565.7181
205.0076, 563.8057
205.4897, 561.7638
205.9718, 559.2084
206.4539, 556.0236
206.9361, 553.0857
207.4182, 550.5793
207.9003, 548.3342
208.3824, 545.6720
208.8645, 542.4556
209.3466, 539.1709
209.8288, 535.9636
210.3109, 532.7006
210.7930, 530.1246
211.2751, 528.4247
211.7572, 527.4308
212.2393, 526.6218
212.7215, 526.3116
213.2036, 525.5160
213.6857, 523.3469
214.1678, 519.1404
214.6499, 515.8288
215.1321, 513.9315
215.6142, 513.0659
216.0963, 511.6288
216.5784, 509.5031
217.0605, 507.0450
217.5426, 504.3390
218.0248, 501.1152
218.5069, 498.5440
218.9890, 496.8823
219.4711, 495.9650
219.9532, 495.0107
220.4353, 494.0731
220.9175, 493.0062
221.3996, 491.5013
221.8817, 488.2019
222.3638, 488.3138
222.8459, 488.1119
223.3280, 487.6129
223.8102, 485.9271
224.2923, 485.7738
224.7744, 485.0064
225.2565, 484.2138
225.7386, 484.2762
226.2208, 482.7629
226.7029, 482.8118
227.1850, 482.2371
227.6671, 481.5952
228.1492, 480.7900
228.6313, 480.0702
229.1135, 479.5543
229.5956, 479.2025
230.0777, 479.1543
230.5598, 479.5426
231.0419, 480.2650
231.5240, 480.8260
232.0062, 481.2407
232.4883, 481.4865
232.9704, 481.4635
233.4525, 480.7762
233.9346, 480.7223
234.4167, 481.6079
234.8989, 483.2276
235.3810, 484.5761
235.8631, 485.3590
236.3452, 486.2719
236.8273, 487.8609
237.3095, 490.9012
237.7916, 492.8643
238.2737, 493.1920
238.7558, 492.3105
239.2379, 492.0107
239.7200, 492.3871
240.2022, 493.2077
240.6843, 494.4041
241.1664, 496.1875
241.6485, 497.8964
242.1306, 499.5520
242.6127, 501.1248
243.0949, 502.3834
243.5770, 503.0436
244.0591, 503.8102
244.5412, 505.1520
245.0233, 507.7367
245.5054, 509.3961
245.9876, 509.5982
246.4697, 508.8997
246.9518, 509.1015
247.4339, 510.6348
247.9160, 512.4307
248.3981, 513.9454
248.8803, 514.9716
249.3624, 516.2467
249.8445, 517.9553
250.3266, 519.8658
250.8087, 521.3056
251.2909, 521.9386
251.7730, 522.6006
252.2551, 523.6543
252.7372, 525.2104
253.2193, 526.8954
253.7014, 528.7933
254.1836, 530.7650
254.6657, 532.4929
255.1478, 533.9952
255.6299, 535.2258
256.1120, 536.0823
256.5941, 536.2999
257.0763, 537.0477
257.5584, 538.6462
258.0405, 540.5910
258.5226, 541.7544
259.0047, 541.6946
259.4868, 541.7959
259.9690, 542.6390
260.4511, 544.4130
260.9332, 546.1004
261.4153, 547.7967
261.8974, 549.3438
262.3795, 550.3193
262.8617, 550.3348
263.3438, 550.7477
263.8259, 552.2919
264.3080, 555.2733
264.7901, 556.9875
265.2722, 556.9395
265.7544, 556.2078
266.2365, 556.3590
266.7186, 557.6148
267.2007, 559.0785
267.6829, 560.6078
268.1650, 562.2587
268.6471, 563.2759
269.1292, 563.6168
269.6113, 563.4305
270.0934, 562.6480
270.5756, 560.9064
271.0577, 559.9823
271.5398, 560.6312
272.0219, 562.7983
272.5040, 564.3057
272.9861, 565.0685
273.4683, 565.3278
273.9504, 565.2004
274.4325, 564.5856
274.9146, 564.1607
275.3967, 564.1893
275.8788, 564.5762
276.3610, 564.5569
276.8431, 564.0814
277.3252, 563.3563
277.8073, 562.4613
278.2894, 561.3619
278.7715, 560.5745
279.2537, 560.3596
279.7358, 560.5037
280.2179, 560.0508
280.7000, 558.9241
281.1821, 557.5607
281.6642, 556.3232
282.1464, 555.2156
282.6285, 553.8362
283.1106, 551.9379
283.5927, 549.8748
284.0748, 548.7908
284.5569, 548.7852
285.0391, 548.7784
285.5212, 547.8235
286.0033, 546.0182
286.4854, 544.6873
286.9675, 544.1821
287.4496, 543.9243
287.9318, 542.7054
288.4139, 540.4979
288.8960, 538.0342
289.3781, 535.5637
289.8602, 533.1339
290.3424, 531.0713
290.8245, 529.5287
291.3066, 528.0507
291.7887, 525.9351
292.2708, 523.2206
292.7530, 520.2843
293.2351, 517.1479
293.7172, 513.9421
294.1993, 511.2158
294.6814, 509.0250
295.1635, 507.0779
295.6457, 505.0992
296.1278, 503.0825
296.6099, 501.0289
297.0920, 499.0681
297.5741, 497.0714
298.0562, 494.7733
298.5384, 492.1750
299.0205, 489.4583
299.5026, 486.7167
299.9847, 484.0100
300.4668, 481.4026
300.9489, 479.0385
301.4311, 476.7812
301.9132, 474.5871
302.3953, 472.4323
302.8774, 470.1200
303.3595, 467.3487
303.8416, 464.3205
304.3238, 461.3076
304.8059, 458.4557
305.2880, 455.6786
305.7701, 452.9665
306.2522, 450.2908
306.7343, 447.6459
307.2165, 444.8120
307.6986, 442.0428
308.1807, 439.7137
308.6628, 438.1690
309.1449, 436.6094
309.6270, 434.2467
310.1092, 431.2819
310.5913, 428.4434
311.0734, 426.2348
311.5555, 424.2557
312.0376, 422.1661
312.5197, 419.8245
313.0019, 417.5689
313.4840, 415.5181
313.9661, 413.6612
314.4482, 411.9567
314.9304, 410.7411
315.4125, 409.4235
315.8946, 407.6111
316.3767, 405.1776
316.8588, 402.6461
317.3409, 400.3390
317.8231, 398.0208
318.3052, 395.3910
318.7873, 391.5031
319.2694, 388.0028
319.7515, 385.7535
320.2336, 384.8857
320.7158, 383.9673
321.1979, 382.7592
321.6800, 381.2564
322.1621, 379.4563
322.6442, 376.8569
323.1263, 374.4712
323.6085, 372.6083
324.0906, 371.2403
324.5727, 369.8725
325.0548, 368.8102
325.5369, 367.5044
326.0190, 365.6259
326.5012, 362.0480
326.9833, 359.1812
327.4654, 357.6071
327.9475, 357.0016
328.4296, 356.0793
328.9117, 354.6017
329.3939, 353.0176
329.8760, 351.4945
330.3581, 350.0882
330.8402, 348.6183
331.3223, 346.9998
331.8044, 345.3234
332.2866, 343.7680
332.7687, 342.3517
333.2508, 341.0345
333.7329, 339.7801
334.2150, 338.5583
334.6971, 337.5040
335.1793, 336.5940
335.6614, 335.8617
336.1435, 335.5416
336.6256, 336.1272
337.1077, 335.7731
337.5899, 333.6540
338.0720, 329.8929
338.5541, 327.5005
339.0362, 326.8409
339.5183, 326.7138
340.0005, 326.0215
340.4826, 324.6649
340.9647, 323.4487
341.4468, 322.5710
341.9289, 321.8980
342.4110, 320.8633
342.8932, 319.3893
343.3753, 318.0922
343.8574, 317.6281
344.3395, 317.9093
344.8216, 317.6254
345.3037, 316.5005
345.7859, 315.0334
346.2680, 314.1128
346.7501, 313.6992
347.2322, 313.3389
347.7143, 312.5490
348.1964, 311.5995
348.6786, 311.5960
349.1607, 312.7403
349.6428, 313.8595
350.1249, 313.4264
350.6070, 311.8478
351.0891, 310.3869
351.5713, 309.7534
352.0534, 309.4623
352.5355, 308.7174
353.0176, 307.5482
353.4997, 306.4222
353.9818, 305.7965
354.4640, 305.4404
354.9461, 304.9948
355.4282, 304.3658
355.9103, 303.6100
356.3924, 302.6566
356.8745, 301.5766
357.3567, 300.6694
357.8388, 300.4345
358.3209, 300.2578
358.8030, 299.5276
359.2851, 297.9371
359.7672, 296.3436
360.2494, 294.9305
360.7315, 293.8511
361.2136, 293.4035
361.6957, 294.4420
362.1779, 295.5224
362.6600, 296.0062
363.1421, 295.8343
363.6242, 295.0698
364.1063, 293.0618
364.5884, 290.7295
365.0706, 289.0298
365.5527, 288.7394
366.0348, 288.4857
366.5169, 287.8337
366.9990, 286.8214
367.4811, 286.2146
367.9633, 286.6928
368.4454, 287.1765
368.9275, 287.0405
369.4096, 285.6944
369.8917, 284.5427
370.3738, 283.6970
370.8560, 283.0539
371.3381, 282.3294
371.8202, 281.3730
372.3023, 280.5358
372.7844, 280.0647
373.2665, 280.2081
373.7487, 279.6367
374.2308, 277.9184
374.7129, 275.9228
375.1950, 274.8878
375.6771, 275.1279
376.1592, 275.3305
376.6414, 275.1465
377.1235, 274.6157
377.6056, 274.1561
378.0877, 273.8163
378.5698, 273.3834
379.0519, 272.5529
379.5341, 271.3291
380.0162, 270.3518
380.4983, 269.7624
380.9804, 269.4479
381.4625, 269.3604
381.9446, 269.4877
382.4268, 269.2524
382.9089, 267.7825
383.3910, 265.6230
383.8731, 264.7179
384.3553, 265.4130
384.8374, 266.4359
385.3195, 266.2547
385.8016, 265.1731
386.2837, 264.0790
386.7658, 263.2844
387.2480, 262.7440
387.7301, 262.4077
388.2122, 262.2768
388.6943, 262.3253
389.1764, 262.9436
389.6585, 263.5974
390.1407, 263.5624
390.6228, 262.3489
391.1049, 260.8144
391.5870, 259.2022
392.0691, 257.6713
392.5512, 256.7015
393.0334, 257.2135
393.5155, 257.8700
393.9976, 257.7886
394.4797, 256.6959
394.9618, 255.3940
395.4439, 253.8287
395.9261, 252.2876
396.4082, 251.1577
396.8903, 250.6803
397.3724, 250.4519
397.8545, 250.4896
398.3366, 250.8080
398.8188, 250.8662
399.3009, 250.6100
399.7830, 250.0917
400.2651, 249.3229
400.7472, 247.9221
401.2293, 246.8435
401.7115, 246.2108
402.1936, 245.9163
402.6757, 245.6785
403.1578, 245.6528
403.6399, 245.4080
404.1220, 244.6777
404.6042, 243.3206
405.0863, 242.2919
405.5684, 241.6717
406.0505, 241.2668
406.5326, 240.8431
407.0147, 240.3924
407.4969, 239.9858
407.9790, 239.6649
408.4611, 239.3969
408.9432, 239.0413
409.4254, 238.5965
409.9075, 238.1127
410.3896, 237.6286
410.8717, 237.1379
411.3538, 236.6004
411.8359, 236.0039
412.3181, 235.3907
412.8002, 234.8533
413.2823, 234.3696
413.7644, 233.8119
414.2465, 232.9063
414.7286, 231.9803
415.2108, 231.5752
415.6929, 231.7342
416.1750, 231.8279
416.6571, 231.2562
417.1392, 230.3642
417.6213, 229.6003
418.1035, 229.2011
418.5856, 228.8858
419.0677, 228.5345
419.5498, 228.1451
420.0319, 227.7224
420.5140, 227.2007
420.9962, 226.6895
421.4783, 226.2625
421.9604, 225.9648
422.4425, 225.6602
422.9246, 225.3479
423.4067, 225.0081
423.8889, 224.6087
424.3710, 224.1355
424.8531, 223.6140
425.3352, 223.0379
425.8173, 222.4072
426.2994, 221.8178
426.7816, 221.3746
427.2637, 220.8710
427.7458, 220.1113
428.2279, 218.7831
428.7100, 217.9715
429.1921, 217.9166
429.6743, 218.3093
430.1564, 218.4595
430.6385, 218.3478
431.1206, 218.0657
431.6028, 217.5933
432.0849, 216.9390
432.5670, 216.4077
433.0491, 216.0180
433.5312, 215.6716
434.0133, 215.3152
434.4955, 214.9302
434.9776, 214.3498
435.4597, 213.4178
435.9418, 212.4185
436.4239, 211.9220
436.9060, 211.8720
437.3882, 211.8772
437.8703, 211.7045
438.3524, 211.4281
438.8345, 211.1478
439.3166, 210.8722
439.7987, 210.5930
440.2809, 210.3339
440.7630, 210.0575
441.2451, 209.7096
441.7272, 209.2601
442.2093, 208.7409
442.6914, 207.9782
443.1736, 207.0641
443.6557, 206.4291
444.1378, 206.4701
444.6199, 206.4148
445.1020, 206.2682
445.5841, 205.7574
446.0663, 205.7169
446.5484, 205.4880
447.0305, 205.2513
447.5126, 205.2771
447.9947, 204.8193
448.4768, 204.8409
448.9590, 204.6711
449.4411, 204.5889
449.9232, 204.3171
450.4053, 204.1038
450.8874, 204.0803
451.3695, 203.9517
451.8517, 203.6579
452.3338, 203.5813
452.8159, 203.1169
453.2980, 202.9928
453.7801, 203.0155
454.2622, 202.7313
454.7444, 202.6581
455.2265, 202.5046
455.7086, 202.6149
456.1907, 202.8099
456.6729, 202.8712
457.1550, 203.0044
457.6371, 203.5921
458.1192, 204.3984
458.6013, 204.8181
459.0834, 204.5496
459.5656, 204.1224
460.0477, 204.0824
460.5298, 204.3505
461.0119, 204.6913
461.4940, 204.9812
461.9761, 205.3008
462.4583, 205.7052
462.9404, 206.2021
463.4225, 206.7903
463.9046, 207.3475
464.3867, 208.0577
464.8688, 209.0800
465.3510, 210.8789
465.8331, 212.5218
466.3152, 213.6798
466.7973, 214.5013
467.2794, 215.5153
467.7615, 216.8073
468.2437, 218.2620
468.7258, 219.8771
469.2079, 221.6695
469.6900, 223.4467
470.1721, 225.1838
470.6542, 226.9152
471.1364, 228.5926
471.6185, 230.0782
472.1006, 232.1123
472.5827, 235.0297
473.0648, 238.4524
473.5469, 241.1317
474.0291, 243.0054
474.5112, 244.8798
474.9933, 247.1941
475.4754, 249.8941
475.9575, 252.7553
476.4396, 255.7729
476.9218, 258.9487
477.4039, 262.2891
477.8860, 265.7647
478.3681, 269.2788
478.8503, 272.8112
479.3324, 276.3531
479.8145, 279.9082
480.2966, 283.4951
480.7787, 287.0226
481.2608, 290.3727
481.7430, 293.7723
482.2251, 297.4960
482.7072, 301.6865
483.1893, 305.5204
483.6714, 308.2757
484.1535, 310.7333
484.6357, 313.6816
485.1178, 318.1129
485.5999, 322.0871
486.0820, 324.9267
486.5641, 327.0027
487.0462, 329.8023
487.5284, 333.8828
488.0105, 337.9605
488.4926, 341.5962
488.9747, 344.7168
489.4568, 347.6362
489.9389, 350.1977
490.4211, 352.7999
490.9032, 355.9416
491.3853, 359.6798
491.8674, 363.2014
492.3495, 366.2745
492.8316, 369.0762
493.3138, 371.9829
493.7959, 374.9900
494.2780, 377.9480
494.7601, 380.7682
495.2422, 383.4629
495.7243, 385.9821
496.2065, 388.3523
496.6886, 390.5745
497.1707, 392.7948
497.6528, 394.8788
498.1349, 396.5941
498.6170, 397.4548
499.0992, 398.5763
499.5813, 401.0341
500.0634, 404.2437
500.5455, 406.7954
501.0276, 407.6060
501.5097, 408.2191
501.9919, 409.1877
502.4740, 410.5464
502.9561, 412.2768
503.4382, 414.9629
503.9203, 417.6232
504.4025, 419.5727
504.8846, 420.3957
505.3667, 421.3213
505.8488, 422.4399
506.3309, 423.6809
506.8130, 424.8926
507.2952, 426.0641
507.7773, 427.2542
508.2594, 428.5378
508.7415, 429.8554
509.2236, 430.8535
509.7057, 431.5075
510.1879, 432.1631
510.6700, 433.0717
511.1521, 434.2148
511.6342, 435.6308
512.1163, 437.4064
512.5984, 439.1118
513.0806, 440.0460
513.5627, 440.5752
514.0448, 441.4649
514.5269, 443.6995
515.0090, 445.8698
515.4911, 446.9586
515.9733, 447.0735
516.4554, 447.0076
516.9375, 446.4547
517.4196, 446.2594
517.9017, 447.0635
518.3839, 449.5643
518.8660, 451.5196
519.3481, 452.2223
519.8302, 452.4713
520.3123, 453.1454
520.7944, 454.8487
521.2766, 455.8472
521.7587, 455.5560
522.2408, 454.4189
522.7229, 454.2667
523.2050, 455.3719
523.6871, 456.4842
524.1693, 456.8403
524.6514, 456.5233
525.1335, 456.7074
525.6156, 457.4632
526.0977, 458.2821
526.5798, 458.6150
527.0620, 458.5952
527.5441, 458.6100
528.0262, 458.7446
528.5083, 458.9445
528.9904, 459.1920
529.4725, 459.4541
529.9547, 459.6562
530.4368, 459.7800
530.9189, 459.8016
531.4010, 459.6732
531.8831, 459.3911
532.3652, 459.0840
532.8474, 458.7471
533.3295, 458.4232
533.8116, 458.1526
534.2937, 458.1373
534.7758, 457.8280
535.2579, 456.8670
535.7401, 455.7867
536.2222, 455.4726
536.7043, 456.4503
537.1865, 456.9602
537.6686, 456.5333
538.1507, 455.3735
538.6328, 454.3252
539.1149, 453.3487
539.5970, 452.7079
540.0792, 452.9284
540.5613, 453.7118
541.0434, 453.5240
541.5255, 452.2440
542.0076, 450.6271
542.4897, 449.2346
542.9719, 448.0532
543.4540, 447.0644
543.9361, 446.3586
544.4182, 445.6831
544.9003, 444.5582
545.3824, 443.3188
545.8646, 442.7149
546.3467, 444.1329
546.8288, 445.2752
547.3109, 444.7721
547.7930, 442.5406
548.2751, 440.8365
548.7573, 440.5132
549.2394, 440.4087
549.7215, 439.8985
550.2036, 438.7750
550.6857, 437.7300
551.1678, 436.8057
551.6500, 435.9235
552.1321, 434.9066
552.6142, 433.6759
553.0963, 432.8659
553.5784, 432.7984
554.0605, 433.1023
554.5427, 432.7905
555.0248, 431.8868
555.5069, 430.7941
555.9890, 429.3507
556.4711, 428.0122
556.9532, 427.8732
557.4354, 428.9647
557.9175, 429.9655
558.3996, 429.7101
558.8817, 428.8958
559.3638, 428.2775
559.8459, 428.1042
560.3281, 428.0038
560.8102, 427.7026
561.2923, 427.4099
561.7744, 427.4584
562.2565, 428.0578
562.7386, 428.8533
563.2208, 429.8941
563.7029, 431.1149
564.1850, 432.0862
564.6671, 432.6455
565.1492, 433.2317
565.6313, 434.0675
566.1135, 435.1622
566.5956, 436.3281
567.0777, 437.5952
567.5598, 438.7982
568.0419, 439.5789
568.5240, 440.0763
569.0062, 441.1077
569.4883, 442.9285
569.9704, 445.0794
570.4525, 447.1782
570.9346, 449.1558
571.4167, 450.7403
571.8989, 451.2671
572.3810, 451.8481
572.8631, 453.4589
573.3452, 455.9344
573.8273, 458.1971
574.3094, 459.5379
574.7916, 460.7794
575.2737, 462.3803
575.7558, 464.4988
576.2379, 466.5953
576.7200, 468.6988
577.2021, 470.7135
577.6843, 472.4671
578.1664, 473.6171
578.6485, 475.5797
579.1306, 478.8388
579.6127, 482.6258
580.0948, 485.3835
580.5770, 487.0983
581.0591, 488.8878
581.5412, 491.4044
582.0233, 494.1429
582.5054, 495.8518
582.9875, 496.6259
583.4697, 497.3576
583.9518, 498.4179
584.4340, 499.8606
584.9161, 501.8746
585.3982, 504.5449
585.8803, 507.1703
586.3624, 509.6082
586.8445, 511.7347
587.3267, 513.4299
587.8088, 514.0890
588.2909, 515.0659
588.7730, 516.7422
589.2551, 518.7695
589.7372, 520.6113
590.2194, 522.4050
590.7015, 523.6785
591.1836, 523.9772
591.6657, 523.6532
592.1478, 524.8172
592.6299, 527.6677
593.1121, 530.4122
593.5942, 531.8336
594.0763, 532.2490
594.5584, 532.8139
595.0405, 533.5620
595.5226, 534.3144
596.0048, 534.9340
596.4869, 535.4518
596.9690, 535.9415
597.4511, 536.4696
597.9332, 536.8616
598.4153, 537.0685
598.8975, 537.0736
599.3796, 536.8567
599.8617, 535.9402
600.3438, 535.3292
600.8259, 535.5141
601.3080, 536.2547
601.7902, 536.5894
602.2723, 536.3036
602.7544, 535.9551
603.2365, 535.7259
603.7186, 535.6094
604.2007, 535.5262
604.6829, 535.4839
605.1650, 535.3824
605.6471, 534.9930
606.1292, 534.4351
606.6113, 534.4268
607.0934, 535.1855
607.5756, 535.6288
608.0577, 534.2640
608.5398, 531.8934
609.0219, 529.9162
609.5040, 528.9852
609.9861, 528.2491
610.4683, 527.2720
610.9504, 526.1602
611.4325, 525.1165
611.9146, 524.5592
612.3967, 523.7395
612.8788, 522.2542
613.3610, 520.2048
613.8431, 518.5584
614.3252, 517.5269
614.8073, 516.5705
615.2894, 515.2698
615.7715, 513.5739
616.2537, 512.7767
616.7358, 513.0803
617.2179, 513.2957
617.7000, 511.9750
618.1821, 509.5206
618.6642, 507.3775
619.1464, 505.7441
619.6285, 504.4807
620.1106, 503.8080
620.5927, 503.3321
621.0748, 502.3845
621.5569, 500.3141
622.0391, 498.1013
622.5212, 496.0190
623.0033, 494.1103
623.4854, 492.4954
623.9675, 491.4404
624.4496, 490.4510
624.9318, 489.3963
625.4139, 488.2845
625.8960, 487.2836
626.3781, 486.5557
626.8602, 485.6060
627.3423, 483.9731
627.8245, 481.6869
628.3066, 479.8661
628.7887, 478.5948
629.2708, 477.3984
629.7529, 475.7079
630.2350, 473.7215
630.7172, 471.8647
631.1993, 470.2496
631.6815, 468.7063
632.1636, 467.0241
632.6457, 465.3365
633.1278, 463.8308
633.6099, 462.9021
634.0920, 461.8084
634.5742, 460.2254
635.0563, 458.2774
635.5384, 456.3838
636.0205, 454.4530
636.5026, 452.7569
636.9847, 451.5107
637.4669, 450.6696
637.9490, 449.3360
638.4311, 447.4430
638.9132, 445.3410
639.3953, 443.1462
639.8774, 440.8993
640.3596, 438.8053
640.8417, 436.8573
641.3238, 435.1187
641.8059, 433.9487
642.2880, 432.9484
642.7701, 431.5485
643.2523, 429.4730
643.7344, 427.3586
644.2165, 425.6544
644.6986, 424.0356
645.1807, 422.0868
645.6628, 418.9057
646.1450, 416.4107
646.6271, 415.2631
647.1092, 414.8653
647.5913, 413.7432
648.0734, 411.7411
648.5555, 409.3927
649.0377, 406.6449
649.5198, 403.6976
650.0019, 401.5765
650.4840, 400.2483
650.9661, 399.0187
651.4482, 397.4522
651.9304, 395.6676
652.4125, 393.8147
652.8946, 391.9056
653.3767, 390.0530
653.8588, 388.3525
654.3409, 386.7375
654.8231, 385.1821
655.3052, 383.8119
655.7873, 382.1496
656.2694, 379.8756
656.7515, 377.3744
657.2336, 375.0203
657.7158, 372.8877
658.1979, 370.6947
658.6800, 368.2970
659.1621, 365.9547
659.6442, 364.3065
660.1263, 363.3665
660.6085, 362.0156
661.0906, 359.7453
661.5727, 357.0867
662.0548, 354.8907
662.5369, 353.0855
663.0190, 351.3992
663.5012, 349.8358
663.9833, 348.2246
664.4654, 346.5056
664.9475, 344.6687
665.4296, 342.5273
665.9117, 339.5170
666.3939, 336.6335
666.8760, 334.4663
667.3581, 333.1388
667.8402, 331.6567
668.3223, 330.0200
668.8044, 328.2144
669.2866, 326.1791
669.7687, 323.8875
670.2508, 321.8329
670.7329, 320.0970
671.2150, 318.2975
671.6971, 315.6107
672.1793, 312.4901
672.6614, 310.2873
673.1435, 309.6176
673.6256, 309.0527
674.1077, 307.4567
674.5898, 305.1913
675.0720, 302.8457
675.5541, 300.4117
676.0362, 298.1056
676.5183, 296.0059
677.0004, 294.1036
677.4825, 292.3504
677.9647, 290.8883
678.4468, 289.3275
678.9290, 287.4370
679.4111, 285.3882
679.8932, 284.1845
680.3753, 283.9141
680.8574, 283.1261
681.3395, 280.4945
681.8217, 276.8901
682.3038, 274.2290
682.7859, 272.4562
683.2680, 270.8829
683.7501, 269.0833
684.2322, 267.2339
684.7144, 265.4209
685.1965, 263.6657
685.6786, 261.9770
686.1607, 260.5638
686.6428, 259.0907
687.1249, 257.2657
687.6071, 254.7457
688.0892, 252.7279
688.5713, 251.3810
689.0534, 250.2729
689.5355, 248.8705
690.0176, 247.1805
690.4998, 245.5746
690.9819, 244.1282
691.4640, 242.7741
691.9461, 241.5381
692.4282, 240.3498
692.9103, 239.0603
693.3925, 237.5340
693.8746, 235.9822
694.3567, 234.5027
694.8388, 233.0975
695.3209, 231.7738
695.8030, 230.6032
696.2852, 229.4289
696.7673, 228.2062
697.2494, 226.9352
697.7315, 225.6975
698.2136, 224.5306
698.6957, 223.2651
699.1779, 221.7604
699.6600, 220.0949
700.1421, 218.7195
700.6242, 217.6122
701.1063, 216.4362
701.5884, 214.7485
702.0706, 212.9709
702.5527, 211.7803
703.0348, 211.2182
703.5169, 210.3597
703.9990, 208.4142
704.4811, 206.2506
704.9633, 204.4760
705.4454, 203.2303
705.9275, 202.1523
706.4096, 201.2680
706.8917, 200.5181
707.3738, 199.9442
707.8560, 199.6184
708.3381, 198.8073
708.8202, 197.3473
709.3023, 195.7804
709.7844, 194.8155
710.2665, 194.3025
710.7487, 193.8555
711.2308, 193.5217
711.7129, 192.8753
712.1950, 191.3026
712.6771, 189.2670
713.1592, 187.4617
713.6414, 186.0069
714.1235, 184.9293
714.6056, 184.4482
715.0877, 184.3164
715.5698, 184.1218
716.0519, 183.9662
716.5341, 183.4555
717.0162, 182.4058
717.4983, 181.0041
717.9804, 179.7686
718.4625, 178.6875
718.9446, 177.7477
719.4268, 177.0535
719.9089, 176.4222
720.3910, 175.5681
720.8731, 174.5494
721.3552, 173.5759
721.8373, 172.5891
722.3195, 171.8327
722.8016, 171.6584
723.2837, 172.0819
723.7658, 171.9003
724.2479, 170.6915
724.7300, 169.4048
725.2122, 168.5264
725.6943, 168.0661
726.1765, 167.2133
726.6586, 165.8750
727.1407, 164.6727
727.6228, 164.1826
728.1049, 164.1620
728.5870, 164.1095
729.0692, 163.9884
729.5513, 163.7446
730.0334, 163.4209
730.5155, 162.9053
730.9976, 162.0110
731.4797, 160.4603
731.9619, 159.2922
732.4440, 158.9129
732.9261, 158.8301
733.4082, 158.6888
733.8903, 158.4559
734.3724, 158.3248
734.8546, 158.3885
735.3367, 158.3608
735.8188, 157.7530
736.3009, 156.6993
736.7830, 155.7952
737.2651, 155.1424
737.7473, 154.7379
738.2294, 154.8411
738.7115, 155.1203
739.1936, 155.0736
739.6757, 154.1769
740.1578, 153.4006
740.6400, 153.1004
741.1221, 153.0621
741.6042, 152.9094
742.0863, 152.6248
742.5684, 152.2249
743.0505, 151.5993
743.5327, 150.9707
744.0148, 150.9596
744.4969, 151.5128
744.9790, 151.9268
745.4611, 151.8515
745.9432, 151.6225
746.4254, 151.7477
746.9075, 152.0794
747.3896, 152.2325
747.8717, 151.9489
748.3538, 151.5439
748.8359, 151.1341
749.3181, 150.7154
749.8002, 150.2293
750.2823, 149.4706
750.7644, 149.0197
751.2465, 149.1715
751.7286, 149.7629
752.2108, 149.9437
752.6929, 149.7063
753.1750, 149.5246
753.6571, 149.6073
754.1392, 149.9399
754.6213, 150.5958
755.1035, 151.5248
755.5856, 152.4122
756.0677, 153.3478
756.5498, 153.9740
757.0319, 153.9750
757.5140, 153.3162
757.9962, 152.7391
758.4783, 152.2216
758.9604, 151.8779
759.4425, 151.7476
759.9246, 151.8306
760.4067, 152.1861
760.8889, 152.8362
761.3710, 153.5418
761.8531, 154.2410
762.3352, 154.8374
762.8173, 155.0303
763.2994, 154.8246
763.7816, 154.7599
764.2637, 155.2758
764.7458, 155.9888
765.2279, 156.6360
765.7100, 157.2002
766.1921, 157.6937
766.6743, 158.1219
767.1564, 158.4841
767.6385, 158.6407
768.1206, 158.4922
768.6027, 159.3607
769.0848, 161.4628
769.5670, 163.3404
770.0491, 163.2771
770.5312, 162.1328
771.0133, 161.5868
771.4954, 161.8597
771.9775, 162.4997
772.4597, 163.4094
772.9418, 164.4407
773.4240, 165.5200
773.9061, 166.7896
774.3882, 167.6893
774.8703, 168.1223
775.3524, 168.2829
775.8345, 168.2032
776.3167, 167.8257
776.7988, 168.0050
777.2809, 168.8573
777.7630, 169.9322
778.2451, 170.9288
778.7272, 171.7530
779.2094, 172.1303
779.6915, 171.8914
780.1736, 171.7215
780.6557, 171.9940
781.1378, 172.5530
781.6199, 173.2738
782.1021, 174.5174
782.5842, 175.2101
783.0663, 175.0209
783.5484, 174.6473
784.0305, 174.8611
784.5126, 175.6802
784.9948, 176.6496
785.4769, 177.7753
785.9590, 178.7550
786.4411, 179.0230
786.9232, 178.9390
787.4053, 179.2100
787.8875, 180.1789
788.3696, 181.0506
788.8517, 181.2186
789.3338, 181.1970
789.8159, 181.6039
790.2980, 183.0124
790.7802, 183.8763
791.2623, 183.9829
791.7444, 183.7535
792.2265, 183.7201
792.7086, 183.8691
793.1907, 183.9703
793.6729, 183.9751
794.1550, 183.9713
794.6371, 183.9932
795.1192, 184.0930
795.6013, 184.3829
796.0834, 185.0483
796.5656, 185.5935
797.0477, 185.7045
797.5298, 185.6697
798.0119, 185.8654
798.4940, 186.5009
798.9761, 186.8722
799.4583, 186.8537
799.9404, 186.6949
800.4225, 186.7453
800.9046, 186.9682
801.3867, 187.1354
801.8688, 187.1813
802.3510, 187.2308
802.8331, 187.5180
803.3152, 187.8447
803.7973, 187.9171
804.2794, 187.4313
804.7615, 187.0690
805.2437, 187.0334
805.7258, 187.1541
806.2079, 187.2558
806.6900, 187.3141
807.1721, 187.4782
807.6542, 187.8075
808.1364, 188.1211
808.6185, 188.1306
809.1006, 187.9239
809.5827, 187.7628
810.0648, 187.7161
810.5469, 187.6892
811.0291, 187.7170
811.5112, 187.6778
811.9933, 187.4251
812.4754, 186.7363
812.9575, 186.1238
813.4396, 185.5769
813.9218, 185.1470
814.4039, 184.8939
814.8860, 184.8177
815.3681, 184.9907
815.8502, 185.5076
816.3323, 185.8969
816.8145, 185.3972
817.2966, 184.4357
817.7787, 183.7873
818.2608, 183.7110
818.7429, 183.6631
819.2251, 183.4262
819.7072, 183.0694
820.1893, 182.6322
820.6714, 181.9207
821.1536, 181.6503
821.6357, 182.1131
822.1178, 182.4885
822.5999, 181.5709
823.0820, 179.6304
823.5641, 178.6013
824.0463, 178.7819
824.5284, 179.1728
825.0105, 178.8673
825.4926, 178.2451
825.9747, 177.7523
826.4568, 177.5277
826.9390, 177.2362
827.4211, 176.6906
827.9032, 176.1354
828.3853, 175.7165
828.8674, 175.4399
829.3495, 175.3497
829.8317, 175.5120
830.3138, 175.5761
830.7959, 175.0627
831.2780, 174.2366
831.7601, 173.6603
832.2422, 173.4048
832.7244, 173.2627
833.2065, 173.4002
833.6886, 173.3965
834.1707, 172.8038
834.6528, 171.2981
835.1349, 170.4614
835.6171, 170.6141
836.0992, 170.8959
836.5813, 170.7160
837.0634, 170.1121
837.5455, 169.7195
838.0276, 169.5397
838.5098, 169.2314
838.9919, 168.4001
839.4740, 167.3770
839.9561, 166.4609
840.4382, 165.6707
840.9203, 165.0961
841.4025, 165.0037
841.8846, 164.8974
842.3667, 164.4849
842.8488, 163.7785
843.3309, 163.5549
843.8130, 163.9502
844.2952, 164.0737
844.7773, 163.1449
845.2594, 161.6508
845.7415, 160.7401
846.2236, 160.3277
846.7057, 159.9766
847.1879, 159.4696
847.6700, 158.9332
848.1521, 158.4479
848.6342, 158.0056
849.1163, 157.4885
849.5984, 156.7637
850.0806, 156.2450
850.5627, 156.1492
851.0448, 156.3144
851.5269, 156.2086
852.0090, 155.8561
852.4911, 155.4642
852.9733, 155.1918
853.4554, 154.8718
853.9375, 154.1997
854.4196, 153.3587
854.9017, 152.8004
855.3839, 153.1010
855.8660, 153.1558
856.3481, 152.7388
856.8302, 151.9604
857.3123, 150.9416
857.7944, 149.6294
858.2766, 148.7096
858.7587, 148.4107
859.2408, 148.4410
859.7229, 148.6779
860.2050, 148.8861
860.6871, 148.5347
861.1693, 146.9159
861.6514, 145.5645
862.1335, 145.4543
862.6156, 145.7613
863.0977, 145.3066
863.5798, 143.5856
864.0620, 142.6433
864.5441, 142.8687
865.0262, 143.3460
865.5083, 142.7294
865.9904, 141.3941
866.4726, 140.5885
866.9547, 140.6259
867.4368, 140.6068
867.9189, 139.7109
868.4011, 138.5607
868.8832, 137.7598
869.3653, 137.6277
869.8474, 137.1823
870.3295, 136.2229
870.8116, 135.2711
871.2938, 134.8317
871.7759, 134.8399
872.2580, 134.5331
872.7401, 133.8838
873.2222, 133.1840
873.7043, 132.6105
874.1865, 132.1372
874.6686, 131.8399
875.1507, 131.7212
875.6328, 131.3037
876.1149, 129.9371
876.5970, 128.8496
877.0792, 128.6718
877.5613, 129.2624
878.0434, 129.0547
878.5255, 128.0173
879.0076, 127.0457
879.4897, 127.0389
879.9719, 127.1755
880.4540, 126.0326
880.9361, 123.9823
881.4182, 122.3096
881.9003, 121.8355
882.3824, 121.5089
882.8646, 121.0410
883.3467, 120.4399
883.8288, 119.6547
884.3109, 118.5972
884.7930, 117.8644
885.2751, 117.7369
885.7573, 117.7780
886.2394, 117.2400
886.7215, 116.2865
887.2036, 115.3174
887.6857, 114.4087
888.1678, 113.6173
888.6500, 113.0412
889.1321, 112.5696
889.6142, 112.0687
890.0963, 111.6054
890.5784, 110.9412
891.0605, 110.0422
891.5427, 108.9804
892.0248, 107.5948
892.5069, 106.1013
892.9890, 105.2503
893.4711, 105.2183
893.9532, 105.1824
894.4354, 104.5553
894.9175, 103.7160
895.3996, 102.9721
895.8817, 102.4095
896.3638, 101.6952
896.8459, 100.7851
897.3281, 99.82359
897.8102, 98.82476
898.2923, 97.83676
898.7744, 97.23234
899.2565, 96.98354
899.7386, 96.79966
900.2208, 96.61736
900.7029, 96.31988
901.1850, 95.83292
901.6671, 95.15505
902.1492, 94.25270
902.6313, 92.97757
903.1135, 91.76492
903.5956, 90.68008
904.0777, 89.76206
904.5598, 89.15714
905.0419, 88.83288
905.5240, 88.50638
906.0062, 88.08500
906.4883, 87.60332
906.9704, 87.07335
907.4525, 86.51226
907.9346, 85.93954
908.4167, 85.25107
908.8989, 84.73833
909.3810, 84.56957
909.8631, 84.40590
910.3452, 83.68179
910.8273, 82.45742
911.3094, 81.74572
911.7916, 81.72832
912.2737, 81.72387
912.7558, 80.99474
913.2380, 79.99953
913.7201, 79.21268
914.2022, 78.71743
914.6843, 78.37527
915.1664, 78.31869
915.6486, 78.21212
916.1307, 77.86803
916.6128, 77.29922
917.0949, 76.70164
917.5770, 76.07323
918.0591, 75.46071
918.5413, 74.81336
919.0234, 74.24813
919.5055, 73.96853
919.9876, 73.90242
920.4697, 73.72861
920.9518, 73.27774
921.4340, 72.80202
921.9161, 72.35596
922.3982, 71.91805
922.8803, 71.41133
923.3624, 70.84315
923.8445, 70.33352
924.3267, 69.91663
924.8088, 69.57095
925.2909, 69.31586
925.7730, 69.09663
926.2551, 68.82422
926.7372, 68.41324
927.2194, 68.06520
927.7015, 67.83567
928.1836, 67.63503
928.6657, 67.36723
929.1478, 67.03404
929.6299, 66.83917
930.1121, 66.80855
930.5942, 66.68057
931.0763, 66.08866
931.5584, 65.37189
932.0405, 64.87951
932.5226, 64.65041
933.0048, 64.50048
933.4869, 64.57063
933.9690, 64.47964
934.4511, 64.00459
934.9332, 63.26312
935.4153, 62.90351
935.8975, 62.90847
936.3796, 62.97517
936.8617, 62.90144
937.3438, 62.89599
937.8259, 63.30913
938.3080, 63.92770
938.7902, 64.31725
939.2723, 64.40931
939.7544, 64.16660
940.2365, 63.49126
940.7186, 62.61024
941.2007, 61.78258
941.6829, 61.01970
942.1650, 60.49363
942.6471, 60.24772
943.1292, 60.04088
943.6113, 59.56183
944.0934, 59.07021
944.5756, 58.83518
945.0577, 58.94002
945.5398, 59.05916
946.0219, 59.24493
946.5040, 59.30748
946.9861, 59.10670
947.4683, 58.69320
947.9504, 58.34634
948.4325, 58.07102
948.9146, 57.92674
949.3967, 58.16335
949.8788, 58.34604
950.3610, 58.07436
950.8431, 57.48742
951.3252, 57.00846
951.8073, 56.67429
952.2894, 56.47472
952.7715, 56.48478
953.2537, 56.51083
953.7358, 56.12490
954.2179, 55.45895
954.7000, 55.06905
955.1821, 55.11694
955.6642, 55.23855
956.1464, 55.18058
956.6285, 55.07969
957.1106, 55.07368
957.5927, 55.21021
958.0748, 55.26177
958.5569, 55.21753
959.0391, 55.11458
959.5212, 54.95660
960.0033, 54.76180
960.4855, 54.63460
960.9676, 54.54210
961.4497, 54.30756
961.9318, 53.53313
962.4139, 52.90036
962.8961, 52.90520
963.3782, 53.30506
963.8603, 53.41924
964.3424, 53.17640
964.8245, 52.96512
965.3066, 52.89304
965.7888, 52.80053
966.2709, 52.34009
966.7530, 51.71913
967.2351, 51.33689
967.7172, 51.29088
968.1993, 51.44846
968.6815, 52.13742
969.1636, 52.68755
969.6457, 52.53925
970.1278, 51.59958
970.6099, 51.23427
971.0920, 51.48003
971.5742, 51.80468
972.0563, 51.91596
972.5384, 51.84475
973.0205, 51.53679
973.5026, 51.06032
973.9847, 50.67993
974.4669, 50.47353
974.9490, 50.40107
975.4311, 50.53123
975.9132, 50.72406
976.3953, 50.71572
976.8774, 50.50978
977.3596, 50.08915
977.8417, 49.37222
978.3238, 48.79727
978.8059, 48.91692
979.2880, 49.31073
979.7701, 49.53788
980.2523, 49.50851
980.7344, 49.33779
981.2165, 48.94846
981.6986, 48.57117
982.1807, 48.26950
982.6628, 48.09395
983.1450, 48.44506
983.6271, 49.21685
984.1092, 49.74862
984.5913, 49.51971
985.0734, 49.09007
985.5555, 48.63639
986.0377, 48.23653
986.5198, 48.08531
987.0019, 48.31391
987.4840, 48.33495
987.9661, 48.01941
988.4482, 47.58269
988.9304, 47.26713
989.4125, 47.06076
989.8946, 46.97308
990.3767, 47.02948
990.8588, 47.04225
991.3409, 46.91326
991.8231, 46.73660
992.3052, 46.57937
992.7873, 46.44011
993.2694, 46.14753
993.7515, 45.69205
994.2336, 45.35658
994.7158, 45.32544
995.1979, 45.46889
995.6800, 45.74357
996.1621, 46.06633
996.6442, 46.24126
997.1263, 46.24131
997.6085, 46.01632
998.0906, 45.45790
998.5727, 44.81300
999.0548, 44.37390
999.5369, 44.12376
1000.019, 43.97502
1000.501, 43.91915
1000.983, 43.93132
1001.465, 44.04508
1001.948, 44.17933
1002.430, 44.31902
1002.912, 44.45708
1003.394, 44.33055
1003.876, 43.82336
1004.358, 43.43032
1004.840, 43.37342
1005.322, 43.49784
1005.804, 43.54860
1006.287, 43.52932
1006.769, 43.44755
1007.251, 43.27252
1007.733, 43.08742
1008.215, 42.92791
1008.697, 42.75900
1009.179, 42.53681
1009.661, 42.25454
1010.144, 41.96197
1010.626, 41.64539
1011.108, 41.50999
1011.590, 41.94926
1012.072, 42.47919
1012.554, 42.59449
1013.036, 42.31466
1013.518, 42.01022
1014.000, 41.72949
1014.483, 41.44609
1014.965, 41.13115
1015.447, 40.84212
1015.929, 40.72346
1016.411, 40.73140
1016.893, 40.69946
1017.375, 40.56956
1017.857, 40.44966
1018.340, 40.41646
1018.822, 40.41579
1019.304, 40.42527
1019.786, 40.46745
1020.268, 40.26445
1020.750, 39.75714
1021.232, 39.38023
1021.714, 39.51339
1022.196, 39.88184
1022.679, 40.12303
1023.161, 40.24224
1023.643, 40.25084
1024.125, 39.93904
1024.607, 39.82951
1025.089, 40.18078
1025.571, 40.57302
1026.053, 40.25731
1026.536, 39.36575
1027.018, 38.98232
1027.500, 39.26110
1027.982, 39.56521
1028.464, 39.34221
1028.946, 38.99831
1029.428, 38.86349
1029.910, 38.95435
1030.392, 38.98510
1030.875, 38.97159
1031.357, 38.82249
1031.839, 38.43939
1032.321, 37.99987
1032.803, 37.79786
1033.285, 37.78851
1033.767, 37.90614
1034.249, 38.29240
1034.732, 38.47081
1035.214, 38.18584
1035.696, 37.78976
1036.178, 37.39202
1036.660, 36.28006
1037.142, 36.91549
1037.624, 37.23698
1038.106, 37.26145
1038.589, 36.09902
1039.071, 36.46915
1039.553, 36.22519
1040.035, 35.95602
1040.517, 36.54186
1040.999, 35.55220
1041.481, 36.12447
1041.963, 36.07323
1042.445, 36.30738
1042.927, 35.92359
1043.410, 35.73048
1043.892, 36.15568
1044.374, 36.23860
1044.856, 35.78370
1045.338, 36.03596
1045.820, 35.02473
1046.302, 35.12223
1046.784, 35.15106
1047.267, 35.09512
1047.749, 35.19014
1048.231, 35.25789
1048.713, 35.19713
1049.195, 35.13704
1049.677, 35.23432
1050.159, 35.37059
1050.641, 35.36908
1051.124, 35.13301
1051.606, 35.01183
1052.088, 35.02946
1052.570, 35.07624
1053.052, 35.07830
1053.534, 35.04581
1054.016, 35.03674
1054.498, 35.02232
1054.980, 34.86839
1055.463, 34.12608
1055.945, 33.78947
1056.427, 34.32826
1056.909, 35.12867
1057.391, 35.09184
1057.873, 34.32735
1058.355, 33.66539
1058.837, 33.21184
1059.319, 33.08667
1059.802, 33.76178
1060.284, 34.49707
1060.766, 34.66822
1061.248, 34.29232
1061.730, 33.96626
1062.212, 33.61992
1062.694, 33.77955
1063.176, 34.97383
1063.659, 36.18467
1064.141, 35.68379
1064.623, 34.23764
1065.105, 33.13383
1065.587, 32.81489
1066.069, 32.66186
1066.551, 32.67234
1067.033, 32.70636
1067.516, 32.64989
1067.998, 32.52809
1068.480, 32.50697
1068.962, 32.56186
1069.444, 32.55613
1069.926, 32.32471
1070.408, 32.11443
1070.890, 32.08661
1071.372, 32.13483
1071.854, 32.10320
1072.337, 31.98685
1072.819, 31.81845
1073.301, 31.58919
1073.783, 31.43668
1074.265, 31.65075
1074.747, 31.89275
1075.229, 31.74706
1075.711, 31.22712
1076.194, 30.92883
1076.676, 30.97849
1077.158, 31.01714
1077.640, 30.91531
1078.122, 30.82089
1078.604, 31.16540
1079.086, 31.67459
1079.568, 31.70197
1080.051, 30.96025
1080.533, 30.35961
1081.015, 30.24435
1081.497, 30.33225
1081.979, 30.55103
1082.461, 30.86548
1082.943, 31.08698
1083.425, 31.21116
1083.907, 31.18143
1084.390, 30.84461
1084.872, 30.52497
1085.354, 30.40319
1085.836, 30.43593
1086.318, 30.59102
1086.800, 30.96221
1087.282, 30.99096
1087.764, 30.62419
1088.247, 30.26787
1088.729, 30.27413
1089.211, 30.44354
1089.693, 30.61051
1090.175, 30.74368
1090.657, 30.74833
1091.139, 30.53000
1091.621, 30.32102
1092.104, 30.12646
1092.586, 30.00438
1093.068, 30.15124
1093.550, 30.40303
1094.032, 30.32899
1094.514, 29.87839
1094.996, 29.46758
1095.478, 29.14228
1095.960, 29.08500
1096.443, 29.50364
1096.925, 30.14816
1097.407, 30.19790
1097.889, 29.74432
1098.371, 29.47779
1098.853, 29.63654
1099.335, 29.81843
1099.817, 29.64366
1100.299, 29.43747
1100.782, 29.54035
1101.264, 29.96854
1101.746, 30.14392
1102.228, 30.05147
1102.710, 29.92367
1103.192, 29.89529
1103.674, 29.86345
1104.156, 29.65876
1104.639, 29.38816
1105.121, 29.23161
1105.603, 29.34141
1106.085, 29.30492
1106.567, 29.06245
1107.049, 28.84425
1107.531, 28.92180
1108.013, 29.11323
1108.495, 28.95596
1108.978, 28.56095
1109.460, 28.38943
1109.942, 28.88635
1110.424, 29.24733
1110.906, 29.32517
1111.388, 29.22797
1111.870, 28.98174
1112.352, 28.67366
1112.834, 28.80789
1113.317, 29.40584
1113.799, 29.76789
1114.281, 29.18939
1114.763, 28.58943
1115.245, 28.42416
1115.727, 28.56406
1116.209, 28.74092
1116.691, 28.95224
1117.174, 29.05264
1117.656, 29.00168
1118.138, 28.89251
1118.620, 28.76287
1119.102, 28.64206
1119.584, 28.53923
1120.066, 28.45786
1120.548, 28.51335
1121.031, 28.73769
1121.513, 28.87257
1121.995, 28.80799
1122.477, 28.64093
1122.959, 28.38148
1123.441, 28.14224
1123.923, 28.10897
1124.405, 28.44929
1124.887, 28.56115
1125.370, 28.33232
1125.852, 28.16958
1126.334, 28.38197
1126.816, 28.77143
1127.298, 28.97270
1127.780, 29.00966
1128.262, 28.93522
1128.744, 28.66427
1129.227, 28.42763
1129.709, 28.22380
1130.191, 28.09475
1130.673, 28.09678
1131.155, 28.20188
1131.637, 28.32760
1132.119, 28.46101
1132.601, 28.54448
1133.083, 28.49371
1133.566, 28.45459
1134.048, 28.47045
1134.530, 28.52715
1135.012, 28.65031
1135.494, 28.82066
1135.976, 28.80825
1136.458, 28.59448
1136.940, 28.36424
1137.422, 28.15658
1137.905, 28.05903
1138.387, 28.25810
1138.869, 28.58076
1139.351, 28.53070
1139.833, 28.08346
1140.315, 27.88821
1140.797, 28.09027
1141.279, 28.34546
1141.762, 28.33323
1142.244, 28.24846
1142.726, 28.28875
1143.208, 28.44650
1143.690, 28.44207
1144.172, 28.23942
1144.654, 28.07642
1145.136, 28.01036
1145.619, 28.05581
1146.101, 28.39709
1146.583, 28.77078
1147.065, 28.81409
1147.547, 28.37705
1148.029, 28.10344
1148.511, 28.02214
1148.993, 28.05360
1149.475, 28.22443
1149.958, 28.40162
1150.440, 28.27027
1150.922, 28.01245
1151.404, 27.98480
1151.886, 28.47211
1152.368, 28.68988
1152.850, 28.51966
1153.332, 28.23504
1153.814, 27.93793
1154.297, 27.68550
1154.779, 27.71034
1155.261, 27.90251
1155.743, 27.95324
1156.225, 27.53210
1156.707, 27.28987
1157.189, 27.36399
1157.671, 27.52989
1158.154, 27.54807
1158.636, 27.49726
1159.118, 27.86920
1159.600, 28.53262
1160.082, 28.82406
1160.564, 27.93663
1161.046, 27.27003
1161.528, 27.28575
1162.010, 27.60085
1162.493, 27.87569
1162.975, 28.08282
1163.457, 27.97995
1163.939, 27.58188
1164.421, 27.21488
1164.903, 27.12390
1165.385, 27.04229
1165.867, 26.76877
1166.349, 26.48583
1166.832, 26.58663
1167.314, 27.02626
1167.796, 27.16303
1168.278, 26.92404
1168.760, 26.65746
1169.242, 26.52192
1169.724, 26.51893
1170.206, 26.79032
1170.689, 27.15886
1171.171, 27.11496
1171.653, 26.66711
1172.135, 26.45509
1172.617, 26.62374
1173.099, 26.82442
1173.581, 26.75245
1174.063, 26.61428
1174.546, 26.60573
1175.028, 26.67881
1175.510, 26.53610
1175.992, 26.16152
1176.474, 25.93369
1176.956, 25.96218
1177.438, 26.10232
1177.920, 26.29028
1178.402, 26.47248
1178.885, 26.62144
1179.367, 26.73129
1179.849, 26.68034
1180.331, 26.45303
1180.813, 26.23395
1181.295, 26.10317
1181.777, 25.96252
1182.259, 25.56872
1182.742, 25.19548
1183.224, 25.24606
1183.706, 25.81421
1184.188, 25.89782
1184.670, 25.40240
1185.152, 25.13184
1185.634, 25.58960
1186.116, 26.18135
1186.599, 26.22362
1187.081, 25.97761
1187.563, 25.76859
1188.045, 25.61315
1188.527, 25.64765
1189.009, 25.91650
1189.491, 26.09628
1189.973, 25.88327
1190.455, 25.64088
1190.938, 26.02010
1191.420, 26.60781
1191.902, 26.69572
1192.384, 25.94817
1192.866, 25.35615
1193.348, 24.91580
1193.830, 24.64807
1194.312, 24.68290
1194.794, 24.79644
1195.277, 24.63034
1195.759, 24.33721
1196.241, 24.24320
1196.723, 24.51829
1197.205, 24.74000
1197.687, 24.94133
1198.169, 24.92223
1198.651, 24.20143
1199.134, 23.40559
1199.616, 23.51877
1200.098, 24.22486
1200.580, 24.72227
1201.062, 24.85323
1201.544, 24.83882
1202.026, 24.67862
1202.508, 24.41278
1202.990, 23.95928
1203.473, 23.50610
1203.955, 23.30587
1204.437, 23.31919
1204.919, 23.39893
1205.401, 23.56210
1205.883, 23.67382
1206.365, 23.70301
1206.847, 23.76988
1207.329, 24.08892
1207.812, 24.44417
1208.294, 24.58802
1208.776, 24.52231
1209.258, 24.27161
1209.740, 23.68876
1210.222, 23.35855
1210.704, 23.37433
1211.186, 23.52235
1211.669, 23.53964
1212.151, 23.59035
1212.633, 24.06194
1213.115, 24.81997
1213.597, 24.98306
1214.079, 24.28566
1214.561, 23.62377
1215.043, 23.09700
1215.526, 22.73962
1216.008, 22.67694
1216.490, 22.73961
1216.972, 22.72922
1217.454, 22.64412
1217.936, 22.58335
1218.418, 22.56235
1218.900, 22.53274
1219.382, 22.48505
1219.865, 22.43146
1220.347, 22.31454
1220.829, 22.24867
1221.311, 22.44928
1221.793, 22.87102
1222.275, 23.03551
1222.757, 22.87035
1223.239, 22.67368
1223.722, 22.49070
1224.204, 22.34716
1224.686, 22.31067
1225.168, 22.29974
1225.650, 22.19752
1226.132, 22.01815
1226.614, 22.00877
1227.096, 22.23894
1227.578, 22.20881
1228.061, 21.73914
1228.543, 21.33896
1229.025, 21.58114
1229.507, 22.13089
1229.989, 22.88794
1230.471, 23.72219
1230.953, 23.70276
1231.435, 22.70895
1231.917, 21.93589
1232.400, 21.67605
1232.882, 21.59848
1233.364, 21.34034
1233.846, 21.14896
1234.328, 21.29412
1234.810, 21.72886
1235.292, 22.24816
1235.774, 22.87657
1236.257, 22.81571
1236.739, 21.70882
1237.221, 20.74334
1237.703, 21.29578
1238.185, 22.08905
1238.667, 21.81497
1239.149, 20.84525
1239.631, 21.11276
1240.114, 22.55401
1240.596, 23.60168
1241.078, 23.89286
1241.560, 23.58028
1242.042, 22.07813
1242.524, 20.68394
1243.006, 20.42530
1243.488, 20.95541
1243.970, 20.93473
1244.453, 20.43828
1244.935, 20.06777
1245.417, 19.96406
1245.899, 19.99979
1246.381, 20.29560
1246.863, 20.48400
1247.345, 20.30280
1247.827, 19.91029
1248.309, 19.88359
1248.792, 20.12554
1249.274, 20.20545
1249.756, 20.00549
1250.238, 19.74580
1250.720, 19.38311
1251.202, 19.17451
1251.684, 19.28065
1252.166, 19.55755
1252.649, 19.63851
1253.131, 19.57757
1253.613, 19.53994
1254.095, 19.56849
1254.577, 19.56362
1255.059, 19.48972
1255.541, 19.37853
1256.023, 19.22679
1256.505, 19.06310
1256.988, 18.91467
1257.470, 18.80872
1257.952, 18.81758
1258.434, 18.96720
1258.916, 19.12595
1259.398, 19.29849
1259.880, 19.42984
1260.362, 19.52607
1260.844, 19.52359
1261.327, 19.20296
1261.809, 18.76775
1262.291, 18.53600
1262.773, 18.57647
1263.255, 18.58755
1263.737, 18.47547
1264.219, 18.65330
1264.701, 19.38916
1265.184, 20.08080
1265.666, 19.84273
1266.148, 19.20657
1266.630, 18.75596
1267.112, 18.56287
1267.594, 18.47847
1268.076, 18.52260
1268.558, 18.50800
1269.041, 18.36432
1269.523, 18.21054
1270.005, 18.16614
1270.487, 18.16214
1270.969, 18.14241
1271.451, 18.10536
1271.933, 18.08083
1272.415, 18.06668
1272.897, 17.88271
1273.380, 17.44966
1273.862, 17.05980
1274.344, 16.93421
1274.826, 16.92145
1275.308, 16.89072
1275.790, 16.89536
1276.272, 17.22520
1276.754, 17.78757
1277.237, 18.07070
1277.719, 17.94866
1278.201, 17.71874
1278.683, 17.46175
1279.165, 17.20426
1279.647, 16.88180
1280.129, 16.64465
1280.611, 16.97970
1281.094, 17.62961
1281.576, 17.87248
1282.058, 17.58135
1282.540, 17.22083
1283.022, 16.79136
1283.504, 16.55906
1283.986, 16.64485
1284.468, 16.85007
1284.950, 16.89971
1285.432, 16.84122
1285.915, 16.71572
1286.397, 16.53416
1286.879, 16.44553
1287.361, 16.48366
1287.843, 16.54600
1288.325, 16.63031
1288.807, 16.65011
1289.289, 16.36087
1289.772, 16.06230
1290.254, 16.17622
1290.736, 16.62681
1291.218, 16.70174
1291.700, 16.34311
1292.182, 16.19010
1292.664, 16.36780
1293.146, 16.57116
1293.629, 16.51587
1294.111, 16.41952
1294.593, 16.50679
1295.075, 16.63753
1295.557, 16.43992
1296.039, 15.95996
1296.521, 15.70530
1297.003, 15.73677
1297.485, 15.88406
1297.968, 16.22798
1298.450, 16.42034
1298.932, 16.30183
1299.414, 16.04197
1299.896, 15.89543
1300.378, 15.82047
1300.860, 15.60824
1301.342, 15.29115
1301.824, 15.23771
1302.307, 15.55099
##END=



