##NAMES=Pyrochroite
##RRUFFID=R100045
##IDEAL CHEMISTRY=Mn^2+^(OH)_2_
##LOCALITY=N'Chwaning II mine, Kalahari Manganese Field, Northern Cape Province, South Africa
##OWNER=RRUFF
##SOURCE=Marcus Origlieri
##DESCRIPTION=Red platy crystals frozen in matrix
##STATUS=The identification of this mineral has been confirmed by single-crystal X-ray diffraction.
##URL=rruff.info/R100045
90.49219, 19.83933
90.97430, 19.86953
91.45642, 19.88093
91.93854, 19.98998
92.42065, 20.04484
92.90277, 19.79662
93.38489, 19.20034
93.86700, 18.43203
94.34912, 17.61188
94.83124, 16.76338
95.31335, 16.04574
95.79547, 15.70721
96.27759, 15.62628
96.75970, 15.26449
97.24182, 14.49736
97.72394, 13.48562
98.20605, 12.39363
98.68817, 11.16103
99.17029, 10.32547
99.65240, 10.44843
100.1345, 11.59671
100.6166, 12.75997
101.0988, 13.78305
101.5809, 14.66616
102.0630, 15.51938
102.5451, 16.48898
103.0272, 17.18317
103.5093, 17.06835
103.9915, 15.82053
104.4736, 14.60403
104.9557, 13.75065
105.4378, 13.33512
105.9199, 12.84228
106.4020, 12.08960
106.8842, 11.34579
107.3663, 11.09947
107.8484, 11.80380
108.3305, 12.48523
108.8126, 12.83944
109.2947, 12.96537
109.7769, 12.59378
110.2590, 11.02548
110.7411, 8.833490
111.2232, 7.840071
111.7053, 9.594391
112.1874, 11.48458
112.6696, 12.32571
113.1517, 10.87907
113.6338, 9.591741
114.1159, 8.622575
114.5980, 8.009830
115.0801, 7.994039
115.5623, 9.514585
116.0444, 11.23543
116.5265, 12.12040
117.0086, 11.19628
117.4907, 10.01662
117.9728, 8.933877
118.4550, 7.954398
118.9371, 7.602893
119.4192, 8.994109
119.9013, 10.95584
120.3834, 11.97025
120.8655, 10.16445
121.3477, 7.984775
121.8298, 7.423720
122.3119, 8.914444
122.7940, 10.44839
123.2761, 10.58019
123.7582, 9.685861
124.2404, 8.602899
124.7225, 7.253108
125.2046, 6.141718
125.6867, 6.121788
126.1688, 7.699687
126.6509, 9.434612
127.1331, 9.536043
127.6152, 8.282679
128.0973, 7.059881
128.5794, 6.910511
129.0615, 7.498560
129.5436, 8.058048
130.0258, 8.496680
130.5079, 8.750732
130.9900, 8.515761
131.4721, 7.794358
131.9542, 7.253812
132.4363, 7.717717
132.9185, 9.019461
133.4006, 9.992416
133.8827, 10.20463
134.3648, 9.868329
134.8469, 9.659682
135.3290, 9.536299
135.8112, 9.729268
136.2933, 10.90845
136.7754, 13.20014
137.2575, 14.58541
137.7396, 13.99099
138.2217, 11.50039
138.7039, 9.810702
139.1860, 8.914993
139.6681, 8.834518
140.1502, 9.842564
140.6323, 12.30007
141.1144, 14.61166
141.5966, 16.18117
142.0787, 16.90492
142.5608, 17.26825
143.0429, 17.17973
143.5250, 16.78412
144.0071, 16.24129
144.4893, 14.94200
144.9714, 14.49588
145.4535, 15.89498
145.9356, 20.94086
146.4177, 24.20317
146.8998, 24.93156
147.3820, 23.74802
147.8641, 23.24258
148.3462, 23.66444
148.8283, 24.53488
149.3104, 25.61346
149.7925, 26.83296
150.2747, 28.35168
150.7568, 30.47857
151.2389, 33.11657
151.7210, 35.03465
152.2031, 35.65132
152.6852, 35.88742
153.1674, 36.32050
153.6495, 37.08545
154.1316, 37.92611
154.6137, 38.95346
155.0958, 40.17561
155.5779, 40.99535
156.0601, 40.92082
156.5422, 40.60532
157.0243, 40.60820
157.5064, 41.52581
157.9885, 42.30962
158.4706, 42.55327
158.9528, 42.15806
159.4349, 41.94085
159.9170, 41.90748
160.3991, 42.22258
160.8812, 43.07642
161.3633, 45.41031
161.8455, 47.58477
162.3276, 48.84674
162.8097, 48.99525
163.2918, 48.80390
163.7739, 47.93344
164.2560, 46.94164
164.7382, 46.49451
165.2203, 48.07284
165.7024, 50.03923
166.1845, 51.32000
166.6666, 51.67730
167.1487, 51.73660
167.6309, 51.54335
168.1130, 51.29771
168.5951, 51.42841
169.0772, 52.34222
169.5593, 53.59418
170.0414, 54.93940
170.5236, 56.60584
171.0057, 57.74624
171.4878, 57.83108
171.9699, 56.93211
172.4520, 55.25230
172.9341, 51.53728
173.4163, 47.59167
173.8984, 45.78270
174.3805, 47.55955
174.8626, 50.00605
175.3447, 50.15787
175.8268, 48.43963
176.3090, 46.80249
176.7911, 46.59886
177.2732, 47.34072
177.7553, 48.33736
178.2374, 49.75632
178.7195, 50.97308
179.2017, 50.94371
179.6838, 49.78446
180.1659, 48.58500
180.6480, 48.24746
181.1301, 48.50143
181.6122, 48.68916
182.0944, 48.47640
182.5765, 48.20249
183.0586, 48.61136
183.5407, 49.68652
184.0228, 50.70477
184.5049, 50.95972
184.9871, 50.59835
185.4692, 50.12431
185.9513, 49.62865
186.4334, 49.14858
186.9155, 48.72551
187.3976, 48.35336
187.8798, 48.12600
188.3619, 48.30170
188.8440, 48.79491
189.3261, 49.03596
189.8082, 48.75335
190.2903, 48.07518
190.7725, 47.38501
191.2546, 46.64111
191.7367, 46.05572
192.2188, 45.99132
192.7009, 46.41478
193.1830, 46.71322
193.6652, 46.59213
194.1473, 46.12730
194.6294, 45.77215
195.1115, 45.51519
195.5936, 45.51112
196.0757, 45.52902
196.5579, 45.90549
197.0400, 46.33550
197.5221, 46.91875
198.0042, 47.60888
198.4863, 47.49174
198.9684, 46.31681
199.4506, 44.89071
199.9327, 44.51530
200.4148, 45.29044
200.8969, 46.14936
201.3790, 46.71609
201.8611, 46.98403
202.3433, 47.04395
202.8254, 46.85796
203.3075, 46.52318
203.7896, 46.15446
204.2717, 45.71352
204.7538, 45.41412
205.2360, 45.45189
205.7181, 45.90015
206.2002, 45.96156
206.6823, 45.51099
207.1644, 44.82505
207.6465, 44.46234
208.1287, 44.54027
208.6108, 44.54263
209.0929, 44.13641
209.5750, 43.16225
210.0571, 42.66895
210.5392, 42.77543
211.0214, 43.25259
211.5035, 43.62373
211.9856, 43.82965
212.4677, 44.08549
212.9498, 44.58617
213.4319, 45.50179
213.9140, 45.89735
214.3962, 45.61865
214.8783, 44.90946
215.3604, 44.25585
215.8425, 43.50359
216.3246, 43.13448
216.8067, 43.52483
217.2889, 45.06292
217.7710, 45.98096
218.2531, 46.08385
218.7352, 45.63833
219.2173, 45.25709
219.6994, 44.92113
220.1816, 44.68259
220.6637, 44.63234
221.1458, 44.98334
221.6279, 44.84290
222.1100, 43.86819
222.5921, 42.52502
223.0743, 42.09616
223.5564, 43.05632
224.0385, 44.10339
224.5206, 44.56952
225.0027, 44.12806
225.4848, 44.04659
225.9670, 44.58948
226.4491, 45.42386
226.9312, 45.64046
227.4133, 44.94703
227.8954, 44.10509
228.3775, 43.45359
228.8597, 42.97892
229.3418, 42.70372
229.8239, 42.66576
230.3060, 42.81470
230.7881, 43.00389
231.2702, 43.17580
231.7524, 43.47788
232.2345, 44.06756
232.7166, 45.40329
233.1987, 45.91284
233.6808, 45.12481
234.1629, 43.63092
234.6451, 43.08241
235.1272, 44.14754
235.6093, 45.17104
236.0914, 45.41772
236.5735, 44.61248
237.0556, 43.61999
237.5378, 42.18141
238.0199, 40.63191
238.5020, 39.84374
238.9841, 40.06374
239.4662, 40.66716
239.9483, 41.47295
240.4305, 42.75133
240.9126, 43.56154
241.3947, 43.73540
241.8768, 43.49397
242.3589, 43.40319
242.8410, 43.66143
243.3232, 43.76478
243.8053, 43.44133
244.2874, 42.36834
244.7695, 41.63815
245.2516, 41.24836
245.7337, 41.19423
246.2159, 41.52411
246.6980, 42.53479
247.1801, 43.46503
247.6622, 44.01423
248.1443, 44.06116
248.6264, 44.08216
249.1086, 44.15822
249.5907, 44.17130
250.0728, 43.79330
250.5549, 42.60091
251.0370, 41.73025
251.5191, 41.66876
252.0013, 42.66331
252.4834, 43.68953
252.9655, 44.93784
253.4476, 46.09509
253.9297, 46.47121
254.4118, 45.58083
254.8940, 44.81369
255.3761, 44.77352
255.8582, 45.78422
256.3403, 46.15204
256.8224, 45.50147
257.3046, 44.49718
257.7867, 44.34011
258.2688, 45.48344
258.7509, 46.51033
259.2330, 46.84677
259.7151, 46.29886
260.1973, 46.28761
260.6794, 47.09422
261.1615, 48.16431
261.6436, 48.64700
262.1257, 48.35455
262.6078, 47.94011
263.0900, 47.57545
263.5721, 47.25654
264.0542, 46.99073
264.5363, 46.76796
265.0184, 46.60570
265.5005, 46.52842
265.9827, 46.55632
266.4648, 46.62068
266.9469, 46.77638
267.4290, 47.03362
267.9111, 46.86364
268.3932, 46.09099
268.8754, 45.16367
269.3575, 44.57098
269.8396, 44.34075
270.3217, 44.32914
270.8038, 44.52740
271.2859, 44.93074
271.7681, 45.51621
272.2502, 46.48796
272.7323, 47.22155
273.2144, 46.84359
273.6965, 45.06769
274.1786, 43.75741
274.6608, 43.45343
275.1429, 43.98634
275.6250, 44.05998
276.1071, 43.54447
276.5892, 42.94344
277.0714, 42.75890
277.5535, 43.03875
278.0356, 43.25873
278.5177, 43.25272
278.9998, 43.13069
279.4819, 43.45028
279.9641, 44.33511
280.4462, 45.16064
280.9283, 45.32630
281.4104, 44.80492
281.8925, 44.49182
282.3746, 44.61851
282.8568, 44.96782
283.3389, 44.84477
283.8210, 44.18744
284.3031, 43.53432
284.7852, 43.25949
285.2673, 43.35016
285.7495, 43.56293
286.2316, 43.89601
286.7137, 44.29574
287.1958, 44.71049
287.6779, 45.14522
288.1600, 45.42052
288.6422, 45.39408
289.1243, 45.09004
289.6064, 44.61304
290.0885, 43.85793
290.5706, 43.20151
291.0527, 43.49389
291.5349, 44.66039
292.0170, 45.59984
292.4991, 45.48946
292.9812, 44.62679
293.4633, 44.09597
293.9454, 43.98191
294.4276, 44.06378
294.9097, 44.05591
295.3918, 43.98528
295.8739, 43.99583
296.3560, 44.20728
296.8381, 44.54459
297.3203, 44.87251
297.8024, 45.19958
298.2845, 45.40141
298.7666, 45.20151
299.2487, 44.73936
299.7308, 44.43888
300.2130, 44.59481
300.6951, 44.97434
301.1772, 45.22942
301.6593, 45.36016
302.1414, 45.38743
302.6235, 45.36504
303.1057, 45.25016
303.5878, 44.93470
304.0699, 44.08575
304.5520, 43.25352
305.0341, 43.15741
305.5162, 43.73328
305.9984, 44.44777
306.4805, 45.13157
306.9626, 45.65821
307.4447, 45.80598
307.9268, 45.32140
308.4089, 44.70231
308.8911, 44.35917
309.3732, 44.25039
309.8553, 44.20620
310.3374, 44.27179
310.8195, 44.28548
311.3016, 44.03711
311.7838, 43.33360
312.2659, 42.68507
312.7480, 42.63589
313.2301, 42.92361
313.7122, 42.89604
314.1943, 41.36666
314.6765, 39.97797
315.1586, 40.15710
315.6407, 42.62062
316.1228, 44.81603
316.6049, 45.35051
317.0870, 44.83230
317.5692, 44.26009
318.0513, 44.29985
318.5334, 44.11845
319.0155, 43.01228
319.4976, 40.69204
319.9797, 39.11382
320.4619, 39.53349
320.9440, 40.81765
321.4261, 41.69053
321.9082, 41.39222
322.3903, 41.08331
322.8724, 41.25802
323.3546, 41.94417
323.8367, 42.23183
324.3188, 41.32691
324.8009, 40.29670
325.2830, 39.96467
325.7651, 41.58575
326.2473, 42.62380
326.7294, 42.35142
327.2115, 40.97197
327.6936, 40.10863
328.1757, 40.07447
328.6578, 40.42496
329.1400, 40.95648
329.6221, 42.20027
330.1042, 42.88841
330.5863, 42.64784
331.0684, 41.83447
331.5505, 41.51979
332.0327, 42.17503
332.5148, 42.76809
332.9969, 42.83487
333.4790, 42.03539
333.9611, 41.66523
334.4432, 41.95237
334.9254, 42.53750
335.4075, 42.83077
335.8896, 42.83419
336.3717, 42.52520
336.8538, 41.68894
337.3359, 40.18449
337.8180, 39.76494
338.3001, 40.89903
338.7823, 42.40064
339.2644, 42.79047
339.7465, 41.76917
340.2286, 40.97372
340.7107, 40.87004
341.1928, 41.33913
341.6750, 41.51236
342.1571, 41.31433
342.6392, 41.10952
343.1213, 41.18728
343.6034, 41.54817
344.0855, 42.13037
344.5677, 43.08459
345.0498, 44.08244
345.5319, 44.06002
346.0140, 42.97528
346.4961, 42.06280
346.9782, 42.48291
347.4604, 43.87771
347.9425, 44.41287
348.4246, 43.80250
348.9067, 42.66967
349.3888, 41.62609
349.8709, 40.73783
350.3531, 40.37281
350.8352, 41.17112
351.3173, 42.51637
351.7994, 43.13067
352.2815, 42.92006
352.7636, 42.57194
353.2458, 42.81683
353.7279, 43.41833
354.2100, 43.86225
354.6921, 43.78061
355.1742, 43.56406
355.6563, 43.66980
356.1385, 44.06676
356.6206, 44.43486
357.1027, 44.55162
357.5848, 44.51688
358.0669, 44.42043
358.5490, 44.12329
359.0312, 44.01181
359.5133, 44.64600
359.9954, 45.72963
360.4775, 46.35438
360.9596, 45.75618
361.4417, 44.76336
361.9239, 43.85407
362.4060, 42.99516
362.8881, 42.54274
363.3702, 42.93151
363.8523, 43.75372
364.3344, 44.38437
364.8166, 44.43126
365.2987, 44.45236
365.7808, 44.75794
366.2629, 45.44056
366.7450, 45.75401
367.2271, 45.34569
367.7093, 44.63570
368.1914, 43.99331
368.6735, 43.23374
369.1556, 42.78499
369.6377, 42.89771
370.1198, 43.48408
370.6020, 43.77032
371.0841, 43.47886
371.5662, 43.14513
372.0483, 43.08340
372.5304, 43.61158
373.0125, 43.80058
373.4947, 43.50697
373.9768, 42.90728
374.4589, 42.39812
374.9410, 41.98798
375.4231, 41.64679
375.9052, 41.32610
376.3874, 40.99473
376.8695, 40.96313
377.3516, 41.31950
377.8337, 41.82722
378.3158, 42.28816
378.7979, 42.74355
379.2801, 42.81242
379.7622, 42.23383
380.2443, 41.20583
380.7264, 40.62297
381.2085, 40.52802
381.6906, 40.60078
382.1728, 40.53685
382.6549, 40.38132
383.1370, 40.48161
383.6191, 41.01300
384.1012, 41.61751
384.5833, 41.55056
385.0655, 40.91060
385.5476, 40.44105
386.0297, 40.67309
386.5118, 41.33681
386.9939, 42.06359
387.4760, 42.87056
387.9582, 43.38346
388.4403, 43.03528
388.9224, 42.13787
389.4045, 41.34623
389.8866, 40.80359
390.3687, 40.56152
390.8509, 40.94877
391.3330, 41.87782
391.8151, 42.42160
392.2972, 41.52822
392.7793, 40.20954
393.2614, 39.46836
393.7436, 40.01773
394.2257, 40.54679
394.7078, 40.48939
395.1899, 39.99010
395.6720, 39.42797
396.1541, 38.49746
396.6363, 37.87062
397.1184, 38.00099
397.6005, 39.28650
398.0826, 40.21563
398.5647, 40.40284
399.0468, 40.16881
399.5290, 39.90212
400.0111, 39.42981
400.4932, 39.14473
400.9753, 39.19048
401.4574, 39.56593
401.9395, 39.82136
402.4217, 39.98840
402.9038, 40.00506
403.3859, 39.79478
403.8680, 39.19872
404.3501, 38.72585
404.8322, 38.31745
405.3144, 38.09956
405.7965, 38.57261
406.2786, 40.02504
406.7607, 41.21838
407.2428, 41.49609
407.7249, 40.82586
408.2071, 40.30958
408.6892, 39.99012
409.1713, 39.68965
409.6534, 39.02383
410.1355, 38.03389
410.6176, 37.50671
411.0998, 37.84307
411.5819, 38.67600
412.0640, 39.11824
412.5461, 39.17899
413.0282, 39.18847
413.5103, 39.52169
413.9925, 39.96903
414.4746, 40.02629
414.9567, 39.49149
415.4388, 38.90776
415.9209, 38.79202
416.4030, 39.06404
416.8852, 39.52265
417.3673, 40.51659
417.8494, 41.35445
418.3315, 41.21680
418.8136, 40.04492
419.2957, 39.13659
419.7779, 39.42418
420.2600, 40.25470
420.7421, 40.96981
421.2242, 41.49488
421.7063, 41.76127
422.1884, 41.63094
422.6706, 41.20018
423.1527, 40.82772
423.6348, 40.63151
424.1169, 40.48749
424.5990, 40.32841
425.0811, 40.09698
425.5633, 39.97512
426.0454, 39.92030
426.5275, 39.99540
427.0096, 40.30919
427.4917, 41.13848
427.9738, 41.77860
428.4560, 42.02805
428.9381, 41.90934
429.4202, 41.91710
429.9023, 42.13957
430.3844, 42.32515
430.8665, 42.25732
431.3487, 41.88448
431.8308, 41.51323
432.3129, 41.04790
432.7950, 40.75470
433.2771, 41.46222
433.7592, 43.21709
434.2414, 44.62413
434.7235, 44.77338
435.2056, 44.01208
435.6877, 43.82078
436.1698, 44.24217
436.6519, 44.70361
437.1341, 44.57349
437.6162, 44.03030
438.0983, 43.48660
438.5804, 42.86858
439.0625, 42.56479
439.5446, 43.39814
440.0268, 45.04036
440.5089, 46.29173
440.9910, 46.16760
441.4731, 45.50985
441.9552, 44.97497
442.4373, 44.61470
442.9195, 44.56763
443.4016, 45.18598
443.8837, 46.06704
444.3658, 46.72117
444.8479, 46.90485
445.3300, 46.93980
445.8122, 46.77082
446.2943, 46.45788
446.7764, 46.47788
447.2585, 47.39660
447.7406, 48.28349
448.2227, 48.63964
448.7049, 48.02865
449.1870, 47.72298
449.6691, 47.88810
450.1512, 48.27797
450.6333, 48.48273
451.1154, 48.36538
451.5976, 48.37057
452.0797, 48.68665
452.5618, 49.27736
453.0439, 49.55003
453.5260, 49.42118
454.0081, 49.21968
454.4903, 49.22746
454.9724, 49.44053
455.4545, 49.52985
455.9366, 49.37655
456.4187, 49.24837
456.9008, 49.81149
457.3830, 50.95584
457.8651, 51.77045
458.3472, 51.62836
458.8293, 50.94510
459.3114, 50.32380
459.7935, 49.78161
460.2757, 49.58816
460.7578, 50.41496
461.2399, 51.59349
461.7220, 52.12904
462.2041, 51.39589
462.6862, 50.60089
463.1684, 50.57539
463.6505, 51.08472
464.1326, 51.58825
464.6147, 51.95368
465.0968, 52.19054
465.5789, 52.31107
466.0611, 52.32676
466.5432, 52.15415
467.0253, 51.40090
467.5074, 50.65321
467.9895, 50.40809
468.4716, 51.41071
468.9538, 51.98480
469.4359, 51.80213
469.9180, 51.12364
470.4001, 50.79669
470.8822, 51.00689
471.3643, 51.24730
471.8465, 51.33270
472.3286, 51.25940
472.8107, 51.00198
473.2928, 50.44001
473.7749, 49.99525
474.2570, 50.38494
474.7392, 51.59946
475.2213, 52.23780
475.7034, 51.88242
476.1855, 50.91785
476.6676, 49.91191
477.1497, 48.90465
477.6319, 48.30613
478.1140, 48.65462
478.5961, 49.47047
479.0782, 49.93764
479.5603, 49.98381
480.0424, 49.93805
480.5246, 50.08716
481.0067, 50.30629
481.4888, 50.41600
481.9709, 50.26977
482.4530, 50.10386
482.9352, 50.15630
483.4173, 50.30868
483.8994, 50.18677
484.3815, 49.03475
484.8636, 48.09461
485.3457, 48.15531
485.8279, 49.70469
486.3100, 50.58886
486.7921, 50.22247
487.2742, 49.33235
487.7563, 48.49314
488.2384, 47.40771
488.7206, 46.91420
489.2027, 47.31025
489.6848, 48.33016
490.1669, 49.04089
490.6490, 49.38916
491.1311, 49.57269
491.6133, 49.61811
492.0954, 49.53002
492.5775, 49.65836
493.0596, 50.07273
493.5417, 50.40537
494.0238, 50.11472
494.5060, 49.34539
494.9881, 48.80398
495.4702, 48.78333
495.9523, 48.89159
496.4344, 48.54536
496.9165, 47.83629
497.3987, 47.11167
497.8808, 46.35240
498.3629, 45.78996
498.8450, 45.71043
499.3271, 46.14869
499.8092, 46.69165
500.2914, 47.29000
500.7735, 47.80544
501.2556, 48.12054
501.7377, 48.02805
502.2198, 47.94002
502.7019, 48.02663
503.1841, 48.18694
503.6662, 48.14440
504.1483, 47.45002
504.6304, 47.00929
505.1125, 47.18864
505.5946, 48.06216
506.0768, 48.56169
506.5589, 48.49352
507.0410, 48.33449
507.5231, 48.47812
508.0052, 48.96280
508.4873, 49.57898
508.9695, 50.47190
509.4516, 51.20729
509.9337, 50.62360
510.4158, 48.80839
510.8979, 47.43213
511.3800, 47.57585
511.8622, 48.53965
512.3443, 48.69519
512.8264, 48.07711
513.3085, 47.36057
513.7906, 46.92612
514.2728, 46.74894
514.7549, 46.79858
515.2370, 47.07057
515.7191, 47.56416
516.2012, 48.68613
516.6833, 49.94000
517.1655, 50.58276
517.6476, 49.71574
518.1297, 48.85310
518.6118, 48.59039
519.0939, 48.87936
519.5760, 49.01928
520.0582, 48.37671
520.5403, 48.05307
521.0224, 48.66169
521.5045, 50.83939
521.9866, 52.05233
522.4688, 51.95699
522.9509, 51.27411
523.4330, 50.87384
523.9151, 50.81393
524.3972, 50.71354
524.8793, 50.48124
525.3615, 50.16833
525.8436, 49.85136
526.3257, 49.53205
526.8078, 49.37057
527.2899, 49.52990
527.7720, 49.90151
528.2542, 50.29066
528.7363, 50.69276
529.2184, 50.96925
529.7005, 50.91018
530.1826, 50.67994
530.6647, 50.48975
531.1469, 50.36186
531.6290, 50.34987
532.1111, 50.59975
532.5932, 50.98056
533.0753, 51.22443
533.5574, 51.15887
534.0396, 51.03663
534.5217, 50.93853
535.0038, 50.87066
535.4859, 50.77953
535.9680, 50.54734
536.4501, 50.40531
536.9323, 50.55299
537.4144, 51.27449
537.8965, 51.41818
538.3786, 50.71323
538.8607, 49.76527
539.3428, 49.53533
539.8250, 50.06890
540.3071, 50.68664
540.7892, 51.20586
541.2713, 51.67159
541.7534, 52.28199
542.2355, 53.00100
542.7177, 53.44028
543.1998, 53.20953
543.6819, 52.59697
544.1640, 51.93292
544.6461, 51.22480
545.1282, 50.81634
545.6104, 51.42753
546.0925, 52.28255
546.5746, 52.44458
547.0567, 50.62019
547.5388, 49.51692
548.0209, 50.83235
548.5031, 53.47959
548.9852, 55.09218
549.4673, 54.24674
549.9494, 53.45886
550.4315, 53.44127
550.9136, 54.18934
551.3958, 54.59652
551.8779, 54.63546
552.3600, 54.37899
552.8421, 53.66942
553.3242, 52.37843
553.8063, 51.92573
554.2885, 52.49067
554.7706, 53.56479
555.2527, 54.83112
555.7348, 56.15157
556.2169, 56.55566
556.6990, 55.29099
557.1812, 53.56383
557.6633, 53.11705
558.1454, 53.71188
558.6275, 54.45314
559.1096, 55.00958
559.5917, 55.37452
560.0739, 55.45467
560.5560, 55.24144
561.0381, 55.09813
561.5202, 55.21728
562.0023, 55.43721
562.4844, 55.63501
562.9666, 55.68990
563.4487, 55.88935
563.9308, 56.46878
564.4129, 57.10420
564.8950, 57.22448
565.3771, 56.43901
565.8593, 56.05701
566.3414, 56.60095
566.8235, 57.74273
567.3056, 57.85025
567.7877, 56.77407
568.2698, 55.74239
568.7520, 55.43205
569.2341, 55.75828
569.7162, 56.58356
570.1983, 57.93822
570.6804, 59.12696
571.1625, 59.35354
571.6447, 59.00624
572.1268, 58.68914
572.6089, 58.51577
573.0910, 58.46703
573.5731, 58.54219
574.0552, 58.73015
574.5374, 59.01320
575.0195, 59.51816
575.5016, 59.98279
575.9837, 60.33176
576.4658, 60.56315
576.9479, 60.71111
577.4301, 60.76134
577.9122, 60.74471
578.3943, 60.60958
578.8764, 60.26878
579.3585, 60.38585
579.8406, 61.13916
580.3228, 61.95312
580.8049, 62.13386
581.2870, 61.72398
581.7691, 61.48693
582.2512, 61.54096
582.7333, 61.84721
583.2155, 62.49080
583.6975, 63.35664
584.1796, 64.11696
584.6617, 64.66238
585.1439, 64.99197
585.6260, 65.05956
586.1081, 64.89175
586.5902, 64.62430
587.0723, 64.00558
587.5544, 63.55295
588.0366, 63.69312
588.5187, 64.70731
589.0008, 65.26403
589.4829, 64.60604
589.9650, 63.83854
590.4471, 63.79064
590.9293, 64.71792
591.4114, 65.83951
591.8935, 67.29713
592.3756, 68.73328
592.8577, 69.40439
593.3398, 69.26127
593.8220, 69.08187
594.3041, 68.99608
594.7862, 69.12480
595.2683, 70.01220
595.7504, 71.52520
596.2325, 72.74442
596.7147, 72.96090
597.1968, 72.63664
597.6789, 72.10032
598.1610, 71.36795
598.6431, 71.08838
599.1252, 71.93867
599.6074, 73.21386
600.0895, 74.37148
600.5716, 75.44897
601.0537, 76.17062
601.5358, 76.09245
602.0179, 75.78723
602.5001, 76.03908
602.9822, 77.28082
603.4643, 78.16072
603.9464, 78.21294
604.4285, 77.84615
604.9106, 78.60015
605.3928, 80.60658
605.8749, 82.47218
606.3570, 83.45834
606.8391, 83.77266
607.3212, 83.98411
607.8033, 84.10208
608.2855, 84.40640
608.7676, 85.03825
609.2497, 86.01409
609.7318, 87.57790
610.2139, 90.01836
610.6960, 91.82554
611.1782, 91.50983
611.6603, 90.42583
612.1424, 90.00964
612.6245, 91.32639
613.1066, 92.43452
613.5887, 92.80168
614.0709, 92.85536
614.5530, 93.52015
615.0351, 95.13047
615.5172, 96.61296
615.9993, 97.68132
616.4814, 98.39368
616.9636, 99.03095
617.4457, 99.57512
617.9278, 100.2235
618.4099, 101.1246
618.8920, 102.2156
619.3741, 103.4309
619.8563, 104.7824
620.3384, 105.9572
620.8205, 106.6899
621.3026, 107.1066
621.7847, 107.2036
622.2668, 106.6059
622.7490, 106.7332
623.2311, 108.8462
623.7132, 111.8152
624.1953, 114.1965
624.6774, 115.1264
625.1595, 116.2269
625.6417, 117.9293
626.1238, 119.8991
626.6059, 120.9939
627.0880, 120.7280
627.5701, 121.1208
628.0522, 123.2606
628.5344, 126.6365
629.0165, 128.4783
629.4986, 128.7537
629.9807, 128.9375
630.4628, 130.1791
630.9449, 132.0229
631.4271, 133.6153
631.9092, 134.8808
632.3913, 136.1985
632.8734, 137.9568
633.3555, 139.8472
633.8376, 141.5000
634.3198, 142.3549
634.8019, 143.8823
635.2840, 147.5438
635.7661, 151.7114
636.2482, 154.0905
636.7303, 153.1066
637.2125, 152.9013
637.6946, 154.2012
638.1767, 156.5677
638.6588, 158.8789
639.1409, 161.1834
639.6230, 163.2261
640.1052, 164.8312
640.5873, 166.1562
641.0694, 167.7785
641.5515, 169.6593
642.0336, 171.1702
642.5157, 171.6906
642.9979, 171.7226
643.4800, 171.7174
643.9621, 171.7067
644.4442, 171.9614
644.9263, 172.9560
645.4084, 174.0695
645.8906, 174.8044
646.3727, 175.0237
646.8548, 174.9504
647.3369, 174.5869
647.8190, 173.9542
648.3011, 173.0119
648.7833, 171.5725
649.2654, 170.4707
649.7475, 170.0037
650.2296, 169.7049
650.7117, 168.5148
651.1938, 166.4835
651.6760, 164.3498
652.1581, 162.4102
652.6402, 160.5224
653.1223, 158.4642
653.6044, 156.2775
654.0865, 154.0006
654.5687, 152.2249
655.0508, 149.9606
655.5329, 146.0781
656.0150, 140.4547
656.4971, 135.7636
656.9792, 133.0468
657.4614, 131.0844
657.9435, 129.2802
658.4256, 127.7345
658.9077, 125.9928
659.3898, 124.0352
659.8719, 121.9137
660.3541, 119.5820
660.8362, 117.0621
661.3183, 114.8150
661.8004, 112.9972
662.2825, 111.3014
662.7646, 109.3687
663.2468, 107.2498
663.7289, 105.0661
664.2110, 102.8503
664.6931, 100.6007
665.1752, 98.21043
665.6573, 95.79703
666.1395, 93.58127
666.6216, 91.79988
667.1037, 90.05537
667.5858, 88.07431
668.0679, 85.93885
668.5500, 84.38281
669.0322, 83.60095
669.5143, 82.99601
669.9964, 82.39071
670.4785, 81.76518
670.9606, 80.71849
671.4427, 79.20373
671.9249, 77.67967
672.4070, 76.73779
672.8891, 75.99214
673.3712, 74.45365
673.8533, 71.92915
674.3354, 69.58968
674.8176, 68.24621
675.2997, 67.52060
675.7818, 67.09840
676.2639, 67.30403
676.7460, 67.05051
677.2281, 65.60359
677.7103, 63.78701
678.1924, 62.63949
678.6745, 62.56411
679.1566, 62.30694
679.6387, 61.70477
680.1208, 60.83686
680.6030, 59.65242
681.0851, 58.17438
681.5672, 57.27732
682.0493, 57.67614
682.5314, 58.47242
683.0135, 57.93087
683.4957, 56.35315
683.9778, 54.95209
684.4599, 54.61784
684.9420, 54.49704
685.4241, 53.87360
685.9063, 52.78875
686.3884, 52.06237
686.8705, 52.37133
687.3526, 52.67220
687.8347, 52.46503
688.3168, 51.65556
688.7990, 51.01294
689.2811, 50.58586
689.7632, 50.19590
690.2453, 49.55146
690.7274, 48.70925
691.2095, 48.68697
691.6917, 49.67244
692.1738, 50.55986
692.6559, 50.02033
693.1380, 48.61250
693.6201, 47.17952
694.1022, 45.73567
694.5844, 44.80318
695.0665, 44.96582
695.5486, 45.72851
696.0307, 46.45957
696.5128, 47.59664
696.9949, 47.91662
697.4771, 46.93800
697.9592, 45.25575
698.4413, 44.03709
698.9234, 43.34000
699.4055, 42.90940
699.8876, 42.78947
700.3698, 42.79066
700.8519, 42.29484
701.3340, 41.39897
701.8161, 40.76479
702.2982, 41.21078
702.7803, 41.77942
703.2625, 41.06824
703.7446, 39.39032
704.2267, 38.36739
704.7088, 39.42223
705.1909, 40.68720
705.6730, 41.16374
706.1552, 40.72396
706.6373, 40.47168
707.1194, 40.63742
707.6015, 40.67307
708.0836, 40.22475
708.5657, 39.26509
709.0479, 38.37188
709.5300, 37.52272
710.0121, 36.87488
710.4942, 36.68229
710.9763, 36.78575
711.4584, 36.80104
711.9406, 36.66673
712.4227, 36.54358
712.9048, 36.50606
713.3869, 36.56169
713.8690, 36.74861
714.3511, 37.30418
714.8333, 37.57239
715.3154, 37.26110
715.7975, 36.69043
716.2796, 36.12896
716.7617, 35.44788
717.2438, 35.20824
717.7260, 35.57921
718.2081, 36.26450
718.6902, 36.91523
719.1723, 37.48494
719.6544, 37.54722
720.1365, 36.88531
720.6187, 35.79380
721.1008, 34.04859
721.5829, 32.14882
722.0650, 31.22134
722.5471, 32.66138
723.0292, 34.27926
723.5114, 35.17452
723.9935, 35.45105
724.4756, 35.65078
724.9577, 35.79021
725.4398, 35.87538
725.9219, 35.93941
726.4041, 35.95227
726.8862, 35.64557
727.3683, 34.97520
727.8504, 34.46028
728.3325, 34.57624
728.8146, 34.99202
729.2968, 35.00415
729.7789, 34.63715
730.2610, 34.15142
730.7431, 33.49560
731.2252, 32.94442
731.7073, 32.76791
732.1895, 33.02259
732.6716, 33.18166
733.1537, 32.96596
733.6358, 32.80104
734.1179, 32.94148
734.6000, 33.47900
735.0822, 33.78782
735.5643, 33.85564
736.0464, 33.74474
736.5285, 33.34905
737.0106, 32.80209
737.4927, 32.73576
737.9749, 33.27209
738.4570, 33.69183
738.9391, 33.09315
739.4212, 32.15502
739.9033, 31.66291
740.3854, 31.91198
740.8676, 32.29292
741.3497, 32.83831
741.8318, 33.32187
742.3139, 33.53209
742.7960, 33.44113
743.2781, 33.07034
743.7603, 32.23000
744.2424, 31.42669
744.7245, 31.56282
745.2066, 32.51154
745.6887, 33.24702
746.1708, 33.55245
746.6530, 33.50610
747.1351, 32.98115
747.6172, 32.21312
748.0993, 31.61935
748.5814, 31.44427
749.0635, 31.36273
749.5457, 31.24838
750.0278, 31.15386
750.5099, 31.21423
750.9920, 31.66728
751.4741, 31.79259
751.9562, 31.30956
752.4384, 30.53612
752.9205, 30.32259
753.4026, 30.65412
753.8847, 31.08510
754.3668, 31.57567
754.8489, 31.92122
755.3311, 31.64495
755.8132, 30.95390
756.2953, 30.46232
756.7774, 30.88312
757.2595, 31.14908
757.7416, 30.43963
758.2238, 29.01721
758.7059, 28.36895
759.1880, 29.04125
759.6701, 29.71813
760.1522, 30.01303
760.6343, 29.99832
761.1165, 30.10095
761.5986, 30.33042
762.0807, 30.45778
762.5628, 30.30966
763.0449, 29.99865
763.5270, 29.61866
764.0092, 29.21547
764.4913, 29.02578
764.9734, 29.35660
765.4555, 29.79575
765.9376, 30.19245
766.4197, 30.53573
766.9019, 30.50695
767.3840, 29.93712
767.8661, 29.22457
768.3482, 28.42582
768.8303, 27.55905
769.3124, 27.35833
769.7946, 27.87769
770.2767, 28.41870
770.7588, 28.23265
771.2409, 27.82837
771.7230, 28.37634
772.2051, 29.85164
772.6873, 30.89358
773.1694, 30.22307
773.6515, 29.20640
774.1336, 28.77289
774.6157, 29.11901
775.0978, 29.40595
775.5800, 29.65182
776.0621, 29.76300
776.5442, 29.62605
777.0263, 29.22144
777.5084, 29.06079
777.9905, 29.17794
778.4727, 29.20598
778.9548, 28.73686
779.4369, 27.99660
779.9190, 27.23995
780.4011, 26.48152
780.8832, 26.19956
781.3654, 27.21334
781.8475, 28.43315
782.3296, 29.02928
782.8117, 28.67372
783.2938, 28.38345
783.7759, 28.20882
784.2581, 28.02928
784.7402, 27.62542
785.2223, 26.99648
785.7044, 27.15961
786.1865, 28.25539
786.6686, 29.20541
787.1508, 28.58805
787.6329, 27.30030
788.1150, 26.84266
788.5971, 27.58222
789.0792, 28.16812
789.5613, 27.47611
790.0435, 26.66976
790.5256, 26.83208
791.0077, 28.77124
791.4898, 29.51278
791.9719, 28.49584
792.4540, 27.20782
792.9362, 27.20044
793.4183, 28.33282
793.9004, 28.90842
794.3825, 28.76758
794.8646, 28.36507
795.3467, 27.93118
795.8289, 27.59006
796.3110, 27.62043
796.7931, 28.23591
797.2752, 28.48558
797.7573, 27.32592
798.2394, 26.13452
798.7216, 26.15200
799.2037, 28.22938
799.6858, 29.18806
800.1679, 28.74512
800.6500, 27.82426
801.1321, 27.30667
801.6143, 27.11029
802.0964, 26.76609
802.5785, 26.19448
803.0606, 25.74453
803.5427, 25.74407
804.0248, 26.02916
804.5070, 26.43194
804.9891, 26.93744
805.4712, 27.50702
805.9533, 28.42976
806.4354, 29.19323
806.9175, 29.38824
807.3997, 28.88329
807.8818, 28.36303
808.3639, 27.84328
808.8460, 27.32663
809.3281, 26.64543
809.8102, 25.98812
810.2924, 26.02044
810.7745, 26.92910
811.2566, 27.59246
811.7387, 26.76305
812.2208, 25.60197
812.7029, 25.18472
813.1851, 25.99926
813.6672, 26.69606
814.1493, 27.25329
814.6314, 27.62355
815.1135, 27.79203
815.5956, 27.76468
816.0778, 27.27451
816.5599, 26.24156
817.0420, 25.30161
817.5241, 25.08499
818.0062, 25.35587
818.4883, 25.86433
818.9705, 26.63025
819.4526, 27.12350
819.9347, 26.82796
820.4168, 26.35931
820.8989, 26.17279
821.3810, 26.34427
821.8632, 26.53214
822.3453, 26.74292
822.8274, 26.95752
823.3095, 27.22828
823.7916, 27.50767
824.2737, 27.53201
824.7559, 27.29103
825.2380, 26.77320
825.7201, 25.48003
826.2022, 24.21240
826.6843, 23.88361
827.1664, 24.69640
827.6486, 25.48289
828.1307, 26.25807
828.6128, 26.66519
829.0949, 26.33340
829.5770, 25.16309
830.0591, 25.02889
830.5413, 26.11808
831.0234, 27.10526
831.5055, 26.72610
831.9876, 25.64484
832.4697, 25.15824
832.9518, 25.29791
833.4340, 25.60299
833.9161, 26.17142
834.3982, 26.51451
834.8803, 26.09192
835.3624, 24.79981
835.8445, 24.39697
836.3267, 25.48065
836.8088, 26.27380
837.2909, 25.70242
837.7730, 24.08029
838.2551, 23.23107
838.7372, 23.13092
839.2194, 23.39995
839.7015, 24.14918
840.1836, 24.89243
840.6657, 25.07450
841.1478, 24.76997
841.6299, 24.49895
842.1121, 24.33164
842.5942, 24.34336
843.0763, 24.67382
843.5584, 25.21506
844.0405, 25.31431
844.5226, 24.91685
845.0048, 24.47297
845.4869, 24.24409
845.9690, 24.03547
846.4511, 23.06141
846.9332, 21.71256
847.4153, 21.29333
847.8975, 23.75311
848.3796, 25.95383
848.8617, 25.97115
849.3438, 24.47455
849.8259, 23.85644
850.3080, 24.60240
850.7902, 25.27105
851.2723, 25.53455
851.7544, 25.55266
852.2365, 25.72194
852.7186, 25.98889
853.2007, 25.99507
853.6829, 25.37788
854.1650, 24.84042
854.6471, 25.35536
855.1292, 26.28943
855.6113, 26.57723
856.0934, 25.02932
856.5756, 24.01625
857.0577, 23.99209
857.5398, 24.46064
858.0219, 24.74764
858.5040, 24.84846
858.9861, 24.82225
859.4683, 24.64278
859.9504, 24.47170
860.4325, 24.56159
860.9146, 24.78501
861.3967, 24.91245
861.8788, 24.83132
862.3610, 24.80384
862.8431, 25.11090
863.3252, 25.39507
863.8073, 25.30582
864.2894, 24.66791
864.7715, 24.23013
865.2537, 24.07483
865.7358, 23.89361
866.2179, 23.19376
866.7000, 22.24010
867.1821, 21.78759
867.6642, 21.92130
868.1464, 22.22979
868.6285, 22.60628
869.1106, 22.93042
869.5927, 23.11801
870.0748, 23.14963
870.5569, 23.05011
871.0391, 22.70479
871.5212, 22.44433
872.0033, 22.54273
872.4854, 22.92757
872.9675, 22.94566
873.4496, 22.63118
873.9318, 22.51762
874.4139, 23.40873
874.8960, 24.32444
875.3781, 24.26355
875.8602, 23.32256
876.3423, 22.51773
876.8245, 22.10320
877.3066, 21.85826
877.7887, 21.75064
878.2708, 21.76692
878.7529, 21.82607
879.2350, 21.92700
879.7172, 22.23688
880.1993, 23.07216
880.6814, 23.86472
881.1635, 23.68745
881.6456, 22.88886
882.1277, 22.28173
882.6099, 22.31973
883.0920, 22.41010
883.5741, 22.39326
884.0562, 22.33536
884.5383, 22.29911
885.0204, 22.24456
885.5026, 22.56439
885.9847, 23.48269
886.4668, 24.34220
886.9489, 24.01211
887.4310, 22.98998
887.9131, 22.32827
888.3953, 22.44595
888.8774, 22.50105
889.3595, 21.92280
889.8416, 21.23552
890.3237, 20.94833
890.8058, 21.21185
891.2880, 21.50511
891.7701, 21.89190
892.2522, 22.10133
892.7343, 21.71413
893.2164, 20.97877
893.6985, 20.57451
894.1807, 20.55562
894.6628, 20.64103
895.1449, 20.70818
895.6270, 20.77332
896.1091, 20.84479
896.5912, 20.92257
897.0734, 21.01989
897.5555, 21.14289
898.0376, 21.27778
898.5197, 21.49749
899.0018, 21.69882
899.4839, 21.37833
899.9661, 20.63302
900.4482, 20.02966
900.9303, 19.86707
901.4124, 19.95916
901.8945, 20.42117
902.3766, 21.05616
902.8588, 21.21323
903.3409, 20.58951
903.8230, 19.94041
904.3051, 19.33403
904.7872, 18.84175
905.2693, 18.55263
905.7515, 18.48393
906.2336, 18.78126
906.7157, 19.61164
907.1978, 20.46339
907.6799, 20.94556
908.1620, 21.17043
908.6442, 21.28931
909.1263, 21.51329
909.6084, 21.20560
910.0905, 19.91169
910.5726, 18.71248
911.0547, 18.76528
911.5369, 19.94083
912.0190, 20.71284
912.5011, 20.98725
912.9832, 20.98850
913.4653, 20.80396
913.9474, 20.50040
914.4296, 20.00125
914.9117, 19.28088
915.3938, 19.09757
915.8759, 20.07064
916.3580, 20.87201
916.8401, 20.89846
917.3223, 20.30443
917.8044, 19.91528
918.2865, 19.73590
918.7686, 19.80005
919.2507, 20.39379
919.7328, 21.00974
920.2150, 21.27909
920.6971, 21.17318
921.1792, 20.63043
921.6613, 18.51725
922.1434, 17.52993
922.6255, 18.54019
923.1077, 20.38239
923.5898, 21.02793
924.0719, 20.53078
924.5540, 19.81446
925.0361, 18.93039
925.5182, 18.42037
926.0004, 19.31634
926.4825, 20.65535
926.9646, 21.20281
927.4467, 20.32831
927.9288, 19.80943
928.4109, 20.05078
928.8931, 20.42621
929.3752, 20.49175
929.8573, 20.25531
930.3394, 20.06833
930.8215, 19.93220
931.3036, 20.07758
931.7858, 21.13073
932.2679, 22.21415
932.7500, 22.48192
933.2321, 21.95295
933.7142, 21.11576
934.1964, 19.53892
934.6785, 18.40142
935.1606, 18.12387
935.6427, 18.42506
936.1248, 18.47972
936.6069, 18.31175
937.0891, 18.21224
937.5712, 18.28300
938.0533, 18.44950
938.5354, 18.78409
939.0175, 19.11919
939.4996, 19.20261
939.9818, 18.74014
940.4639, 18.34710
940.9460, 17.98702
941.4281, 17.79130
941.9102, 17.95939
942.3923, 18.45236
942.8745, 18.96320
943.3566, 19.48043
943.8387, 19.80764
944.3208, 19.41672
944.8029, 19.03452
945.2850, 19.54995
945.7672, 21.07233
946.2493, 21.62079
946.7314, 20.56123
947.2135, 19.46041
947.6956, 18.90861
948.1777, 18.77270
948.6599, 18.66064
949.1420, 18.56160
949.6241, 18.40577
950.1062, 17.94085
950.5883, 17.67025
951.0704, 18.11798
951.5526, 18.96682
952.0347, 19.62205
952.5168, 20.13520
952.9989, 20.18226
953.4810, 19.52440
953.9631, 18.82125
954.4453, 19.12441
954.9274, 20.08603
955.4095, 20.46322
955.8916, 20.06428
956.3737, 19.41544
956.8558, 18.56318
957.3380, 17.82602
957.8201, 17.47784
958.3022, 17.54910
958.7843, 17.64274
959.2664, 17.77646
959.7485, 17.86633
960.2307, 17.76723
960.7128, 17.66339
961.1949, 18.19790
961.6770, 19.15072
962.1591, 19.73785
962.6412, 19.16870
963.1234, 18.64834
963.6055, 18.77793
964.0876, 19.22433
964.5697, 19.43719
965.0518, 19.38737
965.5339, 19.22468
966.0161, 18.95262
966.4982, 18.62308
966.9803, 18.27795
967.4624, 17.92321
967.9445, 17.48796
968.4266, 16.90423
968.9088, 16.72308
969.3909, 17.46950
969.8730, 18.38148
970.3551, 19.15387
970.8372, 19.76319
971.3193, 19.91439
971.8015, 19.59248
972.2836, 19.20677
972.7657, 18.95115
973.2478, 18.78096
973.7299, 18.71644
974.2120, 18.69051
974.6942, 18.53692
975.1763, 18.05805
975.6584, 17.63692
976.1405, 17.26170
976.6226, 17.02460
977.1047, 17.11836
977.5869, 17.51048
978.0690, 17.90598
978.5511, 18.29232
979.0332, 18.39329
979.5153, 17.47362
979.9974, 16.49957
980.4796, 16.51560
980.9617, 17.81464
981.4438, 18.54431
981.9259, 18.41552
982.4080, 18.22638
982.8901, 18.38577
983.3723, 18.73469
983.8544, 18.74951
984.3365, 18.49508
984.8186, 18.24078
985.3007, 18.00635
985.7828, 17.92834
986.2650, 18.33253
986.7471, 18.83314
987.2292, 18.73386
987.7113, 17.74277
988.1934, 17.29460
988.6755, 17.64718
989.1577, 18.02139
989.6398, 17.13428
990.1219, 15.84007
990.6040, 15.90094
991.0861, 17.53644
991.5682, 18.57655
992.0504, 17.42188
992.5325, 16.23646
993.0146, 15.99775
993.4967, 16.55243
993.9788, 17.14975
994.4609, 17.78913
994.9431, 18.12498
995.4252, 17.95411
995.9073, 17.51044
996.3894, 16.69702
996.8715, 15.88772
997.3536, 15.68174
997.8358, 17.02710
998.3179, 17.77773
998.8000, 17.62452
999.2821, 17.27298
999.7642, 17.51532
1000.246, 18.19457
1000.728, 18.35914
1001.211, 17.98405
1001.693, 17.65041
1002.175, 17.85021
1002.657, 18.12084
1003.139, 18.14548
1003.621, 17.94954
1004.103, 17.81845
1004.585, 17.76225
1005.068, 17.71092
1005.550, 17.58781
1006.032, 17.57306
1006.514, 18.29150
1006.996, 19.26618
1007.478, 19.46638
1007.960, 18.21693
1008.442, 17.16723
1008.924, 16.79610
1009.407, 16.83504
1009.889, 17.22848
1010.371, 17.99689
1010.853, 18.45324
1011.335, 18.60019
1011.817, 18.58398
1012.299, 18.42587
1012.781, 18.21903
1013.263, 17.94728
1013.746, 17.68824
1014.228, 17.72048
1014.710, 18.37430
1015.192, 18.74826
1015.674, 18.61213
1016.156, 18.30691
1016.638, 18.41341
1017.120, 18.78017
1017.603, 18.92488
1018.085, 18.75238
1018.567, 18.48555
1019.049, 18.05008
1019.531, 17.74817
1020.013, 17.90231
1020.495, 18.47872
1020.977, 18.50054
1021.459, 17.88509
1021.942, 17.46917
1022.424, 17.89508
1022.906, 18.43815
1023.388, 17.91444
1023.870, 16.79547
1024.352, 16.00380
1024.834, 15.92853
1025.316, 16.08754
1025.799, 16.57170
1026.281, 17.07321
1026.763, 17.22055
1027.245, 17.07840
1027.727, 17.09084
1028.209, 17.27905
1028.691, 17.52222
1029.173, 18.00577
1029.656, 18.27449
1030.138, 17.69492
1030.620, 16.54759
1031.102, 16.36025
1031.584, 17.41183
1032.066, 18.33605
1032.548, 18.84255
1033.030, 18.97070
1033.512, 18.41148
1033.995, 17.62928
1034.477, 17.55301
1034.959, 18.69428
1035.441, 19.36201
1035.923, 18.75202
1036.405, 18.01557
1036.887, 17.79391
1037.369, 18.01201
1037.851, 17.92878
1038.334, 17.58369
1038.816, 17.33485
1039.298, 17.53007
1039.780, 17.74347
1040.262, 17.67649
1040.744, 17.42806
1041.226, 17.18952
1041.708, 16.92792
1042.191, 16.84647
1042.673, 17.02898
1043.155, 17.12467
1043.637, 16.44841
1044.119, 15.57130
1044.601, 15.58982
1045.083, 16.54649
1045.565, 17.45695
1046.047, 18.37113
1046.530, 18.63443
1047.012, 17.72987
1047.494, 16.23661
1047.976, 15.86942
1048.458, 16.48942
1048.940, 16.99630
1049.422, 17.05403
1049.904, 17.03526
1050.386, 17.47929
1050.869, 17.83005
1051.351, 17.31960
1051.833, 15.64022
1052.315, 14.97518
1052.797, 15.47950
1053.279, 16.29776
1053.761, 17.10521
1054.243, 17.79857
1054.726, 18.24714
1055.208, 18.43941
1055.690, 18.34541
1056.172, 17.48549
1056.654, 17.00752
1057.136, 17.20556
1057.618, 17.63474
1058.100, 17.85813
1058.583, 17.86691
1059.065, 17.39982
1059.547, 16.45753
1060.029, 15.93782
1060.511, 17.11296
1060.993, 18.30602
1061.475, 18.35810
1061.957, 17.50741
1062.439, 16.82102
1062.922, 16.30305
1063.404, 15.93256
1063.886, 15.72511
1064.368, 15.60953
1064.850, 15.42562
1065.332, 15.30993
1065.814, 15.52707
1066.296, 16.27481
1066.778, 16.64749
1067.261, 16.45898
1067.743, 16.07722
1068.225, 15.46916
1068.707, 14.90975
1069.189, 15.78103
1069.671, 17.59705
1070.153, 18.58655
1070.635, 17.35257
1071.118, 15.96211
1071.600, 14.87061
1072.082, 14.31243
1072.564, 14.72345
1073.046, 16.21746
1073.528, 17.22383
1074.010, 17.68162
1074.492, 17.81201
1074.974, 17.61648
1075.457, 17.30064
1075.939, 16.92212
1076.421, 16.56853
1076.903, 16.60546
1077.385, 17.36549
1077.867, 17.58996
1078.349, 16.94706
1078.831, 16.04729
1079.313, 15.61156
1079.796, 15.52299
1080.278, 15.57075
1080.760, 15.72221
1081.242, 16.08534
1081.724, 17.21445
1082.206, 17.92727
1082.688, 17.65825
1083.170, 16.74325
1083.652, 16.19544
1084.135, 15.97227
1084.617, 15.87916
1085.099, 15.84106
1085.581, 15.94846
1086.063, 16.59831
1086.545, 17.16146
1087.027, 16.95756
1087.509, 15.84752
1087.992, 15.46285
1088.474, 15.83727
1088.956, 16.41983
1089.438, 17.17865
1089.920, 17.71460
1090.402, 17.31759
1090.884, 16.43731
1091.366, 16.04737
1091.849, 16.61948
1092.331, 17.08068
1092.813, 17.43602
1093.295, 17.52130
1093.777, 16.83294
1094.259, 15.88145
1094.741, 15.96610
1095.223, 16.95648
1095.705, 17.45815
1096.188, 15.98211
1096.670, 15.18664
1097.152, 16.12121
1097.634, 17.69115
1098.116, 17.65487
1098.598, 16.37211
1099.080, 15.93956
1099.562, 16.76649
1100.044, 17.63484
1100.527, 17.84888
1101.009, 17.73020
1101.491, 17.39832
1101.973, 16.91551
1102.455, 16.56746
1102.937, 16.34797
1103.419, 16.43402
1103.901, 17.04675
1104.384, 17.57646
1104.866, 17.08030
1105.348, 16.29733
1105.830, 16.18636
1106.312, 17.13288
1106.794, 17.63233
1107.276, 17.61760
1107.758, 17.38204
1108.240, 16.97262
1108.723, 16.54799
1109.205, 16.34617
1109.687, 16.34575
1110.169, 16.49256
1110.651, 16.91652
1111.133, 17.27432
1111.615, 17.53213
1112.097, 17.73889
1112.579, 18.04146
1113.062, 18.32753
1113.544, 17.99785
1114.026, 17.15884
1114.508, 16.60414
1114.990, 17.17005
1115.472, 17.57871
1115.954, 17.33154
1116.436, 16.69900
1116.919, 15.91619
1117.401, 15.01561
1117.883, 14.67625
1118.365, 14.98466
1118.847, 15.50976
1119.329, 16.32229
1119.811, 16.88194
1120.293, 16.59171
1120.776, 15.69723
1121.258, 15.17674
1121.740, 15.05031
1122.222, 15.14665
1122.704, 15.47417
1123.186, 15.82365
1123.668, 16.03955
1124.150, 16.12450
1124.632, 16.07110
1125.115, 15.86454
1125.597, 15.52919
1126.079, 14.90049
1126.561, 14.74167
1127.043, 15.55515
1127.525, 16.67263
1128.007, 17.10410
1128.489, 17.01958
1128.971, 16.62599
1129.454, 15.68605
1129.936, 15.28706
1130.418, 15.64180
1130.900, 16.29456
1131.382, 17.23515
1131.864, 18.15254
1132.346, 17.95588
1132.828, 16.94233
1133.311, 16.05078
1133.793, 15.69654
1134.275, 15.47180
1134.757, 15.13342
1135.239, 15.03814
1135.721, 15.83085
1136.203, 17.28173
1136.685, 17.24830
1137.167, 15.88043
1137.650, 14.80957
1138.132, 15.29345
1138.614, 15.93976
1139.096, 16.20432
1139.578, 16.19663
1140.060, 15.98695
1140.542, 15.56917
1141.024, 15.29244
1141.506, 15.18270
1141.989, 15.33439
1142.471, 16.25554
1142.953, 17.05719
1143.435, 17.00794
1143.917, 16.31071
1144.399, 15.64499
1144.881, 14.95381
1145.363, 14.88172
1145.846, 15.64135
1146.328, 16.39716
1146.810, 16.19175
1147.292, 15.64809
1147.774, 15.30386
1148.256, 15.22328
1148.738, 15.33472
1149.220, 15.69159
1149.703, 16.03629
1150.185, 16.33229
1150.667, 16.49249
1151.149, 16.30096
1151.631, 15.95287
1152.113, 15.75613
1152.595, 15.80641
1153.077, 15.55059
1153.559, 14.71255
1154.042, 14.24288
1154.524, 14.65908
1155.006, 15.45931
1155.488, 15.77190
1155.970, 15.76365
1156.452, 15.79728
1156.934, 16.15486
1157.416, 15.87224
1157.898, 14.39636
1158.381, 13.18608
1158.863, 13.20798
1159.345, 13.98364
1159.827, 14.07106
1160.309, 13.75505
1160.791, 13.83249
1161.273, 14.90076
1161.755, 15.82908
1162.238, 16.36158
1162.720, 16.73617
1163.202, 17.21515
1163.684, 17.69244
1164.166, 17.43711
1164.648, 16.62323
1165.130, 16.02648
1165.612, 16.34550
1166.094, 16.51629
1166.577, 15.96921
1167.059, 15.36462
1167.541, 15.45376
1168.023, 16.13406
1168.505, 16.49833
1168.987, 16.53135
1169.469, 16.35085
1169.951, 15.76941
1170.433, 15.28220
1170.916, 15.24303
1171.398, 15.33828
1171.880, 15.04940
1172.362, 14.41756
1172.844, 14.50695
1173.326, 15.37288
1173.808, 15.98695
1174.290, 15.12341
1174.773, 14.32070
1175.255, 14.72695
1175.737, 15.73193
1176.219, 16.20136
1176.701, 16.13683
1177.183, 15.89098
1177.665, 15.49351
1178.147, 15.16618
1178.630, 14.97250
1179.112, 15.01317
1179.594, 15.61466
1180.076, 16.49427
1180.558, 16.74366
1181.040, 16.33939
1181.522, 15.68765
1182.004, 14.79338
1182.486, 14.17170
1182.969, 14.31471
1183.451, 14.89490
1183.933, 16.05243
1184.415, 17.52040
1184.897, 17.50628
1185.379, 15.84751
1185.861, 14.49022
1186.343, 13.94263
1186.825, 13.83622
1187.308, 14.10460
1187.790, 14.43316
1188.272, 14.39441
1188.754, 14.00266
1189.236, 14.23289
1189.718, 15.17100
1190.200, 15.95797
1190.682, 16.40219
1191.165, 16.35385
1191.647, 15.11907
1192.129, 13.64785
1192.611, 12.97845
1193.093, 13.24477
1193.575, 13.89828
1194.057, 15.04726
1194.539, 15.76292
1195.021, 15.51121
1195.504, 15.03489
1195.986, 15.19134
1196.468, 15.61606
1196.950, 15.84262
1197.432, 15.79751
1197.914, 15.76790
1198.396, 15.77403
1198.878, 15.63701
1199.360, 15.14101
1199.843, 14.66623
1200.325, 14.76757
1200.807, 15.13070
1201.289, 15.30981
1201.771, 15.21775
1202.253, 15.09010
1202.735, 14.90650
1203.217, 14.82689
1203.700, 15.03091
1204.182, 15.27629
1204.664, 15.18986
1205.146, 14.99074
1205.628, 15.06434
1206.110, 15.58498
1206.592, 15.94955
1207.074, 16.18789
1207.557, 16.08340
1208.039, 15.01760
1208.521, 13.99976
1209.003, 14.49631
1209.485, 15.74005
1209.967, 16.29185
1210.449, 15.79503
1210.931, 15.23826
1211.413, 14.55943
1211.896, 14.21478
1212.378, 14.94900
1212.860, 15.80084
1213.342, 15.50766
1213.824, 14.61784
1214.306, 14.33232
1214.788, 15.06822
1215.270, 15.14987
1215.752, 14.45939
1216.235, 13.78469
1216.717, 13.79570
1217.199, 14.02880
1217.681, 14.02332
1218.163, 13.88193
1218.645, 13.85734
1219.127, 13.99862
1219.609, 14.09206
1220.092, 14.12157
1220.574, 14.17992
1221.056, 14.25449
1221.538, 14.46887
1222.020, 15.21309
1222.502, 16.11216
1222.984, 16.27171
1223.466, 15.43917
1223.948, 15.03094
1224.431, 15.14809
1224.913, 15.45819
1225.395, 16.01286
1225.877, 16.35102
1226.359, 15.88249
1226.841, 14.94568
1227.323, 14.41234
1227.805, 14.35215
1228.287, 14.15486
1228.770, 13.75427
1229.252, 13.69594
1229.734, 15.12394
1230.216, 16.36730
1230.698, 15.74905
1231.180, 14.12884
1231.662, 13.59497
1232.144, 14.24320
1232.627, 14.61734
1233.109, 14.59447
1233.591, 14.36890
1234.073, 13.85706
1234.555, 13.42545
1235.037, 13.42317
1235.519, 13.62472
1236.001, 13.53349
1236.484, 13.15019
1236.966, 13.33892
1237.448, 14.16996
1237.930, 14.63458
1238.412, 13.34565
1238.894, 12.24550
1239.376, 12.77642
1239.858, 14.02780
1240.340, 14.57830
1240.823, 14.47601
1241.305, 14.26791
1241.787, 14.01897
1242.269, 14.01150
1242.751, 14.84633
1243.233, 15.45092
1243.715, 15.24440
1244.197, 14.65535
1244.679, 14.29935
1245.162, 14.14184
1245.644, 14.00045
1246.126, 13.86374
1246.608, 13.84862
1247.090, 14.12820
1247.572, 14.41681
1248.054, 14.71916
1248.536, 14.86216
1249.019, 14.48938
1249.501, 13.74378
1249.983, 12.82485
1250.465, 11.84088
1250.947, 11.67549
1251.429, 13.74146
1251.911, 15.24151
1252.393, 15.53658
1252.875, 15.16291
1253.358, 14.57746
1253.840, 13.96466
1254.322, 13.82121
1254.804, 14.12505
1255.286, 14.32768
1255.768, 14.25058
1256.250, 14.10130
1256.732, 13.91347
1257.214, 13.65357
1257.697, 13.12193
1258.179, 12.57624
1258.661, 12.52936
1259.143, 12.39646
1259.625, 12.40952
1260.107, 12.82588
1260.589, 12.93185
1261.071, 13.64162
1261.554, 14.40382
1262.036, 14.67526
1262.518, 14.63405
1263.000, 14.35321
1263.482, 13.93153
1263.964, 13.81228
1264.446, 14.16258
1264.928, 14.01856
1265.411, 13.17373
1265.893, 12.52914
1266.375, 13.28979
1266.857, 14.24699
1267.339, 14.17476
1267.821, 13.45875
1268.303, 13.44945
1268.785, 14.21675
1269.267, 14.72470
1269.750, 14.85233
1270.232, 15.03758
1270.714, 16.02766
1271.196, 16.75385
1271.678, 16.34206
1272.160, 15.28753
1272.642, 14.20892
1273.124, 13.13251
1273.606, 12.33612
1274.089, 11.84877
1274.571, 11.72429
1275.053, 12.30878
1275.535, 12.88239
1276.017, 13.16794
1276.499, 13.32347
1276.981, 13.67186
1277.463, 14.06950
1277.946, 13.75265
1278.428, 12.82005
1278.910, 12.27788
1279.392, 12.97154
1279.874, 13.57362
1280.356, 13.91672
1280.838, 13.96755
1281.320, 13.46933
1281.802, 12.75465
1282.285, 12.61663
1282.767, 12.93271
1283.249, 13.03003
1283.731, 12.56693
1284.213, 12.17229
1284.695, 11.85043
1285.177, 11.76912
1285.659, 12.36352
1286.141, 13.07562
1286.624, 13.05126
1287.106, 12.56252
1287.588, 12.45078
1288.070, 12.88137
1288.552, 13.22343
1289.034, 13.44281
1289.516, 13.59845
1289.998, 13.78943
1290.481, 13.88089
1290.963, 13.68054
1291.445, 13.34174
1291.927, 13.09114
1292.409, 12.91979
1292.891, 13.10476
1293.373, 13.61737
1293.855, 13.95618
1294.338, 13.76002
1294.820, 13.38828
1295.302, 12.80914
1295.784, 12.30584
1296.266, 12.17187
1296.748, 12.35502
1297.230, 12.54253
1297.712, 12.72118
1298.194, 12.84560
1298.677, 13.12814
1299.159, 12.90817
1299.641, 11.73451
1300.123, 10.79656
1300.605, 11.30602
1301.087, 12.53978
1301.569, 12.85136
1302.051, 12.45938
1302.533, 11.88290
1303.016, 11.19390
##END=



