##NAMES=Pyromorphite
##RRUFFID=R050085
##IDEAL CHEMISTRY=Pb^2+^_5_(PO_4_)_3_Cl
##LOCALITY=Bunker Hill mine, Shoshone County, Idaho, USA
##OWNER=RRUFF
##SOURCE=Eugene Schlepp
##DESCRIPTION=Group of orange hexagonal prisms
##STATUS=The identification of this mineral has been confirmed by X-ray diffraction and chemical analysis
##URL=rruff.info/R050085
##MEASURED CHEMISTRY=Pb_5.00_(P_0.96_As_0.04_O_4_)_3_Cl_1.00_
146.2870, 6618.798
146.7691, 6734.471
147.2512, 6855.422
147.7334, 6978.763
148.2155, 7102.191
148.6976, 7244.119
149.1797, 7415.876
149.6618, 7603.377
150.1439, 7786.304
150.6261, 7954.554
151.1082, 8125.198
151.5903, 8299.627
152.0724, 8472.473
152.5545, 8660.479
153.0366, 8888.899
153.5188, 9131.567
154.0009, 9336.184
154.4830, 9476.543
154.9651, 9593.368
155.4472, 9706.488
155.9293, 9826.778
156.4115, 9930.659
156.8936, 10016.28
157.3757, 10082.81
157.8578, 10129.22
158.3399, 10145.90
158.8221, 10147.60
159.3042, 10144.17
159.7863, 10143.76
160.2684, 10132.85
160.7505, 10103.64
161.2326, 10057.68
161.7148, 10008.97
162.1969, 9963.811
162.6790, 9918.324
163.1611, 9869.364
163.6432, 9806.943
164.1253, 9747.373
164.6075, 9697.499
165.0896, 9657.503
165.5717, 9628.724
166.0538, 9616.287
166.5359, 9614.835
167.0180, 9616.555
167.5002, 9610.934
167.9823, 9611.736
168.4644, 9634.685
168.9465, 9684.371
169.4286, 9732.250
169.9107, 9749.228
170.3929, 9748.526
170.8750, 9758.461
171.3571, 9808.685
171.8392, 9870.175
172.3213, 9911.354
172.8034, 9925.604
173.2856, 9926.970
173.7677, 9924.225
174.2498, 9918.137
174.7319, 9911.422
175.2140, 9913.718
175.6961, 9914.678
176.1783, 9897.870
176.6604, 9858.740
177.1425, 9804.235
177.6246, 9743.258
178.1067, 9675.419
178.5888, 9593.841
179.0710, 9488.662
179.5531, 9367.336
180.0352, 9248.313
180.5173, 9140.369
180.9994, 9033.460
181.4815, 8910.823
181.9637, 8771.885
182.4458, 8632.706
182.9279, 8504.820
183.4100, 8386.773
183.8921, 8271.027
184.3742, 8156.331
184.8564, 8041.873
185.3385, 7928.609
185.8206, 7815.465
186.3027, 7704.740
186.7848, 7596.145
187.2669, 7490.349
187.7491, 7388.878
188.2312, 7293.986
188.7133, 7204.302
189.1954, 7110.789
189.6775, 7012.479
190.1596, 6917.347
190.6418, 6836.945
191.1239, 6771.228
191.6060, 6703.721
192.0881, 6625.476
192.5702, 6538.177
193.0524, 6455.820
193.5345, 6378.252
194.0166, 6306.484
194.4987, 6242.905
194.9808, 6187.472
195.4629, 6140.739
195.9451, 6111.817
196.4272, 6099.634
196.9093, 6062.948
197.3914, 5994.916
197.8735, 5911.097
198.3556, 5839.449
198.8378, 5781.144
199.3199, 5728.905
199.8020, 5678.641
200.2841, 5630.402
200.7662, 5591.268
201.2483, 5564.971
201.7305, 5544.980
202.2126, 5514.909
202.6947, 5473.177
203.1768, 5427.271
203.6589, 5379.550
204.1410, 5329.366
204.6232, 5284.873
205.1053, 5246.506
205.5874, 5214.429
206.0695, 5192.764
206.5516, 5187.477
207.0337, 5176.933
207.5159, 5142.030
207.9980, 5076.548
208.4801, 5020.027
208.9622, 4979.927
209.4443, 4952.447
209.9264, 4918.070
210.4086, 4873.489
210.8907, 4828.483
211.3728, 4793.187
211.8549, 4772.530
212.3370, 4742.572
212.8191, 4694.009
213.3013, 4631.152
213.7834, 4589.228
214.2655, 4577.174
214.7476, 4571.609
215.2297, 4554.151
215.7118, 4524.753
216.1940, 4481.902
216.6761, 4419.885
217.1582, 4339.927
217.6403, 4276.640
218.1224, 4236.925
218.6045, 4205.601
219.0867, 4168.650
219.5688, 4125.061
220.0509, 4078.517
220.5330, 4029.132
221.0151, 3976.084
221.4972, 3929.698
221.9794, 3893.817
222.4615, 3859.862
222.9436, 3816.815
223.4257, 3757.460
223.9078, 3703.513
224.3899, 3662.468
224.8721, 3635.184
225.3542, 3601.954
225.8363, 3559.398
226.3184, 3513.837
226.8005, 3472.665
227.2827, 3440.312
227.7648, 3403.994
228.2469, 3356.802
228.7290, 3295.224
229.2111, 3252.492
229.6932, 3238.487
230.1754, 3235.813
230.6575, 3221.189
231.1396, 3188.442
231.6217, 3154.757
232.1038, 3124.818
232.5859, 3099.457
233.0681, 3073.289
233.5502, 3045.547
234.0323, 3017.659
234.5144, 2991.240
234.9965, 2966.458
235.4786, 2943.262
235.9608, 2922.492
236.4429, 2905.927
236.9250, 2884.194
237.4071, 2853.245
237.8892, 2819.794
238.3713, 2795.086
238.8535, 2784.291
239.3356, 2773.585
239.8177, 2758.227
240.2998, 2736.390
240.7819, 2717.088
241.2640, 2702.279
241.7462, 2688.557
242.2283, 2669.143
242.7104, 2638.816
243.1925, 2611.420
243.6746, 2592.334
244.1567, 2584.640
244.6389, 2574.589
245.1210, 2561.815
245.6031, 2546.950
246.0852, 2530.772
246.5673, 2511.615
247.0494, 2494.002
247.5316, 2479.867
248.0137, 2470.449
248.4958, 2460.130
248.9779, 2447.994
249.4600, 2435.528
249.9421, 2426.216
250.4243, 2422.363
250.9064, 2417.457
251.3885, 2409.483
251.8706, 2398.705
252.3527, 2383.046
252.8348, 2359.350
253.3170, 2332.779
253.7991, 2313.175
254.2812, 2301.924
254.7633, 2295.452
255.2454, 2294.891
255.7275, 2305.126
256.2097, 2301.928
256.6918, 2279.021
257.1739, 2247.040
257.6560, 2226.621
258.1381, 2224.161
258.6202, 2219.944
259.1024, 2204.548
259.5845, 2173.327
260.0666, 2151.379
260.5487, 2141.885
261.0308, 2139.311
261.5129, 2133.173
261.9951, 2122.417
262.4772, 2110.704
262.9593, 2098.982
263.4414, 2086.513
263.9235, 2077.495
264.4056, 2073.259
264.8878, 2071.134
265.3699, 2067.539
265.8520, 2064.222
266.3341, 2054.249
266.8162, 2031.328
267.2983, 1991.790
267.7805, 1964.552
268.2626, 1952.069
268.7447, 1949.490
269.2268, 1951.344
269.7089, 1960.842
270.1910, 1963.202
270.6732, 1949.917
271.1553, 1918.821
271.6374, 1893.276
272.1195, 1873.057
272.6016, 1858.685
273.0837, 1853.496
273.5659, 1859.386
274.0480, 1864.642
274.5301, 1865.848
275.0122, 1863.041
275.4943, 1852.453
275.9764, 1831.278
276.4586, 1807.599
276.9407, 1795.065
277.4228, 1795.291
277.9049, 1793.878
278.3870, 1783.654
278.8691, 1765.200
279.3513, 1751.988
279.8334, 1744.472
280.3155, 1741.030
280.7976, 1741.741
281.2798, 1746.955
281.7619, 1748.086
282.2440, 1740.858
282.7261, 1726.256
283.2082, 1709.874
283.6903, 1690.257
284.1725, 1674.221
284.6546, 1675.329
285.1367, 1692.662
285.6188, 1702.019
286.1009, 1691.860
286.5830, 1666.506
287.0652, 1641.813
287.5473, 1617.053
288.0294, 1598.608
288.5115, 1598.700
288.9936, 1614.797
289.4757, 1625.788
289.9579, 1621.795
290.4400, 1608.380
290.9221, 1601.517
291.4042, 1601.681
291.8863, 1602.450
292.3684, 1594.392
292.8506, 1580.399
293.3327, 1573.233
293.8148, 1580.939
294.2969, 1595.573
294.7790, 1599.703
295.2611, 1593.321
295.7433, 1588.298
296.2254, 1601.502
296.7075, 1625.067
297.1896, 1635.394
297.6717, 1616.918
298.1538, 1589.631
298.6360, 1585.689
299.1181, 1603.498
299.6002, 1624.633
300.0823, 1633.286
300.5644, 1635.565
301.0465, 1643.800
301.5287, 1665.026
302.0108, 1688.699
302.4929, 1700.230
302.9750, 1701.920
303.4571, 1706.296
303.9392, 1724.407
304.4214, 1749.560
304.9035, 1772.529
305.3856, 1787.677
305.8677, 1804.860
306.3498, 1836.717
306.8319, 1878.817
307.3141, 1916.215
307.7962, 1935.468
308.2783, 1947.383
308.7604, 1961.615
309.2425, 1977.495
309.7246, 2001.056
310.2068, 2043.034
310.6889, 2096.691
311.1710, 2144.972
311.6531, 2177.290
312.1352, 2202.600
312.6173, 2226.127
313.0995, 2247.088
313.5816, 2270.315
314.0637, 2300.357
314.5458, 2334.230
315.0279, 2366.549
315.5100, 2395.538
315.9922, 2422.210
316.4743, 2446.165
316.9564, 2466.197
317.4385, 2488.340
317.9206, 2515.309
318.4027, 2545.413
318.8849, 2576.288
319.3670, 2621.023
319.8491, 2654.354
320.3312, 2659.601
320.8133, 2628.471
321.2954, 2613.318
321.7776, 2644.076
322.2597, 2688.078
322.7418, 2710.503
323.2239, 2688.695
323.7060, 2662.485
324.1881, 2640.197
324.6703, 2622.432
325.1524, 2604.628
325.6345, 2589.383
326.1166, 2572.646
326.5987, 2550.982
327.0808, 2519.643
327.5630, 2488.924
328.0451, 2458.494
328.5272, 2428.597
329.0093, 2404.687
329.4914, 2391.869
329.9735, 2380.941
330.4557, 2365.877
330.9378, 2343.211
331.4199, 2322.447
331.9020, 2305.034
332.3841, 2290.129
332.8662, 2273.151
333.3484, 2251.955
333.8305, 2232.188
334.3126, 2216.562
334.7947, 2205.341
335.2768, 2198.171
335.7589, 2196.153
336.2411, 2197.579
336.7232, 2198.852
337.2053, 2200.901
337.6874, 2200.030
338.1695, 2192.312
338.6516, 2176.229
339.1338, 2167.484
339.6159, 2167.456
340.0980, 2173.182
340.5801, 2181.857
341.0622, 2194.377
341.5443, 2202.293
342.0265, 2201.880
342.5086, 2193.640
342.9907, 2180.457
343.4728, 2161.128
343.9549, 2142.021
344.4370, 2132.333
344.9192, 2131.219
345.4013, 2130.674
345.8834, 2131.659
346.3655, 2130.211
346.8476, 2112.271
347.3297, 2077.432
347.8119, 2040.598
348.2940, 2019.027
348.7761, 2007.289
349.2582, 1989.216
349.7403, 1956.476
350.2225, 1918.657
350.7046, 1889.295
351.1867, 1867.416
351.6688, 1847.556
352.1509, 1825.730
352.6331, 1803.348
353.1152, 1782.159
353.5973, 1761.604
354.0794, 1744.129
354.5615, 1733.894
355.0436, 1728.960
355.5258, 1723.433
356.0079, 1710.591
356.4900, 1697.670
356.9721, 1691.651
357.4542, 1695.167
357.9363, 1700.285
358.4185, 1705.804
358.9006, 1709.576
359.3827, 1707.882
359.8648, 1688.514
360.3469, 1671.833
360.8290, 1670.244
361.3112, 1686.794
361.7933, 1703.827
362.2754, 1712.278
362.7575, 1719.686
363.2396, 1734.308
363.7217, 1767.384
364.2039, 1798.284
364.6860, 1818.961
365.1681, 1829.251
365.6502, 1845.608
366.1323, 1870.209
366.6144, 1901.344
367.0966, 1938.047
367.5787, 1982.497
368.0608, 2029.354
368.5429, 2080.148
369.0250, 2133.889
369.5071, 2183.849
369.9893, 2224.937
370.4714, 2267.905
370.9535, 2317.536
371.4356, 2372.384
371.9177, 2436.409
372.3998, 2512.072
372.8820, 2596.058
373.3641, 2680.391
373.8462, 2764.844
374.3283, 2849.535
374.8104, 2931.039
375.2925, 3008.696
375.7747, 3100.364
376.2568, 3209.057
376.7389, 3327.299
377.2210, 3444.806
377.7031, 3561.480
378.1852, 3678.067
378.6674, 3793.874
379.1495, 3909.982
379.6316, 4034.341
380.1137, 4165.363
380.5958, 4309.625
381.0779, 4473.175
381.5601, 4656.083
382.0422, 4845.160
382.5243, 5040.102
383.0064, 5242.095
383.4885, 5453.718
383.9706, 5676.468
384.4528, 5906.396
384.9349, 6149.551
385.4170, 6397.812
385.8991, 6641.450
386.3812, 6879.033
386.8633, 7119.585
387.3455, 7380.207
387.8276, 7650.305
388.3097, 7910.220
388.7918, 8162.211
389.2739, 8389.128
389.7560, 8582.426
390.2382, 8742.771
390.7203, 8853.115
391.2024, 8907.104
391.6845, 8905.119
392.1666, 8847.644
392.6487, 8753.073
393.1309, 8584.687
393.6130, 8310.332
394.0951, 7936.248
394.5772, 7542.052
395.0593, 7114.601
395.5414, 6693.957
396.0236, 6309.270
396.5057, 5965.888
396.9878, 5655.412
397.4699, 5380.487
397.9520, 5140.056
398.4341, 4932.424
398.9163, 4757.113
399.3984, 4615.372
399.8805, 4508.067
400.3626, 4436.631
400.8447, 4397.025
401.3268, 4399.482
401.8090, 4426.288
402.2911, 4450.745
402.7732, 4464.061
403.2553, 4497.260
403.7374, 4559.224
404.2195, 4649.274
404.7017, 4758.286
405.1838, 4891.307
405.6659, 5031.089
406.1480, 5161.646
406.6301, 5283.381
407.1122, 5407.726
407.5944, 5539.071
408.0765, 5672.292
408.5586, 5792.120
409.0407, 5899.245
409.5228, 6002.159
410.0049, 6108.939
410.4871, 6214.850
410.9692, 6310.216
411.4513, 6395.900
411.9334, 6464.210
412.4155, 6496.227
412.8976, 6503.130
413.3798, 6516.013
413.8619, 6564.426
414.3440, 6617.475
414.8261, 6651.375
415.3082, 6665.154
415.7903, 6643.748
416.2725, 6577.825
416.7546, 6471.355
417.2367, 6326.692
417.7188, 6144.343
418.2009, 5927.601
418.6830, 5668.248
419.1652, 5372.800
419.6473, 5075.242
420.1294, 4770.012
420.6115, 4475.588
421.0937, 4196.803
421.5758, 3939.460
422.0579, 3698.938
422.5400, 3473.241
423.0221, 3263.771
423.5042, 3068.014
423.9864, 2878.008
424.4685, 2712.711
424.9506, 2580.401
425.4327, 2485.775
425.9148, 2385.126
426.3969, 2270.455
426.8791, 2158.917
427.3612, 2067.487
427.8433, 2001.272
428.3254, 1939.896
428.8075, 1881.202
429.2896, 1825.510
429.7718, 1774.876
430.2539, 1729.158
430.7360, 1688.493
431.2181, 1655.391
431.7002, 1629.235
432.1823, 1600.010
432.6645, 1566.068
433.1466, 1532.791
433.6287, 1510.391
434.1108, 1496.611
434.5929, 1479.975
435.0750, 1454.024
435.5572, 1423.181
436.0393, 1395.237
436.5214, 1370.056
437.0035, 1344.625
437.4856, 1317.379
437.9677, 1288.441
438.4499, 1257.619
438.9320, 1222.705
439.4141, 1189.583
439.8962, 1161.311
440.3783, 1138.124
440.8604, 1119.799
441.3426, 1113.120
441.8247, 1106.351
442.3068, 1092.167
442.7889, 1068.251
443.2710, 1044.261
443.7531, 1022.105
444.2353, 1001.495
444.7174, 981.7239
445.1995, 959.3834
445.6816, 941.8348
446.1637, 932.6600
446.6458, 930.9228
447.1280, 925.6480
447.6101, 913.2031
448.0922, 901.1943
448.5743, 894.3921
449.0564, 895.7040
449.5385, 894.1599
450.0207, 888.6227
450.5028, 880.9052
450.9849, 873.7527
451.4670, 866.7985
451.9491, 862.7818
452.4312, 865.1358
452.9134, 872.2430
453.3955, 869.9398
453.8776, 857.1230
454.3597, 842.9133
454.8418, 837.1583
455.3239, 837.9343
455.8061, 837.2700
456.2882, 832.4699
456.7703, 826.8069
457.2524, 825.7189
457.7345, 828.1422
458.2166, 829.7087
458.6988, 828.0186
459.1809, 823.9981
459.6630, 818.1191
460.1451, 810.0939
460.6272, 802.3290
461.1093, 795.8832
461.5915, 790.7489
462.0736, 787.0638
462.5557, 787.0208
463.0378, 786.3177
463.5199, 783.0546
464.0020, 777.5319
464.4842, 772.0126
464.9663, 763.4468
465.4484, 757.6700
465.9305, 758.4855
466.4126, 775.2029
466.8947, 782.1593
467.3769, 774.6970
467.8590, 759.5482
468.3411, 747.1962
468.8232, 737.9233
469.3053, 731.1520
469.7874, 727.3232
470.2696, 726.2359
470.7517, 723.8685
471.2338, 719.6799
471.7159, 715.8920
472.1980, 715.3638
472.6801, 717.9644
473.1623, 717.9282
473.6444, 713.8427
474.1265, 707.9657
474.6086, 704.3923
475.0907, 702.7286
475.5728, 700.4278
476.0550, 695.8300
476.5371, 689.8240
477.0192, 683.2058
477.5013, 675.9399
477.9834, 670.2735
478.4655, 668.8756
478.9477, 669.8251
479.4298, 670.6409
479.9119, 670.5510
480.3940, 670.2049
480.8761, 670.4870
481.3582, 670.8596
481.8404, 669.7560
482.3225, 663.9557
482.8046, 658.7988
483.2867, 656.6772
483.7688, 658.2141
484.2509, 661.3376
484.7331, 667.6441
485.2152, 674.5405
485.6973, 679.8748
486.1794, 684.2142
486.6615, 685.9906
487.1436, 684.8073
487.6258, 680.9030
488.1079, 674.7507
488.5900, 665.2302
489.0721, 656.6655
489.5542, 650.9240
490.0363, 647.9572
490.5185, 650.0920
491.0006, 658.8533
491.4827, 667.7696
491.9648, 666.6093
492.4470, 657.2482
492.9291, 649.9248
493.4112, 648.8311
493.8933, 651.1862
494.3754, 652.8685
494.8575, 654.1350
495.3397, 656.4972
495.8218, 663.2235
496.3039, 670.5135
496.7860, 674.0265
497.2681, 672.6782
497.7502, 669.5939
498.2324, 663.5584
498.7145, 657.5927
499.1966, 655.6933
499.6787, 665.1300
500.1608, 672.7155
500.6429, 673.6949
501.1251, 668.3860
501.6072, 663.2438
502.0893, 654.9544
502.5714, 650.1942
503.0535, 653.0778
503.5356, 669.6045
504.0178, 679.0793
504.4999, 678.9266
504.9820, 673.9553
505.4641, 671.6334
505.9462, 672.7196
506.4283, 672.3709
506.9105, 668.2469
507.3926, 661.8510
507.8747, 660.3032
508.3568, 663.9166
508.8389, 666.4598
509.3210, 660.4577
509.8032, 649.8231
510.2853, 645.9925
510.7674, 651.3467
511.2495, 659.4254
511.7316, 664.9266
512.2137, 668.2068
512.6959, 669.9331
513.1780, 669.6454
513.6601, 668.5576
514.1422, 667.3951
514.6243, 666.1273
515.1064, 664.4758
515.5886, 659.2322
516.0707, 655.7427
516.5528, 658.0500
517.0349, 671.4287
517.5170, 680.6383
517.9991, 679.9576
518.4813, 675.9484
518.9634, 677.0347
519.4455, 686.6252
519.9276, 695.5834
520.4097, 702.7647
520.8918, 707.8832
521.3740, 709.0764
521.8561, 705.2214
522.3382, 701.1585
522.8203, 700.2405
523.3024, 702.2797
523.7845, 703.3042
524.2667, 702.4809
524.7488, 703.0875
525.2309, 710.0074
525.7130, 721.9720
526.1951, 734.3665
526.6772, 745.4024
527.1594, 756.4434
527.6415, 767.4788
528.1236, 779.2258
528.6057, 795.2296
529.0878, 822.4852
529.5699, 851.3721
530.0521, 873.0461
530.5342, 884.3209
531.0163, 898.7303
531.4984, 921.5304
531.9805, 949.4136
532.4626, 978.9328
532.9448, 1013.749
533.4269, 1045.001
533.9090, 1066.895
534.3911, 1083.974
534.8732, 1113.417
535.3553, 1159.514
535.8375, 1210.861
536.3196, 1262.687
536.8017, 1315.684
537.2838, 1368.357
537.7659, 1421.145
538.2480, 1473.808
538.7302, 1524.355
539.2123, 1574.119
539.6944, 1630.129
540.1765, 1696.597
540.6586, 1765.092
541.1407, 1830.199
541.6229, 1889.762
542.1050, 1937.218
542.5871, 1980.552
543.0692, 2002.777
543.5513, 1978.283
544.0334, 1906.468
544.5156, 1835.270
544.9977, 1786.262
545.4798, 1747.591
545.9619, 1710.200
546.4440, 1665.608
546.9261, 1632.279
547.4083, 1614.674
547.8904, 1609.670
548.3725, 1612.153
548.8546, 1625.907
549.3367, 1640.940
549.8188, 1654.730
550.3010, 1667.539
550.7831, 1685.154
551.2652, 1711.557
551.7473, 1729.487
552.2294, 1724.383
552.7115, 1698.044
553.1937, 1668.387
553.6758, 1637.328
554.1579, 1600.879
554.6400, 1551.946
555.1221, 1493.160
555.6042, 1432.897
556.0864, 1371.589
556.5685, 1311.730
557.0506, 1252.911
557.5327, 1197.020
558.0148, 1152.186
558.4969, 1128.241
558.9791, 1112.063
559.4612, 1096.108
559.9433, 1079.102
560.4254, 1064.995
560.9075, 1053.215
561.3896, 1045.533
561.8718, 1042.759
562.3539, 1041.628
562.8360, 1051.422
563.3181, 1075.281
563.8002, 1109.160
564.2823, 1145.348
564.7645, 1184.672
565.2466, 1221.086
565.7287, 1250.116
566.2108, 1273.912
566.6929, 1302.696
567.1750, 1336.349
567.6572, 1372.511
568.1393, 1406.899
568.6214, 1442.222
569.1035, 1481.872
569.5856, 1525.892
570.0677, 1577.807
570.5499, 1646.466
571.0320, 1724.312
571.5141, 1799.793
571.9962, 1875.949
572.4783, 1941.730
572.9604, 1995.995
573.4426, 2036.796
573.9247, 2055.759
574.4068, 2059.075
574.8889, 2031.834
575.3710, 1963.262
575.8531, 1845.910
576.3353, 1730.197
576.8174, 1614.219
577.2995, 1504.359
577.7816, 1405.733
578.2637, 1319.248
578.7458, 1239.231
579.2280, 1164.203
579.7101, 1096.512
580.1922, 1040.249
580.6743, 995.1088
581.1564, 959.3539
581.6385, 937.6564
582.1207, 921.8931
582.6028, 901.2083
583.0849, 876.5497
583.5670, 853.9351
584.0491, 836.8358
584.5313, 823.3059
585.0134, 812.5591
585.4955, 805.8222
585.9776, 797.4984
586.4597, 782.5886
586.9418, 766.9234
587.4240, 757.4933
587.9061, 759.8348
588.3882, 759.7455
588.8703, 754.4153
589.3524, 746.0374
589.8345, 741.8246
590.3167, 743.3315
590.7988, 742.8500
591.2809, 735.1098
591.7630, 722.3518
592.2451, 717.6660
592.7272, 721.3400
593.2094, 726.0629
593.6915, 725.8068
594.1736, 722.2622
594.6557, 717.7776
595.1378, 711.9856
595.6199, 708.8625
596.1021, 715.7413
596.5842, 726.0554
597.0663, 730.4547
597.5485, 718.7217
598.0306, 708.0170
598.5127, 705.0027
598.9948, 707.8699
599.4769, 708.3506
599.9590, 701.9333
600.4412, 697.9234
600.9233, 700.4768
601.4054, 710.2778
601.8875, 715.8678
602.3696, 716.5419
602.8517, 714.6090
603.3339, 711.0865
603.8160, 706.1649
604.2981, 703.0193
604.7802, 702.3317
605.2623, 702.4102
605.7444, 700.1642
606.2266, 696.8762
606.7087, 696.2576
607.1908, 703.6437
607.6729, 710.0593
608.1550, 706.3890
608.6371, 695.5078
609.1193, 686.6342
609.6014, 684.7164
610.0835, 684.6552
610.5656, 684.1180
611.0477, 682.7516
611.5298, 682.5192
612.0120, 684.4014
612.4941, 686.5046
612.9762, 687.7668
613.4583, 688.4324
613.9404, 687.3323
614.4225, 684.2523
614.9047, 679.6707
615.3868, 673.0475
615.8689, 664.6665
616.3510, 659.2103
616.8331, 658.9481
617.3152, 661.1114
617.7974, 661.9111
618.2795, 661.5273
618.7616, 660.7184
619.2437, 659.2668
619.7258, 658.0234
620.2079, 658.5473
620.6901, 660.8414
621.1722, 660.5747
621.6543, 650.7765
622.1364, 641.7487
622.6185, 641.3208
623.1006, 657.6407
623.5828, 664.9630
624.0649, 659.6979
624.5470, 648.7266
625.0291, 639.6967
625.5112, 632.6683
625.9933, 627.4595
626.4755, 624.6092
626.9576, 622.8703
627.4397, 618.5885
627.9218, 612.3908
628.4039, 609.0604
628.8860, 614.0292
629.3682, 621.6194
629.8503, 623.6421
630.3324, 620.7165
630.8145, 617.6269
631.2966, 616.2968
631.7787, 616.4291
632.2609, 618.7944
632.7430, 625.0349
633.2251, 627.3112
633.7072, 620.7498
634.1893, 611.6204
634.6714, 604.7445
635.1536, 599.4620
635.6357, 598.1704
636.1178, 602.0640
636.5999, 608.9551
637.0820, 616.9359
637.5641, 626.2719
638.0463, 627.9429
638.5284, 614.9775
639.0105, 596.1141
639.4926, 589.6343
639.9747, 593.7548
640.4568, 598.2398
640.9390, 594.6576
641.4211, 590.0403
641.9032, 593.1756
642.3853, 604.6358
642.8674, 610.9876
643.3495, 600.7150
643.8317, 587.5616
644.3138, 581.4089
644.7959, 589.9842
645.2780, 592.4672
645.7601, 584.5872
646.2422, 574.3687
646.7244, 572.1014
647.2065, 579.8005
647.6886, 584.9410
648.1707, 584.7227
648.6528, 581.6909
649.1349, 581.3931
649.6171, 583.2896
650.0992, 583.5695
650.5813, 578.1753
651.0634, 571.6094
651.5455, 569.6284
652.0276, 571.6113
652.5098, 574.3303
652.9919, 578.1194
653.4740, 580.5129
653.9561, 579.4645
654.4382, 574.1458
654.9203, 569.2537
655.4025, 563.8397
655.8846, 560.2549
656.3667, 560.7015
656.8488, 567.4060
657.3309, 571.0836
657.8130, 570.3848
658.2952, 568.5122
658.7773, 570.8476
659.2594, 576.9076
659.7415, 580.5772
660.2236, 579.8469
660.7057, 576.6867
661.1879, 572.4645
661.6700, 567.9745
662.1521, 565.5016
662.6342, 567.4971
663.1163, 570.7029
663.5984, 574.8389
664.0806, 579.2285
664.5627, 579.1475
665.0448, 565.4827
665.5269, 554.4942
666.0090, 554.8097
666.4911, 568.9371
666.9733, 575.0779
667.4554, 570.5789
667.9375, 563.3525
668.4196, 558.9731
668.9017, 557.4489
669.3839, 560.3384
669.8660, 568.8969
670.3481, 576.5268
670.8302, 573.1816
671.3123, 563.2828
671.7944, 556.3020
672.2766, 555.4607
672.7587, 557.9292
673.2408, 564.3739
673.7229, 572.5003
674.2050, 577.9476
674.6871, 578.3147
675.1693, 577.0942
675.6514, 573.8488
676.1335, 569.4161
676.6156, 569.0580
677.0977, 576.0798
677.5798, 579.4982
678.0620, 572.0220
678.5441, 555.4122
679.0262, 547.5906
679.5083, 548.7404
679.9904, 554.6945
680.4725, 566.7971
680.9547, 580.0106
681.4368, 583.6938
681.9189, 575.5218
682.4010, 568.1203
682.8831, 572.4274
683.3652, 580.6419
683.8474, 584.7203
684.3295, 579.0856
684.8116, 575.2740
685.2937, 575.8469
685.7758, 578.7377
686.2579, 581.4495
686.7401, 583.9158
687.2222, 586.3537
687.7043, 588.7463
688.1864, 591.1594
688.6685, 594.0715
689.1506, 597.4017
689.6328, 599.7874
690.1149, 599.1728
690.5970, 598.2268
691.0791, 603.4644
691.5612, 613.0529
692.0433, 617.6073
692.5255, 604.8835
693.0076, 591.3904
693.4897, 588.3619
693.9718, 597.5279
694.4539, 606.2734
694.9360, 613.7016
695.4182, 619.4854
695.9003, 623.1999
696.3824, 624.1764
696.8645, 625.9504
697.3466, 629.0451
697.8287, 631.5640
698.3109, 630.1639
698.7930, 625.9416
699.2751, 625.6675
699.7572, 631.7799
700.2393, 637.3727
700.7214, 632.4931
701.2036, 622.7092
701.6857, 617.4036
702.1678, 625.9518
702.6499, 632.4948
703.1320, 625.7833
703.6141, 612.8399
704.0963, 611.9905
704.5784, 635.6226
705.0605, 653.3193
705.5426, 656.1821
706.0247, 648.3546
706.5068, 649.3640
706.9890, 660.4103
707.4711, 670.2294
707.9532, 671.5997
708.4353, 667.7514
708.9174, 666.1651
709.3995, 666.8342
709.8817, 669.9074
710.3638, 679.9814
710.8459, 689.5683
711.3280, 690.0900
711.8101, 679.2986
712.2922, 672.3324
712.7744, 675.0761
713.2565, 681.9491
713.7386, 689.4454
714.2207, 698.9877
714.7028, 705.2975
715.1849, 707.6978
715.6671, 708.1403
716.1492, 707.9781
716.6313, 707.4257
717.1134, 709.5870
717.5955, 715.7031
718.0776, 722.3032
718.5598, 723.6979
719.0419, 722.6121
719.5240, 724.3593
720.0061, 732.6768
720.4882, 742.0140
720.9703, 751.3788
721.4525, 759.8612
721.9346, 765.4720
722.4167, 768.4725
722.8988, 767.7542
723.3809, 761.3904
723.8630, 751.3104
724.3452, 744.9117
724.8273, 742.2358
725.3094, 743.0550
725.7915, 748.8083
726.2736, 757.4579
726.7557, 764.4579
727.2379, 769.7403
727.7200, 772.7742
728.2021, 769.8549
728.6842, 766.9213
729.1663, 769.5527
729.6484, 778.3599
730.1306, 786.9272
730.6127, 793.7051
731.0948, 799.4854
731.5769, 804.7442
732.0590, 809.5016
732.5411, 813.8019
733.0233, 817.5489
733.5054, 821.0540
733.9875, 823.8427
734.4696, 826.3246
734.9517, 832.3698
735.4338, 843.1617
735.9160, 853.1254
736.3981, 855.1941
736.8802, 853.2175
737.3623, 852.6569
737.8444, 854.3527
738.3266, 858.8693
738.8087, 869.8722
739.2908, 882.7184
739.7729, 890.3138
740.2551, 889.1143
740.7372, 888.6425
741.2193, 889.1741
741.7014, 891.6728
742.1835, 899.3659
742.6656, 912.2924
743.1478, 924.2697
743.6299, 934.4172
744.1120, 941.2904
744.5941, 939.8806
745.0762, 932.8505
745.5583, 928.4283
746.0405, 931.1271
746.5226, 937.1846
747.0047, 946.5908
747.4868, 958.3102
747.9689, 966.6212
748.4510, 968.2874
748.9332, 969.5410
749.4153, 970.8950
749.8974, 972.8965
750.3795, 983.9088
750.8616, 1005.252
751.3438, 1025.002
751.8259, 1034.234
752.3080, 1036.551
752.7901, 1039.741
753.2722, 1044.058
753.7543, 1050.472
754.2365, 1062.660
754.7186, 1075.126
755.2007, 1081.738
755.6828, 1079.950
756.1649, 1084.228
756.6470, 1104.485
757.1292, 1124.936
757.6113, 1134.544
758.0934, 1128.629
758.5755, 1133.787
759.0576, 1151.922
759.5397, 1175.003
760.0219, 1198.710
760.5040, 1220.785
760.9861, 1230.833
761.4682, 1224.797
761.9503, 1219.825
762.4324, 1229.047
762.9146, 1247.241
763.3967, 1268.437
763.8788, 1292.467
764.3609, 1317.354
764.8430, 1345.279
765.3251, 1372.275
765.8073, 1394.265
766.2894, 1410.923
766.7715, 1422.532
767.2536, 1426.633
767.7357, 1430.189
768.2178, 1445.461
768.7000, 1470.687
769.1821, 1498.222
769.6642, 1526.601
770.1463, 1555.110
770.6284, 1579.559
771.1105, 1604.163
771.5927, 1637.065
772.0748, 1696.538
772.5569, 1746.084
773.0390, 1767.692
773.5211, 1775.160
774.0032, 1804.116
774.4854, 1859.394
774.9675, 1918.563
775.4496, 1976.716
775.9317, 2032.908
776.4138, 2084.345
776.8959, 2131.153
777.3781, 2176.453
777.8602, 2219.112
778.3423, 2263.021
778.8244, 2317.060
779.3065, 2377.063
779.7886, 2425.519
780.2708, 2442.614
780.7529, 2462.708
781.2350, 2501.198
781.7171, 2554.946
782.1992, 2591.823
782.6813, 2606.323
783.1635, 2624.728
783.6456, 2666.994
784.1277, 2722.329
784.6098, 2754.107
785.0919, 2764.116
785.5740, 2771.640
786.0562, 2792.703
786.5383, 2814.195
787.0204, 2825.033
787.5025, 2824.614
787.9846, 2819.675
788.4667, 2812.216
788.9489, 2799.901
789.4310, 2779.774
789.9131, 2751.262
790.3952, 2727.989
790.8773, 2709.700
791.3594, 2698.724
791.8416, 2700.753
792.3237, 2711.104
792.8058, 2716.932
793.2879, 2717.724
793.7700, 2718.923
794.2521, 2716.889
794.7343, 2721.856
795.2164, 2742.315
795.6985, 2780.736
796.1806, 2830.336
796.6627, 2897.416
797.1448, 2967.267
797.6270, 3029.743
798.1091, 3083.737
798.5912, 3136.691
799.0733, 3187.417
799.5554, 3246.756
800.0375, 3327.962
800.5197, 3423.730
801.0018, 3518.785
801.4839, 3609.128
801.9660, 3711.663
802.4481, 3840.552
802.9302, 3983.702
803.4124, 4128.813
803.8945, 4259.774
804.3766, 4425.778
804.8587, 4619.948
805.3408, 4858.131
805.8229, 5160.579
806.3051, 5527.038
806.7872, 5915.629
807.2693, 6323.246
807.7514, 6759.220
808.2335, 7235.826
808.7156, 7751.710
809.1978, 8304.539
809.6799, 8893.133
810.1620, 9521.035
810.6441, 10194.32
811.1262, 10908.44
811.6083, 11650.37
812.0905, 12415.92
812.5726, 13229.68
813.0547, 14094.95
813.5368, 14986.88
814.0189, 15885.01
814.5010, 16784.48
814.9832, 17677.34
815.4653, 18573.91
815.9474, 19378.14
816.4295, 20095.58
816.9116, 20636.74
817.3937, 20898.18
817.8759, 20883.39
818.3580, 20520.81
818.8401, 19684.92
819.3222, 18565.14
819.8043, 17277.73
820.2864, 15772.54
820.7686, 14310.05
821.2507, 12908.03
821.7328, 11604.84
822.2149, 10475.74
822.6970, 9505.139
823.1791, 8638.081
823.6613, 7873.145
824.1434, 7204.245
824.6255, 6654.638
825.1076, 6193.870
825.5897, 5797.294
826.0718, 5490.725
826.5540, 5201.943
827.0361, 4924.713
827.5182, 4666.631
828.0003, 4430.717
828.4824, 4218.863
828.9645, 4037.743
829.4467, 3894.027
829.9288, 3762.715
830.4109, 3604.296
830.8930, 3443.469
831.3751, 3317.825
831.8572, 3246.860
832.3394, 3192.310
832.8215, 3148.130
833.3036, 3109.688
833.7857, 3071.361
834.2678, 3034.173
834.7499, 2994.887
835.2321, 2952.198
835.7142, 2910.563
836.1963, 2871.812
836.6784, 2838.219
837.1605, 2821.742
837.6426, 2827.651
838.1248, 2837.675
838.6069, 2845.215
839.0890, 2845.522
839.5711, 2832.012
840.0532, 2789.202
840.5353, 2758.634
841.0175, 2745.100
841.4996, 2741.854
841.9817, 2743.792
842.4638, 2751.150
842.9459, 2756.614
843.4280, 2758.493
843.9102, 2763.700
844.3923, 2780.430
844.8744, 2805.477
845.3565, 2833.851
845.8386, 2865.185
846.3207, 2897.963
846.8029, 2933.867
847.2850, 2969.442
847.7671, 3002.443
848.2492, 3035.585
848.7313, 3059.175
849.2134, 3073.279
849.6956, 3077.164
850.1777, 3066.392
850.6598, 3044.590
851.1419, 3027.140
851.6240, 3017.104
852.1061, 2997.407
852.5883, 2952.478
853.0704, 2893.256
853.5525, 2827.847
854.0346, 2755.816
854.5167, 2685.059
854.9988, 2618.713
855.4810, 2550.363
855.9631, 2468.979
856.4452, 2373.733
856.9273, 2307.104
857.4094, 2271.539
857.8915, 2246.905
858.3737, 2221.381
858.8558, 2193.994
859.3379, 2159.124
859.8200, 2115.044
860.3021, 2085.557
860.7842, 2098.417
861.2664, 2112.736
861.7485, 2102.845
862.2306, 2064.728
862.7127, 2043.846
863.1948, 2042.828
863.6769, 2046.741
864.1591, 2042.895
864.6412, 2036.527
865.1233, 2043.441
865.6054, 2062.836
866.0875, 2077.431
866.5696, 2073.896
867.0518, 2064.923
867.5339, 2056.604
868.0160, 2049.378
868.4981, 2048.619
868.9802, 2057.733
869.4623, 2065.993
869.9445, 2066.927
870.4266, 2062.935
870.9087, 2063.919
871.3908, 2070.023
871.8729, 2082.216
872.3550, 2109.431
872.8372, 2136.324
873.3193, 2147.616
873.8014, 2145.920
874.2835, 2147.094
874.7656, 2155.203
875.2477, 2166.170
875.7299, 2179.125
876.2120, 2194.154
876.6941, 2213.612
877.1762, 2237.412
877.6583, 2258.231
878.1404, 2271.428
878.6226, 2281.208
879.1047, 2292.663
879.5869, 2305.144
880.0690, 2317.246
880.5511, 2327.757
881.0332, 2338.518
881.5153, 2347.156
881.9974, 2357.262
882.4796, 2378.366
882.9617, 2412.987
883.4438, 2444.459
883.9259, 2468.405
884.4080, 2487.751
884.8901, 2505.375
885.3723, 2521.998
885.8544, 2538.824
886.3365, 2551.409
886.8186, 2572.020
887.3007, 2611.201
887.7828, 2659.401
888.2650, 2703.187
888.7471, 2740.361
889.2292, 2777.702
889.7113, 2816.934
890.1934, 2853.933
890.6755, 2879.496
891.1577, 2898.632
891.6398, 2928.945
892.1219, 2974.847
892.6040, 3024.725
893.0861, 3073.687
893.5682, 3120.324
894.0504, 3161.707
894.5325, 3189.439
895.0146, 3232.468
895.4967, 3292.221
895.9788, 3364.371
896.4609, 3447.150
896.9431, 3539.361
897.4252, 3629.096
897.9073, 3715.644
898.3894, 3812.703
898.8715, 3935.811
899.3536, 4072.320
899.8358, 4209.859
900.3179, 4344.408
900.8000, 4505.333
901.2821, 4693.594
901.7642, 4906.331
902.2463, 5142.192
902.7285, 5399.906
903.2106, 5697.313
903.6927, 6034.033
904.1748, 6422.288
904.6569, 6869.808
905.1390, 7377.561
905.6212, 7932.492
906.1033, 8540.563
906.5854, 9262.395
907.0675, 10166.79
907.5496, 11120.66
908.0317, 12073.32
908.5139, 13055.23
908.9960, 14185.38
909.4781, 15460.07
909.9602, 16824.96
910.4423, 18251.21
910.9244, 19747.94
911.4066, 21296.14
911.8887, 22916.01
912.3708, 24669.95
912.8529, 26598.15
913.3350, 28630.88
913.8171, 30766.32
914.2993, 32968.31
914.7814, 35209.27
915.2635, 37499.93
915.7456, 39724.78
916.2277, 41905.04
916.7098, 43859.56
917.1920, 45570.47
917.6741, 46825.74
918.1562, 47291.28
918.6383, 46853.13
919.1204, 45770.68
919.6025, 43893.23
920.0847, 41552.04
920.5668, 38886.06
921.0489, 35813.28
921.5310, 32900.98
922.0131, 30155.89
922.4952, 27600.21
922.9774, 25247.88
923.4595, 23109.09
923.9416, 21207.53
924.4237, 19548.53
924.9058, 18067.04
925.3879, 16744.03
925.8701, 15579.30
926.3522, 14550.60
926.8343, 13654.75
927.3164, 12903.97
927.7985, 12298.16
928.2806, 11801.93
928.7628, 11411.73
929.2449, 11116.99
929.7270, 10905.92
930.2091, 10774.85
930.6912, 10707.76
931.1733, 10712.06
931.6555, 10765.92
932.1376, 10867.42
932.6197, 11012.80
933.1018, 11199.23
933.5839, 11428.31
934.0660, 11702.00
934.5482, 12029.21
935.0303, 12382.13
935.5124, 12714.37
935.9945, 13056.75
936.4766, 13464.14
936.9587, 13977.86
937.4409, 14494.13
937.9230, 14974.86
938.4051, 15455.84
938.8872, 15971.19
939.3693, 16539.84
939.8514, 17061.01
940.3336, 17529.71
940.8157, 17952.22
941.2978, 18336.86
941.7799, 18679.89
942.2620, 18988.00
942.7441, 19257.95
943.2263, 19454.73
943.7084, 19553.97
944.1905, 19578.33
944.6726, 19553.25
945.1547, 19467.85
945.6368, 19243.44
946.1190, 18873.63
946.6011, 18438.11
947.0832, 17958.23
947.5653, 17446.33
948.0474, 16905.22
948.5295, 16339.75
949.0117, 15761.15
949.4938, 15158.39
949.9759, 14562.16
950.4580, 13979.07
950.9401, 13401.47
951.4222, 12817.51
951.9044, 12223.99
952.3865, 11671.58
952.8686, 11169.80
953.3507, 10703.73
953.8328, 10258.41
954.3149, 9838.923
954.7971, 9449.053
955.2792, 9097.567
955.7613, 8775.708
956.2434, 8488.521
956.7255, 8221.049
957.2076, 7963.627
957.6898, 7715.712
958.1719, 7491.035
958.6540, 7287.862
959.1361, 7109.253
959.6182, 6963.093
960.1003, 6835.315
960.5825, 6714.817
961.0646, 6600.360
961.5467, 6487.392
962.0288, 6362.125
962.5109, 6259.676
962.9930, 6194.277
963.4752, 6154.062
963.9573, 6110.937
964.4394, 6067.289
964.9215, 6036.813
965.4036, 6029.188
965.8857, 6025.652
966.3679, 6010.582
966.8500, 5990.724
967.3321, 5974.268
967.8142, 5952.663
968.2963, 5954.756
968.7784, 5987.860
969.2606, 6030.154
969.7427, 6059.894
970.2248, 6080.114
970.7069, 6099.649
971.1890, 6119.179
971.6711, 6144.892
972.1533, 6187.965
972.6354, 6232.387
973.1175, 6266.172
973.5996, 6289.153
974.0817, 6313.683
974.5638, 6340.261
975.0460, 6366.405
975.5281, 6390.619
976.0102, 6414.540
976.4923, 6446.917
976.9744, 6482.486
977.4565, 6505.783
977.9387, 6503.085
978.4208, 6495.132
978.9029, 6489.291
979.3850, 6482.100
979.8671, 6468.892
980.3492, 6449.563
980.8314, 6423.261
981.3135, 6388.021
981.7956, 6353.887
982.2777, 6342.593
982.7598, 6334.166
983.2419, 6292.134
983.7241, 6204.960
984.2062, 6138.096
984.6883, 6130.640
985.1704, 6128.260
985.6525, 6104.656
986.1346, 6063.110
986.6168, 6041.134
987.0989, 6038.111
987.5810, 6034.741
988.0631, 6012.309
988.5452, 5990.825
989.0273, 5990.455
989.5095, 6006.074
989.9916, 6025.049
990.4737, 6055.511
990.9558, 6069.598
991.4379, 6052.895
991.9200, 6034.248
992.4022, 6064.117
992.8843, 6132.484
993.3664, 6197.477
993.8485, 6250.240
994.3306, 6302.777
994.8127, 6360.207
995.2949, 6423.278
995.7770, 6491.296
996.2591, 6562.554
996.7412, 6650.129
997.2233, 6757.697
997.7054, 6865.214
998.1876, 6951.271
998.6697, 7032.016
999.1518, 7153.826
999.6339, 7306.397
1000.116, 7449.791
1000.598, 7564.807
1001.080, 7670.366
1001.562, 7769.345
1002.044, 7865.702
1002.527, 7967.464
1003.009, 8073.613
1003.491, 8192.698
1003.973, 8328.738
1004.455, 8458.279
1004.937, 8556.050
1005.419, 8629.229
1005.901, 8684.026
1006.384, 8719.689
1006.866, 8743.624
1007.348, 8755.294
1007.830, 8759.154
1008.312, 8760.426
1008.794, 8756.468
1009.276, 8728.640
1009.758, 8678.557
1010.240, 8619.330
1010.723, 8569.529
1011.205, 8502.223
1011.687, 8390.108
1012.169, 8247.762
1012.651, 8116.443
1013.133, 7999.870
1013.615, 7883.598
1014.097, 7765.865
1014.580, 7646.083
1015.062, 7535.508
1015.544, 7420.914
1016.026, 7263.187
1016.508, 7042.820
1016.990, 6859.578
1017.472, 6787.873
1017.954, 6734.161
1018.436, 6645.427
1018.919, 6524.027
1019.401, 6401.486
1019.883, 6277.773
1020.365, 6165.641
1020.847, 6073.824
1021.329, 5995.948
1021.811, 5935.845
1022.293, 5884.305
1022.776, 5816.970
1023.258, 5719.927
1023.740, 5620.351
1024.222, 5515.892
1024.704, 5417.751
1025.186, 5346.088
1025.668, 5294.280
1026.150, 5245.187
1026.632, 5196.932
1027.115, 5139.789
1027.597, 5053.346
1028.079, 4968.416
1028.561, 4906.139
1029.043, 4865.611
1029.525, 4830.738
1030.007, 4803.767
1030.489, 4767.947
1030.972, 4707.647
1031.454, 4643.399
1031.936, 4609.886
1032.418, 4592.892
1032.900, 4562.531
1033.382, 4489.765
1033.864, 4430.783
1034.346, 4396.472
1034.828, 4370.428
1035.311, 4332.947
1035.793, 4286.611
1036.275, 4252.567
1036.757, 4232.287
1037.239, 4212.383
1037.721, 4179.200
1038.203, 4146.452
1038.685, 4127.497
1039.167, 4120.409
1039.650, 4100.324
1040.132, 4062.730
1040.614, 4033.420
1041.096, 4025.304
1041.578, 4023.684
1042.060, 4003.244
1042.542, 3972.923
1043.024, 3950.384
1043.507, 3952.379
1043.989, 3938.862
1044.471, 3890.751
1044.953, 3838.768
1045.435, 3808.702
1045.917, 3798.423
1046.399, 3777.660
1046.881, 3746.268
1047.364, 3711.733
1047.846, 3677.016
1048.328, 3642.826
1048.810, 3607.165
1049.292, 3572.374
1049.774, 3547.278
1050.256, 3534.753
1050.738, 3522.019
1051.220, 3506.681
1051.703, 3489.818
1052.185, 3474.226
1052.667, 3458.220
1053.149, 3438.111
1053.631, 3411.685
1054.113, 3388.495
1054.595, 3377.689
1055.077, 3362.827
1055.559, 3332.477
1056.042, 3290.304
1056.524, 3259.566
1057.006, 3239.588
1057.488, 3224.837
1057.970, 3215.194
1058.452, 3206.851
1058.934, 3196.920
1059.416, 3186.708
1059.899, 3178.797
1060.381, 3173.674
1060.863, 3170.824
1061.345, 3172.196
1061.827, 3167.193
1062.309, 3134.557
1062.791, 3093.476
1063.273, 3075.585
1063.755, 3082.857
1064.238, 3087.710
1064.720, 3078.896
1065.202, 3071.771
1065.684, 3073.090
1066.166, 3077.498
1066.648, 3066.909
1067.130, 3045.021
1067.612, 3028.402
1068.094, 3023.872
1068.577, 3022.089
1069.059, 3020.921
1069.541, 3017.260
1070.023, 3006.931
1070.505, 2987.379
1070.987, 2977.071
1071.469, 2976.690
1071.951, 2977.527
1072.434, 2971.949
1072.916, 2965.394
1073.398, 2965.904
1073.880, 2971.141
1074.362, 2972.818
1074.844, 2972.209
1075.326, 2961.870
1075.808, 2937.336
1076.291, 2908.757
1076.773, 2891.151
1077.255, 2880.888
1077.737, 2866.021
1078.219, 2844.442
1078.701, 2830.539
1079.183, 2837.165
1079.665, 2848.557
1080.147, 2859.106
1080.630, 2867.462
1081.112, 2865.265
1081.594, 2852.705
1082.076, 2834.466
1082.558, 2806.978
1083.040, 2784.733
1083.522, 2789.541
1084.004, 2803.521
1084.486, 2801.580
1084.969, 2773.933
1085.451, 2750.767
1085.933, 2732.125
1086.415, 2718.536
1086.897, 2713.937
1087.379, 2712.971
1087.861, 2704.577
1088.343, 2690.822
1088.826, 2681.211
1089.308, 2686.448
1089.790, 2685.642
1090.272, 2670.508
1090.754, 2653.345
1091.236, 2659.528
1091.718, 2681.859
1092.200, 2683.952
1092.682, 2658.982
1093.165, 2634.970
1093.647, 2635.439
1094.129, 2636.965
1094.611, 2623.219
1095.093, 2596.664
1095.575, 2574.171
1096.057, 2555.735
1096.539, 2542.027
1097.022, 2535.854
1097.504, 2530.022
1097.986, 2516.429
1098.468, 2498.883
1098.950, 2482.685
1099.432, 2468.623
1099.914, 2456.439
1100.396, 2447.884
1100.879, 2436.277
1101.361, 2413.819
1101.843, 2386.453
1102.325, 2362.976
1102.807, 2344.135
1103.289, 2332.602
1103.771, 2339.706
1104.253, 2339.846
1104.735, 2327.635
1105.218, 2308.271
1105.700, 2287.694
1106.182, 2266.161
1106.664, 2244.748
1107.146, 2223.264
1107.628, 2206.541
1108.110, 2201.284
1108.592, 2197.579
1109.074, 2188.766
1109.557, 2176.905
1110.039, 2173.312
1110.521, 2178.156
1111.003, 2173.288
1111.485, 2149.221
1111.967, 2126.872
1112.449, 2135.431
1112.931, 2151.414
1113.414, 2146.457
1113.896, 2111.696
1114.378, 2088.651
1114.860, 2078.344
1115.342, 2075.686
1115.824, 2084.546
1116.306, 2093.620
1116.788, 2080.882
1117.271, 2054.743
1117.753, 2033.750
1118.235, 2028.911
1118.717, 2021.302
1119.199, 2006.616
1119.681, 1994.569
1120.163, 1997.931
1120.645, 2011.200
1121.127, 2018.682
1121.609, 2019.947
1122.092, 2018.546
1122.574, 2011.767
1123.056, 2008.317
1123.538, 2013.188
1124.020, 2021.175
1124.502, 2020.474
1124.984, 2012.435
1125.466, 2009.035
1125.949, 2012.911
1126.431, 2017.593
1126.913, 2021.182
1127.395, 2021.590
1127.877, 2014.255
1128.359, 2001.155
1128.841, 2000.732
1129.323, 2014.028
1129.806, 2020.550
1130.288, 2010.171
1130.770, 1995.866
1131.252, 1991.088
1131.734, 1990.169
1132.216, 1984.767
1132.698, 1970.084
1133.180, 1966.300
1133.662, 1975.734
1134.145, 1986.427
1134.627, 1991.366
1135.109, 1992.548
1135.591, 1993.603
1136.073, 1993.421
1136.555, 1989.166
1137.037, 1971.337
1137.519, 1963.243
1138.001, 1968.727
1138.484, 1978.866
1138.966, 1985.567
1139.448, 1989.429
1139.930, 1989.481
1140.412, 1986.719
1140.894, 1989.427
1141.376, 2010.095
1141.858, 2024.770
1142.341, 2025.355
1142.823, 2018.953
1143.305, 2018.798
1143.787, 2023.326
1144.269, 2024.929
1144.751, 2021.979
1145.233, 2020.157
1145.715, 2025.951
1146.198, 2030.350
1146.680, 2027.732
1147.162, 2019.838
1147.644, 2015.748
1148.126, 2014.967
1148.608, 2010.900
1149.090, 2000.367
1149.572, 1988.690
1150.054, 1981.617
1150.536, 1974.057
1151.019, 1960.760
1151.501, 1941.389
1151.983, 1919.654
1152.465, 1895.165
1152.947, 1875.759
1153.429, 1871.460
1153.911, 1867.613
1154.393, 1849.466
1154.876, 1822.438
1155.358, 1795.141
1155.840, 1766.733
1156.322, 1744.102
1156.804, 1728.001
1157.286, 1714.240
1157.768, 1700.060
1158.250, 1685.849
1158.733, 1673.097
1159.215, 1660.928
1159.697, 1645.563
1160.179, 1626.592
1160.661, 1602.741
1161.143, 1570.615
1161.625, 1542.706
1162.107, 1538.744
1162.589, 1545.967
1163.072, 1543.032
1163.554, 1528.698
1164.036, 1513.437
1164.518, 1498.848
1165.000, 1485.382
1165.482, 1473.223
1165.964, 1462.126
1166.446, 1453.410
1166.928, 1445.193
1167.411, 1431.259
1167.893, 1408.763
1168.375, 1393.299
1168.857, 1396.664
1169.339, 1399.568
1169.821, 1395.051
1170.303, 1384.806
1170.785, 1370.924
1171.268, 1355.377
1171.750, 1344.764
1172.232, 1343.568
1172.714, 1341.502
1173.196, 1331.784
1173.678, 1322.828
1174.160, 1322.365
1174.642, 1327.545
1175.125, 1315.698
1175.607, 1290.305
1176.089, 1271.051
1176.571, 1268.432
1177.053, 1272.145
1177.535, 1284.099
1178.017, 1295.481
1178.499, 1298.454
1178.981, 1293.069
1179.464, 1279.389
1179.946, 1258.270
1180.428, 1242.922
1180.910, 1248.910
1181.392, 1254.940
1181.874, 1246.925
1182.356, 1233.013
1182.838, 1226.428
1183.320, 1227.478
1183.803, 1225.129
1184.285, 1218.464
1184.767, 1209.305
1185.249, 1194.011
1185.731, 1181.370
1186.213, 1179.201
1186.695, 1184.535
1187.177, 1189.978
1187.660, 1195.835
1188.142, 1197.202
1188.624, 1193.290
1189.106, 1184.738
1189.588, 1165.722
1190.070, 1147.598
1190.552, 1141.985
1191.034, 1146.977
1191.516, 1146.105
1191.999, 1138.799
1192.481, 1130.384
1192.963, 1121.662
1193.445, 1114.004
1193.927, 1109.345
1194.409, 1106.059
1194.891, 1101.532
1195.373, 1095.516
1195.855, 1097.774
1196.338, 1109.984
1196.820, 1115.838
1197.302, 1107.674
1197.784, 1093.278
1198.266, 1076.106
1198.748, 1060.412
1199.230, 1052.673
1199.712, 1055.057
1200.195, 1055.459
1200.677, 1053.923
1201.159, 1049.713
1201.641, 1038.493
1202.123, 1029.376
1202.605, 1037.470
1203.087, 1053.223
1203.569, 1060.970
1204.052, 1057.871
1204.534, 1049.860
1205.016, 1035.911
1205.498, 1022.837
1205.980, 1013.529
1206.462, 1008.933
1206.944, 1014.739
1207.426, 1025.291
1207.908, 1026.637
1208.391, 1013.207
1208.873, 1004.344
1209.355, 1001.510
1209.837, 999.2290
1210.319, 991.3037
1210.801, 982.6123
1211.283, 979.6056
1211.765, 980.8047
1212.247, 980.7337
1212.730, 979.3680
1213.212, 974.6697
1213.694, 965.4128
1214.176, 957.7734
1214.658, 960.3553
1215.140, 965.8091
1215.622, 964.3425
1216.104, 957.2877
1216.587, 956.2501
1217.069, 965.6582
1217.551, 966.6001
1218.033, 954.0567
1218.515, 940.8904
1218.997, 943.6526
1219.479, 952.1888
1219.961, 956.6372
1220.443, 955.7184
1220.926, 947.6052
1221.408, 929.2082
1221.890, 917.0412
1222.372, 915.7773
1222.854, 919.0539
1223.336, 921.5500
1223.818, 922.8585
1224.300, 922.9333
1224.782, 921.5774
1225.265, 916.0699
1225.747, 905.3934
1226.229, 894.8347
1226.711, 884.7109
1227.193, 878.9498
1227.675, 886.7684
1228.157, 899.0629
1228.639, 905.8270
1229.122, 905.8110
1229.604, 896.9435
1230.086, 876.9786
1230.568, 863.4241
1231.050, 865.6043
1231.532, 871.6140
1232.014, 866.9640
1232.496, 858.5771
1232.979, 856.0305
1233.461, 861.2045
1233.943, 859.7303
1234.425, 850.8981
1234.907, 842.6318
1235.389, 838.6838
1235.871, 836.8566
1236.353, 835.3593
1236.835, 834.3298
1237.318, 834.8374
1237.800, 837.9307
1238.282, 832.9922
1238.764, 819.5570
1239.246, 808.3807
1239.728, 805.2906
1240.210, 807.3069
1240.692, 816.7180
1241.175, 827.2524
1241.657, 830.1989
1242.139, 824.4489
1242.621, 817.6069
1243.103, 809.5823
1243.585, 801.8632
1244.067, 795.0363
1244.549, 788.9602
1245.031, 782.5892
1245.514, 777.4861
1245.996, 776.1411
1246.478, 779.0775
1246.960, 778.2513
1247.442, 773.7703
1247.924, 770.6737
1248.406, 773.0154
1248.888, 776.7902
1249.370, 781.5183
1249.853, 785.2839
1250.335, 785.5535
1250.817, 782.4092
1251.299, 776.9213
1251.781, 769.4508
1252.263, 764.1185
1252.745, 769.0590
1253.227, 769.9851
1253.710, 757.2448
1254.192, 739.7076
1254.674, 726.5172
1255.156, 717.9878
1255.638, 718.4114
1256.120, 727.2362
1256.602, 735.4033
1257.084, 738.2531
1257.567, 739.0964
1258.049, 739.2054
1258.531, 737.9740
1259.013, 733.0919
1259.495, 726.1588
1259.977, 723.6918
1260.459, 725.7763
1260.941, 727.5331
1261.423, 727.6376
1261.906, 725.7239
1262.388, 721.3796
1262.870, 715.6966
1263.352, 708.6898
1263.834, 702.0752
1264.316, 701.5356
1264.798, 706.8508
1265.280, 708.8369
1265.762, 700.9082
1266.245, 695.6562
1266.727, 695.4370
1267.209, 698.3322
1267.691, 704.9146
1268.173, 711.2622
1268.655, 709.6647
1269.137, 699.9895
1269.619, 691.7480
1270.102, 685.1189
1270.584, 682.7336
1271.066, 686.0627
1271.548, 690.7422
1272.030, 693.5456
1272.512, 693.0194
1272.994, 683.9786
1273.476, 667.6046
1273.958, 663.1317
1274.441, 674.0749
1274.923, 681.4848
1275.405, 680.6856
1275.887, 677.6151
1276.369, 677.5819
1276.851, 678.9467
1277.333, 680.9982
1277.815, 683.1788
1278.297, 683.1427
1278.780, 680.9239
1279.262, 674.5886
1279.744, 662.6387
1280.226, 653.4999
1280.708, 658.9540
1281.190, 665.0561
1281.672, 659.0859
1282.154, 645.8963
1282.637, 644.9294
1283.119, 654.6782
1283.601, 660.8552
1284.083, 660.3083
1284.565, 657.2667
1285.047, 650.6277
1285.529, 646.5532
1286.011, 649.4059
1286.494, 655.6245
1286.976, 654.3041
1287.458, 647.6649
1287.940, 643.7803
1288.422, 644.9175
1288.904, 643.4657
1289.386, 631.6389
1289.868, 623.7996
1290.350, 625.8980
1290.833, 632.9193
1291.315, 634.2349
1291.797, 633.1710
1292.279, 637.9761
1292.761, 651.6458
1293.243, 656.2897
1293.725, 646.1216
1294.207, 638.2023
1294.689, 638.6866
1295.172, 642.5569
1295.654, 644.1408
1296.136, 643.6868
1296.618, 640.8223
1297.100, 635.1717
1297.582, 631.7321
1298.064, 630.5327
1298.546, 631.3878
1299.029, 634.7310
1299.511, 638.5284
1299.993, 642.1715
1300.475, 644.0625
1300.957, 640.6115
1301.439, 633.3057
1301.921, 633.4667
1302.403, 640.6736
1302.885, 641.4315
1303.368, 629.9205
1303.850, 620.5364
1304.332, 626.8697
1304.814, 635.2316
1305.296, 637.1689
1305.778, 634.2742
1306.260, 630.9379
1306.742, 627.7582
1307.224, 627.6179
1307.707, 631.9948
1308.189, 635.0181
1308.671, 632.4518
1309.153, 630.5981
1309.635, 632.0335
1310.117, 635.0861
1310.599, 636.3038
1311.081, 636.4097
1311.564, 636.5287
1312.046, 636.6891
1312.528, 639.4594
1313.010, 648.2980
1313.492, 648.7371
1313.974, 632.2750
1314.456, 614.2270
1314.938, 618.6524
##END=



