##NAMES=Pyrophyllite
##RRUFFID=R050051
##IDEAL CHEMISTRY=Al_2_Si_4_O_10_(OH)_2_
##LOCALITY=Cottonstone Mountain, Mecklenburg County, North Carolina, USA
##OWNER=RRUFF
##SOURCE=University of Arizona Mineral Museum
##DESCRIPTION=Radiating lamellar aggregates
##STATUS=The identification of this mineral has been confirmed by X-ray diffraction and chemical analysis
##URL=rruff.info/R050051
##MEASURED CHEMISTRY=(Al_.991_Fe_.008_Mg_.001_)_2_Si_4_O_10_(OH)_2_
168.9465, 41871.25
169.4286, 42127.88
169.9107, 42314.89
170.3929, 42450.60
170.8750, 42578.39
171.3571, 42735.35
171.8392, 42887.55
172.3213, 42990.81
172.8034, 43027.63
173.2856, 43051.56
173.7677, 43118.08
174.2498, 43215.45
174.7319, 43302.14
175.2140, 43341.65
175.6961, 43357.44
176.1783, 43387.23
176.6604, 43444.04
177.1425, 43505.04
177.6246, 43532.93
178.1067, 43533.46
178.5888, 43545.91
179.0710, 43611.61
179.5531, 43709.77
180.0352, 43791.77
180.5173, 43835.64
180.9994, 43867.77
181.4815, 43923.46
181.9637, 44003.29
182.4458, 44110.00
182.9279, 44273.60
183.4100, 44474.18
183.8921, 44635.83
184.3742, 44708.66
184.8564, 44741.36
185.3385, 44848.89
185.8206, 45035.73
186.3027, 45254.03
186.7848, 45461.10
187.2669, 45658.67
187.7491, 45866.96
188.2312, 46100.97
188.7133, 46350.52
189.1954, 46581.78
189.6775, 46791.37
190.1596, 46991.30
190.6418, 47183.07
191.1239, 47367.26
191.6060, 47592.84
192.0881, 47907.52
192.5702, 48296.75
193.0524, 48653.07
193.5345, 48994.29
194.0166, 49255.29
194.4987, 49319.43
194.9808, 49180.36
195.4629, 48938.73
195.9451, 48595.59
196.4272, 48150.05
196.9093, 47803.27
197.3914, 47578.84
197.8735, 47425.96
198.3556, 47242.98
198.8378, 47020.91
199.3199, 46829.00
199.8020, 46708.41
200.2841, 46662.98
200.7662, 46649.34
201.2483, 46670.70
201.7305, 46717.39
202.2126, 46764.54
202.6947, 46809.06
203.1768, 46865.54
203.6589, 46954.25
204.1410, 47083.79
204.6232, 47175.34
205.1053, 47210.06
205.5874, 47207.47
206.0695, 47229.14
206.5516, 47274.59
207.0337, 47345.60
207.5159, 47454.04
207.9980, 47610.03
208.4801, 47744.40
208.9622, 47842.52
209.4443, 47912.60
209.9264, 47992.80
210.4086, 48081.46
210.8907, 48184.12
211.3728, 48312.70
211.8549, 48485.62
212.3370, 48624.58
212.8191, 48715.36
213.3013, 48761.28
213.7834, 48794.41
214.2655, 48810.46
214.7476, 48820.72
215.2297, 48840.60
215.7118, 48886.47
216.1940, 48894.00
216.6761, 48835.86
217.1582, 48716.59
217.6403, 48644.28
218.1224, 48628.55
218.6045, 48647.82
219.0867, 48687.09
219.5688, 48758.14
220.0509, 48821.38
220.5330, 48870.87
221.0151, 48907.52
221.4972, 48914.40
221.9794, 48870.14
222.4615, 48820.01
222.9436, 48813.21
223.4257, 48864.59
223.9078, 48930.74
224.3899, 49008.64
224.8721, 49102.38
225.3542, 49165.85
225.8363, 49186.05
226.3184, 49188.86
226.8005, 49201.16
227.2827, 49211.44
227.7648, 49254.79
228.2469, 49353.03
228.7290, 49518.32
229.2111, 49639.40
229.6932, 49697.35
230.1754, 49725.02
230.6575, 49766.48
231.1396, 49832.42
231.6217, 49892.50
232.1038, 49935.82
232.5859, 49957.47
233.0681, 49988.76
233.5502, 50030.42
234.0323, 50080.96
234.5144, 50139.04
234.9965, 50204.32
235.4786, 50277.53
235.9608, 50363.35
236.4429, 50467.40
236.9250, 50552.96
237.4071, 50615.27
237.8892, 50661.34
238.3713, 50701.43
238.8535, 50733.48
239.3356, 50762.79
239.8177, 50788.42
240.2998, 50805.50
240.7819, 50837.43
241.2640, 50883.10
241.7462, 50944.74
242.2283, 51029.20
242.7104, 51151.66
243.1925, 51271.87
243.6746, 51373.91
244.1567, 51448.27
244.6389, 51537.37
245.1210, 51637.69
245.6031, 51754.34
246.0852, 51901.35
246.5673, 52105.64
247.0494, 52294.00
247.5316, 52431.80
248.0137, 52490.67
248.4958, 52598.48
248.9779, 52775.92
249.4600, 52990.31
249.9421, 53173.56
250.4243, 53303.02
250.9064, 53443.86
251.3885, 53616.99
251.8706, 53822.06
252.3527, 54065.84
252.8348, 54354.39
253.3170, 54676.92
253.7991, 55011.86
254.2812, 55350.93
254.7633, 55711.45
255.2454, 56105.23
255.7275, 56538.95
256.2097, 56962.30
256.6918, 57344.11
257.1739, 57732.03
257.6560, 58215.71
258.1381, 58798.37
258.6202, 59474.74
259.1024, 60278.15
259.5845, 61250.84
260.0666, 62188.44
260.5487, 63257.05
261.0308, 64160.69
261.5129, 64369.31
261.9951, 63760.24
262.4772, 62739.02
262.9593, 61356.75
263.4414, 59454.14
263.9235, 57892.44
264.4056, 56680.40
264.8878, 55785.41
265.3699, 55151.23
265.8520, 54826.38
266.3341, 54608.97
266.8162, 54427.42
267.2983, 54282.73
267.7805, 54178.89
268.2626, 54121.16
268.7447, 54099.73
269.2268, 54107.66
269.7089, 54157.22
270.1910, 54191.89
270.6732, 54182.31
271.1553, 54121.81
271.6374, 54077.71
272.1195, 54042.28
272.6016, 54034.63
273.0837, 54107.23
273.5659, 54282.78
274.0480, 54423.56
274.5301, 54455.64
275.0122, 54373.04
275.4943, 54358.95
275.9764, 54432.26
276.4586, 54538.55
276.9407, 54592.52
277.4228, 54587.11
277.9049, 54585.86
278.3870, 54620.37
278.8691, 54688.08
279.3513, 54725.30
279.8334, 54723.93
280.3155, 54712.84
280.7976, 54725.10
281.2798, 54760.43
281.7619, 54824.46
282.2440, 54944.91
282.7261, 55106.78
283.2082, 55176.92
283.6903, 55134.97
284.1725, 55076.23
284.6546, 55148.55
285.1367, 55344.58
285.6188, 55482.81
286.1009, 55456.33
286.5830, 55315.87
287.0652, 55291.25
287.5473, 55395.15
288.0294, 55540.27
288.5115, 55638.44
288.9936, 55693.54
289.4757, 55735.12
289.9579, 55778.25
290.4400, 55814.05
290.9221, 55805.02
291.4042, 55746.98
291.8863, 55696.44
292.3684, 55716.54
292.8506, 55795.36
293.3327, 55883.50
293.8148, 55984.25
294.2969, 56074.48
294.7790, 56090.09
295.2611, 56030.95
295.7433, 55981.22
296.2254, 56030.66
296.7075, 56149.86
297.1896, 56253.94
297.6717, 56316.70
298.1538, 56355.82
298.6360, 56392.65
299.1181, 56427.75
299.6002, 56463.43
300.0823, 56501.05
300.5644, 56540.94
301.0465, 56584.00
301.5287, 56630.48
302.0108, 56680.14
302.4929, 56738.90
302.9750, 56803.91
303.4571, 56855.66
303.9392, 56868.97
304.4214, 56865.13
304.9035, 56873.98
305.3856, 56907.34
305.8677, 56947.27
306.3498, 56971.16
306.8319, 56985.91
307.3141, 57016.67
307.7962, 57088.57
308.2783, 57178.36
308.7604, 57263.82
309.2425, 57335.48
309.7246, 57409.55
310.2068, 57517.30
310.6889, 57638.42
311.1710, 57721.73
311.6531, 57703.43
312.1352, 57661.86
312.6173, 57656.45
313.0995, 57706.43
313.5816, 57764.51
314.0637, 57809.57
314.5458, 57847.55
315.0279, 57890.00
315.5100, 57947.40
315.9922, 58005.86
316.4743, 58059.36
316.9564, 58108.11
317.4385, 58148.01
317.9206, 58167.34
318.4027, 58179.33
318.8849, 58202.47
319.3670, 58245.44
319.8491, 58297.14
320.3312, 58361.61
320.8133, 58445.63
321.2954, 58502.85
321.7776, 58492.68
322.2597, 58463.90
322.7418, 58468.49
323.2239, 58546.04
323.7060, 58625.57
324.1881, 58696.00
324.6703, 58757.66
325.1524, 58799.46
325.6345, 58779.82
326.1166, 58761.16
326.5987, 58794.31
327.0808, 58963.54
327.5630, 59084.82
328.0451, 59102.50
328.5272, 59024.66
329.0093, 59031.67
329.4914, 59198.03
329.9735, 59381.24
330.4557, 59484.98
330.9378, 59448.66
331.4199, 59438.92
331.9020, 59477.70
332.3841, 59554.50
332.8662, 59619.23
333.3484, 59670.38
333.8305, 59710.76
334.3126, 59737.46
334.7947, 59738.15
335.2768, 59761.53
335.7589, 59808.79
336.2411, 59880.68
336.7232, 59994.14
337.2053, 60172.23
337.6874, 60321.92
338.1695, 60385.35
338.6516, 60348.16
339.1338, 60348.91
339.6159, 60399.50
340.0980, 60473.28
340.5801, 60524.40
341.0622, 60551.39
341.5443, 60574.41
342.0265, 60591.48
342.5086, 60606.72
342.9907, 60672.82
343.4728, 60800.49
343.9549, 60934.89
344.4370, 60993.07
344.9192, 60983.84
345.4013, 60994.80
345.8834, 61065.81
346.3655, 61176.21
346.8476, 61267.87
347.3297, 61339.75
347.8119, 61412.85
348.2940, 61523.05
348.7761, 61652.11
349.2582, 61739.29
349.7403, 61743.97
350.2225, 61725.31
350.7046, 61768.91
351.1867, 61869.86
351.6688, 61987.30
352.1509, 62117.66
352.6331, 62239.33
353.1152, 62313.21
353.5973, 62309.19
354.0794, 62295.93
354.5615, 62346.45
355.0436, 62440.71
355.5258, 62517.73
356.0079, 62514.96
356.4900, 62496.39
356.9721, 62520.60
357.4542, 62605.62
357.9363, 62702.84
358.4185, 62809.10
358.9006, 62906.63
359.3827, 62964.65
359.8648, 62915.31
360.3469, 62867.63
360.8290, 62894.49
361.3112, 63016.86
361.7933, 63104.31
362.2754, 63083.41
362.7575, 63018.89
363.2396, 62980.95
363.7217, 62982.20
364.2039, 63015.24
364.6860, 63097.55
365.1681, 63229.75
365.6502, 63328.17
366.1323, 63380.09
366.6144, 63398.22
367.0966, 63390.50
367.5787, 63297.02
368.0608, 63252.69
368.5429, 63295.41
369.0250, 63403.50
369.5071, 63464.61
369.9893, 63458.05
370.4714, 63428.68
370.9535, 63394.50
371.4356, 63346.02
371.9177, 63313.55
372.3998, 63291.45
372.8820, 63288.76
373.3641, 63337.00
373.8462, 63465.33
374.3283, 63568.13
374.8104, 63587.69
375.2925, 63512.96
375.7747, 63494.79
376.2568, 63550.16
376.7389, 63628.09
377.2210, 63644.41
377.7031, 63592.00
378.1852, 63584.84
378.6674, 63685.45
379.1495, 63857.74
379.6316, 63938.38
380.1137, 63918.48
380.5958, 63881.20
381.0779, 63907.47
381.5601, 63985.39
382.0422, 64056.36
382.5243, 64114.64
383.0064, 64151.95
383.4885, 64141.33
383.9706, 64089.05
384.4528, 64041.95
384.9349, 64023.92
385.4170, 64033.66
385.8991, 64076.98
386.3812, 64167.02
386.8633, 64251.81
387.3455, 64257.20
387.8276, 64218.94
388.3097, 64219.25
388.7918, 64351.04
389.2739, 64505.15
389.7560, 64591.26
390.2382, 64598.47
390.7203, 64585.48
391.2024, 64553.88
391.6845, 64529.59
392.1666, 64542.36
392.6487, 64646.61
393.1309, 64748.31
393.6130, 64809.55
394.0951, 64832.44
394.5772, 64845.60
395.0593, 64834.93
395.5414, 64830.38
396.0236, 64850.91
396.5057, 64928.48
396.9878, 64996.55
397.4699, 65064.02
397.9520, 65119.29
398.4341, 65123.69
398.9163, 64993.89
399.3984, 64900.05
399.8805, 64916.28
400.3626, 65100.83
400.8447, 65219.69
401.3268, 65242.25
401.8090, 65221.59
402.2911, 65233.43
402.7732, 65289.03
403.2553, 65347.80
403.7374, 65401.72
404.2195, 65450.50
404.7017, 65487.28
405.1838, 65509.63
405.6659, 65526.79
406.1480, 65542.45
406.6301, 65556.35
407.1122, 65587.85
407.5944, 65646.48
408.0765, 65718.64
408.5586, 65766.92
409.0407, 65792.05
409.5228, 65821.65
410.0049, 65875.62
410.4871, 65947.81
410.9692, 66030.55
411.4513, 66130.78
411.9334, 66210.83
412.4155, 66186.71
412.8976, 66101.69
413.3798, 66080.18
413.8619, 66261.05
414.3440, 66485.73
414.8261, 66579.93
415.3082, 66540.28
415.7903, 66478.84
416.2725, 66443.08
416.7546, 66435.79
417.2367, 66460.84
417.7188, 66546.01
418.2009, 66634.19
418.6830, 66710.03
419.1652, 66770.33
419.6473, 66800.23
420.1294, 66743.05
420.6115, 66692.74
421.0937, 66704.95
421.5758, 66820.41
422.0579, 66926.10
422.5400, 67013.07
423.0221, 67080.70
423.5042, 67128.94
423.9864, 67117.63
424.4685, 67132.31
424.9506, 67211.53
425.4327, 67364.35
425.9148, 67442.63
426.3969, 67387.77
426.8791, 67325.10
427.3612, 67380.75
427.8433, 67614.84
428.3254, 67770.41
428.8075, 67779.29
429.2896, 67697.66
429.7718, 67726.69
430.2539, 67884.49
430.7360, 68055.29
431.2181, 68179.79
431.7002, 68258.54
432.1823, 68288.50
432.6645, 68257.92
433.1466, 68217.23
433.6287, 68250.31
434.1108, 68341.05
434.5929, 68408.99
435.0750, 68409.21
435.5572, 68370.39
436.0393, 68328.05
436.5214, 68283.67
437.0035, 68268.16
437.4856, 68332.33
437.9677, 68432.72
438.4499, 68505.27
438.9320, 68514.42
439.4141, 68524.95
439.8962, 68594.27
440.3783, 68701.73
440.8604, 68796.18
441.3426, 68837.56
441.8247, 68871.52
442.3068, 68933.16
442.7889, 69039.69
443.2710, 69108.66
443.7531, 69098.35
444.2353, 69046.87
444.7174, 68996.12
445.1995, 68924.64
445.6816, 68884.77
446.1637, 68885.72
446.6458, 68926.13
447.1280, 69000.96
447.6101, 69154.84
448.0922, 69294.22
448.5743, 69361.62
449.0564, 69324.95
449.5385, 69303.27
450.0207, 69303.95
450.5028, 69317.05
450.9849, 69308.41
451.4670, 69261.17
451.9491, 69281.64
452.4312, 69458.98
452.9134, 69757.80
453.3955, 69882.31
453.8776, 69813.13
454.3597, 69706.73
454.8418, 69731.55
455.3239, 69854.44
455.8061, 69931.40
456.2882, 69911.55
456.7703, 69861.60
457.2524, 69873.44
457.7345, 69937.81
458.2166, 70018.06
458.6988, 70091.66
459.1809, 70169.68
459.6630, 70269.17
460.1451, 70397.00
460.6272, 70515.30
461.1093, 70601.88
461.5915, 70664.16
462.0736, 70709.40
462.5557, 70710.05
463.0378, 70723.55
463.5199, 70780.96
464.0020, 70875.61
464.4842, 70958.13
464.9663, 71015.55
465.4484, 71059.47
465.9305, 71095.29
466.4126, 71116.48
466.8947, 71142.58
467.3769, 71177.11
467.8590, 71214.88
468.3411, 71248.53
468.8232, 71279.34
469.3053, 71303.54
469.7874, 71323.58
470.2696, 71338.43
470.7517, 71321.88
471.2338, 71262.97
471.7159, 71206.41
472.1980, 71186.48
472.6801, 71203.20
473.1623, 71258.53
473.6444, 71365.27
474.1265, 71486.52
474.6086, 71561.45
475.0907, 71593.61
475.5728, 71605.98
476.0550, 71593.34
476.5371, 71574.67
477.0192, 71589.38
477.5013, 71639.35
477.9834, 71681.07
478.4655, 71661.40
478.9477, 71619.40
479.4298, 71606.91
479.9119, 71653.16
480.3940, 71714.71
480.8761, 71780.13
481.3582, 71844.43
481.8404, 71892.38
482.3225, 71918.24
482.8046, 71927.20
483.2867, 71908.04
483.7688, 71832.80
484.2509, 71823.87
484.7331, 71968.48
485.2152, 72144.20
485.6973, 72236.22
486.1794, 72184.95
486.6615, 72151.56
487.1436, 72160.52
487.6258, 72204.47
488.1079, 72250.81
488.5900, 72300.99
489.0721, 72348.77
489.5542, 72395.34
490.0363, 72441.13
490.5185, 72459.68
491.0006, 72446.01
491.4827, 72418.82
491.9648, 72383.91
492.4470, 72349.34
492.9291, 72365.63
493.4112, 72481.04
493.8933, 72629.38
494.3754, 72695.84
494.8575, 72693.03
495.3397, 72696.27
495.8218, 72775.50
496.3039, 72877.39
496.7860, 72937.53
497.2681, 72935.85
497.7502, 72938.08
498.2324, 72986.86
498.7145, 73058.54
499.1966, 73121.95
499.6787, 73163.91
500.1608, 73199.63
500.6429, 73239.88
501.1251, 73282.91
501.6072, 73299.23
502.0893, 73236.72
502.5714, 73191.64
503.0535, 73211.53
503.5356, 73323.21
504.0178, 73440.24
504.4999, 73581.55
504.9820, 73709.62
505.4641, 73757.08
505.9462, 73706.10
506.4283, 73666.39
506.9105, 73668.94
507.3926, 73706.95
507.8747, 73761.91
508.3568, 73835.38
508.8389, 73900.01
509.3210, 73922.34
509.8032, 73921.05
510.2853, 73952.08
510.7674, 74027.80
511.2495, 74112.93
511.7316, 74173.61
512.2137, 74217.04
512.6959, 74257.04
513.1780, 74318.34
513.6601, 74362.94
514.1422, 74354.42
514.6243, 74300.34
515.1064, 74253.32
515.5886, 74204.45
516.0707, 74189.68
516.5528, 74240.31
517.0349, 74413.91
517.5170, 74541.13
517.9991, 74560.79
518.4813, 74542.28
518.9634, 74576.16
519.4455, 74711.99
519.9276, 74813.69
520.4097, 74842.61
520.8918, 74811.53
521.3740, 74804.63
521.8561, 74821.97
522.3382, 74863.31
522.8203, 74944.99
523.3024, 75062.12
523.7845, 75134.27
524.2667, 75149.19
524.7488, 75150.35
525.2309, 75206.75
525.7130, 75298.41
526.1951, 75350.68
526.6772, 75292.06
527.1594, 75225.91
527.6415, 75312.91
528.1236, 75514.02
528.6057, 75659.25
529.0878, 75603.05
529.5699, 75484.28
530.0521, 75398.77
530.5342, 75356.91
531.0163, 75354.37
531.4984, 75406.19
531.9805, 75489.38
532.4626, 75579.66
532.9448, 75705.27
533.4269, 75799.27
533.9090, 75841.39
534.3911, 75845.05
534.8732, 75859.88
535.3553, 75886.72
535.8375, 75924.00
536.3196, 75976.27
536.8017, 76045.87
537.2838, 76097.57
537.7659, 76134.65
538.2480, 76144.40
538.7302, 76071.68
539.2123, 75938.91
539.6944, 75919.41
540.1765, 76088.98
540.6586, 76317.45
541.1407, 76433.29
541.6229, 76455.27
542.1050, 76453.64
542.5871, 76432.32
543.0692, 76426.37
543.5513, 76484.40
544.0334, 76607.55
544.5156, 76710.77
544.9977, 76726.96
545.4798, 76722.52
545.9619, 76752.44
546.4440, 76885.02
546.9261, 76966.05
547.4083, 76904.12
547.8904, 76791.76
548.3725, 76804.73
548.8546, 77057.45
549.3367, 77245.11
549.8188, 77270.26
550.3010, 77150.73
550.7831, 77097.41
551.2652, 77121.76
551.7473, 77174.38
552.2294, 77229.02
552.7115, 77284.45
553.1937, 77319.95
553.6758, 77328.37
554.1579, 77339.86
554.6400, 77396.34
555.1221, 77487.01
555.6042, 77581.45
556.0864, 77689.71
556.5685, 77777.22
557.0506, 77767.47
557.5327, 77696.11
558.0148, 77696.69
558.4969, 77955.80
558.9791, 78215.77
559.4612, 78307.12
559.9433, 78183.78
560.4254, 78041.52
560.9075, 77829.96
561.3896, 77664.51
561.8718, 77647.18
562.3539, 77899.27
562.8360, 78093.16
563.3181, 78189.01
563.8002, 78218.28
564.2823, 78254.48
564.7645, 78298.55
565.2466, 78344.80
565.7287, 78397.82
566.2108, 78451.48
566.6929, 78469.63
567.1750, 78451.06
567.6572, 78420.88
568.1393, 78374.58
568.6214, 78336.24
569.1035, 78365.33
569.5856, 78483.98
570.0677, 78618.05
570.5499, 78717.41
571.0320, 78790.31
571.5141, 78850.75
571.9962, 78905.86
572.4783, 78947.48
572.9604, 78959.51
573.4426, 78950.06
573.9247, 78960.98
574.4068, 79002.57
574.8889, 79063.19
575.3710, 79143.85
575.8531, 79251.00
576.3353, 79341.92
576.8174, 79422.79
577.2995, 79476.99
577.7816, 79470.80
578.2637, 79394.05
578.7458, 79373.06
579.2280, 79439.30
579.7101, 79544.85
580.1922, 79606.30
580.6743, 79629.87
581.1564, 79650.66
581.6385, 79692.58
582.1207, 79736.90
582.6028, 79742.73
583.0849, 79717.98
583.5670, 79724.20
584.0491, 79827.01
584.5313, 79956.66
585.0134, 80059.25
585.4955, 80120.09
585.9776, 80174.40
586.4597, 80228.77
586.9418, 80281.67
587.4240, 80331.05
587.9061, 80379.80
588.3882, 80420.04
588.8703, 80442.84
589.3524, 80458.79
589.8345, 80508.57
590.3167, 80608.19
590.7988, 80679.65
591.2809, 80678.95
591.7630, 80620.30
592.2451, 80562.61
592.7272, 80504.45
593.2094, 80481.66
593.6915, 80536.84
594.1736, 80646.02
594.6557, 80780.05
595.1378, 80947.63
595.6199, 81071.06
596.1021, 81043.96
596.5842, 80947.76
597.0663, 80898.40
597.5485, 80960.62
598.0306, 81049.02
598.5127, 81156.62
598.9948, 81273.48
599.4769, 81359.02
599.9590, 81382.06
600.4412, 81410.48
600.9233, 81471.95
601.4054, 81570.79
601.8875, 81635.25
602.3696, 81653.80
602.8517, 81665.13
603.3339, 81706.56
603.8160, 81775.06
604.2981, 81824.04
604.7802, 81845.02
605.2623, 81855.73
605.7444, 81870.17
606.2266, 81891.98
606.7087, 81930.53
607.1908, 82001.76
607.6729, 82078.63
608.1550, 82149.88
608.6371, 82211.00
609.1193, 82249.84
609.6014, 82239.34
610.0835, 82223.91
610.5656, 82221.35
611.0477, 82232.39
611.5298, 82261.27
612.0120, 82320.06
612.4941, 82384.09
612.9762, 82438.23
613.4583, 82483.16
613.9404, 82512.88
614.4225, 82521.32
614.9047, 82524.34
615.3868, 82540.55
615.8689, 82570.48
616.3510, 82620.49
616.8331, 82699.41
617.3152, 82789.91
617.7974, 82878.23
618.2795, 82958.34
618.7616, 83011.86
619.2437, 82999.05
619.7258, 82977.56
620.2079, 82990.69
620.6901, 83040.72
621.1722, 83100.93
621.6543, 83188.63
622.1364, 83265.03
622.6185, 83303.84
623.1006, 83298.05
623.5828, 83261.81
624.0649, 83144.22
624.5470, 83042.88
625.0291, 83099.29
625.5112, 83352.86
625.9933, 83550.89
626.4755, 83637.27
626.9576, 83655.77
627.4397, 83695.52
627.9218, 83751.43
628.4039, 83784.50
628.8860, 83757.04
629.3682, 83705.27
629.8503, 83668.78
630.3324, 83649.06
630.8145, 83657.03
631.2966, 83699.87
631.7787, 83772.00
632.2609, 83887.77
632.7430, 84078.12
633.2251, 84195.59
633.7072, 84137.47
634.1893, 84038.99
634.6714, 84016.12
635.1536, 84122.84
635.6357, 84181.90
636.1178, 84160.61
636.5999, 84106.41
637.0820, 84114.03
637.5641, 84186.52
638.0463, 84243.95
638.5284, 84253.67
639.0105, 84238.72
639.4926, 84226.12
639.9747, 84222.87
640.4568, 84268.35
640.9390, 84459.30
641.4211, 84662.99
641.9032, 84739.28
642.3853, 84678.40
642.8674, 84624.30
643.3495, 84655.16
643.8317, 84698.91
644.3138, 84703.05
644.7959, 84623.81
645.2780, 84574.80
645.7601, 84535.83
646.2422, 84544.52
646.7244, 84680.91
647.2065, 84991.23
647.6886, 85172.43
648.1707, 85137.50
648.6528, 84993.09
649.1349, 84941.94
649.6171, 84975.68
650.0992, 85032.25
650.5813, 85102.58
651.0634, 85167.55
651.5455, 85190.02
652.0276, 85179.87
652.5098, 85189.42
652.9919, 85287.66
653.4740, 85382.50
653.9561, 85403.64
654.4382, 85326.53
654.9203, 85285.66
655.4025, 85307.55
655.8846, 85362.33
656.3667, 85437.63
656.8488, 85552.74
657.3309, 85629.30
657.8130, 85660.25
658.2952, 85661.09
658.7773, 85634.23
659.2594, 85585.02
659.7415, 85585.89
660.2236, 85675.47
660.7057, 85790.99
661.1879, 85844.91
661.6700, 85850.84
662.1521, 85845.78
662.6342, 85826.92
663.1163, 85820.74
663.5984, 85848.92
664.0806, 85908.15
664.5627, 85968.87
665.0448, 86052.41
665.5269, 86107.68
666.0090, 86096.12
666.4911, 85998.21
666.9733, 85991.20
667.4554, 86117.30
667.9375, 86250.55
668.4196, 86265.98
668.9017, 86169.19
669.3839, 86142.91
669.8660, 86211.97
670.3481, 86311.52
670.8302, 86387.99
671.3123, 86436.20
671.7944, 86437.78
672.2766, 86345.07
672.7587, 86272.76
673.2408, 86307.00
673.7229, 86413.76
674.2050, 86526.69
674.6871, 86666.64
675.1693, 86767.91
675.6514, 86798.63
676.1335, 86772.85
676.6156, 86755.59
677.0977, 86736.85
677.5798, 86750.46
678.0620, 86826.04
678.5441, 86954.48
679.0262, 87044.09
679.5083, 87095.37
679.9904, 87111.54
680.4725, 87060.73
680.9547, 86987.11
681.4368, 86972.05
681.9189, 87028.56
682.4010, 87109.58
682.8831, 87205.96
683.3652, 87299.58
683.8474, 87371.77
684.3295, 87424.72
684.8116, 87445.75
685.2937, 87384.43
685.7758, 87312.09
686.2579, 87331.03
686.7401, 87483.73
687.2222, 87609.30
687.7043, 87672.36
688.1864, 87697.27
688.6685, 87736.25
689.1506, 87789.35
689.6328, 87857.41
690.1149, 87947.63
690.5970, 88049.38
691.0791, 88140.02
691.5612, 88225.53
692.0433, 88332.77
692.5255, 88463.04
693.0076, 88632.61
693.4897, 88868.47
693.9718, 89179.39
694.4539, 89464.58
694.9360, 89725.23
695.4182, 89942.18
695.9003, 90094.43
696.3824, 90152.59
696.8645, 90264.85
697.3466, 90440.12
697.8287, 90646.14
698.3109, 90849.80
698.7930, 91053.86
699.2751, 91273.63
699.7572, 91509.66
700.2393, 91761.66
700.7214, 92043.59
701.2036, 92337.54
701.6857, 92613.89
702.1678, 92868.41
702.6499, 93096.16
703.1320, 93298.16
703.6141, 93471.77
704.0963, 93611.53
704.5784, 93726.80
705.0605, 93801.78
705.5426, 93845.23
706.0247, 93844.63
706.5068, 93733.89
706.9890, 93504.20
707.4711, 93235.39
707.9532, 92975.40
708.4353, 92705.76
708.9174, 92365.11
709.3995, 91960.87
709.8817, 91578.05
710.3638, 91278.85
710.8459, 91027.68
711.3280, 90802.43
711.8101, 90599.57
712.2922, 90411.69
712.7744, 90234.80
713.2565, 90072.48
713.7386, 89919.54
714.2207, 89753.29
714.7028, 89663.55
715.1849, 89677.33
715.6671, 89719.23
716.1492, 89706.84
716.6313, 89643.48
717.1134, 89563.70
717.5955, 89469.51
718.0776, 89375.02
718.5598, 89283.84
719.0419, 89207.90
719.5240, 89172.45
720.0061, 89241.30
720.4882, 89285.12
720.9703, 89196.70
721.4525, 89043.19
721.9346, 88977.65
722.4167, 89109.31
722.8988, 89213.19
723.3809, 89239.30
723.8630, 89207.55
724.3452, 89195.13
724.8273, 89202.98
725.3094, 89224.20
725.7915, 89268.55
726.2736, 89319.29
726.7557, 89331.04
727.2379, 89306.66
727.7200, 89268.84
728.2021, 89186.53
728.6842, 89129.51
729.1663, 89191.91
729.6484, 89386.09
730.1306, 89496.49
730.6127, 89356.11
731.0948, 89202.70
731.5769, 89175.59
732.0590, 89318.36
732.5411, 89402.34
733.0233, 89415.29
733.5054, 89396.95
733.9875, 89365.56
734.4696, 89328.20
734.9517, 89347.02
735.4338, 89436.05
735.9160, 89537.87
736.3981, 89622.20
736.8802, 89672.88
737.3623, 89656.87
737.8444, 89514.53
738.3266, 89403.48
738.8087, 89409.19
739.2908, 89472.81
739.7729, 89507.17
740.2551, 89477.36
740.7372, 89476.85
741.2193, 89529.01
741.7014, 89605.38
742.1835, 89641.94
742.6656, 89638.08
743.1478, 89637.67
743.6299, 89647.08
744.1120, 89677.33
744.5941, 89776.01
745.0762, 89914.45
745.5583, 90006.67
746.0405, 89975.06
746.5226, 89917.12
747.0047, 89862.92
747.4868, 89821.16
747.9689, 89836.61
748.4510, 89969.48
748.9332, 90089.04
749.4153, 90159.23
749.8974, 90180.88
750.3795, 90153.33
750.8616, 90067.49
751.3438, 90003.09
751.8259, 90030.99
752.3080, 90113.28
752.7901, 90153.99
753.2722, 90153.41
753.7543, 90164.36
754.2365, 90265.94
754.7186, 90363.34
755.2007, 90356.57
755.6828, 90205.40
756.1649, 90129.42
756.6470, 90235.04
757.1292, 90363.80
757.6113, 90411.32
758.0934, 90342.51
758.5755, 90364.77
759.0576, 90502.41
759.5397, 90650.79
760.0219, 90697.45
760.5040, 90665.52
760.9861, 90613.02
761.4682, 90539.61
761.9503, 90501.45
762.4324, 90589.59
762.9146, 90718.30
763.3967, 90781.32
763.8788, 90665.06
764.3609, 90626.39
764.8430, 90799.91
765.3251, 91018.94
765.8073, 91084.93
766.2894, 90951.35
766.7715, 90845.12
767.2536, 90795.27
767.7357, 90790.13
768.2178, 90811.14
768.7000, 90860.09
769.1821, 90953.83
769.6642, 91154.02
770.1463, 91310.32
770.6284, 91222.90
771.1105, 91007.37
771.5927, 90887.20
772.0748, 91043.01
772.5569, 91171.86
773.0390, 91185.07
773.5211, 91125.66
774.0032, 91095.29
774.4854, 91092.91
774.9675, 91127.09
775.4496, 91214.37
775.9317, 91327.64
776.4138, 91399.25
776.8959, 91433.73
777.3781, 91459.06
777.8602, 91504.13
778.3423, 91534.45
778.8244, 91498.67
779.3065, 91416.88
779.7886, 91374.42
780.2708, 91423.98
780.7529, 91490.59
781.2350, 91558.45
781.7171, 91624.73
782.1992, 91656.43
782.6813, 91642.73
783.1635, 91636.60
783.6456, 91674.37
784.1277, 91738.98
784.6098, 91776.23
785.0919, 91787.43
785.5740, 91787.96
786.0562, 91757.58
786.5383, 91742.85
787.0204, 91809.96
787.5025, 91961.21
787.9846, 92046.70
788.4667, 91947.20
788.9489, 91855.08
789.4310, 91861.54
789.9131, 91974.61
790.3952, 92028.67
790.8773, 92013.70
791.3594, 91984.39
791.8416, 91979.23
792.3237, 91991.34
792.8058, 92004.13
793.2879, 92016.83
793.7700, 92027.89
794.2521, 92017.04
794.7343, 92017.09
795.2164, 92060.33
795.6985, 92162.00
796.1806, 92256.45
796.6627, 92332.13
797.1448, 92404.38
797.6270, 92487.73
798.1091, 92587.95
798.5912, 92648.08
799.0733, 92663.66
799.5554, 92663.89
800.0375, 92667.45
800.5197, 92678.32
801.0018, 92709.98
801.4839, 92767.38
801.9660, 92817.30
802.4481, 92810.59
802.9302, 92805.59
803.4124, 92857.70
803.8945, 93024.16
804.3766, 93131.70
804.8587, 93144.42
805.3408, 93145.58
805.8229, 93216.04
806.3051, 93355.34
806.7872, 93498.14
807.2693, 93644.91
807.7514, 93760.20
808.2335, 93764.04
808.7156, 93729.27
809.1978, 93776.84
809.6799, 93959.88
810.1620, 94130.90
810.6441, 94248.11
811.1262, 94312.66
811.6083, 94319.47
812.0905, 94223.67
812.5726, 94179.40
813.0547, 94200.28
813.5368, 94252.94
814.0189, 94326.75
814.5010, 94407.29
814.9832, 94403.07
815.4653, 94291.58
815.9474, 94132.17
816.4295, 93925.30
816.9116, 93724.70
817.3937, 93599.39
817.8759, 93593.00
818.3580, 93612.73
818.8401, 93678.95
819.3222, 93737.57
819.8043, 93720.69
820.2864, 93593.60
820.7686, 93566.50
821.2507, 93682.72
821.7328, 93827.57
822.2149, 93849.26
822.6970, 93781.65
823.1791, 93698.48
823.6613, 93600.05
824.1434, 93545.60
824.6255, 93609.87
825.1076, 93724.31
825.5897, 93811.73
826.0718, 93836.69
826.5540, 93866.27
827.0361, 93906.44
827.5182, 93945.37
828.0003, 93966.05
828.4824, 93968.64
828.9645, 93977.45
829.4467, 93994.55
829.9288, 94024.59
830.4109, 94094.63
830.8930, 94174.09
831.3751, 94210.41
831.8572, 94161.66
832.3394, 94133.38
832.8215, 94187.01
833.3036, 94266.23
833.7857, 94304.21
834.2678, 94273.09
834.7499, 94286.57
835.2321, 94365.45
835.7142, 94457.30
836.1963, 94479.89
836.6784, 94457.62
837.1605, 94487.64
837.6426, 94599.52
838.1248, 94712.97
838.6069, 94777.20
839.0890, 94803.31
839.5711, 94799.63
840.0532, 94738.19
840.5353, 94701.44
841.0175, 94696.19
841.4996, 94714.55
841.9817, 94751.80
842.4638, 94808.64
842.9459, 94883.71
843.4280, 94988.82
843.9102, 95049.70
844.3923, 94923.16
844.8744, 94717.39
845.3565, 94621.43
845.8386, 94706.01
846.3207, 94772.22
846.8029, 94702.82
847.2850, 94603.77
847.7671, 94565.16
848.2492, 94593.68
848.7313, 94684.32
849.2134, 94869.94
849.6956, 95031.95
850.1777, 95026.29
850.6598, 94897.24
851.1419, 94783.24
851.6240, 94695.55
852.1061, 94675.66
852.5883, 94822.90
853.0704, 95010.18
853.5525, 95119.88
854.0346, 95108.50
854.5167, 95092.65
854.9988, 95079.05
855.4810, 95064.05
855.9631, 95043.25
856.4452, 95016.44
856.9273, 94986.20
857.4094, 94949.91
857.8915, 94947.55
858.3737, 95065.04
858.8558, 95211.62
859.3379, 95251.91
859.8200, 95160.94
860.3021, 95104.29
860.7842, 95188.96
861.2664, 95287.20
861.7485, 95317.52
862.2306, 95267.95
862.7127, 95281.25
863.1948, 95368.56
863.6769, 95470.15
864.1591, 95553.59
864.6412, 95617.95
865.1233, 95655.00
865.6054, 95667.47
866.0875, 95687.42
866.5696, 95769.27
867.0518, 95835.66
867.5339, 95825.88
868.0160, 95731.42
868.4981, 95662.64
868.9802, 95625.00
869.4623, 95601.25
869.9445, 95579.18
870.4266, 95564.95
870.9087, 95590.34
871.3908, 95653.78
871.8729, 95734.07
872.3550, 95864.55
872.8372, 95969.82
873.3193, 95948.13
873.8014, 95828.54
874.2835, 95780.43
874.7656, 95918.84
875.2477, 96041.88
875.7299, 96093.29
876.2120, 96092.62
876.6941, 96124.73
877.1762, 96189.43
877.6583, 96228.08
878.1404, 96187.05
878.6226, 96135.53
879.1047, 96190.67
879.5869, 96309.57
880.0690, 96383.02
880.5511, 96297.84
881.0332, 96244.87
881.5153, 96309.76
881.9974, 96432.98
882.4796, 96493.52
882.9617, 96480.38
883.4438, 96464.84
883.9259, 96460.23
884.4080, 96467.90
884.8901, 96494.89
885.3723, 96535.59
885.8544, 96578.78
886.3365, 96634.38
886.8186, 96668.30
887.3007, 96644.18
887.7828, 96597.81
888.2650, 96576.17
888.7471, 96573.34
889.2292, 96621.75
889.7113, 96743.63
890.1934, 96873.34
890.6755, 96920.20
891.1577, 96905.13
891.6398, 96894.06
892.1219, 96900.09
892.6040, 96906.85
893.0861, 96918.77
893.5682, 96916.83
894.0504, 96874.21
894.5325, 96741.73
895.0146, 96692.05
895.4967, 96749.24
895.9788, 96844.50
896.4609, 96929.38
896.9431, 97003.55
897.4252, 97056.75
897.9073, 97088.08
898.3894, 97123.40
898.8715, 97195.30
899.3536, 97271.29
899.8358, 97336.35
900.3179, 97391.56
900.8000, 97376.52
901.2821, 97205.68
901.7642, 97086.64
902.2463, 97144.16
902.7285, 97343.62
903.2106, 97412.80
903.6927, 97356.05
904.1748, 97298.88
904.6569, 97330.34
905.1390, 97389.37
905.6212, 97400.45
906.1033, 97380.22
906.5854, 97406.41
907.0675, 97578.26
907.5496, 97704.13
908.0317, 97727.71
908.5139, 97679.10
908.9960, 97632.33
909.4781, 97587.55
909.9602, 97602.58
910.4423, 97727.36
910.9244, 97873.09
911.4066, 97941.50
911.8887, 97950.84
912.3708, 97935.27
912.8529, 97824.40
913.3350, 97797.73
913.8171, 97933.30
914.2993, 98131.95
914.7814, 98272.86
915.2635, 98355.55
915.7456, 98371.89
916.2277, 98305.51
916.7098, 98239.06
917.1920, 98286.71
917.6741, 98389.55
918.1562, 98466.49
918.6383, 98504.11
919.1204, 98500.88
919.6025, 98372.76
920.0847, 98272.99
920.5668, 98336.10
921.0489, 98609.64
921.5310, 98671.31
922.0131, 98496.23
922.4952, 98316.57
922.9774, 98365.16
923.4595, 98506.84
923.9416, 98526.32
924.4237, 98419.88
924.9058, 98338.15
925.3879, 98351.08
925.8701, 98393.40
926.3522, 98454.91
926.8343, 98526.09
927.3164, 98510.75
927.7985, 98395.91
928.2806, 98314.22
928.7628, 98343.68
929.2449, 98425.77
929.7270, 98480.34
930.2091, 98511.99
930.6912, 98534.65
931.1733, 98524.04
931.6555, 98540.38
932.1376, 98633.45
932.6197, 98750.79
933.1018, 98799.86
933.5839, 98771.48
934.0660, 98744.23
934.5482, 98729.74
935.0303, 98728.30
935.5124, 98750.29
935.9945, 98782.67
936.4766, 98796.99
936.9587, 98768.38
937.4409, 98773.12
937.9230, 98869.27
938.4051, 98983.52
938.8872, 99063.44
939.3693, 99108.38
939.8514, 99118.59
940.3336, 99089.66
940.8157, 99059.44
941.2978, 99074.68
941.7799, 99100.64
942.2620, 99068.87
942.7441, 98981.30
943.2263, 98935.30
943.7084, 98963.32
944.1905, 99053.83
944.6726, 99236.41
945.1547, 99480.88
945.6368, 99576.01
946.1190, 99513.31
946.6011, 99457.46
947.0832, 99484.20
947.5653, 99555.09
948.0474, 99643.60
948.5295, 99734.32
949.0117, 99791.45
949.4938, 99758.45
949.9759, 99747.00
950.4580, 99780.81
950.9401, 99843.91
951.4222, 99920.65
951.9044, 100012.0
952.3865, 100074.5
952.8686, 100095.9
953.3507, 100112.6
953.8328, 100154.4
954.3149, 100218.7
954.7971, 100305.4
955.2792, 100417.6
955.7613, 100538.5
956.2434, 100736.7
956.7255, 100856.3
957.2076, 100753.6
957.6898, 100438.9
958.1719, 100310.6
958.6540, 100365.8
959.1361, 100476.7
959.6182, 100620.8
960.1003, 100729.2
960.5825, 100694.0
961.0646, 100548.0
961.5467, 100498.2
962.0288, 100712.0
962.5109, 100818.4
962.9930, 100686.6
963.4752, 100430.7
963.9573, 100331.5
964.4394, 100371.8
964.9215, 100448.1
965.4036, 100559.4
965.8857, 100629.6
966.3679, 100543.6
966.8500, 100402.7
967.3321, 100341.0
967.8142, 100427.6
968.2963, 100503.9
968.7784, 100567.5
969.2606, 100623.0
969.7427, 100689.8
970.2248, 100752.1
970.7069, 100737.7
971.1890, 100642.2
971.6711, 100549.4
972.1533, 100513.5
972.6354, 100500.1
973.1175, 100484.8
973.5996, 100467.3
974.0817, 100477.7
974.5638, 100517.7
975.0460, 100582.9
975.5281, 100690.7
976.0102, 100805.6
976.4923, 100832.1
976.9744, 100800.6
977.4565, 100800.5
977.9387, 100947.1
978.4208, 101042.4
978.9029, 100974.2
979.3850, 100835.1
979.8671, 100736.7
980.3492, 100674.0
980.8314, 100701.3
981.3135, 100842.0
981.7956, 100995.9
982.2777, 101047.6
982.7598, 101046.4
983.2419, 101068.5
983.7241, 101131.4
984.2062, 101162.9
984.6883, 101096.6
985.1704, 101039.3
985.6525, 101040.0
986.1346, 101093.8
986.6168, 101151.7
987.0989, 101213.4
987.5810, 101268.5
988.0631, 101325.0
988.5452, 101360.3
989.0273, 101321.6
989.5095, 101245.6
989.9916, 101228.5
990.4737, 101334.6
990.9558, 101429.4
991.4379, 101495.4
991.9200, 101545.5
992.4022, 101610.0
992.8843, 101677.6
993.3664, 101688.9
993.8485, 101621.1
994.3306, 101570.4
994.8127, 101661.4
995.2949, 101759.0
995.7770, 101713.6
996.2591, 101483.0
996.7412, 101399.1
997.2233, 101489.5
997.7054, 101628.3
998.1876, 101777.6
998.6697, 101906.0
999.1518, 101914.8
999.6339, 101834.6
1000.116, 101788.4
1000.598, 101924.9
1001.080, 101993.7
1001.562, 101818.4
1002.044, 101563.2
1002.527, 101543.1
1003.009, 101776.4
1003.491, 101993.1
1003.973, 102153.9
1004.455, 102232.8
1004.937, 102122.6
1005.419, 101948.4
1005.901, 101875.5
1006.384, 101958.5
1006.866, 102034.1
1007.348, 102080.2
1007.830, 102116.9
1008.312, 102146.9
1008.794, 102175.8
1009.276, 102262.5
1009.758, 102395.5
1010.240, 102483.7
1010.723, 102435.0
1011.205, 102363.2
1011.687, 102337.1
1012.169, 102343.3
1012.651, 102328.9
1013.133, 102246.7
1013.615, 102302.3
1014.097, 102571.9
1014.580, 102867.5
1015.062, 102896.8
1015.544, 102769.8
1016.026, 102699.0
1016.508, 102734.8
1016.990, 102761.0
1017.472, 102685.4
1017.954, 102631.1
1018.436, 102679.8
1018.919, 102824.6
1019.401, 102928.0
1019.883, 102989.9
1020.365, 103024.7
1020.847, 103018.9
1021.329, 103008.2
1021.811, 103029.1
1022.293, 103072.9
1022.776, 103119.6
1023.258, 103202.4
1023.740, 103217.5
1024.222, 103125.4
1024.704, 103011.7
1025.186, 103017.4
1025.668, 103101.6
1026.150, 103113.6
1026.632, 103027.0
1027.115, 102945.5
1027.597, 102952.0
1028.079, 102967.2
1028.561, 102909.7
1029.043, 102786.0
1029.525, 102809.1
1030.007, 102993.4
1030.489, 103207.1
1030.972, 103436.6
1031.454, 103608.9
1031.936, 103552.6
1032.418, 103371.7
1032.900, 103290.4
1033.382, 103512.5
1033.864, 103644.7
1034.346, 103610.8
1034.828, 103525.3
1035.311, 103517.7
1035.793, 103575.9
1036.275, 103620.1
1036.757, 103644.2
1037.239, 103666.0
1037.721, 103726.1
1038.203, 103764.5
1038.685, 103704.6
1039.167, 103564.7
1039.650, 103538.0
1040.132, 103652.5
1040.614, 103760.6
1041.096, 103811.3
1041.578, 103829.8
1042.060, 103835.9
1042.542, 103842.5
1043.024, 103875.8
1043.507, 103961.7
1043.989, 104039.3
1044.471, 104115.3
1044.953, 104160.9
1045.435, 104125.0
1045.917, 104020.4
1046.399, 104045.8
1046.881, 104198.0
1047.364, 104334.3
1047.846, 104343.3
1048.328, 104317.5
1048.810, 104313.0
1049.292, 104327.7
1049.774, 104341.5
1050.256, 104355.1
1050.738, 104363.8
1051.220, 104366.8
1051.703, 104363.8
1052.185, 104361.4
1052.667, 104350.6
1053.149, 104303.1
1053.631, 104193.6
1054.113, 104143.1
1054.595, 104209.7
1055.077, 104314.8
1055.559, 104433.0
1056.042, 104557.8
1056.524, 104642.5
1057.006, 104691.4
1057.488, 104739.0
1057.970, 104810.0
1058.452, 104879.4
1058.934, 104932.3
1059.416, 104973.1
1059.899, 105010.4
1060.381, 105045.8
1060.863, 105072.5
1061.345, 105087.8
1061.827, 105104.0
1062.309, 105134.1
1062.791, 105173.4
1063.273, 105219.3
1063.755, 105271.2
1064.238, 105309.9
1064.720, 105288.7
1065.202, 105313.5
1065.684, 105441.5
1066.166, 105617.4
1066.648, 105675.0
1067.130, 105634.8
1067.612, 105597.9
1068.094, 105605.8
1068.577, 105601.1
1069.059, 105512.9
1069.541, 105420.4
1070.023, 105404.8
1070.505, 105484.0
1070.987, 105539.7
1071.469, 105571.5
1071.951, 105591.3
1072.434, 105616.8
1072.916, 105628.7
1073.398, 105580.5
1073.880, 105496.7
1074.362, 105462.6
1074.844, 105492.2
1075.326, 105591.3
1075.808, 105804.4
1076.291, 106011.8
1076.773, 106007.4
1077.255, 105865.0
1077.737, 105796.9
1078.219, 105836.4
1078.701, 105893.7
1079.183, 105923.6
1079.665, 105962.9
1080.147, 106059.4
1080.630, 106184.0
1081.112, 106126.0
1081.594, 105893.4
1082.076, 105747.2
1082.558, 105825.5
1083.040, 105950.1
1083.522, 105957.9
1084.004, 105917.2
1084.486, 105923.0
1084.969, 106011.2
1085.451, 106067.7
1085.933, 106083.7
1086.415, 106099.8
1086.897, 106173.1
1087.379, 106254.1
1087.861, 106231.6
1088.343, 106131.5
1088.826, 106070.7
1089.308, 106113.5
1089.790, 106172.9
1090.272, 106235.5
1090.754, 106303.3
1091.236, 106392.3
1091.718, 106491.4
1092.200, 106542.8
1092.682, 106534.6
1093.165, 106518.7
1093.647, 106524.1
1094.129, 106534.7
1094.611, 106541.1
1095.093, 106543.6
1095.575, 106539.8
1096.057, 106528.4
1096.539, 106541.8
1097.022, 106600.9
1097.504, 106670.8
1097.986, 106735.8
1098.468, 106780.3
1098.950, 106773.4
1099.432, 106663.0
1099.914, 106637.1
1100.396, 106713.0
1100.879, 106818.9
1101.361, 106936.9
1101.843, 107033.9
1102.325, 107011.5
1102.807, 106905.6
1103.289, 106851.8
1103.771, 106953.9
1104.253, 107042.2
1104.735, 107088.0
1105.218, 107107.4
1105.700, 107114.2
1106.182, 107112.6
1106.664, 107120.1
1107.146, 107138.6
1107.628, 107176.3
1108.110, 107265.8
1108.592, 107348.3
1109.074, 107395.7
1109.557, 107408.9
1110.039, 107373.5
1110.521, 107288.1
1111.003, 107227.1
1111.485, 107213.3
1111.967, 107228.1
1112.449, 107260.4
1112.931, 107308.3
1113.414, 107370.4
1113.896, 107445.7
1114.378, 107547.5
1114.860, 107688.6
1115.342, 107801.1
1115.824, 107850.3
1116.306, 107844.7
1116.788, 107734.8
1117.271, 107588.5
1117.753, 107555.9
1118.235, 107824.7
1118.717, 107998.8
1119.199, 108027.5
1119.681, 108008.5
1120.163, 108031.5
1120.645, 108085.7
1121.127, 108151.3
1121.609, 108223.6
1122.092, 108268.3
1122.574, 108219.4
1123.056, 108200.0
1123.538, 108256.9
1124.020, 108359.7
1124.502, 108481.6
1124.984, 108608.5
1125.466, 108590.4
1125.949, 108382.1
1126.431, 108193.2
1126.913, 108208.0
1127.395, 108265.1
1127.877, 108235.5
1128.359, 108133.3
1128.841, 108091.9
1129.323, 108113.1
1129.806, 108166.9
1130.288, 108250.6
1130.770, 108344.6
1131.252, 108441.7
1131.734, 108531.5
1132.216, 108595.2
1132.698, 108619.5
1133.180, 108669.5
1133.662, 108755.7
1134.145, 108820.6
1134.627, 108808.3
1135.109, 108765.0
1135.591, 108759.7
1136.073, 108782.4
1136.555, 108807.3
1137.037, 108827.4
1137.519, 108851.0
1138.001, 108882.9
1138.484, 108909.1
1138.966, 108915.4
1139.448, 108904.3
1139.930, 108854.9
1140.412, 108778.3
1140.894, 108776.4
1141.376, 108977.3
1141.858, 109148.9
1142.341, 109229.0
1142.823, 109250.5
1143.305, 109254.6
1143.787, 109251.8
1144.269, 109310.6
1144.751, 109453.2
1145.233, 109534.5
1145.715, 109385.5
1146.198, 109239.3
1146.680, 109221.9
1147.162, 109312.2
1147.644, 109424.0
1148.126, 109555.8
1148.608, 109684.2
1149.090, 109819.8
1149.572, 109906.9
1150.054, 109897.7
1150.536, 109822.4
1151.019, 109681.3
1151.501, 109461.6
1151.983, 109421.7
1152.465, 109568.9
1152.947, 109701.3
1153.429, 109679.2
1153.911, 109628.5
1154.393, 109687.5
1154.876, 109795.1
1155.358, 109835.5
1155.840, 109753.0
1156.322, 109767.3
1156.804, 109901.8
1157.286, 110026.4
1157.768, 109980.2
1158.250, 109903.4
1158.733, 110016.0
1159.215, 110259.5
1159.697, 110395.1
1160.179, 110346.0
1160.661, 110277.2
1161.143, 110196.5
1161.625, 110131.2
1162.107, 110115.2
1162.589, 110133.8
1163.072, 110166.6
1163.554, 110211.1
1164.036, 110262.5
1164.518, 110337.1
1165.000, 110386.8
1165.482, 110392.9
1165.964, 110379.6
1166.446, 110374.5
1166.928, 110387.3
1167.411, 110449.6
1167.893, 110576.2
1168.375, 110686.9
1168.857, 110743.6
1169.339, 110800.0
1169.821, 110900.1
1170.303, 110995.8
1170.785, 110891.4
1171.268, 110658.1
1171.750, 110539.2
1172.232, 110667.8
1172.714, 110773.5
1173.196, 110703.5
1173.678, 110621.6
1174.160, 110630.0
1174.642, 110713.1
1175.125, 110776.6
1175.607, 110821.2
1176.089, 110846.0
1176.571, 110808.1
1177.053, 110807.7
1177.535, 110936.8
1178.017, 111088.3
1178.499, 111171.5
1178.981, 111187.1
1179.464, 111124.4
1179.946, 110990.1
1180.428, 110887.2
1180.910, 110858.2
1181.392, 110901.7
1181.874, 111090.1
1182.356, 111315.0
1182.838, 111405.7
1183.320, 111358.6
1183.803, 111302.9
1184.285, 111248.2
1184.767, 111209.1
1185.249, 111176.4
1185.731, 111181.6
1186.213, 111271.5
1186.695, 111414.2
1187.177, 111527.2
1187.660, 111610.1
1188.142, 111665.9
1188.624, 111693.8
1189.106, 111700.8
1189.588, 111664.3
1190.070, 111633.3
1190.552, 111648.7
1191.034, 111709.0
1191.516, 111806.8
1191.999, 111953.9
1192.481, 112008.9
1192.963, 111906.6
1193.445, 111818.2
1193.927, 111981.1
1194.409, 112199.3
1194.891, 112262.9
1195.373, 112154.9
1195.855, 112056.0
1196.338, 111962.0
1196.820, 111915.7
1197.302, 111961.8
1197.784, 112004.7
1198.266, 111866.4
1198.748, 111701.4
1199.230, 111735.9
1199.712, 112037.0
1200.195, 112220.5
1200.677, 112278.4
1201.159, 112272.6
1201.641, 112198.1
1202.123, 112124.0
1202.605, 112135.2
1203.087, 112199.9
1203.569, 112271.8
1204.052, 112370.0
1204.534, 112381.6
1205.016, 112285.9
1205.498, 112228.1
1205.980, 112375.9
1206.462, 112560.7
1206.944, 112556.6
1207.426, 112443.8
1207.908, 112413.9
1208.391, 112525.3
1208.873, 112594.3
1209.355, 112606.8
1209.837, 112613.6
1210.319, 112653.3
1210.801, 112713.8
1211.283, 112803.8
1211.765, 112903.5
1212.247, 112935.6
1212.730, 112865.1
1213.212, 112834.7
1213.694, 112866.6
1214.176, 112904.0
1214.658, 112882.7
1215.140, 112843.7
1215.622, 112829.0
1216.104, 112840.5
1216.587, 112870.2
1217.069, 112917.1
1217.551, 112981.1
1218.033, 113064.8
1218.515, 113153.7
1218.997, 113235.4
1219.479, 113310.5
1219.961, 113410.0
1220.443, 113520.7
1220.926, 113474.7
1221.408, 113209.5
1221.890, 113025.4
1222.372, 112997.3
1222.854, 113053.1
1223.336, 113174.4
1223.818, 113287.6
1224.300, 113272.2
1224.782, 113110.9
1225.265, 113112.3
1225.747, 113324.7
1226.229, 113459.2
1226.711, 113396.2
1227.193, 113305.3
1227.675, 113420.0
1228.157, 113608.2
1228.639, 113707.1
1229.122, 113690.3
1229.604, 113699.4
1230.086, 113742.5
1230.568, 113755.5
1231.050, 113697.7
1231.532, 113632.8
1232.014, 113638.9
1232.496, 113678.4
1232.979, 113702.0
1233.461, 113701.6
1233.943, 113725.3
1234.425, 113773.5
1234.907, 113840.3
1235.389, 113939.7
1235.871, 114029.5
1236.353, 114026.1
1236.835, 114013.0
1237.318, 114135.1
1237.800, 114440.1
1238.282, 114494.4
1238.764, 114284.7
1239.246, 114091.5
1239.728, 114070.9
1240.210, 114132.2
1240.692, 114260.9
1241.175, 114394.1
1241.657, 114435.5
1242.139, 114360.9
1242.621, 114371.0
1243.103, 114466.8
1243.585, 114524.8
1244.067, 114381.9
1244.549, 114270.7
1245.031, 114399.6
1245.514, 114629.9
1245.996, 114760.2
1246.478, 114781.9
1246.960, 114835.4
1247.442, 114920.4
1247.924, 114974.0
1248.406, 114949.0
1248.888, 114887.7
1249.370, 114773.8
1249.853, 114661.8
1250.335, 114620.8
1250.817, 114649.9
1251.299, 114717.1
1251.781, 114819.2
1252.263, 114933.2
1252.745, 115086.5
1253.227, 115197.8
1253.710, 115200.4
1254.192, 115166.2
1254.674, 115189.9
1255.156, 115260.2
1255.638, 115299.8
1256.120, 115304.2
1256.602, 115282.5
1257.084, 115189.3
1257.567, 115137.5
1258.049, 115174.5
1258.531, 115250.6
1259.013, 115303.0
1259.495, 115336.2
1259.977, 115366.1
1260.459, 115393.5
1260.941, 115413.9
1261.423, 115375.0
1261.906, 115409.7
1262.388, 115587.6
1262.870, 115782.0
1263.352, 115778.5
1263.834, 115658.6
1264.316, 115596.5
1264.798, 115608.4
1265.280, 115668.8
1265.762, 115823.0
1266.245, 115942.7
1266.727, 116011.4
1267.209, 116024.3
1267.691, 115913.2
1268.173, 115772.2
1268.655, 115786.6
1269.137, 115959.6
1269.619, 116050.9
1270.102, 115974.7
1270.584, 115994.7
1271.066, 116194.5
1271.548, 116407.1
1272.030, 116401.3
1272.512, 116298.7
1272.994, 116212.8
1273.476, 116164.3
1273.958, 116228.1
1274.441, 116451.2
1274.923, 116530.4
1275.405, 116363.3
1275.887, 116199.1
1276.369, 116367.3
1276.851, 116609.3
1277.333, 116648.4
1277.815, 116517.6
1278.297, 116515.9
1278.780, 116650.5
1279.262, 116771.7
1279.744, 116854.3
1280.226, 116858.6
1280.708, 116659.8
1281.190, 116455.1
1281.672, 116380.2
1282.154, 116416.5
1282.637, 116531.4
1283.119, 116714.4
1283.601, 116869.3
1284.083, 116981.6
1284.565, 117034.2
1285.047, 116947.8
1285.529, 116879.9
1286.011, 116934.8
1286.494, 117041.4
1286.976, 116966.7
1287.458, 116770.9
1287.940, 116649.4
1288.422, 116640.7
1288.904, 116719.9
1289.386, 116974.4
1289.868, 117188.4
1290.350, 117294.6
1290.833, 117313.9
1291.315, 117243.4
1291.797, 117130.5
1292.279, 117074.7
1292.761, 117102.5
1293.243, 117104.9
1293.725, 117035.9
1294.207, 117038.1
1294.689, 117190.3
1295.172, 117359.5
1295.654, 117302.7
1296.136, 117170.6
1296.618, 117184.2
1297.100, 117392.0
1297.582, 117485.7
1298.064, 117447.5
1298.546, 117407.2
1299.029, 117397.5
1299.511, 117424.3
1299.993, 117553.7
1300.475, 117678.2
1300.957, 117653.9
1301.439, 117512.6
1301.921, 117489.6
1302.403, 117579.6
1302.885, 117631.0
1303.368, 117594.2
1303.850, 117544.6
1304.332, 117499.9
1304.814, 117500.1
1305.296, 117582.2
##END=



