##NAMES=Pyrosmalite-(Fe)
##RRUFFID=R070313
##IDEAL CHEMISTRY=Fe^2+^_8_Si_6_O_15_(OH)_10_
##LOCALITY=Broken Hill, New South Wales, Australia
##OWNER=RRUFF
##SOURCE=James Shigley
##DESCRIPTION=Brownish orange massive associated with galena
##STATUS=The identification of this mineral has been confirmed only by X-ray diffraction
##URL=rruff.info/R070313
159.1066, 1393.519
159.5887, 1398.807
160.0709, 1403.814
160.5530, 1409.968
161.0351, 1419.034
161.5172, 1430.880
161.9993, 1446.167
162.4814, 1469.469
162.9636, 1496.463
163.4457, 1519.298
163.9278, 1530.719
164.4099, 1537.441
164.8920, 1552.718
165.3741, 1579.667
165.8563, 1606.339
166.3384, 1621.389
166.8205, 1631.334
167.3026, 1647.841
167.7847, 1680.666
168.2668, 1721.522
168.7490, 1751.363
169.2311, 1765.762
169.7132, 1779.282
170.1953, 1800.244
170.6774, 1825.412
171.1595, 1849.818
171.6417, 1870.387
172.1238, 1889.072
172.6059, 1911.364
173.0880, 1939.780
173.5701, 1966.749
174.0522, 1987.681
174.5344, 2005.629
175.0165, 2024.771
175.4986, 2047.926
175.9807, 2073.224
176.4628, 2095.400
176.9449, 2112.231
177.4271, 2130.056
177.9092, 2148.833
178.3913, 2170.375
178.8734, 2198.001
179.3555, 2235.532
179.8376, 2278.557
180.3197, 2314.522
180.8019, 2341.671
181.2840, 2364.069
181.7661, 2377.581
182.2482, 2389.586
182.7303, 2410.015
183.2124, 2445.065
183.6946, 2489.383
184.1767, 2527.782
184.6588, 2557.596
185.1409, 2585.242
185.6230, 2613.746
186.1051, 2640.908
186.5873, 2664.333
187.0694, 2682.819
187.5515, 2697.123
188.0336, 2710.106
188.5157, 2724.749
188.9978, 2731.867
189.4800, 2733.795
189.9621, 2727.043
190.4442, 2704.954
190.9263, 2663.525
191.4084, 2612.250
191.8905, 2575.141
192.3727, 2562.642
192.8548, 2545.903
193.3369, 2517.113
193.8190, 2483.763
194.3011, 2452.523
194.7832, 2426.020
195.2654, 2403.125
195.7475, 2382.540
196.2296, 2368.521
196.7117, 2348.035
197.1938, 2309.064
197.6759, 2269.478
198.1581, 2249.341
198.6402, 2254.676
199.1223, 2268.285
199.6044, 2255.660
200.0865, 2196.126
200.5686, 2151.431
201.0508, 2133.293
201.5329, 2125.120
202.0150, 2115.007
202.4971, 2099.463
202.9792, 2082.632
203.4613, 2072.746
203.9435, 2078.170
204.4256, 2071.110
204.9077, 2040.554
205.3898, 2005.908
205.8719, 1979.305
206.3540, 1963.508
206.8362, 1954.472
207.3183, 1948.319
207.8004, 1949.694
208.2825, 1941.649
208.7646, 1915.894
209.2467, 1888.245
209.7289, 1867.849
210.2110, 1855.745
210.6931, 1846.979
211.1752, 1835.684
211.6573, 1820.566
212.1395, 1807.967
212.6216, 1799.633
213.1037, 1792.185
213.5858, 1784.168
214.0679, 1775.527
214.5500, 1766.949
215.0322, 1759.157
215.5143, 1752.311
215.9964, 1745.341
216.4785, 1736.182
216.9606, 1728.769
217.4427, 1723.999
217.9249, 1722.226
218.4070, 1724.344
218.8891, 1732.607
219.3712, 1747.442
219.8533, 1752.642
220.3354, 1737.465
220.8176, 1722.571
221.2997, 1713.999
221.7818, 1709.994
222.2639, 1706.225
222.7460, 1699.876
223.2281, 1691.005
223.7103, 1680.752
224.1924, 1665.408
224.6745, 1652.791
225.1566, 1645.641
225.6387, 1641.969
226.1208, 1638.786
226.6030, 1634.385
227.0851, 1629.207
227.5672, 1625.166
228.0493, 1623.333
228.5314, 1621.231
229.0135, 1617.176
229.4957, 1613.102
229.9778, 1612.302
230.4599, 1616.456
230.9420, 1622.042
231.4241, 1619.666
231.9062, 1602.609
232.3884, 1588.978
232.8705, 1582.193
233.3526, 1578.697
233.8347, 1575.222
234.3168, 1570.739
234.7989, 1566.642
235.2811, 1565.783
235.7632, 1570.292
236.2453, 1572.970
236.7274, 1571.281
237.2095, 1569.144
237.6916, 1569.614
238.1738, 1573.067
238.6559, 1577.098
239.1380, 1578.738
239.6201, 1577.486
240.1022, 1575.634
240.5843, 1570.935
241.0665, 1567.551
241.5486, 1568.394
242.0307, 1573.002
242.5128, 1578.202
242.9949, 1580.843
243.4770, 1580.670
243.9592, 1581.057
244.4413, 1583.235
244.9234, 1584.794
245.4055, 1584.899
245.8876, 1583.645
246.3697, 1581.248
246.8519, 1576.815
247.3340, 1571.011
247.8161, 1570.380
248.2982, 1579.472
248.7803, 1587.861
249.2624, 1590.958
249.7446, 1591.181
250.2267, 1592.793
250.7088, 1598.789
251.1909, 1606.898
251.6730, 1609.994
252.1551, 1604.917
252.6373, 1601.240
253.1194, 1603.515
253.6015, 1608.014
254.0836, 1610.652
254.5657, 1609.773
255.0478, 1607.242
255.5300, 1606.132
256.0121, 1606.962
256.4942, 1607.252
256.9763, 1603.845
257.4584, 1601.065
257.9406, 1603.857
258.4227, 1613.503
258.9048, 1622.173
259.3869, 1619.385
259.8690, 1604.424
260.3511, 1594.493
260.8333, 1594.150
261.3154, 1599.081
261.7975, 1609.362
262.2796, 1624.011
262.7617, 1633.564
263.2438, 1628.078
263.7260, 1610.334
264.2081, 1596.598
264.6902, 1589.087
265.1723, 1585.176
265.6544, 1583.327
266.1365, 1583.199
266.6187, 1583.812
267.1008, 1584.935
267.5829, 1586.445
268.0650, 1588.774
268.5471, 1592.846
269.0292, 1594.746
269.5114, 1586.911
269.9935, 1575.394
270.4756, 1571.457
270.9577, 1584.406
271.4398, 1600.867
271.9219, 1603.994
272.4041, 1593.359
272.8862, 1584.222
273.3683, 1585.216
273.8504, 1592.101
274.3325, 1596.459
274.8146, 1597.774
275.2968, 1596.792
275.7789, 1592.752
276.2610, 1586.467
276.7431, 1581.220
277.2252, 1578.173
277.7073, 1576.721
278.1895, 1575.285
278.6716, 1573.044
279.1537, 1573.991
279.6358, 1582.747
280.1179, 1594.934
280.6000, 1602.696
281.0822, 1604.042
281.5643, 1602.646
282.0464, 1602.613
282.5285, 1604.091
283.0106, 1605.034
283.4927, 1604.354
283.9749, 1603.589
284.4570, 1604.393
284.9391, 1606.794
285.4212, 1608.847
285.9033, 1607.586
286.3854, 1603.555
286.8676, 1609.555
287.3497, 1636.158
287.8318, 1661.593
288.3139, 1674.858
288.7960, 1678.365
289.2781, 1678.832
289.7603, 1679.437
290.2424, 1680.723
290.7245, 1685.115
291.2066, 1695.890
291.6887, 1705.501
292.1708, 1711.650
292.6530, 1716.443
293.1351, 1722.251
293.6172, 1729.930
294.0993, 1739.332
294.5814, 1750.223
295.0635, 1763.667
295.5457, 1776.733
296.0278, 1786.238
296.5099, 1797.563
296.9920, 1816.226
297.4741, 1841.764
297.9562, 1867.912
298.4384, 1888.412
298.9205, 1902.744
299.4026, 1915.025
299.8847, 1923.632
300.3668, 1931.874
300.8489, 1940.524
301.3311, 1949.743
301.8131, 1960.170
302.2953, 1972.973
302.7774, 1986.546
303.2595, 1991.548
303.7416, 1975.706
304.2237, 1969.814
304.7058, 1989.070
305.1880, 2016.526
305.6701, 2033.132
306.1522, 2031.623
306.6343, 2021.641
307.1164, 2019.844
307.5985, 2029.754
308.0807, 2034.721
308.5628, 2025.953
309.0449, 2015.363
309.5270, 2010.046
310.0091, 2010.557
310.4912, 2012.744
310.9734, 2013.565
311.4555, 2013.066
311.9376, 2011.108
312.4197, 2004.596
312.9018, 2001.352
313.3839, 2007.661
313.8661, 2020.735
314.3482, 2033.266
314.8303, 2039.696
315.3124, 2044.569
315.7945, 2056.683
316.2766, 2077.055
316.7588, 2098.406
317.2409, 2113.668
317.7230, 2128.583
318.2051, 2153.587
318.6872, 2195.170
319.1693, 2237.472
319.6515, 2267.829
320.1336, 2288.279
320.6157, 2309.285
321.0978, 2335.843
321.5799, 2361.794
322.0620, 2376.318
322.5442, 2378.298
323.0263, 2379.641
323.5084, 2391.058
323.9905, 2400.609
324.4726, 2391.334
324.9547, 2360.391
325.4369, 2319.140
325.9190, 2277.348
326.4011, 2234.990
326.8832, 2191.119
327.3653, 2142.067
327.8474, 2094.695
328.3296, 2051.510
328.8117, 2012.975
329.2938, 1980.875
329.7759, 1956.965
330.2580, 1938.661
330.7401, 1914.996
331.2223, 1877.027
331.7044, 1844.640
332.1865, 1821.718
332.6686, 1804.442
333.1507, 1788.591
333.6328, 1772.953
334.1150, 1759.266
334.5971, 1750.588
335.0792, 1749.781
335.5613, 1746.337
336.0434, 1739.855
336.5255, 1731.467
337.0077, 1720.210
337.4898, 1707.307
337.9719, 1695.911
338.4540, 1689.116
338.9361, 1686.199
339.4182, 1680.123
339.9004, 1665.871
340.3825, 1656.192
340.8646, 1657.123
341.3467, 1663.311
341.8288, 1668.395
342.3109, 1670.150
342.7931, 1669.336
343.2752, 1666.459
343.7573, 1661.142
344.2394, 1656.395
344.7215, 1652.841
345.2036, 1650.236
345.6858, 1647.088
346.1679, 1643.529
346.6500, 1644.151
347.1321, 1656.989
347.6142, 1676.150
348.0963, 1683.460
348.5785, 1673.799
349.0606, 1662.693
349.5427, 1662.611
350.0248, 1670.922
350.5069, 1680.570
350.9890, 1689.546
351.4712, 1700.094
351.9533, 1718.394
352.4354, 1741.764
352.9175, 1754.691
353.3996, 1746.705
353.8817, 1727.422
354.3639, 1722.712
354.8460, 1736.589
355.3281, 1752.633
355.8102, 1772.858
356.2923, 1790.829
356.7744, 1795.989
357.2566, 1786.880
357.7387, 1774.700
358.2208, 1772.102
358.7029, 1781.144
359.1850, 1788.788
359.6671, 1798.318
360.1493, 1803.496
360.6314, 1797.682
361.1135, 1785.458
361.5956, 1776.628
362.0777, 1777.111
362.5598, 1784.632
363.0420, 1791.534
363.5241, 1802.857
364.0062, 1804.656
364.4883, 1786.533
364.9704, 1764.831
365.4525, 1753.931
365.9347, 1756.551
366.4168, 1763.950
366.8989, 1767.319
367.3810, 1766.583
367.8631, 1763.055
368.3452, 1753.444
368.8274, 1745.041
369.3095, 1743.427
369.7916, 1745.775
370.2737, 1744.896
370.7558, 1734.285
371.2379, 1721.102
371.7201, 1719.329
372.2022, 1730.344
372.6843, 1739.574
373.1664, 1741.030
373.6485, 1736.857
374.1306, 1729.233
374.6128, 1715.657
375.0949, 1707.872
375.5770, 1717.488
376.0591, 1736.322
376.5412, 1747.219
377.0233, 1746.089
377.5055, 1741.951
377.9876, 1745.641
378.4697, 1758.348
378.9518, 1759.499
379.4339, 1734.507
379.9160, 1710.791
380.3982, 1709.009
380.8803, 1722.593
381.3624, 1730.787
381.8445, 1721.711
382.3266, 1701.881
382.8087, 1690.872
383.2909, 1693.666
383.7730, 1699.856
384.2551, 1714.745
384.7372, 1729.272
385.2193, 1735.229
385.7014, 1731.894
386.1836, 1725.096
386.6657, 1720.442
387.1478, 1717.986
387.6299, 1717.100
388.1120, 1720.300
388.5941, 1722.121
389.0763, 1717.384
389.5584, 1710.938
390.0405, 1711.699
390.5226, 1725.364
391.0047, 1742.204
391.4868, 1743.826
391.9690, 1727.790
392.4511, 1720.521
392.9332, 1737.402
393.4153, 1758.112
393.8974, 1761.796
394.3795, 1748.417
394.8617, 1735.614
395.3438, 1732.664
395.8259, 1735.563
396.3080, 1738.189
396.7901, 1740.048
397.2722, 1741.323
397.7544, 1742.445
398.2365, 1743.005
398.7186, 1741.464
399.2007, 1735.796
399.6828, 1730.371
400.1649, 1727.500
400.6471, 1725.847
401.1292, 1722.636
401.6113, 1716.923
402.0934, 1711.219
402.5755, 1709.511
403.0576, 1714.154
403.5398, 1715.599
404.0219, 1710.828
404.5040, 1706.131
404.9861, 1707.408
405.4682, 1711.557
405.9503, 1710.018
406.4325, 1696.562
406.9146, 1675.294
407.3967, 1661.190
407.8788, 1657.520
408.3609, 1654.496
408.8430, 1648.170
409.3252, 1642.980
409.8073, 1642.874
410.2894, 1648.305
410.7715, 1656.010
411.2536, 1666.499
411.7357, 1677.870
412.2179, 1677.633
412.7000, 1659.501
413.1821, 1642.973
413.6642, 1645.978
414.1463, 1659.967
414.6284, 1668.293
415.1106, 1665.622
415.5927, 1659.289
416.0748, 1654.024
416.5569, 1649.407
417.0390, 1644.905
417.5211, 1640.974
418.0033, 1634.596
418.4854, 1619.541
418.9675, 1590.216
419.4496, 1572.250
419.9317, 1576.192
420.4138, 1583.951
420.8960, 1584.465
421.3781, 1577.874
421.8602, 1568.347
422.3423, 1558.276
422.8244, 1547.904
423.3065, 1538.121
423.7887, 1526.866
424.2708, 1519.686
424.7529, 1519.964
425.2350, 1522.228
425.7171, 1522.580
426.1992, 1520.219
426.6814, 1515.987
427.1635, 1508.353
427.6456, 1498.105
428.1277, 1497.011
428.6098, 1511.792
429.0919, 1522.750
429.5741, 1515.456
430.0562, 1499.144
430.5383, 1487.120
431.0204, 1482.943
431.5025, 1482.690
431.9846, 1483.640
432.4668, 1485.908
432.9489, 1490.671
433.4310, 1499.062
433.9131, 1507.146
434.3952, 1509.643
434.8773, 1505.821
435.3595, 1503.828
435.8416, 1505.776
436.3237, 1508.148
436.8058, 1510.117
437.2879, 1510.753
437.7701, 1507.890
438.2522, 1500.260
438.7343, 1489.479
439.2164, 1479.396
439.6985, 1468.062
440.1806, 1461.250
440.6628, 1461.349
441.1449, 1463.438
441.6270, 1465.507
442.1091, 1466.766
442.5912, 1466.347
443.0733, 1463.757
443.5555, 1458.914
444.0376, 1450.071
444.5197, 1433.933
445.0018, 1423.068
445.4839, 1428.139
445.9660, 1437.871
446.4482, 1440.474
446.9303, 1433.541
447.4124, 1427.195
447.8945, 1430.959
448.3766, 1439.039
448.8587, 1437.547
449.3409, 1423.970
449.8230, 1410.247
450.3051, 1405.489
450.7872, 1409.181
451.2693, 1413.509
451.7514, 1416.969
452.2336, 1422.724
452.7157, 1435.169
453.1978, 1449.315
453.6799, 1457.038
454.1620, 1456.374
454.6441, 1453.690
455.1263, 1458.313
455.6084, 1473.189
456.0905, 1478.638
456.5726, 1458.914
457.0547, 1445.736
457.5368, 1454.601
458.0190, 1475.016
458.5011, 1489.609
458.9832, 1490.706
459.4653, 1485.274
459.9474, 1480.741
460.4295, 1477.023
460.9117, 1481.992
461.3938, 1502.478
461.8759, 1524.884
462.3580, 1536.937
462.8401, 1540.216
463.3222, 1542.389
463.8044, 1544.720
464.2865, 1547.473
464.7686, 1550.613
465.2507, 1554.309
465.7328, 1558.954
466.2149, 1564.521
466.6971, 1571.885
467.1792, 1583.182
467.6613, 1603.958
468.1434, 1616.521
468.6255, 1618.467
469.1076, 1614.521
469.5898, 1604.454
470.0719, 1590.855
470.5540, 1579.756
471.0361, 1575.493
471.5182, 1574.699
472.0003, 1566.123
472.4825, 1545.135
472.9646, 1529.171
473.4467, 1526.162
473.9288, 1526.508
474.4109, 1523.934
474.8930, 1518.446
475.3752, 1514.461
475.8573, 1513.906
476.3394, 1516.692
476.8215, 1523.883
477.3036, 1535.520
477.7857, 1546.992
478.2679, 1557.199
478.7500, 1564.784
479.2321, 1565.655
479.7142, 1557.215
480.1963, 1549.791
480.6784, 1546.458
481.1606, 1544.224
481.6427, 1540.581
482.1248, 1535.278
482.6069, 1529.196
483.0890, 1522.990
483.5711, 1516.513
484.0533, 1508.924
484.5354, 1501.350
485.0175, 1490.535
485.4996, 1473.046
485.9817, 1454.654
486.4638, 1437.631
486.9460, 1423.358
487.4281, 1416.670
487.9102, 1428.235
488.3923, 1449.971
488.8744, 1455.261
489.3565, 1441.255
489.8387, 1426.169
490.3208, 1419.193
490.8029, 1416.869
491.2850, 1411.907
491.7671, 1403.978
492.2492, 1394.456
492.7314, 1381.919
493.2135, 1369.153
493.6956, 1358.482
494.1777, 1350.587
494.6598, 1347.139
495.1419, 1350.369
495.6241, 1358.519
496.1062, 1359.944
496.5883, 1344.946
497.0704, 1336.915
497.5525, 1345.914
498.0346, 1357.098
498.5168, 1355.885
498.9989, 1342.233
499.4810, 1329.619
499.9631, 1331.303
500.4452, 1342.825
500.9273, 1346.428
501.4095, 1340.112
501.8916, 1334.400
502.3737, 1335.017
502.8558, 1338.180
503.3379, 1337.600
503.8200, 1332.178
504.3022, 1327.232
504.7843, 1325.105
505.2664, 1324.302
505.7485, 1322.488
506.2306, 1319.901
506.7127, 1319.787
507.1949, 1324.876
507.6770, 1333.376
508.1591, 1337.281
508.6412, 1331.016
509.1233, 1328.310
509.6054, 1332.264
510.0876, 1338.018
510.5697, 1342.892
511.0518, 1346.228
511.5339, 1347.812
512.0161, 1347.518
512.4982, 1345.352
512.9803, 1340.128
513.4624, 1330.844
513.9445, 1325.022
514.4266, 1327.277
514.9088, 1332.630
515.3909, 1333.795
515.8730, 1330.254
516.3551, 1319.563
516.8372, 1331.793
517.3193, 1338.535
517.8015, 1340.084
518.2836, 1320.888
518.7657, 1328.480
519.2478, 1325.337
519.7299, 1321.754
520.2120, 1333.116
520.6942, 1316.938
521.1763, 1328.063
521.6584, 1328.289
522.1405, 1333.504
522.6226, 1327.917
523.1047, 1325.666
523.5869, 1334.220
524.0690, 1336.792
524.5511, 1329.961
525.0332, 1335.493
525.5153, 1318.937
525.9974, 1321.763
526.4796, 1332.952
526.9617, 1326.664
527.4438, 1332.393
527.9259, 1333.546
528.4080, 1313.900
528.8901, 1330.424
529.3723, 1331.306
529.8544, 1316.127
530.3365, 1331.412
530.8186, 1318.447
531.3007, 1315.565
531.7828, 1320.273
532.2650, 1317.069
532.7471, 1326.338
533.2292, 1323.591
533.7113, 1319.770
534.1934, 1320.635
534.6755, 1319.858
535.1577, 1322.144
535.6398, 1320.847
536.1219, 1314.363
536.6040, 1308.501
537.0861, 1311.131
537.5682, 1318.824
538.0504, 1319.067
538.5325, 1309.415
539.0146, 1300.228
539.4967, 1300.061
539.9788, 1306.356
540.4609, 1306.292
540.9431, 1291.927
541.4252, 1282.787
541.9073, 1285.061
542.3894, 1292.835
542.8715, 1303.902
543.3536, 1315.703
543.8358, 1321.249
544.3179, 1313.873
544.8000, 1296.859
545.2821, 1284.044
545.7642, 1275.114
546.2463, 1271.325
546.7285, 1277.215
547.2106, 1285.417
547.6927, 1290.878
548.1748, 1293.401
548.6569, 1294.268
549.1390, 1292.258
549.6211, 1290.091
550.1032, 1291.660
550.5853, 1296.009
551.0674, 1298.804
551.5496, 1298.293
552.0317, 1295.631
552.5138, 1292.554
552.9959, 1288.775
553.4780, 1285.523
553.9601, 1279.886
554.4423, 1277.758
554.9244, 1285.581
555.4065, 1297.211
555.8886, 1302.897
556.3707, 1299.005
556.8528, 1290.751
557.3350, 1281.871
557.8171, 1273.179
558.2992, 1272.194
558.7813, 1281.271
559.2634, 1293.055
559.7455, 1305.781
560.2277, 1316.979
560.7098, 1319.542
561.1919, 1308.314
561.6740, 1297.444
562.1561, 1290.357
562.6382, 1286.411
563.1204, 1285.564
563.6025, 1287.348
564.0846, 1290.215
564.5667, 1293.081
565.0488, 1296.139
565.5309, 1300.751
566.0131, 1309.024
566.4952, 1313.488
566.9773, 1306.445
567.4594, 1300.425
567.9415, 1305.727
568.4236, 1319.985
568.9058, 1330.958
569.3879, 1332.552
569.8700, 1329.506
570.3521, 1324.241
570.8342, 1318.131
571.3163, 1317.232
571.7985, 1323.934
572.2806, 1330.760
572.7627, 1328.009
573.2448, 1314.154
573.7269, 1305.086
574.2090, 1301.503
574.6912, 1301.496
575.1733, 1306.087
575.6554, 1313.233
576.1375, 1321.802
576.6196, 1331.152
577.1017, 1338.750
577.5839, 1340.677
578.0660, 1339.036
578.5481, 1341.258
579.0302, 1347.809
579.5123, 1355.414
579.9944, 1364.592
580.4766, 1372.171
580.9587, 1369.857
581.4408, 1354.037
581.9229, 1345.091
582.4050, 1350.318
582.8871, 1359.218
583.3693, 1365.348
583.8514, 1369.504
584.3335, 1374.378
584.8156, 1381.146
585.2977, 1390.356
585.7798, 1404.756
586.2620, 1425.306
586.7441, 1438.558
587.2262, 1439.330
587.7083, 1440.429
588.1904, 1452.433
588.6725, 1468.714
589.1547, 1476.973
589.6368, 1470.648
590.1189, 1469.501
590.6010, 1487.314
591.0831, 1513.366
591.5652, 1534.953
592.0474, 1550.801
592.5295, 1563.453
593.0116, 1573.847
593.4937, 1584.196
593.9758, 1601.349
594.4579, 1625.323
594.9401, 1655.874
595.4222, 1701.023
595.9043, 1745.321
596.3864, 1776.502
596.8685, 1800.656
597.3506, 1834.190
597.8328, 1886.438
598.3149, 1943.180
598.7970, 1987.946
599.2791, 2027.658
599.7612, 2082.346
600.2433, 2156.131
600.7255, 2233.521
601.2076, 2299.548
601.6897, 2357.663
602.1718, 2436.162
602.6539, 2549.043
603.1360, 2664.210
603.6182, 2780.076
604.1003, 2896.613
604.5824, 3011.292
605.0645, 3126.386
605.5466, 3248.483
606.0287, 3382.366
606.5109, 3524.988
606.9930, 3671.398
607.4751, 3822.781
607.9572, 3986.885
608.4393, 4167.890
608.9214, 4356.707
609.4036, 4545.103
609.8857, 4733.351
610.3678, 4922.570
610.8499, 5130.030
611.3320, 5315.830
611.8141, 5472.897
612.2963, 5602.958
612.7784, 5709.276
613.2605, 5790.585
613.7426, 5838.622
614.2247, 5849.894
614.7068, 5821.195
615.1890, 5740.991
615.6711, 5608.321
616.1532, 5443.346
616.6353, 5247.438
617.1174, 5030.441
617.5995, 4800.279
618.0817, 4556.019
618.5638, 4309.384
619.0459, 4047.972
619.5280, 3799.548
620.0101, 3572.271
620.4922, 3365.333
620.9744, 3177.944
621.4565, 3009.139
621.9386, 2855.917
622.4207, 2716.772
622.9028, 2590.388
623.3849, 2473.308
623.8671, 2364.848
624.3492, 2270.532
624.8313, 2196.785
625.3134, 2132.461
625.7955, 2064.861
626.2776, 1994.148
626.7598, 1929.402
627.2419, 1871.386
627.7240, 1820.412
628.2061, 1777.562
628.6882, 1741.980
629.1703, 1714.759
629.6525, 1695.093
630.1346, 1676.880
630.6167, 1653.451
631.0988, 1626.493
631.5809, 1606.263
632.0630, 1594.937
632.5452, 1581.338
633.0273, 1559.757
633.5094, 1536.640
633.9915, 1520.578
634.4736, 1511.092
634.9557, 1497.168
635.4379, 1468.415
635.9200, 1443.493
636.4021, 1436.821
636.8842, 1439.412
637.3663, 1437.893
637.8484, 1428.721
638.3306, 1414.675
638.8127, 1396.883
639.2948, 1376.928
639.7769, 1366.005
640.2590, 1366.889
640.7411, 1366.712
641.2233, 1360.031
641.7054, 1352.586
642.1875, 1352.576
642.6696, 1358.990
643.1517, 1358.505
643.6339, 1339.531
644.1160, 1322.435
644.5981, 1319.914
645.0802, 1325.896
645.5623, 1332.481
646.0444, 1337.190
646.5266, 1339.336
647.0087, 1338.482
647.4908, 1334.426
647.9729, 1324.491
648.4550, 1305.953
648.9371, 1292.946
649.4193, 1291.447
649.9014, 1294.211
650.3835, 1294.688
650.8656, 1293.186
651.3477, 1291.804
651.8298, 1292.581
652.3120, 1291.636
652.7941, 1283.958
653.2762, 1275.014
653.7583, 1273.988
654.2404, 1280.936
654.7225, 1286.353
655.2047, 1282.004
655.6868, 1271.023
656.1689, 1262.769
656.6510, 1256.707
657.1331, 1257.820
657.6152, 1272.977
658.0974, 1287.200
658.5795, 1284.459
659.0616, 1268.462
659.5437, 1255.348
660.0258, 1245.693
660.5079, 1240.153
660.9901, 1243.683
661.4722, 1248.433
661.9543, 1245.001
662.4364, 1233.899
662.9185, 1222.227
663.4006, 1214.294
663.8828, 1209.841
664.3649, 1209.600
664.8470, 1213.789
665.3291, 1214.176
665.8112, 1207.172
666.2933, 1201.920
666.7755, 1207.554
667.2576, 1220.639
667.7397, 1225.916
668.2218, 1216.871
668.7039, 1210.668
669.1860, 1216.560
669.6682, 1221.618
670.1503, 1213.119
670.6324, 1194.755
671.1145, 1178.482
671.5966, 1169.996
672.0787, 1167.125
672.5609, 1167.783
673.0430, 1171.620
673.5251, 1177.761
674.0072, 1187.563
674.4893, 1190.169
674.9714, 1175.043
675.4536, 1151.531
675.9357, 1144.923
676.4178, 1166.793
676.8999, 1180.233
677.3820, 1179.826
677.8641, 1175.379
678.3463, 1169.218
678.8284, 1163.465
679.3105, 1161.048
679.7926, 1162.897
680.2747, 1166.272
680.7568, 1169.513
681.2390, 1172.139
681.7211, 1172.573
682.2032, 1170.869
682.6853, 1169.205
683.1674, 1168.546
683.6495, 1168.336
684.1317, 1168.054
684.6138, 1168.373
685.0959, 1165.021
685.5780, 1152.409
686.0601, 1142.783
686.5422, 1140.125
687.0244, 1141.253
687.5065, 1144.207
687.9886, 1148.154
688.4707, 1149.546
688.9528, 1144.653
689.4349, 1137.500
689.9171, 1130.791
690.3992, 1125.650
690.8813, 1125.982
691.3634, 1132.750
691.8455, 1142.293
692.3276, 1151.862
692.8098, 1160.703
693.2919, 1161.520
693.7740, 1151.511
694.2561, 1139.478
694.7382, 1119.223
695.2203, 1104.596
695.7025, 1109.214
696.1846, 1128.071
696.6667, 1141.898
697.1488, 1143.031
697.6309, 1142.551
698.1130, 1149.055
698.5952, 1155.701
699.0773, 1151.822
699.5594, 1138.596
700.0415, 1126.111
700.5236, 1120.391
701.0057, 1119.836
701.4879, 1121.750
701.9700, 1126.240
702.4521, 1131.796
702.9342, 1140.323
703.4163, 1144.361
703.8984, 1135.853
704.3806, 1121.275
704.8627, 1116.491
705.3448, 1124.604
705.8269, 1132.762
706.3090, 1140.700
706.7911, 1146.769
707.2733, 1149.967
707.7554, 1150.635
708.2375, 1149.261
708.7196, 1146.031
709.2017, 1141.299
709.6838, 1135.167
710.1660, 1127.841
710.6481, 1117.681
711.1302, 1105.227
711.6123, 1100.777
712.0944, 1109.138
712.5765, 1122.023
713.0587, 1129.414
713.5408, 1131.086
714.0229, 1132.043
714.5050, 1131.826
714.9871, 1131.497
715.4692, 1130.223
715.9514, 1129.680
716.4335, 1133.182
716.9156, 1139.164
717.3977, 1140.328
717.8798, 1129.995
718.3619, 1119.260
718.8441, 1117.145
719.3262, 1120.548
719.8083, 1124.486
720.2904, 1128.228
720.7725, 1133.970
721.2546, 1143.848
721.7368, 1153.766
722.2189, 1151.870
722.7010, 1135.502
723.1831, 1126.021
723.6652, 1127.229
724.1473, 1131.059
724.6295, 1133.456
725.1116, 1135.339
725.5937, 1139.233
726.0758, 1146.889
726.5579, 1150.301
727.0400, 1145.561
727.5222, 1138.698
728.0043, 1130.779
728.4864, 1124.111
728.9685, 1122.313
729.4506, 1126.100
729.9327, 1132.147
730.4149, 1139.363
730.8970, 1145.910
731.3791, 1145.101
731.8612, 1138.192
732.3433, 1139.720
732.8254, 1155.726
733.3076, 1168.757
733.7897, 1158.739
734.2718, 1128.231
734.7539, 1110.711
735.2360, 1110.470
735.7181, 1116.246
736.2003, 1137.148
736.6824, 1153.870
737.1645, 1150.293
737.6466, 1133.059
738.1287, 1120.994
738.6108, 1119.350
739.0930, 1122.890
739.5751, 1133.453
740.0572, 1144.431
740.5393, 1148.260
741.0214, 1145.196
741.5035, 1137.658
741.9857, 1126.781
742.4678, 1115.803
742.9499, 1110.122
743.4320, 1109.245
743.9141, 1104.869
744.3962, 1095.374
744.8784, 1091.847
745.3605, 1102.521
745.8426, 1115.094
746.3247, 1110.865
746.8068, 1086.888
747.2889, 1073.890
747.7711, 1081.490
748.2532, 1086.823
748.7353, 1081.672
749.2174, 1074.114
749.6995, 1071.173
750.1816, 1072.944
750.6638, 1076.368
751.1459, 1081.538
751.6280, 1084.927
752.1101, 1080.088
752.5922, 1072.281
753.0743, 1073.280
753.5565, 1082.952
754.0386, 1090.576
754.5207, 1089.691
755.0028, 1084.360
755.4849, 1082.361
755.9670, 1084.037
756.4492, 1086.304
756.9313, 1090.287
757.4134, 1091.751
757.8955, 1087.467
758.3776, 1080.695
758.8597, 1075.952
759.3419, 1073.159
759.8240, 1072.527
760.3061, 1078.135
760.7882, 1081.050
761.2703, 1075.212
761.7524, 1066.778
762.2346, 1062.418
762.7167, 1062.435
763.1988, 1062.887
763.6809, 1061.772
764.1630, 1059.713
764.6451, 1056.559
765.1273, 1053.171
765.6094, 1052.309
766.0915, 1054.031
766.5736, 1054.754
767.0557, 1051.995
767.5378, 1048.153
768.0200, 1049.326
768.5021, 1057.068
768.9842, 1059.797
769.4663, 1054.182
769.9484, 1040.309
770.4305, 1052.452
770.9127, 1059.107
771.3948, 1060.570
771.8769, 1041.287
772.3590, 1048.793
772.8411, 1045.563
773.3232, 1041.893
773.8054, 1053.168
774.2875, 1036.903
774.7696, 1047.942
775.2517, 1048.082
775.7338, 1053.209
776.2159, 1047.536
776.6981, 1045.198
777.1802, 1053.665
777.6623, 1056.150
778.1444, 1049.233
778.6265, 1054.678
779.1086, 1038.035
779.5908, 1040.775
780.0729, 1051.877
780.5550, 1045.502
781.0371, 1051.145
781.5192, 1052.210
782.0013, 1032.478
782.4835, 1048.916
782.9656, 1049.711
783.4477, 1034.445
783.9298, 1049.643
784.4119, 1036.591
784.8940, 1033.623
785.3762, 1040.358
785.8583, 1041.971
786.3404, 1041.668
786.8225, 1040.921
787.3046, 1042.144
787.7867, 1044.146
788.2689, 1042.288
788.7510, 1033.091
789.2331, 1024.610
789.7152, 1025.303
790.1973, 1030.219
790.6794, 1030.399
791.1616, 1026.820
791.6437, 1027.820
792.1258, 1037.012
792.6079, 1046.677
793.0900, 1045.105
793.5721, 1033.851
794.0543, 1028.794
794.5364, 1030.749
795.0185, 1034.019
795.5006, 1037.911
795.9827, 1040.451
796.4648, 1038.255
796.9470, 1032.289
797.4291, 1033.026
797.9112, 1047.559
798.3933, 1058.666
798.8754, 1066.479
799.3575, 1069.814
799.8397, 1063.702
800.3218, 1053.858
800.8039, 1051.165
801.2860, 1058.878
801.7681, 1068.197
802.2502, 1075.401
802.7324, 1081.689
803.2145, 1089.859
803.6966, 1097.421
804.1787, 1096.734
804.6608, 1087.706
805.1429, 1083.599
805.6251, 1098.096
806.1072, 1121.457
806.5893, 1132.339
807.0714, 1132.238
807.5535, 1131.706
808.0356, 1132.462
808.5178, 1133.945
808.9999, 1135.843
809.4820, 1138.096
809.9641, 1140.492
810.4462, 1142.925
810.9283, 1146.271
811.4105, 1153.849
811.8926, 1156.831
812.3747, 1144.432
812.8568, 1130.615
813.3389, 1133.532
813.8210, 1153.209
814.3032, 1168.962
814.7853, 1178.275
815.2674, 1182.561
815.7495, 1179.408
816.2316, 1173.695
816.7137, 1170.124
817.1959, 1168.024
817.6780, 1163.578
818.1601, 1154.721
818.6422, 1145.394
819.1243, 1139.596
819.6064, 1135.017
820.0886, 1126.722
820.5707, 1116.196
821.0528, 1111.474
821.5349, 1114.922
822.0170, 1115.760
822.4991, 1099.716
822.9813, 1072.393
823.4634, 1059.145
823.9455, 1060.655
824.4276, 1060.592
824.9097, 1055.932
825.3918, 1047.248
825.8740, 1032.857
826.3561, 1016.358
826.8382, 1010.917
827.3203, 1025.610
827.8024, 1030.295
828.2845, 1015.960
828.7667, 1002.604
829.2488, 997.6513
829.7309, 997.3485
830.2130, 997.7216
830.6951, 998.4733
831.1772, 999.6036
831.6594, 1003.993
832.1415, 1005.236
832.6236, 997.2782
833.1057, 987.2414
833.5878, 982.9638
834.0699, 983.4340
834.5521, 982.7410
835.0342, 978.2194
835.5163, 972.1080
835.9984, 963.1369
836.4805, 955.7042
836.9626, 959.7541
837.4448, 972.2978
837.9269, 982.1458
838.4090, 985.3091
838.8911, 982.1158
839.3732, 971.0588
839.8553, 955.4655
840.3375, 947.9912
840.8196, 948.7771
841.3017, 950.3745
841.7838, 951.3897
842.2659, 953.9729
842.7480, 960.6801
843.2302, 968.5303
843.7123, 969.3263
844.1944, 959.1617
844.6765, 955.2537
845.1586, 962.6064
845.6407, 968.7556
846.1229, 969.4067
846.6050, 967.0150
847.0871, 962.7431
847.5692, 956.9732
848.0513, 953.5599
848.5334, 954.5353
849.0156, 955.8615
849.4977, 958.6879
849.9798, 959.4594
850.4619, 952.6379
850.9440, 942.2128
851.4261, 936.9110
851.9083, 939.5147
852.3904, 945.0582
852.8725, 953.4439
853.3546, 960.5002
853.8367, 960.8747
854.3188, 956.8218
854.8010, 952.3594
855.2831, 948.7536
855.7652, 946.8099
856.2473, 947.3494
856.7294, 949.2366
857.2115, 951.2791
857.6937, 953.0032
858.1758, 951.3610
858.6579, 946.2522
859.1400, 943.1884
859.6221, 945.0507
860.1042, 947.7552
860.5864, 945.1046
861.0685, 937.3679
861.5506, 931.5814
862.0327, 927.7886
862.5148, 925.7343
862.9969, 925.1980
863.4791, 926.8254
863.9612, 932.2375
864.4433, 939.9361
864.9254, 944.3297
865.4075, 943.3690
865.8896, 943.3958
866.3718, 945.7274
866.8539, 947.4343
867.3360, 949.5428
867.8181, 949.2079
868.3002, 940.1343
868.7823, 923.2591
869.2645, 914.2928
869.7466, 924.9879
870.2287, 934.2581
870.7108, 931.7610
871.1929, 926.3307
871.6750, 926.2100
872.1572, 929.7188
872.6393, 931.5588
873.1214, 929.9910
873.6035, 926.1002
874.0856, 917.0975
874.5677, 909.1246
875.0499, 911.5401
875.5320, 919.6071
876.0141, 922.8220
876.4962, 919.7781
876.9783, 916.3775
877.4604, 916.4910
877.9426, 918.8034
878.4247, 920.3724
878.9068, 922.3397
879.3889, 932.3135
879.8710, 949.3608
880.3531, 956.0406
880.8353, 944.7822
881.3174, 928.5070
881.7995, 922.7211
882.2816, 925.4825
882.7637, 923.7531
883.2458, 916.4329
883.7280, 913.3458
884.2101, 917.2025
884.6922, 921.9453
885.1743, 924.2300
885.6564, 924.1821
886.1385, 921.6920
886.6207, 915.7457
887.1028, 912.0125
887.5849, 911.4829
888.0670, 911.6317
888.5491, 913.7274
889.0313, 914.5408
889.5134, 909.3147
889.9955, 900.0309
890.4776, 895.8389
890.9597, 900.0086
891.4418, 904.4741
891.9240, 908.6667
892.4061, 912.3491
892.8882, 915.5247
893.3703, 918.0742
893.8524, 919.7745
894.3345, 920.6304
894.8167, 921.0003
895.2988, 921.8325
895.7809, 921.2294
896.2630, 917.0197
896.7451, 911.7436
897.2272, 907.4229
897.7094, 904.4900
898.1915, 903.4857
898.6736, 904.6209
899.1557, 905.8181
899.6378, 905.7574
900.1199, 904.5715
900.6021, 900.6791
901.0842, 896.3181
901.5663, 898.0676
902.0484, 905.3893
902.5305, 908.5439
903.0126, 900.7326
903.4948, 890.4170
903.9769, 893.1553
904.4590, 903.0524
904.9411, 898.5745
905.4232, 881.3499
905.9053, 870.9551
906.3875, 873.7363
906.8696, 880.8083
907.3517, 883.5612
907.8338, 884.1987
908.3159, 892.6881
908.7980, 909.1699
909.2802, 910.1850
909.7623, 890.6237
910.2444, 877.0529
910.7265, 884.2954
911.2086, 897.7754
911.6907, 895.4365
912.1729, 877.5715
912.6550, 868.3194
913.1371, 869.0435
913.6192, 875.0240
914.1013, 890.8285
914.5834, 901.1286
915.0656, 891.1134
915.5477, 871.6946
916.0298, 869.5614
916.5119, 892.7998
916.9940, 902.7582
917.4761, 886.0375
917.9583, 875.0071
918.4404, 881.1620
918.9225, 892.2681
919.4046, 901.6299
919.8867, 908.0832
920.3688, 907.7786
920.8510, 898.0003
921.3331, 886.8908
921.8152, 868.9266
922.2973, 857.5826
922.7794, 863.3654
923.2615, 876.2889
923.7437, 886.3745
924.2258, 892.2505
924.7079, 893.9432
925.1900, 889.4014
925.6721, 884.1231
926.1542, 877.3113
926.6364, 873.4915
927.1185, 879.1719
927.6006, 889.3187
928.0827, 894.0713
928.5648, 891.8849
929.0469, 892.2968
929.5291, 908.0313
930.0112, 919.7175
930.4933, 906.4786
930.9754, 885.1936
931.4575, 876.4938
931.9396, 879.2789
932.4218, 884.0812
932.9039, 887.3754
933.3860, 889.5878
933.8681, 891.2113
934.3502, 891.8526
934.8323, 890.7147
935.3145, 888.2924
935.7966, 884.2407
936.2787, 879.6671
936.7608, 880.2924
937.2429, 889.6218
937.7250, 897.5407
938.2072, 886.5114
938.6893, 866.9835
939.1714, 865.6417
939.6535, 878.0513
940.1356, 884.7776
940.6177, 881.7631
941.0999, 876.6050
941.5820, 874.4216
942.0641, 874.4525
942.5462, 875.8347
943.0283, 878.2802
943.5104, 880.8660
943.9926, 883.3653
944.4747, 882.6741
944.9568, 877.7283
945.4389, 873.7352
945.9210, 875.7492
946.4031, 881.3113
946.8853, 883.3710
947.3674, 881.9496
947.8495, 882.1299
948.3316, 884.7296
948.8137, 882.0222
949.2958, 869.8884
949.7780, 857.2516
950.2601, 854.6971
950.7422, 859.9230
951.2243, 859.7853
951.7064, 852.6733
952.1885, 851.1383
952.6707, 857.5772
953.1528, 865.1884
953.6349, 871.2726
954.1170, 876.1204
954.5991, 880.5927
955.0812, 884.4843
955.5634, 882.8441
956.0455, 871.7876
956.5276, 867.8190
957.0097, 876.6261
957.4918, 885.0239
957.9739, 885.7853
958.4561, 882.0593
958.9382, 878.4529
959.4203, 874.8051
959.9024, 873.5837
960.3845, 876.5793
960.8666, 878.3467
961.3488, 876.8950
961.8309, 875.7074
962.3130, 877.3957
962.7951, 880.5202
963.2772, 882.2209
963.7593, 882.1932
964.2415, 882.3933
964.7236, 884.6224
965.2057, 884.4560
965.6878, 876.5944
966.1699, 870.5511
966.6520, 875.8813
967.1342, 886.7094
967.6163, 889.0745
968.0984, 880.2424
968.5805, 872.6890
969.0626, 863.9103
969.5447, 860.6011
970.0269, 869.6393
970.5090, 880.0264
970.9911, 883.0366
971.4732, 880.7943
971.9553, 879.2014
972.4374, 878.2820
972.9196, 879.8846
973.4017, 886.5306
973.8838, 892.8544
974.3659, 899.9081
974.8480, 903.3757
975.3301, 896.0008
975.8123, 882.0097
976.2944, 874.9475
976.7765, 878.8758
977.2586, 883.2633
977.7407, 886.6109
978.2228, 888.9308
978.7050, 889.8617
979.1871, 890.0325
979.6692, 890.9271
980.1513, 891.6349
980.6334, 888.1573
981.1155, 876.7926
981.5977, 870.2305
982.0798, 877.7653
982.5619, 884.5449
983.0440, 880.0791
983.5261, 872.9939
984.0082, 874.4161
984.4904, 882.5182
984.9725, 886.4149
985.4546, 881.6762
985.9367, 877.2930
986.4188, 875.1968
986.9009, 875.8267
987.3831, 881.6465
987.8652, 888.8135
988.3473, 891.7363
988.8294, 891.5024
989.3115, 895.5665
989.7936, 909.6144
990.2758, 917.8536
990.7579, 905.4290
991.2400, 894.2399
991.7221, 903.7633
992.2042, 919.0941
992.6863, 918.8019
993.1685, 905.0930
993.6506, 899.0024
994.1327, 911.0854
994.6148, 920.8187
995.0969, 913.4354
995.5790, 906.6918
996.0612, 916.2962
996.5433, 931.3647
997.0254, 936.9219
997.5075, 933.4040
997.9896, 931.9034
998.4717, 937.3387
998.9539, 941.7338
999.4360, 939.0411
999.9181, 936.5737
1000.400, 939.7274
1000.882, 945.9511
1001.364, 953.0587
1001.847, 959.8607
1002.329, 963.3038
1002.811, 960.6141
1003.293, 959.9326
1003.775, 967.7917
1004.257, 976.0436
1004.739, 978.4882
1005.221, 978.3587
1005.703, 979.8795
1006.186, 983.1437
1006.668, 985.4750
1007.150, 984.4603
1007.632, 987.6349
1008.114, 1004.429
1008.596, 1019.899
1009.078, 1021.518
1009.560, 1018.128
1010.043, 1021.508
1010.525, 1030.745
1011.007, 1036.106
1011.489, 1032.193
1011.971, 1033.412
1012.453, 1051.973
1012.935, 1070.691
1013.417, 1075.738
1013.899, 1077.639
1014.382, 1087.886
1014.864, 1106.340
1015.346, 1128.479
1015.828, 1154.336
1016.310, 1177.922
1016.792, 1195.380
1017.274, 1211.826
1017.756, 1229.617
1018.239, 1248.129
1018.721, 1264.793
1019.203, 1281.640
1019.685, 1305.370
1020.167, 1339.037
1020.649, 1371.766
1021.131, 1397.458
1021.613, 1424.828
1022.095, 1459.831
1022.578, 1496.881
1023.060, 1529.883
1023.542, 1560.727
1024.024, 1596.064
1024.506, 1638.188
1024.988, 1676.778
1025.470, 1705.231
1025.952, 1734.623
1026.435, 1775.868
1026.917, 1813.075
1027.399, 1831.716
1027.881, 1836.777
1028.363, 1841.438
1028.845, 1848.552
1029.327, 1844.610
1029.809, 1819.146
1030.292, 1793.500
1030.774, 1779.490
1031.256, 1760.872
1031.738, 1722.516
1032.220, 1673.500
1032.702, 1632.854
1033.184, 1603.444
1033.666, 1559.904
1034.148, 1478.080
1034.630, 1413.933
1035.113, 1388.057
1035.595, 1369.443
1036.077, 1346.900
1036.559, 1318.098
1037.041, 1277.175
1037.523, 1223.438
1038.005, 1178.188
1038.487, 1140.667
1038.970, 1113.356
1039.452, 1105.341
1039.934, 1095.687
1040.416, 1072.386
1040.898, 1045.451
1041.380, 1028.014
1041.862, 1018.889
1042.344, 1004.011
1042.826, 977.2858
1043.309, 958.6749
1043.791, 951.9768
1044.273, 947.5703
1044.755, 941.7140
1045.237, 937.2410
1045.719, 939.0877
1046.201, 944.2372
1046.683, 937.8425
1047.166, 914.9517
1047.648, 896.8791
1048.130, 883.6100
1048.612, 876.2729
1049.094, 877.1290
1049.576, 879.0721
1050.058, 875.8021
1050.540, 869.6522
1051.022, 868.0042
1051.505, 872.1525
1051.987, 866.4016
1052.469, 848.4949
1052.951, 834.6179
1053.433, 828.2072
1053.915, 829.1649
1054.397, 838.8098
1054.879, 851.2589
1055.361, 855.6318
1055.844, 852.5129
1056.326, 849.0903
1056.808, 845.3296
1057.290, 837.8011
1057.772, 825.8328
1058.254, 818.7422
1058.736, 821.8414
1059.218, 827.1373
1059.701, 823.8645
1060.183, 814.5007
1060.665, 806.5226
1061.147, 800.0231
1061.629, 794.2536
1062.111, 789.9702
1062.593, 796.4710
1063.075, 816.6243
1063.557, 831.3860
1064.040, 819.4782
1064.522, 796.6152
1065.004, 793.6726
1065.486, 801.6791
1065.968, 795.6976
1066.450, 779.7982
1066.932, 776.7621
1067.414, 790.5707
1067.896, 801.7723
1068.379, 796.4053
1068.861, 785.6941
1069.343, 781.3101
1069.825, 780.2010
1070.307, 777.0374
1070.789, 774.2141
1071.271, 779.0454
1071.753, 790.0681
1072.236, 796.3030
1072.718, 792.1685
1073.200, 787.3569
1073.682, 789.4684
1074.164, 793.2440
1074.646, 797.8148
1075.128, 798.9033
1075.610, 786.2740
1076.093, 766.7069
1076.575, 759.4312
1077.057, 769.8342
1077.539, 781.1167
1078.021, 789.2976
1078.503, 792.3898
1078.985, 785.7603
1079.467, 777.3842
1079.949, 772.2450
1080.432, 770.1776
1080.914, 771.8276
1081.396, 776.7542
1081.878, 776.6811
1082.360, 761.5079
1082.842, 754.4730
1083.324, 766.1069
1083.806, 778.1572
1084.288, 781.0980
1084.771, 781.3468
1085.253, 787.4325
1085.735, 797.2885
1086.217, 800.7639
1086.699, 797.9455
1087.181, 787.3334
1087.663, 758.1741
1088.145, 744.3787
1088.628, 763.1256
1089.110, 783.7103
1089.592, 782.9788
1090.074, 769.6332
1090.556, 762.0878
1091.038, 760.4807
1091.520, 761.6754
1092.002, 766.6997
1092.484, 767.0349
1092.967, 760.4019
1093.449, 755.6129
1093.931, 757.6147
1094.413, 760.4279
1094.895, 755.3333
1095.377, 746.1050
1095.859, 747.9637
1096.341, 759.3195
1096.823, 769.4711
1097.306, 776.9225
1097.788, 776.6952
1098.270, 767.6658
1098.752, 757.7158
1099.234, 753.0554
1099.716, 751.1494
1100.198, 746.4134
1100.680, 742.5125
1101.163, 750.9290
1101.645, 765.5466
1102.127, 769.8495
1102.609, 762.6681
1103.091, 752.4829
1103.573, 742.9157
1104.055, 738.1508
1104.537, 744.3611
1105.020, 754.0820
1105.502, 763.8192
1105.984, 770.5034
1106.466, 767.0565
1106.948, 758.7266
1107.430, 759.0922
1107.912, 770.2491
1108.394, 776.0042
1108.876, 761.8991
1109.359, 753.1605
1109.841, 767.8135
1110.323, 780.9739
1110.805, 771.7562
1111.287, 756.3387
1111.769, 758.2448
1112.251, 773.8393
1112.733, 777.1493
1113.215, 757.8309
1113.698, 746.3741
1114.180, 746.1116
1114.662, 750.1582
1115.144, 761.8845
1115.626, 770.3843
1116.108, 766.2521
1116.590, 756.2895
1117.072, 753.5299
1117.555, 758.0191
1118.037, 759.1019
1118.519, 755.9973
1119.001, 753.7648
1119.483, 752.9414
1119.965, 753.4982
1120.447, 755.5761
1120.929, 758.3509
1121.411, 761.6536
1121.894, 763.3789
1122.376, 754.6923
1122.858, 739.1337
1123.340, 737.0157
1123.822, 746.4916
1124.304, 753.1927
1124.786, 753.8948
1125.268, 752.6155
1125.750, 751.6122
1126.233, 750.0087
1126.715, 746.0530
1127.197, 741.5944
1127.679, 738.3205
1128.161, 736.8601
1128.643, 739.6727
1129.125, 744.8361
1129.607, 746.4582
1130.090, 743.5701
1130.572, 743.2769
1131.054, 752.4048
1131.536, 759.1489
1132.018, 756.7691
1132.500, 750.6195
1132.982, 739.2595
1133.464, 729.9345
1133.947, 733.7242
1134.429, 747.2701
1134.911, 755.2903
1135.393, 755.3380
1135.875, 752.0034
1136.357, 741.2102
1136.839, 733.5813
1137.321, 731.1641
1137.803, 732.1578
1138.286, 737.5063
1138.768, 743.4058
1139.250, 744.4109
1139.732, 740.7327
1140.214, 733.0453
1140.696, 719.8432
1141.178, 714.5525
1141.660, 718.4783
1142.142, 726.3095
1142.625, 736.7144
1143.107, 744.0245
1143.589, 743.4809
1144.071, 739.0506
1144.553, 736.9124
1145.035, 736.7513
1145.517, 738.3893
1145.999, 741.0579
1146.482, 742.3321
1146.964, 742.1842
1147.446, 742.4396
1147.928, 743.6439
1148.410, 743.2164
1148.892, 737.2634
1149.374, 732.3138
1149.856, 736.6809
1150.339, 742.5180
1150.821, 740.9318
1151.303, 736.1354
1151.785, 735.3376
1152.267, 738.3593
1152.749, 739.9156
1153.231, 738.1164
1153.713, 737.2936
1154.195, 741.2739
1154.677, 742.4075
1155.160, 733.1727
1155.642, 726.3456
1156.124, 734.1619
1156.606, 745.3393
1157.088, 741.8764
1157.570, 725.5565
1158.052, 717.9223
1158.534, 721.0778
1159.017, 722.8983
1159.499, 722.0242
1159.981, 725.3317
1160.463, 735.5565
1160.945, 744.9794
1161.427, 748.2775
1161.909, 746.2629
1162.391, 737.4408
1162.874, 725.5671
1163.356, 724.6917
1163.838, 731.4164
1164.320, 734.0641
1164.802, 733.1060
1165.284, 737.3874
1165.766, 749.0712
1166.248, 760.1666
1166.730, 766.2540
1167.213, 767.7084
1167.695, 760.5663
1168.177, 753.3699
1168.659, 754.9919
1169.141, 760.2552
1169.623, 762.8340
1170.105, 762.7560
1170.587, 762.1230
1171.069, 761.0986
1171.552, 761.2994
1172.034, 768.1402
1172.516, 768.1484
1172.998, 753.9330
1173.480, 740.2043
1173.962, 732.3859
1174.444, 729.0437
1174.926, 729.7685
1175.409, 732.9117
1175.891, 732.6821
1176.373, 728.8689
1176.855, 724.2009
1177.337, 718.6055
1177.819, 714.6918
1178.301, 712.9489
1178.783, 713.7757
1179.266, 717.3817
1179.748, 719.2614
1180.230, 712.8970
1180.712, 705.2421
1181.194, 708.6017
1181.676, 717.8919
1182.158, 728.1143
1182.640, 735.5962
1183.122, 730.1584
1183.604, 715.2831
1184.087, 711.5573
1184.569, 728.7191
1185.051, 739.7980
1185.533, 725.2126
1186.015, 711.8722
1186.497, 712.5464
1186.979, 716.8326
1187.461, 719.8795
1187.944, 720.3790
1188.426, 714.5153
1188.908, 704.4441
1189.390, 704.4384
1189.872, 720.4463
1190.354, 724.1078
1190.836, 711.6016
1191.318, 704.0488
1191.801, 706.5864
1192.283, 710.9304
1192.765, 712.4367
1193.247, 713.2524
1193.729, 716.4917
1194.211, 720.3845
1194.693, 720.5959
1195.175, 717.9694
1195.657, 714.3829
1196.140, 710.1011
1196.622, 703.5970
1197.104, 696.2283
1197.586, 695.5176
1198.068, 705.5175
1198.550, 714.6270
1199.032, 715.5143
1199.514, 713.5146
1199.996, 710.4343
1200.479, 706.9617
1200.961, 701.7096
1201.443, 697.5198
1201.925, 699.5853
1202.407, 707.0677
1202.889, 711.9919
1203.371, 714.4067
1203.853, 713.6428
1204.336, 708.4307
1204.818, 703.7282
1205.300, 699.8524
1205.782, 700.7390
1206.264, 709.5935
1206.746, 716.8079
1207.228, 709.4941
1207.710, 695.0065
1208.193, 690.8415
1208.675, 694.9682
1209.157, 706.4641
1209.639, 719.9154
1210.121, 716.7308
1210.603, 699.3688
1211.085, 692.7675
1211.567, 707.0569
1212.049, 719.3734
1212.531, 714.0517
1213.014, 705.2050
1213.496, 696.3891
1213.978, 690.9875
1214.460, 694.7936
1214.942, 700.8532
1215.424, 698.5152
1215.906, 691.1074
1216.388, 692.7125
1216.871, 706.0373
1217.353, 711.1134
1217.835, 705.7959
1218.317, 701.2503
1218.799, 699.0131
1219.281, 697.3008
1219.763, 695.2629
1220.245, 695.5046
1220.728, 701.3429
1221.210, 707.0139
1221.692, 699.3483
1222.174, 685.9467
1222.656, 681.3516
1223.138, 683.9657
1223.620, 693.0518
1224.102, 704.7704
1224.584, 710.1540
1225.067, 707.2497
1225.549, 702.9048
1226.031, 698.3484
1226.513, 696.1160
1226.995, 700.9648
1227.477, 703.2601
1227.959, 692.8961
1228.441, 684.7893
1228.923, 692.7967
1229.406, 707.5820
1229.888, 713.1715
1230.370, 710.3221
1230.852, 706.6115
1231.334, 701.9970
1231.816, 697.1545
1232.298, 692.2416
1232.780, 689.9467
1233.263, 690.7603
1233.745, 691.9330
1234.227, 691.9149
1234.709, 691.5074
1235.191, 692.0109
1235.673, 692.0132
1236.155, 686.6923
##END=



