##NAMES=Pyrolusite
##RRUFFID=R050361
##IDEAL CHEMISTRY=Mn^4+^O_2_
##LOCALITY=Serra do Navio, Amapa, Brazil
##OWNER=RRUFF
##SOURCE=University of Arizona Mineral Museum
##DESCRIPTION=Black prismatic crystals
##STATUS=The identification of this mineral has been confirmed by X-ray diffraction and chemical analysis
##URL=rruff.info/R050361
##MEASURED CHEMISTRY=Mn_1.00_O_2_
92.52344, 52.48884
93.00555, 52.97175
93.48767, 52.95566
93.96979, 52.89309
94.45190, 53.08780
94.93402, 53.68072
95.41614, 53.58779
95.89825, 52.68806
96.38037, 51.27546
96.86249, 49.54863
97.34460, 48.16071
97.82672, 46.96220
98.30884, 46.24557
98.79095, 46.46228
99.27307, 47.13264
99.75519, 47.32451
100.2373, 46.54569
100.7194, 45.06366
101.2015, 44.09111
101.6837, 43.88074
102.1658, 43.89097
102.6479, 43.71308
103.1300, 43.31928
103.6121, 42.94193
104.0942, 42.62347
104.5764, 42.42955
105.0585, 42.56090
105.5406, 43.48083
106.0227, 44.81148
106.5048, 45.37070
106.9869, 44.88622
107.4691, 43.90080
107.9512, 42.39794
108.4333, 40.62018
108.9154, 39.14273
109.3975, 38.56794
109.8796, 39.07542
110.3618, 39.29473
110.8439, 38.92553
111.3260, 38.51963
111.8081, 38.24023
112.2902, 38.14666
112.7723, 38.27082
113.2544, 38.70996
113.7366, 39.96492
114.2187, 40.54861
114.7008, 40.03060
115.1829, 39.12213
115.6650, 38.46010
116.1471, 38.27100
116.6293, 38.35201
117.1114, 38.23849
117.5935, 37.89106
118.0756, 37.46780
118.5577, 36.85624
119.0398, 36.18035
119.5220, 35.74318
120.0041, 35.72412
120.4862, 36.01945
120.9683, 36.34233
121.4504, 36.74803
121.9325, 37.09070
122.4147, 37.23597
122.8968, 37.17260
123.3789, 37.04618
123.8610, 36.95146
124.3431, 36.81890
124.8252, 36.52472
125.3074, 35.93053
125.7895, 35.27626
126.2716, 35.13498
126.7537, 35.91494
127.2358, 36.48417
127.7179, 36.44211
128.2001, 36.02611
128.6822, 35.52838
129.1643, 35.11149
129.6464, 34.77454
130.1285, 34.52960
130.6107, 34.55770
131.0928, 34.50780
131.5749, 34.22836
132.0570, 33.79295
132.5391, 33.37148
133.0212, 33.11464
133.5034, 33.04332
133.9855, 33.02020
134.4676, 33.15691
134.9497, 33.24513
135.4318, 33.08009
135.9139, 32.67838
136.3960, 32.31938
136.8782, 32.36440
137.3603, 32.92685
137.8424, 33.29778
138.3245, 33.27301
138.8066, 33.09951
139.2887, 33.14951
139.7709, 33.57825
140.2530, 33.93659
140.7351, 33.42276
141.2172, 32.12545
141.6993, 31.13092
142.1814, 31.21707
142.6636, 32.06189
143.1457, 32.41267
143.6278, 31.62296
144.1099, 30.69092
144.5920, 30.47210
145.0741, 30.97387
145.5563, 31.70133
146.0384, 32.34867
146.5205, 32.94952
147.0026, 33.17714
147.4847, 32.55192
147.9668, 31.79745
148.4490, 31.29358
148.9311, 31.12238
149.4132, 31.11834
149.8953, 31.04380
150.3774, 30.87704
150.8595, 30.67331
151.3417, 30.39702
151.8238, 30.11594
152.3059, 29.85833
152.7880, 29.64072
153.2701, 29.49418
153.7522, 29.50268
154.2344, 29.86581
154.7165, 30.17050
155.1986, 30.42672
155.6807, 30.61160
156.1628, 30.68812
156.6449, 30.63274
157.1271, 30.47204
157.6092, 30.30821
158.0913, 30.24402
158.5734, 30.06829
159.0555, 29.57513
159.5376, 28.90114
160.0198, 28.41053
160.5019, 28.32768
160.9840, 28.58545
161.4661, 28.83968
161.9482, 29.07757
162.4303, 29.32519
162.9125, 29.67648
163.3946, 30.12120
163.8767, 30.37656
164.3588, 30.06071
164.8409, 29.50579
165.3230, 29.30108
165.8052, 29.77899
166.2873, 30.43229
166.7694, 30.53479
167.2515, 29.92629
167.7336, 29.31246
168.2157, 29.05362
168.6979, 28.98324
169.1800, 28.91598
169.6621, 28.75862
170.1442, 28.56541
170.6263, 28.51779
171.1084, 28.80406
171.5906, 28.92479
172.0727, 28.58282
172.5548, 28.02811
173.0369, 27.61106
173.5190, 27.55835
174.0011, 27.82800
174.4833, 28.06881
174.9654, 28.46099
175.4475, 28.62280
175.9296, 28.24177
176.4117, 27.57289
176.8938, 27.09548
177.3760, 27.20896
177.8581, 27.93896
178.3402, 28.25065
178.8223, 27.61320
179.3044, 27.12280
179.7865, 27.37846
180.2687, 28.17486
180.7508, 28.82320
181.2329, 28.69321
181.7150, 27.68643
182.1971, 27.07312
182.6792, 27.06564
183.1614, 27.20954
183.6435, 27.29527
184.1256, 27.29607
184.6077, 27.22750
185.0898, 27.07484
185.5719, 26.83511
186.0541, 26.70057
186.5362, 26.82266
187.0183, 26.96658
187.5004, 26.83061
187.9825, 26.36323
188.4646, 25.97235
188.9468, 26.21171
189.4289, 26.90091
189.9110, 27.28851
190.3931, 26.88777
190.8752, 26.18209
191.3573, 25.96857
191.8395, 26.43680
192.3216, 27.02566
192.8037, 27.37966
193.2858, 27.53287
193.7679, 27.51716
194.2500, 27.20185
194.7322, 26.71264
195.2143, 26.49153
195.6964, 26.75921
196.1785, 26.96439
196.6606, 26.68557
197.1427, 26.11849
197.6249, 25.70317
198.1070, 25.83608
198.5891, 26.43997
199.0712, 26.72097
199.5533, 26.43593
200.0354, 26.06388
200.5176, 25.69217
200.9997, 25.37523
201.4818, 25.20618
201.9639, 25.29273
202.4460, 25.64293
202.9281, 25.91237
203.4103, 26.21334
203.8924, 26.31505
204.3745, 25.91297
204.8566, 25.20927
205.3387, 24.70838
205.8208, 24.90717
206.3030, 25.92671
206.7851, 26.51385
207.2672, 26.29138
207.7493, 26.04180
208.2314, 26.11198
208.7135, 26.45008
209.1957, 26.77551
209.6778, 26.81839
210.1599, 26.52008
210.6420, 26.39975
211.1241, 26.73718
211.6062, 26.97684
212.0884, 26.69094
212.5705, 25.96259
213.0526, 25.28769
213.5347, 25.12540
214.0168, 25.55408
214.4989, 25.88208
214.9811, 26.14852
215.4632, 26.29765
215.9453, 26.22348
216.4274, 25.94398
216.9095, 25.66893
217.3916, 25.57855
217.8737, 25.68557
218.3559, 25.80153
218.8380, 25.97795
219.3201, 26.12845
219.8022, 26.20181
220.2843, 26.19416
220.7664, 26.06199
221.2486, 25.69203
221.7307, 25.14716
222.2128, 24.71618
222.6949, 24.40787
223.1770, 24.24841
223.6591, 24.36013
224.1413, 24.79558
224.6234, 25.15046
225.1055, 25.01575
225.5876, 24.59704
226.0697, 24.25112
226.5518, 24.05684
227.0340, 23.99310
227.5161, 24.07511
227.9982, 24.35743
228.4803, 24.59430
228.9624, 24.69556
229.4445, 24.65533
229.9267, 24.40817
230.4088, 23.80829
230.8909, 23.08950
231.3730, 22.69449
231.8551, 22.66470
232.3372, 22.87501
232.8194, 23.47762
233.3015, 24.20423
233.7836, 24.72934
234.2657, 24.88475
234.7478, 24.81797
235.2299, 24.88118
235.7121, 25.20253
236.1942, 25.38890
236.6763, 25.34574
237.1584, 25.12735
237.6405, 24.73296
238.1227, 24.12935
238.6048, 23.46537
239.0869, 23.14560
239.5690, 23.39992
240.0511, 23.60920
240.5332, 23.57094
241.0154, 23.47163
241.4975, 23.53535
241.9796, 23.86135
242.4617, 24.29773
242.9438, 24.44843
243.4259, 24.09290
243.9081, 23.78129
244.3902, 23.53663
244.8723, 23.37750
245.3544, 23.35845
245.8365, 23.49531
246.3186, 23.69341
246.8008, 23.72771
247.2829, 23.39146
247.7650, 23.18894
248.2471, 23.14862
248.7292, 23.23646
249.2113, 23.45803
249.6935, 23.80641
250.1756, 24.20731
250.6577, 24.52393
251.1398, 24.84637
251.6219, 24.91476
252.1040, 24.55267
252.5862, 24.04340
253.0683, 23.62739
253.5504, 23.37804
254.0325, 23.21844
254.5146, 23.01769
254.9967, 22.66607
255.4789, 22.50142
255.9610, 22.62430
256.4431, 22.87304
256.9252, 23.18362
257.4073, 23.52328
257.8894, 23.74095
258.3716, 23.58901
258.8537, 22.77755
259.3358, 22.39915
259.8179, 22.82296
260.3000, 23.45696
260.7821, 23.80765
261.2643, 23.78723
261.7464, 23.57532
262.2285, 23.33650
262.7106, 23.04957
263.1927, 22.87761
263.6748, 23.08790
264.1570, 23.24588
264.6391, 22.78613
265.1212, 21.69785
265.6033, 20.77007
266.0854, 20.84341
266.5675, 21.98174
267.0497, 22.76661
267.5318, 22.99253
268.0139, 22.97396
268.4960, 22.92262
268.9781, 22.85549
269.4602, 22.73934
269.9424, 22.48367
270.4245, 22.14763
270.9066, 22.06989
271.3887, 22.57069
271.8708, 23.09629
272.3529, 23.14340
272.8351, 22.74860
273.3172, 22.41891
273.7993, 22.52299
274.2814, 22.90899
274.7635, 23.04852
275.2456, 22.70352
275.7278, 22.36513
276.2099, 22.40626
276.6920, 22.79013
277.1741, 23.23812
277.6562, 23.71503
278.1383, 24.09939
278.6205, 24.18876
279.1026, 23.89132
279.5847, 23.50001
280.0668, 23.12607
280.5489, 22.79067
281.0310, 22.65636
281.5132, 22.89074
281.9953, 23.24511
282.4774, 23.35294
282.9595, 23.17990
283.4416, 22.97169
283.9237, 22.89104
284.4059, 22.90284
284.8880, 22.85374
285.3701, 22.68620
285.8522, 22.47285
286.3343, 22.24541
286.8164, 22.00693
287.2986, 21.89630
287.7807, 22.05352
288.2628, 22.40565
288.7449, 22.73052
289.2270, 23.03459
289.7091, 23.23597
290.1913, 23.28851
290.6734, 23.20238
291.1555, 22.98613
291.6376, 22.48532
292.1197, 21.87226
292.6018, 21.58834
293.0840, 21.76193
293.5661, 22.01544
294.0482, 22.13836
294.5303, 22.16038
295.0124, 22.11595
295.4945, 21.94575
295.9767, 21.75498
296.4588, 21.79796
296.9409, 22.18369
297.4230, 22.42695
297.9051, 22.12854
298.3872, 21.58608
298.8694, 21.10336
299.3515, 20.71221
299.8336, 20.50725
300.3157, 20.69415
300.7978, 21.34907
301.2799, 21.94610
301.7621, 22.36120
302.2442, 22.57774
302.7263, 22.49859
303.2084, 22.06206
303.6905, 21.59018
304.1726, 21.43038
304.6548, 21.59603
305.1369, 21.76482
305.6190, 21.83194
306.1011, 21.90270
306.5832, 22.13337
307.0653, 22.52003
307.5475, 22.76470
308.0296, 22.49134
308.5117, 21.76001
308.9938, 21.31293
309.4759, 21.42722
309.9580, 21.64053
310.4402, 21.67716
310.9223, 21.54962
311.4044, 21.32495
311.8865, 20.89330
312.3686, 20.36336
312.8507, 20.27607
313.3329, 20.94873
313.8150, 21.52678
314.2971, 21.53372
314.7792, 21.14254
315.2613, 20.62604
315.7434, 19.93164
316.2256, 19.30209
316.7077, 19.42047
317.1898, 20.67202
317.6719, 21.59441
318.1540, 21.07370
318.6361, 20.06948
319.1183, 19.66718
319.6004, 20.30503
320.0825, 21.30865
320.5646, 21.75279
321.0467, 21.55182
321.5288, 21.33915
322.0110, 21.39795
322.4931, 21.46696
322.9752, 21.24098
323.4573, 20.66323
323.9394, 20.20833
324.4215, 20.45435
324.9037, 21.38166
325.3858, 22.10037
325.8679, 22.56666
326.3500, 22.62220
326.8321, 21.95768
327.3142, 20.70518
327.7964, 19.63404
328.2785, 19.25563
328.7606, 19.49209
329.2427, 20.02765
329.7248, 21.08308
330.2069, 22.02532
330.6891, 22.56770
331.1712, 22.73606
331.6533, 22.54529
332.1354, 21.85847
332.6175, 20.88944
333.0996, 20.02864
333.5818, 19.24315
334.0639, 18.66303
334.5460, 18.33330
335.0281, 18.25526
335.5102, 18.55136
335.9923, 19.40612
336.4745, 20.29239
336.9566, 20.54894
337.4387, 20.14079
337.9208, 19.67988
338.4029, 19.32599
338.8850, 19.03132
339.3671, 18.64107
339.8492, 18.11216
340.3314, 17.91912
340.8135, 18.77381
341.2956, 20.44258
341.7777, 21.35127
342.2598, 20.89458
342.7419, 20.06276
343.2241, 19.70048
343.7062, 19.73359
344.1883, 19.82086
344.6704, 19.91945
345.1525, 19.94090
345.6346, 19.56680
346.1168, 18.59921
346.5989, 17.82574
347.0810, 18.13679
347.5631, 19.01706
348.0452, 19.56970
348.5273, 19.34754
349.0095, 18.90021
349.4916, 18.88908
349.9737, 19.32474
350.4558, 19.70964
350.9379, 19.78022
351.4200, 19.67934
351.9022, 19.64993
352.3843, 19.72147
352.8664, 19.81190
353.3485, 19.94827
353.8306, 20.07932
354.3127, 19.93714
354.7949, 19.29031
355.2770, 18.60943
355.7591, 18.58349
356.2412, 19.19407
356.7233, 19.69433
357.2054, 19.75635
357.6876, 19.56194
358.1697, 19.38352
358.6518, 19.25564
359.1339, 19.13877
359.6160, 18.96545
360.0981, 18.76435
360.5803, 18.69436
361.0624, 18.86478
361.5445, 19.10617
362.0266, 19.38272
362.5087, 19.65855
362.9908, 19.64486
363.4730, 19.04768
363.9551, 18.12678
364.4372, 17.68420
364.9193, 17.96171
365.4014, 18.26842
365.8835, 18.22438
366.3657, 18.01878
366.8478, 18.13949
367.3299, 18.82479
367.8120, 19.55986
368.2941, 19.41101
368.7762, 18.11800
369.2584, 17.16515
369.7405, 16.85561
370.2226, 16.91796
370.7047, 17.23122
371.1868, 17.74002
371.6689, 18.12655
372.1511, 18.06223
372.6332, 17.52062
373.1153, 17.22065
373.5974, 17.21538
374.0795, 17.36776
374.5616, 17.75460
375.0438, 18.25378
375.5259, 18.58282
376.0080, 18.57917
376.4901, 18.31207
376.9722, 18.01684
377.4543, 17.64726
377.9365, 17.31013
378.4186, 16.87432
378.9007, 16.53989
379.3828, 16.59059
379.8649, 17.08664
380.3470, 17.78396
380.8292, 18.37806
381.3113, 18.96962
381.7934, 19.09522
382.2755, 18.24880
382.7576, 17.43768
383.2397, 17.34427
383.7219, 17.84325
384.2040, 18.34743
384.6861, 18.38291
385.1682, 17.98664
385.6503, 17.74234
386.1324, 17.87032
386.6146, 17.91165
387.0967, 17.70862
387.5788, 17.40137
388.0609, 17.16787
388.5430, 17.08465
389.0251, 17.09982
389.5073, 17.11877
389.9894, 17.17282
390.4715, 17.15997
390.9536, 17.08426
391.4357, 16.94456
391.9178, 16.56491
392.4000, 16.04130
392.8821, 15.82408
393.3642, 16.56855
393.8463, 18.33096
394.3284, 19.12926
394.8105, 18.11855
395.2927, 17.07082
395.7748, 16.63004
396.2569, 16.55660
396.7390, 16.37846
397.2211, 15.81117
397.7032, 15.11328
398.1854, 14.90168
398.6675, 15.32361
399.1496, 15.78621
399.6317, 16.25570
400.1138, 16.62366
400.5959, 16.79743
401.0781, 16.76173
401.5602, 16.56221
402.0423, 16.14205
402.5244, 15.53494
403.0065, 15.10073
403.4886, 14.85991
403.9708, 14.85019
404.4529, 15.30145
404.9350, 16.00659
405.4171, 16.35804
405.8992, 15.64199
406.3813, 14.65343
406.8635, 14.92480
407.3456, 16.64120
407.8277, 17.88797
408.3098, 17.38789
408.7919, 15.98013
409.2740, 15.13716
409.7562, 15.11112
410.2383, 15.19518
410.7204, 14.84304
411.2025, 14.25291
411.6846, 14.07695
412.1667, 14.58689
412.6489, 15.23772
413.1310, 15.28752
413.6131, 14.75865
414.0952, 14.37414
414.5773, 14.30860
415.0594, 14.40527
415.5416, 14.56996
416.0237, 14.78109
416.5058, 14.95964
416.9879, 15.04210
417.4700, 15.05262
417.9521, 15.12480
418.4343, 15.47315
418.9164, 15.62001
419.3985, 15.32057
419.8806, 14.77426
420.3627, 14.24438
420.8448, 13.81558
421.3270, 13.47845
421.8091, 13.20894
422.2912, 12.96434
422.7733, 12.95295
423.2554, 13.42469
423.7375, 13.89340
424.2197, 13.98264
424.7018, 13.78875
425.1839, 13.72336
425.6660, 14.12140
426.1481, 14.86593
426.6302, 15.15150
427.1124, 14.48608
427.5945, 13.93763
428.0766, 13.46967
428.5587, 13.25966
429.0408, 13.67111
429.5229, 14.74806
430.0051, 15.86401
430.4872, 15.99413
430.9693, 14.77765
431.4514, 14.08703
431.9335, 14.42058
432.4156, 14.90559
432.8978, 15.38789
433.3799, 15.74928
433.8620, 15.76033
434.3441, 15.13504
434.8262, 14.17620
435.3083, 13.84606
435.7905, 14.42683
436.2726, 14.85695
436.7547, 14.52459
437.2368, 13.99238
437.7189, 13.74043
438.2010, 13.86288
438.6832, 14.17372
439.1653, 14.69316
439.6474, 15.32649
440.1295, 15.50279
440.6116, 14.96463
441.0938, 14.28105
441.5759, 13.94126
442.0580, 13.85541
442.5401, 13.77305
443.0222, 13.49649
443.5043, 13.28271
443.9865, 13.48619
444.4686, 14.05572
444.9507, 14.52892
445.4328, 14.67269
445.9149, 14.60366
446.3970, 14.59535
446.8792, 14.69464
447.3613, 14.71499
447.8434, 14.48856
448.3255, 14.20990
448.8076, 14.11244
449.2897, 14.23571
449.7719, 14.52075
450.2540, 14.98027
450.7361, 15.63943
451.2182, 15.80147
451.7003, 14.99891
452.1824, 14.29008
452.6646, 14.15957
453.1467, 14.35995
453.6288, 14.43327
454.1109, 14.17828
454.5930, 13.78749
455.0751, 13.66246
455.5573, 14.04564
456.0394, 14.21935
456.5215, 13.90490
457.0036, 13.65192
457.4857, 13.95310
457.9678, 14.65233
458.4500, 15.12834
458.9321, 14.81761
459.4142, 13.91520
459.8963, 13.62114
460.3784, 14.37690
460.8605, 14.96052
461.3427, 14.87082
461.8248, 14.57409
462.3069, 14.57044
462.7890, 14.98369
463.2711, 15.43010
463.7532, 15.50336
464.2354, 15.22583
464.7175, 14.87043
465.1996, 14.34449
465.6817, 13.94620
466.1638, 13.90910
466.6459, 14.15026
467.1281, 14.50135
467.6102, 15.20060
468.0923, 15.71928
468.5744, 15.17976
469.0565, 13.71529
469.5386, 12.78935
470.0208, 13.17856
470.5029, 14.14174
470.9850, 14.26635
471.4671, 13.37101
471.9492, 12.83802
472.4313, 13.33369
472.9135, 14.17604
473.3956, 14.63962
473.8777, 14.66795
474.3598, 14.59680
474.8419, 14.69195
475.3240, 14.91765
475.8062, 14.91180
476.2883, 14.47417
476.7704, 14.08519
477.2525, 13.79293
477.7346, 13.62249
478.2167, 13.66396
478.6989, 13.91660
479.1810, 14.18895
479.6631, 14.23969
480.1452, 14.04203
480.6273, 13.75302
481.1094, 13.14783
481.5916, 12.68453
482.0737, 12.51724
482.5558, 12.59786
483.0379, 12.87560
483.5200, 13.35777
484.0021, 13.86650
484.4843, 14.03390
484.9664, 13.78619
485.4485, 13.52785
485.9306, 13.07191
486.4127, 12.87102
486.8948, 13.49788
487.3770, 14.77549
487.8591, 15.69973
488.3412, 15.38635
488.8233, 14.43248
489.3054, 14.00750
489.7875, 14.16252
490.2697, 14.46348
490.7518, 14.83559
491.2339, 15.13059
491.7160, 15.02765
492.1981, 14.31265
492.6802, 13.82887
493.1624, 14.18595
493.6445, 14.90210
494.1266, 15.29742
494.6087, 15.25435
495.0908, 14.86910
495.5729, 14.08840
496.0551, 12.93327
496.5372, 12.54771
497.0193, 13.60405
497.5014, 14.52366
497.9835, 14.79522
498.4656, 14.65004
498.9478, 14.41083
499.4299, 14.19083
499.9120, 13.93421
500.3941, 13.49089
500.8762, 12.65299
501.3583, 12.45579
501.8405, 13.80206
502.3226, 14.87104
502.8047, 14.67547
503.2868, 13.78126
503.7689, 13.31976
504.2510, 13.90274
504.7331, 14.92247
505.2152, 15.21028
505.6974, 14.63107
506.1795, 14.16226
506.6616, 14.03546
507.1437, 14.05396
507.6258, 14.08774
508.1079, 14.13394
508.5901, 14.20147
509.0722, 14.39103
509.5543, 14.55684
510.0364, 14.40145
510.5185, 13.93121
511.0006, 13.58200
511.4828, 13.57603
511.9649, 13.80148
512.4470, 14.04151
512.9291, 14.32290
513.4113, 14.53281
513.8934, 14.68427
514.3755, 14.72330
514.8576, 14.51760
515.3397, 14.09894
515.8218, 13.71290
516.3040, 13.53891
516.7861, 13.55640
517.2682, 13.61788
517.7503, 13.67952
518.2324, 13.84483
518.7145, 14.26635
519.1967, 14.71166
519.6788, 14.94612
520.1609, 14.94329
520.6430, 14.86654
521.1251, 14.90887
521.6072, 15.06035
522.0894, 14.94190
522.5715, 14.27282
523.0536, 13.78401
523.5357, 13.75438
524.0178, 14.00053
524.4999, 14.37266
524.9821, 14.85233
525.4642, 15.25383
525.9463, 15.39470
526.4284, 15.30972
526.9105, 15.13855
527.3926, 14.87445
527.8748, 14.60023
528.3569, 14.32032
528.8390, 14.08034
529.3211, 14.03981
529.8032, 14.43720
530.2853, 14.78442
530.7675, 14.71449
531.2496, 14.42319
531.7317, 14.31803
532.2138, 14.51948
532.6959, 14.81505
533.1780, 14.94841
533.6602, 14.89884
534.1423, 14.80790
534.6244, 14.47206
535.1065, 14.31981
535.5886, 14.67758
536.0707, 15.27512
536.5529, 15.72719
537.0350, 15.87540
537.5171, 15.77908
537.9992, 15.45678
538.4813, 14.82135
538.9634, 14.41311
539.4456, 14.36228
539.9277, 14.43752
540.4098, 14.58769
540.8919, 14.77507
541.3740, 14.93505
541.8561, 15.03872
542.3383, 15.11278
542.8204, 15.18143
543.3025, 15.24578
543.7846, 15.33384
544.2667, 15.49141
544.7488, 15.59746
545.2310, 15.45758
545.7131, 15.10463
546.1952, 14.84236
546.6773, 14.87677
547.1594, 14.86766
547.6415, 14.46185
548.1237, 13.83809
548.6058, 13.43553
549.0879, 13.43229
549.5700, 13.71635
550.0521, 14.15033
550.5342, 14.91143
551.0164, 15.25585
551.4985, 14.91304
551.9806, 14.49650
552.4627, 14.17831
552.9448, 14.00110
553.4269, 13.99945
553.9091, 14.19453
554.3912, 14.52219
554.8733, 14.92079
555.3554, 15.42826
555.8375, 15.75291
556.3196, 15.81170
556.8018, 15.71948
557.2839, 15.53970
557.7660, 15.28222
558.2481, 14.96636
558.7302, 14.53611
559.2123, 14.12680
559.6945, 13.81267
560.1766, 13.62252
560.6587, 13.78334
561.1408, 14.46911
561.6229, 15.16960
562.1050, 15.19268
562.5872, 14.39933
563.0693, 13.86642
563.5514, 13.66938
564.0335, 13.67262
564.5156, 13.92073
564.9977, 14.29716
565.4799, 14.62018
565.9620, 14.81555
566.4441, 14.92222
566.9262, 15.01401
567.4083, 15.12645
567.8904, 15.07663
568.3726, 14.53428
568.8547, 14.17477
569.3368, 14.39280
569.8189, 14.90705
570.3010, 15.23958
570.7831, 15.19952
571.2653, 15.02549
571.7474, 14.96780
572.2295, 15.02066
572.7116, 15.16303
573.1937, 15.44560
573.6758, 15.67998
574.1580, 15.65800
574.6401, 15.44654
575.1222, 15.30924
575.6043, 15.37893
576.0864, 15.40469
576.5685, 15.16087
577.0507, 14.82142
577.5328, 14.70563
578.0149, 14.88438
578.4970, 15.16936
578.9791, 15.41032
579.4612, 15.62470
579.9434, 15.35445
580.4255, 13.70077
580.9076, 12.62408
581.3897, 12.83108
581.8718, 13.60888
582.3539, 14.24739
582.8361, 14.56001
583.3182, 14.67292
583.8003, 14.59192
584.2824, 14.37476
584.7645, 14.52810
585.2466, 15.24593
585.7288, 15.78438
586.2108, 15.69774
586.6929, 15.24175
587.1750, 14.72498
587.6572, 14.11230
588.1393, 13.68607
588.6214, 13.64478
589.1035, 13.82777
589.5856, 13.99922
590.0677, 14.15476
590.5499, 14.51376
591.0320, 15.27669
591.5141, 16.26875
591.9962, 16.82987
592.4783, 16.59457
592.9604, 16.41713
593.4426, 16.32946
593.9247, 16.28325
594.4068, 16.24132
594.8889, 16.20916
595.3710, 16.23969
595.8531, 16.40447
596.3353, 16.57627
596.8174, 16.39067
597.2995, 15.76296
597.7816, 15.26181
598.2637, 14.97761
598.7458, 14.91040
599.2280, 15.07731
599.7101, 15.45046
600.1922, 15.88022
600.6743, 16.49330
601.1564, 16.99436
601.6385, 17.00239
602.1207, 16.68741
602.6028, 16.66273
603.0849, 17.16563
603.5670, 17.59014
604.0491, 17.04142
604.5313, 15.22292
605.0134, 14.29946
605.4955, 14.77859
605.9776, 15.43872
606.4597, 16.07682
606.9418, 16.59506
607.4240, 16.89143
607.9061, 16.94094
608.3882, 16.81177
608.8703, 16.44092
609.3524, 15.87372
609.8345, 15.81670
610.3167, 16.56190
610.7988, 17.10892
611.2809, 16.74560
611.7630, 15.98730
612.2451, 15.50978
612.7272, 15.38807
613.2094, 15.44760
613.6915, 15.67754
614.1736, 16.00771
614.6557, 16.45282
615.1378, 16.95759
615.6199, 17.21650
616.1021, 17.03102
616.5842, 16.50841
617.0663, 15.93456
617.5484, 14.99778
618.0305, 14.55487
618.5126, 14.83536
618.9948, 15.34706
619.4769, 16.00398
619.9590, 16.65051
620.4411, 16.99259
620.9232, 16.84819
621.4053, 16.47767
621.8875, 16.26918
622.3696, 16.22097
622.8517, 16.21913
623.3338, 16.24223
623.8159, 16.31628
624.2980, 16.56305
624.7802, 16.88857
625.2623, 16.95835
625.7444, 16.41985
626.2265, 16.02455
626.7086, 16.30474
627.1907, 16.85896
627.6729, 17.10275
628.1550, 16.94124
628.6371, 16.66285
629.1192, 16.52662
629.6013, 16.50024
630.0834, 16.29394
630.5656, 15.55124
631.0477, 15.23599
631.5298, 15.74176
632.0119, 16.47057
632.4940, 17.05090
632.9761, 17.43668
633.4583, 17.69153
633.9404, 17.81429
634.4225, 17.86065
634.9046, 17.87401
635.3867, 17.86559
635.8688, 18.02288
636.3510, 18.48002
636.8331, 18.93495
637.3152, 18.95834
637.7973, 18.48664
638.2794, 18.33100
638.7615, 18.91102
639.2437, 19.35155
639.7258, 19.16387
640.2079, 18.66739
640.6900, 18.25574
641.1721, 18.05881
641.6542, 18.10135
642.1364, 18.47291
642.6185, 19.13692
643.1006, 19.62720
643.5827, 19.99026
644.0648, 20.06900
644.5469, 19.33931
645.0291, 18.59243
645.5112, 18.69249
645.9933, 19.68713
646.4754, 20.51871
646.9575, 20.64274
647.4396, 20.41937
647.9218, 20.05782
648.4039, 19.66237
648.8860, 19.61773
649.3681, 20.10071
649.8502, 20.83480
650.3323, 21.43327
650.8145, 21.92373
651.2966, 22.14186
651.7787, 21.86664
652.2608, 21.58602
652.7429, 21.37367
653.2250, 21.27263
653.7072, 21.36406
654.1893, 21.65764
654.6714, 21.98496
655.1535, 22.19226
655.6356, 22.30651
656.1177, 22.46333
656.5999, 22.69290
657.0820, 22.69810
657.5641, 22.19797
658.0462, 21.52736
658.5283, 21.34636
659.0104, 21.72319
659.4926, 22.10329
659.9747, 22.56776
660.4568, 22.86490
660.9389, 22.76334
661.4210, 22.38359
661.9031, 21.94870
662.3853, 21.55027
662.8674, 21.21182
663.3495, 20.96432
663.8316, 20.80900
664.3137, 20.73453
664.7958, 20.80857
665.2780, 20.84006
665.7601, 20.82395
666.2422, 20.68000
666.7243, 20.19589
667.2064, 19.28578
667.6885, 18.63286
668.1707, 18.95117
668.6528, 19.43089
669.1349, 18.88114
669.6170, 17.55029
670.0991, 16.76561
670.5812, 17.17661
671.0634, 18.16465
671.5455, 18.66588
672.0276, 18.55857
672.5097, 18.41437
672.9918, 18.20210
673.4739, 17.98675
673.9561, 17.89304
674.4382, 17.76210
674.9203, 17.29720
675.4024, 16.42929
675.8845, 15.66265
676.3666, 15.51913
676.8488, 15.73918
677.3309, 15.72390
677.8130, 15.45112
678.2951, 15.30229
678.7772, 15.51622
679.2593, 15.83961
679.7415, 15.77340
680.2236, 15.07872
680.7057, 14.74150
681.1878, 15.04426
681.6699, 15.39121
682.1520, 15.54276
682.6342, 15.55324
683.1163, 15.49432
683.5984, 15.39888
684.0805, 15.35528
684.5626, 15.55130
685.0447, 15.90492
685.5269, 15.90917
686.0090, 15.47966
686.4911, 15.13948
686.9732, 15.14763
687.4553, 15.33846
687.9374, 15.50046
688.4196, 15.66379
688.9017, 15.59387
689.3838, 14.96674
689.8659, 14.38398
690.3480, 14.19982
690.8301, 14.31436
691.3123, 14.54826
691.7944, 14.83588
692.2765, 15.18662
692.7586, 15.74847
693.2407, 16.45647
693.7228, 16.23268
694.2050, 14.57079
694.6871, 13.35296
695.1692, 13.64673
695.6513, 14.39099
696.1334, 14.32203
696.6155, 13.43649
697.0977, 12.93875
697.5798, 13.60599
698.0619, 14.38653
698.5440, 14.39360
699.0261, 13.95532
699.5082, 13.83716
699.9904, 14.23599
700.4725, 14.65384
700.9546, 14.51108
701.4367, 13.86026
701.9188, 13.50260
702.4009, 13.52429
702.8831, 13.67203
703.3652, 14.08587
703.8473, 14.45061
704.3294, 14.49063
704.8115, 14.23786
705.2936, 13.96838
705.7758, 13.81657
706.2579, 13.66570
706.7400, 13.20672
707.2221, 12.70978
707.7042, 12.92157
708.1863, 13.97525
708.6685, 15.09747
709.1506, 15.59870
709.6327, 15.53263
710.1148, 15.26929
710.5969, 14.68268
711.0790, 14.12942
711.5612, 13.50691
712.0433, 13.05742
712.5254, 12.99276
713.0075, 13.24173
713.4896, 13.61669
713.9717, 14.25544
714.4539, 14.60107
714.9360, 13.68246
715.4181, 12.18622
715.9002, 11.82443
716.3823, 12.82197
716.8644, 14.07238
717.3466, 14.82920
717.8287, 15.13396
718.3108, 15.12794
718.7929, 14.61643
719.2750, 14.15975
719.7571, 13.56384
720.2393, 13.23247
720.7214, 13.64448
721.2035, 14.40781
721.6856, 14.72411
722.1677, 14.25437
722.6498, 13.72760
723.1320, 13.80528
723.6141, 14.24492
724.0962, 14.58609
724.5783, 14.78822
725.0604, 14.91440
725.5425, 15.00698
726.0247, 15.01729
726.5068, 14.82629
726.9889, 14.32259
727.4710, 13.95756
727.9531, 13.72565
728.4352, 13.63632
728.9174, 13.77442
729.3995, 14.02049
729.8816, 14.29333
730.3637, 14.56305
730.8458, 14.61776
731.3279, 13.94060
731.8101, 13.14227
732.2922, 13.48952
732.7743, 14.77924
733.2564, 15.51496
733.7385, 15.09476
734.2206, 14.32926
734.7028, 14.26141
735.1849, 14.94789
735.6670, 15.47661
736.1491, 15.88180
736.6312, 16.06983
737.1133, 15.89868
737.5955, 15.60040
738.0776, 15.36047
738.5597, 15.19089
739.0418, 15.00851
739.5239, 14.64651
740.0060, 14.40218
740.4882, 14.75357
740.9703, 15.50629
741.4524, 16.07729
741.9345, 16.34418
742.4166, 16.44319
742.8987, 16.50618
743.3809, 16.47740
743.8630, 16.03031
744.3451, 14.56103
744.8272, 13.78590
745.3093, 14.31252
745.7914, 15.00790
746.2736, 15.30303
746.7557, 15.30875
747.2378, 15.33749
747.7199, 15.49893
748.2020, 15.64085
748.6841, 15.69162
749.1663, 15.62731
749.6484, 15.21427
750.1305, 14.55198
750.6126, 14.42581
751.0947, 15.29402
751.5768, 16.56416
752.0590, 17.17368
752.5411, 17.00477
753.0232, 16.71990
753.5053, 16.14252
753.9874, 15.68849
754.4695, 15.43934
754.9517, 15.39313
755.4338, 15.65685
755.9159, 16.21536
756.3980, 16.60531
756.8801, 16.43977
757.3622, 16.15256
757.8444, 16.28161
758.3265, 16.60511
758.8086, 16.54271
759.2907, 15.95996
759.7728, 15.16946
760.2549, 14.40980
760.7371, 13.75384
761.2192, 13.74991
761.7013, 14.73262
762.1834, 15.47030
762.6655, 15.74359
763.1476, 15.71188
763.6298, 15.40968
764.1119, 14.90621
764.5940, 14.35107
765.0761, 13.59947
765.5582, 13.16282
766.0403, 13.43143
766.5225, 14.04908
767.0046, 14.77943
767.4867, 15.49255
767.9688, 15.92262
768.4509, 15.93275
768.9330, 15.68925
769.4152, 15.40578
769.8973, 15.07189
770.3794, 14.95078
770.8615, 15.10422
771.3436, 15.33266
771.8257, 15.71939
772.3079, 16.00600
772.7900, 15.66213
773.2721, 14.60271
773.7542, 14.04729
774.2363, 14.87581
774.7184, 15.48825
775.2006, 14.61482
775.6827, 13.27550
776.1648, 13.01239
776.6469, 13.93972
777.1290, 14.85553
777.6111, 14.80948
778.0933, 14.15261
778.5754, 13.57126
779.0575, 13.07067
779.5396, 12.88389
780.0217, 13.11958
780.5038, 13.45324
780.9860, 13.69773
781.4681, 13.82285
781.9502, 13.04902
782.4323, 13.86658
782.9144, 14.33960
783.3965, 14.48658
783.8787, 13.33106
784.3608, 13.85746
784.8429, 13.70983
785.3250, 13.53455
785.8071, 14.29768
786.2892, 13.33160
786.7714, 14.07985
787.2535, 14.14377
787.7356, 14.52089
788.2177, 14.21980
788.6998, 14.12819
789.1819, 14.71500
789.6641, 14.92617
790.1462, 14.54701
790.6283, 14.94404
791.1104, 13.95427
791.5925, 14.18143
792.0746, 14.93365
792.5568, 14.58860
793.0389, 14.99802
793.5210, 15.12010
794.0031, 13.93629
794.4852, 15.02355
794.9673, 15.12864
795.4495, 14.22528
795.9316, 15.23472
796.4137, 14.47038
796.8958, 14.33917
797.3779, 14.68444
797.8600, 14.53299
798.3422, 15.16467
798.8243, 15.04191
799.3064, 14.85175
799.7885, 14.95575
800.2706, 14.77989
800.7527, 14.16114
801.2349, 13.76584
801.7170, 14.00318
802.1991, 14.54170
802.6812, 15.03479
803.1633, 15.49311
803.6454, 15.59331
804.1276, 14.78360
804.6097, 14.24769
805.0918, 14.79103
805.5739, 15.57503
806.0560, 15.64939
806.5381, 15.05519
807.0203, 14.47108
807.5024, 14.26302
807.9845, 14.33288
808.4666, 14.68644
808.9487, 15.21345
809.4308, 15.47553
809.9130, 15.42009
810.3951, 15.16708
810.8772, 14.72768
811.3593, 14.27050
811.8414, 14.16328
812.3235, 14.54868
812.8057, 14.74300
813.2878, 14.46152
813.7699, 14.34653
814.2520, 14.80038
814.7341, 15.34796
815.2162, 15.47868
815.6984, 15.17890
816.1805, 14.84240
816.6626, 14.62079
817.1447, 14.42656
817.6268, 14.03776
818.1089, 13.70370
818.5911, 14.04489
819.0732, 14.96387
819.5553, 15.46032
820.0374, 14.81330
820.5195, 13.72346
821.0016, 13.83637
821.4838, 15.20499
821.9659, 15.76099
822.4480, 15.15349
822.9301, 14.39139
823.4122, 13.82006
823.8943, 13.53446
824.3765, 13.84226
824.8586, 14.97149
825.3407, 15.48206
825.8228, 14.65097
826.3049, 14.01273
826.7870, 14.40666
827.2692, 15.04264
827.7513, 14.99302
828.2334, 14.28688
828.7155, 13.66002
829.1976, 13.45100
829.6797, 13.59326
830.1619, 14.33362
830.6440, 15.30006
831.1261, 15.48963
831.6082, 14.85450
832.0903, 14.18303
832.5724, 13.93673
833.0546, 13.85349
833.5367, 13.31402
834.0188, 12.13974
834.5009, 11.83142
834.9830, 12.92795
835.4651, 13.79577
835.9473, 13.58565
836.4294, 13.06388
836.9115, 13.14811
837.3936, 13.80050
837.8757, 14.22331
838.3578, 14.16437
838.8400, 14.01695
839.3221, 13.94393
839.8042, 13.84094
840.2863, 13.44624
840.7684, 12.91709
841.2505, 12.84396
841.7327, 13.58828
842.2148, 14.33546
842.6969, 13.78870
843.1790, 12.52480
843.6611, 12.33694
844.1432, 13.24833
844.6254, 14.01231
845.1075, 14.10183
845.5896, 13.85730
846.0717, 13.71072
846.5538, 13.66287
847.0359, 13.66728
847.5181, 13.86312
848.0002, 13.83019
848.4823, 13.08502
848.9644, 12.46414
849.4465, 12.74740
849.9286, 13.61471
850.4108, 14.05159
850.8929, 13.61000
851.3750, 13.38087
851.8571, 14.15691
852.3392, 14.93779
852.8214, 14.75942
853.3035, 13.97327
853.7856, 13.37290
854.2677, 13.21400
854.7498, 13.22715
855.2319, 13.09860
855.7141, 12.98977
856.1962, 13.45513
856.6783, 14.36686
857.1604, 14.73066
857.6425, 14.26696
858.1246, 13.75053
858.6068, 13.84166
859.0889, 14.36754
859.5710, 14.72189
860.0531, 15.03810
860.5352, 14.79769
861.0173, 13.45060
861.4995, 12.24812
861.9816, 11.74780
862.4637, 11.70165
862.9458, 11.86637
863.4279, 12.23961
863.9100, 12.53041
864.3922, 12.68166
864.8743, 12.71592
865.3564, 12.63535
865.8385, 12.45041
866.3206, 12.08634
866.8027, 11.61368
867.2849, 11.26426
867.7670, 11.15239
868.2491, 11.29461
868.7312, 12.00329
869.2133, 12.94254
869.6954, 12.98159
870.1776, 12.11281
870.6597, 11.35205
871.1418, 11.14052
871.6239, 11.38369
872.1060, 12.06279
872.5881, 13.16887
873.0703, 13.58449
873.5524, 13.05842
874.0345, 12.47379
874.5166, 11.92630
874.9987, 11.48247
875.4808, 11.20522
875.9630, 11.07127
876.4451, 11.03406
876.9272, 11.16401
877.4093, 11.23279
877.8914, 11.12149
878.3735, 11.01187
878.8557, 10.97436
879.3378, 11.03078
879.8199, 11.32879
880.3020, 11.83715
880.7841, 12.02470
881.2662, 11.22331
881.7484, 10.20200
882.2305, 9.877989
882.7126, 10.08798
883.1947, 10.56256
883.6768, 11.19609
884.1589, 11.75635
884.6411, 12.11663
885.1232, 12.15419
885.6053, 11.38869
886.0874, 9.776547
886.5695, 9.142513
887.0516, 9.747073
887.5338, 10.45059
888.0159, 10.91293
888.4980, 11.13583
888.9801, 11.08519
889.4622, 10.76111
889.9443, 10.40841
890.4265, 9.894764
890.9086, 9.543705
891.3907, 9.472845
891.8728, 9.487293
892.3549, 9.402369
892.8370, 9.332246
893.3192, 9.614519
893.8013, 10.40316
894.2834, 10.84847
894.7655, 10.26524
895.2476, 9.426191
895.7297, 8.739746
896.2119, 8.353265
896.6940, 8.707757
897.1761, 9.689443
897.6582, 10.31923
898.1403, 9.847863
898.6224, 8.877346
899.1046, 8.288511
899.5867, 8.054250
900.0688, 8.135348
900.5509, 8.513995
901.0330, 8.755172
901.5151, 8.635437
901.9973, 8.392537
902.4794, 8.419324
902.9615, 8.716538
903.4436, 8.521465
903.9257, 7.469247
904.4078, 6.917146
904.8900, 7.591194
905.3721, 8.263129
905.8542, 7.770038
906.3363, 6.546548
906.8184, 5.948021
907.3005, 6.214413
907.7827, 6.571654
908.2648, 6.928644
908.7469, 7.353031
909.2290, 8.115151
909.7111, 8.824605
910.1932, 8.878155
910.6754, 8.304564
911.1575, 7.867938
911.6396, 8.076338
912.1217, 8.349618
912.6038, 8.165177
913.0859, 7.783852
913.5681, 7.499216
914.0502, 7.375729
914.5323, 7.526735
915.0144, 7.993599
915.4965, 8.428202
915.9786, 8.252911
916.4607, 7.733263
916.9428, 8.029043
917.4249, 9.045488
917.9070, 9.356507
918.3892, 8.559598
918.8713, 7.647345
919.3534, 7.416595
919.8355, 7.645654
920.3176, 7.669493
920.7997, 7.447509
921.2819, 7.141116
921.7640, 6.576246
922.2461, 6.280396
922.7282, 6.633623
923.2103, 7.215563
923.6924, 7.543688
924.1746, 7.628358
924.6567, 7.594888
925.1388, 7.365720
925.6209, 7.135706
926.1030, 6.752208
926.5851, 6.559233
927.0673, 7.066692
927.5494, 7.838668
928.0315, 7.996678
928.5136, 7.311263
928.9957, 6.720057
929.4778, 6.701121
929.9600, 6.985750
930.4421, 7.756244
930.9242, 8.485747
931.4063, 8.117750
931.8884, 6.805830
932.3705, 5.831075
932.8527, 5.934834
933.3348, 6.463706
933.8169, 6.671856
934.2990, 6.611435
934.7811, 6.321380
935.2632, 5.859905
935.7454, 5.616105
936.2275, 5.718795
936.7096, 5.847216
937.1917, 5.641020
937.6738, 5.273988
938.1559, 5.564584
938.6381, 6.667620
939.1202, 7.057899
939.6023, 6.364032
940.0844, 5.659836
940.5665, 5.424153
941.0486, 5.578581
941.5308, 6.096306
942.0129, 7.054603
942.4950, 7.536660
942.9771, 7.284202
943.4592, 6.942948
943.9413, 6.501215
944.4235, 6.100075
944.9056, 5.763445
945.3877, 5.544850
945.8698, 5.593575
946.3519, 6.002736
946.8340, 6.335905
947.3162, 6.462531
947.7983, 6.508600
948.2804, 6.520150
948.7625, 6.498672
949.2446, 6.434021
949.7267, 6.333018
950.2089, 6.199868
950.6910, 5.990962
951.1731, 5.902519
951.6552, 6.257229
952.1373, 6.696335
952.6194, 6.706105
953.1016, 6.428357
953.5837, 6.262011
954.0658, 6.323304
954.5479, 6.521046
955.0300, 6.844199
955.5121, 7.135002
955.9943, 7.017842
956.4764, 6.610543
956.9585, 6.361710
957.4406, 6.320104
957.9227, 6.493998
958.4048, 6.911641
958.8870, 7.218606
959.3691, 6.863822
959.8512, 5.970817
960.3333, 5.557300
960.8154, 5.675614
961.2975, 5.948846
961.7797, 6.409651
962.2618, 6.670472
962.7439, 6.403124
963.2260, 5.856030
963.7081, 5.540677
964.1902, 5.458203
964.6724, 5.609462
965.1545, 6.191268
965.6366, 6.680420
966.1187, 7.016746
966.6008, 7.160542
967.0829, 7.047374
967.5651, 6.724068
968.0472, 6.300816
968.5293, 5.629356
969.0114, 5.267450
969.4935, 5.488470
969.9756, 5.799031
970.4578, 6.095744
970.9399, 6.289860
971.4220, 6.281365
971.9041, 6.086949
972.3862, 5.807257
972.8683, 5.395866
973.3505, 5.088705
973.8326, 5.007319
974.3147, 5.080420
974.7968, 5.366534
975.2789, 5.712183
975.7610, 5.802134
976.2432, 5.619286
976.7253, 5.547790
977.2074, 5.908129
977.6895, 6.360290
978.1716, 6.480996
978.6537, 6.464256
979.1359, 6.746373
979.6180, 7.224306
980.1001, 7.373131
980.5822, 7.013352
981.0643, 6.506547
981.5464, 6.221425
982.0286, 6.044378
982.5107, 5.615754
982.9928, 5.043792
983.4749, 4.957518
983.9570, 5.407237
984.4391, 5.707541
984.9213, 5.484628
985.4034, 5.090220
985.8855, 5.051728
986.3676, 5.316781
986.8497, 5.467278
987.3318, 5.514172
987.8140, 5.242997
988.2961, 4.516342
988.7782, 3.904643
989.2603, 3.755530
989.7424, 4.015109
990.2245, 4.657910
990.7067, 5.804203
991.1888, 6.315288
991.6709, 5.942155
992.1530, 5.531736
992.6351, 5.169272
993.1172, 4.993338
993.5994, 5.210325
994.0815, 5.669899
994.5636, 5.922829
995.0457, 5.977746
995.5278, 5.799550
996.0099, 5.100526
996.4921, 4.543960
996.9742, 4.271018
997.4563, 4.227323
997.9384, 4.455363
998.4205, 4.875963
998.9026, 5.237027
999.3848, 5.535683
999.8669, 5.700219
1000.349, 5.594851
1000.831, 5.494624
1001.313, 5.612533
1001.795, 5.747561
1002.277, 5.612357
1002.760, 5.264112
1003.242, 5.066230
1003.724, 5.223927
1004.206, 5.315917
1004.688, 5.001660
1005.170, 4.693676
1005.652, 4.751015
1006.134, 5.005389
1006.617, 5.279947
1007.099, 5.477107
1007.581, 5.324453
1008.063, 4.439776
1008.545, 3.789417
1009.027, 4.532348
1009.509, 5.636114
1009.991, 5.775540
1010.473, 5.304843
1010.956, 5.271395
1011.438, 5.832924
1011.920, 6.112165
1012.402, 5.347956
1012.884, 4.435846
1013.366, 4.707566
1013.848, 5.512739
1014.330, 5.507540
1014.813, 4.856783
1015.295, 4.511590
1015.777, 4.751450
1016.259, 5.123503
1016.741, 5.265235
1017.223, 5.239416
1017.705, 5.063054
1018.187, 4.824711
1018.669, 4.892487
1019.152, 5.251340
1019.634, 5.607010
1020.116, 5.845026
1020.598, 5.797817
1021.080, 5.182382
1021.562, 5.486642
1022.044, 4.475402
1022.526, 5.435936
1023.008, 5.839601
1023.491, 5.550193
1023.973, 4.914493
1024.455, 4.021022
1024.937, 3.392534
1025.419, 3.706543
1025.901, 4.726338
1026.383, 5.368871
1026.865, 5.614277
1027.348, 5.788119
1027.830, 5.931310
1028.312, 5.944769
1028.794, 5.774244
1029.276, 5.465251
1029.758, 5.008780
1030.240, 4.477651
1030.722, 4.556336
1031.204, 5.459345
1031.687, 5.988309
1032.169, 5.951499
1032.651, 5.762847
1033.133, 5.588967
1033.615, 5.396535
1034.097, 5.121625
1034.579, 4.777273
1035.061, 4.572820
1035.544, 4.518022
1036.026, 4.593523
1036.508, 4.894969
1036.990, 5.150918
1037.472, 5.268028
1037.954, 5.234700
1038.436, 4.969702
1038.918, 4.488652
1039.401, 4.245929
1039.883, 4.216409
1040.365, 4.493598
1040.847, 5.587565
1041.329, 6.311987
1041.811, 5.792549
1042.293, 4.863704
1042.775, 4.639379
1043.257, 5.098850
1043.740, 5.388503
1044.222, 5.475220
1044.704, 5.443714
1045.186, 5.225042
1045.668, 4.974279
1046.150, 4.477409
1046.632, 4.163617
1047.114, 4.827037
1047.596, 6.362056
1048.079, 7.145340
1048.561, 6.640063
1049.043, 5.981793
1049.525, 4.980440
1050.007, 4.219583
1050.489, 4.181890
1050.971, 4.400795
1051.453, 4.219648
1051.936, 3.689812
1052.418, 3.556961
1052.900, 4.303653
1053.382, 4.827017
1053.864, 4.824189
1054.346, 4.657628
1054.828, 4.394171
1055.310, 4.153506
1055.792, 4.048106
1056.275, 4.087179
1056.757, 4.260238
1057.239, 4.636417
1057.721, 4.996788
1058.203, 5.426281
1058.685, 5.660806
1059.167, 5.454534
1059.649, 5.039767
1060.131, 4.541147
1060.614, 4.076416
1061.096, 4.067600
1061.578, 4.944648
1062.060, 5.429816
1062.542, 4.531659
1063.024, 3.757372
1063.506, 4.241083
1063.988, 5.118876
1064.471, 5.348680
1064.953, 4.996294
1065.435, 4.765170
1065.917, 4.901854
1066.399, 4.961014
1066.881, 4.650851
1067.363, 4.346972
1067.845, 4.194148
1068.328, 4.218018
1068.810, 4.583976
1069.292, 5.131979
1069.774, 5.406506
1070.256, 5.268406
1070.738, 4.936641
1071.220, 4.028732
1071.702, 3.516302
1072.184, 4.501620
1072.667, 5.749822
1073.149, 5.921175
1073.631, 5.222870
1074.113, 4.440368
1074.595, 3.744063
1075.077, 3.429126
1075.559, 3.916053
1076.041, 4.479395
1076.523, 4.918859
1077.006, 5.067547
1077.488, 4.568693
1077.970, 3.715425
1078.452, 3.089411
1078.934, 2.829514
1079.416, 2.897379
1079.898, 3.615825
1080.380, 4.227717
1080.862, 4.253297
1081.345, 4.078098
1081.827, 3.946158
1082.309, 3.921349
1082.791, 4.188159
1083.273, 4.726984
1083.755, 4.860680
1084.237, 3.862826
1084.719, 3.022240
1085.202, 3.070891
1085.684, 3.405737
1086.166, 3.617239
1086.648, 3.742433
1087.130, 3.926635
1087.612, 4.168703
1088.094, 4.291452
1088.576, 4.171579
1089.058, 4.036438
1089.541, 3.996835
1090.023, 3.962563
1090.505, 3.733456
1090.987, 3.557224
1091.469, 3.940054
1091.951, 4.733212
1092.433, 5.038434
1092.915, 4.353826
1093.397, 3.829449
1093.880, 4.099439
1094.362, 4.447214
1094.844, 4.477335
1095.326, 4.344370
1095.808, 4.133386
1096.290, 3.941066
1096.772, 4.046738
1097.254, 4.636129
1097.737, 4.915408
1098.219, 4.347931
1098.701, 3.753384
1099.183, 3.449101
1099.665, 3.326696
1100.147, 3.348984
1100.629, 3.445090
1101.111, 3.481982
1101.594, 3.431198
1102.076, 3.415569
1102.558, 3.646368
1103.040, 3.670898
1103.522, 3.047615
1104.004, 2.464690
1104.486, 2.493387
1104.968, 2.846907
1105.450, 3.019740
1105.932, 2.967906
1106.415, 3.011538
1106.897, 3.351237
1107.379, 3.580165
1107.861, 3.476450
1108.343, 3.408370
1108.825, 3.644044
1109.307, 3.968503
1109.789, 4.130047
1110.272, 4.127340
1110.754, 4.053328
1111.236, 3.748080
1111.718, 3.706997
1112.200, 4.288259
1112.682, 4.737486
1113.164, 4.647470
1113.646, 4.442461
1114.129, 4.611981
1114.611, 4.982076
1115.093, 4.909579
1115.575, 4.145274
1116.057, 3.696935
1116.539, 3.974268
1117.021, 3.936375
1117.503, 2.973006
1117.985, 2.126402
1118.468, 2.164766
1118.950, 2.724212
1119.432, 3.163896
1119.914, 3.492444
1120.396, 3.581824
1120.878, 3.293788
1121.360, 3.065883
1121.842, 2.982514
1122.324, 2.884545
1122.807, 2.565713
1123.289, 2.385421
1123.771, 2.952911
1124.253, 2.807876
1124.735, 2.866059
1125.217, 3.347063
1125.699, 2.954680
1126.181, 3.549521
1126.664, 3.924140
1127.146, 3.600393
1127.628, 3.076680
1128.110, 2.762928
1128.592, 2.659167
1129.074, 2.836062
1129.556, 3.352825
1130.038, 3.476716
1130.521, 3.154816
1131.003, 2.780265
1131.485, 2.417013
1131.967, 2.160977
1132.449, 2.062854
1132.931, 2.157378
1133.413, 2.545749
1133.895, 3.174020
1134.377, 3.682679
1134.859, 4.075093
1135.342, 4.370615
1135.824, 4.570384
1136.306, 4.508935
1136.788, 4.103614
1137.270, 3.787417
1137.752, 4.098845
1138.234, 3.662097
1138.716, 4.385903
1139.199, 3.538361
1139.681, 3.405875
1140.163, 3.897808
1140.645, 3.944720
1141.127, 3.299465
1141.609, 2.599329
1142.091, 2.258995
1142.573, 2.242069
1143.056, 2.677195
1143.538, 3.298840
1144.020, 3.594043
1144.502, 3.614348
1144.984, 3.392220
1145.466, 3.054917
1145.948, 3.114778
1146.430, 3.774153
1146.912, 4.271502
1147.395, 3.747051
1147.877, 2.936393
1148.359, 2.524431
1148.841, 2.453622
1149.323, 2.870388
1149.805, 3.482369
1150.287, 3.621240
1150.769, 3.207010
1151.251, 2.848639
1151.734, 2.868979
1152.216, 3.012476
1152.698, 3.294979
1153.180, 3.440705
1153.662, 3.073663
1154.144, 2.527286
1154.626, 2.066470
1155.108, 1.853988
1155.591, 2.345963
1156.073, 3.851911
1156.555, 4.818943
1157.037, 4.323339
1157.519, 3.686184
1158.001, 3.242114
1158.483, 3.062325
1158.965, 3.412978
1159.448, 3.947388
1159.930, 4.044427
1160.412, 3.661964
1160.894, 3.380397
1161.376, 3.366043
1161.858, 3.292409
1162.340, 3.059739
1162.822, 2.857080
1163.304, 2.730813
1163.786, 2.687998
1164.269, 2.760049
1164.751, 2.915421
1165.233, 3.047278
1165.715, 3.149949
1166.197, 3.287432
1166.679, 3.620842
1167.161, 3.464104
1167.643, 2.418529
1168.126, 1.556582
1168.608, 1.491769
1169.090, 2.046566
1169.572, 3.128914
1170.054, 4.547034
1170.536, 4.563737
1171.018, 3.080350
1171.500, 2.570035
1171.983, 3.269122
1172.465, 4.156662
1172.947, 4.910930
1173.429, 4.987866
1173.911, 3.810985
1174.393, 2.228237
1174.875, 1.973972
1175.357, 2.666178
1175.839, 2.835910
1176.322, 2.580267
1176.804, 2.300780
1177.286, 2.145217
1177.768, 2.537074
1178.250, 3.646781
1178.732, 4.692503
1179.214, 4.884228
1179.696, 4.669249
1180.178, 4.538733
1180.661, 4.478622
1181.143, 4.503263
1181.625, 4.568080
1182.107, 4.555730
1182.589, 4.471833
1183.071, 4.528939
1183.553, 4.945301
1184.035, 5.035088
1184.518, 3.884339
1185.000, 2.807057
1185.482, 2.865775
1185.964, 3.370852
1186.446, 3.728832
1186.928, 3.850541
1187.410, 3.645128
1187.892, 3.088435
1188.375, 2.751322
1188.857, 2.765064
1189.339, 3.016131
1189.821, 3.933769
1190.303, 4.543404
1190.785, 3.999010
1191.267, 3.213492
1191.749, 3.310307
1192.231, 3.993627
1192.714, 4.081171
1193.196, 3.360035
1193.678, 2.840365
1194.160, 2.451948
1194.642, 2.514745
1195.124, 3.279027
1195.606, 3.971077
1196.088, 4.165582
1196.570, 3.989361
1197.053, 3.562861
1197.535, 2.965451
1198.017, 2.561575
1198.499, 2.353137
1198.981, 2.456075
1199.463, 2.858115
1199.945, 3.080822
1200.427, 2.997930
1200.910, 2.987671
1201.392, 3.331569
1201.874, 3.700948
1202.356, 3.625571
1202.838, 3.237248
1203.320, 2.574648
1203.802, 1.921473
1204.284, 2.037389
1204.766, 2.782677
1205.249, 3.548178
1205.731, 4.092574
1206.213, 4.195317
1206.695, 3.486127
1207.177, 2.861601
1207.659, 3.218571
1208.141, 3.744756
1208.623, 3.768653
1209.105, 3.500573
1209.588, 3.162795
1210.070, 2.833103
1210.552, 2.627609
1211.034, 2.592877
1211.516, 2.463071
1211.998, 1.985897
1212.480, 1.683971
1212.962, 1.700488
1213.445, 1.901941
1213.927, 2.500497
1214.409, 3.012374
1214.891, 2.757379
1215.373, 1.975241
1215.855, 1.768154
1216.337, 2.294456
1216.819, 2.714668
1217.302, 3.026970
1217.784, 3.218715
1218.266, 3.261237
1218.748, 3.315437
1219.230, 3.482049
1219.712, 3.651155
1220.194, 3.684445
1220.676, 3.603268
1221.158, 3.402911
1221.641, 3.144052
1222.123, 3.253376
1222.605, 3.645411
1223.087, 3.703973
1223.569, 3.341648
1224.051, 3.035635
1224.533, 3.046152
1225.015, 3.313129
1225.497, 4.073909
1225.980, 4.763798
1226.462, 4.649525
1226.944, 4.116866
1227.426, 3.497912
1227.908, 2.950587
1228.390, 2.744085
1228.872, 2.853492
1229.354, 2.823162
1229.837, 2.338656
1230.319, 2.167429
1230.801, 2.926566
1231.283, 3.587488
1231.765, 3.496824
1232.247, 3.350786
1232.729, 3.951092
1233.211, 3.670337
1233.693, 3.561780
1234.176, 3.630671
1234.658, 3.056886
1235.140, 3.078723
1235.622, 2.950227
1236.104, 2.537229
1236.586, 2.362313
1237.068, 2.607582
1237.550, 2.999938
1238.032, 3.361060
1238.515, 3.674432
1238.997, 3.967920
1239.479, 4.155713
1239.961, 3.713363
1240.443, 2.844710
1240.925, 2.480830
1241.407, 2.641464
1241.889, 3.061333
1242.372, 3.586828
1242.854, 3.810505
1243.336, 3.451940
1243.818, 2.900300
1244.300, 2.146861
1244.782, 1.767050
1245.264, 2.852207
1245.746, 4.210793
1246.229, 4.191201
1246.711, 3.382783
1247.193, 3.339910
1247.675, 4.201416
1248.157, 4.493768
1248.639, 3.391051
1249.121, 2.642967
1249.603, 2.676999
1250.085, 2.945455
1250.568, 3.576135
1251.050, 3.999166
1251.532, 3.713520
1252.014, 3.118861
1252.496, 2.905090
1252.978, 3.021324
1253.460, 2.813931
1253.942, 2.203530
1254.424, 2.240337
1254.907, 3.013597
1255.389, 3.706020
1255.871, 4.086596
1256.353, 4.005172
1256.835, 3.318702
1257.317, 2.762032
1257.799, 3.617107
1258.281, 4.888334
1258.764, 4.598539
1259.246, 3.524533
1259.728, 2.991611
1260.210, 2.908561
1260.692, 2.642242
1261.174, 2.203099
1261.656, 2.378698
1262.138, 3.663249
1262.620, 4.580111
1263.103, 4.145721
1263.585, 3.596204
1264.067, 3.572527
1264.549, 3.530826
1265.031, 2.726648
1265.513, 1.904134
1265.995, 2.370814
1266.477, 3.781280
1266.959, 4.245878
1267.442, 3.390641
1267.924, 3.194881
1268.406, 3.842925
1268.888, 4.301100
1269.370, 4.368401
1269.852, 4.243073
1270.334, 3.993680
1270.816, 3.946916
1271.299, 4.567423
1271.781, 5.298323
1272.263, 4.843557
1272.745, 3.687531
1273.227, 2.805072
1273.709, 2.305865
1274.191, 2.480747
1274.673, 3.156981
1275.156, 3.727431
1275.638, 3.980848
1276.120, 4.000625
1276.602, 3.617785
1277.084, 3.387733
1277.566, 3.711751
1278.048, 4.121310
1278.530, 4.554220
1279.012, 4.745691
1279.495, 4.214679
1279.977, 3.320698
1280.459, 2.908781
1280.941, 2.983495
1281.423, 3.308261
1281.905, 4.058761
1282.387, 4.327977
1282.869, 3.936145
1283.351, 3.818134
1283.834, 4.288313
1284.316, 4.657476
1284.798, 4.444392
1285.280, 4.000622
1285.762, 3.750614
1286.244, 3.695300
##END=



