##NAMES=Pyrope
##RRUFFID=R070637
##IDEAL CHEMISTRY=Mg_3_Al_2_(SiO_4_)_3_
##LOCALITY=Dora Maira Massif, Piedmont, Italy
##OWNER=RRUFF
##SOURCE=Jibamitra Ganguly
##DESCRIPTION=Colorless massive, associated with muscovite, quartz and small black rutile
##STATUS=The identification of this mineral has been confirmed by single-crystal X-ray diffraction.
##URL=rruff.info/R070637
154.8397, 10107.30
155.3218, 10113.20
155.8039, 10074.90
156.2860, 10059.44
156.7682, 10093.93
157.2503, 10153.31
157.7324, 10206.88
158.2145, 10261.99
158.6966, 10298.34
159.1787, 10300.62
159.6609, 10243.97
160.1430, 10206.13
160.6251, 10231.77
161.1072, 10295.37
161.5893, 10337.91
162.0714, 10316.13
162.5536, 10278.44
163.0357, 10258.00
163.5178, 10276.40
163.9999, 10298.63
164.4820, 10308.97
164.9641, 10309.00
165.4463, 10307.95
165.9284, 10308.24
166.4105, 10310.43
166.8926, 10315.09
167.3747, 10316.73
167.8568, 10324.52
168.3390, 10347.93
168.8211, 10387.58
169.3032, 10427.74
169.7853, 10438.92
170.2674, 10444.30
170.7495, 10484.57
171.2317, 10609.31
171.7138, 10763.99
172.1959, 10895.13
172.6780, 10995.36
173.1601, 11077.44
173.6422, 11149.06
174.1244, 11210.98
174.6065, 11263.78
175.0886, 11316.32
175.5707, 11358.85
176.0528, 11376.26
176.5349, 11362.13
177.0171, 11326.40
177.4992, 11277.39
177.9813, 11215.64
178.4634, 11143.15
178.9455, 11048.45
179.4276, 10943.72
179.9098, 10855.25
180.3919, 10795.27
180.8740, 10754.10
181.3561, 10715.93
181.8382, 10681.16
182.3203, 10645.96
182.8025, 10600.82
183.2846, 10550.44
183.7667, 10511.72
184.2488, 10498.10
184.7309, 10502.33
185.2130, 10505.84
185.6951, 10509.25
186.1773, 10509.91
186.6594, 10498.67
187.1415, 10477.52
187.6236, 10465.47
188.1057, 10483.82
188.5878, 10523.60
189.0700, 10536.00
189.5521, 10504.87
190.0342, 10463.23
190.5163, 10481.54
190.9984, 10561.27
191.4805, 10642.85
191.9627, 10676.43
192.4448, 10666.14
192.9269, 10667.23
193.4090, 10692.93
193.8911, 10733.28
194.3732, 10754.08
194.8554, 10751.42
195.3375, 10752.90
195.8196, 10795.78
196.3017, 10881.70
196.7838, 10942.71
197.2659, 10953.62
197.7481, 10923.43
198.2302, 10907.74
198.7123, 10906.09
199.1944, 10921.13
199.6765, 10963.64
200.1586, 11038.83
200.6408, 11105.38
201.1229, 11141.06
201.6050, 11144.72
202.0871, 11175.34
202.5692, 11234.91
203.0513, 11317.84
203.5335, 11420.32
204.0156, 11547.15
204.4977, 11672.19
204.9798, 11778.10
205.4619, 11857.95
205.9440, 11963.83
206.4262, 12108.13
206.9083, 12270.89
207.3904, 12400.80
207.8725, 12491.10
208.3546, 12566.17
208.8367, 12647.88
209.3189, 12749.97
209.8010, 12800.03
210.2831, 12786.80
210.7652, 12718.56
211.2473, 12626.24
211.7294, 12500.93
212.2116, 12369.46
212.6937, 12257.39
213.1758, 12175.00
213.6579, 12074.80
214.1400, 11937.56
214.6221, 11768.12
215.1043, 11645.22
215.5864, 11579.59
216.0685, 11543.63
216.5506, 11514.42
217.0327, 11497.49
217.5148, 11472.24
217.9970, 11427.98
218.4791, 11362.48
218.9612, 11320.71
219.4433, 11311.83
219.9254, 11317.11
220.4075, 11311.61
220.8897, 11288.55
221.3718, 11267.64
221.8539, 11256.19
222.3360, 11256.90
222.8181, 11251.44
223.3002, 11236.52
223.7824, 11217.27
224.2645, 11200.28
224.7466, 11174.34
225.2287, 11170.24
225.7108, 11209.36
226.1929, 11325.60
226.6750, 11387.83
227.1572, 11370.73
227.6393, 11306.97
228.1214, 11280.99
228.6035, 11307.64
229.0856, 11350.39
229.5677, 11392.95
230.0499, 11434.83
230.5320, 11477.00
231.0141, 11524.26
231.4962, 11571.63
231.9783, 11597.42
232.4604, 11588.12
232.9426, 11574.11
233.4247, 11575.83
233.9068, 11609.73
234.3889, 11625.49
234.8710, 11617.42
235.3531, 11586.73
235.8353, 11541.94
236.3174, 11467.79
236.7995, 11397.14
237.2816, 11356.94
237.7637, 11365.52
238.2458, 11368.97
238.7280, 11354.58
239.2101, 11322.94
239.6922, 11314.04
240.1743, 11343.37
240.6564, 11379.99
241.1385, 11392.40
241.6207, 11357.79
242.1028, 11340.27
242.5849, 11359.39
243.0670, 11419.88
243.5491, 11454.10
244.0313, 11445.59
244.5134, 11424.56
244.9955, 11428.82
245.4776, 11481.12
245.9597, 11519.34
246.4418, 11526.67
246.9240, 11498.30
247.4061, 11465.23
247.8882, 11417.74
248.3703, 11372.99
248.8524, 11359.95
249.3345, 11402.05
249.8167, 11435.11
250.2988, 11434.96
250.7809, 11387.07
251.2630, 11364.64
251.7451, 11378.90
252.2272, 11411.89
252.7094, 11431.12
253.1915, 11429.38
253.6736, 11425.83
254.1557, 11427.55
254.6378, 11436.75
255.1199, 11444.42
255.6021, 11450.92
256.0842, 11455.68
256.5663, 11456.30
257.0484, 11448.70
257.5305, 11444.26
258.0126, 11448.92
258.4948, 11467.10
258.9769, 11482.22
259.4590, 11492.23
259.9411, 11500.11
260.4232, 11512.65
260.9053, 11526.61
261.3875, 11551.66
261.8696, 11599.00
262.3517, 11682.23
262.8338, 11740.88
263.3159, 11764.65
263.7980, 11763.28
264.2802, 11767.19
264.7623, 11774.15
265.2444, 11790.39
265.7265, 11821.42
266.2086, 11869.88
266.6907, 11921.47
267.1729, 11978.42
267.6550, 12036.05
268.1371, 12073.50
268.6192, 12079.04
269.1013, 12089.20
269.5834, 12135.97
270.0656, 12231.05
270.5477, 12302.60
271.0298, 12330.64
271.5119, 12329.80
271.9940, 12368.32
272.4761, 12458.20
272.9583, 12556.61
273.4404, 12633.60
273.9225, 12686.79
274.4046, 12730.53
274.8867, 12763.56
275.3688, 12789.61
275.8510, 12828.48
276.3331, 12883.91
276.8152, 12940.63
277.2973, 12987.93
277.7794, 13026.07
278.2615, 13052.97
278.7437, 13069.26
279.2258, 13073.97
279.7079, 13063.50
280.1900, 13038.71
280.6721, 12995.89
281.1542, 12925.45
281.6364, 12825.85
282.1185, 12729.74
282.6006, 12645.29
283.0827, 12569.04
283.5648, 12482.90
284.0469, 12383.70
284.5291, 12291.35
285.0112, 12223.21
285.4933, 12179.04
285.9754, 12154.61
286.4575, 12157.08
286.9396, 12176.38
287.4217, 12172.39
287.9038, 12141.15
288.3860, 12113.36
288.8681, 12131.08
289.3502, 12187.39
289.8323, 12221.24
290.3144, 12202.62
290.7965, 12153.08
291.2787, 12136.17
291.7608, 12154.23
292.2429, 12178.65
292.7250, 12178.66
293.2071, 12159.68
293.6892, 12148.67
294.1714, 12159.26
294.6535, 12181.79
295.1356, 12193.81
295.6177, 12195.15
296.0998, 12196.83
296.5819, 12210.96
297.0641, 12234.71
297.5462, 12258.23
298.0283, 12283.19
298.5104, 12303.58
298.9925, 12306.18
299.4746, 12290.81
299.9568, 12271.98
300.4389, 12258.03
300.9210, 12249.85
301.4031, 12249.48
301.8852, 12260.86
302.3673, 12278.12
302.8495, 12293.65
303.3316, 12307.19
303.8137, 12322.23
304.2958, 12349.86
304.7779, 12379.96
305.2600, 12393.87
305.7422, 12363.28
306.2243, 12326.95
306.7064, 12329.86
307.1885, 12370.09
307.6706, 12408.62
308.1527, 12408.28
308.6349, 12391.50
309.1170, 12389.31
309.5991, 12427.10
310.0812, 12473.79
310.5633, 12503.45
311.0454, 12517.74
311.5276, 12539.31
312.0097, 12595.00
312.4918, 12660.88
312.9739, 12710.88
313.4560, 12705.99
313.9381, 12707.13
314.4203, 12759.94
314.9024, 12860.17
315.3845, 12945.10
315.8666, 12965.68
316.3487, 12965.31
316.8308, 12984.94
317.3130, 13036.17
317.7951, 13110.18
318.2772, 13218.05
318.7593, 13355.44
319.2414, 13471.87
319.7235, 13543.44
320.2057, 13591.06
320.6878, 13631.32
321.1699, 13679.92
321.6520, 13709.80
322.1341, 13708.21
322.6162, 13677.86
323.0984, 13644.65
323.5805, 13598.11
324.0626, 13559.67
324.5447, 13543.84
325.0268, 13579.47
325.5089, 13608.38
325.9911, 13617.19
326.4732, 13608.25
326.9553, 13608.81
327.4374, 13632.82
327.9195, 13657.91
328.4016, 13670.96
328.8838, 13645.67
329.3659, 13640.51
329.8480, 13667.26
330.3301, 13720.04
330.8122, 13763.55
331.2943, 13791.99
331.7765, 13816.89
332.2586, 13845.25
332.7407, 13883.50
333.2228, 13912.76
333.7049, 13923.67
334.1870, 13924.78
334.6692, 13955.18
335.1513, 14037.28
335.6334, 14113.87
336.1155, 14146.17
336.5976, 14111.37
337.0797, 14109.06
337.5619, 14158.93
338.0440, 14238.39
338.5261, 14274.49
339.0082, 14250.96
339.4903, 14232.02
339.9724, 14262.27
340.4546, 14350.80
340.9367, 14406.55
341.4188, 14416.18
341.9009, 14401.94
342.3830, 14412.18
342.8651, 14449.42
343.3473, 14488.70
343.8294, 14515.48
344.3115, 14531.48
344.7936, 14552.01
345.2757, 14579.09
345.7578, 14609.69
346.2400, 14636.14
346.7221, 14659.10
347.2042, 14692.36
347.6863, 14748.59
348.1684, 14821.10
348.6505, 14886.96
349.1327, 14943.62
349.6148, 15001.59
350.0969, 15056.12
350.5790, 15117.00
351.0611, 15223.38
351.5432, 15442.14
352.0254, 15700.95
352.5075, 15875.41
352.9896, 15952.59
353.4717, 16021.51
353.9538, 16167.82
354.4359, 16364.82
354.9181, 16556.05
355.4002, 16702.99
355.8823, 16842.96
356.3644, 17009.10
356.8465, 17202.51
357.3286, 17412.46
357.8108, 17647.55
358.2929, 17892.53
358.7750, 18132.07
359.2571, 18358.43
359.7392, 18579.69
360.2213, 18811.31
360.7035, 19050.44
361.1856, 19256.26
361.6677, 19404.70
362.1498, 19514.06
362.6319, 19602.03
363.1140, 19682.33
363.5962, 19731.88
364.0783, 19761.24
364.5604, 19762.94
365.0425, 19685.90
365.5246, 19492.51
366.0067, 19232.31
366.4889, 18936.95
366.9710, 18551.15
367.4531, 18197.12
367.9352, 17898.32
368.4173, 17643.79
368.8994, 17383.73
369.3815, 17104.84
369.8636, 16832.63
370.3458, 16580.50
370.8279, 16344.67
371.3100, 16131.05
371.7921, 15933.28
372.2742, 15757.68
372.7563, 15625.14
373.2385, 15566.18
373.7206, 15501.33
374.2027, 15393.09
374.6848, 15224.10
375.1669, 15084.39
375.6490, 14974.94
376.1312, 14893.74
376.6133, 14841.31
377.0954, 14824.39
377.5775, 14808.76
378.0596, 14780.44
378.5417, 14740.50
379.0239, 14701.38
379.5060, 14660.39
379.9881, 14629.63
380.4702, 14641.33
380.9523, 14693.01
381.4344, 14709.60
381.9166, 14651.84
382.3987, 14543.53
382.8808, 14454.41
383.3629, 14386.23
383.8450, 14318.39
384.3271, 14229.43
384.8093, 14124.59
385.2914, 14021.48
385.7735, 13920.40
386.2556, 13829.14
386.7377, 13766.82
387.2198, 13730.60
387.7020, 13696.77
388.1841, 13648.98
388.6662, 13594.19
389.1483, 13539.44
389.6304, 13480.87
390.1125, 13433.52
390.5947, 13411.84
391.0768, 13411.12
391.5589, 13416.88
392.0410, 13435.38
392.5231, 13449.51
393.0052, 13446.04
393.4874, 13418.75
393.9695, 13383.30
394.4516, 13335.07
394.9337, 13283.38
395.4158, 13245.38
395.8979, 13234.00
396.3801, 13229.62
396.8622, 13226.43
397.3443, 13225.88
397.8264, 13217.99
398.3085, 13190.90
398.7906, 13159.09
399.2728, 13140.23
399.7549, 13136.53
400.2370, 13144.02
400.7191, 13167.30
401.2012, 13208.42
401.6833, 13237.09
402.1655, 13251.17
402.6476, 13255.22
403.1297, 13252.76
403.6118, 13243.53
404.0939, 13228.55
404.5760, 13206.09
405.0582, 13178.00
405.5403, 13153.08
406.0224, 13129.83
406.5045, 13114.53
406.9866, 13116.31
407.4688, 13136.55
407.9509, 13146.35
408.4330, 13141.75
408.9151, 13126.28
409.3972, 13100.38
409.8793, 13064.11
410.3615, 13040.30
410.8436, 13051.86
411.3257, 13087.38
411.8078, 13107.22
412.2899, 13107.59
412.7720, 13098.98
413.2542, 13093.71
413.7363, 13089.90
414.2184, 13081.53
414.7005, 13055.60
415.1826, 13028.92
415.6647, 13025.95
416.1469, 13047.60
416.6290, 13068.19
417.1111, 13066.64
417.5932, 13053.21
418.0753, 13041.48
418.5574, 13028.58
419.0396, 13024.57
419.5217, 13037.53
420.0038, 13065.34
420.4859, 13095.30
420.9680, 13141.35
421.4501, 13176.40
421.9323, 13180.80
422.4144, 13139.60
422.8965, 13085.13
423.3786, 13007.27
423.8607, 12918.99
424.3428, 12856.08
424.8250, 12825.83
425.3071, 12818.05
425.7892, 12833.02
426.2713, 12884.81
426.7534, 12922.38
427.2355, 12938.12
427.7177, 12944.22
428.1998, 12957.46
428.6819, 12977.74
429.1640, 13004.37
429.6461, 13040.54
430.1282, 13085.01
430.6104, 13116.02
431.0925, 13129.75
431.5746, 13138.06
432.0567, 13154.20
432.5388, 13178.38
433.0209, 13195.73
433.5031, 13204.48
433.9852, 13203.44
434.4673, 13184.05
434.9494, 13147.10
435.4315, 13113.73
435.9136, 13108.37
436.3958, 13118.88
436.8779, 13111.25
437.3600, 13076.49
437.8421, 13036.13
438.3242, 13013.75
438.8063, 13005.24
439.2885, 12998.74
439.7706, 12981.53
440.2527, 12967.39
440.7348, 12971.71
441.2169, 12997.17
441.6990, 13023.87
442.1812, 13042.88
442.6633, 13055.85
443.1454, 13065.05
443.6275, 13072.99
444.1096, 13075.01
444.5917, 13058.13
445.0739, 13025.42
445.5560, 13019.98
446.0381, 13084.34
446.5202, 13155.37
447.0023, 13195.89
447.4844, 13179.90
447.9666, 13163.85
448.4487, 13149.85
448.9308, 13136.22
449.4129, 13116.33
449.8950, 13081.38
450.3771, 12963.34
450.8592, 13087.19
451.3413, 13160.90
451.8235, 13187.16
452.3056, 13023.87
452.7877, 13105.34
453.2698, 13088.73
453.7519, 13068.09
454.2340, 13184.02
454.7162, 13048.30
455.1983, 13162.06
455.6804, 13176.23
456.1625, 13235.99
456.6446, 13197.04
457.1267, 13188.58
457.6089, 13278.85
458.0910, 13314.45
458.5731, 13264.14
459.0552, 13326.79
459.5373, 13187.62
460.0194, 13225.55
460.5016, 13339.89
460.9837, 13294.55
461.4658, 13359.00
461.9479, 13381.64
462.4300, 13214.23
462.9121, 13377.33
463.3943, 13397.50
463.8764, 13270.90
464.3585, 13422.67
464.8406, 13316.31
465.3227, 13302.09
465.8048, 13357.20
466.2870, 13340.04
466.7691, 13436.83
467.2512, 13423.84
467.7333, 13401.04
468.2154, 13421.04
468.6975, 13319.74
469.1797, 13443.49
469.6618, 13413.51
470.1439, 13508.97
470.6260, 13543.88
471.1081, 13514.82
471.5902, 13485.21
472.0724, 13484.96
472.5545, 13516.50
473.0366, 13532.01
473.5187, 13527.55
474.0008, 13517.59
474.4829, 13518.32
474.9651, 13529.44
475.4472, 13547.61
475.9293, 13577.26
476.4114, 13609.93
476.8935, 13629.62
477.3756, 13636.57
477.8578, 13633.26
478.3399, 13613.48
478.8220, 13587.21
479.3041, 13568.24
479.7862, 13558.26
480.2683, 13558.84
480.7505, 13584.37
481.2326, 13621.05
481.7147, 13640.07
482.1968, 13605.33
482.6789, 13569.42
483.1610, 13562.08
483.6432, 13588.53
484.1253, 13613.23
484.6074, 13619.04
485.0895, 13622.77
485.5716, 13639.02
486.0537, 13676.82
486.5359, 13717.69
487.0180, 13761.72
487.5001, 13808.00
487.9822, 13851.94
488.4643, 13889.16
488.9464, 13930.81
489.4286, 13986.99
489.9107, 14063.43
490.3928, 14121.70
490.8749, 14159.68
491.3570, 14183.79
491.8391, 14209.03
492.3213, 14235.38
492.8034, 14236.04
493.2855, 14190.08
493.7676, 14116.98
494.2497, 14062.85
494.7318, 14028.11
495.2140, 14003.38
495.6961, 13987.88
496.1782, 13976.14
496.6603, 13959.25
497.1424, 13934.32
497.6245, 13905.13
498.1067, 13873.33
498.5888, 13838.87
499.0709, 13801.87
499.5530, 13739.67
500.0351, 13691.92
500.5172, 13691.32
500.9994, 13749.29
501.4815, 13781.19
501.9636, 13740.49
502.4457, 13678.69
502.9278, 13642.28
503.4099, 13655.25
503.8921, 13667.57
504.3742, 13677.25
504.8563, 13683.97
505.3384, 13681.67
505.8205, 13656.30
506.3026, 13650.22
506.7848, 13689.03
507.2669, 13780.28
507.7490, 13872.28
508.2311, 13972.32
508.7132, 14057.58
509.1953, 14085.55
509.6775, 14061.84
510.1596, 14052.98
510.6417, 14093.14
511.1238, 14152.57
511.6059, 14170.96
512.0880, 14150.46
512.5701, 14119.71
513.0522, 14096.42
513.5344, 14075.01
514.0165, 14046.51
514.4986, 14004.92
514.9807, 13968.56
515.4628, 13954.21
515.9449, 13952.04
516.4271, 13945.57
516.9092, 13942.99
517.3913, 13922.91
517.8734, 13865.18
518.3555, 13767.50
518.8376, 13696.32
519.3198, 13667.40
519.8019, 13662.09
520.2840, 13670.60
520.7661, 13699.92
521.2482, 13730.17
521.7303, 13764.49
522.2125, 13797.00
522.6946, 13812.36
523.1767, 13807.27
523.6588, 13798.70
524.1409, 13790.32
524.6230, 13783.26
525.1052, 13787.99
525.5873, 13805.80
526.0694, 13825.23
526.5515, 13830.92
527.0336, 13828.90
527.5157, 13839.29
527.9979, 13875.67
528.4800, 13910.20
528.9621, 13902.55
529.4442, 13866.60
529.9263, 13843.21
530.4084, 13867.56
530.8906, 13902.02
531.3727, 13918.37
531.8548, 13911.59
532.3369, 13908.88
532.8190, 13928.57
533.3011, 13951.52
533.7833, 13960.04
534.2654, 13920.89
534.7475, 13904.90
535.2296, 13933.80
535.7117, 13991.24
536.1938, 14018.40
536.6760, 14002.56
537.1581, 13981.45
537.6402, 13968.97
538.1223, 13965.40
538.6044, 13971.58
539.0865, 13990.15
539.5687, 14011.63
540.0508, 14022.64
540.5329, 14025.42
541.0150, 14036.06
541.4971, 14065.54
541.9792, 14096.45
542.4614, 14093.78
542.9435, 14064.67
543.4256, 14042.11
543.9077, 14042.87
544.3898, 14061.38
544.8719, 14096.09
545.3541, 14148.83
545.8362, 14201.30
546.3183, 14238.93
546.8004, 14274.31
547.2825, 14321.46
547.7646, 14395.91
548.2468, 14467.76
548.7289, 14530.64
549.2110, 14586.03
549.6931, 14640.27
550.1752, 14691.30
550.6573, 14743.48
551.1395, 14795.97
551.6216, 14845.27
552.1037, 14917.13
552.5858, 15013.58
553.0679, 15129.09
553.5500, 15264.17
554.0322, 15416.88
554.5143, 15562.60
554.9964, 15688.07
555.4785, 15813.56
555.9606, 15973.61
556.4427, 16165.90
556.9249, 16374.61
557.4070, 16595.24
557.8891, 16824.47
558.3712, 17062.56
558.8533, 17309.55
559.3354, 17550.86
559.8176, 17793.34
560.2997, 18021.03
560.7818, 18218.36
561.2639, 18388.10
561.7460, 18515.85
562.2281, 18610.08
562.7103, 18660.50
563.1924, 18634.23
563.6745, 18514.16
564.1566, 18340.64
564.6387, 18121.72
565.1208, 17852.29
565.6030, 17578.35
566.0851, 17299.79
566.5672, 17024.46
567.0493, 16750.60
567.5314, 16484.25
568.0135, 16259.80
568.4957, 16098.51
568.9778, 15960.60
569.4599, 15773.68
569.9420, 15550.59
570.4241, 15353.69
570.9063, 15213.05
571.3884, 15115.03
571.8705, 15056.10
572.3526, 15035.83
572.8347, 15004.47
573.3168, 14914.50
573.7990, 14813.88
574.2811, 14745.53
574.7632, 14751.26
575.2453, 14741.03
575.7274, 14683.76
576.2095, 14603.95
576.6917, 14552.63
577.1738, 14551.91
577.6559, 14543.12
578.1380, 14507.86
578.6201, 14447.99
579.1022, 14393.65
579.5844, 14343.65
580.0665, 14303.18
580.5486, 14279.18
581.0307, 14269.49
581.5128, 14260.46
581.9949, 14250.31
582.4771, 14241.37
582.9592, 14241.42
583.4413, 14245.23
583.9234, 14239.84
584.4055, 14220.09
584.8876, 14188.98
585.3698, 14138.08
585.8519, 14073.51
586.3340, 14026.49
586.8161, 14027.61
587.2982, 14037.96
587.7803, 14034.59
588.2625, 14006.04
588.7446, 13987.72
589.2267, 13981.11
589.7088, 13985.10
590.1909, 14001.97
590.6730, 14042.02
591.1552, 14064.23
591.6373, 14053.85
592.1194, 14025.97
592.6015, 14030.88
593.0836, 14070.85
593.5657, 14104.84
594.0479, 14100.85
594.5300, 14074.86
595.0121, 14075.19
595.4942, 14103.61
595.9763, 14128.65
596.4584, 14106.76
596.9406, 14071.61
597.4227, 14071.06
597.9048, 14144.25
598.3869, 14206.08
598.8690, 14202.72
599.3511, 14162.23
599.8333, 14139.20
600.3154, 14165.28
600.7975, 14189.74
601.2796, 14205.46
601.7617, 14212.28
602.2438, 14188.04
602.7260, 14114.70
603.2081, 14042.65
603.6902, 14010.56
604.1723, 14022.96
604.6544, 14012.02
605.1365, 13967.96
605.6187, 13921.50
606.1008, 13922.77
606.5829, 13960.18
607.0650, 13984.87
607.5471, 13979.21
608.0292, 13955.64
608.5114, 13916.15
608.9935, 13868.01
609.4756, 13836.68
609.9577, 13851.58
610.4398, 13875.43
610.9219, 13882.69
611.4041, 13867.44
611.8862, 13862.48
612.3683, 13881.93
612.8504, 13909.03
613.3325, 13930.22
613.8146, 13937.67
614.2968, 13958.51
614.7789, 14010.08
615.2610, 14062.05
615.7431, 14041.39
616.2252, 13939.45
616.7073, 13853.33
617.1895, 13821.96
617.6716, 13829.88
618.1537, 13842.33
618.6358, 13858.57
619.1179, 13866.95
619.6000, 13844.37
620.0822, 13816.27
620.5643, 13818.96
621.0464, 13862.71
621.5285, 13903.50
622.0106, 13917.36
622.4927, 13915.59
622.9749, 13910.13
623.4570, 13883.10
623.9391, 13877.42
624.4212, 13913.51
624.9033, 13973.43
625.3854, 14011.10
625.8676, 14017.76
626.3497, 14020.80
626.8318, 14032.04
627.3139, 14049.04
627.7960, 14043.22
628.2781, 14011.21
628.7603, 13983.22
629.2424, 13991.21
629.7245, 14021.95
630.2066, 14039.65
630.6887, 14037.51
631.1708, 14032.57
631.6530, 14036.54
632.1351, 14048.44
632.6172, 14066.87
633.0993, 14109.77
633.5814, 14139.85
634.0635, 14136.97
634.5457, 14109.30
635.0278, 14087.74
635.5099, 14081.99
635.9920, 14075.68
636.4741, 14060.08
636.9562, 14033.47
637.4384, 14027.58
637.9205, 14042.76
638.4026, 14076.64
638.8847, 14139.14
639.3668, 14225.14
639.8489, 14280.84
640.3311, 14294.76
640.8132, 14296.73
641.2953, 14322.63
641.7774, 14363.29
642.2595, 14399.03
642.7416, 14406.47
643.2238, 14422.14
643.7059, 14476.04
644.1880, 14558.43
644.6701, 14638.35
645.1522, 14693.31
645.6343, 14754.27
646.1165, 14842.22
646.5986, 14964.20
647.0807, 15049.10
647.5628, 15090.78
648.0449, 15105.88
648.5270, 15105.75
649.0092, 15090.60
649.4913, 15056.67
649.9734, 14999.57
650.4555, 14935.25
650.9376, 14895.96
651.4197, 14869.60
651.9019, 14812.35
652.3840, 14688.40
652.8661, 14552.47
653.3482, 14452.64
653.8303, 14383.14
654.3124, 14327.08
654.7946, 14282.90
655.2767, 14244.22
655.7588, 14207.70
656.2408, 14172.78
656.7230, 14141.58
657.2051, 14105.48
657.6872, 14081.93
658.1693, 14088.74
658.6514, 14140.63
659.1335, 14154.39
659.6157, 14120.83
660.0978, 14067.02
660.5799, 14024.39
661.0620, 13992.54
661.5441, 13967.65
662.0262, 13944.44
662.5084, 13935.42
662.9905, 13973.74
663.4726, 14040.31
663.9547, 14083.16
664.4368, 14061.07
664.9189, 14022.27
665.4011, 13981.45
665.8832, 13940.35
666.3653, 13923.98
666.8474, 13959.59
667.3295, 13999.48
667.8116, 14023.05
668.2938, 14026.78
668.7759, 14026.23
669.2580, 14019.67
669.7401, 14012.71
670.2222, 14016.64
670.7043, 14029.34
671.1865, 14023.69
671.6686, 13989.84
672.1507, 13950.21
672.6328, 13922.04
673.1149, 13910.02
673.5970, 13924.87
674.0792, 14014.81
674.5613, 14093.45
675.0434, 14095.96
675.5255, 14037.52
676.0076, 14001.92
676.4897, 14029.43
676.9719, 14061.28
677.4540, 14074.05
677.9361, 14064.26
678.4182, 14066.68
678.9003, 14086.07
679.3824, 14106.05
679.8646, 14116.29
680.3467, 14116.25
680.8288, 14096.63
681.3109, 14051.79
681.7930, 14007.37
682.2751, 13997.59
682.7573, 14009.29
683.2394, 14015.11
683.7215, 13997.92
684.2036, 13983.98
684.6857, 13994.96
685.1678, 14020.43
685.6500, 14036.20
686.1321, 14019.25
686.6142, 14010.98
687.0963, 14025.09
687.5784, 14058.98
688.0605, 14092.68
688.5427, 14132.15
689.0248, 14155.40
689.5069, 14141.65
689.9890, 14095.26
690.4711, 14063.37
690.9532, 14046.10
691.4354, 14045.53
691.9175, 14076.18
692.3996, 14120.95
692.8817, 14151.15
693.3638, 14157.39
693.8459, 14160.80
694.3281, 14174.42
694.8102, 14192.31
695.2923, 14206.46
695.7744, 14227.66
696.2565, 14228.77
696.7386, 14189.33
697.2208, 14132.06
697.7029, 14122.51
698.1850, 14177.03
698.6671, 14220.67
699.1492, 14220.07
699.6313, 14190.35
700.1135, 14184.56
700.5956, 14201.65
701.0777, 14225.02
701.5598, 14244.57
702.0419, 14263.05
702.5240, 14287.82
703.0062, 14319.78
703.4883, 14339.21
703.9704, 14328.91
704.4525, 14306.85
704.9346, 14284.74
705.4167, 14243.17
705.8989, 14244.33
706.3810, 14324.07
706.8631, 14416.13
707.3452, 14432.36
707.8273, 14359.63
708.3094, 14299.16
708.7916, 14268.89
709.2737, 14258.84
709.7558, 14259.30
710.2379, 14266.38
710.7200, 14264.01
711.2021, 14230.34
711.6843, 14195.09
712.1664, 14185.53
712.6485, 14197.32
713.1306, 14212.74
713.6127, 14225.93
714.0948, 14240.05
714.5770, 14260.05
715.0591, 14287.19
715.5412, 14296.11
716.0233, 14278.49
716.5054, 14257.04
716.9875, 14244.13
717.4697, 14239.84
717.9518, 14252.90
718.4339, 14286.97
718.9160, 14317.72
719.3981, 14307.69
719.8802, 14277.83
720.3624, 14270.62
720.8445, 14304.45
721.3266, 14343.06
721.8087, 14370.06
722.2908, 14386.23
722.7729, 14391.73
723.2551, 14377.73
723.7372, 14362.95
724.2193, 14342.08
724.7014, 14323.51
725.1835, 14339.33
725.6656, 14402.97
726.1478, 14442.35
726.6299, 14419.65
727.1120, 14358.72
727.5941, 14328.47
728.0762, 14327.16
728.5583, 14342.24
729.0405, 14388.06
729.5226, 14431.75
730.0047, 14432.57
730.4868, 14388.09
730.9689, 14356.23
731.4510, 14365.54
731.9332, 14390.99
732.4153, 14418.28
732.8974, 14449.88
733.3795, 14478.23
733.8616, 14510.56
734.3438, 14529.04
734.8259, 14508.70
735.3080, 14450.58
735.7901, 14398.37
736.2722, 14356.25
736.7543, 14326.85
737.2365, 14317.03
737.7186, 14321.94
738.2007, 14332.73
738.6828, 14354.27
739.1649, 14369.96
739.6470, 14368.56
740.1292, 14354.90
740.6113, 14340.09
741.0934, 14315.12
741.5755, 14303.41
742.0576, 14314.98
742.5397, 14343.26
743.0219, 14359.89
743.5040, 14364.39
743.9861, 14360.31
744.4682, 14344.37
744.9503, 14322.16
745.4324, 14311.67
745.9146, 14311.46
746.3967, 14307.24
746.8788, 14279.99
747.3609, 14250.84
747.8430, 14239.26
748.3251, 14249.41
748.8073, 14259.24
749.2894, 14266.70
749.7715, 14269.49
750.2536, 14263.29
750.7357, 14237.39
751.2178, 14241.10
751.7000, 14285.79
752.1821, 14333.88
752.6642, 14339.18
753.1463, 14308.36
753.6284, 14273.23
754.1105, 14237.10
754.5927, 14205.35
755.0748, 14184.71
755.5569, 14171.29
756.0390, 14158.44
756.5211, 14124.05
757.0032, 14112.96
757.4854, 14160.39
757.9675, 14237.38
758.4496, 14275.81
758.9317, 14258.23
759.4138, 14241.97
759.8959, 14243.48
760.3781, 14254.00
760.8602, 14237.97
761.3423, 14198.14
761.8244, 14175.09
762.3065, 14205.51
762.7886, 14256.16
763.2708, 14285.89
763.7529, 14296.82
764.2350, 14305.82
764.7171, 14323.79
765.1992, 14339.15
765.6813, 14343.96
766.1635, 14336.09
766.6456, 14331.21
767.1277, 14331.97
767.6098, 14330.81
768.0919, 14322.18
768.5740, 14306.09
769.0562, 14289.79
769.5383, 14272.77
770.0204, 14261.32
770.5025, 14263.73
770.9846, 14274.91
771.4667, 14287.56
771.9489, 14301.49
772.4310, 14313.06
772.9131, 14318.40
773.3952, 14321.53
773.8773, 14326.95
774.3594, 14351.64
774.8416, 14349.57
775.3237, 14300.96
775.8058, 14245.68
776.2879, 14242.95
776.7700, 14293.24
777.2521, 14343.58
777.7343, 14387.66
778.2164, 14417.25
778.6985, 14411.65
779.1806, 14383.08
779.6627, 14358.96
780.1448, 14344.15
780.6270, 14343.42
781.1091, 14376.78
781.5912, 14426.97
782.0733, 14439.37
782.5554, 14373.18
783.0375, 14331.44
783.5197, 14348.35
784.0018, 14403.23
784.4839, 14417.99
784.9660, 14391.38
785.4481, 14358.45
785.9302, 14323.25
786.4124, 14299.08
786.8945, 14319.03
787.3766, 14374.99
787.8587, 14425.48
788.3408, 14449.32
788.8229, 14460.93
789.3051, 14466.38
789.7872, 14466.07
790.2693, 14463.43
790.7514, 14454.58
791.2335, 14450.74
791.7156, 14463.89
792.1978, 14493.49
792.6799, 14489.11
793.1620, 14447.77
793.6441, 14415.82
794.1262, 14448.61
794.6083, 14508.96
795.0905, 14537.75
795.5726, 14524.95
796.0547, 14516.25
796.5368, 14534.66
797.0189, 14565.43
797.5010, 14597.34
797.9832, 14629.10
798.4653, 14664.27
798.9474, 14710.72
799.4295, 14747.69
799.9116, 14743.21
800.3937, 14701.71
800.8759, 14694.18
801.3580, 14736.95
801.8401, 14780.54
802.3222, 14755.64
802.8043, 14702.65
803.2864, 14685.49
803.7686, 14749.76
804.2507, 14799.49
804.7328, 14783.04
805.2149, 14742.63
805.6970, 14737.96
806.1791, 14782.94
806.6613, 14829.60
807.1434, 14872.93
807.6255, 14914.25
808.1076, 14961.92
808.5897, 15011.94
809.0718, 15041.01
809.5540, 15035.63
810.0361, 15015.57
810.5182, 14998.96
811.0003, 14981.58
811.4824, 14955.40
811.9645, 14894.60
812.4467, 14852.33
812.9288, 14856.76
813.4109, 14886.13
813.8930, 14883.76
814.3751, 14840.74
814.8572, 14805.01
815.3394, 14795.11
815.8215, 14797.21
816.3036, 14776.24
816.7857, 14737.43
817.2678, 14705.62
817.7499, 14698.82
818.2321, 14697.97
818.7142, 14690.34
819.1963, 14677.13
819.6784, 14665.33
820.1605, 14656.70
820.6426, 14648.39
821.1247, 14639.81
821.6068, 14630.68
822.0889, 14620.20
822.5710, 14608.03
823.0532, 14597.00
823.5353, 14580.86
824.0174, 14569.84
824.4995, 14594.11
824.9816, 14645.94
825.4637, 14681.59
825.9459, 14662.38
826.4280, 14633.48
826.9101, 14618.67
827.3922, 14620.31
827.8743, 14623.46
828.3564, 14631.61
828.8386, 14634.98
829.3207, 14626.83
829.8028, 14609.23
830.2849, 14597.64
830.7670, 14592.06
831.2491, 14587.69
831.7313, 14577.82
832.2134, 14569.38
832.6955, 14572.14
833.1776, 14586.53
833.6597, 14599.20
834.1418, 14604.77
834.6240, 14608.07
835.1061, 14608.44
835.5882, 14603.79
836.0703, 14624.28
836.5524, 14677.45
837.0345, 14727.42
837.5167, 14746.13
837.9988, 14741.42
838.4809, 14737.46
838.9630, 14735.40
839.4451, 14724.93
839.9272, 14677.47
840.4094, 14633.40
840.8915, 14628.64
841.3736, 14677.10
841.8557, 14719.82
842.3378, 14755.42
842.8199, 14780.80
843.3021, 14790.98
843.7842, 14785.17
844.2663, 14779.58
844.7484, 14773.19
845.2305, 14777.34
845.7126, 14812.79
846.1948, 14860.11
846.6769, 14889.41
847.1590, 14894.29
847.6411, 14905.43
848.1232, 14945.72
848.6053, 14989.20
849.0875, 15016.99
849.5696, 15024.42
850.0517, 15036.20
850.5338, 15054.17
851.0159, 15072.74
851.4980, 15079.61
851.9802, 15082.74
852.4623, 15111.55
852.9444, 15169.95
853.4265, 15236.73
853.9086, 15299.93
854.3907, 15360.54
854.8729, 15418.89
855.3550, 15473.21
855.8371, 15527.94
856.3192, 15578.13
856.8013, 15635.16
857.2834, 15702.09
857.7656, 15778.54
858.2477, 15901.01
858.7298, 16077.26
859.2119, 16244.05
859.6940, 16319.26
860.1761, 16358.34
860.6583, 16436.50
861.1404, 16569.39
861.6225, 16717.00
862.1046, 16851.09
862.5867, 17005.61
863.0688, 17208.48
863.5510, 17490.69
864.0331, 17701.57
864.5152, 17823.48
864.9973, 17937.72
865.4794, 18135.76
865.9615, 18386.25
866.4437, 18619.05
866.9258, 18829.88
867.4079, 18977.16
867.8900, 18995.05
868.3721, 18964.37
868.8542, 18961.31
869.3364, 19033.18
869.8185, 19012.64
870.3006, 18876.47
870.7827, 18687.75
871.2648, 18484.01
871.7469, 18269.04
872.2291, 18077.13
872.7112, 17912.58
873.1933, 17745.50
873.6754, 17530.71
874.1575, 17311.68
874.6396, 17132.16
875.1218, 17005.15
875.6039, 16884.55
876.0860, 16752.18
876.5681, 16629.45
877.0502, 16528.87
877.5323, 16451.65
878.0145, 16384.55
878.4966, 16328.20
878.9787, 16275.71
879.4608, 16227.31
879.9429, 16176.41
880.4250, 16108.36
880.9072, 16021.46
881.3893, 15937.79
881.8714, 15864.00
882.3535, 15801.49
882.8356, 15752.36
883.3177, 15717.00
883.7999, 15687.37
884.2820, 15662.52
884.7641, 15646.40
885.2462, 15640.74
885.7283, 15645.86
886.2104, 15672.79
886.6926, 15719.42
887.1747, 15746.59
887.6568, 15700.29
888.1389, 15647.98
888.6210, 15642.42
889.1031, 15692.95
889.5853, 15721.93
890.0674, 15716.70
890.5495, 15710.37
891.0316, 15719.67
891.5137, 15742.29
891.9958, 15763.22
892.4780, 15782.77
892.9601, 15800.83
893.4422, 15821.80
893.9243, 15837.82
894.4064, 15834.49
894.8885, 15814.50
895.3707, 15810.90
895.8528, 15833.63
896.3349, 15870.90
896.8170, 15927.89
897.2991, 15996.28
897.7813, 16025.35
898.2634, 16014.61
898.7455, 16003.18
899.2276, 16005.16
899.7097, 16023.08
900.1918, 16071.13
900.6740, 16140.43
901.1561, 16197.38
901.6382, 16222.04
902.1203, 16242.12
902.6024, 16270.07
903.0845, 16300.16
903.5667, 16301.66
904.0488, 16268.76
904.5309, 16260.80
905.0130, 16303.55
905.4951, 16376.69
905.9772, 16463.19
906.4594, 16554.49
906.9415, 16629.14
907.4236, 16656.26
907.9057, 16690.08
908.3878, 16750.70
908.8699, 16830.65
909.3521, 16914.78
909.8342, 17001.54
910.3163, 17101.21
910.7984, 17215.03
911.2805, 17345.73
911.7626, 17497.65
912.2448, 17668.31
912.7269, 17853.52
913.2090, 18054.01
913.6911, 18263.44
914.1732, 18468.36
914.6553, 18685.55
915.1375, 18934.63
915.6196, 19198.81
916.1017, 19537.07
916.5838, 19966.67
917.0659, 20441.06
917.5480, 20892.07
918.0302, 21337.27
918.5123, 21829.33
918.9944, 22373.41
919.4765, 22966.15
919.9586, 23595.01
920.4407, 24275.06
920.9229, 25033.57
921.4050, 25890.00
921.8871, 26773.74
922.3692, 27684.56
922.8513, 28627.20
923.3334, 29631.06
923.8156, 30662.67
924.2977, 31634.14
924.7798, 32540.12
925.2619, 33321.89
925.7440, 33976.30
926.2261, 34453.40
926.7083, 34711.56
927.1904, 34737.63
927.6725, 34530.57
928.1546, 34069.21
928.6367, 33419.19
929.1188, 32589.96
929.6010, 31603.77
930.0831, 30547.48
930.5652, 29445.56
931.0473, 28369.41
931.5294, 27367.11
932.0115, 26422.65
932.4937, 25537.10
932.9758, 24704.72
933.4579, 23940.18
933.9400, 23230.62
934.4221, 22591.92
934.9042, 22024.82
935.3864, 21521.61
935.8685, 21031.68
936.3506, 20566.20
936.8327, 20167.98
937.3148, 19915.79
937.7969, 19685.94
938.2791, 19350.63
938.7612, 18974.78
939.2433, 18715.18
939.7254, 18707.88
940.2075, 18610.11
940.6896, 18337.93
941.1718, 17998.34
941.6539, 17792.49
942.1360, 17698.16
942.6181, 17596.06
943.1002, 17454.14
943.5823, 17300.33
944.0645, 17138.17
944.5466, 16983.44
945.0287, 16854.74
945.5108, 16769.39
945.9929, 16687.87
946.4750, 16604.42
946.9572, 16532.36
947.4393, 16491.65
947.9214, 16475.93
948.4035, 16452.99
948.8856, 16419.54
949.3677, 16378.98
949.8499, 16328.06
950.3320, 16274.89
950.8141, 16227.34
951.2962, 16188.46
951.7783, 16144.02
952.2604, 16094.32
952.7426, 16038.02
953.2247, 15961.14
953.7068, 15876.29
954.1889, 15854.79
954.6710, 15890.20
955.1531, 15925.58
955.6353, 15916.24
956.1174, 15902.93
956.5995, 15925.78
957.0816, 15974.98
957.5637, 15976.38
958.0458, 15902.63
958.5280, 15841.86
959.0101, 15822.49
959.4922, 15828.99
959.9743, 15826.10
960.4564, 15816.78
960.9385, 15811.93
961.4207, 15826.81
961.9028, 15833.13
962.3849, 15812.83
962.8670, 15774.37
963.3491, 15730.65
963.8312, 15670.26
964.3134, 15640.44
964.7955, 15656.89
965.2776, 15677.17
965.7597, 15627.63
966.2418, 15539.06
966.7239, 15492.87
967.2061, 15511.08
967.6882, 15535.54
968.1703, 15541.79
968.6524, 15535.55
969.1345, 15516.28
969.6166, 15475.93
970.0988, 15476.48
970.5809, 15531.91
971.0630, 15568.85
971.5451, 15506.79
972.0272, 15397.56
972.5093, 15342.08
972.9915, 15339.36
973.4736, 15341.62
973.9557, 15330.82
974.4378, 15315.65
974.9199, 15295.14
975.4020, 15273.43
975.8842, 15275.24
976.3663, 15304.81
976.8484, 15319.05
977.3305, 15293.12
977.8126, 15254.40
978.2947, 15240.05
978.7769, 15244.12
979.2590, 15253.81
979.7411, 15267.92
980.2232, 15282.81
980.7053, 15301.09
981.1874, 15317.06
981.6696, 15321.56
982.1517, 15314.09
982.6338, 15303.30
983.1159, 15287.19
983.5980, 15284.89
984.0801, 15344.71
984.5623, 15413.45
985.0444, 15421.42
985.5264, 15332.34
986.0085, 15280.45
986.4907, 15301.16
986.9728, 15332.50
987.4549, 15339.51
987.9370, 15324.00
988.4191, 15294.66
988.9012, 15253.71
989.3834, 15231.27
989.8655, 15266.56
990.3476, 15311.75
990.8297, 15335.33
991.3118, 15337.36
991.7939, 15326.24
992.2761, 15291.94
992.7582, 15270.73
993.2403, 15277.53
993.7224, 15296.34
994.2045, 15285.51
994.6866, 15256.16
995.1688, 15246.72
995.6509, 15287.13
996.1330, 15319.92
996.6151, 15296.71
997.0972, 15258.25
997.5793, 15258.77
998.0615, 15315.36
998.5436, 15355.17
999.0257, 15376.28
999.5078, 15375.40
999.9899, 15328.71
1000.472, 15265.03
1000.954, 15235.16
1001.436, 15245.25
1001.918, 15269.69
1002.401, 15320.85
1002.883, 15360.38
1003.365, 15368.49
1003.847, 15348.38
1004.329, 15324.11
1004.811, 15295.31
1005.293, 15283.07
1005.775, 15314.98
1006.257, 15353.32
1006.740, 15353.53
1007.222, 15328.75
1007.704, 15310.57
1008.186, 15317.19
1008.668, 15318.46
1009.150, 15311.05
1009.632, 15297.19
1010.114, 15273.10
1010.596, 15243.15
1011.079, 15237.03
1011.561, 15264.15
1012.043, 15290.66
1012.525, 15284.05
1013.007, 15268.49
1013.489, 15264.76
1013.971, 15274.16
1014.453, 15297.87
1014.936, 15341.44
1015.418, 15381.18
1015.900, 15407.70
1016.382, 15417.25
1016.864, 15386.75
1017.346, 15326.07
1017.828, 15285.43
1018.310, 15301.79
1018.792, 15328.84
1019.275, 15359.06
1019.757, 15384.49
1020.239, 15383.58
1020.721, 15355.55
1021.203, 15314.63
1021.685, 15254.89
1022.167, 15210.59
1022.649, 15231.30
1023.132, 15288.00
1023.614, 15342.66
1024.096, 15397.16
1024.578, 15423.95
1025.060, 15409.60
1025.542, 15387.80
1026.024, 15381.56
1026.506, 15390.18
1026.989, 15411.92
1027.471, 15445.71
1027.953, 15480.63
1028.435, 15517.78
1028.917, 15546.12
1029.399, 15551.11
1029.881, 15538.35
1030.363, 15540.84
1030.845, 15562.74
1031.328, 15583.10
1031.810, 15593.91
1032.292, 15604.56
1032.774, 15634.33
1033.256, 15674.53
1033.738, 15708.31
1034.220, 15729.45
1034.702, 15746.09
1035.184, 15752.72
1035.667, 15763.62
1036.149, 15788.48
1036.631, 15827.55
1037.113, 15899.06
1037.595, 16005.44
1038.077, 16087.23
1038.559, 16085.89
1039.041, 16049.98
1039.524, 16010.34
1040.006, 15971.05
1040.488, 15948.53
1040.970, 15955.93
1041.452, 15949.26
1041.934, 15913.07
1042.416, 15857.83
1042.898, 15791.75
1043.380, 15723.27
1043.863, 15674.63
1044.345, 15653.95
1044.827, 15652.27
1045.309, 15697.16
1045.791, 15737.64
1046.273, 15712.65
1046.755, 15609.37
1047.237, 15584.63
1047.719, 15648.71
1048.202, 15720.70
1048.684, 15731.24
1049.166, 15717.73
1049.648, 15720.01
1050.130, 15738.44
1050.612, 15740.86
1051.094, 15713.85
1051.576, 15690.83
1052.059, 15679.53
1052.541, 15679.64
1053.023, 15690.17
1053.505, 15711.30
1053.987, 15744.87
1054.469, 15797.76
1054.951, 15850.47
1055.433, 15903.66
1055.916, 15945.10
1056.398, 15957.98
1056.880, 15932.24
1057.362, 15939.74
1057.844, 15982.73
1058.326, 16042.73
1058.808, 16112.36
1059.290, 16185.71
1059.772, 16261.77
1060.255, 16338.57
1060.737, 16395.51
1061.219, 16419.41
1061.701, 16446.67
1062.183, 16495.06
1062.665, 16540.39
1063.147, 16513.21
1063.629, 16437.79
1064.111, 16397.51
1064.594, 16431.59
1065.076, 16462.26
1065.558, 16458.61
1066.040, 16427.55
1066.522, 16373.04
1067.004, 16289.95
1067.486, 16220.35
1067.968, 16164.37
1068.450, 16114.74
1068.933, 16069.25
1069.415, 16025.13
1069.897, 15973.70
1070.379, 15920.14
1070.861, 15890.81
1071.343, 15916.73
1071.825, 15913.65
1072.307, 15858.05
1072.790, 15780.93
1073.272, 15727.89
1073.754, 15697.27
1074.236, 15690.59
1074.718, 15714.58
1075.200, 15733.06
1075.682, 15719.88
1076.164, 15702.81
1076.646, 15702.43
1077.129, 15641.14
1077.611, 15749.11
1078.093, 15806.75
1078.575, 15816.76
1079.057, 15636.50
1079.539, 15701.94
1080.021, 15668.91
1080.503, 15631.85
1080.985, 15731.87
1081.468, 15579.27
1081.950, 15677.11
1082.432, 15674.99
1082.914, 15718.62
1083.396, 15663.18
1083.878, 15638.33
1084.360, 15712.60
1084.842, 15731.98
1085.325, 15665.12
1085.807, 15711.66
1086.289, 15555.62
1086.771, 15577.34
1087.253, 15675.76
1087.735, 15613.90
1088.217, 15662.25
1088.699, 15668.62
1089.182, 15484.22
1089.664, 15631.58
1090.146, 15635.48
1090.628, 15492.05
1091.110, 15628.05
1091.592, 15504.94
1092.074, 15474.31
1092.556, 15513.29
1093.038, 15479.71
1093.521, 15572.12
1094.003, 15672.28
1094.485, 15687.22
1094.967, 15620.56
1095.449, 15570.29
1095.931, 15561.85
1096.413, 15567.25
1096.895, 15585.54
1097.377, 15607.34
1097.860, 15613.02
1098.342, 15604.95
1098.824, 15588.68
1099.306, 15560.81
1099.788, 15539.84
1100.270, 15533.59
1100.752, 15539.14
1101.234, 15561.43
1101.717, 15601.71
1102.199, 15584.64
1102.681, 15511.32
1103.163, 15464.14
1103.645, 15526.67
1104.127, 15609.26
1104.609, 15642.96
1105.091, 15638.81
1105.573, 15628.58
1106.056, 15612.24
1106.538, 15597.27
1107.020, 15583.25
1107.502, 15576.19
1107.984, 15588.75
1108.466, 15610.61
1108.948, 15625.39
1109.430, 15630.72
1109.912, 15636.59
1110.395, 15642.75
1110.877, 15654.13
1111.359, 15679.74
1111.841, 15706.35
1112.323, 15681.88
1112.805, 15621.38
1113.287, 15578.42
1113.769, 15577.35
1114.252, 15588.89
1114.734, 15606.78
1115.216, 15627.27
1115.698, 15648.75
1116.180, 15672.28
1116.662, 15686.81
1117.144, 15692.51
1117.626, 15689.80
1118.109, 15676.98
1118.591, 15658.15
1119.073, 15631.84
1119.555, 15602.43
1120.037, 15584.96
1120.519, 15584.52
1121.001, 15576.58
1121.483, 15554.11
1121.965, 15532.62
1122.448, 15535.44
1122.930, 15550.09
1123.412, 15555.78
1123.894, 15546.38
1124.376, 15554.93
1124.858, 15597.33
1125.340, 15634.09
1125.822, 15647.87
1126.304, 15644.43
1126.787, 15631.35
1127.269, 15614.42
1127.751, 15612.11
1128.233, 15649.91
1128.715, 15674.38
1129.197, 15563.95
1129.679, 15679.82
1130.161, 15745.35
1130.644, 15763.27
1131.126, 15590.91
1131.608, 15664.24
1132.090, 15639.12
1132.572, 15609.95
1133.054, 15717.87
1133.536, 15573.18
1134.018, 15678.92
1134.500, 15684.70
1134.983, 15736.23
1135.465, 15688.69
1135.947, 15671.74
1136.429, 15753.90
1136.911, 15781.19
1137.393, 15722.24
1137.875, 15776.67
1138.357, 15628.53
1138.839, 15658.15
1139.322, 15764.48
1139.804, 15710.51
1140.286, 15766.76
1140.768, 15781.03
1141.250, 15604.54
1141.732, 15759.80
1142.214, 15771.59
1142.696, 15636.07
1143.179, 15779.97
1143.661, 15664.75
1144.143, 15642.03
1144.625, 15688.90
1145.107, 15663.22
1145.589, 15751.93
1146.071, 15730.44
1146.553, 15699.10
1147.036, 15710.73
1147.518, 15600.59
1148.000, 15716.36
1148.482, 15677.81
1148.964, 15715.97
1149.446, 15679.86
1149.928, 15762.92
1150.410, 15791.10
1150.892, 15733.05
1151.375, 15788.39
1151.857, 15641.15
1152.339, 15671.67
1152.821, 15778.89
1153.303, 15725.82
1153.785, 15782.97
1154.267, 15798.14
1154.749, 15622.55
1155.231, 15778.71
1155.714, 15791.41
1156.196, 15656.79
1156.678, 15801.58
1157.160, 15687.27
1157.642, 15665.44
1158.124, 15713.21
1158.606, 15688.43
1159.088, 15778.04
1159.571, 15727.29
1160.053, 15741.52
1160.535, 15758.17
1161.017, 15752.99
1161.499, 15702.24
1161.981, 15680.81
1162.463, 15701.88
1162.945, 15727.82
1163.427, 15709.67
1163.910, 15675.10
1164.392, 15673.33
1164.874, 15703.42
1165.356, 15716.14
1165.838, 15681.88
1166.320, 15658.93
1166.802, 15661.12
1167.284, 15678.21
1167.766, 15697.77
1168.249, 15716.94
1168.731, 15728.67
1169.213, 15729.97
1169.695, 15732.40
1170.177, 15738.94
1170.659, 15748.10
1171.141, 15757.36
1171.623, 15769.51
1172.106, 15803.51
1172.588, 15850.59
1173.070, 15876.77
1173.552, 15853.29
1174.034, 15833.70
1174.516, 15840.73
1174.998, 15859.35
1175.480, 15885.79
1175.963, 15918.38
1176.445, 15914.81
1176.927, 15878.67
1177.409, 15849.32
1177.891, 15871.68
1178.373, 15884.24
1178.855, 15835.96
1179.337, 15768.33
1179.819, 15744.34
1180.302, 15765.25
1180.784, 15788.01
1181.266, 15808.69
1181.748, 15836.10
1182.230, 15897.32
1182.712, 15950.51
1183.194, 15954.10
1183.676, 15921.86
1184.158, 15911.35
1184.641, 15924.41
1185.123, 15933.25
1185.605, 15929.14
1186.087, 15926.43
1186.569, 15935.82
1187.051, 15955.18
1187.533, 15986.00
1188.015, 16028.51
1188.498, 16059.32
1188.980, 16076.48
1189.462, 16094.05
1189.944, 16127.21
1190.426, 16148.26
1190.908, 16106.58
1191.390, 16038.94
1191.872, 15999.73
1192.354, 15999.88
1192.837, 16023.74
1193.319, 16078.23
1193.801, 16124.92
1194.283, 16132.00
1194.765, 16120.40
1195.247, 16108.07
1195.729, 16100.52
1196.211, 16113.63
1196.693, 16164.94
1197.176, 16201.26
1197.658, 16216.74
1198.140, 16224.88
1198.622, 16242.61
1199.104, 16259.26
1199.586, 16251.10
1200.068, 16222.56
1200.550, 16216.35
1201.033, 16252.37
1201.515, 16284.11
1201.997, 16304.42
1202.479, 16315.26
1202.961, 16313.60
1203.443, 16306.83
1203.925, 16309.41
1204.407, 16324.22
1204.890, 16329.75
1205.372, 16315.22
1205.854, 16307.46
1206.336, 16319.38
1206.818, 16336.95
1207.300, 16338.35
1207.782, 16322.35
1208.264, 16278.45
1208.746, 16182.75
1209.229, 16138.79
1209.711, 16183.28
1210.193, 16231.67
1210.675, 16236.53
1211.157, 16216.05
1211.639, 16215.24
1212.121, 16228.06
1212.603, 16238.75
1213.085, 16248.73
1213.568, 16243.24
1214.050, 16212.36
1214.532, 16182.78
1215.014, 16178.58
1215.496, 16191.41
1215.978, 16199.92
1216.460, 16203.06
1216.942, 16198.21
1217.425, 16173.63
1217.907, 16155.38
1218.389, 16148.36
1218.871, 16147.09
1219.353, 16147.50
1219.835, 16148.30
1220.317, 16145.86
1220.799, 16140.17
1221.281, 16133.51
1221.764, 16124.52
1222.246, 16116.49
1222.728, 16103.13
1223.210, 16101.39
1223.692, 16162.90
1224.174, 16254.78
1224.656, 16279.72
1225.138, 16221.33
1225.620, 16167.53
1226.103, 16156.36
1226.585, 16148.24
1227.067, 16128.99
1227.549, 16108.78
1228.031, 16116.25
1228.513, 16140.91
1228.995, 16152.35
1229.477, 16139.42
1229.960, 16135.78
1230.442, 16164.88
1230.924, 16187.40
1231.406, 16186.23
1231.888, 16166.42
1232.370, 16132.90
1232.852, 16092.83
1233.334, 16064.35
1233.816, 16053.76
1234.299, 16056.43
1234.781, 16078.58
1235.263, 16100.93
1235.745, 16106.58
1236.227, 16103.93
1236.709, 16122.79
1237.191, 16157.22
1237.673, 16188.26
1238.156, 16216.81
1238.638, 16227.08
1239.120, 16213.25
1239.602, 16189.86
1240.084, 16159.66
1240.566, 16132.99
1241.048, 16150.06
1241.530, 16200.61
1242.012, 16237.32
1242.495, 16236.54
1242.977, 16225.70
1243.459, 16206.65
1243.941, 16184.36
1244.423, 16156.57
1244.905, 16132.86
1245.387, 16144.46
1245.869, 16186.94
1246.351, 16213.32
1246.834, 16199.53
1247.316, 16176.94
1247.798, 16140.15
1248.280, 16117.98
1248.762, 16177.50
1249.244, 16269.04
1249.726, 16292.19
1250.208, 16237.88
1250.691, 16198.73
1251.173, 16198.78
1251.655, 16199.04
1252.137, 16186.76
1252.619, 16176.85
1253.101, 16198.20
1253.583, 16235.41
1254.065, 16267.89
1254.547, 16294.37
1255.030, 16291.77
1255.512, 16243.02
1255.994, 16214.43
1256.476, 16236.05
1256.958, 16276.79
1257.440, 16304.47
1257.922, 16312.49
1258.404, 16281.96
1258.886, 16190.71
1259.369, 16155.27
1259.851, 16186.21
1260.333, 16236.36
1260.815, 16298.46
1261.297, 16347.05
1261.779, 16336.01
1262.261, 16295.20
1262.743, 16270.22
1263.226, 16273.03
1263.708, 16265.53
1264.190, 16246.00
1264.672, 16229.10
1265.154, 16223.12
1265.636, 16224.90
1266.118, 16232.62
1266.600, 16245.71
1267.083, 16265.67
1267.565, 16299.22
1268.047, 16308.32
1268.529, 16291.66
1269.011, 16268.07
1269.493, 16241.71
1269.975, 16221.84
1270.457, 16216.79
1270.939, 16223.40
1271.422, 16233.83
1271.904, 16247.68
1272.386, 16269.24
1272.868, 16298.64
1273.350, 16331.13
1273.832, 16379.25
1274.314, 16412.30
1274.796, 16398.38
1275.278, 16362.14
1275.761, 16343.55
1276.243, 16341.54
1276.725, 16318.96
1277.207, 16274.08
1277.689, 16251.30
1278.171, 16301.34
1278.653, 16354.92
1279.135, 16388.44
1279.618, 16400.55
1280.100, 16376.94
1280.582, 16327.58
1281.064, 16306.97
1281.546, 16320.79
1282.028, 16342.93
1282.510, 16366.55
1282.992, 16388.09
1283.474, 16408.10
1283.957, 16424.11
1284.439, 16432.14
1284.921, 16432.55
1285.403, 16422.85
1285.885, 16402.30
1286.367, 16389.04
1286.849, 16385.38
1287.331, 16398.82
1287.813, 16441.59
1288.296, 16485.01
1288.778, 16472.23
1289.260, 16426.93
1289.742, 16385.80
1290.224, 16353.66
1290.706, 16350.66
1291.188, 16385.99
1291.670, 16425.57
1292.153, 16461.87
1292.635, 16489.88
1293.117, 16499.64
1293.599, 16497.71
1294.081, 16491.06
1294.563, 16479.50
1295.045, 16473.71
1295.527, 16473.35
1296.010, 16481.95
1296.492, 16501.64
1296.974, 16528.79
1297.456, 16576.88
1297.938, 16618.77
1298.420, 16612.93
1298.902, 16559.75
1299.384, 16523.70
##END=



