##NAMES=Pyrope
##RRUFFID=R060445
##IDEAL CHEMISTRY=Mg_3_Al_2_(SiO_4_)_3_
##LOCALITY=Tanzania
##OWNER=RRUFF
##SOURCE=Gemological Institute of America
##DESCRIPTION=Deep red water worn pebble, variety rhodolite
##STATUS=The identification of this mineral has been confirmed by X-ray diffraction and chemical analysis
##URL=rruff.info/R060445
##MEASURED CHEMISTRY=(Mg_1.83_Fe_1.08_Ca_0.07_Mn_0.02_)_Î£=3_Al_2.00_(Si_1.00_O_4_)_3_
90.92609, 0.0000000E+00
91.40820, 2.970896
91.89032, 2.617601
92.37244, 2.821219
92.85455, 3.486602
93.33667, 4.045094
93.81879, 3.958970
94.30090, 3.423237
94.78302, 3.034775
95.26514, 2.973168
95.74725, 3.094977
96.22937, 3.088309
96.71149, 2.945551
97.19360, 2.761759
97.67572, 2.603621
98.15784, 2.474156
98.63995, 2.402901
99.12207, 2.428314
99.60419, 2.532382
100.0863, 2.528751
100.5684, 2.367164
101.0505, 2.198535
101.5327, 2.249827
102.0148, 2.598822
102.4969, 2.904918
102.9790, 3.045346
103.4611, 2.983901
103.9432, 2.942344
104.4253, 2.898048
104.9075, 2.886472
105.3896, 2.987107
105.8717, 3.272820
106.3538, 3.573622
106.8359, 3.840677
107.3180, 4.130706
107.8002, 4.281574
108.2823, 4.228177
108.7644, 4.023728
109.2465, 3.860839
109.7286, 3.746414
110.2107, 3.671315
110.6929, 3.629729
111.1750, 3.367294
111.6571, 3.422172
112.1392, 4.046029
112.6213, 5.142991
113.1034, 5.994216
113.5856, 6.283847
114.0677, 6.406210
114.5498, 6.640779
115.0319, 7.102324
115.5140, 7.630745
115.9961, 8.193196
116.4783, 8.787845
116.9604, 9.385775
117.4425, 9.931403
117.9246, 10.49626
118.4067, 11.15374
118.8888, 12.08806
119.3710, 13.01178
119.8531, 13.74339
120.3352, 14.25465
120.8173, 14.72030
121.2994, 15.14505
121.7815, 15.59861
122.2637, 16.20505
122.7458, 17.22125
123.2279, 18.31647
123.7100, 19.11146
124.1921, 19.50142
124.6742, 19.86309
125.1564, 20.51752
125.6385, 21.42541
126.1206, 22.46698
126.6027, 23.62463
127.0848, 24.85220
127.5669, 26.06892
128.0491, 27.27260
128.5312, 28.44153
129.0133, 29.57986
129.4954, 30.67011
129.9775, 31.64601
130.4596, 32.36764
130.9418, 32.90393
131.4239, 33.60448
131.9060, 34.67750
132.3881, 35.82093
132.8702, 36.16274
133.3523, 35.64954
133.8345, 35.07596
134.3166, 35.14486
134.7987, 35.85538
135.2808, 36.64577
135.7629, 37.45042
136.2450, 38.24736
136.7272, 38.84168
137.2093, 39.15632
137.6914, 39.51449
138.1735, 40.30214
138.6556, 41.59632
139.1377, 42.90766
139.6199, 44.18578
140.1020, 45.41903
140.5841, 46.34345
141.0662, 46.85280
141.5483, 47.18221
142.0304, 47.58699
142.5126, 48.00353
142.9947, 48.62224
143.4768, 49.41798
143.9589, 50.38563
144.4410, 51.05588
144.9231, 51.35846
145.4053, 51.43289
145.8874, 51.48659
146.3695, 51.49859
146.8516, 51.52126
147.3337, 51.57127
147.8158, 51.66009
148.2980, 51.75588
148.7801, 51.98015
149.2622, 52.19508
149.7443, 52.11407
150.2264, 51.38173
150.7085, 50.67511
151.1907, 50.24819
151.6728, 50.41832
152.1549, 50.31611
152.6370, 49.76659
153.1191, 48.92651
153.6012, 48.19498
154.0834, 47.63978
154.5655, 47.16769
155.0476, 46.73052
155.5297, 46.30657
156.0118, 45.94869
156.4939, 45.70234
156.9761, 45.53349
157.4582, 45.33867
157.9403, 45.15108
158.4224, 44.89601
158.9045, 44.52259
159.3866, 43.83223
159.8688, 43.24758
160.3509, 42.92408
160.8330, 42.82041
161.3151, 42.74735
161.7972, 42.63136
162.2793, 42.52298
162.7615, 42.46060
163.2436, 42.45438
163.7257, 42.49593
164.2078, 42.61806
164.6899, 42.80530
165.1720, 42.94824
165.6541, 43.03966
166.1363, 43.04352
166.6184, 42.92424
167.1005, 42.38519
167.5826, 41.94139
168.0647, 42.01799
168.5468, 42.57392
169.0290, 43.07132
169.5111, 43.05720
169.9932, 42.81411
170.4753, 42.71504
170.9574, 43.10097
171.4395, 43.56385
171.9217, 43.63494
172.4038, 43.31582
172.8859, 43.19953
173.3680, 44.10647
173.8501, 45.49781
174.3322, 46.43998
174.8144, 46.07978
175.2965, 45.27941
175.7786, 45.10422
176.2607, 45.57911
176.7428, 46.26740
177.2249, 46.78305
177.7071, 47.20477
178.1892, 47.73935
178.6713, 48.67010
179.1534, 49.71768
179.6355, 50.34558
180.1176, 50.50256
180.5998, 50.61322
181.0819, 51.25054
181.5640, 52.25716
182.0461, 53.09530
182.5282, 53.48787
183.0103, 53.52905
183.4925, 53.34478
183.9746, 52.89549
184.4567, 52.44499
184.9388, 52.37304
185.4209, 52.62352
185.9030, 52.86011
186.3852, 52.86009
186.8673, 52.70856
187.3494, 52.73874
187.8315, 53.00492
188.3136, 53.31282
188.7957, 53.38786
189.2779, 53.24356
189.7600, 53.06548
190.2421, 52.96564
190.7242, 52.92182
191.2063, 52.73745
191.6884, 52.32544
192.1706, 51.96990
192.6527, 52.21209
193.1348, 53.06105
193.6169, 53.90019
194.0990, 54.35885
194.5811, 54.46874
195.0633, 54.78539
195.5454, 55.38279
196.0275, 56.09352
196.5096, 56.53504
196.9917, 56.67712
197.4738, 56.91109
197.9560, 57.46553
198.4381, 58.33773
198.9202, 59.24987
199.4023, 60.21286
199.8844, 61.17591
200.3665, 61.95637
200.8487, 62.50483
201.3308, 63.19343
201.8129, 64.34004
202.2950, 66.00752
202.7771, 67.28689
203.2592, 68.08076
203.7414, 68.55929
204.2235, 69.00919
204.7056, 69.34977
205.1877, 69.94888
205.6698, 71.09936
206.1519, 72.91819
206.6341, 74.52567
207.1162, 75.87193
207.5983, 76.99123
208.0804, 78.03323
208.5625, 79.12813
209.0446, 79.72031
209.5268, 79.37181
210.0089, 77.81756
210.4910, 76.63181
210.9731, 76.03477
211.4552, 75.70045
211.9373, 74.89091
212.4195, 73.59109
212.9016, 71.88143
213.3837, 69.65849
213.8658, 66.64008
214.3479, 64.16245
214.8300, 62.43285
215.3121, 61.13502
215.7943, 59.41385
216.2764, 56.98078
216.7585, 54.75924
217.2406, 53.20650
217.7227, 52.57976
218.2048, 51.84667
218.6870, 51.00305
219.1691, 50.04889
219.6512, 48.92045
220.1333, 47.45520
220.6154, 46.10762
221.0975, 45.05530
221.5797, 44.37828
222.0618, 43.80445
222.5439, 43.38203
223.0260, 43.04236
223.5081, 42.59004
223.9902, 41.89243
224.4724, 41.32206
224.9545, 41.08512
225.4366, 41.35436
225.9187, 41.44901
226.4008, 41.33454
226.8829, 41.06334
227.3651, 40.71770
227.8472, 40.17351
228.3293, 39.75555
228.8114, 39.61966
229.2935, 39.88557
229.7757, 40.05132
230.2578, 40.02661
230.7399, 39.94287
231.2220, 40.09848
231.7041, 40.72702
232.1862, 41.21386
232.6684, 41.27802
233.1505, 40.69897
233.6326, 40.41767
234.1147, 40.53788
234.5968, 40.89896
235.0789, 41.21426
235.5611, 41.46774
236.0432, 41.70110
236.5253, 41.93505
237.0074, 42.17809
237.4895, 42.38242
237.9716, 42.56611
238.4538, 42.70070
238.9359, 42.71782
239.4180, 42.48383
239.9001, 42.35458
240.3822, 42.49440
240.8643, 43.01263
241.3465, 43.26238
241.8286, 43.06483
242.3107, 42.72470
242.7928, 42.70043
243.2749, 43.21329
243.7570, 43.65788
244.2392, 43.84046
244.7213, 43.70126
245.2034, 43.66664
245.6855, 43.76883
246.1676, 43.94809
246.6497, 44.13184
247.1319, 44.31507
247.6140, 44.51893
248.0961, 44.79971
248.5782, 45.19464
249.0603, 45.28839
249.5424, 44.86327
250.0246, 44.34612
250.5067, 44.21023
250.9888, 44.59468
251.4709, 45.09970
251.9530, 45.73169
252.4351, 46.51609
252.9173, 46.89964
253.3994, 46.69280
253.8815, 46.30992
254.3636, 46.15973
254.8457, 46.35712
255.3278, 46.52904
255.8100, 46.56973
256.2921, 46.48678
256.7742, 46.58527
257.2563, 46.92295
257.7384, 47.36320
258.2205, 47.77570
258.7026, 48.10814
259.1848, 48.58290
259.6669, 49.39338
260.1490, 50.44334
260.6311, 50.75135
261.1132, 49.96370
261.5953, 49.01513
262.0775, 48.63198
262.5596, 49.01414
263.0417, 49.36533
263.5238, 49.58751
264.0059, 49.70855
264.4880, 49.87573
264.9702, 50.10040
265.4523, 50.34533
265.9344, 50.61167
266.4165, 50.94624
266.8986, 51.11521
267.3807, 51.01491
267.8629, 50.76818
268.3450, 50.82846
268.8271, 51.34613
269.3092, 51.80341
269.7913, 51.86263
270.2734, 51.40458
270.7556, 51.12752
271.2377, 51.05545
271.7198, 51.18797
272.2019, 51.61397
272.6840, 52.46643
273.1661, 53.16109
273.6483, 53.33456
274.1304, 52.89978
274.6125, 52.66899
275.0946, 52.69695
275.5767, 52.87281
276.0588, 52.98105
276.5410, 52.98736
277.0231, 53.09628
277.5052, 53.44685
277.9873, 54.04535
278.4694, 54.48616
278.9515, 54.74225
279.4337, 54.89351
279.9158, 55.05235
280.3979, 55.22298
280.8800, 55.34821
281.3621, 55.40812
281.8442, 55.40435
282.3264, 55.33970
282.8085, 55.21072
283.2906, 55.03727
283.7727, 54.78321
284.2548, 54.44689
284.7369, 54.28211
285.2191, 54.44598
285.7012, 54.82980
286.1833, 54.95213
286.6654, 54.77905
287.1475, 54.57262
287.6296, 54.66780
288.1118, 55.02017
288.5939, 55.12432
289.0760, 54.70553
289.5581, 54.08321
290.0402, 54.18510
290.5223, 55.03587
291.0045, 55.87224
291.4866, 55.94955
291.9687, 55.45183
292.4508, 55.29258
292.9329, 55.73097
293.4150, 56.42765
293.8972, 56.78180
294.3793, 56.82221
294.8614, 56.87979
295.3435, 57.27613
295.8256, 57.86499
296.3077, 58.18740
296.7899, 58.11764
297.2720, 57.97159
297.7541, 58.22647
298.2362, 58.80140
298.7183, 59.34021
299.2004, 59.42304
299.6826, 59.38041
300.1647, 59.97723
300.6468, 61.36505
301.1289, 62.76337
301.6110, 63.25761
302.0931, 63.11219
302.5753, 63.04039
303.0574, 63.53527
303.5395, 64.21798
304.0216, 64.50304
304.5037, 64.37078
304.9858, 64.30348
305.4680, 64.80424
305.9501, 65.63399
306.4322, 66.37711
306.9143, 66.69604
307.3964, 67.00621
307.8785, 67.80860
308.3607, 69.04654
308.8428, 70.20211
309.3249, 70.69125
309.8070, 70.99170
310.2891, 71.68592
310.7712, 73.19931
311.2534, 74.82425
311.7355, 76.08929
312.2176, 77.06440
312.6997, 77.96949
313.1818, 78.62646
313.6639, 79.41381
314.1461, 80.69750
314.6282, 82.74049
315.1103, 84.85540
315.5924, 86.83178
316.0745, 88.62487
316.5566, 90.17190
317.0388, 91.59672
317.5209, 92.63626
318.0030, 93.08581
318.4851, 92.81503
318.9672, 92.40067
319.4493, 91.96676
319.9315, 91.52585
320.4136, 91.08819
320.8957, 90.63007
321.3778, 90.20523
321.8599, 89.75485
322.3420, 89.25060
322.8242, 89.05479
323.3063, 89.27090
323.7884, 89.81367
324.2705, 90.60873
324.7526, 91.73756
325.2347, 93.02977
325.7169, 94.55358
326.1990, 96.28519
326.6811, 97.78764
327.1632, 98.69096
327.6453, 99.58823
328.1274, 100.8065
328.6096, 102.2340
329.0917, 104.1467
329.5738, 106.8136
330.0559, 109.9799
330.5380, 112.8764
331.0201, 115.3918
331.5023, 117.7567
331.9844, 119.9994
332.4665, 121.8119
332.9486, 124.2195
333.4307, 127.3283
333.9128, 130.9682
334.3950, 134.8425
334.8771, 139.2150
335.3592, 143.3792
335.8413, 146.9657
336.3234, 149.8900
336.8055, 153.2797
337.2877, 157.1969
337.7698, 161.4431
338.2519, 166.0241
338.7340, 171.1376
339.2161, 175.6078
339.6982, 178.8749
340.1803, 181.2441
340.6624, 184.5120
341.1446, 188.9462
341.6267, 193.5231
342.1088, 197.6237
342.5909, 201.2088
343.0730, 204.3926
343.5551, 206.9549
344.0373, 209.3606
344.5194, 212.5604
345.0015, 216.5908
345.4836, 221.2064
345.9657, 226.4014
346.4478, 232.1067
346.9300, 237.9015
347.4121, 243.7831
347.8942, 249.8555
348.3763, 256.3293
348.8584, 263.1882
349.3405, 270.4756
349.8227, 278.4884
350.3048, 286.8929
350.7869, 294.7822
351.2690, 302.1048
351.7511, 309.8281
352.2332, 319.1643
352.7154, 329.4812
353.1975, 339.5045
353.6796, 349.4120
354.1617, 358.2528
354.6438, 365.0496
355.1259, 369.8433
355.6081, 372.8650
356.0902, 374.3985
356.5723, 374.1987
357.0544, 371.9505
357.5365, 367.4822
358.0186, 361.2498
358.5008, 353.1631
358.9829, 343.5383
359.4650, 333.0582
359.9471, 321.9603
360.4292, 310.1696
360.9113, 297.2444
361.3935, 283.0502
361.8756, 269.4071
362.3577, 256.9956
362.8398, 245.5802
363.3219, 234.8919
363.8040, 224.5724
364.2862, 215.2504
364.7683, 207.3218
365.2504, 200.7124
365.7325, 194.5809
366.2146, 188.8079
366.6967, 183.3661
367.1789, 178.2381
367.6610, 172.8834
368.1431, 168.4787
368.6252, 165.3970
369.1073, 163.3388
369.5894, 161.3823
370.0716, 159.5693
370.5537, 157.7993
371.0358, 156.0535
371.5179, 154.4079
372.0000, 152.5193
372.4821, 150.2044
372.9643, 147.7888
373.4464, 145.7690
373.9285, 144.4516
374.4106, 142.9273
374.8927, 141.0662
375.3748, 138.8434
375.8570, 135.9024
376.3391, 132.0929
376.8212, 127.8267
377.3033, 123.2121
377.7854, 118.1649
378.2675, 113.6208
378.7497, 109.7678
379.2318, 106.3936
379.7139, 102.8884
380.1960, 99.27973
380.6781, 95.57849
381.1602, 91.66545
381.6424, 87.63199
382.1245, 84.11280
382.6066, 81.15342
383.0887, 78.51306
383.5708, 75.84324
384.0529, 73.19614
384.5351, 70.69164
385.0172, 68.34795
385.4993, 66.23096
385.9814, 64.44896
386.4635, 63.00481
386.9456, 61.63511
387.4278, 60.08052
387.9099, 58.49150
388.3920, 57.09985
388.8741, 56.01925
389.3562, 55.07495
389.8383, 54.13359
390.3205, 53.19292
390.8026, 52.27359
391.2847, 51.44311
391.7668, 50.60318
392.2489, 49.60773
392.7310, 48.38658
393.2132, 47.33112
393.6953, 46.74328
394.1774, 46.40427
394.6595, 46.04668
395.1416, 45.62641
395.6237, 45.14376
396.1059, 44.52126
396.5880, 43.77853
397.0701, 43.20745
397.5522, 42.92753
398.0343, 42.80304
398.5164, 42.76123
398.9986, 43.14287
399.4807, 43.15255
399.9628, 42.52245
400.4449, 41.52480
400.9270, 40.78241
401.4091, 40.40459
401.8913, 40.15244
402.3734, 39.98077
402.8555, 39.91677
403.3376, 39.75842
403.8197, 39.40625
404.3018, 39.07540
404.7840, 39.01971
405.2661, 39.31391
405.7482, 39.65022
406.2303, 40.06956
406.7124, 40.46717
407.1945, 40.32764
407.6767, 39.55737
408.1588, 38.70963
408.6409, 38.10368
409.1230, 37.74040
409.6051, 37.63796
410.0872, 37.86322
410.5694, 38.15753
411.0515, 38.08025
411.5336, 37.68917
412.0157, 37.34325
412.4978, 37.26363
412.9799, 37.31834
413.4621, 37.20624
413.9442, 36.93137
414.4263, 36.69960
414.9084, 36.72580
415.3905, 36.89484
415.8727, 37.04346
416.3548, 37.20685
416.8369, 37.20625
417.3190, 36.72924
417.8011, 35.95070
418.2832, 35.32678
418.7654, 35.12759
419.2475, 35.13810
419.7296, 35.31250
420.2117, 35.70964
420.6938, 35.84815
421.1759, 35.17202
421.6581, 34.28802
422.1402, 33.83202
422.6223, 34.42921
423.1044, 34.97447
423.5865, 35.19576
424.0686, 35.11916
424.5508, 34.99049
425.0329, 34.69007
425.5150, 34.45700
425.9971, 34.41248
426.4792, 34.69221
426.9613, 34.88456
427.4435, 35.00262
427.9256, 35.02504
428.4077, 34.89479
428.8898, 34.51798
429.3719, 34.18929
429.8540, 33.96117
430.3362, 33.83753
430.8183, 33.93322
431.3004, 34.33434
431.7825, 34.70642
432.2646, 34.73278
432.7467, 34.41303
433.2289, 34.09437
433.7110, 33.78241
434.1931, 33.57310
434.6752, 33.73346
435.1573, 34.22874
435.6394, 34.68079
436.1216, 34.88852
436.6036, 34.91470
437.0858, 34.88163
437.5679, 34.79121
438.0500, 34.66419
438.5321, 34.41292
439.0142, 34.15668
439.4963, 34.12539
439.9785, 34.56823
440.4606, 35.00566
440.9427, 34.98543
441.4248, 34.63202
441.9069, 34.31096
442.3890, 34.09956
442.8712, 34.05083
443.3533, 34.29329
443.8354, 34.94007
444.3175, 35.36286
444.7996, 35.10249
445.2817, 34.61384
445.7639, 34.37024
446.2460, 34.82827
446.7281, 35.12725
447.2102, 35.02564
447.6923, 34.58213
448.1744, 34.23056
448.6566, 33.92420
449.1387, 33.75953
449.6208, 33.81857
450.1029, 34.24508
450.5850, 34.43511
451.0671, 34.24550
451.5493, 33.96427
452.0314, 34.03522
452.5135, 34.54296
452.9956, 35.04380
453.4777, 35.45924
453.9598, 35.76804
454.4420, 35.84798
454.9241, 35.68243
455.4062, 35.43853
455.8883, 35.20387
456.3704, 34.98750
456.8525, 34.82375
457.3347, 34.70958
457.8168, 34.68655
458.2989, 34.87986
458.7810, 35.22100
459.2631, 35.50151
459.7452, 35.62154
460.2274, 35.64350
460.7095, 35.50507
461.1916, 35.25370
461.6737, 35.27455
462.1558, 36.26106
462.6379, 37.38192
463.1201, 37.80311
463.6022, 37.04870
464.0843, 36.34344
464.5664, 36.22295
465.0485, 36.46092
465.5306, 36.69647
466.0128, 36.80246
466.4949, 36.93631
466.9770, 37.14180
467.4591, 37.42154
467.9412, 37.74102
468.4233, 38.16059
468.9055, 38.56927
469.3876, 38.89772
469.8697, 39.06746
470.3518, 39.33708
470.8339, 39.76510
471.3160, 40.26145
471.7982, 40.66670
472.2803, 40.97521
472.7624, 41.20419
473.2445, 41.27041
473.7266, 41.24758
474.2087, 41.66718
474.6909, 42.57683
475.1730, 43.50219
475.6551, 43.95174
476.1372, 44.04682
476.6193, 44.28808
477.1014, 44.74627
477.5836, 45.36747
478.0657, 46.16922
478.5478, 47.09407
479.0299, 47.96177
479.5120, 48.58905
479.9941, 49.19889
480.4763, 50.00810
480.9584, 51.00695
481.4405, 52.04060
481.9226, 53.04756
482.4047, 54.04101
482.8868, 55.02832
483.3690, 55.97190
483.8511, 56.96915
484.3332, 58.15964
484.8153, 59.39454
485.2974, 60.45673
485.7795, 61.42231
486.2617, 62.07984
486.7438, 62.42978
487.2259, 62.46809
487.7080, 62.01583
488.1901, 60.77930
488.6722, 59.43005
489.1544, 58.38347
489.6365, 57.76974
490.1186, 56.94210
490.6007, 55.74465
491.0828, 54.52708
491.5649, 53.85142
492.0471, 53.74065
492.5292, 53.77378
493.0113, 53.84937
493.4934, 53.95605
493.9755, 54.01366
494.4576, 54.02959
494.9398, 54.19160
495.4219, 54.64326
495.9040, 55.33667
496.3861, 56.22065
496.8682, 57.33990
497.3503, 58.42103
497.8325, 59.04509
498.3146, 59.52995
498.7967, 60.38264
499.2788, 62.17611
499.7609, 64.02666
500.2430, 65.35675
500.7252, 66.31774
501.2073, 67.62578
501.6894, 69.76629
502.1715, 72.06467
502.6536, 74.24967
503.1357, 76.29480
503.6179, 78.20060
504.1000, 80.04745
504.5821, 81.70693
505.0642, 83.06802
505.5463, 84.17832
506.0284, 84.89872
506.5106, 85.27808
506.9927, 85.22055
507.4748, 84.29769
507.9569, 82.37597
508.4390, 80.22782
508.9211, 78.31896
509.4033, 76.57001
509.8854, 74.13828
510.3675, 70.93250
510.8496, 67.81422
511.3317, 65.78273
511.8138, 64.51138
512.2960, 63.14311
512.7781, 61.39063
513.2602, 59.61599
513.7423, 58.13488
514.2244, 56.92080
514.7065, 55.90895
515.1887, 55.18574
515.6708, 54.55899
516.1529, 53.85884
516.6350, 53.08583
517.1171, 52.52250
517.5992, 52.30399
518.0814, 52.30975
518.5635, 52.49456
519.0456, 53.20816
519.5277, 53.50548
520.0098, 53.09814
520.4919, 52.35996
520.9741, 51.80829
521.4562, 51.38887
521.9383, 51.29795
522.4204, 51.72243
522.9025, 52.53602
523.3846, 52.89630
523.8668, 52.72001
524.3489, 52.42707
524.8310, 52.21045
525.3131, 52.08009
525.7952, 52.14229
526.2773, 52.41305
526.7595, 52.80561
527.2416, 53.38977
527.7237, 54.01907
528.2058, 54.29803
528.6879, 53.95890
529.1700, 53.43492
529.6522, 53.05619
530.1343, 52.82790
530.6164, 52.75278
531.0985, 52.91273
531.5806, 53.16657
532.0627, 53.45296
532.5449, 53.76913
533.0270, 54.05023
533.5091, 54.10175
533.9912, 54.21982
534.4733, 54.61773
534.9554, 55.76159
535.4376, 56.53989
535.9197, 56.66185
536.4018, 56.55495
536.8839, 56.98394
537.3660, 58.13252
537.8481, 59.32688
538.3303, 60.37416
538.8124, 61.32715
539.2945, 62.50618
539.7766, 63.92540
540.2587, 65.44900
540.7408, 66.93824
541.2230, 68.45655
541.7051, 70.17779
542.1872, 72.11366
542.6693, 74.25142
543.1514, 76.71371
543.6335, 79.36059
544.1157, 81.99657
544.5978, 84.52539
545.0799, 87.06882
545.5620, 89.60721
546.0441, 92.20040
546.5262, 94.99563
547.0084, 98.05811
547.4905, 101.3114
547.9726, 104.8374
548.4547, 108.6428
548.9368, 112.4113
549.4189, 115.7981
549.9011, 119.4025
550.3832, 123.5874
550.8653, 128.5609
551.3474, 133.6277
551.8295, 138.6487
552.3116, 143.8392
552.7938, 149.5461
553.2759, 155.8125
553.7580, 162.1764
554.2401, 168.5707
554.7222, 174.9370
555.2043, 181.0243
555.6865, 186.8271
556.1686, 192.8639
556.6507, 199.8802
557.1328, 207.1321
557.6149, 213.9386
558.0970, 220.2690
558.5792, 225.2185
559.0613, 228.1477
559.5434, 229.3350
560.0255, 229.0520
560.5076, 227.4986
560.9897, 224.2426
561.4719, 218.7228
561.9540, 211.4665
562.4361, 203.4486
562.9182, 194.5301
563.4003, 185.0358
563.8824, 174.5582
564.3646, 163.4036
564.8467, 153.1381
565.3288, 143.8911
565.8109, 135.2211
566.2930, 126.7366
566.7751, 118.4555
567.2573, 110.9603
567.7394, 104.2075
568.2215, 98.15556
568.7036, 92.74031
569.1857, 87.95247
569.6678, 83.53652
570.1500, 79.45288
570.6321, 75.81033
571.1142, 73.04414
571.5963, 70.86134
572.0784, 68.61102
572.5605, 65.61974
573.0427, 62.78674
573.5248, 60.70543
574.0069, 59.30723
574.4890, 57.94158
574.9711, 56.30250
575.4532, 54.76612
575.9354, 53.56454
576.4175, 52.80945
576.8996, 52.03362
577.3817, 51.20321
577.8638, 50.39431
578.3459, 49.64788
578.8281, 48.95447
579.3102, 48.43348
579.7923, 48.16695
580.2744, 47.97588
580.7565, 47.41142
581.2386, 46.50763
581.7208, 45.88709
582.2029, 45.93969
582.6850, 46.31010
583.1671, 46.36066
583.6492, 46.13155
584.1313, 45.86206
584.6134, 45.66674
585.0955, 45.52212
585.5776, 45.39243
586.0598, 45.26811
586.5419, 45.22845
587.0240, 45.35226
587.5061, 45.54837
587.9882, 45.74421
588.4703, 46.04061
588.9525, 46.17279
589.4346, 46.00318
589.9167, 45.72153
590.3988, 45.67664
590.8809, 46.04879
591.3630, 46.17304
591.8452, 45.81539
592.3273, 45.12368
592.8094, 44.66451
593.2915, 44.44754
593.7736, 44.30417
594.2557, 44.21874
594.7379, 44.12518
595.2200, 43.81960
595.7021, 43.30128
596.1842, 42.70882
596.6663, 42.04053
597.1484, 41.41066
597.6306, 40.98879
598.1127, 40.89737
598.5948, 40.77383
599.0769, 40.36543
599.5590, 39.85892
600.0411, 39.48753
600.5233, 39.48667
601.0054, 39.40862
601.4875, 39.10563
601.9696, 38.67637
602.4517, 38.42444
602.9338, 38.41293
603.4160, 38.43789
603.8981, 38.42198
604.3802, 38.37520
604.8623, 38.42908
605.3444, 38.60161
605.8265, 38.73388
606.3087, 38.68164
606.7908, 38.49596
607.2729, 38.26724
607.7550, 37.98269
608.2371, 37.84279
608.7192, 38.16617
609.2014, 38.69864
609.6835, 39.09469
610.1656, 39.21606
610.6477, 39.23840
611.1298, 39.15034
611.6119, 39.02938
612.0941, 39.01257
612.5762, 39.34592
613.0583, 39.53363
613.5404, 39.37772
614.0225, 38.97030
614.5046, 38.82178
614.9868, 39.04893
615.4689, 39.27293
615.9510, 39.32600
616.4331, 39.21339
616.9152, 39.03561
617.3973, 38.78399
617.8795, 38.54787
618.3616, 38.41834
618.8437, 38.36773
619.3258, 38.36583
619.8079, 38.43432
620.2900, 38.40816
620.7722, 37.90873
621.2543, 37.29522
621.7364, 37.09081
622.2185, 37.98769
622.7006, 38.65824
623.1827, 38.43885
623.6649, 37.68664
624.1470, 37.25547
624.6291, 37.37724
625.1112, 37.65565
625.5933, 38.02893
626.0754, 38.49288
626.5576, 39.02382
627.0397, 39.64365
627.5218, 40.25704
628.0039, 40.78035
628.4860, 41.23383
628.9681, 41.80809
629.4503, 42.51151
629.9324, 43.25856
630.4145, 43.98000
630.8966, 44.69959
631.3787, 45.45019
631.8608, 46.21924
632.3430, 47.06912
632.8251, 48.09081
633.3072, 49.19647
633.7893, 50.29192
634.2714, 51.28123
634.7535, 52.34035
635.2357, 53.62217
635.7178, 54.99213
636.1999, 56.11774
636.6820, 56.73390
637.1641, 57.57787
637.6462, 58.84688
638.1284, 60.49432
638.6105, 62.34495
639.0926, 64.46287
639.5747, 66.26827
640.0568, 67.35287
640.5389, 67.85909
641.0211, 68.15011
641.5032, 68.23177
641.9853, 68.07924
642.4674, 67.60287
642.9495, 66.91891
643.4316, 66.21019
643.9138, 65.59893
644.3959, 64.59567
644.8780, 62.74188
645.3601, 60.53054
645.8422, 58.48400
646.3243, 56.74320
646.8065, 55.05075
647.2886, 53.35895
647.7707, 51.72634
648.2528, 50.26665
648.7349, 49.05738
649.2170, 47.67432
649.6992, 45.85688
650.1813, 43.90372
650.6634, 42.58175
651.1455, 41.85676
651.6276, 41.31525
652.1097, 40.82822
652.5919, 40.33715
653.0740, 39.71160
653.5561, 38.97566
654.0382, 38.30530
654.5203, 37.80068
655.0024, 37.40278
655.4846, 37.06049
655.9667, 36.75726
656.4488, 36.58114
656.9309, 36.81365
657.4130, 36.96547
657.8951, 36.66730
658.3773, 35.70748
658.8594, 34.91042
659.3415, 34.29924
659.8236, 33.86077
660.3057, 33.66897
660.7878, 33.69247
661.2700, 33.52735
661.7521, 32.99107
662.2342, 32.43076
662.7163, 32.38377
663.1984, 32.68171
663.6805, 32.89937
664.1627, 32.77455
664.6448, 32.57602
665.1269, 32.47042
665.6090, 32.42468
666.0911, 32.31037
666.5732, 31.99287
667.0554, 31.70780
667.5375, 31.53844
668.0196, 31.48309
668.5017, 31.43808
668.9838, 31.42719
669.4659, 31.36969
669.9481, 31.15621
670.4302, 30.80776
670.9123, 30.71569
671.3944, 30.90735
671.8765, 31.09386
672.3586, 30.90998
672.8408, 30.55954
673.3229, 30.44366
673.8050, 30.68985
674.2871, 30.87007
674.7692, 30.58041
675.2513, 30.12319
675.7335, 29.83236
676.2156, 30.01670
676.6977, 30.08823
677.1798, 29.83768
677.6619, 29.48818
678.1440, 29.39873
678.6262, 29.70330
679.1083, 29.90327
679.5904, 29.86214
680.0725, 29.68980
680.5546, 29.66436
681.0367, 29.77983
681.5189, 29.91633
682.0010, 30.05514
682.4831, 30.15853
682.9652, 30.12878
683.4473, 29.99747
683.9294, 29.91240
684.4116, 30.04666
684.8937, 30.18009
685.3758, 30.15445
685.8579, 29.95325
686.3400, 29.77975
686.8221, 29.61910
687.3043, 29.54446
687.7864, 29.63483
688.2685, 29.96002
688.7506, 30.04465
689.2327, 29.83346
689.7148, 29.52959
690.1970, 29.28538
690.6791, 29.10340
691.1612, 29.01468
691.6433, 29.02456
692.1254, 29.11996
692.6075, 29.40744
693.0897, 29.74027
693.5718, 29.87913
694.0539, 29.68487
694.5360, 29.42424
695.0181, 29.04460
695.5002, 28.71904
695.9824, 28.71426
696.4645, 29.54865
696.9466, 30.03966
697.4287, 29.90361
697.9108, 29.40695
698.3929, 29.25036
698.8751, 29.50378
699.3572, 29.66864
699.8393, 29.52761
700.3214, 29.23465
700.8035, 29.17582
701.2856, 29.31752
701.7678, 29.46473
702.2499, 29.49845
702.7320, 29.49060
703.2141, 29.53797
703.6962, 29.62367
704.1783, 29.60741
704.6605, 29.29173
705.1426, 28.98650
705.6247, 28.84599
706.1068, 28.88154
706.5889, 28.98711
707.0710, 29.18246
707.5532, 29.41141
708.0353, 29.69130
708.5174, 30.02232
708.9995, 30.09151
709.4816, 29.86336
709.9637, 29.58851
710.4459, 29.46684
710.9280, 29.47980
711.4101, 29.64293
711.8922, 30.00559
712.3743, 30.27923
712.8564, 30.25094
713.3386, 30.05054
713.8207, 29.80695
714.3028, 29.37499
714.7849, 29.16703
715.2670, 29.33128
715.7491, 29.64592
716.2313, 29.82765
716.7134, 29.84144
717.1955, 29.86344
717.6776, 29.93272
718.1597, 30.00447
718.6418, 29.91746
719.1240, 29.73184
719.6061, 29.76260
720.0882, 30.33538
720.5703, 30.91323
721.0524, 30.80261
721.5345, 30.26500
722.0167, 29.92847
722.4988, 30.24825
722.9809, 30.58665
723.4630, 30.67911
723.9451, 30.58161
724.4272, 30.63396
724.9094, 31.04353
725.3915, 31.18140
725.8736, 30.66535
726.3557, 29.69100
726.8378, 29.41681
727.3199, 29.85040
727.8021, 30.30489
728.2842, 30.23224
728.7663, 29.95160
729.2484, 30.09250
729.7305, 30.61396
730.2126, 30.92045
730.6948, 30.31526
731.1769, 29.65330
731.6590, 29.60292
732.1411, 30.36592
732.6232, 30.79160
733.1053, 30.59247
733.5875, 30.28532
734.0696, 30.16233
734.5517, 30.23899
735.0338, 30.40789
735.5159, 30.70279
735.9980, 30.94802
736.4802, 30.91005
736.9623, 30.69250
737.4444, 30.58034
737.9265, 30.61554
738.4086, 30.70592
738.8907, 30.86761
739.3729, 31.00506
739.8550, 30.99596
740.3371, 30.68777
740.8192, 30.49194
741.3013, 30.57100
741.7834, 30.73812
742.2656, 30.83056
742.7477, 30.85479
743.2298, 30.74704
743.7119, 30.43740
744.1940, 30.12717
744.6761, 30.17095
745.1583, 30.50111
745.6404, 30.79716
746.1225, 30.99225
746.6046, 31.08359
747.0867, 30.93176
747.5688, 30.70063
748.0510, 30.67063
748.5331, 31.27147
749.0152, 31.69944
749.4973, 31.58681
749.9794, 31.19046
750.4615, 31.03435
750.9437, 31.25086
751.4258, 31.36653
751.9079, 31.22102
752.3900, 30.96777
752.8721, 31.01998
753.3542, 31.34726
753.8364, 31.68570
754.3185, 32.01918
754.8006, 32.20614
755.2827, 31.90546
755.7648, 31.29748
756.2469, 30.90933
756.7291, 31.18865
757.2112, 31.50205
757.6933, 31.61034
758.1754, 31.53007
758.6575, 31.39512
759.1396, 31.07670
759.6218, 30.98470
760.1039, 31.39615
760.5860, 32.12260
761.0681, 32.23100
761.5502, 31.73868
762.0323, 31.29947
762.5145, 31.38045
762.9966, 31.68528
763.4787, 31.77543
763.9608, 31.69408
764.4429, 31.74497
764.9250, 32.40914
765.4072, 32.94404
765.8893, 32.83393
766.3714, 32.02868
766.8535, 31.58924
767.3356, 31.65861
767.8177, 31.83998
768.2999, 31.94025
768.7820, 31.97368
769.2641, 32.16312
769.7462, 32.51532
770.2283, 32.70823
770.7104, 32.30556
771.1926, 31.69500
771.6747, 31.44054
772.1568, 31.56913
772.6389, 31.74043
773.1210, 31.84094
773.6031, 31.89292
774.0853, 31.89625
774.5674, 31.83885
775.0495, 31.80900
775.5316, 31.78299
776.0137, 31.82736
776.4958, 32.03438
776.9780, 32.39120
777.4601, 32.57952
777.9422, 32.58732
778.4243, 32.57526
778.9064, 32.73784
779.3885, 32.93604
779.8707, 32.95568
780.3528, 32.75780
780.8349, 32.58676
781.3170, 32.64108
781.7991, 32.70054
782.2812, 32.56758
782.7633, 32.11717
783.2454, 31.92579
783.7275, 32.06898
784.2097, 32.33085
784.6918, 32.57511
785.1739, 32.79282
785.6560, 32.91152
786.1381, 32.92465
786.6202, 32.86505
787.1024, 32.64118
787.5845, 32.41975
788.0666, 32.46651
788.5487, 32.89384
789.0308, 33.21677
789.5129, 33.15438
789.9951, 32.99434
790.4772, 32.96195
790.9593, 33.09841
791.4414, 33.26765
791.9235, 33.50887
792.4056, 33.69754
792.8878, 33.63348
793.3699, 33.38745
793.8520, 33.37562
794.3341, 33.66343
794.8162, 33.96301
795.2983, 33.99839
795.7805, 33.92660
796.2626, 33.93016
796.7447, 34.07406
797.2268, 34.19587
797.7089, 34.20650
798.1910, 34.21844
798.6732, 34.33852
799.1553, 34.64323
799.6374, 34.76439
800.1195, 34.66937
800.6016, 34.47258
801.0837, 34.19296
801.5659, 33.90845
802.0480, 33.89934
802.5301, 34.23418
803.0122, 34.60478
803.4943, 34.77374
803.9764, 34.87209
804.4586, 35.03443
804.9407, 35.32249
805.4228, 35.58091
805.9049, 35.82348
806.3870, 36.00518
806.8691, 36.03911
807.3513, 35.88161
807.8334, 36.04107
808.3155, 36.61372
808.7976, 37.13905
809.2797, 36.97746
809.7618, 36.45553
810.2440, 36.23092
810.7261, 36.43699
811.2082, 36.71596
811.6903, 36.89738
812.1724, 37.04531
812.6545, 37.21053
813.1367, 37.39785
813.6188, 37.61374
814.1009, 37.88198
814.5830, 38.13708
815.0651, 38.29348
815.5472, 38.36288
816.0294, 38.53959
816.5115, 38.84604
816.9936, 39.14136
817.4757, 39.30175
817.9578, 39.36779
818.4399, 39.35118
818.9221, 39.22133
819.4042, 39.20525
819.8863, 39.52871
820.3684, 39.87898
820.8505, 40.02512
821.3326, 39.88615
821.8148, 39.88816
822.2969, 40.05780
822.7790, 40.27833
823.2611, 40.47336
823.7432, 40.63420
824.2253, 40.74584
824.7075, 40.80632
825.1896, 40.76299
825.6717, 40.34919
826.1538, 39.97074
826.6359, 40.05989
827.1180, 40.80412
827.6002, 41.21121
828.0823, 40.89681
828.5644, 40.59258
829.0465, 40.77650
829.5286, 41.46346
830.0107, 41.85729
830.4929, 41.93217
830.9750, 42.01140
831.4571, 42.44985
831.9392, 43.01118
832.4213, 43.29560
832.9034, 43.28691
833.3856, 43.29487
833.8677, 43.43404
834.3498, 43.65681
834.8319, 43.95329
835.3140, 44.32087
835.7961, 44.69778
836.2783, 45.05921
836.7604, 45.50044
837.2425, 46.18987
837.7246, 47.00127
838.2067, 47.32239
838.6888, 47.20305
839.1710, 47.11635
839.6531, 47.27826
840.1352, 47.67613
840.6173, 48.43109
841.0994, 49.49128
841.5815, 50.32813
842.0637, 50.67065
842.5458, 50.98347
843.0279, 51.36251
843.5100, 51.82434
843.9921, 52.51416
844.4742, 53.43463
844.9564, 54.38001
845.4385, 55.26768
845.9206, 56.10263
846.4027, 56.70779
846.8848, 57.23419
847.3669, 58.19725
847.8491, 60.31903
848.3312, 62.41317
848.8133, 63.92641
849.2954, 65.04675
849.7775, 66.36880
850.2596, 67.95083
850.7418, 69.54774
851.2239, 71.00848
851.7060, 72.54830
852.1881, 74.72447
852.6702, 77.41788
853.1523, 80.07539
853.6345, 82.43951
854.1166, 84.76006
854.5987, 87.18614
855.0808, 89.68104
855.5629, 92.23382
856.0450, 94.90560
856.5272, 97.48619
857.0093, 99.81834
857.4914, 102.1526
857.9735, 104.9471
858.4556, 108.1623
858.9377, 111.4508
859.4199, 114.6323
859.9020, 117.9907
860.3841, 121.9408
860.8662, 126.2024
861.3483, 130.4794
861.8304, 134.9073
862.3126, 138.8695
862.7947, 141.9015
863.2768, 144.5666
863.7589, 147.3698
864.2410, 150.4372
864.7231, 153.1928
865.2053, 155.7409
865.6874, 157.4621
866.1695, 157.4555
866.6516, 156.2058
867.1337, 154.7152
867.6158, 153.1661
868.0980, 151.0914
868.5801, 147.9715
869.0622, 144.3993
869.5443, 140.8144
870.0264, 137.2358
870.5085, 133.5107
870.9907, 129.6491
871.4728, 125.7437
871.9549, 121.7986
872.4370, 117.9012
872.9191, 114.4896
873.4012, 111.5224
873.8834, 108.6405
874.3655, 105.2870
874.8476, 102.1610
875.3297, 99.81367
875.8118, 98.27016
876.2939, 96.87702
876.7761, 95.72997
877.2582, 94.45523
877.7403, 92.77968
878.2224, 90.87189
878.7045, 89.61561
879.1866, 88.98125
879.6688, 88.67702
880.1509, 88.74861
880.6330, 88.91325
881.1151, 88.89153
881.5972, 88.73100
882.0793, 88.56906
882.5615, 88.04069
883.0436, 88.05323
883.5257, 88.99329
884.0078, 90.45474
884.4899, 91.50925
884.9720, 92.13245
885.4542, 92.84337
885.9363, 93.82316
886.4184, 94.83729
886.9005, 95.28014
887.3826, 95.60879
887.8647, 96.67789
888.3469, 99.36440
888.8290, 101.7572
889.3111, 102.8443
889.7932, 103.6054
890.2753, 105.0295
890.7574, 107.2511
891.2396, 109.5825
891.7217, 112.0140
892.2038, 114.4650
892.6859, 116.7483
893.1680, 119.0153
893.6501, 121.5599
894.1323, 124.4437
894.6144, 127.6028
895.0965, 131.6542
895.5786, 135.4900
896.0607, 138.0536
896.5428, 139.0627
897.0250, 141.6033
897.5071, 146.0861
897.9892, 150.7144
898.4713, 154.0209
898.9534, 156.6649
899.4355, 160.8997
899.9177, 166.4877
900.3998, 172.0584
900.8819, 176.1436
901.3640, 180.4551
901.8461, 185.9853
902.3282, 192.6149
902.8104, 199.4091
903.2925, 206.2681
903.7746, 213.2536
904.2567, 219.9947
904.7388, 227.2090
905.2209, 236.7507
905.7031, 248.3014
906.1852, 260.5161
906.6673, 272.7908
907.1494, 285.9441
907.6315, 300.1574
908.1136, 315.7492
908.5958, 333.3177
909.0779, 353.4453
909.5600, 374.5142
910.0421, 396.4494
910.5242, 419.2062
911.0063, 442.7442
911.4885, 467.1830
911.9706, 493.7217
912.4527, 522.3534
912.9348, 552.5829
913.4169, 584.0101
913.8990, 616.7756
914.3812, 650.7620
914.8633, 685.6320
915.3454, 723.7930
915.8275, 766.5504
916.3096, 810.3774
916.7917, 853.3927
917.2739, 897.8347
917.7560, 940.7823
918.2381, 987.7370
918.7202, 1034.308
919.2023, 1081.032
919.6844, 1124.852
920.1666, 1165.254
920.6487, 1201.467
921.1308, 1229.787
921.6129, 1250.458
922.0950, 1262.958
922.5771, 1267.865
923.0593, 1263.839
923.5414, 1246.284
924.0235, 1216.121
924.5056, 1177.922
924.9877, 1132.439
925.4698, 1081.960
925.9520, 1026.760
926.4341, 968.3192
926.9162, 909.2089
927.3983, 847.2740
927.8804, 788.8930
928.3625, 734.8546
928.8447, 684.1924
929.3268, 635.8674
929.8089, 590.3581
930.2910, 548.3965
930.7731, 509.7758
931.2552, 474.5998
931.7374, 442.3155
932.2195, 412.8988
932.7016, 386.0451
933.1837, 362.0537
933.6658, 339.9762
934.1479, 319.7961
934.6301, 301.0733
935.1122, 283.4950
935.5943, 267.2155
936.0764, 253.3416
936.5585, 241.5487
937.0406, 230.3233
937.5228, 218.3726
938.0049, 206.9361
938.4870, 196.9826
938.9691, 188.2170
939.4512, 179.9902
939.9333, 171.9605
940.4155, 164.7221
940.8976, 158.4846
941.3797, 152.8602
941.8618, 147.5003
942.3439, 142.3211
942.8260, 136.9938
943.3082, 131.2921
943.7903, 125.8992
944.2724, 121.2721
944.7545, 117.2438
945.2366, 113.6965
945.7188, 110.8140
946.2009, 107.7492
946.6830, 104.3829
947.1651, 101.0641
947.6472, 97.96371
948.1293, 95.10917
948.6115, 92.57138
949.0936, 90.34856
949.5757, 88.32214
950.0578, 86.49232
950.5399, 84.79931
951.0220, 83.28772
951.5042, 81.90199
951.9863, 80.40959
952.4684, 78.78801
952.9505, 77.07790
953.4326, 75.18172
953.9147, 73.38047
954.3969, 72.27457
954.8790, 71.64556
955.3611, 70.87026
955.8432, 69.70023
956.3253, 68.57922
956.8074, 67.90586
957.2896, 67.28702
957.7717, 66.29044
958.2538, 64.71844
958.7359, 63.44780
959.2180, 62.49017
959.7001, 61.82494
960.1823, 61.66639
960.6644, 61.71055
961.1465, 61.26775
961.6286, 60.37337
962.1107, 59.55273
962.5928, 59.19927
963.0750, 58.82156
963.5571, 58.13677
964.0392, 57.25414
964.5213, 56.58930
965.0034, 56.15430
965.4855, 55.85006
965.9677, 55.67274
966.4498, 55.55613
966.9319, 55.40473
967.4140, 55.25030
967.8961, 55.17145
968.3782, 55.37878
968.8604, 55.29592
969.3425, 54.56965
969.8246, 53.74269
970.3067, 53.22993
970.7888, 53.03982
971.2709, 53.06018
971.7531, 53.29840
972.2352, 53.51014
972.7173, 53.52182
973.1994, 53.39053
973.6815, 53.05301
974.1636, 52.55402
974.6458, 52.36302
975.1279, 52.73104
975.6100, 53.19710
976.0921, 53.76094
976.5742, 54.25002
977.0563, 53.97441
977.5385, 53.09090
978.0206, 52.59558
978.5027, 52.97887
978.9848, 53.55458
979.4669, 53.89240
979.9490, 54.07346
980.4311, 54.19818
980.9132, 54.30993
981.3953, 54.25385
981.8774, 53.90446
982.3596, 53.70346
982.8417, 54.35204
983.3238, 55.43417
983.8059, 55.47982
984.2880, 54.52574
984.7701, 53.87183
985.2523, 54.57698
985.7344, 55.47062
986.2165, 55.99321
986.6986, 56.17777
987.1807, 56.15704
987.6628, 55.91174
988.1450, 55.55278
988.6271, 55.05212
989.1092, 54.57782
989.5913, 54.51303
990.0734, 54.62429
990.5555, 54.46788
991.0377, 53.79591
991.5198, 53.10456
992.0019, 52.43390
992.4840, 51.86676
992.9661, 51.49206
993.4482, 51.31582
993.9304, 51.18081
994.4125, 51.08692
994.8946, 50.89835
995.3767, 50.42821
995.8588, 49.88185
996.3409, 49.47233
996.8231, 49.17742
997.3052, 48.78398
997.7873, 48.19041
998.2694, 47.61633
998.7515, 47.09086
999.2336, 46.63231
999.7158, 46.30416
1000.198, 46.08569
1000.680, 45.93835
1001.162, 45.91246
1001.644, 45.75070
1002.126, 45.03226
1002.608, 44.28118
1003.091, 44.02629
1003.573, 44.37460
1004.055, 44.63820
1004.537, 44.84880
1005.019, 44.83369
1005.501, 44.22921
1005.983, 43.44976
1006.465, 43.28427
1006.948, 43.59551
1007.430, 43.83488
1007.912, 43.71993
1008.394, 43.57908
1008.876, 43.50931
1009.358, 43.45838
1009.840, 43.30249
1010.322, 43.04758
1010.804, 42.91916
1011.287, 42.97195
1011.769, 43.04637
1012.251, 42.85172
1012.733, 42.68961
1013.215, 42.95695
1013.697, 43.82555
1014.179, 44.27639
1014.661, 44.12986
1015.143, 43.88843
1015.626, 43.74104
1016.108, 43.70697
1016.590, 43.98516
1017.072, 44.45439
1017.554, 44.67308
1018.036, 44.06142
1018.518, 43.58900
1019.000, 43.81217
1019.483, 44.33781
1019.965, 44.57137
1020.447, 44.38776
1020.929, 44.74122
1021.411, 45.79198
1021.893, 46.76011
1022.375, 46.66950
1022.857, 46.18618
1023.339, 46.21194
1023.822, 46.79460
1024.304, 47.18346
1024.786, 46.99959
1025.268, 46.87482
1025.750, 47.00595
1026.232, 47.30658
1026.714, 47.52604
1027.196, 47.69206
1027.679, 47.95581
1028.161, 48.40401
1028.643, 48.86835
1029.125, 49.29620
1029.607, 49.65159
1030.089, 49.88232
1030.571, 49.95428
1031.053, 50.01897
1031.536, 50.04736
1032.018, 50.20699
1032.500, 50.72340
1032.982, 51.39277
1033.464, 51.86946
1033.946, 52.18827
1034.428, 52.54189
1034.910, 53.17360
1035.392, 53.60262
1035.875, 53.59535
1036.357, 53.46692
1036.839, 53.81078
1037.321, 54.57417
1037.803, 55.22875
1038.285, 55.67402
1038.767, 56.15726
1039.249, 57.02583
1039.731, 57.90625
1040.214, 58.38983
1040.696, 58.41376
1041.178, 58.88609
1041.660, 59.89911
1042.142, 61.01274
1042.624, 62.07957
1043.106, 63.09220
1043.588, 64.16029
1044.071, 65.18665
1044.553, 65.94950
1045.035, 66.02032
1045.517, 66.37669
1045.999, 67.34889
1046.481, 68.51495
1046.963, 69.41882
1047.445, 70.09720
1047.927, 71.16177
1048.410, 72.62966
1048.892, 74.06828
1049.374, 75.14040
1049.856, 76.10600
1050.338, 77.19248
1050.820, 78.33662
1051.302, 79.21554
1051.784, 79.81960
1052.266, 80.13993
1052.749, 80.09470
1053.231, 79.99006
1053.713, 80.33881
1054.195, 80.88692
1054.677, 81.24152
1055.159, 81.32494
1055.641, 81.22777
1056.123, 81.07677
1056.606, 80.61067
1057.088, 79.60708
1057.570, 78.18089
1058.052, 77.07300
1058.534, 76.21004
1059.016, 75.07969
1059.498, 73.31406
1059.980, 71.38628
1060.463, 69.46172
1060.945, 67.61460
1061.427, 65.93653
1061.909, 64.46310
1062.391, 63.14073
1062.873, 62.03664
1063.355, 60.75055
1063.837, 58.67818
1064.319, 56.36208
1064.802, 54.59408
1065.284, 53.33916
1065.766, 52.11599
1066.248, 50.64959
1066.730, 49.43946
1067.212, 48.67123
1067.694, 48.06613
1068.176, 47.07314
1068.658, 45.79944
1069.141, 44.64825
1069.623, 43.68969
1070.105, 42.92944
1070.587, 42.55538
1071.069, 42.22060
1071.551, 41.57868
1072.033, 40.68842
1072.515, 40.52315
1072.998, 41.11933
1073.480, 41.39491
1073.962, 40.70138
1074.444, 39.73442
1074.926, 39.15084
1075.408, 38.83220
1075.890, 38.61708
1076.372, 38.59786
1076.854, 38.42299
1077.337, 38.04882
1077.819, 37.63791
1078.301, 37.35330
1078.783, 37.12536
1079.265, 36.69870
1079.747, 36.14606
1080.229, 35.85590
1080.711, 36.33990
1081.193, 36.67836
1081.676, 36.61715
1082.158, 36.30471
1082.640, 35.89286
1083.122, 35.41372
1083.604, 35.25384
1084.086, 35.49569
1084.568, 35.67636
1085.050, 35.35846
1085.532, 34.91981
1086.015, 34.58225
1086.497, 34.36713
1086.979, 34.44990
1087.461, 34.91523
1087.943, 35.08522
1088.425, 34.64664
1088.907, 34.01712
1089.389, 33.68392
1089.872, 33.53607
1090.354, 33.41342
1090.836, 33.26738
1091.318, 33.20909
1091.800, 33.29286
1092.282, 33.35302
1092.764, 33.24526
1093.246, 33.05008
1093.729, 33.04831
1094.211, 33.18279
1094.693, 33.24299
1095.175, 33.02938
1095.657, 32.86767
1096.139, 32.85796
1096.621, 32.92998
1097.103, 33.04584
1097.585, 33.19954
1098.068, 33.19720
1098.550, 33.03249
1099.032, 32.92913
1099.514, 33.17222
1099.996, 33.41513
1100.478, 33.44691
1100.960, 33.27662
1101.442, 32.96556
1101.924, 32.47115
1102.407, 32.05088
1102.889, 31.72944
1103.371, 31.57712
1103.853, 31.83673
1104.335, 32.21029
1104.817, 32.28407
1105.299, 31.95888
1105.781, 31.95491
1106.264, 32.58273
1106.746, 32.86427
1107.228, 32.25726
1107.710, 31.31277
1108.192, 31.26140
1108.674, 31.74105
1109.156, 31.89413
1109.638, 31.25974
1110.120, 30.80181
1110.603, 30.83319
1111.085, 31.02750
1111.567, 31.23930
1112.049, 31.45016
1112.531, 31.52444
1113.013, 31.47485
1113.495, 31.38948
1113.977, 31.42417
1114.459, 31.30815
1114.942, 30.59991
1115.424, 29.84582
1115.906, 29.86284
1116.388, 30.76212
1116.870, 31.15067
1117.352, 30.94132
1117.834, 30.64746
1118.316, 30.71544
1118.799, 30.83302
1119.281, 30.66864
1119.763, 30.70663
1120.245, 30.70632
1120.727, 30.51803
1121.209, 30.62503
1121.691, 30.39743
1122.173, 30.15755
1122.656, 30.42738
1123.138, 30.84360
1123.620, 30.86465
1124.102, 30.41519
1124.584, 30.08968
1125.066, 29.99072
1125.548, 29.94896
1126.030, 29.91022
1126.512, 29.90158
1126.995, 30.03920
1127.477, 30.24027
1127.959, 30.29343
1128.441, 30.10257
1128.923, 29.93753
1129.405, 29.92667
1129.887, 29.90312
1130.369, 29.73193
1130.851, 29.48760
1131.334, 29.60428
1131.816, 29.99320
1132.298, 30.23517
1132.780, 30.05857
1133.262, 29.84343
1133.744, 29.82049
1134.226, 29.79544
1134.708, 29.51602
1135.191, 28.94442
1135.673, 28.85798
1136.155, 29.24253
1136.637, 29.64914
1137.119, 29.77947
1137.601, 29.84567
1138.083, 29.99720
1138.565, 30.18904
1139.047, 30.33555
1139.530, 30.45897
1140.012, 30.40394
1140.494, 30.14378
1140.976, 29.84516
1141.458, 29.56195
1141.940, 29.39080
1142.422, 29.53712
1142.904, 29.92203
1143.386, 30.06864
1143.869, 29.85933
1144.351, 29.69930
1144.833, 29.65940
1145.315, 29.69104
1145.797, 29.75481
1146.279, 29.84014
1146.761, 29.95769
1147.243, 30.11050
1147.726, 30.15011
1148.208, 30.00741
1148.690, 29.86138
1149.172, 29.76129
1149.654, 29.69169
1150.136, 29.61673
1150.618, 29.55126
1151.100, 29.52415
1151.583, 29.54098
1152.065, 29.60603
1152.547, 29.78716
1153.029, 29.91592
1153.511, 29.87352
1153.993, 29.74192
1154.475, 29.85701
1154.957, 30.12421
1155.439, 30.21704
1155.922, 29.93673
1156.404, 29.64213
1156.886, 29.34713
1157.368, 29.19856
1157.850, 29.36963
1158.332, 29.80737
1158.814, 29.99527
1159.296, 29.95732
1159.778, 29.84869
1160.261, 29.66185
1160.743, 29.52715
1161.225, 29.49227
1161.707, 29.55691
1162.189, 29.77568
1162.671, 30.15624
1163.153, 30.26751
1163.635, 30.10960
1164.118, 30.01163
1164.600, 30.36402
1165.082, 30.67506
1165.564, 30.48271
1166.046, 30.09089
1166.528, 30.12390
1167.010, 30.65174
1167.492, 30.90845
1167.974, 30.81835
1168.457, 30.63516
1168.939, 30.40271
1169.421, 30.30979
1169.903, 30.67571
1170.385, 31.33060
1170.867, 31.51858
1171.349, 31.16129
1171.831, 30.76497
1172.313, 30.38304
1172.796, 30.18461
1173.278, 30.52901
1173.760, 31.01255
1174.242, 31.24661
1174.724, 31.19824
1175.206, 31.09714
1175.688, 30.90293
1176.170, 30.88906
1176.653, 31.18830
1177.135, 31.49808
1177.617, 31.23729
1178.099, 30.87487
1178.581, 31.10777
1179.063, 32.12267
1179.545, 32.61217
1180.027, 32.39870
1180.510, 32.16304
1180.992, 32.12796
1181.474, 32.24366
1181.956, 32.59878
1182.438, 32.98987
1182.920, 33.05786
1183.402, 32.60540
1183.884, 32.35252
1184.366, 32.36935
1184.849, 32.47029
1185.331, 32.60374
1185.813, 32.72319
1186.295, 32.78939
1186.777, 32.76574
1187.259, 32.55047
1187.741, 31.87506
1188.223, 31.63005
1188.705, 32.04544
1189.188, 32.42506
1189.670, 32.22112
1190.152, 31.73380
1190.634, 31.55253
1191.116, 31.61482
1191.598, 31.77148
1192.080, 32.13285
1192.562, 32.31226
1193.045, 32.19823
1193.527, 32.10224
1194.009, 32.36192
1194.491, 32.79430
1194.973, 33.00132
1195.455, 33.00111
1195.937, 32.87418
1196.419, 32.38172
1196.901, 32.18546
1197.384, 32.44582
1197.866, 32.83137
1198.348, 33.11140
1198.830, 33.24760
1199.312, 33.00686
1199.794, 32.49025
1200.276, 32.21028
1200.758, 32.73682
1201.240, 32.96198
1201.723, 32.60419
1202.205, 32.11156
1202.687, 32.04386
1203.169, 32.25976
1203.651, 32.46923
1204.133, 32.63902
1204.615, 32.69846
1205.097, 32.43124
1205.580, 32.33426
1206.062, 32.57640
1206.544, 32.89687
1207.026, 32.84693
1207.508, 32.59237
1207.990, 32.59897
1208.472, 32.89431
1208.954, 33.05836
1209.437, 32.75003
1209.919, 32.56029
1210.401, 32.70314
1210.883, 32.90288
1211.365, 32.62601
1211.847, 32.05777
1212.329, 31.52102
1212.811, 31.05856
1213.293, 31.06380
1213.776, 32.35632
1214.258, 33.16826
1214.740, 32.88746
1215.222, 32.07743
1215.704, 31.76493
1216.186, 31.79767
1216.668, 31.86103
1217.150, 31.91014
1217.632, 31.86544
1218.115, 31.49444
1218.597, 31.38134
1219.079, 31.86432
1219.561, 32.51538
1220.043, 32.31343
1220.525, 31.64494
1221.007, 31.43584
1221.489, 31.99169
1221.972, 32.24779
1222.454, 31.68970
1222.936, 31.33779
1223.418, 31.69057
1223.900, 32.34179
1224.382, 32.39906
1224.864, 32.08934
1225.346, 31.89976
1225.828, 31.99614
1226.311, 31.96952
1226.793, 31.67911
1227.275, 31.44496
1227.757, 31.44600
1228.239, 31.55207
1228.721, 31.47515
1229.203, 31.30011
1229.685, 31.20710
1230.167, 31.28015
1230.650, 31.28605
1231.132, 31.12030
1231.614, 31.11109
1232.096, 31.54002
1232.578, 32.10113
1233.060, 32.15362
1233.542, 31.90476
1234.024, 31.75300
1234.507, 31.87529
1234.989, 31.86618
1235.471, 31.68368
1235.953, 31.45708
1236.435, 31.26040
1236.917, 31.06168
1237.399, 30.72141
1237.881, 30.36344
1238.364, 30.23759
1238.846, 30.57089
1239.328, 30.68048
1239.810, 30.50411
1240.292, 30.35023
1240.774, 30.40261
1241.256, 30.59055
1241.738, 30.92504
1242.220, 31.29042
1242.703, 31.47996
1243.185, 31.44952
1243.667, 31.21693
1244.149, 30.71447
1244.631, 30.43151
1245.113, 30.94762
1245.595, 31.60145
1246.077, 31.56212
1246.559, 31.80057
1247.042, 31.81660
1247.524, 31.53047
1248.006, 31.47038
1248.488, 30.85980
1248.970, 30.35319
1249.452, 30.46250
1249.934, 30.78329
1250.416, 31.09647
1250.899, 31.33138
1251.381, 31.36807
1251.863, 31.15810
1252.345, 31.03080
1252.827, 30.98858
1253.309, 31.03646
1253.791, 31.30257
1254.273, 31.52674
1254.755, 31.50391
1255.238, 31.34249
1255.720, 31.20000
1256.202, 31.07705
1256.684, 30.89203
1257.166, 30.65695
1257.648, 30.58167
1258.130, 30.95651
1258.612, 31.33831
1259.094, 31.47679
1259.577, 31.51586
1260.059, 31.61810
1260.541, 31.77044
1261.023, 31.77180
1261.505, 31.63387
1261.987, 31.48500
1262.469, 31.40541
1262.951, 31.30751
1263.434, 31.06876
1263.916, 30.90396
1264.398, 31.12115
1264.880, 31.60232
1265.362, 31.82068
1265.844, 31.79019
1266.326, 31.67390
1266.808, 31.41036
1267.291, 31.26790
1267.773, 31.30587
1268.255, 31.43495
1268.737, 31.59409
1269.219, 31.76680
1269.701, 31.94693
1270.183, 32.11056
1270.665, 32.17338
1271.147, 31.98695
1271.630, 31.88409
1272.112, 31.89034
1272.594, 31.97651
1273.076, 32.16864
1273.558, 32.39010
1274.040, 32.55748
1274.522, 32.65418
1275.004, 32.63615
1275.486, 32.48189
1275.969, 32.21888
1276.451, 31.80329
1276.933, 31.53924
1277.415, 31.83769
1277.897, 32.29861
1278.379, 32.51987
1278.861, 32.56176
1279.343, 32.63602
1279.825, 32.83946
1280.308, 32.53109
1280.790, 31.64471
1281.272, 30.96784
1281.754, 31.22013
1282.236, 31.75858
1282.718, 32.27967
1283.200, 32.70876
1283.682, 32.99092
1284.165, 33.13235
1284.647, 32.81795
1285.129, 32.07660
1285.611, 31.54478
1286.093, 31.77819
1286.575, 32.11305
1287.057, 32.30135
1287.539, 32.38997
1288.021, 32.37354
1288.504, 32.28891
1288.986, 32.40519
1289.468, 32.68616
1289.950, 32.86877
1290.432, 32.82827
1290.914, 32.65226
1291.396, 32.29967
1291.878, 31.94769
1292.360, 31.78021
1292.843, 31.73414
1293.325, 31.65254
1293.807, 31.55051
1294.289, 31.49521
1294.771, 31.64339
1295.253, 31.56181
1295.735, 31.12141
1296.217, 30.82042
1296.700, 31.35080
1297.182, 32.07844
1297.664, 31.98410
1298.146, 31.39349
1298.628, 31.19676
1299.110, 31.64909
1299.592, 31.83221
1300.074, 31.69610
1300.557, 31.54671
1301.039, 31.63846
1301.521, 31.76746
1302.003, 31.73544
1302.485, 31.65024
1302.967, 31.67606
1303.449, 31.83121
##END=



