##NAMES=Pyroxmangite
##RRUFFID=R060999
##IDEAL CHEMISTRY=Mn^2+^SiO_3_
##LOCALITY=Yokoneyama, Tochigi, Japan
##OWNER=RRUFF
##SOURCE=Michael Scott
##DESCRIPTION=Pink bladed crystals frozen in matrix associated with protomangano-ferro-anthophyllite R061000
##STATUS=The identification of this mineral is confirmed by single-crystal X-ray diffraction and chemical analysis.
##URL=rruff.info/R060999
##MEASURED CHEMISTRY=(Mn^2+^_0.61_Fe^2+^_0.27_Mg_0.09_Ca_0.03_)_Î£=1_Si_1.00_O_3_
130.6883, 1867.366
131.1704, 1993.616
131.6525, 2129.726
132.1346, 2261.049
132.6167, 2372.385
133.0988, 2463.164
133.5810, 2536.604
134.0631, 2598.598
134.5452, 2641.018
135.0273, 2653.549
135.5094, 2632.323
135.9915, 2583.121
136.4737, 2508.114
136.9558, 2393.161
137.4379, 2291.187
137.9200, 2213.330
138.4021, 2155.788
138.8842, 2116.549
139.3664, 2095.635
139.8485, 2090.860
140.3306, 2097.616
140.8127, 2115.972
141.2948, 2147.913
141.7769, 2186.896
142.2591, 2239.088
142.7412, 2312.783
143.2233, 2413.002
143.7054, 2534.208
144.1875, 2655.907
144.6696, 2772.118
145.1517, 2897.841
145.6339, 3031.834
146.1160, 3176.594
146.5981, 3338.050
147.0802, 3521.410
147.5623, 3720.143
148.0444, 3903.236
148.5266, 4062.814
149.0087, 4211.184
149.4908, 4346.759
149.9729, 4473.383
150.4550, 4596.500
150.9371, 4721.878
151.4193, 4846.612
151.9014, 4950.940
152.3835, 5026.265
152.8656, 5088.804
153.3477, 5147.964
153.8298, 5196.115
154.3120, 5217.665
154.7941, 5200.696
155.2762, 5147.378
155.7583, 5095.845
156.2404, 5065.876
156.7225, 5016.850
157.2047, 4921.227
157.6868, 4796.612
158.1689, 4680.970
158.6510, 4601.913
159.1331, 4558.102
159.6152, 4504.449
160.0974, 4442.415
160.5795, 4371.097
161.0616, 4280.073
161.5437, 4177.755
162.0258, 4085.321
162.5079, 4019.091
162.9901, 3979.055
163.4722, 3934.162
163.9543, 3883.264
164.4364, 3829.930
164.9185, 3773.014
165.4007, 3714.417
165.8828, 3660.320
166.3649, 3615.088
166.8470, 3579.046
167.3291, 3545.066
167.8112, 3509.500
168.2933, 3479.059
168.7755, 3460.711
169.2576, 3452.004
169.7397, 3442.856
170.2218, 3426.204
170.7039, 3402.007
171.1860, 3376.441
171.6682, 3347.677
172.1503, 3319.458
172.6324, 3286.983
173.1145, 3253.844
173.5966, 3238.302
174.0787, 3260.149
174.5609, 3315.060
175.0430, 3341.630
175.5251, 3316.327
176.0072, 3284.200
176.4893, 3271.461
176.9714, 3277.541
177.4536, 3290.302
177.9357, 3301.854
178.4178, 3313.168
178.8999, 3329.766
179.3820, 3354.102
179.8641, 3381.447
180.3463, 3413.012
180.8284, 3447.314
181.3105, 3473.027
181.7926, 3480.048
182.2747, 3470.749
182.7568, 3466.435
183.2390, 3477.866
183.7211, 3485.739
184.2032, 3474.001
184.6853, 3443.929
185.1674, 3411.150
185.6495, 3386.712
186.1317, 3367.021
186.6138, 3337.729
187.0959, 3285.192
187.5780, 3233.601
188.0601, 3201.349
188.5422, 3187.313
189.0244, 3178.029
189.5065, 3169.219
189.9886, 3158.356
190.4707, 3139.424
190.9528, 3101.439
191.4349, 3065.352
191.9170, 3044.763
192.3992, 3039.380
192.8813, 3047.348
193.3634, 3074.142
193.8455, 3112.060
194.3276, 3139.066
194.8097, 3143.661
195.2919, 3149.700
195.7740, 3178.337
196.2561, 3227.210
196.7382, 3273.068
197.2203, 3302.717
197.7024, 3322.438
198.1846, 3347.845
198.6667, 3380.447
199.1488, 3416.943
199.6309, 3459.617
200.1130, 3507.104
200.5951, 3545.663
201.0773, 3566.562
201.5594, 3575.949
202.0415, 3589.251
202.5236, 3610.185
203.0057, 3628.010
203.4878, 3629.581
203.9700, 3618.669
204.4521, 3620.891
204.9342, 3654.984
205.4163, 3700.195
205.8984, 3718.744
206.3805, 3701.640
206.8627, 3681.624
207.3448, 3679.204
207.8269, 3691.102
208.3090, 3703.438
208.7911, 3714.668
209.2732, 3720.094
209.7554, 3712.284
210.2375, 3688.114
210.7196, 3664.397
211.2017, 3654.416
211.6838, 3653.304
212.1659, 3643.460
212.6480, 3618.048
213.1302, 3584.282
213.6123, 3550.858
214.0944, 3516.761
214.5765, 3488.393
215.0586, 3469.874
215.5407, 3459.400
216.0229, 3454.291
216.5050, 3458.608
216.9871, 3459.324
217.4692, 3432.765
217.9513, 3378.385
218.4334, 3339.568
218.9156, 3343.211
219.3977, 3373.507
219.8798, 3397.872
220.3619, 3409.468
220.8440, 3416.332
221.3261, 3424.626
221.8083, 3434.215
222.2904, 3451.350
222.7725, 3488.335
223.2546, 3531.297
223.7367, 3555.315
224.2188, 3554.349
224.7010, 3546.373
225.1831, 3548.591
225.6652, 3559.283
226.1473, 3569.907
226.6294, 3575.990
227.1115, 3582.129
227.5937, 3595.634
228.0758, 3617.789
228.5579, 3640.004
229.0400, 3653.639
229.5221, 3660.485
230.0042, 3670.485
230.4864, 3691.181
230.9685, 3711.702
231.4506, 3719.094
231.9327, 3713.021
232.4148, 3707.103
232.8969, 3708.753
233.3791, 3719.094
233.8612, 3738.245
234.3433, 3779.808
234.8254, 3819.492
235.3075, 3833.388
235.7896, 3825.105
236.2717, 3825.520
236.7539, 3858.516
237.2360, 3911.850
237.7181, 3939.642
238.2002, 3920.715
238.6823, 3899.798
239.1644, 3897.955
239.6466, 3912.801
240.1287, 3938.463
240.6108, 3976.392
241.0929, 4019.255
241.5750, 4047.278
242.0571, 4059.340
242.5393, 4061.750
243.0214, 4051.835
243.5035, 4034.123
243.9856, 4016.397
244.4677, 4000.348
244.9498, 3988.996
245.4320, 3992.021
245.9141, 4019.534
246.3962, 4034.836
246.8783, 4019.751
247.3604, 3991.215
247.8425, 3972.996
248.3247, 3971.928
248.8068, 3978.868
249.2889, 3979.207
249.7710, 3966.490
250.2531, 3967.295
250.7352, 4000.841
251.2174, 4039.227
251.6995, 4051.684
252.1816, 4033.932
252.6637, 4008.398
253.1458, 3999.000
253.6279, 4008.999
254.1101, 4026.306
254.5922, 4054.287
255.0743, 4086.466
255.5564, 4118.237
256.0385, 4149.665
256.5206, 4184.613
257.0027, 4227.275
257.4849, 4278.542
257.9670, 4322.048
258.4491, 4346.682
258.9312, 4375.961
259.4133, 4420.763
259.8954, 4478.715
260.3776, 4543.212
260.8597, 4611.712
261.3418, 4682.160
261.8239, 4739.757
262.3060, 4770.167
262.7881, 4804.171
263.2703, 4853.971
263.7524, 4909.804
264.2345, 4957.125
264.7166, 4988.671
265.1987, 5008.335
265.6808, 5027.925
266.1630, 5047.618
266.6451, 5067.122
267.1272, 5083.783
267.6093, 5101.612
268.0914, 5129.524
268.5735, 5169.184
269.0557, 5206.367
269.5378, 5215.455
270.0199, 5179.418
270.5020, 5148.484
270.9841, 5116.956
271.4662, 5094.485
271.9484, 5091.801
272.4305, 5107.708
272.9126, 5127.988
273.3947, 5135.245
273.8768, 5125.082
274.3589, 5123.624
274.8411, 5140.251
275.3232, 5157.364
275.8053, 5163.250
276.2874, 5162.606
276.7695, 5170.061
277.2516, 5197.486
277.7338, 5243.973
278.2159, 5296.840
278.6980, 5368.635
279.1801, 5430.081
279.6622, 5466.727
280.1443, 5488.174
280.6265, 5509.481
281.1086, 5538.413
281.5907, 5572.439
282.0728, 5604.162
282.5549, 5631.186
283.0370, 5661.871
283.5192, 5704.857
284.0013, 5749.949
284.4834, 5787.393
284.9655, 5813.942
285.4476, 5832.918
285.9297, 5843.182
286.4119, 5842.425
286.8940, 5856.216
287.3761, 5903.800
287.8582, 5960.452
288.3403, 6004.516
288.8224, 6033.525
289.3046, 6061.378
289.7867, 6098.099
290.2688, 6142.479
290.7509, 6188.958
291.2330, 6240.067
291.7151, 6288.008
292.1972, 6323.321
292.6794, 6347.972
293.1615, 6374.931
293.6436, 6418.238
294.1257, 6464.524
294.6078, 6485.247
295.0899, 6473.043
295.5721, 6465.828
296.0542, 6503.667
296.5363, 6573.571
297.0184, 6619.536
297.5005, 6616.888
297.9826, 6601.210
298.4648, 6603.281
298.9469, 6620.413
299.4290, 6630.093
299.9111, 6618.397
300.3932, 6590.292
300.8753, 6565.455
301.3575, 6550.340
301.8396, 6529.778
302.3217, 6499.997
302.8038, 6460.886
303.2859, 6409.377
303.7680, 6342.989
304.2502, 6271.182
304.7323, 6211.374
305.2144, 6168.164
305.6965, 6128.267
306.1786, 6089.990
306.6607, 6055.141
307.1429, 6024.788
307.6250, 5999.480
308.1071, 5979.754
308.5892, 5967.543
309.0713, 5965.993
309.5534, 5956.109
310.0356, 5932.580
310.5177, 5907.334
310.9998, 5877.387
311.4819, 5849.664
311.9640, 5840.536
312.4461, 5863.786
312.9283, 5915.247
313.4104, 5956.128
313.8925, 5980.391
314.3746, 6000.005
314.8567, 6006.329
315.3388, 6012.922
315.8210, 6036.931
316.3031, 6085.821
316.7852, 6151.108
317.2673, 6219.248
317.7494, 6299.855
318.2315, 6359.757
318.7137, 6364.830
319.1958, 6369.953
319.6779, 6418.707
320.1600, 6514.327
320.6421, 6617.965
321.1242, 6682.297
321.6064, 6706.798
322.0885, 6762.331
322.5706, 6878.597
323.0527, 6997.138
323.5348, 7078.654
324.0169, 7134.114
324.4991, 7196.009
324.9812, 7288.426
325.4633, 7396.764
325.9454, 7487.957
326.4275, 7557.357
326.9096, 7626.492
327.3918, 7712.451
327.8739, 7804.087
328.3560, 7882.727
328.8381, 7935.251
329.3202, 7989.545
329.8023, 8077.901
330.2845, 8192.508
330.7666, 8291.094
331.2487, 8359.312
331.7308, 8403.523
332.2129, 8433.162
332.6950, 8446.803
333.1772, 8457.342
333.6593, 8471.244
334.1414, 8483.604
334.6235, 8491.219
335.1056, 8493.595
335.5877, 8480.904
336.0698, 8440.936
336.5519, 8368.804
337.0341, 8298.148
337.5162, 8234.684
337.9983, 8167.930
338.4804, 8100.314
338.9625, 8025.357
339.4446, 7922.560
339.9268, 7774.215
340.4089, 7593.014
340.8910, 7449.917
341.3731, 7390.085
341.8552, 7316.466
342.3373, 7210.461
342.8195, 7088.723
343.3016, 6968.381
343.7837, 6855.234
344.2658, 6748.743
344.7479, 6647.160
345.2300, 6548.172
345.7122, 6461.831
346.1943, 6390.208
346.6764, 6328.981
347.1585, 6278.187
347.6406, 6236.950
348.1227, 6203.571
348.6049, 6178.860
349.0870, 6161.467
349.5691, 6138.462
350.0512, 6100.268
350.5333, 6073.234
351.0154, 6067.038
351.4976, 6077.425
351.9797, 6100.932
352.4618, 6140.307
352.9439, 6184.206
353.4260, 6214.945
353.9081, 6232.064
354.3903, 6256.849
354.8724, 6300.023
355.3545, 6350.981
355.8366, 6399.610
356.3187, 6447.225
356.8008, 6480.542
357.2830, 6490.767
357.7651, 6482.886
358.2472, 6459.491
358.7293, 6418.062
359.2114, 6385.210
359.6935, 6393.387
360.1757, 6442.431
360.6578, 6462.970
361.1399, 6435.458
361.6220, 6394.141
362.1041, 6356.771
362.5862, 6323.149
363.0684, 6289.276
363.5505, 6253.509
364.0326, 6215.256
364.5147, 6172.435
364.9968, 6125.082
365.4789, 6072.684
365.9611, 6012.569
366.4432, 5949.096
366.9253, 5885.229
367.4074, 5822.371
367.8895, 5761.809
368.3716, 5707.090
368.8538, 5661.902
369.3359, 5603.598
369.8180, 5518.416
370.3001, 5433.254
370.7822, 5360.690
371.2643, 5295.667
371.7465, 5224.793
372.2286, 5138.972
372.7107, 5043.951
373.1928, 4957.027
373.6749, 4881.893
374.1570, 4803.972
374.6392, 4712.099
375.1213, 4618.934
375.6034, 4535.811
376.0855, 4465.602
376.5676, 4399.165
377.0497, 4329.228
377.5319, 4256.679
378.0140, 4185.566
378.4961, 4114.865
378.9782, 4049.266
379.4603, 3990.025
379.9424, 3937.950
380.4246, 3903.432
380.9066, 3901.030
381.3888, 3908.580
381.8709, 3905.123
382.3530, 3891.786
382.8351, 3881.439
383.3172, 3881.953
383.7993, 3890.108
384.2815, 3893.316
384.7636, 3871.613
385.2457, 3872.865
385.7278, 3915.412
386.2099, 3980.416
386.6920, 4051.108
387.1742, 4121.918
387.6563, 4187.871
388.1384, 4239.222
388.6205, 4265.880
389.1026, 4326.209
389.5847, 4454.482
390.0669, 4579.628
390.5490, 4675.018
391.0311, 4747.036
391.5132, 4811.586
391.9953, 4876.745
392.4774, 4943.063
392.9596, 5014.556
393.4417, 5097.911
393.9238, 5168.917
394.4059, 5226.840
394.8880, 5266.899
395.3701, 5279.866
395.8523, 5264.867
396.3344, 5239.881
396.8165, 5219.831
397.2986, 5201.290
397.7807, 5171.134
398.2628, 5126.695
398.7450, 5074.015
399.2271, 5010.451
399.7092, 4941.149
400.1913, 4884.772
400.6734, 4848.491
401.1555, 4822.687
401.6377, 4797.479
402.1198, 4776.659
402.6019, 4775.431
403.0840, 4803.365
403.5661, 4845.557
404.0482, 4869.871
404.5304, 4856.755
405.0125, 4866.059
405.4946, 4918.594
405.9767, 4982.027
406.4588, 5027.880
406.9409, 5056.747
407.4231, 5088.835
407.9052, 5140.947
408.3873, 5212.609
408.8694, 5295.062
409.3515, 5389.580
409.8336, 5494.693
410.3158, 5605.072
410.7979, 5727.148
411.2800, 5870.470
411.7621, 6038.713
412.2442, 6219.582
412.7263, 6397.053
413.2085, 6569.985
413.6906, 6759.404
414.1727, 6966.068
414.6548, 7194.940
415.1369, 7451.500
415.6190, 7731.985
416.1012, 8018.931
416.5833, 8321.251
417.0654, 8617.552
417.5475, 8874.391
418.0296, 9093.883
418.5117, 9305.348
418.9939, 9528.720
419.4760, 9748.696
419.9581, 9925.479
420.4402, 10072.58
420.9223, 10162.11
421.4044, 10178.21
421.8866, 10138.44
422.3687, 10062.70
422.8508, 9954.126
423.3329, 9800.907
423.8150, 9587.174
424.2971, 9310.963
424.7793, 9035.029
425.2614, 8773.108
425.7435, 8495.589
426.2256, 8185.913
426.7077, 7859.764
427.1898, 7535.444
427.6719, 7221.836
428.1541, 6911.877
428.6362, 6592.529
429.1183, 6261.357
429.6004, 5941.014
430.0825, 5624.172
430.5646, 5329.689
431.0468, 5066.402
431.5289, 4833.119
432.0110, 4621.636
432.4931, 4440.013
432.9752, 4272.040
433.4573, 4087.312
433.9395, 3885.262
434.4216, 3707.494
434.9037, 3576.856
435.3858, 3478.699
435.8679, 3379.417
436.3500, 3276.590
436.8322, 3178.711
437.3143, 3085.176
437.7964, 2999.233
438.2785, 2925.026
438.7606, 2862.731
439.2427, 2806.389
439.7249, 2749.635
440.2070, 2692.818
440.6891, 2653.389
441.1712, 2644.883
441.6533, 2638.414
442.1354, 2630.377
442.6176, 2620.813
443.0997, 2607.921
443.5818, 2591.460
444.0639, 2578.851
444.5460, 2582.239
445.0281, 2602.828
445.5103, 2619.403
445.9924, 2628.708
446.4745, 2635.748
446.9566, 2643.064
447.4387, 2650.716
447.9208, 2658.976
448.4030, 2670.094
448.8851, 2679.820
449.3672, 2681.926
449.8493, 2677.727
450.3314, 2675.836
450.8135, 2680.627
451.2957, 2686.791
451.7778, 2686.135
452.2599, 2679.496
452.7420, 2663.747
453.2241, 2634.058
453.7062, 2598.785
454.1884, 2561.118
454.6705, 2523.017
455.1526, 2488.522
455.6347, 2460.833
456.1168, 2437.600
456.5989, 2408.536
457.0811, 2365.804
457.5632, 2330.161
458.0453, 2312.997
458.5274, 2296.783
459.0095, 2262.612
459.4916, 2211.336
459.9738, 2166.380
460.4559, 2155.179
460.9380, 2168.092
461.4201, 2159.995
461.9022, 2122.401
462.3843, 2090.829
462.8665, 2088.595
463.3486, 2104.192
463.8307, 2118.050
464.3128, 2131.815
464.7949, 2136.925
465.2770, 2121.878
465.7592, 2097.199
466.2413, 2081.310
466.7234, 2077.947
467.2055, 2078.781
467.6876, 2075.817
468.1697, 2068.750
468.6519, 2062.755
469.1340, 2053.166
469.6161, 2049.733
470.0982, 2063.264
470.5803, 2081.604
471.0624, 2087.582
471.5445, 2075.400
472.0266, 2055.301
472.5088, 2040.046
472.9909, 2029.595
473.4730, 2025.118
473.9551, 2035.214
474.4372, 2040.180
474.9193, 2027.225
475.4015, 2001.949
475.8836, 1976.500
476.3657, 1951.976
476.8478, 1932.861
477.3299, 1929.531
477.8120, 1937.274
478.2942, 1932.448
478.7763, 1904.976
479.2584, 1871.678
479.7405, 1855.747
480.2226, 1862.463
480.7047, 1862.180
481.1869, 1842.052
481.6690, 1826.301
482.1511, 1832.961
482.6332, 1854.477
483.1153, 1873.243
483.5974, 1880.335
484.0796, 1879.820
484.5617, 1878.727
485.0438, 1873.205
485.5259, 1878.124
486.0080, 1911.738
486.4901, 1941.589
486.9723, 1944.766
487.4544, 1928.723
487.9365, 1920.336
488.4186, 1937.160
488.9007, 1966.226
489.3828, 1986.028
489.8650, 1997.161
490.3471, 2017.341
490.8292, 2057.052
491.3113, 2103.593
491.7934, 2135.430
492.2755, 2150.702
492.7577, 2166.675
493.2398, 2191.372
493.7219, 2213.461
494.2040, 2219.218
494.6861, 2213.914
495.1682, 2215.973
495.6504, 2236.696
496.1325, 2268.959
496.6146, 2293.042
497.0967, 2309.271
497.5788, 2315.988
498.0609, 2313.454
498.5431, 2301.738
499.0252, 2276.745
499.5073, 2241.404
499.9894, 2206.009
500.4715, 2175.566
500.9536, 2149.727
501.4358, 2125.556
501.9179, 2102.825
502.4000, 2093.201
502.8821, 2106.609
503.3642, 2129.468
503.8463, 2136.961
504.3285, 2124.562
504.8106, 2124.603
505.2927, 2146.374
505.7748, 2180.528
506.2569, 2221.513
506.7390, 2268.179
507.2212, 2319.330
507.7033, 2374.721
508.1854, 2433.490
508.6675, 2493.377
509.1496, 2550.642
509.6317, 2616.815
510.1139, 2706.499
510.5960, 2792.925
511.0781, 2851.102
511.5602, 2889.597
512.0423, 2944.400
512.5244, 3045.120
513.0065, 3167.130
513.4886, 3270.595
513.9708, 3355.986
514.4529, 3430.545
514.9350, 3490.996
515.4171, 3549.499
515.8992, 3630.438
516.3813, 3740.483
516.8635, 3827.901
517.3456, 3867.511
517.8277, 3898.104
518.3098, 3952.018
518.7919, 4020.198
519.2740, 4074.175
519.7562, 4099.395
520.2383, 4103.230
520.7204, 4103.569
521.2025, 4106.908
521.6846, 4087.772
522.1667, 4036.799
522.6489, 3968.187
523.1310, 3876.135
523.6131, 3771.144
524.0952, 3680.689
524.5773, 3630.201
525.0594, 3583.126
525.5416, 3488.094
526.0237, 3353.617
526.5058, 3230.168
526.9879, 3132.871
527.4700, 3048.594
527.9521, 2961.903
528.4343, 2873.100
528.9164, 2781.159
529.3985, 2679.134
529.8806, 2581.167
530.3627, 2499.664
530.8448, 2425.297
531.3270, 2338.379
531.8091, 2232.311
532.2912, 2128.398
532.7733, 2065.928
533.2554, 2052.485
533.7375, 2007.052
534.2197, 1894.517
534.7018, 1797.494
535.1839, 1770.338
535.6660, 1785.144
536.1481, 1793.579
536.6302, 1784.544
537.1124, 1766.929
537.5945, 1739.330
538.0766, 1708.966
538.5587, 1693.788
539.0408, 1697.026
539.5229, 1702.902
540.0051, 1696.907
540.4872, 1679.475
540.9693, 1664.596
541.4514, 1648.782
541.9335, 1639.969
542.4156, 1642.301
542.8978, 1650.635
543.3799, 1661.622
543.8620, 1673.844
544.3441, 1684.949
544.8262, 1689.314
545.3083, 1690.549
545.7905, 1706.775
546.2726, 1742.143
546.7547, 1772.043
547.2368, 1782.896
547.7189, 1783.569
548.2010, 1788.392
548.6832, 1795.595
549.1653, 1813.357
549.6474, 1849.655
550.1295, 1893.293
550.6116, 1933.871
551.0938, 1972.166
551.5759, 2016.878
552.0580, 2073.623
552.5401, 2135.342
553.0222, 2182.388
553.5043, 2212.656
553.9865, 2234.177
554.4686, 2238.371
554.9507, 2241.829
555.4328, 2253.879
555.9149, 2272.129
556.3970, 2287.896
556.8792, 2294.145
557.3613, 2301.058
557.8434, 2328.170
558.3255, 2367.010
558.8076, 2381.891
559.2897, 2361.200
559.7719, 2327.277
560.2540, 2303.704
560.7361, 2291.684
561.2182, 2278.273
561.7003, 2265.139
562.1824, 2248.873
562.6646, 2231.580
563.1467, 2209.010
563.6288, 2172.959
564.1109, 2122.710
564.5930, 2070.861
565.0751, 2036.791
565.5573, 2014.946
566.0394, 1963.237
566.5215, 1871.981
567.0036, 1785.902
567.4857, 1726.614
567.9678, 1686.139
568.4500, 1646.445
568.9321, 1603.392
569.4142, 1575.218
569.8963, 1576.705
570.3784, 1588.238
570.8605, 1595.077
571.3427, 1595.480
571.8248, 1589.959
572.3069, 1578.287
572.7890, 1563.780
573.2711, 1554.355
573.7532, 1550.527
574.2354, 1550.295
574.7175, 1554.570
575.1996, 1561.556
575.6817, 1572.805
576.1638, 1585.895
576.6459, 1594.839
577.1281, 1597.230
577.6102, 1595.382
578.0923, 1590.133
578.5744, 1582.221
579.0565, 1574.119
579.5386, 1566.396
580.0208, 1555.648
580.5029, 1537.808
580.9850, 1513.104
581.4671, 1491.495
581.9492, 1476.783
582.4313, 1460.578
582.9134, 1441.969
583.3955, 1421.119
583.8776, 1399.880
584.3597, 1377.481
584.8419, 1348.820
585.3240, 1299.972
585.8061, 1245.752
586.2882, 1224.842
586.7703, 1237.252
587.2524, 1237.803
587.7346, 1204.955
588.2167, 1159.630
588.6988, 1134.155
589.1809, 1133.000
589.6630, 1135.229
590.1451, 1150.732
590.6273, 1158.963
591.1094, 1142.505
591.5915, 1113.766
592.0736, 1093.896
592.5557, 1090.534
593.0378, 1094.140
593.5200, 1092.042
594.0021, 1084.890
594.4842, 1084.873
594.9663, 1095.290
595.4484, 1104.803
595.9305, 1106.518
596.4127, 1103.323
596.8948, 1102.605
597.3769, 1107.981
597.8590, 1106.485
598.3411, 1082.438
598.8232, 1058.562
599.3054, 1060.933
599.7875, 1084.142
600.2696, 1102.405
600.7517, 1100.416
601.2338, 1087.068
601.7159, 1082.152
602.1981, 1087.166
602.6802, 1093.353
603.1623, 1098.309
603.6444, 1106.444
604.1265, 1125.260
604.6086, 1148.850
605.0908, 1162.620
605.5729, 1161.234
606.0550, 1153.120
606.5371, 1132.106
607.0192, 1111.910
607.5013, 1118.706
607.9835, 1153.526
608.4656, 1191.171
608.9477, 1212.239
609.4298, 1218.427
609.9119, 1217.388
610.3940, 1202.480
610.8762, 1194.468
611.3583, 1198.311
611.8404, 1208.761
612.3225, 1224.980
612.8046, 1245.506
613.2867, 1265.859
613.7689, 1287.742
614.2510, 1304.917
614.7331, 1307.621
615.2152, 1301.293
615.6973, 1299.477
616.1794, 1305.680
616.6616, 1316.516
617.1437, 1329.434
617.6258, 1344.240
618.1079, 1354.599
618.5900, 1357.522
619.0721, 1360.167
619.5543, 1359.219
620.0364, 1361.657
620.5185, 1374.136
621.0006, 1396.631
621.4827, 1423.003
621.9648, 1453.184
622.4470, 1483.007
622.9291, 1502.730
623.4112, 1516.112
623.8933, 1545.675
624.3754, 1601.130
624.8575, 1654.336
625.3397, 1666.119
625.8218, 1629.427
626.3039, 1620.830
626.7860, 1670.141
627.2681, 1712.703
627.7502, 1726.342
628.2324, 1732.375
628.7145, 1754.715
629.1966, 1796.347
629.6787, 1840.275
630.1608, 1874.307
630.6429, 1903.266
631.1251, 1933.595
631.6072, 1965.658
632.0893, 2001.469
632.5714, 2042.286
633.0535, 2084.487
633.5356, 2120.964
634.0178, 2147.111
634.4999, 2192.030
634.9820, 2261.463
635.4641, 2341.882
635.9462, 2445.392
636.4283, 2550.357
636.9105, 2623.929
637.3926, 2661.530
637.8747, 2705.446
638.3568, 2793.533
638.8389, 2907.787
639.3210, 3011.336
639.8032, 3105.063
640.2853, 3216.491
640.7674, 3357.125
641.2495, 3518.181
641.7316, 3684.811
642.2137, 3858.323
642.6959, 4030.906
643.1780, 4177.599
643.6601, 4351.520
644.1422, 4583.702
644.6243, 4845.380
645.1064, 5097.429
645.5886, 5331.083
646.0707, 5576.988
646.5528, 5861.092
647.0349, 6171.354
647.5170, 6490.507
647.9991, 6817.191
648.4813, 7132.854
648.9634, 7427.437
649.4455, 7726.592
649.9276, 8074.578
650.4097, 8490.393
650.8918, 8880.631
651.3740, 9247.405
651.8561, 9591.304
652.3382, 9913.494
652.8203, 10214.02
653.3024, 10485.16
653.7845, 10728.47
654.2667, 10974.52
654.7488, 11252.06
655.2309, 11543.59
655.7130, 11814.45
656.1951, 12068.09
656.6772, 12336.85
657.1594, 12632.06
657.6415, 12953.29
658.1236, 13296.65
658.6057, 13655.01
659.0878, 14074.37
659.5699, 14611.89
660.0521, 15145.47
660.5342, 15634.11
661.0163, 16105.10
661.4984, 16588.13
661.9805, 17085.83
662.4626, 17600.87
662.9448, 18146.59
663.4269, 18698.27
663.9090, 19248.48
664.3911, 19783.82
664.8732, 20272.91
665.3553, 20704.89
665.8375, 21060.90
666.3196, 21313.28
666.8017, 21458.97
667.2838, 21536.41
667.7659, 21613.42
668.2480, 21512.27
668.7302, 21143.04
669.2123, 20612.33
669.6944, 20007.19
670.1765, 19337.54
670.6586, 18602.97
671.1407, 17778.66
671.6229, 16908.59
672.1050, 16016.20
672.5870, 15113.30
673.0692, 14229.58
673.5513, 13372.40
674.0334, 12546.12
674.5155, 11751.40
674.9976, 10991.28
675.4797, 10286.21
675.9619, 9636.713
676.4440, 9045.019
676.9261, 8537.002
677.4082, 8074.587
677.8903, 7617.361
678.3724, 7168.352
678.8546, 6759.190
679.3367, 6407.715
679.8188, 6088.833
680.3009, 5791.410
680.7830, 5518.178
681.2651, 5275.349
681.7473, 5062.798
682.2294, 4871.752
682.7115, 4695.449
683.1936, 4532.129
683.6757, 4372.423
684.1578, 4215.195
684.6400, 4070.327
685.1221, 3941.414
685.6042, 3824.118
686.0863, 3710.440
686.5684, 3602.821
687.0505, 3521.637
687.5327, 3483.943
688.0148, 3451.371
688.4969, 3416.864
688.9790, 3381.212
689.4611, 3341.544
689.9432, 3301.180
690.4254, 3270.420
690.9075, 3255.873
691.3896, 3252.693
691.8717, 3256.167
692.3538, 3265.150
692.8359, 3271.456
693.3181, 3273.264
693.8002, 3275.431
694.2823, 3280.177
694.7644, 3288.705
695.2465, 3306.477
695.7286, 3350.201
696.2108, 3377.171
696.6929, 3373.926
697.1750, 3367.449
697.6571, 3380.732
698.1392, 3400.732
698.6213, 3397.467
699.1035, 3357.035
699.5856, 3310.215
700.0677, 3285.596
700.5498, 3270.062
701.0319, 3244.465
701.5140, 3205.857
701.9962, 3149.540
702.4783, 3072.362
702.9604, 2979.443
703.4425, 2877.369
703.9246, 2761.111
704.4067, 2656.321
704.8889, 2563.946
705.3710, 2481.331
705.8531, 2409.777
706.3352, 2345.463
706.8173, 2285.153
707.2994, 2229.155
707.7816, 2171.944
708.2637, 2111.253
708.7458, 2048.948
709.2279, 1983.489
709.7100, 1918.837
710.1921, 1859.796
710.6743, 1808.692
711.1564, 1771.808
711.6385, 1763.755
712.1206, 1774.294
712.6027, 1746.062
713.0848, 1672.271
713.5670, 1614.951
714.0491, 1596.662
714.5312, 1594.059
715.0133, 1582.716
715.4954, 1562.403
715.9775, 1544.562
716.4597, 1537.174
716.9418, 1521.822
717.4239, 1478.804
717.9060, 1437.427
718.3881, 1432.040
718.8702, 1455.559
719.3524, 1467.921
719.8345, 1441.744
720.3166, 1406.874
720.7987, 1403.435
721.2808, 1419.435
721.7629, 1416.363
722.2451, 1389.048
722.7272, 1366.939
723.2093, 1372.663
723.6914, 1393.680
724.1735, 1389.748
724.6556, 1348.143
725.1378, 1317.024
725.6199, 1304.472
726.1020, 1295.654
726.5841, 1281.411
727.0662, 1266.583
727.5483, 1260.294
728.0305, 1266.163
728.5126, 1270.662
728.9947, 1268.158
729.4768, 1262.515
729.9589, 1254.818
730.4410, 1247.094
730.9232, 1244.322
731.4053, 1247.908
731.8874, 1250.918
732.3695, 1246.584
732.8516, 1234.830
733.3337, 1209.644
733.8159, 1168.334
734.2980, 1147.265
734.7801, 1166.385
735.2622, 1194.097
735.7443, 1189.827
736.2264, 1150.314
736.7086, 1130.527
737.1907, 1142.834
737.6728, 1157.372
738.1549, 1174.274
738.6370, 1187.245
739.1191, 1189.353
739.6013, 1182.297
740.0834, 1175.174
740.5655, 1174.018
741.0476, 1170.809
741.5297, 1156.674
742.0118, 1136.270
742.4940, 1116.426
742.9761, 1098.823
743.4582, 1085.645
743.9403, 1078.338
744.4224, 1075.673
744.9045, 1074.490
745.3867, 1074.380
745.8688, 1080.481
746.3509, 1097.713
746.8330, 1110.687
747.3151, 1110.900
747.7972, 1101.828
748.2794, 1089.365
748.7615, 1071.938
749.2436, 1057.556
749.7257, 1041.218
750.2078, 1034.447
750.6899, 1056.048
751.1721, 1084.298
751.6542, 1086.766
752.1363, 1058.709
752.6184, 1027.315
753.1005, 1013.799
753.5826, 1007.958
754.0648, 994.8981
754.5469, 976.2389
755.0290, 953.9999
755.5111, 928.9642
755.9932, 917.3862
756.4753, 936.7665
756.9575, 978.7260
757.4396, 1000.807
757.9217, 998.1484
758.4038, 990.8026
758.8859, 976.9167
759.3680, 964.4396
759.8502, 961.1154
760.3323, 962.8376
760.8144, 959.7904
761.2965, 948.5008
761.7786, 938.8957
762.2607, 931.3405
762.7428, 928.2023
763.2249, 937.7055
763.7070, 951.0802
764.1891, 949.8589
764.6713, 928.3824
765.1534, 905.1076
765.6355, 898.0603
766.1176, 900.7096
766.5997, 902.1401
767.0818, 901.2845
767.5640, 889.0172
768.0461, 861.1776
768.5282, 841.3082
769.0103, 858.9927
769.4924, 909.6325
769.9745, 938.9150
770.4567, 942.3707
770.9388, 934.5964
771.4209, 904.6921
771.9030, 878.9666
772.3851, 881.9254
772.8672, 905.3684
773.3494, 922.8464
773.8315, 928.2867
774.3136, 933.2870
774.7957, 952.5453
775.2778, 962.4420
775.7599, 930.4006
776.2421, 876.5739
776.7242, 849.3467
777.2063, 867.0612
777.6884, 895.2223
778.1705, 899.7177
778.6526, 892.0403
779.1348, 896.1094
779.6169, 910.9810
780.0990, 927.1200
780.5811, 941.3210
781.0632, 949.5669
781.5453, 946.2606
782.0275, 932.1802
782.5096, 915.5383
782.9917, 891.3954
783.4738, 880.7073
783.9559, 898.0973
784.4380, 917.8233
784.9202, 913.6938
785.4023, 892.6119
785.8844, 884.8013
786.3665, 901.3895
786.8486, 915.9164
787.3307, 926.7837
787.8129, 931.0507
788.2950, 921.3298
788.7771, 904.7149
789.2592, 896.2483
789.7413, 901.4272
790.2234, 906.3120
790.7056, 892.3085
791.1877, 875.7929
791.6698, 886.5099
792.1519, 916.8764
792.6340, 937.8301
793.1161, 940.1551
793.5983, 936.5875
794.0804, 943.0553
794.5625, 954.0430
795.0446, 935.1034
795.5267, 879.0203
796.0089, 842.8960
796.4910, 843.9683
796.9731, 854.8008
797.4552, 855.1489
797.9373, 847.0823
798.4194, 840.1832
798.9016, 837.1575
799.3837, 831.0232
799.8658, 807.3512
800.3479, 795.7151
800.8300, 824.2930
801.3121, 869.1923
801.7943, 889.3734
802.2764, 874.9973
802.7585, 865.6686
803.2406, 890.8519
803.7227, 920.4501
804.2048, 928.1525
804.6870, 921.4702
805.1691, 911.6315
805.6512, 903.3051
806.1333, 903.9053
806.6154, 922.3723
807.0975, 948.3625
807.5797, 958.4453
808.0618, 955.1397
808.5439, 956.5462
809.0260, 965.6478
809.5081, 977.6744
809.9902, 990.9163
810.4724, 1001.965
810.9545, 1000.206
811.4366, 978.2158
811.9187, 971.5419
812.4008, 993.0725
812.8829, 1009.063
813.3651, 1001.722
813.8472, 984.8104
814.3293, 975.2776
814.8114, 973.6450
815.2935, 967.5099
815.7756, 948.3067
816.2578, 932.7856
816.7399, 929.9007
817.2220, 931.4692
817.7041, 927.7498
818.1862, 920.6211
818.6683, 920.5027
819.1505, 934.1516
819.6326, 949.7679
820.1147, 959.1920
820.5968, 962.5288
821.0789, 956.2920
821.5610, 943.5785
822.0432, 935.7061
822.5253, 937.4494
823.0074, 944.9791
823.4895, 958.4774
823.9716, 973.7809
824.4537, 957.7679
824.9359, 906.9381
825.4180, 881.8879
825.9001, 903.9506
826.3822, 939.6794
826.8643, 960.8297
827.3464, 967.9694
827.8286, 963.1633
828.3107, 934.3859
828.7928, 918.0090
829.2749, 927.1696
829.7570, 937.0928
830.2391, 931.7925
830.7213, 920.7265
831.2034, 922.7074
831.6855, 943.8629
832.1676, 952.8388
832.6497, 923.7306
833.1318, 900.6008
833.6140, 917.2639
834.0961, 947.8491
834.5782, 959.7567
835.0603, 949.4528
835.5424, 933.5690
836.0245, 917.0934
836.5067, 906.6229
836.9888, 915.7659
837.4709, 932.9185
837.9530, 933.0338
838.4351, 917.4675
838.9172, 907.4998
839.3994, 914.1268
839.8815, 929.0195
840.3636, 940.3351
840.8457, 948.6569
841.3278, 962.2924
841.8099, 982.3383
842.2921, 982.4478
842.7742, 948.1140
843.2563, 914.4833
843.7384, 921.5430
844.2205, 963.9225
844.7026, 989.9485
845.1848, 994.0003
845.6669, 994.1082
846.1490, 985.6260
846.6311, 981.7609
847.1132, 995.5239
847.5953, 1018.176
848.0775, 1032.475
848.5596, 1035.552
849.0417, 1038.396
849.5238, 1042.674
850.0059, 1046.843
850.4880, 1052.130
850.9702, 1055.735
851.4523, 1052.100
851.9343, 1042.393
852.4164, 1037.181
852.8986, 1042.462
853.3807, 1052.201
853.8628, 1061.938
854.3449, 1073.488
854.8270, 1093.563
855.3091, 1118.044
855.7913, 1130.976
856.2734, 1125.040
856.7555, 1117.259
857.2376, 1128.282
857.7197, 1152.717
858.2018, 1178.695
858.6840, 1205.220
859.1661, 1225.952
859.6482, 1238.891
860.1303, 1258.705
860.6124, 1302.923
861.0945, 1358.790
861.5767, 1371.073
862.0588, 1330.539
862.5409, 1319.242
863.0230, 1352.710
863.5051, 1394.780
863.9872, 1426.237
864.4694, 1453.978
864.9515, 1492.879
865.4336, 1547.378
865.9157, 1590.892
866.3978, 1616.109
866.8799, 1640.825
867.3621, 1662.596
867.8442, 1690.636
868.3263, 1736.918
868.8084, 1797.261
869.2905, 1851.262
869.7726, 1896.293
870.2548, 1933.875
870.7369, 1960.874
871.2190, 1983.991
871.7011, 2007.367
872.1832, 2030.376
872.6653, 2053.522
873.1475, 2076.492
873.6296, 2089.125
874.1117, 2074.338
874.5938, 2056.973
875.0759, 2061.054
875.5580, 2076.668
876.0402, 2094.460
876.5223, 2107.914
877.0044, 2100.526
877.4865, 2060.517
877.9686, 2009.486
878.4507, 1981.715
878.9329, 1963.812
879.4150, 1913.280
879.8971, 1834.394
880.3792, 1767.516
880.8613, 1727.150
881.3434, 1704.730
881.8256, 1694.617
882.3077, 1692.119
882.7898, 1675.028
883.2719, 1642.249
883.7540, 1612.336
884.2361, 1588.220
884.7183, 1566.994
885.2004, 1547.990
885.6825, 1528.568
886.1646, 1502.526
886.6467, 1467.777
887.1288, 1435.769
887.6110, 1401.981
888.0931, 1380.318
888.5752, 1383.173
889.0573, 1391.434
889.5394, 1383.945
890.0215, 1363.626
890.5037, 1354.917
890.9858, 1376.639
891.4679, 1381.870
891.9500, 1346.261
892.4321, 1315.547
892.9142, 1312.772
893.3964, 1330.334
893.8785, 1362.069
894.3606, 1407.611
894.8427, 1434.015
895.3248, 1416.245
895.8069, 1394.336
896.2891, 1383.281
896.7712, 1382.117
897.2533, 1399.183
897.7354, 1424.542
898.2175, 1426.043
898.6996, 1384.960
899.1818, 1351.259
899.6639, 1373.214
900.1460, 1413.628
900.6281, 1433.435
901.1102, 1436.205
901.5923, 1431.768
902.0745, 1424.370
902.5566, 1420.770
903.0387, 1427.980
903.5208, 1438.028
904.0029, 1438.425
904.4850, 1431.769
904.9672, 1424.880
905.4493, 1418.367
905.9314, 1410.261
906.4135, 1399.594
906.8956, 1388.483
907.3777, 1377.356
907.8599, 1368.505
908.3420, 1377.556
908.8241, 1403.884
909.3062, 1422.010
909.7883, 1426.699
910.2704, 1420.300
910.7526, 1402.909
911.2347, 1379.231
911.7168, 1360.333
912.1989, 1346.313
912.6810, 1337.065
913.1631, 1334.148
913.6453, 1329.191
914.1274, 1314.004
914.6095, 1306.802
915.0916, 1333.725
915.5737, 1388.258
916.0558, 1408.775
916.5380, 1374.318
917.0201, 1350.714
917.5022, 1345.269
917.9843, 1347.294
918.4664, 1354.726
918.9485, 1364.894
919.4307, 1372.260
919.9128, 1375.596
920.3949, 1387.176
920.8770, 1420.108
921.3591, 1444.058
921.8412, 1444.508
922.3234, 1441.692
922.8055, 1448.588
923.2876, 1464.185
923.7697, 1483.406
924.2518, 1504.702
924.7339, 1533.221
925.2161, 1584.357
925.6982, 1627.227
926.1803, 1641.349
926.6624, 1641.523
927.1445, 1634.627
927.6266, 1629.412
928.1088, 1653.562
928.5909, 1730.910
929.0730, 1808.344
929.5551, 1854.803
930.0372, 1887.994
930.5193, 1919.355
931.0015, 1951.202
931.4836, 1988.961
931.9657, 2031.553
932.4478, 2062.207
932.9299, 2063.724
933.4120, 2057.246
933.8942, 2062.616
934.3763, 2073.988
934.8584, 2083.641
935.3405, 2090.635
935.8226, 2097.133
936.3047, 2103.880
936.7869, 2104.099
937.2690, 2087.715
937.7511, 2062.582
938.2332, 2037.571
938.7153, 2015.923
939.1974, 2011.537
939.6796, 2022.722
940.1617, 2024.216
940.6438, 2000.427
941.1259, 1967.870
941.6080, 1947.883
942.0901, 1939.252
942.5722, 1939.708
943.0543, 1948.082
943.5364, 1959.702
944.0186, 1972.941
944.5007, 1977.589
944.9828, 1962.676
945.4649, 1941.863
945.9470, 1950.191
946.4291, 1985.197
946.9113, 2014.281
947.3934, 2035.324
947.8755, 2058.099
948.3576, 2086.463
948.8397, 2116.440
949.3218, 2143.082
949.8040, 2168.224
950.2861, 2202.107
950.7682, 2245.994
951.2503, 2283.935
951.7324, 2310.865
952.2145, 2351.100
952.6967, 2419.135
953.1788, 2499.639
953.6609, 2568.406
954.1430, 2625.884
954.6251, 2699.938
955.1072, 2794.409
955.5894, 2888.923
956.0715, 2977.666
956.5536, 3070.146
957.0357, 3169.634
957.5178, 3278.894
957.9999, 3404.752
958.4821, 3549.546
958.9642, 3692.011
959.4463, 3821.686
959.9284, 3972.537
960.4105, 4159.963
960.8926, 4359.896
961.3748, 4554.930
961.8569, 4748.004
962.3390, 4948.275
962.8211, 5148.642
963.3032, 5380.217
963.7853, 5663.189
964.2675, 5947.109
964.7496, 6216.441
965.2317, 6483.490
965.7138, 6752.417
966.1959, 7026.407
966.6780, 7330.316
967.1602, 7690.563
967.6423, 8028.804
968.1244, 8338.514
968.6065, 8630.260
969.0886, 8919.113
969.5707, 9183.151
970.0529, 9391.661
970.5350, 9549.376
971.0171, 9715.578
971.4992, 9924.305
971.9813, 10097.49
972.4634, 10233.53
972.9456, 10325.10
973.4277, 10370.15
973.9098, 10367.70
974.3919, 10309.56
974.8740, 10196.71
975.3561, 10065.72
975.8383, 9927.534
976.3204, 9764.252
976.8025, 9554.533
977.2846, 9334.952
977.7667, 9116.661
978.2488, 8907.838
978.7310, 8718.259
979.2131, 8548.483
979.6952, 8395.104
980.1773, 8273.826
980.6594, 8146.481
981.1415, 7978.488
981.6237, 7821.025
982.1058, 7709.621
982.5879, 7639.337
983.0700, 7601.795
983.5521, 7597.565
984.0342, 7590.302
984.5164, 7566.195
984.9985, 7540.031
985.4806, 7498.923
985.9627, 7475.192
986.4448, 7508.132
986.9269, 7578.811
987.4091, 7637.000
987.8912, 7668.219
988.3733, 7715.430
988.8554, 7794.921
989.3375, 7893.918
989.8196, 8011.847
990.3018, 8141.408
990.7839, 8285.396
991.2660, 8433.939
991.7481, 8558.558
992.2302, 8645.881
992.7123, 8745.635
993.1945, 8886.062
993.6766, 9036.232
994.1587, 9179.986
994.6408, 9323.045
995.1229, 9477.010
995.6050, 9636.108
996.0872, 9783.888
996.5693, 9920.769
997.0514, 10021.94
997.5335, 10066.86
998.0156, 10083.57
998.4977, 10094.80
998.9799, 10084.35
999.4620, 10027.49
999.9441, 9929.552
1000.426, 9818.442
1000.908, 9703.655
1001.390, 9572.533
1001.873, 9403.361
1002.355, 9232.950
1002.837, 9098.403
1003.319, 8968.820
1003.801, 8801.611
1004.283, 8600.201
1004.765, 8397.641
1005.247, 8194.595
1005.729, 8020.260
1006.212, 7903.066
1006.694, 7802.081
1007.176, 7693.663
1007.658, 7581.361
1008.140, 7462.274
1008.622, 7344.580
1009.104, 7261.512
1009.586, 7236.127
1010.069, 7212.309
1010.551, 7147.169
1011.033, 7093.916
1011.515, 7101.560
1011.997, 7134.190
1012.479, 7140.115
1012.961, 7122.232
1013.443, 7128.713
1013.925, 7191.573
1014.408, 7236.648
1014.890, 7216.459
1015.372, 7186.136
1015.854, 7191.229
1016.336, 7201.112
1016.818, 7181.469
1017.300, 7127.332
1017.782, 7041.958
1018.265, 6921.969
1018.747, 6782.102
1019.229, 6624.257
1019.711, 6452.829
1020.193, 6268.817
1020.675, 6074.694
1021.157, 5868.657
1021.639, 5654.623
1022.121, 5447.104
1022.604, 5256.417
1023.086, 5058.364
1023.568, 4818.364
1024.050, 4599.490
1024.532, 4451.542
1025.014, 4331.339
1025.496, 4185.112
1025.978, 4016.225
1026.460, 3862.811
1026.943, 3736.594
1027.425, 3617.189
1027.907, 3496.210
1028.389, 3384.232
1028.871, 3290.991
1029.353, 3205.628
1029.835, 3118.916
1030.317, 3029.842
1030.800, 2939.685
1031.282, 2848.393
1031.764, 2755.382
1032.246, 2640.198
1032.728, 2548.015
1033.210, 2516.755
1033.692, 2500.919
1034.174, 2453.899
1034.656, 2382.622
1035.139, 2324.855
1035.621, 2292.323
1036.103, 2252.979
1036.585, 2200.653
1037.067, 2146.681
1037.549, 2088.647
1038.031, 2035.275
1038.513, 1998.212
1038.995, 1972.231
1039.478, 1936.410
1039.960, 1885.654
1040.442, 1838.468
1040.924, 1789.955
1041.406, 1752.299
1041.888, 1734.870
1042.370, 1721.960
1042.852, 1698.407
1043.335, 1670.698
1043.817, 1659.653
1044.299, 1672.313
1044.781, 1674.431
1045.263, 1665.924
1045.745, 1646.124
1046.227, 1608.265
1046.709, 1570.525
1047.192, 1547.726
1047.674, 1532.511
1048.156, 1505.671
1048.638, 1463.350
1049.120, 1441.794
1049.602, 1445.971
1050.084, 1457.124
1050.566, 1479.766
1051.048, 1482.072
1051.531, 1436.010
1052.013, 1371.500
1052.495, 1346.559
1052.977, 1360.922
1053.459, 1364.826
1053.941, 1358.276
1054.423, 1337.467
1054.905, 1298.612
1055.387, 1269.213
1055.870, 1267.469
1056.352, 1272.240
1056.834, 1248.013
1057.316, 1202.480
1057.798, 1190.214
1058.280, 1210.052
1058.762, 1218.871
1059.244, 1210.868
1059.727, 1199.216
1060.209, 1190.268
1060.691, 1175.863
1061.173, 1141.134
1061.655, 1099.443
1062.137, 1094.618
1062.619, 1118.482
1063.101, 1131.617
1063.583, 1131.201
1064.066, 1130.307
1064.548, 1133.635
1065.030, 1133.295
1065.512, 1120.538
1065.994, 1102.663
1066.476, 1097.832
1066.958, 1095.512
1067.440, 1059.655
1067.922, 1003.307
1068.405, 982.0143
1068.887, 1006.392
1069.369, 1030.254
1069.851, 1020.947
1070.333, 998.8890
1070.815, 982.0619
1071.297, 970.0052
1071.779, 960.3806
1072.262, 955.8137
1072.744, 970.0448
1073.226, 997.5117
1073.708, 1000.326
1074.190, 950.5296
1074.672, 909.3960
1075.154, 935.6425
1075.636, 973.8802
1076.118, 981.7874
1076.601, 968.8406
1077.083, 939.8489
1077.565, 905.6572
1078.047, 895.7620
1078.529, 924.1931
1079.011, 948.2151
1079.493, 943.5389
1079.975, 938.2729
1080.458, 950.4910
1080.940, 964.8844
1081.422, 972.0361
1081.904, 968.7265
1082.386, 945.4877
1082.868, 896.5413
1083.350, 866.2097
1083.832, 871.4424
1084.314, 882.1848
1084.797, 892.9836
1085.279, 906.1440
1085.761, 929.6904
1086.243, 953.2080
1086.725, 961.0856
1087.207, 953.1705
1087.689, 935.2784
1088.171, 894.3891
1088.653, 872.0599
1089.136, 880.0082
1089.618, 889.4534
1090.100, 886.6170
1090.582, 883.1113
1091.064, 894.8345
1091.546, 916.3686
1092.028, 916.6811
1092.510, 890.1035
1092.993, 881.4428
1093.475, 897.2419
1093.957, 898.6212
1094.439, 871.6193
1094.921, 837.6852
1095.403, 812.3493
1095.885, 800.2416
1096.367, 819.7924
1096.849, 864.8165
1097.332, 888.9963
1097.814, 892.0432
1098.296, 873.0382
1098.778, 834.4895
1099.260, 802.6331
1099.742, 791.9653
1100.224, 801.8008
1100.706, 847.3668
1101.188, 902.9159
1101.671, 913.9697
1102.153, 893.4094
1102.635, 864.4662
1103.117, 834.5248
1103.599, 813.4667
1104.081, 804.5102
1104.563, 801.7775
1105.045, 802.7172
1105.528, 805.1918
1106.010, 812.6350
1106.492, 816.0870
1106.974, 798.6570
1107.456, 771.9954
1107.938, 757.3553
1108.420, 758.6114
1108.902, 769.9768
1109.385, 797.6320
1109.867, 816.8123
1110.349, 812.0264
1110.831, 801.8857
1111.313, 792.4213
1111.795, 786.9957
1112.277, 791.5619
1112.759, 802.9425
1113.241, 808.2794
1113.724, 803.9299
1114.206, 800.8692
1114.688, 801.5918
1115.170, 801.2444
1115.652, 801.6377
1116.134, 796.7477
1116.616, 778.4504
1117.098, 756.1997
1117.580, 748.2523
1118.063, 754.7970
1118.545, 757.8347
1119.027, 757.4620
1119.509, 753.4699
1119.991, 746.3555
1120.473, 730.2059
1120.955, 699.0242
1121.437, 675.5764
1121.920, 687.3855
1122.402, 721.3551
1122.884, 737.2338
1123.366, 737.9194
1123.848, 748.3604
1124.330, 766.2755
1124.812, 759.9001
1125.294, 723.7522
1125.776, 692.3851
1126.259, 688.9771
1126.741, 698.1548
1127.223, 707.0132
1127.705, 711.0003
1128.187, 694.5251
1128.669, 671.6093
1129.151, 672.9442
1129.633, 694.1704
1130.115, 708.8776
1130.598, 707.7807
1131.080, 698.9513
1131.562, 671.6442
1132.044, 658.0479
1132.526, 697.0034
1133.008, 739.9822
1133.490, 739.4762
1133.972, 716.8390
1134.455, 714.2187
1134.937, 732.7497
1135.419, 731.5652
1135.901, 686.6153
1136.383, 651.5335
1136.865, 637.3975
1137.347, 627.4380
1137.829, 606.9180
1138.312, 599.0207
1138.794, 633.0121
1139.276, 688.3503
1139.758, 707.2616
1140.240, 683.6646
1140.722, 677.6580
1141.204, 693.7950
1141.686, 706.0849
1142.168, 711.0683
1142.651, 703.7380
1143.133, 679.6737
1143.615, 652.6213
1144.097, 638.1317
1144.579, 636.0199
1145.061, 652.1111
1145.543, 679.8317
1146.025, 689.9360
1146.507, 682.3325
1146.990, 664.2861
1147.472, 640.4584
1147.954, 625.8882
1148.436, 631.4848
1148.918, 645.1641
1149.400, 658.1716
1149.882, 668.7360
1150.364, 678.8434
1150.847, 682.6011
1151.329, 667.2921
1151.811, 638.5298
1152.293, 610.5505
1152.775, 586.1332
1153.257, 584.2848
1153.739, 639.5585
1154.221, 680.0525
1154.703, 670.7790
1155.186, 650.3128
1155.668, 636.9441
1156.150, 630.7445
1156.632, 633.6276
1157.114, 643.4539
1157.596, 645.4854
1158.078, 630.1176
1158.560, 634.5995
1159.042, 668.9191
1159.525, 694.2166
1160.007, 701.3234
1160.489, 693.1151
1160.971, 669.3638
1161.453, 638.6150
1161.935, 614.1599
1162.417, 596.4846
1162.899, 588.7148
1163.382, 590.9808
1163.864, 610.6195
1164.346, 643.6288
1164.828, 662.4757
1165.310, 657.5243
1165.792, 637.6440
1166.274, 603.1525
1166.756, 575.5541
1167.238, 591.5831
1167.721, 618.7796
1168.203, 608.3837
1168.685, 585.8244
1169.167, 602.3574
1169.649, 649.1133
1170.131, 669.9531
1170.613, 643.8024
1171.095, 629.5027
1171.578, 673.2663
1172.060, 695.2941
1172.542, 640.2566
1173.024, 586.2258
1173.506, 593.4637
1173.988, 624.1978
1174.470, 626.5483
1174.952, 605.2739
1175.434, 596.8203
1175.917, 601.6099
1176.399, 621.9378
1176.881, 665.5204
1177.363, 682.8652
1177.845, 657.4488
1178.327, 629.3306
1178.809, 626.1295
1179.291, 632.7917
1179.773, 625.4442
1180.256, 609.2134
1180.738, 593.5112
1181.220, 583.6321
1181.702, 607.1186
1182.184, 651.8317
1182.666, 663.4776
1183.148, 630.4485
1183.630, 602.0752
1184.113, 609.5662
1184.595, 627.0176
1185.077, 642.2705
1185.559, 652.2394
1186.041, 653.4061
1186.523, 648.8224
1187.005, 637.9125
1187.487, 625.0875
1187.969, 622.2452
1188.452, 632.8546
1188.934, 638.7692
1189.416, 642.2404
1189.898, 633.5807
1190.380, 602.8693
1190.862, 577.1775
1191.344, 566.0858
1191.826, 568.7700
1192.308, 586.5542
1192.791, 614.0336
1193.273, 637.6443
1193.755, 656.8083
1194.237, 662.0021
1194.719, 654.3305
1195.201, 639.4846
1195.683, 620.9249
1196.165, 614.5756
1196.648, 627.3760
1197.130, 644.3436
1197.612, 654.9772
1198.094, 658.2809
1198.576, 651.5217
1199.058, 638.2162
1199.540, 612.7219
1200.022, 589.1764
1200.505, 595.4180
1200.987, 625.9802
1201.469, 644.1248
1201.951, 639.1391
1202.433, 630.4354
1202.915, 617.8448
1203.397, 607.3994
1203.879, 598.0990
1204.361, 594.9349
1204.844, 604.6608
1205.326, 615.6405
1205.808, 612.0316
1206.290, 597.5609
1206.772, 587.8664
1207.254, 582.9836
1207.736, 593.8209
1208.218, 619.6678
1208.700, 647.1292
1209.183, 671.5497
1209.665, 679.6739
1210.147, 663.9547
1210.629, 643.0564
1211.111, 637.6115
1211.593, 636.2250
1212.075, 623.1888
1212.557, 608.1641
1213.040, 602.1884
1213.522, 603.7815
1214.004, 610.7409
1214.486, 620.9726
1214.968, 626.7365
1215.450, 622.3134
1215.932, 624.8003
1216.414, 647.4659
1216.896, 661.6046
1217.379, 655.0782
1217.861, 649.1408
1218.343, 659.8578
1218.825, 669.1813
1219.307, 648.0547
1219.789, 608.5325
1220.271, 614.9967
1220.753, 662.6935
1221.235, 666.5544
1221.718, 630.8212
1222.200, 623.3176
1222.682, 655.1791
1223.164, 687.0854
1223.646, 698.9254
1224.128, 696.2540
1224.610, 676.7546
1225.092, 653.5618
1225.575, 628.7354
1226.057, 615.9640
1226.539, 648.6525
1227.021, 691.5490
1227.503, 677.4425
1227.985, 615.7615
1228.467, 592.5488
1228.949, 637.7805
1229.432, 666.1453
1229.914, 667.4739
1230.396, 668.9379
1230.878, 679.2523
1231.360, 677.1602
1231.842, 648.0192
1232.324, 616.4539
1232.806, 612.5480
1233.288, 623.4327
1233.771, 614.8170
1234.253, 590.8001
1234.735, 561.0422
1235.217, 531.2147
1235.699, 519.3008
1236.181, 524.6524
1236.663, 531.1033
1237.145, 532.4886
1237.627, 537.7114
1238.110, 558.5661
1238.592, 575.9153
1239.074, 583.8777
1239.556, 580.3959
1240.038, 541.7562
1240.520, 508.4749
1241.002, 540.6130
1241.484, 611.4319
1241.967, 648.2693
1242.449, 648.8171
1242.931, 643.4917
1243.413, 630.5544
1243.895, 623.3658
1244.377, 623.4550
1244.859, 631.3606
1245.341, 647.2432
1245.823, 658.7473
1246.306, 655.0522
1246.788, 648.5530
1247.270, 660.1757
1247.752, 675.7955
1248.234, 673.9088
1248.716, 663.9206
1249.198, 661.3782
1249.680, 662.3775
1250.162, 650.0971
1250.645, 624.1844
1251.127, 616.1348
1251.609, 643.6787
1252.091, 668.6680
1252.573, 694.7139
1253.055, 703.8436
1253.537, 682.1725
1254.019, 665.5160
1254.502, 679.3790
1254.984, 699.3161
1255.466, 688.6439
1255.948, 659.3232
1256.430, 649.7562
1256.912, 656.4496
1257.394, 670.4852
1257.876, 687.1778
1258.358, 693.8397
1258.841, 690.0928
1259.323, 685.3795
1259.805, 683.3178
1260.287, 684.9645
1260.769, 696.1523
1261.251, 703.7525
1261.733, 701.3137
1262.215, 694.2317
1262.698, 677.3892
1263.180, 665.5841
1263.662, 679.9037
1264.144, 705.3041
1264.626, 700.3635
1265.108, 664.8458
1265.590, 658.2750
1266.072, 680.5878
1266.554, 683.6075
1267.036, 665.0457
1267.519, 667.6942
1268.001, 701.0529
1268.483, 712.7777
1268.965, 664.3630
1269.447, 614.5366
1269.929, 627.1170
1270.411, 653.6597
1270.893, 657.0573
1271.376, 649.4786
1271.858, 640.6241
1272.340, 631.7559
##END=



