##NAMES=Pyrochroite
##RRUFFID=R100045
##IDEAL CHEMISTRY=Mn^2+^(OH)_2_
##LOCALITY=N'Chwaning II mine, Kalahari Manganese Field, Northern Cape Province, South Africa
##OWNER=RRUFF
##SOURCE=Marcus Origlieri
##DESCRIPTION=Red platy crystals frozen in matrix
##STATUS=The identification of this mineral has been confirmed by single-crystal X-ray diffraction.
##URL=rruff.info/R100045
92.49744, 193.0598
92.97955, 191.3581
93.46167, 186.6821
93.94379, 181.9543
94.42590, 178.8756
94.90802, 176.6149
95.39014, 173.8172
95.87225, 170.3614
96.35437, 166.9755
96.83649, 164.1521
97.31860, 161.6208
97.80072, 159.0712
98.28284, 156.1317
98.76495, 152.7871
99.24707, 149.7498
99.72919, 146.9758
100.2113, 144.6096
100.6934, 142.6079
101.1755, 140.9710
101.6577, 139.7474
102.1398, 138.9776
102.6219, 138.6904
103.1040, 138.6777
103.5861, 139.2994
104.0682, 139.8135
104.5504, 139.7478
105.0325, 139.0566
105.5146, 138.0835
105.9967, 137.2881
106.4788, 136.7821
106.9609, 136.1177
107.4431, 134.9710
107.9252, 133.7168
108.4073, 132.9525
108.8894, 132.9781
109.3715, 133.3039
109.8536, 133.1075
110.3358, 132.3953
110.8179, 131.3893
111.3000, 129.7556
111.7821, 127.6318
112.2642, 126.4537
112.7463, 127.6378
113.2285, 129.5484
113.7106, 130.5225
114.1927, 130.1478
114.6748, 129.1706
115.1569, 128.6036
115.6390, 128.5972
116.1212, 128.6154
116.6033, 128.4927
117.0854, 128.3102
117.5675, 128.1758
118.0496, 128.1660
118.5317, 128.2067
119.0139, 127.9298
119.4960, 126.5696
119.9781, 125.7173
120.4602, 126.1199
120.9423, 127.2217
121.4244, 127.9945
121.9066, 127.5700
122.3887, 125.7993
122.8708, 124.9636
123.3529, 125.8787
123.8350, 126.7712
124.3171, 126.7007
124.7993, 125.6903
125.2814, 124.4714
125.7635, 123.7334
126.2456, 123.5829
126.7277, 123.6646
127.2098, 124.4045
127.6920, 125.1820
128.1741, 125.2092
128.6562, 124.2255
129.1383, 123.0021
129.6204, 122.5813
130.1025, 122.8615
130.5847, 123.1190
131.0668, 123.0677
131.5489, 122.7640
132.0310, 122.3756
132.5131, 121.7892
132.9952, 121.3007
133.4774, 121.2296
133.9595, 121.5741
134.4416, 121.9072
134.9237, 121.8060
135.4058, 121.2020
135.8879, 120.6424
136.3701, 120.1571
136.8522, 119.7984
137.3343, 119.6664
137.8164, 119.7755
138.2985, 119.9714
138.7806, 120.0325
139.2628, 120.1059
139.7449, 119.7078
140.2270, 118.1530
140.7091, 116.4810
141.1912, 115.7287
141.6733, 116.3633
142.1555, 117.9461
142.6376, 118.9686
143.1197, 119.1669
143.6018, 119.0414
144.0839, 118.4282
144.5660, 117.5400
145.0482, 116.6120
145.5303, 115.7209
146.0124, 114.9599
146.4945, 115.0297
146.9766, 116.6860
147.4587, 118.2331
147.9409, 118.9406
148.4230, 118.8981
148.9051, 118.5948
149.3872, 118.3143
149.8693, 118.0370
150.3514, 117.6777
150.8336, 116.9612
151.3157, 116.3307
151.7978, 116.2197
152.2799, 116.6789
152.7620, 117.3606
153.2441, 118.2849
153.7263, 119.2475
154.2084, 119.8543
154.6905, 119.8660
155.1726, 119.4442
155.6547, 118.8843
156.1368, 118.0417
156.6190, 117.3391
157.1011, 116.9540
157.5832, 116.8437
158.0653, 116.9460
158.5474, 117.3569
159.0295, 118.0306
159.5117, 118.3419
159.9938, 117.8812
160.4759, 117.4362
160.9580, 117.2143
161.4401, 117.2345
161.9222, 117.4951
162.4044, 118.0970
162.8865, 119.1966
163.3686, 119.7014
163.8507, 119.3967
164.3328, 118.7427
164.8149, 117.5948
165.2971, 116.1387
165.7792, 114.9788
166.2613, 114.9003
166.7434, 116.5500
167.2255, 117.4058
167.7076, 116.9520
168.1898, 116.1856
168.6719, 115.7071
169.1540, 115.6647
169.6361, 115.9829
170.1182, 116.6445
170.6003, 118.0284
171.0825, 118.7132
171.5646, 118.2447
172.0467, 117.1946
172.5288, 116.1968
173.0109, 115.4342
173.4930, 114.7233
173.9752, 113.5813
174.4573, 111.8309
174.9394, 110.6947
175.4215, 110.9216
175.9036, 112.0133
176.3857, 112.8587
176.8679, 113.1178
177.3500, 113.0593
177.8321, 112.9983
178.3142, 112.9114
178.7963, 112.9840
179.2784, 113.5889
179.7606, 114.6118
180.2427, 115.0360
180.7248, 114.1360
181.2069, 112.9075
181.6890, 112.2108
182.1711, 112.1158
182.6533, 112.3041
183.1354, 112.4588
183.6175, 112.5478
184.0996, 112.8605
184.5817, 113.9826
185.0638, 115.0319
185.5460, 115.4157
186.0281, 115.0169
186.5102, 114.2434
186.9923, 113.5994
187.4744, 113.0302
187.9565, 112.7655
188.4387, 112.9374
188.9208, 113.3113
189.4029, 113.8380
189.8850, 114.4781
190.3671, 115.0343
190.8492, 115.1360
191.3314, 114.6328
191.8135, 113.8383
192.2956, 112.3110
192.7777, 110.7674
193.2598, 109.8595
193.7419, 109.8417
194.2241, 110.4674
194.7062, 111.1444
195.1883, 112.3407
195.6704, 113.0088
196.1525, 112.7950
196.6346, 112.1464
197.1168, 111.4823
197.5989, 110.9684
198.0810, 110.6944
198.5631, 110.9735
199.0452, 112.6566
199.5273, 113.7442
200.0095, 113.5443
200.4916, 112.5938
200.9737, 111.6893
201.4558, 111.1211
201.9379, 110.9377
202.4200, 111.3996
202.9022, 113.1264
203.3843, 114.3234
203.8664, 113.8971
204.3485, 112.3860
204.8306, 111.2988
205.3127, 111.3667
205.7949, 112.1676
206.2770, 112.7597
206.7591, 113.2286
207.2412, 113.3644
207.7233, 112.8314
208.2054, 111.7466
208.6876, 110.8625
209.1697, 110.5856
209.6518, 110.6011
210.1339, 110.3523
210.6160, 109.6782
211.0981, 109.1512
211.5803, 109.3769
212.0624, 110.3571
212.5445, 111.2155
213.0266, 111.5306
213.5087, 111.6408
213.9908, 111.9417
214.4730, 112.5502
214.9551, 113.0068
215.4372, 112.6040
215.9193, 111.1388
216.4014, 110.0736
216.8836, 110.1452
217.3657, 110.6041
217.8478, 111.0163
218.3299, 111.2773
218.8120, 111.4813
219.2941, 111.7723
219.7763, 112.2041
220.2584, 112.5390
220.7405, 112.7095
221.2226, 112.7915
221.7047, 112.9155
222.1868, 113.1009
222.6690, 113.1113
223.1511, 112.4035
223.6332, 110.2573
224.1153, 109.0788
224.5974, 109.6682
225.0795, 110.7761
225.5617, 111.4898
226.0438, 111.5617
226.5259, 111.4049
227.0080, 111.7974
227.4901, 113.3454
227.9722, 114.3154
228.4544, 114.6155
228.9365, 114.4390
229.4186, 113.7821
229.9007, 112.6980
230.3828, 111.4502
230.8649, 110.4853
231.3471, 109.7330
231.8292, 109.4543
232.3113, 109.9211
232.7934, 110.6551
233.2755, 111.2938
233.7576, 111.7271
234.2398, 112.0543
234.7219, 112.4310
235.2040, 112.8888
235.6861, 113.3464
236.1682, 113.9069
236.6503, 114.4130
237.1325, 114.7596
237.6146, 114.9109
238.0967, 114.8106
238.5788, 114.3064
239.0609, 112.9967
239.5430, 112.2680
240.0252, 112.5210
240.5073, 113.2048
240.9894, 113.8569
241.4715, 114.3677
241.9536, 114.7124
242.4357, 114.8334
242.9179, 114.6867
243.4000, 114.4956
243.8821, 114.2267
244.3642, 113.9481
244.8463, 113.6766
245.3284, 113.4053
245.8106, 113.3035
246.2927, 113.6999
246.7748, 114.6250
247.2569, 115.2591
247.7390, 115.3246
248.2211, 115.1059
248.7033, 114.9334
249.1854, 114.8596
249.6675, 114.7936
250.1496, 114.6079
250.6317, 114.3262
251.1138, 114.1374
251.5960, 114.2540
252.0781, 114.4113
252.5602, 114.0710
253.0423, 113.0502
253.5244, 112.3208
254.0065, 113.2357
254.4887, 115.1987
254.9708, 116.5512
255.4529, 116.4426
255.9350, 115.6675
256.4171, 115.3539
256.8992, 115.6263
257.3813, 115.9379
257.8635, 115.7152
258.3456, 115.2758
258.8277, 115.1930
259.3098, 115.8679
259.7919, 116.8438
260.2740, 117.4468
260.7562, 117.6029
261.2383, 117.7019
261.7204, 118.1311
262.2025, 118.5937
262.6846, 118.6687
263.1667, 118.0915
263.6489, 117.2508
264.1310, 116.6076
264.6131, 116.1227
265.0952, 116.0090
265.5773, 117.0027
266.0594, 118.1656
266.5416, 118.4161
267.0237, 117.1932
267.5058, 115.7089
267.9879, 115.9049
268.4700, 118.2936
268.9521, 119.9867
269.4343, 119.1236
269.9164, 117.6152
270.3985, 116.9682
270.8806, 117.5970
271.3627, 118.5656
271.8448, 118.5792
272.3270, 117.3750
272.8091, 116.5890
273.2912, 117.0744
273.7733, 117.8162
274.2554, 118.2200
274.7375, 118.1834
275.2197, 117.9560
275.7018, 117.8279
276.1839, 117.8346
276.6660, 117.7083
277.1481, 116.9941
277.6302, 116.4504
278.1124, 116.6042
278.5945, 117.4225
279.0766, 118.3593
279.5587, 118.8071
280.0408, 118.6833
280.5229, 118.8416
281.0051, 119.9893
281.4872, 120.8382
281.9693, 120.5201
282.4514, 119.3163
282.9335, 118.2636
283.4156, 118.4118
283.8978, 119.7986
284.3799, 120.5882
284.8620, 120.1974
285.3441, 119.7499
285.8262, 119.6213
286.3083, 119.7391
286.7905, 119.8919
287.2726, 119.9431
287.7547, 119.8967
288.2368, 119.7833
288.7189, 119.4419
289.2010, 119.2319
289.6832, 119.4522
290.1653, 119.8236
290.6474, 119.8523
291.1295, 119.1747
291.6116, 118.0804
292.0938, 117.8250
292.5759, 119.3694
293.0580, 120.3820
293.5401, 120.0066
294.0222, 119.0631
294.5043, 118.4892
294.9865, 118.7103
295.4686, 119.4122
295.9507, 119.8405
296.4328, 119.8753
296.9149, 119.8259
297.3970, 119.6811
297.8792, 119.5111
298.3613, 119.3669
298.8434, 119.2658
299.3255, 119.2074
299.8076, 119.1964
300.2897, 119.2530
300.7719, 119.3126
301.2540, 119.5636
301.7361, 119.6811
302.2182, 119.3378
302.7003, 118.5462
303.1824, 117.6911
303.6646, 117.2463
304.1467, 117.3263
304.6288, 117.4167
305.1109, 117.5142
305.5930, 117.6242
306.0751, 117.7989
306.5573, 118.0020
307.0394, 118.1099
307.5215, 117.9619
308.0036, 117.5192
308.4857, 117.3890
308.9678, 118.0168
309.4500, 118.5297
309.9321, 118.6399
310.4142, 118.4404
310.8963, 118.1540
311.3784, 117.9218
311.8605, 117.7379
312.3427, 117.5553
312.8248, 117.2795
313.3069, 117.1241
313.7890, 117.4073
314.2711, 117.7492
314.7532, 117.4750
315.2354, 116.2047
315.7175, 114.5489
316.1996, 114.3929
316.6817, 117.2641
317.1638, 119.2365
317.6459, 119.4964
318.1281, 118.9863
318.6102, 118.5010
319.0923, 118.3033
319.5744, 118.1888
320.0565, 117.7708
320.5386, 116.7716
321.0208, 116.1232
321.5029, 115.8374
321.9850, 115.8679
322.4671, 116.3436
322.9492, 117.1904
323.4313, 118.0541
323.9135, 118.5431
324.3956, 118.5853
324.8777, 118.6036
325.3598, 118.2033
325.8419, 118.1437
326.3240, 119.2911
326.8062, 121.1163
327.2883, 122.1683
327.7704, 121.0681
328.2525, 118.0074
328.7346, 116.3887
329.2167, 117.1452
329.6989, 118.4340
330.1810, 120.4242
330.6631, 122.5140
331.1452, 123.7804
331.6273, 123.6558
332.1094, 122.6387
332.5916, 122.3175
333.0737, 123.2483
333.5558, 123.9401
334.0379, 123.9083
334.5200, 123.6746
335.0021, 123.7679
335.4843, 124.3526
335.9664, 125.1142
336.4485, 125.6205
336.9306, 125.9725
337.4127, 125.7442
337.8948, 123.8988
338.3770, 122.2402
338.8591, 122.0524
339.3412, 123.3158
339.8233, 124.9086
340.3055, 125.7083
340.7876, 125.6314
341.2697, 125.5750
341.7518, 125.5853
342.2339, 125.5702
342.7160, 125.4024
343.1982, 125.1750
343.6803, 125.1120
344.1624, 125.4128
344.6445, 125.9923
345.1266, 126.4431
345.6087, 126.8359
346.0909, 126.9552
346.5730, 126.4808
347.0551, 125.8250
347.5372, 125.5907
348.0193, 126.1061
348.5014, 126.8536
348.9836, 126.8307
349.4657, 125.8062
349.9478, 124.7849
350.4299, 123.9078
350.9120, 123.2047
351.3941, 122.7336
351.8763, 122.5030
352.3584, 122.4313
352.8405, 122.4577
353.3226, 122.5833
353.8047, 122.7675
354.2868, 123.0357
354.7690, 123.3346
355.2511, 123.7298
355.7332, 124.1595
356.2153, 124.3789
356.6974, 124.1709
357.1795, 123.6157
357.6617, 122.9737
358.1438, 122.1278
358.6259, 121.4595
359.1080, 121.1634
359.5901, 121.1746
360.0722, 121.4830
360.5544, 122.3768
361.0365, 123.2267
361.5186, 123.0305
362.0007, 121.6682
362.4828, 120.1675
362.9649, 118.5166
363.4471, 117.2074
363.9292, 117.0286
364.4113, 118.3522
364.8934, 119.4828
365.3755, 118.5921
365.8576, 116.1530
366.3398, 114.9129
366.8219, 116.0035
367.3040, 117.7365
367.7861, 118.3653
368.2682, 117.9878
368.7503, 117.3593
369.2325, 116.5186
369.7146, 115.6915
370.1967, 115.3959
370.6788, 115.7709
371.1609, 116.0710
371.6430, 115.5895
372.1252, 114.5548
372.6073, 113.7485
373.0894, 113.3288
373.5715, 113.1265
374.0536, 113.1543
374.5357, 113.3516
375.0179, 113.3194
375.5000, 112.7775
375.9821, 111.9654
376.4642, 111.4600
376.9463, 111.3660
377.4284, 111.2911
377.9106, 110.9794
378.3927, 110.6180
378.8748, 110.6050
379.3569, 111.0796
379.8390, 111.6554
380.3211, 111.8258
380.8033, 111.5139
381.2854, 111.2141
381.7675, 111.0545
382.2496, 110.8529
382.7317, 110.2705
383.2138, 109.3933
383.6960, 108.9087
384.1781, 109.4776
384.6602, 110.9699
385.1423, 111.4707
385.6244, 110.1762
386.1065, 108.9868
386.5887, 108.3735
387.0708, 108.3116
387.5529, 108.9121
388.0350, 110.2662
388.5171, 111.8337
388.9992, 112.4169
389.4814, 111.0848
389.9635, 110.1392
390.4456, 109.5699
390.9277, 109.3841
391.4098, 109.8889
391.8919, 110.9520
392.3741, 111.7740
392.8562, 111.3983
393.3383, 109.5457
393.8204, 108.6508
394.3025, 109.5728
394.7846, 110.4892
395.2668, 110.8881
395.7489, 110.8168
396.2310, 110.3830
396.7131, 109.5998
397.1952, 108.6754
397.6773, 108.3763
398.1595, 109.2654
398.6416, 109.8558
399.1237, 109.8167
399.6058, 109.5231
400.0879, 109.2293
400.5700, 109.0189
401.0522, 108.9301
401.5343, 109.0650
402.0164, 109.4852
402.4985, 109.7618
402.9806, 109.9650
403.4627, 109.9165
403.9449, 109.3267
404.4270, 108.4059
404.9091, 107.6598
405.3912, 107.3692
405.8733, 107.4952
406.3554, 108.0532
406.8376, 109.3899
407.3197, 110.2927
407.8018, 109.9287
408.2839, 109.0570
408.7660, 108.4089
409.2481, 108.1638
409.7303, 108.0835
410.2124, 107.9275
410.6945, 107.7061
411.1766, 107.5544
411.6587, 107.4486
412.1408, 107.5020
412.6230, 107.8931
413.1051, 108.5698
413.5872, 109.1424
414.0693, 109.5612
414.5514, 109.7344
415.0335, 109.3519
415.5157, 108.3349
415.9978, 107.4442
416.4799, 107.1733
416.9620, 107.4247
417.4441, 107.8154
417.9262, 108.6097
418.4084, 109.1720
418.8905, 108.8364
419.3726, 107.9772
419.8547, 107.6618
420.3368, 108.3524
420.8189, 109.3923
421.3011, 109.6581
421.7832, 108.9092
422.2653, 108.4613
422.7474, 108.6802
423.2295, 109.1040
423.7116, 109.4000
424.1938, 109.5181
424.6759, 109.4713
425.1580, 109.2421
425.6401, 108.8457
426.1222, 108.5622
426.6043, 108.3040
427.0865, 108.2382
427.5686, 108.5117
428.0507, 108.9694
428.5328, 109.4395
429.0149, 109.8520
429.4970, 110.1568
429.9792, 110.2561
430.4613, 110.0390
430.9434, 109.8501
431.4255, 109.8085
431.9076, 109.6885
432.3897, 109.0992
432.8719, 108.2632
433.3540, 107.9183
433.8361, 108.7843
434.3182, 110.6160
434.8003, 111.5812
435.2824, 110.9599
435.7646, 110.5527
436.2467, 111.1536
436.7288, 112.0070
437.2109, 112.2498
437.6930, 111.6072
438.1751, 110.6388
438.6573, 109.9232
439.1394, 109.4490
439.6215, 109.4802
440.1036, 110.6361
440.5857, 111.6522
441.0678, 111.5330
441.5500, 110.5421
442.0321, 109.7118
442.5142, 109.5331
442.9963, 109.8524
443.4784, 110.5535
443.9605, 111.7196
444.4427, 112.6283
444.9248, 112.9721
445.4069, 112.7711
445.8890, 111.9957
446.3711, 110.3073
446.8532, 108.9827
447.3354, 108.9690
447.8175, 109.8023
448.2996, 110.5639
448.7817, 111.0847
449.2638, 111.2808
449.7459, 110.9078
450.2281, 109.9203
450.7102, 109.3948
451.1923, 109.6880
451.6744, 110.1712
452.1565, 110.4913
452.6386, 110.6729
453.1208, 110.8351
453.6029, 111.0292
454.0850, 111.2843
454.5671, 111.6874
455.0492, 112.8278
455.5313, 113.2784
456.0135, 112.3252
456.4956, 111.1471
456.9777, 110.7695
457.4598, 111.2589
457.9419, 111.9308
458.4240, 112.1296
458.9062, 111.8467
459.3883, 111.6867
459.8704, 111.5998
460.3525, 111.7137
460.8346, 112.2330
461.3167, 112.9031
461.7989, 113.4171
462.2810, 113.6599
462.7631, 113.7158
463.2452, 113.7026
463.7273, 113.6180
464.2094, 113.4590
464.6916, 112.9017
465.1737, 112.5945
465.6558, 113.2289
466.1379, 114.5046
466.6200, 115.3337
467.1021, 114.8531
467.5843, 113.6608
468.0664, 112.9347
468.5485, 112.7127
469.0306, 112.6645
469.5127, 112.6532
469.9948, 112.7389
470.4770, 113.0687
470.9591, 113.7704
471.4412, 114.2532
471.9233, 114.0608
472.4054, 113.4901
472.8875, 113.0020
473.3697, 112.6647
473.8518, 112.6606
474.3339, 113.3687
474.8160, 114.7458
475.2981, 115.1661
475.7802, 113.7732
476.2624, 112.3519
476.7445, 111.6132
477.2266, 111.4238
477.7087, 111.5408
478.1908, 111.8709
478.6729, 112.3186
479.1551, 112.7269
479.6372, 113.1725
480.1193, 113.3767
480.6014, 113.1008
481.0835, 112.8311
481.5656, 112.8507
482.0478, 113.1146
482.5299, 113.4608
483.0120, 113.8139
483.4941, 114.1087
483.9762, 114.0216
484.4583, 113.1926
484.9405, 112.7289
485.4226, 113.2420
485.9047, 113.9054
486.3868, 114.0599
486.8689, 113.6340
487.3510, 113.0357
487.8332, 112.4498
488.3153, 111.9447
488.7974, 111.9415
489.2795, 112.6940
489.7616, 113.3593
490.2437, 113.1342
490.7259, 112.5550
491.2080, 112.4841
491.6901, 113.2738
492.1722, 114.1961
492.6543, 114.9060
493.1364, 115.3390
493.6186, 115.1981
494.1007, 114.3109
494.5828, 113.2471
495.0649, 112.6526
495.5470, 112.5786
496.0291, 112.5084
496.5113, 112.3645
496.9934, 112.2769
497.4755, 112.3630
497.9576, 112.5663
498.4397, 112.7436
498.9218, 112.8239
499.4040, 112.8530
499.8861, 112.9202
500.3682, 112.9271
500.8503, 113.1712
501.3324, 114.0474
501.8145, 114.7981
502.2967, 114.8338
502.7788, 114.3007
503.2609, 113.7705
503.7430, 113.6222
504.2251, 113.8016
504.7072, 114.1590
505.1894, 114.8977
505.6715, 115.3451
506.1536, 114.9624
506.6357, 114.4702
507.1178, 114.4333
507.5999, 114.9181
508.0821, 115.6099
508.5642, 116.6187
509.0463, 117.6492
509.5284, 117.6174
510.0105, 116.2019
510.4926, 114.8809
510.9748, 114.6471
511.4569, 115.1481
511.9390, 115.5302
512.4211, 115.7930
512.9032, 115.8511
513.3853, 115.4512
513.8674, 114.8734
514.3495, 114.6486
514.8317, 114.8925
515.3138, 115.2701
515.7959, 115.4533
516.2780, 115.4303
516.7601, 115.3645
517.2422, 114.8787
517.7244, 114.7755
518.2065, 115.9483
518.6886, 117.4654
519.1707, 117.7018
519.6528, 116.1581
520.1349, 114.2307
520.6171, 114.2276
521.0992, 116.8071
521.5813, 118.6313
522.0634, 119.5421
522.5455, 119.7830
523.0276, 118.9647
523.5098, 117.6024
523.9919, 116.6442
524.4740, 116.5782
524.9561, 116.8735
525.4382, 116.6347
525.9203, 115.8458
526.4025, 115.5831
526.8846, 116.4089
527.3667, 117.4215
527.8488, 117.7370
528.3309, 117.4462
528.8130, 117.0917
529.2952, 116.6659
529.7773, 116.3692
530.2594, 116.4939
530.7415, 116.9479
531.2236, 117.2935
531.7057, 117.3202
532.1879, 117.1874
532.6700, 117.1933
533.1521, 117.3660
533.6342, 117.6365
534.1163, 118.3248
534.5984, 118.8371
535.0806, 118.5853
535.5627, 117.7995
536.0448, 117.2191
536.5269, 117.3304
537.0090, 117.8429
537.4911, 117.7871
537.9733, 116.5959
538.4554, 116.0995
538.9375, 117.2815
539.4196, 118.5528
539.9017, 118.7721
540.3839, 118.0990
540.8660, 117.6001
541.3481, 118.0893
541.8302, 119.1415
542.3123, 119.8850
542.7944, 120.3264
543.2766, 120.3667
543.7587, 119.6980
544.2408, 118.8220
544.7229, 118.5666
545.2050, 119.0335
545.6871, 119.1979
546.1693, 118.1085
546.6514, 116.9156
547.1335, 117.1621
547.6156, 118.7129
548.0977, 120.0449
548.5798, 120.1914
549.0620, 119.5133
549.5441, 119.2295
550.0262, 119.6096
550.5083, 120.0505
550.9904, 121.1732
551.4725, 121.8823
551.9547, 120.7770
552.4368, 118.3228
552.9189, 116.4278
553.4010, 116.5557
553.8831, 118.3068
554.3652, 120.3007
554.8474, 123.0673
555.3295, 124.7119
555.8116, 123.9225
556.2937, 122.3872
556.7758, 121.0819
557.2579, 120.1319
557.7401, 119.5173
558.2222, 119.2020
558.7043, 119.2268
559.1864, 119.9125
559.6685, 121.2657
560.1506, 122.1500
560.6328, 121.8712
561.1149, 120.9166
561.5970, 120.2580
562.0791, 119.7835
562.5612, 119.8501
563.0433, 121.1941
563.5255, 122.6021
564.0076, 122.8887
564.4897, 122.2119
564.9718, 121.6118
565.4539, 121.7707
565.9360, 122.4312
566.4182, 122.7015
566.9003, 122.2539
567.3824, 122.0400
567.8645, 122.1909
568.3466, 122.5113
568.8287, 123.0806
569.3109, 123.7432
569.7930, 124.0289
570.2751, 123.5161
570.7572, 122.5841
571.2393, 121.9702
571.7214, 121.6731
572.2036, 121.7340
572.6857, 122.3391
573.1678, 123.1284
573.6499, 123.7367
574.1320, 124.1682
574.6141, 124.3787
575.0963, 124.2707
575.5784, 124.0020
576.0605, 123.6103
576.5426, 123.1645
577.0247, 122.8208
577.5068, 122.6376
577.9890, 122.6895
578.4711, 123.1582
578.9532, 124.3434
579.4353, 125.1793
579.9174, 125.4937
580.3995, 125.6805
580.8817, 125.7931
581.3638, 125.9413
581.8459, 126.3646
582.3280, 127.2126
582.8101, 128.0864
583.2922, 128.2299
583.7744, 127.5756
584.2565, 127.1898
584.7386, 127.3612
585.2207, 127.6085
585.7029, 127.5359
586.1850, 127.2712
586.6671, 127.1632
587.1492, 127.5151
587.6313, 127.7482
588.1135, 126.9587
588.5956, 125.7755
589.0777, 125.9307
589.5598, 127.8924
590.0419, 130.1604
590.5240, 131.1051
591.0062, 130.6511
591.4883, 130.5557
591.9704, 131.1981
592.4525, 131.6959
592.9346, 131.5609
593.4167, 131.3058
593.8989, 131.5975
594.3810, 132.5396
594.8631, 133.6145
595.3452, 134.2918
595.8273, 134.6027
596.3094, 134.8783
596.7916, 135.0004
597.2737, 135.3620
597.7558, 136.6231
598.2379, 137.9667
598.7200, 138.4444
599.2021, 137.8879
599.6843, 137.1424
600.1664, 136.3465
600.6485, 135.7583
601.1306, 135.8176
601.6127, 136.5103
602.0948, 137.4378
602.5770, 138.3976
603.0591, 139.3906
603.5412, 140.4317
604.0233, 141.7931
604.5054, 142.7270
604.9875, 143.0304
605.4697, 143.0952
605.9518, 143.0108
606.4339, 142.9033
606.9160, 142.9422
607.3981, 143.1955
607.8802, 143.7640
608.3624, 145.1160
608.8445, 147.4601
609.3266, 148.8301
609.8087, 148.2501
610.2908, 147.4909
610.7729, 147.9713
611.2551, 149.3320
611.7372, 150.5116
612.2193, 151.0841
612.7014, 151.5947
613.1835, 152.5502
613.6656, 153.7152
614.1478, 154.4479
614.6299, 154.5925
615.1120, 154.8232
615.5941, 155.8564
616.0762, 157.6980
616.5583, 159.3858
617.0405, 161.0164
617.5226, 162.3775
618.0047, 163.4649
618.4868, 164.2536
618.9689, 164.4953
619.4510, 164.2916
619.9332, 164.3155
620.4153, 165.1339
620.8974, 166.6325
621.3795, 168.5633
621.8616, 171.0925
622.3438, 173.1521
622.8259, 174.1282
623.3080, 174.6242
623.7901, 175.3965
624.2722, 176.4474
624.7543, 177.6851
625.2365, 179.1639
625.7186, 180.7622
626.2007, 182.5748
626.6828, 184.4177
627.1649, 185.6121
627.6470, 185.8573
628.1292, 186.0147
628.6113, 187.6666
629.0934, 191.5023
629.5755, 193.9456
630.0576, 193.5503
630.5397, 193.2490
631.0219, 194.1896
631.5040, 195.6144
631.9861, 196.2702
632.4682, 195.7645
632.9503, 195.3751
633.4324, 196.7280
633.9146, 199.1381
634.3967, 200.2407
634.8788, 199.7259
635.3609, 199.0785
635.8430, 199.1540
636.3251, 199.7116
636.8073, 200.0486
637.2894, 200.0356
637.7715, 200.1499
638.2536, 200.8098
638.7357, 201.3410
639.2178, 201.1235
639.7000, 200.3077
640.1821, 199.4737
640.6642, 198.9451
641.1463, 198.4690
641.6284, 197.3683
642.1105, 195.3972
642.5927, 194.1986
643.0748, 194.6938
643.5569, 194.9855
644.0390, 193.8769
644.5211, 191.8539
645.0032, 189.8723
645.4854, 188.1225
645.9675, 186.5268
646.4496, 184.8594
646.9317, 183.3552
647.4138, 182.7506
647.8959, 183.0579
648.3781, 182.9697
648.8602, 181.4524
649.3423, 178.8089
649.8244, 176.5212
650.3065, 174.7460
650.7886, 173.1031
651.2708, 171.5213
651.7529, 170.1003
652.2350, 169.2386
652.7171, 168.6095
653.1992, 167.2501
653.6813, 164.4137
654.1635, 161.1848
654.6456, 159.2510
655.1277, 158.5287
655.6098, 157.9943
656.0919, 157.4751
656.5740, 157.0690
657.0562, 157.0281
657.5383, 157.2229
658.0204, 156.8212
658.5025, 155.2366
658.9846, 153.7894
659.4667, 152.9673
659.9489, 152.4122
660.4310, 151.8274
660.9131, 151.1320
661.3952, 150.2931
661.8773, 149.2741
662.3594, 148.0947
662.8416, 146.7847
663.3237, 145.2890
663.8058, 143.8364
664.2879, 142.2835
664.7700, 140.9825
665.2521, 140.1729
665.7343, 139.8011
666.2164, 139.7054
666.6985, 140.1689
667.1806, 140.4570
667.6627, 139.8441
668.1448, 138.7417
668.6270, 137.9283
669.1091, 137.5598
669.5912, 137.3841
670.0733, 137.2332
670.5554, 137.0634
671.0375, 136.5244
671.5197, 135.2061
672.0018, 134.1989
672.4839, 133.7384
672.9660, 133.4955
673.4481, 133.2912
673.9302, 133.1080
674.4124, 133.0003
674.8945, 133.1206
675.3766, 133.1260
675.8587, 132.3352
676.3408, 130.9869
676.8229, 130.2896
677.3051, 130.5834
677.7872, 131.0127
678.2693, 130.7866
678.7514, 129.9805
679.2335, 129.4680
679.7156, 129.8029
680.1978, 129.6547
680.6799, 128.1637
681.1620, 126.6189
681.6441, 126.2331
682.1262, 126.8732
682.6083, 127.5956
683.0905, 127.8335
683.5726, 127.7666
684.0547, 127.7110
684.5368, 127.6668
685.0189, 127.6210
685.5010, 127.6178
685.9832, 127.5026
686.4653, 127.0747
686.9474, 126.4051
687.4295, 125.8768
687.9116, 125.3303
688.3937, 125.1584
688.8759, 125.9281
689.3580, 126.8273
689.8401, 127.0279
690.3222, 126.5137
690.8043, 125.6568
691.2864, 124.6298
691.7686, 123.6736
692.2507, 123.3966
692.7328, 123.8660
693.2149, 124.6895
693.6970, 126.4225
694.1791, 127.6183
694.6613, 126.6518
695.1434, 124.4845
695.6255, 123.3196
696.1076, 124.0283
696.5897, 124.6578
697.0718, 124.2684
697.5540, 123.3415
698.0361, 122.1903
698.5182, 121.0201
699.0003, 120.4302
699.4824, 120.8431
699.9645, 121.7629
700.4467, 121.8616
700.9288, 120.7334
701.4109, 120.3262
701.8930, 121.3861
702.3751, 122.4051
702.8572, 122.5948
703.3394, 122.2690
703.8215, 121.9100
704.3036, 121.5705
704.7857, 121.3957
705.2678, 121.7317
705.7499, 122.1418
706.2321, 121.9171
706.7142, 121.1272
707.1963, 120.4059
707.6784, 120.0780
708.1605, 120.0108
708.6426, 119.9266
709.1248, 119.7607
709.6069, 119.8149
710.0890, 120.3945
710.5711, 120.8336
711.0532, 120.8205
711.5353, 120.5787
712.0175, 120.4488
712.4996, 120.5083
712.9817, 120.3776
713.4638, 119.4283
713.9459, 118.3753
714.4280, 118.3234
714.9102, 119.1567
715.3923, 120.1977
715.8744, 121.2048
716.3565, 121.9129
716.8386, 121.9271
717.3207, 121.2058
717.8029, 120.0840
718.2850, 117.3929
718.7671, 115.8024
719.2492, 116.6479
719.7313, 118.3904
720.2134, 119.5290
720.6956, 119.8980
721.1777, 120.2563
721.6598, 121.2335
722.1419, 122.3192
722.6240, 122.8770
723.1061, 122.9632
723.5883, 122.7571
724.0704, 122.2982
724.5525, 121.7291
725.0346, 121.1380
725.5167, 120.5387
725.9988, 120.4217
726.4810, 121.6864
726.9631, 122.1174
727.4452, 120.5412
727.9273, 118.8112
728.4094, 118.4297
728.8915, 119.2108
729.3737, 119.9991
729.8558, 120.2538
730.3379, 120.3130
730.8200, 120.5488
731.3021, 120.8771
731.7842, 121.0325
732.2664, 120.9721
732.7485, 120.9419
733.2306, 121.1807
733.7127, 121.5344
734.1948, 121.3713
734.6769, 120.3207
735.1591, 119.4236
735.6412, 118.5146
736.1233, 117.9434
736.6054, 117.9044
737.0875, 118.3296
737.5696, 119.2193
738.0518, 120.6932
738.5339, 121.9124
739.0160, 122.2204
739.4981, 121.8184
739.9802, 120.6953
740.4623, 119.0328
740.9445, 118.1690
741.4266, 118.8473
741.9087, 120.3605
742.3908, 121.5302
742.8729, 122.4767
743.3550, 122.5568
743.8372, 120.6841
744.3193, 119.2414
744.8014, 119.0800
745.2835, 119.5423
745.7656, 120.0138
746.2477, 120.3788
746.7299, 120.5538
747.2120, 120.4483
747.6941, 120.1656
748.1762, 119.6027
748.6583, 118.9579
749.1404, 118.9871
749.6226, 119.8916
750.1047, 120.8414
750.5868, 120.9383
751.0689, 120.2870
751.5510, 120.0740
752.0331, 120.6898
752.5153, 120.9914
752.9974, 120.5629
753.4795, 119.9681
753.9616, 119.4341
754.4437, 119.0218
754.9258, 118.8722
755.4080, 119.1429
755.8901, 119.4585
756.3722, 119.5534
756.8543, 119.5361
757.3364, 119.5261
757.8185, 119.5589
758.3007, 119.7237
758.7828, 120.0895
759.2649, 120.5268
759.7470, 120.7508
760.2291, 120.7247
760.7112, 120.6580
761.1934, 120.4602
761.6755, 120.3721
762.1576, 120.7314
762.6397, 121.1580
763.1218, 121.1378
763.6039, 120.5922
764.0861, 119.9528
764.5682, 119.1429
765.0503, 118.5019
765.5324, 118.4477
766.0145, 118.7287
766.4966, 118.7243
766.9788, 118.3144
767.4609, 118.1585
767.9430, 119.1111
768.4251, 120.8145
768.9072, 121.3220
769.3893, 120.3742
769.8715, 119.5367
770.3536, 119.0670
770.8357, 118.9989
771.3178, 119.5985
771.7999, 120.6971
772.2820, 121.4173
772.7642, 121.5054
773.2463, 121.4857
773.7284, 121.7028
774.2105, 121.7141
774.6926, 120.8727
775.1747, 119.4641
775.6569, 118.3197
776.1390, 117.8382
776.6211, 117.9286
777.1032, 118.6641
777.5853, 119.9118
778.0674, 120.9986
778.5496, 121.9108
779.0317, 122.3376
779.5138, 122.0399
779.9959, 121.2958
780.4780, 120.4886
780.9601, 119.4189
781.4423, 119.1576
781.9244, 120.8750
782.4065, 121.9470
782.8886, 120.8186
783.3707, 119.0650
783.8528, 118.4614
784.3350, 119.1433
784.8171, 119.9380
785.2992, 120.0166
785.7813, 119.9717
786.2634, 120.8462
786.7455, 122.2562
787.2277, 122.8139
787.7098, 122.2555
788.1919, 121.5863
788.6740, 121.6211
789.1561, 122.1144
789.6382, 122.1422
790.1204, 121.4576
790.6025, 120.8982
791.0846, 120.2560
791.5667, 120.0353
792.0488, 120.9121
792.5309, 122.1718
793.0131, 122.5612
793.4952, 121.7233
793.9773, 121.1724
794.4594, 122.1023
794.9415, 123.2218
795.4236, 123.2926
795.9058, 122.5705
796.3879, 121.6629
796.8700, 120.8061
797.3521, 120.2095
797.8342, 120.1210
798.3163, 120.4648
798.7985, 120.8750
799.2806, 121.3745
799.7627, 121.7940
800.2448, 122.0257
800.7269, 122.2905
801.2090, 122.9064
801.6912, 123.7459
802.1733, 124.1505
802.6554, 123.9895
803.1375, 123.5972
803.6196, 122.7187
804.1017, 121.9137
804.5839, 121.5691
805.0660, 121.6275
805.5481, 122.0136
806.0302, 122.7043
806.5123, 123.2229
806.9944, 122.9019
807.4766, 122.1075
807.9587, 121.6858
808.4408, 121.6542
808.9229, 121.9359
809.4050, 122.5705
809.8871, 123.0741
810.3693, 122.8018
810.8514, 121.7641
811.3335, 121.0473
811.8156, 120.6623
812.2977, 120.5843
812.7798, 120.8163
813.2620, 121.3315
813.7441, 122.5365
814.2262, 123.9984
814.7083, 124.4478
815.1904, 123.0806
815.6725, 121.8351
816.1547, 121.8037
816.6368, 122.4583
817.1189, 123.5152
817.6010, 124.6978
818.0831, 125.3498
818.5652, 125.1996
819.0474, 124.7238
819.5295, 124.6327
820.0116, 124.8283
820.4937, 124.2297
820.9758, 122.6220
821.4579, 121.5242
821.9401, 121.4958
822.4222, 122.0316
822.9043, 122.8320
823.3864, 123.8487
823.8685, 124.0772
824.3506, 122.3414
824.8328, 121.4998
825.3149, 123.0708
825.7970, 124.7095
826.2791, 124.3841
826.7612, 122.7908
827.2433, 121.8430
827.7255, 122.2598
828.2076, 123.1650
828.6897, 124.2329
829.1718, 125.0946
829.6539, 124.7822
830.1360, 123.5911
830.6182, 123.1582
831.1003, 124.1118
831.5824, 125.1853
832.0645, 124.7575
832.5466, 122.9938
833.0287, 121.9818
833.5109, 121.8747
833.9930, 122.0990
834.4751, 122.8049
834.9572, 123.4857
835.4393, 123.6698
835.9214, 123.4972
836.4036, 123.3405
836.8857, 123.0857
837.3678, 123.1341
837.8499, 124.0285
838.3320, 124.8455
838.8141, 124.8148
839.2963, 124.2377
839.7784, 123.7135
840.2605, 123.4364
840.7426, 123.2661
841.2247, 122.7874
841.7068, 122.4607
842.1890, 123.7181
842.6711, 126.1438
843.1532, 127.1580
843.6353, 126.0569
844.1174, 124.5677
844.5995, 124.2049
845.0817, 124.7382
845.5638, 125.1480
846.0459, 125.3468
846.5280, 125.6920
847.0101, 126.6623
847.4922, 127.1823
847.9744, 126.0572
848.4565, 124.4127
848.9386, 124.1563
849.4207, 125.6831
849.9028, 126.7560
850.3849, 126.3912
850.8671, 125.8181
851.3492, 125.7759
851.8313, 125.9662
852.3134, 125.9532
852.7955, 125.6736
853.2776, 125.3005
853.7598, 124.8979
854.2419, 124.5786
854.7240, 124.5382
855.2061, 124.7302
855.6882, 125.0058
856.1703, 125.3411
856.6525, 125.6510
857.1346, 125.9066
857.6167, 126.0229
858.0988, 125.7666
858.5809, 125.0064
859.0630, 124.7920
859.5452, 125.5981
860.0273, 126.1031
860.5094, 125.6205
860.9915, 124.8997
861.4736, 124.5927
861.9557, 124.6532
862.4379, 124.7234
862.9200, 124.7612
863.4021, 124.7750
863.8842, 124.8275
864.3663, 124.8099
864.8484, 124.5269
865.3306, 124.1082
865.8127, 123.8445
866.2948, 123.8473
866.7769, 124.0415
867.2590, 124.2970
867.7411, 124.7149
868.2233, 125.9095
868.7054, 127.5902
869.1875, 127.9325
869.6696, 126.3994
870.1517, 124.5338
870.6339, 123.7693
871.1160, 123.9102
871.5981, 124.1056
872.0802, 124.3742
872.5623, 124.6200
873.0444, 124.7349
873.5266, 124.9969
874.0087, 125.7859
874.4908, 126.7229
874.9729, 127.0769
875.4550, 126.7494
875.9371, 126.4111
876.4193, 126.1455
876.9014, 125.8916
877.3835, 125.5509
877.8656, 125.2610
878.3477, 125.1020
878.8298, 125.1292
879.3120, 125.5272
879.7941, 126.5842
880.2762, 127.5144
880.7583, 127.3613
881.2404, 126.6434
881.7225, 126.2673
882.2047, 126.2448
882.6868, 126.1878
883.1689, 125.9280
883.6510, 125.6316
884.1331, 125.5091
884.6152, 125.5412
885.0974, 125.5696
885.5795, 125.5769
886.0616, 125.7624
886.5437, 126.3125
887.0258, 126.6993
887.5079, 126.4415
887.9901, 125.6834
888.4722, 124.9758
888.9543, 123.9640
889.4364, 123.6952
889.9185, 124.7275
890.4006, 125.8385
890.8828, 126.8351
891.3649, 127.4814
891.8470, 127.4027
892.3291, 126.6113
892.8112, 125.7949
893.2933, 125.0822
893.7755, 124.5929
894.2576, 124.3869
894.7397, 124.4568
895.2218, 124.9842
895.7039, 125.7911
896.1860, 126.3442
896.6682, 126.3922
897.1503, 126.0832
897.6324, 125.4108
898.1145, 124.5611
898.5966, 124.0103
899.0787, 123.7857
899.5609, 124.1173
900.0430, 125.1205
900.5251, 126.0844
901.0072, 126.3005
901.4893, 125.9194
901.9714, 125.7014
902.4536, 125.7886
902.9357, 125.4496
903.4178, 124.1826
903.8999, 123.2767
904.3820, 123.5984
904.8641, 124.5970
905.3463, 125.4139
905.8284, 126.0709
906.3105, 126.3837
906.7926, 126.2296
907.2747, 125.8701
907.7568, 124.9911
908.2390, 124.2593
908.7211, 124.3992
909.2032, 125.1967
909.6853, 125.8973
910.1674, 126.2606
910.6495, 126.3808
911.1317, 126.0491
911.6138, 125.7162
912.0959, 126.0664
912.5780, 126.8075
913.0601, 127.2535
913.5422, 127.1999
914.0244, 126.7039
914.5065, 125.5610
914.9886, 124.4410
915.4707, 125.1371
915.9528, 127.2865
916.4349, 128.6452
916.9171, 128.9043
917.3992, 128.3135
917.8813, 126.8028
918.3634, 125.3322
918.8455, 125.7288
919.3276, 128.1793
919.8098, 129.0735
920.2919, 127.6986
920.7740, 126.5875
921.2561, 126.3222
921.7382, 126.5170
922.2203, 127.0737
922.7025, 127.8420
923.1846, 128.1973
923.6667, 127.7131
924.1488, 127.7560
924.6309, 129.2270
925.1130, 130.3692
925.5952, 130.3451
926.0773, 129.5720
926.5594, 128.2708
927.0415, 126.6577
927.5236, 125.6509
928.0057, 125.8935
928.4879, 126.4683
928.9700, 126.8503
929.4521, 127.1853
929.9342, 127.7380
930.4163, 128.3929
930.8984, 128.8194
931.3806, 128.8916
931.8627, 128.7194
932.3448, 128.3543
932.8269, 127.8550
933.3090, 127.1966
933.7911, 126.4919
934.2733, 126.2188
934.7554, 126.4722
935.2375, 127.2632
935.7196, 128.6903
936.2017, 130.2080
936.6838, 130.4658
937.1660, 129.3714
937.6481, 129.0615
938.1302, 129.8095
938.6123, 130.0815
939.0944, 129.1063
939.5765, 128.0517
940.0587, 128.2501
940.5408, 129.4498
941.0229, 129.7903
941.5050, 128.5477
941.9871, 127.7723
942.4692, 127.4801
942.9514, 127.7218
943.4335, 129.1722
943.9156, 130.8027
944.3977, 131.1948
944.8798, 130.2877
945.3619, 129.4531
945.8441, 128.7663
946.3262, 128.4724
946.8083, 128.8844
947.2904, 129.5277
947.7725, 130.3341
948.2546, 130.9681
948.7368, 130.6585
949.2189, 129.1494
949.7010, 127.7638
950.1831, 127.3559
950.6652, 127.4873
951.1473, 128.0393
951.6295, 128.6686
952.1116, 128.5517
952.5937, 127.8053
953.0758, 127.6004
953.5579, 128.6653
954.0400, 130.0313
954.5222, 130.3476
955.0043, 129.9141
955.4864, 129.5139
955.9685, 129.1987
956.4506, 129.0943
956.9327, 129.2373
957.4149, 129.4409
957.8970, 129.5429
958.3791, 129.5720
958.8612, 129.6583
959.3433, 129.8221
959.8254, 129.6537
960.3076, 128.9900
960.7897, 128.6024
961.2718, 128.8389
961.7539, 129.4877
962.2360, 130.4225
962.7181, 131.6017
963.2003, 131.9431
963.6824, 130.9192
964.1645, 130.1415
964.6466, 129.7992
965.1287, 129.6814
965.6108, 129.7536
966.0930, 129.9501
966.5751, 130.2977
967.0572, 130.8599
967.5393, 130.8482
968.0214, 129.2963
968.5035, 128.3442
968.9857, 129.1054
969.4678, 130.1901
969.9499, 130.6171
970.4320, 130.4953
970.9141, 130.1551
971.3962, 129.6044
971.8784, 129.4728
972.3605, 130.5673
972.8426, 131.6211
973.3247, 131.6611
973.8068, 131.2036
974.2889, 130.8574
974.7711, 130.7082
975.2532, 130.6283
975.7353, 130.5674
976.2174, 130.5019
976.6995, 130.3051
977.1816, 130.1638
977.6638, 130.4269
978.1459, 130.9512
978.6280, 131.3805
979.1101, 131.6304
979.5922, 131.7833
980.0743, 131.9108
980.5565, 131.9095
981.0386, 131.4258
981.5207, 130.6822
982.0028, 130.6958
982.4849, 131.3844
982.9670, 131.3585
983.4492, 130.1421
983.9313, 129.0604
984.4134, 129.4454
984.8955, 130.7975
985.3776, 131.5974
985.8597, 131.8409
986.3419, 131.5500
986.8240, 130.6357
987.3061, 129.6738
987.7882, 128.7717
988.2703, 128.3583
988.7524, 129.0519
989.2346, 130.7348
989.7167, 132.1942
990.1988, 133.6546
990.6809, 134.1392
991.1630, 133.0119
991.6451, 131.9401
992.1273, 131.8149
992.6094, 132.1625
993.0915, 132.2681
993.5736, 132.1073
994.0557, 132.1593
994.5378, 132.7144
995.0200, 133.0534
995.5021, 133.0232
995.9842, 132.8528
996.4663, 132.2326
996.9484, 131.7347
997.4305, 132.6720
997.9127, 135.3378
998.3948, 136.6293
998.8769, 134.8897
999.3590, 133.2529
999.8411, 132.5116
1000.323, 132.3817
1000.805, 132.9377
1001.287, 133.8294
1001.770, 134.4166
1002.252, 134.5508
1002.734, 134.6063
1003.216, 134.7054
1003.698, 134.8076
1004.180, 134.8267
1004.662, 134.8832
1005.144, 135.3329
1005.627, 135.9111
1006.109, 135.7794
1006.591, 134.6084
1007.073, 133.5555
1007.555, 133.5056
1008.037, 133.8701
1008.519, 134.3157
1009.001, 134.6708
1009.483, 134.6148
1009.966, 134.2112
1010.448, 133.8270
1010.930, 133.6391
1011.412, 133.4475
1011.894, 132.7304
1012.376, 132.1017
1012.858, 132.9257
1013.340, 134.5445
1013.823, 135.1574
1014.305, 134.6026
1014.787, 133.9497
1015.269, 133.7961
1015.751, 134.0356
1016.233, 134.7933
1016.715, 135.7574
1017.197, 135.9093
1017.679, 135.4153
1018.162, 135.1155
1018.644, 135.1956
1019.126, 135.5398
1019.608, 136.1147
1020.090, 136.5735
1020.572, 136.0880
1021.054, 134.8668
1021.536, 134.3838
1022.018, 134.6386
1022.501, 135.5042
1022.983, 137.0179
1023.465, 137.7537
1023.947, 136.4916
1024.429, 134.4520
1024.911, 134.4513
1025.393, 136.5520
1025.875, 137.6590
1026.358, 137.6789
1026.840, 137.4240
1027.322, 137.0453
1027.804, 136.7061
1028.286, 136.5439
1028.768, 136.4889
1029.250, 136.3250
1029.732, 135.9911
1030.214, 136.0894
1030.697, 136.8161
1031.179, 137.2935
1031.661, 137.2670
1032.143, 136.9897
1032.625, 136.6384
1033.107, 136.1983
1033.589, 135.5731
1034.071, 134.5838
1034.553, 134.2043
1035.036, 134.4438
1035.518, 135.3748
1036.000, 137.8904
1036.482, 139.7795
1036.964, 138.7713
1037.446, 136.0024
1037.928, 134.8567
1038.410, 135.7775
1038.893, 136.7775
1039.375, 138.2559
1039.857, 139.1817
1040.339, 139.2876
1040.821, 138.7832
1041.303, 137.3423
1041.785, 135.4777
1042.267, 134.7226
1042.750, 135.3878
1043.232, 136.1120
1043.714, 137.0478
1044.196, 137.8138
1044.678, 138.3277
1045.160, 138.6336
1045.642, 138.7406
1046.124, 138.6645
1046.606, 138.2990
1047.089, 137.3553
1047.571, 137.3522
1048.053, 139.8165
1048.535, 141.3909
1049.017, 140.2346
1049.499, 138.7303
1049.981, 138.9294
1050.463, 140.1122
1050.945, 140.4819
1051.428, 139.7052
1051.910, 139.0066
1052.392, 138.7233
1052.874, 138.4095
1053.356, 137.7673
1053.838, 137.1867
1054.320, 136.8216
1054.802, 136.7955
1055.285, 137.5728
1055.767, 139.3506
1056.249, 140.1616
1056.731, 138.5840
1057.213, 137.1564
1057.695, 136.5271
1058.177, 136.6618
1058.659, 138.3231
1059.141, 140.4126
1059.624, 140.7425
1060.106, 138.9368
1060.588, 137.5173
1061.070, 137.2873
1061.552, 137.5861
1062.034, 138.6024
1062.516, 139.6209
1062.998, 140.1041
1063.480, 140.1836
1063.963, 140.0928
1064.445, 139.8867
1064.927, 139.6993
1065.409, 139.1624
1065.891, 139.2166
1066.373, 141.2007
1066.855, 142.9839
1067.337, 142.5762
1067.820, 141.0184
1068.302, 139.8897
1068.784, 139.4842
1069.266, 139.6350
1069.748, 140.7402
1070.230, 141.5851
1070.712, 141.4046
1071.194, 140.9979
1071.677, 140.9288
1072.159, 141.0460
1072.641, 141.1550
1073.123, 141.1805
1073.605, 140.9374
1074.087, 140.2040
1074.569, 139.5686
1075.051, 139.3547
1075.533, 139.2835
1076.016, 139.0652
1076.498, 138.9256
1076.980, 139.2251
1077.462, 139.9151
1077.944, 140.7001
1078.426, 141.6524
1078.908, 142.0755
1079.390, 140.9616
1079.873, 139.9812
1080.355, 140.4896
1080.837, 141.5661
1081.319, 142.3468
1081.801, 142.6390
1082.283, 142.0934
1082.765, 140.3375
1083.247, 139.5198
1083.729, 141.7875
1084.212, 143.8678
1084.694, 143.4632
1085.176, 142.2372
1085.658, 142.0329
1086.140, 142.4805
1086.622, 142.0015
1087.104, 140.1447
1087.586, 139.3174
1088.068, 141.7999
1088.551, 143.9365
1089.033, 143.5603
1089.515, 142.3755
1089.997, 141.5810
1090.479, 141.2506
1090.961, 141.2881
1091.443, 141.6607
1091.925, 142.1876
1092.408, 143.2278
1092.890, 143.8283
1093.372, 143.0533
1093.854, 142.2722
1094.336, 142.8457
1094.818, 143.8621
1095.300, 143.7349
1095.782, 142.4594
1096.265, 141.5861
1096.747, 141.6805
1097.229, 141.9991
1097.711, 142.5966
1098.193, 143.0056
1098.675, 142.6177
1099.157, 142.1257
1099.639, 142.5366
1100.121, 143.6345
1100.604, 144.1923
1101.086, 143.7966
1101.568, 143.3430
1102.050, 142.6538
1102.532, 142.4656
1103.014, 143.6257
1103.496, 144.9738
1103.978, 145.6525
1104.460, 145.6195
1104.943, 144.8096
1105.425, 142.9859
1105.907, 141.7469
1106.389, 141.1642
1106.871, 141.4940
1107.353, 144.1402
1107.835, 146.3873
1108.317, 145.7800
1108.800, 143.7621
1109.282, 142.9437
1109.764, 143.5530
1110.246, 143.9096
1110.728, 143.2769
1111.210, 143.2558
1111.692, 145.0022
1112.174, 146.3181
1112.656, 145.8441
1113.139, 144.5714
1113.621, 143.4463
1114.103, 142.5474
1114.585, 142.4970
1115.067, 144.0758
1115.549, 145.0983
1116.031, 145.3202
1116.513, 145.3232
1116.995, 145.1822
1117.478, 144.9969
1117.960, 144.7402
1118.442, 144.5360
1118.924, 144.8285
1119.406, 145.8304
1119.888, 146.5004
1120.370, 146.8739
1120.852, 146.8005
1121.335, 145.9515
1121.817, 145.1379
1122.299, 144.7100
1122.781, 144.8788
1123.263, 146.3310
1123.745, 149.1245
1124.227, 149.7787
1124.709, 147.4737
1125.192, 145.9532
1125.674, 145.7834
1126.156, 146.1708
1126.638, 146.9709
1127.120, 147.5906
1127.602, 147.2164
1128.084, 146.1304
1128.566, 145.7390
1129.048, 146.1057
1129.531, 146.7051
1130.013, 147.6054
1130.495, 148.0241
1130.977, 147.6723
1131.459, 147.0004
1131.941, 146.2793
1132.423, 145.7967
1132.905, 146.4606
1133.387, 148.1377
1133.870, 148.5348
1134.352, 147.7097
1134.834, 147.2250
1135.316, 147.3828
1135.798, 147.8882
1136.280, 148.6042
1136.762, 149.2351
1137.244, 149.4055
1137.727, 149.1883
1138.209, 148.6114
1138.691, 147.8431
1139.173, 147.8384
1139.655, 148.4872
1140.137, 148.3685
1140.619, 147.0828
1141.101, 146.1772
1141.583, 147.0552
1142.066, 148.5268
1142.548, 148.6639
1143.030, 148.1116
1143.512, 148.3109
1143.994, 148.9452
1144.476, 148.8812
1144.958, 148.0476
1145.440, 147.2573
1145.922, 146.9089
1146.405, 146.8524
1146.887, 146.8801
1147.369, 147.1871
1147.851, 148.4204
1148.333, 149.8081
1148.815, 150.0303
1149.297, 149.3977
1149.779, 149.0291
1150.262, 149.2197
1150.744, 149.3881
1151.226, 149.0933
1151.708, 148.8710
1152.190, 149.0597
1152.672, 149.4722
1153.154, 150.0019
1153.636, 150.6227
1154.119, 151.4735
1154.601, 152.4210
1155.083, 152.9464
1155.565, 152.9551
1156.047, 152.3653
1156.529, 150.1866
1157.011, 148.6408
1157.493, 149.3084
1157.975, 150.4458
1158.458, 150.4201
1158.940, 149.8045
1159.422, 150.1777
1159.904, 151.8036
1160.386, 152.3251
1160.868, 150.2045
1161.350, 149.0368
1161.832, 149.8274
1162.314, 150.8209
1162.797, 151.4515
1163.279, 151.7962
1163.761, 151.8625
1164.243, 151.7198
1164.725, 151.6533
1165.207, 151.5104
1165.689, 152.1104
1166.171, 153.9880
1166.654, 154.9382
1167.136, 154.1951
1167.618, 153.1192
1168.100, 152.5334
1168.582, 152.3053
1169.064, 152.1806
1169.546, 152.2033
1170.028, 153.1376
1170.510, 155.0412
1170.993, 154.8428
1171.475, 152.1702
1171.957, 150.8077
1172.439, 152.2164
1172.921, 153.9409
1173.403, 153.7140
1173.885, 152.5344
1174.367, 152.2702
1174.849, 152.7464
1175.332, 153.6406
1175.814, 154.7254
1176.296, 155.2955
1176.778, 155.1999
1177.260, 154.2482
1177.742, 152.3614
1178.224, 150.8471
1178.706, 151.1433
1179.189, 152.2846
1179.671, 153.5026
1180.153, 154.4239
1180.635, 154.0922
1181.117, 153.1214
1181.599, 153.0432
1182.081, 154.0066
1182.563, 154.7920
1183.046, 154.8337
1183.528, 154.5805
1184.010, 154.1472
1184.492, 153.6786
1184.974, 153.1746
1185.456, 152.7678
1185.938, 152.4805
1186.420, 152.4278
1186.902, 153.0171
1187.385, 154.3662
1187.867, 155.0895
1188.349, 154.4917
1188.831, 153.8901
1189.313, 153.3144
1189.795, 153.0374
1190.277, 153.2490
1190.759, 153.7777
1191.241, 154.5421
1191.724, 155.4786
1192.206, 156.4049
1192.688, 157.5203
1193.170, 157.6814
1193.652, 156.4197
1194.134, 155.6521
1194.616, 155.8045
1195.098, 156.4139
1195.581, 157.3663
1196.063, 158.1807
1196.545, 158.1477
1197.027, 157.4641
1197.509, 156.9893
1197.991, 156.6996
1198.473, 156.1412
1198.955, 155.3313
1199.438, 154.9491
1199.920, 155.1486
1200.402, 155.2948
1200.884, 154.9543
1201.366, 154.4919
1201.848, 154.3002
1202.330, 154.3821
1202.812, 154.9785
1203.294, 155.7430
1203.776, 155.8548
1204.259, 155.4811
1204.741, 155.3383
1205.223, 155.6182
1205.705, 156.0117
1206.187, 156.3249
1206.669, 156.7539
1207.151, 157.9531
1207.633, 158.7573
1208.116, 157.5245
1208.598, 155.9402
1209.080, 156.0951
1209.562, 157.5882
1210.044, 159.0964
1210.526, 160.4604
1211.008, 160.7956
1211.490, 159.1082
1211.973, 157.6298
1212.455, 156.3083
1212.937, 155.8703
1213.419, 157.1923
1213.901, 158.9387
1214.383, 159.9749
1214.865, 160.2745
1215.347, 159.5483
1215.829, 157.4165
1216.312, 157.0862
1216.794, 159.0649
1217.276, 160.2768
1217.758, 160.1181
1218.240, 159.5769
1218.722, 159.0792
1219.204, 158.8529
1219.686, 159.2788
1220.168, 159.8743
1220.651, 159.0296
1221.133, 157.3040
1221.615, 157.2476
1222.097, 158.4788
1222.579, 158.8098
1223.061, 158.0612
1223.543, 158.0257
1224.025, 159.5453
1224.508, 160.8709
1224.990, 159.8580
1225.472, 158.6727
1225.954, 159.9808
1226.436, 161.8880
1226.918, 162.2451
1227.400, 161.5911
1227.882, 160.8686
1228.365, 160.3354
1228.847, 160.2375
1229.329, 160.7933
1229.811, 161.1484
1230.293, 160.9086
1230.775, 160.6535
1231.257, 160.3291
1231.739, 160.3141
1232.221, 161.3184
1232.703, 162.4298
1233.186, 162.4022
1233.668, 161.4024
1234.150, 160.4214
1234.632, 159.1288
1235.114, 159.4277
1235.596, 161.8820
1236.078, 163.1716
1236.560, 162.3827
1237.043, 161.4201
1237.525, 161.3945
1238.007, 161.6180
1238.489, 161.1071
1238.971, 160.2918
1239.453, 160.5473
1239.935, 161.4643
1240.417, 161.6429
1240.900, 161.1755
1241.382, 160.6645
1241.864, 160.2733
1242.346, 159.9756
1242.828, 159.7513
1243.310, 159.7807
1243.792, 160.2981
1244.274, 161.0206
1244.756, 161.9252
1245.239, 162.7345
1245.721, 163.2296
1246.203, 163.4184
1246.685, 163.1064
1247.167, 162.4896
1247.649, 162.6279
1248.131, 164.2661
1248.613, 164.7720
1249.095, 162.4357
1249.578, 161.1005
1250.060, 162.0584
1250.542, 163.1199
1251.024, 163.1348
1251.506, 162.8099
1251.988, 163.0301
1252.470, 163.5793
1252.952, 163.4241
1253.435, 162.5211
1253.917, 163.0843
1254.399, 165.0684
1254.881, 166.1137
1255.363, 165.8224
1255.845, 165.1395
1256.327, 164.5106
1256.809, 163.8176
1257.292, 162.8690
1257.774, 161.9970
1258.256, 161.5039
1258.738, 161.5033
1259.220, 162.4658
1259.702, 163.8598
1260.184, 165.0071
1260.666, 165.6969
1261.148, 165.6019
1261.630, 164.6255
1262.113, 163.9601
1262.595, 164.2645
1263.077, 164.6039
1263.559, 164.9749
1264.041, 165.0000
1264.523, 163.8505
1265.005, 162.9113
1265.487, 163.7292
1265.970, 165.4138
1266.452, 165.8325
1266.934, 164.9583
1267.416, 164.8472
1267.898, 165.6892
1268.380, 165.7689
1268.862, 164.8863
1269.344, 163.7830
1269.827, 162.6868
1270.309, 162.4441
1270.791, 163.7599
1271.273, 165.4065
1271.755, 165.4267
1272.237, 164.7529
1272.719, 165.2530
1273.201, 166.2245
1273.683, 166.3831
1274.166, 165.9270
1274.648, 165.4818
1275.130, 165.2394
1275.612, 165.3378
1276.094, 165.9550
1276.576, 166.3524
1277.058, 165.8564
1277.540, 165.6104
1278.022, 166.6242
1278.505, 167.4007
1278.987, 166.4500
1279.469, 165.1282
1279.951, 165.1068
1280.433, 166.0282
1280.915, 166.4338
1281.397, 166.3099
1281.879, 165.8416
1282.362, 164.9460
1282.844, 164.7874
1283.326, 165.5665
1283.808, 165.9357
1284.290, 165.3232
1284.772, 164.5479
1285.254, 164.1794
1285.736, 164.2107
##END=



