##NAMES=Pyrophyllite
##RRUFFID=R050108
##IDEAL CHEMISTRY=Al_2_Si_4_O_10_(OH)_2_
##LOCALITY=Graves Mountain, Lincoln County, Georgia, USA
##OWNER=RRUFF
##SOURCE=Rock Currier
##DESCRIPTION=Lamellar radial aggregates
##STATUS=The identification of this mineral has been confirmed by X-ray diffraction and chemical analysis
##URL=rruff.info/R050108
##MEASURED CHEMISTRY=(Al_.976_Fe_.020_Mg_.002_Ca_.001_)_2_Si_4_O_10_(OH)_2_
118.2057, 9301.185
118.6879, 9301.350
119.1700, 9310.261
119.6521, 9325.988
120.1342, 9334.247
120.6163, 9326.218
121.0984, 9318.544
121.5805, 9315.488
122.0627, 9315.988
122.5448, 9316.844
123.0269, 9314.897
123.5090, 9308.906
123.9911, 9307.631
124.4732, 9315.271
124.9554, 9322.914
125.4375, 9325.300
125.9196, 9322.192
126.4017, 9317.585
126.8838, 9316.483
127.3659, 9321.178
127.8481, 9322.342
128.3302, 9316.245
128.8123, 9308.055
129.2944, 9303.682
129.7765, 9305.016
130.2586, 9309.153
130.7408, 9312.149
131.2229, 9314.211
131.7050, 9315.437
132.1871, 9315.389
132.6692, 9314.456
133.1513, 9314.505
133.6335, 9318.635
134.1156, 9321.060
134.5977, 9314.403
135.0798, 9297.330
135.5619, 9280.787
136.0440, 9276.459
136.5262, 9286.286
137.0083, 9294.988
137.4904, 9297.697
137.9725, 9298.276
138.4546, 9298.822
138.9367, 9299.951
139.4189, 9301.354
139.9010, 9301.945
140.3831, 9298.833
140.8652, 9300.516
141.3473, 9314.956
141.8294, 9331.350
142.3116, 9338.021
142.7937, 9329.013
143.2758, 9308.373
143.7579, 9293.217
144.2400, 9286.116
144.7221, 9282.447
145.2043, 9285.295
145.6864, 9291.006
146.1685, 9293.064
146.6506, 9286.608
147.1327, 9272.663
147.6148, 9266.092
148.0969, 9270.600
148.5791, 9277.125
149.0612, 9281.498
149.5433, 9284.098
150.0254, 9288.389
150.5075, 9298.499
150.9896, 9313.282
151.4718, 9321.278
151.9539, 9316.971
152.4360, 9308.891
152.9181, 9305.957
153.4002, 9309.460
153.8823, 9311.802
154.3645, 9301.434
154.8466, 9284.537
155.3287, 9275.232
155.8108, 9284.848
156.2929, 9304.600
156.7750, 9313.365
157.2572, 9304.790
157.7393, 9294.918
158.2214, 9293.771
158.7035, 9298.873
159.1856, 9304.782
159.6677, 9308.316
160.1499, 9309.562
160.6320, 9310.100
161.1141, 9308.760
161.5962, 9307.924
162.0783, 9310.959
162.5604, 9316.025
163.0426, 9317.787
163.5247, 9309.879
164.0068, 9289.571
164.4889, 9274.367
164.9710, 9266.521
165.4531, 9261.618
165.9353, 9258.787
166.4174, 9257.447
166.8995, 9256.590
167.3816, 9254.735
167.8637, 9250.253
168.3458, 9249.654
168.8279, 9256.919
169.3101, 9264.863
169.7922, 9267.845
170.2743, 9264.767
170.7564, 9259.148
171.2385, 9256.340
171.7206, 9259.260
172.2028, 9257.666
172.6849, 9246.119
173.1670, 9231.563
173.6491, 9222.829
174.1312, 9222.968
174.6133, 9226.518
175.0955, 9223.501
175.5776, 9213.062
176.0597, 9203.580
176.5418, 9197.373
177.0239, 9193.893
177.5060, 9192.510
177.9882, 9194.702
178.4703, 9196.396
178.9524, 9191.908
179.4345, 9180.968
179.9166, 9168.814
180.3987, 9157.575
180.8809, 9147.401
181.3630, 9139.809
181.8451, 9136.218
182.3272, 9134.842
182.8093, 9134.775
183.2914, 9136.068
183.7736, 9136.300
184.2557, 9132.346
184.7378, 9123.530
185.2199, 9115.782
185.7020, 9109.914
186.1841, 9105.885
186.6663, 9103.830
187.1484, 9103.756
187.6305, 9105.607
188.1126, 9109.751
188.5947, 9117.213
189.0768, 9124.092
189.5589, 9130.463
190.0411, 9135.821
190.5232, 9139.696
191.0053, 9141.967
191.4874, 9143.086
191.9695, 9144.276
192.4516, 9148.441
192.9338, 9147.323
193.4159, 9136.340
193.8980, 9122.725
194.3801, 9113.494
194.8622, 9111.110
195.3443, 9112.162
195.8265, 9108.760
196.3086, 9096.471
196.7907, 9084.317
197.2728, 9072.067
197.7549, 9060.107
198.2370, 9048.491
198.7192, 9037.197
199.2013, 9026.884
199.6834, 9019.808
200.1655, 9018.709
200.6476, 9016.561
201.1297, 9010.957
201.6119, 9003.762
202.0940, 8998.384
202.5761, 8996.640
203.0582, 8996.739
203.5403, 8993.637
204.0224, 8985.578
204.5046, 8978.588
204.9867, 8976.814
205.4688, 8978.038
205.9509, 8975.807
206.4330, 8966.201
206.9151, 8953.358
207.3973, 8945.530
207.8794, 8943.937
208.3615, 8943.596
208.8436, 8943.283
209.3257, 8942.521
209.8078, 8937.965
210.2899, 8926.080
210.7721, 8911.604
211.2542, 8900.697
211.7363, 8893.909
212.2184, 8889.300
212.7005, 8885.534
213.1826, 8882.600
213.6648, 8880.827
214.1469, 8881.143
214.6290, 8882.139
215.1111, 8883.385
215.5932, 8884.997
216.0753, 8884.661
216.5575, 8877.933
217.0396, 8863.142
217.5217, 8853.101
218.0038, 8858.324
218.4859, 8864.827
218.9680, 8863.092
219.4502, 8851.295
219.9323, 8836.279
220.4144, 8826.916
220.8965, 8825.010
221.3786, 8822.807
221.8607, 8819.850
222.3429, 8815.947
222.8250, 8810.247
223.3071, 8802.785
223.7892, 8795.346
224.2713, 8791.035
224.7534, 8792.309
225.2356, 8790.940
225.7177, 8785.029
226.1998, 8777.873
226.6819, 8770.985
227.1640, 8765.026
227.6461, 8760.498
228.1283, 8758.785
228.6104, 8763.842
229.0925, 8763.856
229.5746, 8758.080
230.0567, 8748.703
230.5388, 8734.569
231.0210, 8716.537
231.5031, 8700.021
231.9852, 8693.458
232.4673, 8704.076
232.9494, 8711.021
233.4315, 8715.380
233.9137, 8715.779
234.3958, 8708.061
234.8779, 8692.370
235.3600, 8676.767
235.8421, 8673.047
236.3242, 8689.069
236.8064, 8699.384
237.2885, 8700.815
237.7706, 8698.641
238.2527, 8697.012
238.7348, 8696.850
239.2169, 8697.006
239.6991, 8695.390
240.1812, 8690.104
240.6633, 8691.127
241.1454, 8705.662
241.6275, 8722.854
242.1096, 8732.504
242.5918, 8732.757
243.0739, 8728.467
243.5560, 8724.673
244.0381, 8721.520
244.5202, 8716.774
245.0023, 8709.019
245.4845, 8700.167
245.9666, 8691.644
246.4487, 8683.565
246.9308, 8677.080
247.4129, 8672.892
247.8950, 8671.101
248.3772, 8673.446
248.8593, 8683.721
249.3414, 8696.571
249.8235, 8706.129
250.3056, 8711.849
250.7877, 8714.991
251.2698, 8716.092
251.7520, 8715.284
252.2341, 8712.678
252.7162, 8705.135
253.1983, 8697.250
253.6804, 8694.771
254.1625, 8698.108
254.6447, 8705.325
255.1268, 8720.707
255.6089, 8738.576
256.0910, 8747.879
256.5731, 8738.585
257.0552, 8724.421
257.5374, 8724.877
258.0195, 8742.287
258.5016, 8762.514
258.9837, 8780.658
259.4658, 8796.264
259.9479, 8809.284
260.4301, 8822.873
260.9122, 8829.503
261.3943, 8817.500
261.8764, 8784.276
262.3585, 8744.206
262.8406, 8697.956
263.3228, 8650.139
263.8049, 8604.152
264.2870, 8560.193
264.7691, 8520.295
265.2512, 8486.603
265.7333, 8458.466
266.2155, 8439.055
266.6976, 8440.021
267.1797, 8444.433
267.6618, 8438.880
268.1439, 8419.888
268.6260, 8396.939
269.1082, 8381.102
269.5903, 8373.050
270.0724, 8368.382
270.5545, 8367.846
271.0366, 8369.558
271.5187, 8375.008
272.0009, 8383.758
272.4830, 8389.470
272.9651, 8383.089
273.4472, 8361.877
273.9293, 8344.264
274.4114, 8333.883
274.8936, 8326.506
275.3757, 8321.689
275.8578, 8318.711
276.3399, 8315.227
276.8220, 8308.446
277.3041, 8297.830
277.7863, 8288.172
278.2684, 8280.269
278.7505, 8272.801
279.2326, 8265.384
279.7147, 8258.038
280.1968, 8250.818
280.6789, 8243.302
281.1610, 8235.357
281.6432, 8230.877
282.1253, 8233.911
282.6074, 8236.775
283.0895, 8237.145
283.5716, 8235.533
284.0537, 8233.569
284.5359, 8232.710
285.0180, 8232.615
285.5001, 8229.215
285.9822, 8215.963
286.4643, 8206.840
286.9464, 8210.213
287.4286, 8218.826
287.9107, 8220.369
288.3928, 8206.749
288.8749, 8182.962
289.3570, 8171.718
289.8391, 8188.429
290.3213, 8197.865
290.8034, 8189.647
291.2855, 8173.445
291.7676, 8160.310
292.2497, 8155.343
292.7318, 8155.638
293.2140, 8153.615
293.6961, 8146.103
294.1782, 8141.337
294.6603, 8144.986
295.1424, 8148.788
295.6245, 8143.630
296.1067, 8127.229
296.5888, 8106.873
297.0709, 8095.710
297.5530, 8101.921
298.0351, 8101.847
298.5172, 8090.892
298.9994, 8077.738
299.4815, 8068.506
299.9636, 8064.051
300.4457, 8060.667
300.9278, 8052.987
301.4099, 8037.539
301.8921, 8029.505
302.3742, 8035.428
302.8563, 8041.750
303.3384, 8041.612
303.8205, 8035.056
304.3026, 8025.659
304.7848, 8016.270
305.2669, 8006.483
305.7490, 8000.320
306.2311, 8003.169
306.7132, 8004.011
307.1953, 7997.752
307.6775, 7986.431
308.1596, 7974.873
308.6417, 7966.356
309.1238, 7960.674
309.6059, 7955.698
310.0880, 7952.522
310.5702, 7948.864
311.0523, 7943.029
311.5344, 7936.791
312.0165, 7933.576
312.4986, 7935.345
312.9807, 7939.292
313.4629, 7936.124
313.9450, 7913.455
314.4271, 7899.854
314.9092, 7903.478
315.3913, 7913.715
315.8734, 7921.514
316.3556, 7923.466
316.8377, 7919.916
317.3198, 7910.569
317.8019, 7887.307
318.2840, 7873.374
318.7661, 7874.555
319.2483, 7879.597
319.7304, 7882.125
320.2125, 7880.385
320.6946, 7874.419
321.1767, 7863.352
321.6588, 7844.177
322.1409, 7831.794
322.6230, 7830.988
323.1052, 7831.356
323.5873, 7828.985
324.0694, 7823.522
324.5515, 7815.819
325.0336, 7806.191
325.5157, 7794.693
325.9979, 7785.207
326.4800, 7778.741
326.9621, 7773.359
327.4442, 7768.533
327.9263, 7764.581
328.4084, 7763.081
328.8906, 7765.323
329.3727, 7769.113
329.8548, 7765.138
330.3369, 7742.719
330.8190, 7726.026
331.3011, 7720.782
331.7833, 7720.678
332.2654, 7719.104
332.7475, 7713.659
333.2296, 7706.681
333.7117, 7702.720
334.1938, 7703.975
334.6760, 7704.081
335.1581, 7703.067
335.6402, 7700.909
336.1223, 7696.470
336.6044, 7690.210
337.0865, 7684.889
337.5687, 7684.293
338.0508, 7690.290
338.5329, 7691.975
339.0150, 7687.148
339.4971, 7680.310
339.9792, 7672.966
340.4614, 7665.101
340.9435, 7655.603
341.4256, 7643.022
341.9077, 7627.981
342.3898, 7618.209
342.8719, 7619.497
343.3541, 7619.720
343.8362, 7615.491
344.3183, 7608.976
344.8004, 7603.133
345.2825, 7599.392
345.7646, 7597.271
346.2468, 7595.723
346.7289, 7595.711
347.2110, 7594.366
347.6931, 7591.469
348.1752, 7587.224
348.6573, 7581.380
349.1395, 7573.987
349.6216, 7566.069
350.1037, 7558.360
350.5858, 7550.091
351.0679, 7545.126
351.5500, 7547.973
352.0322, 7550.566
352.5143, 7548.779
352.9964, 7543.081
353.4785, 7536.663
353.9606, 7532.459
354.4427, 7530.302
354.9249, 7525.899
355.4070, 7516.689
355.8891, 7508.604
356.3712, 7505.199
356.8533, 7503.935
357.3354, 7500.015
357.8176, 7489.907
358.2997, 7477.737
358.7818, 7475.188
359.2639, 7488.120
359.7460, 7496.043
360.2281, 7490.544
360.7103, 7479.334
361.1924, 7467.508
361.6745, 7456.274
362.1566, 7447.177
362.6387, 7444.321
363.1208, 7448.741
363.6029, 7446.477
364.0851, 7427.009
364.5672, 7407.659
365.0493, 7401.611
365.5314, 7407.154
366.0135, 7411.690
366.4956, 7403.013
366.9778, 7385.112
367.4599, 7378.313
367.9420, 7390.973
368.4241, 7399.906
368.9062, 7386.787
369.3883, 7361.872
369.8705, 7342.796
370.3526, 7337.970
370.8347, 7340.322
371.3168, 7340.708
371.7989, 7339.275
372.2810, 7334.505
372.7632, 7322.078
373.2453, 7307.959
373.7274, 7300.284
374.2095, 7301.343
374.6916, 7302.052
375.1737, 7293.875
375.6559, 7278.904
376.1380, 7267.419
376.6201, 7262.174
377.1022, 7260.416
377.5843, 7260.195
378.0664, 7261.264
378.5486, 7260.928
379.0307, 7259.149
379.5128, 7255.005
379.9949, 7245.627
380.4770, 7230.145
380.9591, 7215.500
381.4413, 7206.075
381.9234, 7201.778
382.4055, 7201.281
382.8876, 7210.453
383.3697, 7217.692
383.8518, 7213.348
384.3340, 7199.876
384.8161, 7186.591
385.2982, 7177.001
385.7803, 7170.647
386.2624, 7167.815
386.7445, 7170.635
387.2267, 7170.124
387.7088, 7161.050
388.1909, 7148.388
388.6730, 7138.831
389.1551, 7133.789
389.6372, 7130.771
390.1194, 7127.252
390.6015, 7123.143
391.0836, 7119.025
391.5657, 7113.778
392.0478, 7109.481
392.5299, 7108.393
393.0121, 7109.587
393.4942, 7109.848
393.9763, 7107.071
394.4584, 7101.785
394.9405, 7096.770
395.4226, 7091.566
395.9048, 7087.173
396.3869, 7085.306
396.8690, 7083.684
397.3511, 7078.718
397.8332, 7069.507
398.3153, 7059.331
398.7975, 7053.354
399.2796, 7053.112
399.7617, 7053.384
400.2438, 7057.776
400.7259, 7059.591
401.2080, 7053.253
401.6902, 7040.425
402.1723, 7027.271
402.6544, 7018.509
403.1365, 7013.927
403.6186, 7010.846
404.1007, 7011.546
404.5828, 7011.065
405.0649, 7009.923
405.5471, 7006.608
406.0292, 6997.608
406.5113, 6981.594
406.9934, 6964.739
407.4755, 6958.794
407.9576, 6968.636
408.4398, 6974.603
408.9219, 6974.612
409.4040, 6970.425
409.8861, 6960.329
410.3682, 6945.858
410.8503, 6932.692
411.3325, 6925.648
411.8146, 6924.048
412.2967, 6923.147
412.7788, 6923.400
413.2609, 6923.571
413.7430, 6923.728
414.2252, 6923.324
414.7073, 6921.473
415.1894, 6917.659
415.6715, 6912.793
416.1536, 6908.170
416.6357, 6903.847
417.1179, 6898.493
417.6000, 6890.440
418.0821, 6882.359
418.5642, 6876.697
419.0463, 6873.492
419.5284, 6871.478
420.0106, 6872.185
420.4927, 6873.258
420.9748, 6868.620
421.4569, 6856.673
421.9390, 6843.933
422.4211, 6835.021
422.9033, 6829.240
423.3854, 6824.206
423.8675, 6818.892
424.3496, 6815.063
424.8317, 6814.810
425.3138, 6817.280
425.7960, 6819.788
426.2781, 6821.773
426.7602, 6822.198
427.2423, 6818.208
427.7244, 6808.384
428.2065, 6799.886
428.6887, 6795.634
429.1708, 6792.312
429.6529, 6785.863
430.1350, 6776.135
430.6171, 6766.561
431.0992, 6759.836
431.5814, 6755.995
432.0635, 6755.195
432.5456, 6763.549
433.0277, 6767.529
433.5098, 6759.005
433.9919, 6744.195
434.4741, 6733.634
434.9562, 6731.741
435.4383, 6734.059
435.9204, 6731.405
436.4025, 6718.938
436.8846, 6710.597
437.3668, 6710.132
437.8489, 6710.056
438.3310, 6704.421
438.8131, 6694.327
439.2952, 6686.185
439.7773, 6686.509
440.2595, 6693.742
440.7416, 6691.527
441.2237, 6670.822
441.7058, 6653.748
442.1879, 6647.675
442.6700, 6647.130
443.1522, 6645.884
443.6343, 6641.889
444.1164, 6637.629
444.5985, 6636.671
445.0806, 6639.349
445.5627, 6641.632
446.0448, 6645.770
446.5269, 6646.002
447.0091, 6635.544
447.4912, 6617.487
447.9733, 6603.587
448.4554, 6603.853
448.9375, 6610.271
449.4196, 6606.994
449.9018, 6592.706
450.3839, 6579.723
450.8660, 6574.720
451.3481, 6574.447
451.8302, 6572.613
452.3123, 6568.113
452.7945, 6564.634
453.2766, 6565.849
453.7587, 6569.119
454.2408, 6568.821
454.7229, 6563.552
455.2050, 6556.378
455.6872, 6550.228
456.1693, 6545.172
456.6514, 6539.804
457.1335, 6531.628
457.6156, 6525.444
458.0977, 6525.374
458.5799, 6529.589
459.0620, 6533.975
459.5441, 6536.825
460.0262, 6537.229
460.5083, 6532.768
460.9904, 6517.817
461.4726, 6506.637
461.9547, 6502.542
462.4368, 6499.702
462.9189, 6492.705
463.4010, 6482.126
463.8831, 6473.427
464.3653, 6471.903
464.8474, 6476.908
465.3295, 6477.825
465.8116, 6472.214
466.2937, 6465.329
466.7758, 6456.424
467.2580, 6447.753
467.7401, 6442.290
468.2222, 6440.938
468.7043, 6440.430
469.1864, 6436.369
469.6685, 6428.483
470.1507, 6420.525
470.6328, 6411.544
471.1149, 6404.101
471.5970, 6400.269
472.0791, 6398.935
472.5612, 6397.242
473.0434, 6394.063
473.5255, 6389.684
474.0076, 6384.251
474.4897, 6377.724
474.9718, 6371.077
475.4539, 6364.377
475.9361, 6358.034
476.4182, 6353.057
476.9003, 6349.815
477.3824, 6345.329
477.8645, 6337.265
478.3466, 6327.857
478.8288, 6320.368
479.3109, 6315.119
479.7930, 6310.500
480.2751, 6305.458
480.7572, 6300.031
481.2393, 6294.094
481.7215, 6286.584
482.2036, 6280.002
482.6857, 6276.520
483.1678, 6273.810
483.6499, 6268.015
484.1320, 6258.238
484.6142, 6247.706
485.0963, 6240.456
485.5784, 6236.638
486.0605, 6235.493
486.5426, 6240.785
487.0247, 6244.541
487.5068, 6243.360
487.9890, 6238.611
488.4711, 6232.647
488.9532, 6226.552
489.4353, 6220.801
489.9174, 6217.232
490.3995, 6217.548
490.8817, 6214.193
491.3638, 6201.127
491.8459, 6187.892
492.3280, 6179.832
492.8101, 6176.606
493.2922, 6174.708
493.7744, 6172.870
494.2565, 6170.608
494.7386, 6166.409
495.2207, 6159.938
495.7028, 6153.652
496.1849, 6147.589
496.6671, 6143.132
497.1492, 6143.052
497.6313, 6149.062
498.1134, 6152.637
498.5955, 6148.354
499.0776, 6139.601
499.5598, 6131.358
500.0419, 6124.380
500.5240, 6118.406
501.0061, 6113.891
501.4882, 6110.466
501.9703, 6103.546
502.4525, 6088.469
502.9346, 6075.835
503.4167, 6071.032
503.8988, 6069.791
504.3809, 6066.165
504.8630, 6058.440
505.3452, 6049.249
505.8273, 6041.794
506.3094, 6035.956
506.7915, 6032.604
507.2736, 6035.894
507.7557, 6037.252
508.2379, 6032.343
508.7200, 6023.989
509.2021, 6017.314
509.6842, 6014.748
510.1663, 6013.114
510.6484, 6005.672
511.1306, 5990.920
511.6127, 5981.225
512.0948, 5982.520
512.5769, 5985.166
513.0590, 5982.525
513.5411, 5975.733
514.0233, 5969.292
514.5054, 5966.350
514.9875, 5964.024
515.4696, 5957.374
515.9517, 5946.730
516.4338, 5938.581
516.9160, 5936.831
517.3981, 5937.343
517.8802, 5932.583
518.3623, 5921.929
518.8444, 5911.671
519.3265, 5902.601
519.8087, 5894.940
520.2908, 5889.441
520.7729, 5885.744
521.2550, 5881.978
521.7371, 5876.817
522.2192, 5870.868
522.7014, 5866.576
523.1835, 5866.049
523.6656, 5864.403
524.1477, 5861.628
524.6298, 5857.563
525.1119, 5851.317
525.5941, 5843.325
526.0762, 5835.675
526.5583, 5830.167
527.0404, 5826.509
527.5225, 5822.142
528.0046, 5814.671
528.4868, 5811.329
528.9689, 5820.142
529.4510, 5830.464
529.9331, 5831.239
530.4152, 5820.662
530.8973, 5808.583
531.3795, 5803.075
531.8616, 5801.969
532.3437, 5799.026
532.8258, 5793.703
533.3079, 5786.606
533.7900, 5775.877
534.2722, 5764.104
534.7543, 5759.103
535.2364, 5766.027
535.7185, 5771.005
536.2006, 5767.661
536.6827, 5759.146
537.1649, 5749.550
537.6470, 5739.784
538.1291, 5729.491
538.6112, 5717.578
539.0933, 5703.956
539.5754, 5697.081
540.0576, 5707.084
540.5397, 5711.394
541.0218, 5699.755
541.5039, 5682.628
541.9860, 5672.073
542.4681, 5671.237
542.9503, 5674.901
543.4324, 5677.857
543.9145, 5680.172
544.3966, 5680.434
544.8787, 5678.614
545.3608, 5674.612
545.8430, 5666.433
546.3251, 5656.963
546.8072, 5650.610
547.2892, 5649.136
547.7714, 5648.116
548.2535, 5642.898
548.7356, 5634.920
549.2177, 5629.356
549.6998, 5627.517
550.1819, 5626.193
550.6641, 5622.024
551.1462, 5615.708
551.6283, 5612.770
552.1104, 5617.253
552.5925, 5620.595
553.0746, 5618.741
553.5568, 5613.807
554.0389, 5608.759
554.5210, 5604.405
555.0031, 5600.268
555.4852, 5595.981
555.9673, 5591.692
556.4495, 5585.444
556.9316, 5572.378
557.4137, 5562.771
557.8958, 5561.685
558.3779, 5564.133
558.8600, 5564.165
559.3422, 5560.029
559.8243, 5554.234
560.3064, 5549.547
560.7885, 5545.870
561.2706, 5542.016
561.7527, 5538.477
562.2349, 5533.655
562.7170, 5524.196
563.1991, 5513.411
563.6812, 5507.218
564.1633, 5508.594
564.6454, 5509.977
565.1276, 5506.054
565.6097, 5499.022
566.0918, 5492.488
566.5739, 5487.135
567.0560, 5484.413
567.5381, 5486.854
568.0203, 5493.923
568.5024, 5493.249
568.9845, 5476.220
569.4666, 5463.303
569.9487, 5461.825
570.4308, 5464.819
570.9130, 5465.098
571.3951, 5461.067
571.8772, 5454.883
572.3593, 5448.049
572.8414, 5440.761
573.3235, 5436.774
573.8057, 5439.482
574.2878, 5439.374
574.7699, 5430.605
575.2520, 5419.357
575.7341, 5411.715
576.2162, 5408.745
576.6984, 5407.308
577.1805, 5406.697
577.6626, 5405.795
578.1447, 5401.270
578.6268, 5392.708
579.1089, 5385.026
579.5911, 5380.914
580.0732, 5379.822
580.5553, 5380.461
581.0374, 5384.627
581.5195, 5386.437
582.0016, 5382.077
582.4838, 5376.701
582.9659, 5376.376
583.4480, 5380.064
583.9301, 5380.945
584.4122, 5373.812
584.8943, 5361.497
585.3765, 5354.942
585.8586, 5358.501
586.3407, 5358.734
586.8228, 5350.645
587.3049, 5341.821
587.7870, 5337.288
588.2692, 5336.495
588.7513, 5335.603
589.2334, 5332.396
589.7155, 5327.948
590.1976, 5324.021
590.6797, 5320.604
591.1619, 5316.888
591.6440, 5312.443
592.1261, 5307.922
592.6082, 5303.847
593.0903, 5300.127
593.5724, 5298.199
594.0546, 5299.938
594.5367, 5301.884
595.0188, 5302.958
595.5009, 5302.414
595.9830, 5298.532
596.4651, 5290.655
596.9473, 5280.800
597.4294, 5271.588
597.9115, 5262.425
598.3936, 5256.771
598.8757, 5258.750
599.3578, 5260.003
599.8400, 5258.969
600.3221, 5255.416
600.8042, 5247.772
601.2863, 5235.213
601.7684, 5224.324
602.2505, 5224.591
602.7327, 5232.955
603.2148, 5234.710
603.6969, 5227.047
604.1790, 5218.491
604.6611, 5214.937
605.1432, 5214.739
605.6254, 5211.997
606.1075, 5204.688
606.5896, 5198.611
607.0717, 5197.300
607.5538, 5197.105
608.0359, 5194.161
608.5181, 5188.156
609.0002, 5180.184
609.4823, 5170.446
609.9644, 5160.440
610.4465, 5157.202
610.9286, 5165.954
611.4108, 5171.281
611.8929, 5171.066
612.3750, 5167.521
612.8571, 5159.771
613.3392, 5149.585
613.8214, 5142.239
614.3035, 5142.521
614.7856, 5145.040
615.2677, 5140.987
615.7498, 5130.878
616.2319, 5120.719
616.7141, 5111.317
617.1962, 5104.514
617.6783, 5103.671
618.1604, 5108.959
618.6425, 5111.748
619.1246, 5110.136
619.6068, 5107.622
620.0889, 5107.267
620.5710, 5106.529
621.0531, 5099.492
621.5352, 5085.405
622.0173, 5072.417
622.4995, 5071.152
622.9816, 5081.623
623.4637, 5085.928
623.9458, 5081.583
624.4279, 5074.945
624.9100, 5065.979
625.3922, 5057.026
625.8743, 5050.090
626.3564, 5045.457
626.8385, 5043.067
627.3206, 5045.010
627.8027, 5048.197
628.2849, 5047.630
628.7670, 5043.216
629.2491, 5035.900
629.7311, 5025.005
630.2133, 5013.765
630.6954, 5008.823
631.1775, 5013.631
631.6596, 5015.924
632.1417, 5016.390
632.6238, 5013.638
633.1060, 5003.368
633.5881, 4990.129
634.0702, 4983.075
634.5523, 4986.022
635.0344, 4991.245
635.5165, 4985.985
635.9987, 4969.749
636.4808, 4959.919
636.9629, 4959.911
637.4450, 4961.478
637.9271, 4961.340
638.4092, 4959.485
638.8914, 4954.820
639.3735, 4945.483
639.8556, 4939.205
640.3377, 4942.877
640.8198, 4950.174
641.3019, 4953.627
641.7841, 4952.365
642.2662, 4946.784
642.7483, 4936.670
643.2304, 4923.696
643.7125, 4912.572
644.1946, 4903.151
644.6768, 4896.023
645.1589, 4893.319
645.6410, 4890.595
646.1231, 4884.134
646.6052, 4876.107
647.0873, 4871.494
647.5695, 4872.978
648.0516, 4876.499
648.5337, 4877.069
649.0158, 4875.200
649.4979, 4874.535
649.9800, 4876.392
650.4622, 4876.004
650.9443, 4868.894
651.4264, 4856.585
651.9085, 4846.257
652.3906, 4837.478
652.8727, 4831.163
653.3549, 4829.057
653.8370, 4828.372
654.3191, 4826.426
654.8012, 4823.303
655.2833, 4821.159
655.7654, 4821.772
656.2476, 4822.927
656.7297, 4817.669
657.2118, 4803.585
657.6939, 4794.439
658.1760, 4796.037
658.6581, 4798.530
659.1403, 4795.329
659.6224, 4788.065
660.1045, 4780.480
660.5866, 4772.054
661.0687, 4766.144
661.5508, 4767.359
662.0330, 4771.897
662.5151, 4772.199
662.9972, 4767.308
663.4793, 4762.872
663.9614, 4763.765
664.4435, 4768.333
664.9257, 4768.142
665.4078, 4760.496
665.8899, 4752.251
666.3720, 4741.957
666.8541, 4732.975
667.3362, 4727.667
667.8184, 4725.525
668.3005, 4724.933
668.7826, 4726.010
669.2647, 4726.336
669.7468, 4720.686
670.2289, 4710.867
670.7111, 4708.043
671.1932, 4715.861
671.6753, 4722.657
672.1574, 4717.573
672.6395, 4702.771
673.1216, 4694.203
673.6038, 4697.920
674.0859, 4698.847
674.5680, 4692.204
675.0501, 4683.684
675.5322, 4677.979
676.0143, 4675.063
676.4965, 4672.397
676.9786, 4668.206
677.4607, 4663.979
677.9428, 4663.558
678.4249, 4667.341
678.9070, 4668.890
679.3892, 4666.759
679.8713, 4663.025
680.3534, 4658.589
680.8355, 4653.806
681.3176, 4649.573
681.7997, 4645.969
682.2819, 4642.963
682.7640, 4641.583
683.2461, 4640.149
683.7282, 4636.105
684.2103, 4629.774
684.6924, 4623.721
685.1746, 4619.520
685.6567, 4617.249
686.1388, 4617.847
686.6209, 4622.774
687.1030, 4625.194
687.5851, 4622.925
688.0673, 4619.724
688.5494, 4616.242
689.0315, 4613.628
689.5136, 4614.778
689.9957, 4622.105
690.4778, 4628.653
690.9600, 4628.952
691.4421, 4626.068
691.9242, 4625.505
692.4063, 4627.315
692.8884, 4626.044
693.3705, 4617.410
693.8527, 4605.928
694.3348, 4605.177
694.8169, 4624.219
695.2990, 4633.524
695.7811, 4623.187
696.2632, 4612.990
696.7454, 4612.140
697.2275, 4616.890
697.7096, 4620.152
698.1917, 4619.640
698.6738, 4618.667
699.1559, 4620.964
699.6381, 4624.472
700.1202, 4623.962
700.6023, 4619.298
701.0844, 4616.099
701.5665, 4617.894
702.0486, 4621.972
702.5308, 4622.239
703.0129, 4616.357
703.4950, 4612.524
703.9771, 4612.372
704.4592, 4612.211
704.9413, 4612.533
705.4235, 4611.087
705.9056, 4604.048
706.3877, 4590.407
706.8698, 4575.241
707.3519, 4561.687
707.8340, 4550.277
708.3162, 4543.037
708.7983, 4540.032
709.2804, 4537.189
709.7625, 4532.877
710.2446, 4527.584
710.7267, 4522.372
711.2089, 4518.064
711.6909, 4509.964
712.1730, 4492.811
712.6552, 4478.139
713.1373, 4470.661
713.6194, 4467.713
714.1015, 4467.595
714.5836, 4468.958
715.0657, 4466.992
715.5479, 4455.234
716.0300, 4438.083
716.5121, 4427.645
716.9942, 4423.955
717.4763, 4421.373
717.9584, 4418.526
718.4406, 4415.122
718.9227, 4409.918
719.4048, 4402.739
719.8869, 4400.550
720.3690, 4410.976
720.8511, 4416.724
721.3333, 4409.524
721.8154, 4397.544
722.2975, 4388.695
722.7796, 4383.831
723.2617, 4379.718
723.7438, 4374.216
724.2260, 4367.980
724.7081, 4361.314
725.1902, 4354.346
725.6723, 4352.164
726.1544, 4357.288
726.6365, 4363.071
727.1187, 4364.337
727.6008, 4361.540
728.0829, 4357.735
728.5650, 4350.914
729.0471, 4346.108
729.5292, 4347.138
730.0114, 4348.075
730.4935, 4343.229
730.9756, 4334.189
731.4577, 4326.057
731.9398, 4321.279
732.4219, 4319.288
732.9041, 4320.796
733.3862, 4325.097
733.8683, 4325.298
734.3504, 4319.970
734.8325, 4314.573
735.3146, 4312.618
735.7968, 4312.343
736.2789, 4309.531
736.7610, 4303.481
737.2431, 4297.548
737.7252, 4291.046
738.2073, 4285.714
738.6895, 4283.333
739.1716, 4282.478
739.6537, 4281.159
740.1358, 4278.684
740.6179, 4274.902
741.1000, 4268.588
741.5822, 4260.888
742.0643, 4256.448
742.5464, 4255.438
743.0285, 4255.073
743.5106, 4254.799
743.9927, 4253.925
744.4749, 4251.224
744.9570, 4246.451
745.4391, 4243.104
745.9212, 4243.390
746.4033, 4242.212
746.8854, 4236.669
747.3676, 4229.903
747.8497, 4224.888
748.3318, 4221.876
748.8139, 4219.521
749.2960, 4216.348
749.7781, 4214.479
750.2603, 4219.801
750.7424, 4230.832
751.2245, 4235.716
751.7066, 4231.834
752.1887, 4223.798
752.6708, 4213.600
753.1530, 4202.575
753.6351, 4196.383
754.1172, 4200.811
754.5993, 4200.796
755.0814, 4191.521
755.5635, 4182.125
756.0457, 4177.946
756.5278, 4177.491
757.0099, 4177.868
757.4920, 4178.161
757.9741, 4176.765
758.4562, 4171.047
758.9384, 4162.764
759.4205, 4155.965
759.9026, 4150.831
760.3847, 4146.313
760.8668, 4141.911
761.3489, 4138.203
761.8311, 4136.120
762.3132, 4135.735
762.7953, 4136.407
763.2774, 4141.416
763.7595, 4143.345
764.2416, 4138.603
764.7238, 4131.571
765.2059, 4125.871
765.6880, 4121.917
766.1701, 4118.729
766.6522, 4115.506
767.1343, 4113.210
767.6165, 4114.515
768.0986, 4117.393
768.5807, 4115.111
769.0628, 4106.775
769.5449, 4100.492
770.0270, 4103.116
770.5092, 4111.356
770.9913, 4112.897
771.4734, 4102.959
771.9555, 4098.137
772.4376, 4106.312
772.9197, 4112.082
773.4019, 4105.820
773.8840, 4093.606
774.3661, 4085.776
774.8482, 4084.841
775.3303, 4084.553
775.8124, 4082.089
776.2946, 4078.478
776.7767, 4074.473
777.2588, 4070.289
777.7409, 4065.909
778.2230, 4061.409
778.7051, 4058.109
779.1873, 4058.025
779.6694, 4060.770
780.1515, 4061.599
780.6336, 4060.406
781.1157, 4057.614
781.5978, 4052.876
782.0800, 4047.024
782.5621, 4039.633
783.0442, 4031.451
783.5263, 4026.241
784.0084, 4025.027
784.4905, 4026.303
784.9727, 4033.944
785.4548, 4040.689
785.9369, 4036.510
786.4190, 4024.223
786.9011, 4015.764
787.3832, 4017.712
787.8654, 4023.662
788.3475, 4023.704
788.8296, 4018.702
789.3117, 4016.076
789.7938, 4016.653
790.2759, 4017.297
790.7581, 4016.706
791.2402, 4015.027
791.7223, 4012.416
792.2044, 4008.702
792.6865, 4004.813
793.1686, 4001.973
793.6508, 3997.519
794.1328, 3985.757
794.6149, 3975.108
795.0970, 3976.705
795.5792, 3989.637
796.0613, 4001.531
796.5434, 4005.666
797.0255, 4004.484
797.5076, 3998.909
797.9897, 3990.553
798.4719, 3984.609
798.9540, 3981.849
799.4361, 3978.448
799.9182, 3971.282
800.4003, 3962.596
800.8824, 3959.343
801.3646, 3964.388
801.8467, 3966.600
802.3288, 3964.902
802.8109, 3961.385
803.2930, 3955.712
803.7751, 3949.447
804.2573, 3944.629
804.7394, 3941.552
805.2215, 3939.088
805.7036, 3935.534
806.1857, 3933.687
806.6678, 3937.724
807.1500, 3944.309
807.6321, 3947.359
808.1142, 3945.827
808.5963, 3943.154
809.0784, 3942.165
809.5605, 3942.206
810.0427, 3942.340
810.5248, 3942.791
811.0069, 3937.510
811.4890, 3922.854
811.9711, 3909.962
812.4532, 3907.197
812.9354, 3911.663
813.4175, 3914.516
813.8996, 3915.765
814.3817, 3915.523
814.8638, 3915.328
815.3459, 3911.995
815.8281, 3899.884
816.3102, 3885.482
816.7923, 3878.298
817.2744, 3880.124
817.7565, 3884.608
818.2386, 3889.279
818.7208, 3892.594
819.2029, 3891.857
819.6850, 3887.819
820.1671, 3882.396
820.6492, 3876.132
821.1313, 3870.957
821.6135, 3868.629
822.0956, 3868.441
822.5777, 3868.090
823.0598, 3868.714
823.5419, 3865.154
824.0240, 3851.774
824.5062, 3841.200
824.9883, 3843.836
825.4704, 3851.985
825.9525, 3853.340
826.4346, 3845.758
826.9167, 3838.668
827.3989, 3835.774
827.8810, 3833.211
828.3631, 3826.396
828.8452, 3819.163
829.3273, 3818.777
829.8094, 3825.686
830.2916, 3832.654
830.7737, 3834.514
831.2558, 3832.156
831.7379, 3824.911
832.2200, 3813.930
832.7021, 3810.348
833.1843, 3816.792
833.6664, 3823.039
834.1485, 3822.190
834.6306, 3816.027
835.1127, 3808.865
835.5948, 3797.968
836.0770, 3793.257
836.5591, 3801.386
837.0412, 3808.073
837.5233, 3809.101
838.0054, 3806.356
838.4875, 3800.510
838.9697, 3792.156
839.4518, 3786.657
839.9339, 3788.794
840.4160, 3791.788
840.8981, 3790.828
841.3802, 3787.679
841.8624, 3785.243
842.3445, 3783.624
842.8266, 3780.415
843.3087, 3773.776
843.7908, 3766.752
844.2729, 3765.980
844.7551, 3770.843
845.2372, 3772.040
845.7193, 3768.528
846.2014, 3764.373
846.6835, 3761.739
847.1656, 3758.897
847.6478, 3752.659
848.1299, 3742.224
848.6120, 3735.002
849.0941, 3731.550
849.5762, 3730.534
850.0583, 3735.669
850.5405, 3739.943
851.0226, 3735.960
851.5047, 3726.068
851.9868, 3719.417
852.4689, 3720.532
852.9510, 3721.779
853.4332, 3716.611
853.9153, 3709.656
854.3974, 3707.157
854.8795, 3708.297
855.3616, 3709.098
855.8438, 3707.952
856.3259, 3705.402
856.8080, 3701.480
857.2901, 3696.786
857.7722, 3694.854
858.2543, 3695.980
858.7365, 3696.312
859.2186, 3694.757
859.7007, 3692.488
860.1828, 3690.378
860.6649, 3688.407
861.1470, 3686.576
861.6292, 3685.253
862.1113, 3683.413
862.5934, 3680.718
863.0755, 3677.850
863.5576, 3675.510
864.0397, 3673.018
864.5219, 3668.587
865.0040, 3662.039
865.4861, 3657.813
865.9682, 3661.600
866.4503, 3665.234
866.9324, 3659.798
867.4146, 3650.417
867.8967, 3645.725
868.3788, 3646.850
868.8609, 3650.358
869.3430, 3654.548
869.8251, 3657.130
870.3073, 3652.128
870.7894, 3640.633
871.2715, 3634.511
871.7536, 3635.194
872.2357, 3634.843
872.7178, 3629.048
873.2000, 3622.476
873.6821, 3622.723
874.1642, 3630.628
874.6463, 3633.034
875.1284, 3625.641
875.6105, 3619.213
876.0927, 3615.535
876.5747, 3613.182
877.0568, 3611.968
877.5389, 3611.271
878.0211, 3609.725
878.5032, 3607.227
878.9853, 3603.349
879.4674, 3596.750
879.9495, 3589.742
880.4316, 3583.892
880.9138, 3579.193
881.3959, 3574.628
881.8780, 3570.292
882.3601, 3569.197
882.8422, 3575.973
883.3243, 3585.043
883.8065, 3584.455
884.2886, 3576.189
884.7707, 3569.737
885.2528, 3566.695
885.7349, 3565.278
886.2170, 3564.601
886.6992, 3564.067
887.1813, 3562.136
887.6634, 3558.302
888.1455, 3556.571
888.6276, 3558.744
889.1097, 3559.395
889.5919, 3555.936
890.0740, 3550.941
890.5561, 3547.306
891.0382, 3544.739
891.5203, 3540.854
892.0024, 3531.793
892.4846, 3526.556
892.9667, 3529.851
893.4488, 3534.882
893.9309, 3538.104
894.4130, 3538.896
894.8951, 3536.554
895.3773, 3530.906
895.8594, 3524.846
896.3415, 3519.314
896.8236, 3515.319
897.3057, 3515.502
897.7878, 3517.810
898.2700, 3517.027
898.7521, 3512.520
899.2342, 3508.104
899.7163, 3506.512
900.1984, 3506.377
900.6805, 3504.680
901.1627, 3501.536
901.6448, 3500.081
902.1269, 3500.884
902.6090, 3500.404
903.0911, 3496.846
903.5732, 3492.045
904.0554, 3488.437
904.5375, 3486.036
905.0196, 3482.667
905.5017, 3476.482
905.9838, 3472.513
906.4659, 3472.653
906.9481, 3473.892
907.4302, 3475.438
907.9123, 3476.678
908.3944, 3476.666
908.8765, 3475.419
909.3586, 3472.194
909.8408, 3463.622
910.3229, 3456.382
910.8050, 3456.305
911.2871, 3458.882
911.7692, 3457.363
912.2513, 3451.858
912.7335, 3448.157
913.2156, 3449.764
913.6977, 3453.546
914.1798, 3458.173
914.6619, 3461.652
915.1440, 3457.809
915.6262, 3448.297
916.1083, 3442.747
916.5904, 3444.928
917.0725, 3450.059
917.5546, 3453.299
918.0367, 3454.432
918.5189, 3451.705
919.0010, 3444.827
919.4831, 3438.558
919.9652, 3433.693
920.4473, 3429.805
920.9294, 3426.823
921.4116, 3424.387
921.8937, 3421.309
922.3758, 3416.326
922.8579, 3415.704
923.3400, 3426.360
923.8221, 3431.531
924.3043, 3421.260
924.7864, 3408.647
925.2685, 3406.101
925.7506, 3411.241
926.2327, 3411.964
926.7148, 3402.658
927.1970, 3395.862
927.6791, 3398.228
928.1612, 3401.631
928.6433, 3400.753
929.1254, 3396.742
929.6075, 3391.007
930.0897, 3384.417
930.5718, 3380.240
931.0539, 3382.950
931.5360, 3386.123
932.0181, 3380.270
932.5002, 3371.234
932.9824, 3371.452
933.4645, 3379.999
933.9466, 3385.711
934.4287, 3383.159
934.9108, 3376.708
935.3929, 3371.184
935.8751, 3366.748
936.3572, 3364.918
936.8393, 3365.544
937.3214, 3364.128
937.8035, 3359.392
938.2856, 3354.026
938.7678, 3350.044
939.2499, 3347.157
939.7320, 3344.498
940.2141, 3341.950
940.6962, 3340.395
941.1783, 3341.158
941.6605, 3339.929
942.1426, 3332.902
942.6247, 3325.532
943.1068, 3324.570
943.5889, 3329.469
944.0710, 3332.233
944.5532, 3332.086
945.0353, 3330.927
945.5174, 3327.231
945.9995, 3324.359
946.4816, 3325.072
946.9637, 3327.269
947.4459, 3327.602
947.9280, 3325.617
948.4101, 3323.928
948.8922, 3322.958
949.3743, 3323.232
949.8564, 3327.237
950.3386, 3331.059
950.8207, 3329.768
951.3028, 3324.375
951.7849, 3318.548
952.2670, 3313.738
952.7491, 3310.058
953.2313, 3308.225
953.7134, 3307.219
954.1955, 3306.154
954.6776, 3304.552
955.1597, 3300.437
955.6418, 3293.965
956.1240, 3288.683
956.6061, 3286.951
957.0882, 3287.212
957.5703, 3287.154
958.0524, 3286.714
958.5345, 3285.244
959.0166, 3282.716
959.4987, 3280.087
959.9808, 3277.479
960.4630, 3276.311
960.9451, 3278.433
961.4272, 3282.511
961.9093, 3282.863
962.3914, 3278.689
962.8735, 3274.010
963.3557, 3268.462
963.8378, 3263.823
964.3199, 3261.857
964.8020, 3259.971
965.2841, 3253.536
965.7662, 3242.653
966.2484, 3238.385
966.7305, 3248.419
967.2126, 3253.806
967.6947, 3250.065
968.1768, 3245.004
968.6589, 3241.441
969.1411, 3239.614
969.6232, 3241.053
970.1053, 3246.117
970.5874, 3246.237
971.0695, 3234.651
971.5516, 3223.739
972.0338, 3217.429
972.5159, 3214.744
972.9980, 3216.704
973.4801, 3221.019
973.9622, 3223.332
974.4443, 3222.354
974.9265, 3219.072
975.4086, 3211.443
975.8907, 3204.338
976.3728, 3202.845
976.8549, 3204.458
977.3370, 3206.002
977.8192, 3206.567
978.3013, 3205.210
978.7834, 3201.308
979.2655, 3197.249
979.7476, 3196.210
980.2297, 3196.618
980.7119, 3195.846
981.1940, 3193.794
981.6761, 3189.390
982.1582, 3182.935
982.6403, 3179.347
983.1224, 3182.610
983.6046, 3187.860
984.0867, 3184.304
984.5688, 3173.752
985.0509, 3170.337
985.5330, 3174.490
986.0151, 3177.346
986.4973, 3176.090
986.9794, 3172.708
987.4615, 3168.613
987.9436, 3164.503
988.4257, 3163.190
988.9078, 3165.175
989.3900, 3166.423
989.8721, 3166.482
990.3542, 3166.813
990.8363, 3168.338
991.3184, 3169.714
991.8005, 3169.576
992.2827, 3167.929
992.7648, 3164.687
993.2469, 3158.758
993.7290, 3153.564
994.2111, 3148.228
994.6932, 3145.200
995.1754, 3147.628
995.6575, 3151.553
996.1396, 3151.129
996.6217, 3146.581
997.1038, 3144.949
997.5859, 3152.831
998.0681, 3154.289
998.5502, 3140.497
999.0323, 3127.226
999.5144, 3123.432
999.9965, 3125.312
1000.479, 3127.564
1000.961, 3129.544
1001.443, 3131.482
1001.925, 3135.452
1002.407, 3136.698
1002.889, 3131.555
1003.371, 3124.785
1003.853, 3118.577
1004.336, 3114.180
1004.818, 3113.989
1005.300, 3118.259
1005.782, 3121.525
1006.264, 3119.652
1006.746, 3117.369
1007.228, 3118.595
1007.710, 3120.606
1008.193, 3119.963
1008.675, 3117.387
1009.157, 3115.377
1009.639, 3114.750
1010.121, 3114.765
1010.603, 3116.263
1011.085, 3116.778
1011.567, 3111.819
1012.049, 3104.748
1012.532, 3101.310
1013.014, 3101.650
1013.496, 3104.179
1013.978, 3108.053
1014.460, 3109.864
1014.942, 3104.382
1015.424, 3095.838
1015.906, 3091.970
1016.388, 3091.615
1016.871, 3092.588
1017.353, 3093.879
1017.835, 3091.674
1018.317, 3084.058
1018.799, 3076.260
1019.281, 3075.862
1019.763, 3080.017
1020.245, 3078.896
1020.728, 3073.347
1021.210, 3068.251
1021.692, 3064.566
1022.174, 3065.000
1022.656, 3071.594
1023.138, 3077.750
1023.620, 3072.189
1024.102, 3057.241
1024.584, 3049.330
1025.067, 3048.606
1025.549, 3047.351
1026.031, 3043.919
1026.513, 3042.867
1026.995, 3047.334
1027.477, 3054.243
1027.959, 3058.635
1028.441, 3060.510
1028.923, 3059.842
1029.406, 3056.286
1029.888, 3051.519
1030.370, 3044.923
1030.852, 3040.650
1031.334, 3042.213
1031.816, 3045.760
1032.298, 3044.037
1032.780, 3036.754
1033.263, 3031.178
1033.745, 3027.492
1034.227, 3025.066
1034.709, 3023.917
1035.191, 3023.945
1035.673, 3025.620
1036.155, 3027.925
1036.637, 3028.772
1037.120, 3027.908
1037.602, 3028.625
1038.084, 3033.374
1038.566, 3034.606
1039.048, 3028.279
1039.530, 3022.310
1040.012, 3022.504
1040.494, 3025.360
1040.976, 3023.960
1041.458, 3017.280
1041.941, 3014.726
1042.423, 3020.779
1042.905, 3024.039
1043.387, 3022.331
1043.869, 3018.304
1044.351, 3011.283
1044.833, 3003.766
1045.315, 2999.845
1045.798, 2999.747
1046.280, 3001.000
1046.762, 3006.321
1047.244, 3008.867
1047.726, 3005.257
1048.208, 3001.110
1048.690, 3000.329
1049.172, 3000.721
1049.655, 2997.952
1050.137, 2991.721
1050.619, 2989.037
1051.101, 2996.263
1051.583, 2999.368
1052.065, 2990.931
1052.547, 2982.476
1053.029, 2981.602
1053.511, 2984.671
1053.994, 2987.055
1054.476, 2988.111
1054.958, 2985.851
1055.440, 2974.235
1055.922, 2967.357
1056.404, 2973.416
1056.886, 2980.175
1057.368, 2979.765
1057.850, 2975.657
1058.333, 2972.973
1058.815, 2972.153
1059.297, 2971.151
1059.779, 2969.041
1060.261, 2967.304
1060.743, 2965.807
1061.225, 2965.476
1061.707, 2967.705
1062.190, 2970.966
1062.672, 2974.274
1063.154, 2976.877
1063.636, 2976.016
1064.118, 2969.398
1064.600, 2962.485
1065.082, 2955.771
1065.564, 2951.066
1066.047, 2950.872
1066.529, 2952.457
1067.011, 2952.763
1067.493, 2951.535
1067.975, 2949.885
1068.457, 2948.609
1068.939, 2945.507
1069.421, 2936.006
1069.903, 2928.463
1070.385, 2931.152
1070.868, 2936.621
1071.350, 2935.311
1071.832, 2928.525
1072.314, 2924.311
1072.796, 2925.652
1073.278, 2926.634
1073.760, 2923.726
1074.242, 2920.736
1074.725, 2919.466
1075.207, 2919.716
1075.689, 2923.380
1076.171, 2927.920
1076.653, 2926.230
1077.135, 2915.733
1077.617, 2906.404
1078.099, 2902.700
1078.582, 2901.487
1079.064, 2902.387
1079.546, 2903.759
1080.028, 2904.003
1080.510, 2903.468
1080.992, 2902.883
1081.474, 2902.445
1081.956, 2903.516
1082.438, 2910.290
1082.921, 2914.125
1083.403, 2907.672
1083.885, 2899.087
1084.367, 2895.093
1084.849, 2894.523
1085.331, 2894.373
1085.813, 2894.072
1086.295, 2894.504
1086.777, 2897.956
1087.260, 2899.214
1087.742, 2893.030
1088.224, 2886.634
1088.706, 2885.375
1089.188, 2887.690
1089.670, 2892.217
1090.152, 2897.752
1090.634, 2900.042
1091.116, 2896.219
1091.599, 2892.239
1092.081, 2892.404
1092.563, 2891.164
1093.045, 2881.786
1093.527, 2871.174
1094.009, 2868.974
1094.491, 2873.630
1094.973, 2875.583
1095.456, 2871.716
1095.938, 2867.403
1096.420, 2864.177
1096.902, 2861.497
1097.384, 2858.849
1097.866, 2856.798
1098.348, 2856.032
1098.830, 2856.321
1099.313, 2857.396
1099.795, 2859.486
1100.277, 2859.807
1100.759, 2855.287
1101.241, 2851.837
1101.723, 2853.925
1102.205, 2855.822
1102.687, 2851.529
1103.169, 2844.525
1103.651, 2842.007
1104.134, 2844.810
1104.616, 2845.919
1105.098, 2841.934
1105.580, 2838.796
1106.062, 2840.563
1106.544, 2840.654
1107.026, 2832.677
1107.508, 2822.448
1107.991, 2817.972
1108.473, 2819.125
1108.955, 2819.800
1109.437, 2817.615
1109.919, 2817.955
1110.401, 2826.131
1110.883, 2831.242
1111.365, 2825.996
1111.848, 2818.245
1112.330, 2815.846
1112.812, 2817.399
1113.294, 2816.804
1113.776, 2812.366
1114.258, 2810.001
1114.740, 2810.433
1115.222, 2812.244
1115.704, 2818.487
1116.187, 2822.475
1116.669, 2816.412
1117.151, 2806.410
1117.633, 2805.667
1118.115, 2815.734
1118.597, 2821.095
1119.079, 2819.818
1119.561, 2817.306
1120.043, 2813.060
1120.526, 2809.395
1121.008, 2807.647
1121.490, 2806.897
1121.972, 2806.110
1122.454, 2805.266
1122.936, 2803.794
1123.418, 2800.472
1123.900, 2800.458
1124.383, 2805.814
1124.865, 2810.025
1125.347, 2811.116
1125.829, 2809.702
1126.311, 2805.925
1126.793, 2800.458
1127.275, 2795.061
1127.757, 2789.460
1128.240, 2785.972
1128.722, 2784.676
1129.204, 2785.451
1129.686, 2788.932
1130.168, 2791.560
1130.650, 2791.024
1131.132, 2788.334
1131.614, 2784.780
1132.096, 2780.639
1132.578, 2778.919
1133.061, 2779.675
1133.543, 2780.902
1134.025, 2782.455
1134.507, 2781.209
1134.989, 2775.425
1135.471, 2771.553
1135.953, 2777.408
1136.435, 2788.028
1136.918, 2789.698
1137.400, 2783.420
1137.882, 2774.020
1138.364, 2762.579
1138.846, 2755.613
1139.328, 2754.723
1139.810, 2756.843
1140.292, 2760.222
1140.775, 2762.616
1141.257, 2758.090
1141.739, 2751.051
1142.221, 2755.206
1142.703, 2766.272
1143.185, 2770.649
1143.667, 2767.362
1144.149, 2763.046
1144.631, 2760.581
1145.114, 2759.047
1145.596, 2758.244
1146.078, 2756.985
1146.560, 2751.397
1147.042, 2745.700
1147.524, 2748.683
1148.006, 2757.004
1148.488, 2761.502
1148.970, 2760.279
1149.453, 2756.782
1149.935, 2751.943
1150.417, 2748.898
1150.899, 2753.509
1151.381, 2757.665
1151.863, 2751.238
1152.345, 2741.246
1152.827, 2737.621
1153.310, 2739.728
1153.792, 2741.920
1154.274, 2742.625
1154.756, 2742.343
1155.238, 2739.412
1155.720, 2738.042
1156.202, 2743.813
1156.684, 2748.411
1157.167, 2742.967
1157.649, 2733.214
1158.131, 2728.589
1158.613, 2729.665
1159.095, 2730.895
1159.577, 2731.551
1160.059, 2731.701
1160.541, 2731.229
1161.023, 2730.425
1161.505, 2728.635
1161.988, 2727.220
1162.470, 2728.279
1162.952, 2730.487
1163.434, 2729.947
1163.916, 2725.865
1164.398, 2723.154
1164.880, 2722.334
1165.362, 2721.727
1165.844, 2720.644
1166.327, 2720.865
1166.809, 2724.885
1167.291, 2727.841
1167.773, 2721.741
1168.255, 2709.451
1168.737, 2710.342
1169.219, 2728.000
1169.701, 2733.990
1170.184, 2725.193
1170.666, 2718.689
1171.148, 2719.847
1171.630, 2721.064
1172.112, 2716.352
1172.594, 2709.958
1173.076, 2710.598
1173.558, 2716.438
1174.041, 2717.202
1174.523, 2713.319
1175.005, 2706.363
1175.487, 2697.416
1175.969, 2692.619
1176.451, 2694.420
1176.933, 2700.108
1177.415, 2708.740
1177.897, 2715.824
1178.380, 2711.052
1178.862, 2701.465
1179.344, 2702.964
1179.826, 2710.748
1180.308, 2710.629
1180.790, 2701.568
1181.272, 2691.991
1181.754, 2685.655
1182.236, 2681.981
1182.719, 2680.759
1183.201, 2681.686
1183.683, 2686.285
1184.165, 2691.371
1184.647, 2693.897
1185.129, 2693.923
1185.611, 2691.357
1186.093, 2686.722
1186.576, 2683.643
1187.058, 2683.972
1187.540, 2684.583
1188.022, 2684.812
1188.504, 2684.651
1188.986, 2684.476
1189.468, 2683.588
1189.950, 2681.236
1190.432, 2677.687
1190.915, 2673.018
1191.397, 2666.384
1191.879, 2664.314
1192.361, 2670.049
1192.843, 2674.264
1193.325, 2675.527
1193.807, 2676.164
1194.289, 2677.819
1194.771, 2678.013
1195.254, 2673.222
1195.736, 2665.440
1196.218, 2662.557
1196.700, 2665.269
1197.182, 2665.983
1197.664, 2664.674
1198.146, 2660.248
1198.628, 2652.206
1199.111, 2646.638
1199.593, 2647.095
1200.075, 2649.831
1200.557, 2650.646
1201.039, 2649.476
1201.521, 2644.276
1202.003, 2637.268
1202.485, 2636.813
1202.968, 2641.649
1203.450, 2645.005
1203.932, 2645.238
1204.414, 2644.511
1204.896, 2644.017
1205.378, 2643.230
1205.860, 2640.515
1206.342, 2638.363
1206.824, 2641.224
1207.307, 2644.902
1207.789, 2643.227
1208.271, 2637.959
1208.753, 2633.850
1209.235, 2631.867
1209.717, 2630.293
1210.199, 2628.632
1210.681, 2627.039
1211.163, 2624.822
1211.646, 2623.645
1212.128, 2625.178
1212.610, 2627.413
1213.092, 2628.760
1213.574, 2629.310
1214.056, 2629.350
1214.538, 2628.801
1215.020, 2628.944
1215.503, 2632.113
1215.985, 2629.968
1216.467, 2618.446
1216.949, 2609.919
1217.431, 2609.934
1217.913, 2612.804
1218.395, 2613.643
1218.877, 2612.732
1219.359, 2610.433
1219.842, 2606.870
1220.324, 2604.027
1220.806, 2601.987
1221.288, 2602.949
1221.770, 2606.742
1222.252, 2606.777
1222.734, 2600.472
1223.216, 2594.622
1223.698, 2595.970
1224.181, 2599.363
1224.663, 2595.646
1225.145, 2590.016
1225.627, 2592.583
1226.109, 2599.269
1226.591, 2600.816
1227.073, 2597.585
1227.555, 2596.064
1228.038, 2598.412
1228.520, 2601.230
1229.002, 2604.512
1229.484, 2605.191
1229.966, 2598.077
1230.448, 2591.794
1230.930, 2595.005
1231.412, 2600.560
1231.895, 2599.459
1232.377, 2592.552
1232.859, 2584.816
1233.341, 2574.281
1233.823, 2572.512
1234.305, 2585.902
1234.787, 2595.014
1235.269, 2596.587
1235.751, 2594.534
1236.234, 2589.681
1236.716, 2584.372
1237.198, 2581.098
1237.680, 2579.501
1238.162, 2578.354
1238.644, 2577.700
1239.126, 2579.122
1239.608, 2582.263
1240.090, 2583.221
1240.573, 2581.345
1241.055, 2577.036
1241.537, 2570.641
1242.019, 2565.805
1242.501, 2566.400
1242.983, 2569.035
1243.465, 2570.563
1243.947, 2570.385
1244.430, 2566.447
1244.912, 2560.895
1245.394, 2556.885
1245.876, 2554.840
1246.358, 2554.100
1246.840, 2554.487
1247.322, 2556.094
1247.804, 2561.492
1248.286, 2564.444
1248.769, 2561.096
1249.251, 2556.906
1249.733, 2554.763
1250.215, 2553.317
1250.697, 2550.737
1251.179, 2547.723
1251.661, 2546.327
1252.143, 2546.687
1252.625, 2547.587
1253.108, 2549.526
1253.590, 2549.299
1254.072, 2545.970
1254.554, 2544.139
1255.036, 2545.752
1255.518, 2548.260
1256.000, 2549.643
1256.482, 2549.399
1256.964, 2545.024
1257.447, 2538.882
1257.929, 2538.968
1258.411, 2542.754
1258.893, 2543.335
1259.375, 2540.669
1259.857, 2537.391
1260.339, 2534.647
1260.821, 2534.052
1261.304, 2537.330
1261.786, 2540.607
1262.268, 2544.109
1262.750, 2543.565
1263.232, 2529.946
1263.714, 2516.617
1264.196, 2518.285
1264.678, 2528.947
1265.161, 2536.291
1265.643, 2539.367
1266.125, 2539.447
1266.607, 2536.038
1267.089, 2530.491
1267.571, 2520.642
1268.053, 2514.683
##END=



