##NAMES=Pyrolusite
##RRUFFID=R040153
##IDEAL CHEMISTRY=Mn^4+^O_2_
##LOCALITY=San Carlos mine, Mapimi, Durango, Mexico
##OWNER=RRUFF
##SOURCE=University of Arizona Mineral Museum
##DESCRIPTION=Gray massive with small crystals in crevices
##STATUS=The identification of this mineral has been confirmed by X-ray diffraction and chemical analysis
##URL=rruff.info/R040153
##MEASURED CHEMISTRY=(Mn_0.97_Zn_0.02_Fe_0.01_)O_2_
199.685, 379.377
200.167, 381.502
200.650, 383.393
201.132, 386.716
201.614, 388.802
202.096, 386.165
202.578, 377.917
203.060, 368.338
203.542, 365.254
204.024, 372.025
204.506, 378.268
204.988, 384.180
205.471, 388.656
205.953, 390.626
206.435, 389.890
206.917, 387.428
207.399, 384.367
207.881, 379.704
208.363, 376.957
208.845, 375.949
209.328, 376.885
209.810, 381.477
210.292, 389.462
210.774, 396.999
211.256, 398.178
211.738, 389.863
212.220, 384.371
212.702, 383.914
213.184, 384.817
213.667, 385.255
214.149, 384.924
214.631, 384.462
215.113, 384.414
215.595, 384.533
216.077, 386.039
216.559, 391.451
217.041, 396.176
217.523, 397.806
218.006, 396.384
218.488, 393.583
218.970, 390.919
219.452, 388.441
219.934, 385.826
220.416, 380.845
220.898, 377.694
221.380, 379.859
221.863, 385.900
222.345, 390.897
222.827, 389.609
223.309, 381.654
223.791, 377.538
224.273, 382.583
224.755, 386.541
225.237, 385.879
225.719, 381.286
226.202, 374.766
226.684, 366.765
227.166, 357.656
227.648, 353.469
228.130, 360.195
228.612, 364.830
229.094, 361.353
229.577, 353.081
230.059, 345.913
230.541, 343.239
231.023, 344.575
231.505, 348.231
231.987, 357.272
232.469, 363.903
232.951, 365.342
233.433, 363.399
233.915, 360.321
234.398, 356.876
234.880, 353.447
235.362, 351.220
235.844, 350.949
236.326, 350.319
236.808, 347.465
237.290, 344.414
237.772, 343.491
238.255, 345.731
238.737, 349.782
239.219, 354.238
239.701, 360.536
240.183, 362.528
240.665, 354.480
241.147, 343.681
241.629, 335.648
242.111, 331.832
242.594, 330.657
243.076, 330.763
243.558, 332.422
244.040, 333.532
244.522, 332.751
245.004, 331.806
245.486, 332.393
245.968, 334.728
246.451, 336.419
246.933, 333.786
247.415, 326.962
247.897, 324.356
248.379, 331.293
248.861, 339.043
249.343, 340.676
249.825, 336.403
250.307, 331.275
250.790, 328.437
251.272, 327.552
251.754, 327.048
252.236, 326.760
252.718, 326.866
253.200, 327.562
253.682, 328.746
254.164, 330.043
254.646, 330.284
255.129, 330.641
255.611, 334.863
256.093, 345.003
256.575, 353.608
257.057, 353.259
257.539, 347.139
258.021, 341.826
258.503, 339.535
258.986, 338.901
259.468, 338.843
259.950, 339.547
260.432, 338.766
260.914, 333.426
261.396, 325.901
261.878, 321.670
262.360, 322.513
262.842, 325.694
263.325, 330.107
263.807, 335.487
264.289, 339.406
264.771, 340.153
265.253, 339.022
265.735, 339.594
266.217, 343.827
266.699, 346.316
267.181, 342.396
267.664, 334.499
268.146, 329.363
268.628, 329.717
269.110, 333.393
269.592, 336.626
270.074, 339.664
270.556, 341.843
271.039, 342.233
271.521, 341.918
272.003, 342.874
272.485, 345.713
272.967, 348.292
273.449, 347.244
273.931, 340.726
274.413, 337.746
274.895, 341.799
275.378, 347.611
275.860, 351.095
276.342, 351.716
276.824, 350.488
277.306, 348.018
277.788, 344.004
278.270, 341.771
278.752, 340.505
279.234, 341.473
279.717, 347.417
280.199, 356.513
280.681, 363.358
281.163, 363.803
281.645, 358.708
282.127, 357.296
282.609, 364.703
283.091, 369.791
283.573, 368.095
284.056, 363.060
284.538, 360.255
285.020, 362.466
285.502, 367.386
285.984, 368.459
286.466, 361.855
286.948, 356.707
287.431, 353.862
287.913, 352.445
288.395, 351.827
288.877, 351.785
289.359, 352.243
289.841, 353.379
290.323, 356.063
290.805, 356.950
291.287, 353.052
291.770, 349.792
292.252, 351.629
292.734, 357.774
293.216, 362.828
293.698, 360.385
294.180, 350.030
294.662, 345.302
295.144, 352.451
295.626, 358.472
296.109, 357.254
296.591, 351.044
297.073, 345.049
297.555, 342.736
298.037, 342.573
298.519, 339.153
299.001, 330.019
299.483, 323.395
299.966, 325.052
300.448, 330.170
300.930, 333.049
301.412, 331.436
301.894, 328.284
302.376, 327.989
302.858, 330.846
303.340, 330.940
303.822, 323.384
304.305, 314.332
304.787, 310.904
305.269, 314.080
305.751, 319.016
306.233, 323.928
306.715, 328.320
307.197, 330.302
307.679, 328.804
308.161, 326.204
308.644, 325.487
309.126, 326.480
309.608, 326.598
310.090, 324.705
310.572, 321.804
311.054, 318.433
311.536, 314.661
312.018, 312.455
312.500, 314.022
312.983, 319.155
313.465, 322.151
313.947, 322.794
314.429, 321.579
314.911, 316.848
315.393, 310.191
315.875, 306.426
316.358, 308.585
316.840, 314.750
317.322, 317.845
317.804, 314.823
318.286, 312.766
318.768, 312.667
319.250, 313.984
319.732, 316.928
320.214, 321.363
320.697, 325.211
321.179, 324.635
321.661, 315.412
322.143, 311.615
322.625, 318.576
323.107, 325.777
323.589, 325.518
324.071, 318.679
324.553, 312.199
325.036, 312.881
325.518, 320.824
326.000, 324.976
326.482, 321.669
326.964, 318.321
327.446, 317.519
327.928, 317.916
328.410, 317.040
328.892, 313.354
329.375, 308.268
329.857, 305.531
330.339, 306.401
330.821, 306.164
331.303, 301.246
331.785, 295.959
332.267, 294.172
332.749, 296.779
333.232, 300.931
333.714, 305.130
334.196, 309.178
334.678, 309.093
335.160, 300.703
335.642, 292.638
336.124, 294.210
336.606, 303.954
337.089, 311.247
337.571, 309.648
338.053, 303.503
338.535, 299.279
339.017, 297.409
339.499, 297.509
339.981, 300.368
340.463, 305.158
340.945, 307.964
341.427, 306.772
341.910, 305.326
342.392, 307.379
342.874, 311.129
343.356, 310.267
343.838, 300.943
344.320, 288.171
344.802, 283.931
345.284, 293.582
345.767, 301.771
346.249, 307.403
346.731, 310.537
347.213, 310.387
347.695, 307.156
348.177, 303.049
348.659, 300.342
349.141, 298.859
349.624, 299.886
350.106, 307.370
350.588, 313.150
351.070, 313.103
351.552, 308.735
352.034, 303.389
352.516, 298.928
352.998, 295.643
353.480, 295.235
353.963, 301.181
354.445, 303.872
354.927, 298.644
355.409, 291.345
355.891, 287.585
356.373, 288.924
356.855, 292.357
357.337, 294.785
357.819, 296.209
358.302, 296.516
358.784, 293.982
359.266, 292.262
359.748, 294.864
360.230, 300.873
360.712, 305.544
361.194, 305.606
361.676, 303.076
362.159, 301.464
362.641, 300.918
363.123, 301.081
363.605, 302.900
364.087, 305.021
364.569, 303.618
365.051, 294.102
365.533, 286.609
366.016, 288.610
366.498, 296.990
366.980, 304.322
367.462, 308.055
367.944, 309.300
368.426, 309.813
368.908, 309.759
369.390, 308.432
369.872, 305.269
370.354, 301.214
370.837, 295.645
371.319, 289.352
371.801, 285.474
372.283, 287.061
372.765, 294.038
373.247, 299.532
373.729, 302.881
374.211, 305.445
374.694, 308.471
375.176, 310.550
375.658, 309.001
376.140, 302.614
376.622, 294.624
377.104, 291.322
377.586, 294.143
378.068, 296.771
378.551, 297.668
379.033, 298.634
379.515, 301.042
379.997, 304.736
380.479, 308.084
380.961, 309.676
381.443, 309.993
381.925, 310.956
382.407, 313.119
382.890, 314.481
383.372, 313.510
383.854, 310.876
384.336, 307.528
384.818, 302.445
385.300, 298.214
385.782, 297.294
386.264, 298.954
386.746, 300.209
387.229, 299.520
387.711, 299.200
388.193, 304.132
388.675, 317.170
389.157, 325.482
389.639, 324.239
390.121, 320.027
390.603, 318.474
391.086, 319.813
391.568, 320.963
392.050, 319.195
392.532, 314.723
393.014, 312.621
393.496, 314.901
393.978, 317.315
394.460, 320.348
394.943, 322.632
395.425, 321.803
395.907, 317.081
396.389, 311.596
396.871, 311.068
397.353, 317.303
397.835, 320.237
398.317, 314.516
398.799, 309.158
399.281, 310.079
399.764, 315.945
400.246, 320.713
400.728, 319.714
401.210, 315.517
401.692, 314.177
402.174, 316.280
402.656, 317.628
403.138, 315.564
403.621, 311.541
404.103, 308.419
404.585, 306.467
405.067, 305.109
405.549, 304.204
406.031, 303.686
406.513, 303.553
406.995, 303.833
407.478, 304.034
407.960, 303.319
408.442, 301.184
408.924, 301.311
409.406, 308.098
409.888, 312.807
410.370, 308.993
410.852, 299.599
411.334, 291.581
411.817, 288.843
412.299, 290.150
412.781, 292.193
413.263, 296.479
413.745, 298.615
414.227, 297.693
414.709, 295.180
415.191, 291.662
415.673, 287.441
416.156, 283.230
416.638, 279.399
417.120, 276.037
417.602, 273.704
418.084, 272.238
418.566, 272.155
419.048, 275.663
419.530, 280.312
420.013, 282.107
420.495, 279.356
420.977, 275.032
421.459, 270.823
421.941, 266.902
422.423, 263.781
422.905, 261.496
423.387, 260.445
423.870, 261.525
424.352, 265.311
424.834, 268.299
425.316, 269.972
425.798, 271.071
426.280, 272.632
426.762, 274.150
427.244, 273.750
427.726, 270.009
428.208, 264.104
428.691, 260.632
429.173, 262.137
429.655, 262.212
430.137, 258.286
430.619, 254.179
431.101, 253.189
431.583, 255.604
432.065, 258.984
432.548, 261.499
433.030, 263.112
433.512, 263.267
433.994, 261.304
434.476, 259.145
434.958, 257.454
435.440, 256.316
435.922, 256.045
436.405, 257.193
436.887, 258.305
437.369, 257.405
437.851, 255.407
438.333, 256.141
438.815, 261.398
439.297, 266.633
439.779, 265.308
440.261, 255.488
440.744, 250.322
441.226, 253.954
441.708, 258.890
442.190, 261.000
442.672, 260.680
443.154, 259.493
443.636, 258.159
444.118, 257.268
444.600, 258.844
445.083, 265.982
445.565, 269.614
446.047, 267.523
446.529, 263.465
447.011, 258.569
447.493, 253.697
447.975, 251.005
448.457, 254.048
448.940, 260.461
449.422, 260.624
449.904, 252.387
450.386, 245.498
450.868, 245.666
451.350, 249.620
451.832, 252.397
452.314, 253.095
452.797, 254.115
453.279, 257.729
453.761, 262.240
454.243, 264.832
454.725, 264.971
455.207, 263.050
455.689, 259.016
456.171, 252.725
456.653, 247.968
457.135, 243.310
457.618, 241.537
458.100, 245.137
458.582, 251.630
459.064, 258.315
459.546, 264.100
460.028, 268.012
460.510, 268.228
460.992, 263.996
461.474, 259.635
461.957, 252.753
462.439, 248.656
462.921, 252.047
463.403, 259.947
463.885, 265.443
464.367, 265.119
464.849, 261.693
465.332, 257.669
465.814, 253.185
466.296, 250.004
466.778, 248.707
467.260, 248.923
467.742, 250.204
468.224, 252.432
468.706, 255.974
469.188, 263.702
469.671, 270.492
470.153, 272.237
470.635, 269.510
471.117, 264.752
471.599, 259.063
472.081, 253.480
472.563, 251.428
473.045, 255.589
473.527, 258.618
474.010, 258.954
474.492, 258.972
474.974, 260.590
475.456, 263.634
475.938, 266.359
476.420, 267.925
476.902, 268.111
477.384, 266.050
477.866, 261.493
478.349, 255.732
478.831, 246.852
479.313, 238.694
479.795, 237.751
480.277, 246.224
480.759, 254.217
481.241, 257.586
481.723, 258.476
482.206, 259.395
482.688, 260.667
483.170, 261.691
483.652, 261.941
484.134, 261.538
484.616, 261.531
485.098, 262.123
485.580, 262.897
486.062, 263.796
486.545, 264.874
487.027, 266.627
487.509, 268.913
487.991, 270.407
488.473, 268.863
488.955, 264.871
489.437, 264.151
489.919, 267.988
490.402, 272.081
490.884, 275.419
491.366, 277.270
491.848, 275.666
492.330, 268.509
492.812, 262.988
493.294, 265.823
493.776, 272.207
494.259, 272.630
494.741, 265.590
495.223, 258.521
495.705, 258.423
496.187, 265.063
496.669, 267.921
497.151, 262.953
497.633, 259.346
498.115, 259.783
498.598, 262.086
499.080, 264.266
499.562, 265.645
500.044, 265.938
500.526, 263.954
501.008, 259.852
501.490, 258.808
501.972, 262.991
502.454, 266.060
502.937, 262.109
503.419, 255.673
503.901, 253.792
504.383, 259.392
504.865, 265.414
505.347, 267.687
505.829, 267.386
506.311, 266.238
506.793, 264.590
507.276, 263.240
507.758, 262.831
508.240, 263.362
508.722, 264.978
509.204, 269.517
509.686, 272.854
510.168, 273.489
510.651, 272.851
511.133, 272.632
511.615, 273.169
512.097, 273.386
512.579, 271.365
513.061, 267.441
513.543, 266.354
514.025, 269.098
514.507, 272.434
514.990, 275.766
515.472, 278.239
515.954, 277.818
516.436, 272.434
516.918, 268.983
517.400, 273.501
517.882, 281.199
518.364, 284.522
518.846, 282.492
519.329, 278.774
519.811, 276.064
520.293, 274.425
520.775, 274.491
521.257, 277.667
521.739, 280.902
522.221, 285.101
522.703, 288.463
523.185, 288.468
523.668, 285.243
524.150, 282.406
524.632, 283.490
525.114, 287.588
525.596, 291.290
526.078, 294.703
526.560, 297.134
527.042, 297.399
527.524, 296.975
528.007, 299.072
528.489, 305.083
528.971, 308.944
529.453, 306.845
529.935, 302.960
530.417, 301.403
530.899, 302.328
531.381, 304.127
531.864, 305.903
532.346, 307.375
532.828, 307.396
533.310, 304.958
533.792, 303.009
534.274, 301.898
534.756, 301.298
535.238, 301.449
535.721, 302.046
536.203, 301.943
536.685, 299.814
537.167, 297.071
537.649, 296.490
538.131, 297.871
538.613, 297.910
539.095, 294.928
539.578, 290.976
540.060, 289.055
540.542, 289.379
541.024, 290.956
541.506, 296.056
541.988, 300.175
542.470, 300.342
542.952, 297.680
543.434, 294.144
543.917, 290.567
544.399, 288.346
544.881, 290.839
545.363, 299.111
545.845, 304.254
546.327, 304.706
546.809, 303.087
547.291, 299.386
547.773, 295.039
548.256, 293.357
548.738, 296.124
549.220, 300.148
549.702, 305.423
550.184, 309.983
550.666, 308.368
551.148, 299.587
551.630, 290.004
552.112, 285.679
552.595, 286.551
553.077, 288.654
553.559, 295.448
554.041, 299.244
554.523, 295.284
555.005, 289.987
555.487, 290.625
555.969, 297.905
556.451, 304.948
556.934, 305.508
557.416, 301.445
557.898, 297.604
558.380, 293.830
558.862, 292.471
559.344, 295.856
559.826, 301.308
560.308, 302.740
560.791, 298.373
561.273, 296.562
561.755, 301.541
562.237, 307.036
562.719, 307.608
563.201, 304.630
563.683, 303.124
564.165, 305.962
564.648, 310.672
565.130, 311.748
565.612, 308.310
566.094, 305.952
566.576, 306.428
567.058, 306.726
567.540, 302.862
568.022, 297.231
568.505, 296.840
568.987, 308.162
569.469, 319.076
569.951, 319.556
570.433, 313.947
570.915, 310.676
571.397, 311.680
571.879, 314.520
572.361, 316.983
572.844, 319.058
573.326, 320.548
573.808, 321.223
574.290, 321.585
574.772, 320.736
575.254, 320.249
575.736, 322.312
576.218, 326.878
576.700, 330.541
577.183, 329.785
577.665, 326.905
578.147, 326.999
578.629, 329.974
579.111, 331.061
579.593, 327.501
580.075, 322.186
580.557, 320.356
581.039, 323.795
581.522, 326.145
582.004, 327.186
582.486, 327.375
582.968, 327.336
583.450, 326.534
583.932, 323.414
584.414, 317.230
584.896, 310.806
585.378, 307.872
585.861, 308.320
586.343, 310.759
586.825, 316.486
587.307, 320.348
587.789, 316.781
588.271, 309.063
588.753, 307.304
589.235, 315.648
589.718, 323.070
590.200, 325.972
590.682, 326.496
591.164, 326.580
591.646, 326.473
592.128, 325.498
592.610, 322.947
593.092, 319.743
593.575, 319.044
594.057, 321.707
594.539, 323.657
595.021, 323.382
595.503, 322.989
595.985, 325.281
596.467, 329.180
596.949, 329.804
597.432, 321.282
597.914, 313.501
598.396, 314.033
598.878, 319.842
599.360, 326.101
599.842, 331.325
600.324, 333.935
600.806, 331.843
601.288, 325.273
601.771, 320.094
602.253, 315.389
602.735, 313.750
603.217, 317.728
603.699, 323.420
604.181, 328.599
604.663, 332.691
605.145, 333.521
605.627, 326.347
606.110, 317.675
606.592, 315.676
607.074, 319.456
607.556, 324.525
608.038, 329.303
608.520, 333.841
609.002, 338.727
609.484, 345.193
609.966, 345.894
610.449, 332.453
610.931, 322.634
611.413, 324.139
611.895, 330.740
612.377, 334.322
612.859, 332.879
613.341, 331.069
613.823, 332.637
614.305, 336.327
614.788, 340.856
615.270, 345.913
615.752, 346.850
616.234, 340.166
616.716, 330.451
617.198, 327.678
617.680, 335.845
618.162, 341.717
618.645, 343.604
619.127, 345.115
619.609, 349.740
620.091, 354.675
620.573, 353.629
621.055, 343.657
621.537, 334.197
622.019, 336.881
622.502, 348.120
622.984, 356.259
623.466, 360.131
623.948, 360.655
624.430, 357.343
624.912, 351.902
625.394, 349.605
625.876, 352.188
626.359, 355.215
626.841, 362.696
627.323, 366.912
627.805, 358.409
628.287, 343.394
628.769, 336.835
629.251, 346.727
629.733, 361.528
630.215, 365.951
630.698, 362.045
631.180, 360.270
631.662, 362.135
632.144, 365.522
632.626, 369.380
633.108, 373.447
633.590, 376.551
634.072, 379.417
634.554, 380.326
635.037, 375.710
635.519, 371.984
636.001, 375.384
636.483, 383.693
636.965, 389.795
637.447, 389.426
637.929, 386.981
638.411, 389.281
638.893, 395.479
639.376, 399.484
639.858, 399.798
640.340, 400.694
640.822, 406.159
641.304, 414.975
641.786, 420.141
642.268, 417.472
642.750, 417.256
643.232, 419.937
643.715, 425.830
644.197, 438.012
644.679, 453.787
645.161, 465.264
645.643, 467.176
646.125, 465.500
646.607, 470.376
647.089, 480.136
647.572, 482.172
648.054, 472.481
648.536, 465.692
649.018, 475.295
649.500, 497.874
649.982, 511.351
650.464, 506.761
650.946, 505.796
651.429, 512.168
651.911, 521.016
652.393, 530.317
652.875, 538.981
653.357, 544.989
653.839, 546.538
654.321, 546.940
654.803, 552.029
655.286, 560.096
655.768, 562.481
656.250, 557.204
656.732, 550.896
657.214, 548.052
657.696, 548.675
658.178, 552.728
658.660, 565.549
659.142, 574.203
659.625, 575.732
660.107, 575.192
660.589, 576.284
661.071, 578.136
661.553, 577.443
662.035, 572.146
662.517, 565.265
662.999, 558.987
663.481, 553.744
663.964, 551.688
664.446, 553.086
664.928, 553.382
665.410, 548.974
665.892, 541.193
666.374, 535.201
666.856, 531.002
667.338, 528.678
667.820, 532.253
668.303, 533.719
668.785, 527.314
669.267, 515.715
669.749, 505.010
670.231, 497.173
670.713, 491.090
671.195, 486.841
671.677, 483.446
672.159, 479.275
672.642, 474.130
673.124, 468.242
673.606, 461.443
674.088, 454.891
674.570, 452.193
675.052, 455.832
675.534, 455.860
676.016, 450.930
676.499, 443.252
676.981, 430.852
677.463, 417.393
677.945, 410.250
678.427, 412.889
678.909, 414.706
679.391, 409.358
679.873, 401.164
680.356, 394.592
680.838, 389.741
681.320, 385.118
681.802, 379.934
682.284, 374.904
682.766, 371.065
683.248, 368.430
683.730, 367.528
684.213, 369.985
684.695, 370.688
685.177, 366.079
685.659, 358.558
686.141, 351.786
686.623, 345.261
687.105, 341.884
687.587, 347.757
688.069, 351.817
688.552, 341.854
689.034, 325.690
689.516, 319.984
689.998, 329.913
690.480, 342.829
690.962, 343.257
691.444, 333.937
691.926, 329.277
692.408, 329.956
692.891, 329.651
693.373, 325.607
693.855, 319.775
694.337, 314.391
694.819, 308.940
695.301, 307.158
695.783, 313.770
696.265, 318.269
696.747, 315.577
697.230, 309.971
697.712, 306.500
698.194, 305.768
698.676, 304.542
699.158, 299.350
699.640, 293.225
700.122, 291.002
700.604, 292.043
701.086, 293.437
701.569, 294.356
702.051, 296.131
702.533, 300.622
703.015, 307.416
703.497, 310.495
703.979, 308.820
704.461, 305.254
704.943, 298.080
705.426, 291.009
705.908, 285.821
706.390, 282.818
706.872, 282.597
707.354, 286.952
707.836, 291.759
708.318, 294.941
708.800, 296.697
709.282, 297.015
709.765, 296.102
710.247, 294.659
710.729, 293.109
711.211, 291.483
711.693, 289.716
712.175, 287.733
712.657, 286.671
713.140, 287.266
713.622, 287.332
714.104, 284.513
714.586, 280.454
715.068, 279.843
715.550, 284.724
716.032, 288.118
716.514, 290.816
716.996, 290.003
717.479, 290.003
717.961, 290.003
718.443, 290.003
718.925, 290.003
719.407, 290.003
719.889, 290.003
720.371, 281.406
720.853, 281.931
721.335, 276.256
721.818, 272.549
722.300, 274.457
722.782, 278.137
723.264, 278.705
723.746, 276.516
724.228, 276.516
724.710, 276.516
725.192, 276.516
725.674, 276.516
726.157, 277.763
726.639, 279.920
727.121, 277.746
727.603, 272.745
728.085, 266.144
728.567, 261.761
729.049, 264.116
729.531, 269.606
730.013, 272.268
730.496, 271.459
730.978, 270.923
731.460, 273.807
731.942, 278.220
732.424, 278.554
732.906, 274.462
733.388, 273.991
733.870, 279.660
734.353, 285.401
734.835, 286.413
735.317, 284.193
735.799, 284.634
736.281, 289.053
736.763, 293.656
737.245, 301.621
737.727, 306.419
738.209, 301.408
738.692, 291.449
739.174, 285.591
739.656, 286.746
740.138, 289.468
740.620, 288.787
741.102, 287.435
741.584, 291.195
742.067, 298.655
742.549, 302.254
743.031, 298.968
743.513, 294.053
743.995, 295.014
744.477, 301.587
744.959, 301.858
745.441, 301.858
745.923, 301.858
746.406, 301.858
746.888, 301.858
747.370, 301.858
747.852, 301.858
748.334, 308.374
748.816, 314.554
749.298, 315.826
749.780, 307.609
750.263, 299.524
750.745, 303.856
751.227, 317.659
751.709, 326.721
752.191, 322.524
752.673, 314.000
753.155, 312.308
753.637, 315.359
754.119, 317.244
754.602, 317.271
755.084, 315.660
755.566, 312.181
756.048, 308.393
756.530, 307.938
757.012, 312.118
757.494, 313.902
757.976, 312.176
758.458, 309.772
758.941, 309.222
759.423, 307.754
759.905, 299.806
760.387, 284.455
760.869, 277.116
761.351, 290.268
761.833, 302.623
762.315, 301.303
762.797, 293.319
763.280, 287.131
763.762, 284.655
764.244, 284.931
764.726, 288.110
765.208, 292.370
765.690, 295.419
766.172, 296.983
766.654, 295.345
767.136, 290.134
767.619, 284.081
768.101, 279.016
768.583, 274.585
769.065, 269.340
769.547, 261.795
770.029, 257.820
770.511, 260.369
770.994, 262.826
771.476, 262.180
771.958, 259.589
772.440, 256.602
772.922, 253.393
773.404, 249.451
773.886, 243.374
774.368, 237.841
774.850, 233.023
775.333, 230.493
775.815, 234.210
776.297, 243.732
776.779, 251.651
777.261, 251.617
777.743, 247.198
778.225, 243.590
778.707, 240.884
779.190, 239.954
779.672, 240.971
780.154, 241.251
780.636, 238.466
781.118, 233.873
781.600, 232.145
782.082, 235.224
782.564, 234.150
783.046, 224.357
783.529, 216.493
784.011, 218.113
784.493, 224.564
784.975, 228.123
785.457, 228.096
785.939, 227.292
786.421, 226.657
786.903, 224.882
787.385, 218.977
787.868, 212.699
788.350, 212.134
788.832, 217.552
789.314, 222.183
789.796, 220.921
790.278, 216.960
790.760, 213.793
791.242, 211.361
791.724, 210.040
792.207, 209.671
792.689, 207.820
793.171, 202.328
793.653, 195.571
794.135, 193.975
794.617, 198.196
795.099, 202.260
795.581, 206.655
796.063, 208.368
796.546, 204.883
797.028, 198.478
797.510, 192.893
797.992, 187.313
798.474, 186.001
798.956, 194.554
799.438, 200.581
799.920, 198.021
800.403, 192.341
800.885, 188.780
801.367, 187.913
801.849, 188.243
802.331, 190.336
802.813, 191.816
803.295, 190.625
803.777, 187.854
804.260, 184.608
804.742, 181.316
805.224, 178.614
805.706, 176.869
806.188, 175.791
806.670, 173.931
807.152, 172.062
807.634, 176.436
808.117, 187.729
808.599, 195.758
809.081, 196.016
809.563, 191.372
810.045, 185.178
810.527, 177.156
811.009, 172.762
811.491, 173.403
811.973, 175.085
812.456, 177.881
812.938, 180.592
813.420, 182.685
813.902, 183.974
814.384, 183.651
814.866, 180.385
815.348, 177.532
815.830, 175.182
816.312, 174.332
816.795, 177.150
817.277, 181.715
817.759, 184.344
818.241, 183.842
818.723, 181.690
819.205, 177.402
819.687, 173.279
820.169, 173.185
820.651, 176.055
821.134, 179.277
821.616, 181.877
822.098, 181.704
822.580, 175.923
823.062, 167.284
823.544, 164.990
824.026, 169.308
824.508, 172.509
824.990, 173.469
825.473, 173.213
825.955, 172.255
826.437, 170.643
826.919, 168.296
827.401, 164.192
827.883, 162.479
828.365, 164.634
828.847, 167.327
829.330, 170.920
829.812, 173.610
830.294, 172.934
830.776, 168.983
831.258, 165.493
831.740, 161.442
832.222, 160.416
832.704, 167.544
833.187, 175.653
833.669, 177.133
834.151, 173.130
834.633, 169.701
835.115, 169.633
835.597, 169.848
836.079, 167.436
836.561, 163.512
837.043, 158.741
837.526, 154.089
838.008, 152.994
838.490, 156.500
838.972, 161.066
839.454, 162.930
839.936, 162.680
840.418, 162.736
840.900, 163.127
841.382, 162.445
841.865, 160.186
842.347, 157.882
842.829, 156.641
843.311, 156.202
843.793, 155.821
844.275, 155.811
844.757, 154.952
845.239, 151.985
845.721, 149.966
846.204, 149.885
846.686, 151.578
847.168, 156.598
847.650, 165.186
848.132, 167.739
848.614, 156.241
849.096, 147.055
849.578, 146.828
850.060, 150.154
850.543, 152.963
851.025, 154.826
851.507, 156.393
851.989, 158.005
852.471, 158.997
852.953, 159.600
853.435, 158.822
853.917, 153.800
854.400, 146.693
854.882, 143.172
855.364, 144.693
855.846, 147.118
856.328, 146.248
856.810, 143.930
857.292, 145.024
857.774, 148.539
858.256, 148.689
858.739, 144.503
859.221, 141.074
859.703, 141.982
860.185, 145.290
860.667, 146.566
861.149, 145.489
861.631, 145.610
862.114, 147.572
862.596, 148.622
863.078, 147.339
863.560, 145.261
864.042, 144.202
864.524, 144.167
865.006, 144.237
865.488, 144.584
865.970, 144.769
866.453, 145.269
866.935, 145.081
867.417, 142.197
867.899, 138.503
868.381, 138.491
868.863, 144.030
869.345, 148.122
869.827, 148.143
870.309, 147.160
870.792, 147.183
871.274, 147.015
871.756, 144.288
872.238, 139.310
872.720, 135.724
873.202, 136.069
873.684, 137.375
874.166, 136.777
874.648, 135.925
875.131, 137.555
875.613, 141.149
876.095, 144.367
876.577, 146.211
877.059, 147.051
877.541, 147.301
878.023, 146.840
878.505, 145.198
878.987, 142.531
879.470, 139.239
879.952, 135.474
880.434, 132.795
880.916, 132.495
881.398, 134.028
881.880, 136.921
882.362, 141.386
882.844, 140.411
883.327, 132.098
883.809, 125.832
884.291, 125.476
884.773, 130.236
885.255, 140.438
885.737, 156.436
886.219, 163.356
886.701, 157.371
887.183, 150.406
887.666, 142.487
888.148, 136.607
888.630, 136.251
889.112, 139.391
889.594, 140.036
890.076, 136.943
890.558, 134.551
891.041, 131.844
891.523, 131.449
892.005, 136.765
892.487, 143.309
892.969, 146.089
893.451, 145.066
893.933, 143.584
894.415, 142.586
894.897, 141.401
895.380, 138.374
895.862, 136.216
896.344, 139.480
896.826, 144.973
897.308, 144.495
897.790, 135.684
898.272, 129.265
898.754, 136.474
899.237, 146.203
899.719, 145.841
900.201, 140.134
900.683, 138.685
901.165, 141.790
901.647, 142.190
902.129, 135.250
902.611, 126.053
903.093, 119.769
903.576, 116.844
904.058, 120.126
904.540, 128.375
905.022, 134.905
905.504, 137.536
905.986, 138.158
906.468, 138.411
906.950, 138.392
907.432, 138.706
907.915, 139.270
908.397, 137.207
908.879, 131.714
909.361, 130.158
909.843, 137.278
910.325, 147.536
910.807, 151.770
911.289, 149.890
911.771, 148.069
912.254, 146.208
912.736, 144.853
913.218, 144.375
913.700, 143.856
914.182, 142.467
914.664, 140.528
915.146, 139.299
915.628, 140.057
916.110, 138.037
916.593, 129.892
917.075, 123.992
917.557, 125.362
918.039, 128.742
918.521, 127.468
919.003, 122.091
919.485, 120.516
919.968, 127.033
920.450, 131.490
920.932, 130.718
921.414, 129.738
921.896, 132.767
922.378, 136.859
922.860, 135.609
923.342, 127.689
923.824, 125.333
924.307, 139.817
924.789, 150.563
925.271, 146.010
925.753, 136.118
926.235, 128.972
926.717, 125.044
927.199, 122.666
927.681, 121.391
928.164, 121.213
928.646, 123.723
929.128, 125.766
929.610, 122.233
930.092, 117.862
930.574, 121.542
931.056, 132.618
931.538, 140.854
932.020, 140.109
932.503, 136.577
932.985, 136.333
933.467, 136.396
933.949, 131.410
934.431, 123.312
934.913, 117.032
935.395, 114.266
935.877, 115.933
936.359, 125.622
936.842, 135.985
937.324, 133.023
937.806, 122.684
938.288, 119.895
938.770, 124.879
939.252, 128.850
939.734, 127.865
940.216, 125.283
940.698, 125.153
941.181, 126.502
941.663, 125.925
942.145, 124.027
942.627, 124.911
943.109, 129.105
943.591, 132.106
944.073, 130.989
944.555, 127.548
945.037, 124.336
945.520, 121.497
946.002, 121.153
946.484, 123.324
946.966, 123.993
947.448, 121.920
947.930, 119.311
948.412, 117.830
948.894, 117.611
949.377, 119.856
949.859, 125.008
950.341, 125.665
950.823, 120.450
951.305, 116.978
951.787, 118.163
952.269, 122.073
952.751, 127.340
953.234, 133.171
953.716, 133.817
954.198, 127.427
954.680, 123.970
955.162, 125.675
955.644, 126.459
956.126, 122.490
956.608, 117.553
957.091, 117.283
957.573, 121.723
958.055, 125.727
958.537, 131.045
959.019, 131.398
959.501, 122.844
959.983, 114.057
960.465, 108.966
960.947, 107.773
961.430, 111.953
961.912, 123.310
962.394, 129.057
962.876, 124.707
963.358, 122.086
963.840, 124.426
964.322, 127.938
964.804, 130.571
965.286, 132.281
965.769, 132.776
966.251, 131.333
966.733, 130.900
967.215, 133.834
967.697, 134.721
968.179, 130.522
968.661, 125.161
969.143, 121.731
969.625, 119.862
970.108, 117.820
970.590, 114.581
971.072, 113.312
971.554, 115.205
972.036, 118.019
972.518, 123.131
973.000, 127.108
973.482, 124.886
973.964, 117.831
974.447, 114.256
974.929, 117.140
975.411, 120.230
975.893, 124.975
976.375, 126.751
976.857, 118.930
977.339, 109.489
977.821, 109.660
978.304, 119.018
978.786, 125.461
979.268, 123.688
979.750, 122.567
980.232, 127.564
980.714, 130.591
981.196, 123.054
981.678, 112.141
982.161, 109.366
982.643, 115.616
983.125, 120.306
983.607, 119.178
984.089, 117.444
984.571, 117.133
985.053, 116.654
985.535, 113.667
986.018, 110.165
986.500, 110.133
986.982, 114.152
987.464, 117.342
987.946, 117.166
988.428, 116.844
988.910, 117.104
989.392, 118.402
989.874, 123.838
990.357, 129.675
990.839, 127.050
991.321, 113.940
991.803, 104.935
992.285, 110.105
992.767, 115.554
993.249, 113.087
993.731, 108.824
994.213, 109.372
994.696, 112.690
995.178, 112.089
995.660, 105.511
996.142, 102.921
996.624, 112.845
997.106, 122.830
997.588, 126.496
998.070, 126.581
998.552, 125.860
999.035, 124.102
999.517, 119.021
999.999, 109.440
1000.481, 102.488
1000.963, 102.026
1001.445, 104.396
1001.927, 109.538
1002.409, 114.817
1002.892, 117.354
1003.374, 117.692
1003.856, 118.173
1004.338, 119.578
1004.820, 120.077
1005.302, 117.724
1005.784, 115.518
1006.266, 115.212
1006.748, 115.985
1007.231, 118.243
1007.713, 120.589
1008.195, 119.050
1008.677, 111.658
1009.159, 105.623
1009.641, 104.033
1010.123, 104.752
1010.605, 108.170
1011.088, 111.991
1011.570, 113.919
1012.052, 114.101
1012.534, 113.385
1013.016, 111.531
1013.498, 111.336
1013.980, 116.647
1014.462, 120.762
1014.944, 118.680
1015.427, 114.414
1015.909, 111.677
1016.391, 110.704
1016.873, 110.647
1017.355, 111.168
1017.837, 113.163
1018.319, 121.104
1018.801, 125.644
1019.284, 117.943
1019.766, 107.573
1020.248, 104.134
1020.730, 106.677
1021.212, 110.000
1021.694, 113.572
1022.176, 115.138
1022.658, 112.433
1023.140, 109.546
1023.623, 108.006
1024.105, 107.412
1024.587, 106.632
1025.069, 106.459
1025.551, 110.067
1026.033, 120.028
1026.515, 125.340
1026.997, 118.285
1027.479, 112.733
1027.962, 117.178
1028.444, 122.730
1028.926, 120.727
1029.408, 113.417
1029.890, 107.571
1030.372, 103.276
1030.854, 103.587
1031.336, 114.829
1031.819, 122.988
1032.301, 121.227
1032.783, 117.009
1033.265, 116.205
1033.747, 117.637
1034.229, 117.753
1034.711, 116.117
1035.193, 114.005
1035.676, 110.662
1036.158, 108.003
1036.640, 106.141
1037.122, 105.393
1037.604, 106.434
1038.086, 108.637
1038.568, 110.937
1039.050, 113.923
1039.532, 114.141
1040.015, 108.233
1040.497, 105.123
1040.979, 109.561
1041.461, 112.958
1041.943, 107.200
1042.425, 112.302
1042.907, 100.417
1043.389, 114.744
1043.871, 122.863
1044.354, 123.086
1044.836, 120.516
1045.318, 113.898
1045.800, 108.471
1046.282, 107.640
1046.764, 109.411
1047.246, 110.568
1047.728, 111.108
1048.211, 111.162
1048.693, 109.661
1049.175, 112.607
1049.657, 123.532
1050.139, 129.793
1050.621, 123.252
1051.103, 112.563
1051.585, 110.116
1052.068, 114.996
1052.550, 118.619
1053.032, 120.914
1053.514, 122.435
1053.996, 123.173
1054.478, 123.917
1054.960, 125.291
1055.442, 125.071
1055.924, 119.861
1056.406, 111.740
1056.889, 109.825
1057.371, 113.766
1057.853, 115.054
1058.335, 113.062
1058.817, 113.293
1059.299, 117.874
1059.781, 122.945
1060.263, 124.755
1060.746, 124.510
1061.228, 125.504
1061.710, 126.947
1062.192, 125.031
1062.674, 119.956
1063.156, 113.460
1063.638, 106.465
1064.120, 103.172
1064.603, 107.656
1065.085, 114.144
1065.567, 112.201
1066.049, 115.683
1066.531, 117.460
1067.013, 115.833
1067.495, 119.026
1067.977, 116.855
1068.459, 114.499
1068.942, 114.998
1069.424, 113.580
1069.906, 115.070
1070.388, 113.605
1070.870, 114.093
1071.352, 115.530
1071.834, 116.206
1072.316, 115.886
1072.798, 114.884
1073.281, 113.256
1073.763, 111.647
1074.245, 109.661
1074.727, 108.777
1075.209, 111.294
1075.691, 114.670
1076.173, 115.768
1076.655, 115.171
1077.138, 115.199
1077.620, 116.473
1078.102, 117.399
1078.584, 116.630
1079.066, 116.321
1079.548, 118.132
1080.030, 120.022
1080.512, 121.063
1080.994, 120.795
1081.477, 117.464
1081.959, 110.956
1082.441, 108.480
1082.923, 115.114
1083.405, 119.840
1083.887, 120.129
1084.369, 119.175
1084.851, 117.639
1085.333, 116.320
1085.816, 116.548
1086.298, 118.021
1086.780, 117.910
1087.262, 114.400
1087.744, 113.736
1088.226, 118.656
1088.708, 120.539
1089.190, 114.940
1089.672, 108.408
1090.155, 106.940
1090.637, 109.067
1091.119, 110.297
1091.601, 110.484
1092.083, 110.891
1092.565, 111.518
1093.047, 112.519
1093.529, 114.045
1094.012, 114.811
1094.494, 113.714
1094.976, 112.492
1095.458, 114.937
1095.940, 119.909
1096.422, 120.473
1096.904, 117.233
1097.386, 114.728
1097.869, 113.608
1098.351, 112.446
1098.833, 110.593
1099.315, 109.905
1099.797, 113.818
1100.279, 118.328
1100.761, 114.274
1101.243, 106.142
1101.725, 103.583
1102.208, 105.990
1102.690, 108.699
1103.172, 110.280
1103.654, 111.729
1104.136, 114.395
1104.618, 115.513
1105.100, 110.564
1105.582, 104.779
1106.064, 103.233
1106.547, 104.822
1107.029, 108.727
1107.511, 113.589
1107.993, 115.153
1108.475, 111.015
1108.957, 107.180
1109.439, 106.170
1109.921, 105.908
1110.404, 105.493
1110.886, 105.244
1111.368, 105.484
1111.850, 106.153
1112.332, 107.177
1112.814, 108.713
1113.296, 109.617
1113.778, 108.089
1114.260, 108.710
1114.743, 115.136
1115.225, 119.228
1115.707, 114.974
1116.189, 108.263
1116.671, 107.321
1117.153, 111.481
1117.635, 114.089
1118.117, 115.162
1118.599, 114.067
1119.082, 110.087
1119.564, 108.070
1120.046, 110.115
1120.528, 111.700
1121.010, 108.260
1121.492, 103.340
1121.974, 107.334
1122.456, 104.470
1122.939, 103.141
1123.421, 106.350
1123.903, 101.851
1124.385, 105.561
1124.867, 109.319
1125.349, 108.717
1125.831, 106.963
1126.313, 107.721
1126.796, 109.504
1127.278, 110.354
1127.760, 110.499
1128.242, 109.174
1128.724, 107.729
1129.206, 110.365
1129.688, 117.693
1130.170, 123.342
1130.652, 123.550
1131.135, 121.716
1131.617, 119.892
1132.099, 116.653
1132.581, 108.100
1133.063, 99.356
1133.545, 97.371
1134.027, 101.621
1134.509, 107.167
1134.991, 115.587
1135.474, 118.686
1135.956, 109.635
1136.438, 103.462
1136.920, 104.994
1137.402, 109.095
1137.884, 114.580
1138.366, 118.530
1138.848, 114.370
1139.331, 102.050
1139.813, 96.787
1140.295, 99.768
1140.777, 103.865
1141.259, 108.742
1141.741, 111.765
1142.223, 111.771
1142.705, 110.247
1143.188, 108.512
1143.670, 106.741
1144.152, 104.770
1144.634, 103.186
1145.116, 105.491
1145.598, 110.479
1146.080, 112.862
1146.562, 111.694
1147.044, 108.905
1147.526, 105.427
1148.009, 102.051
1148.491, 98.338
1148.973, 96.346
1149.455, 100.297
1149.937, 105.756
1150.419, 105.861
1150.901, 103.095
1151.383, 105.925
1151.866, 115.291
1152.348, 118.287
1152.830, 103.215
1153.312, 92.408
1153.794, 96.213
1154.276, 101.153
1154.758, 99.712
1155.240, 96.542
1155.723, 97.166
1156.205, 100.329
1156.687, 101.702
1157.169, 100.811
1157.651, 100.231
1158.133, 99.831
1158.615, 100.367
1159.097, 102.403
1159.579, 103.555
1160.062, 102.183
1160.544, 100.591
1161.026, 101.930
1161.508, 105.490
1161.990, 109.663
1162.472, 113.831
1162.954, 113.885
1163.436, 110.252
1163.918, 106.644
1164.401, 104.142
1164.883, 102.146
1165.365, 100.167
1165.847, 99.167
1166.329, 101.767
1166.811, 104.298
1167.293, 102.199
1167.775, 97.732
1168.258, 92.471
1168.740, 88.140
1169.222, 88.605
1169.704, 94.721
1170.186, 99.627
1170.668, 99.661
1171.150, 100.297
1171.632, 104.931
1172.115, 108.107
1172.597, 105.383
1173.079, 101.225
1173.561, 100.171
1174.043, 101.361
1174.525, 101.896
1175.007, 102.072
1175.489, 99.353
1175.971, 92.797
1176.453, 88.299
1176.936, 86.901
1177.418, 89.109
1177.900, 95.658
1178.382, 101.696
1178.864, 101.420
1179.346, 95.903
1179.828, 83.208
1180.310, 68.922
1180.793, 70.703
1181.275, 84.315
1181.757, 94.788
1182.239, 98.376
1182.721, 96.725
1183.203, 89.442
1183.685, 84.218
1184.167, 87.503
1184.650, 93.419
1185.132, 101.333
1185.614, 106.910
1186.096, 103.479
1186.578, 95.876
1187.060, 94.408
1187.542, 100.090
1188.024, 101.913
1188.506, 96.201
1188.989, 92.216
1189.471, 90.293
1189.953, 90.072
1190.435, 92.079
1190.917, 93.661
1191.399, 91.533
1191.881, 90.625
1192.363, 104.339
1192.845, 128.627
1193.328, 131.027
1193.810, 115.232
1194.292, 104.502
1194.774, 101.450
1195.256, 101.890
1195.738, 104.036
1196.220, 106.402
1196.702, 108.238
1197.185, 108.773
1197.667, 105.597
1198.149, 102.356
1198.631, 104.017
1199.113, 107.066
1199.595, 106.308
1200.077, 102.601
1200.559, 100.023
1201.042, 99.467
1201.524, 98.272
1202.006, 95.143
1202.488, 92.591
1202.970, 89.673
1203.452, 89.641
1203.934, 95.896
1204.416, 101.804
1204.898, 100.234
1205.380, 102.219
1205.863, 93.698
1206.345, 98.048
1206.827, 97.334
1207.309, 92.346
1207.791, 92.588
1208.273, 98.897
1208.755, 105.623
1209.237, 110.185
1209.720, 110.793
1210.202, 104.305
1210.684, 96.671
1211.166, 94.453
1211.648, 94.501
1212.130, 94.042
1212.612, 93.100
1213.094, 91.604
1213.577, 90.020
1214.059, 89.614
1214.541, 90.688
1215.023, 92.547
1215.505, 95.265
1215.987, 98.618
1216.469, 104.452
1216.951, 107.454
1217.433, 104.068
1217.916, 99.464
1218.398, 98.764
1218.880, 100.841
1219.362, 103.452
1219.844, 106.252
1220.326, 103.771
1220.808, 97.168
1221.290, 94.871
1221.772, 97.331
1222.255, 98.702
1222.737, 96.740
1223.219, 94.163
1223.701, 91.959
1224.183, 92.161
1224.665, 99.798
1225.147, 107.232
1225.629, 108.030
1226.112, 104.318
1226.594, 96.491
1227.076, 87.290
1227.558, 83.531
1228.040, 86.411
1228.522, 92.175
1229.004, 103.793
1229.486, 111.275
1229.969, 113.560
1230.451, 111.548
1230.933, 104.331
1231.415, 98.387
1231.897, 99.862
1232.379, 104.133
1232.861, 100.055
1233.343, 105.087
1233.825, 96.055
1234.307, 107.368
1234.790, 109.197
1235.272, 102.405
1235.754, 96.178
1236.236, 93.402
1236.718, 92.886
1237.200, 95.100
1237.682, 96.741
1238.164, 93.248
1238.647, 92.419
1239.129, 102.385
1239.611, 112.930
1240.093, 115.064
1240.575, 111.704
1241.057, 106.602
1241.539, 100.254
1242.021, 101.433
1242.504, 112.086
1242.986, 113.640
1243.468, 104.810
1243.950, 96.614
1244.432, 92.015
1244.914, 90.987
1245.396, 93.670
1245.878, 96.935
1246.360, 95.700
1246.843, 94.699
1247.325, 102.766
1247.807, 112.315
1248.289, 112.720
1248.771, 108.231
1249.253, 107.935
1249.735, 111.359
1250.217, 109.416
1250.699, 97.242
1251.182, 91.469
1251.664, 98.386
1252.146, 102.103
1252.628, 98.197
1253.110, 96.865
1253.592, 103.924
1254.074, 110.962
1254.556, 109.016
1255.039, 102.122
1255.521, 98.755
1256.003, 98.436
1256.485, 101.249
1256.967, 105.188
1257.449, 103.896
1257.931, 98.471
1258.413, 95.140
1258.896, 95.656
1259.378, 97.327
1259.860, 99.704
1260.342, 101.175
1260.824, 100.409
1261.306, 99.459
1261.788, 99.683
1262.270, 99.570
1262.752, 97.185
1263.234, 94.621
1263.717, 95.214
1264.199, 98.675
1264.681, 103.918
1265.163, 110.826
1265.645, 111.650
1266.127, 106.831
1266.609, 103.852
1267.091, 103.979
1267.574, 102.935
1268.056, 98.653
1268.538, 95.844
1269.020, 99.605
1269.502, 104.633
1269.984, 107.965
1270.466, 109.812
1270.948, 109.827
1271.431, 108.852
1271.913, 107.437
1272.395, 105.943
1272.877, 105.225
1273.359, 105.299
1273.841, 105.709
1274.323, 106.472
##END=



