##NAMES=Pyrophanite
##RRUFFID=R070211
##IDEAL CHEMISTRY=Mn^2+^Ti^4+^O_3_
##LOCALITY=Harstigen Mine, Pajsberg, Filipstad, Varmland, Sweden
##OWNER=RRUFF
##SOURCE=Michael Scott
##DESCRIPTION=Red-brown platy crystals with deep red internal hints, associated with barite
##STATUS=The identification of this mineral has been confirmed only by single crystal X-ray diffraction.
##URL=rruff.info/R070211
121.6990, 79.93945
122.1812, 87.17741
122.6633, 94.15748
123.1454, 100.7072
123.6275, 106.9299
124.1096, 112.4678
124.5917, 117.5812
125.0739, 123.3338
125.5560, 130.8386
126.0381, 139.4163
126.5202, 147.7082
127.0023, 154.7693
127.4844, 162.1211
127.9666, 173.0704
128.4487, 187.5719
128.9308, 202.0328
129.4129, 212.4572
129.8950, 219.6803
130.3772, 227.5074
130.8593, 237.8791
131.3414, 249.7406
131.8235, 258.2028
132.3056, 262.2143
132.7877, 267.0397
133.2699, 281.1653
133.7520, 305.1541
134.2341, 327.0014
134.7162, 340.8379
135.1983, 346.7249
135.6804, 353.7750
136.1626, 361.6701
136.6447, 371.0412
137.1268, 384.1762
137.6089, 402.3999
138.0910, 419.3669
138.5731, 431.3817
139.0553, 437.9590
139.5374, 442.4662
140.0195, 444.4349
140.5016, 444.5483
140.9837, 445.1488
141.4658, 445.7493
141.9480, 447.6123
142.4301, 451.6422
142.9122, 458.3163
143.3943, 466.0255
143.8764, 473.9982
144.3585, 482.2314
144.8407, 494.7306
145.3228, 513.4931
145.8049, 534.9336
146.2870, 555.7042
146.7691, 575.8671
147.2512, 594.9199
147.7334, 611.9508
148.2155, 626.2159
148.6976, 642.5495
149.1797, 660.9520
149.6618, 681.4880
150.1439, 704.0350
150.6261, 731.3240
151.1082, 757.9131
151.5903, 781.4667
152.0724, 798.5208
152.5545, 820.1215
153.0366, 848.1409
153.5188, 881.1050
154.0009, 915.9641
154.4830, 957.0115
154.9651, 996.7165
155.4472, 1030.983
155.9293, 1047.122
156.4115, 1075.677
156.8936, 1128.278
157.3757, 1199.540
157.8578, 1271.357
158.3399, 1336.695
158.8221, 1401.858
159.3042, 1471.612
159.7863, 1551.458
160.2684, 1631.712
160.7505, 1711.504
161.2326, 1790.769
161.7148, 1863.223
162.1969, 1936.765
162.6790, 1998.531
163.1611, 2035.380
163.6432, 2051.012
164.1253, 2035.041
164.6075, 1975.634
165.0896, 1872.141
165.5717, 1751.726
166.0538, 1613.275
166.5359, 1470.141
167.0180, 1341.046
167.5002, 1232.144
167.9823, 1139.938
168.4644, 1063.539
168.9465, 1003.725
169.4286, 953.8507
169.9107, 912.6295
170.3929, 878.1425
170.8750, 845.2669
171.3571, 810.7580
171.8392, 777.2221
172.3213, 746.9138
172.8034, 719.8547
173.2856, 697.9226
173.7677, 684.5596
174.2498, 678.3568
174.7319, 674.6672
175.2140, 672.8258
175.6961, 671.2123
176.1783, 666.7668
176.6604, 657.5799
177.1425, 647.9434
177.6246, 643.2990
178.1067, 643.2193
178.5888, 644.6404
179.0710, 644.3074
179.5531, 643.8364
180.0352, 647.2662
180.5173, 657.0942
180.9994, 669.6636
181.4815, 678.8595
181.9637, 684.8334
182.4458, 689.7991
182.9279, 693.1249
183.4100, 696.3757
183.8921, 705.7280
184.3742, 725.1963
184.8564, 750.9341
185.3385, 773.4615
185.8206, 792.7722
186.3027, 811.2993
186.7848, 831.1630
187.2669, 852.3680
187.7491, 875.6074
188.2312, 902.4739
188.7133, 931.5089
189.1954, 957.6525
189.6775, 980.4112
190.1596, 1001.740
190.6418, 1020.244
191.1239, 1036.219
191.6060, 1063.056
192.0881, 1111.091
192.5702, 1177.571
193.0524, 1238.274
193.5345, 1292.207
194.0166, 1342.582
194.4987, 1389.089
194.9808, 1430.766
195.4629, 1483.419
195.9451, 1560.036
196.4272, 1660.909
196.9093, 1747.533
197.3914, 1815.208
197.8735, 1874.139
198.3556, 1945.756
198.8378, 2032.316
199.3199, 2115.624
199.8020, 2191.746
200.2841, 2261.665
200.7662, 2300.862
201.2483, 2308.547
201.7305, 2284.158
202.2126, 2221.535
202.6947, 2115.171
203.1768, 1991.118
203.6589, 1858.152
204.1410, 1714.067
204.6232, 1585.623
205.1053, 1476.863
205.5874, 1384.570
206.0695, 1298.127
206.5516, 1216.826
207.0337, 1143.237
207.5159, 1078.199
207.9980, 1022.490
208.4801, 977.8002
208.9622, 946.7459
209.4443, 926.8832
209.9264, 905.8509
210.4086, 881.9604
210.8907, 860.2197
211.3728, 845.3335
211.8549, 839.0057
212.3370, 833.3134
212.8191, 827.1113
213.3013, 820.5615
213.7834, 814.4415
214.2655, 808.4763
214.7476, 803.3665
215.2297, 799.4418
215.7118, 795.9819
216.1940, 795.8345
216.6761, 800.6508
217.1582, 810.1190
217.6403, 816.4050
218.1224, 817.5280
218.6045, 818.0187
219.0867, 822.2906
219.5688, 831.3214
220.0509, 841.5340
220.5330, 850.3035
221.0151, 857.4922
221.4972, 876.8389
221.9794, 917.9125
222.4615, 960.6522
222.9436, 981.7726
223.4257, 968.1586
223.9078, 960.2056
224.3899, 969.2404
224.8721, 997.2153
225.3542, 1017.377
225.8363, 1025.306
226.3184, 1029.780
226.8005, 1041.585
227.2827, 1063.548
227.7648, 1087.349
228.2469, 1110.743
228.7290, 1133.204
229.2111, 1158.693
229.6932, 1187.849
230.1754, 1219.204
230.6575, 1252.011
231.1396, 1289.196
231.6217, 1322.144
232.1038, 1347.421
232.5859, 1363.159
233.0681, 1382.377
233.5502, 1411.757
234.0323, 1439.783
234.5144, 1448.840
234.9965, 1429.885
235.4786, 1406.974
235.9608, 1386.965
236.4429, 1371.134
236.9250, 1353.163
237.4071, 1331.129
237.8892, 1308.277
238.3713, 1289.746
238.8535, 1276.553
239.3356, 1265.904
239.8177, 1255.843
240.2998, 1243.959
240.7819, 1242.163
241.2640, 1252.329
241.7462, 1271.450
242.2283, 1294.984
242.7104, 1325.080
243.1925, 1355.964
243.6746, 1384.213
244.1567, 1405.807
244.6389, 1439.389
245.1210, 1487.160
245.6031, 1545.411
246.0852, 1607.956
246.5673, 1676.531
247.0494, 1746.384
247.5316, 1814.734
248.0137, 1878.433
248.4958, 1952.059
248.9779, 2037.876
249.4600, 2132.035
249.9421, 2224.360
250.4243, 2310.167
250.9064, 2403.552
251.3885, 2509.963
251.8706, 2631.941
252.3527, 2760.987
252.8348, 2899.242
253.3170, 3042.859
253.7991, 3183.034
254.2812, 3313.681
254.7633, 3449.670
255.2454, 3597.819
255.7275, 3759.776
256.2097, 3923.425
256.6918, 4088.815
257.1739, 4253.999
257.6560, 4418.989
258.1381, 4589.195
258.6202, 4748.714
259.1024, 4893.454
259.5845, 5021.343
260.0666, 5140.864
260.5487, 5265.709
261.0308, 5371.367
261.5129, 5417.831
261.9951, 5400.703
262.4772, 5333.572
262.9593, 5216.557
263.4414, 5040.669
263.9235, 4851.817
264.4056, 4645.747
264.8878, 4428.326
265.3699, 4202.833
265.8520, 3962.986
266.3341, 3727.439
266.8162, 3498.919
267.2983, 3278.391
267.7805, 3070.499
268.2626, 2874.977
268.7447, 2694.433
269.2268, 2534.934
269.7089, 2399.174
270.1910, 2275.311
270.6732, 2156.941
271.1553, 2043.846
271.6374, 1945.794
272.1195, 1866.150
272.6016, 1796.432
273.0837, 1725.386
273.5659, 1651.617
274.0480, 1581.960
274.5301, 1517.776
275.0122, 1459.335
275.4943, 1408.216
275.9764, 1365.181
276.4586, 1328.041
276.9407, 1294.300
277.4228, 1264.650
277.9049, 1236.005
278.3870, 1207.907
278.8691, 1180.300
279.3513, 1151.265
279.8334, 1120.015
280.3155, 1089.363
280.7976, 1063.412
281.2798, 1042.539
281.7619, 1022.686
282.2440, 1000.747
282.7261, 977.8340
283.2082, 964.6545
283.6903, 963.4662
284.1725, 963.7036
284.6546, 949.2166
285.1367, 920.8416
285.6188, 897.5079
286.1009, 888.8312
286.5830, 890.9142
287.0652, 886.0089
287.5473, 873.1610
288.0294, 859.2966
288.5115, 853.7113
288.9936, 855.1817
289.4757, 853.7222
289.9579, 843.9273
290.4400, 829.3090
290.9221, 819.1816
291.4042, 813.6926
291.8863, 810.8619
292.3684, 808.8524
292.8506, 807.8540
293.3327, 808.7261
293.8148, 812.7203
294.2969, 818.1871
294.7790, 823.0477
295.2611, 827.3098
295.7433, 828.4545
296.2254, 821.2022
296.7075, 808.7103
297.1896, 799.9895
297.6717, 797.3463
298.1538, 799.8062
298.6360, 808.9032
299.1181, 823.9846
299.6002, 836.3535
300.0823, 835.9688
300.5644, 828.6203
301.0465, 825.4864
301.5287, 831.0947
302.0108, 840.0759
302.4929, 847.8498
302.9750, 854.2590
303.4571, 857.9673
303.9392, 855.3048
304.4214, 850.2754
304.9035, 848.0283
305.3856, 849.4374
305.8677, 854.6129
306.3498, 866.2302
306.8319, 882.4271
307.3141, 896.8929
307.7962, 904.1948
308.2783, 908.5599
308.7604, 913.8041
309.2425, 919.7980
309.7246, 928.5073
310.2068, 943.0859
310.6889, 961.6450
311.1710, 979.4226
311.6531, 991.5133
312.1352, 1003.559
312.6173, 1019.859
313.0995, 1041.807
313.5816, 1065.400
314.0637, 1092.184
314.5458, 1119.222
315.0279, 1141.237
315.5100, 1147.481
315.9922, 1154.743
316.4743, 1172.384
316.9564, 1203.063
317.4385, 1237.578
317.9206, 1275.078
318.4027, 1314.104
318.8849, 1352.613
319.3670, 1393.751
319.8491, 1431.031
320.3312, 1458.915
320.8133, 1474.266
321.2954, 1497.900
321.7776, 1537.685
322.2597, 1586.378
322.7418, 1636.262
323.2239, 1690.166
323.7060, 1741.235
324.1881, 1785.387
324.6703, 1821.501
325.1524, 1864.261
325.6345, 1920.502
326.1166, 1980.201
326.5987, 2035.789
327.0808, 2083.148
327.5630, 2131.146
328.0451, 2181.654
328.5272, 2234.448
329.0093, 2285.473
329.4914, 2339.431
329.9735, 2386.248
330.4557, 2418.508
330.9378, 2429.225
331.4199, 2437.317
331.9020, 2442.961
332.3841, 2446.939
332.8662, 2455.252
333.3484, 2477.980
333.8305, 2489.628
334.3126, 2474.010
334.7947, 2422.661
335.2768, 2370.187
335.7589, 2316.872
336.2411, 2264.245
336.7232, 2214.892
337.2053, 2169.743
337.6874, 2126.179
338.1695, 2081.743
338.6516, 2036.183
339.1338, 1994.210
339.6159, 1954.527
340.0980, 1921.237
340.5801, 1903.777
341.0622, 1903.176
341.5443, 1907.317
342.0265, 1908.281
342.5086, 1907.847
342.9907, 1925.451
343.4728, 1963.441
343.9549, 2009.704
344.4370, 2047.141
344.9192, 2077.082
345.4013, 2114.452
345.8834, 2163.603
346.3655, 2223.680
346.8476, 2291.832
347.3297, 2367.828
347.8119, 2449.513
348.2940, 2534.467
348.7761, 2623.151
349.2582, 2714.149
349.7403, 2805.766
350.2225, 2903.223
350.7046, 3014.957
351.1867, 3141.084
351.6688, 3274.807
352.1509, 3416.112
352.6331, 3560.949
353.1152, 3703.148
353.5973, 3840.711
354.0794, 3976.504
354.5615, 4117.730
355.0436, 4260.289
355.5258, 4391.701
356.0079, 4510.380
356.4900, 4611.989
356.9721, 4695.733
357.4542, 4765.771
357.9363, 4803.411
358.4185, 4803.961
358.9006, 4764.409
359.3827, 4679.542
359.8648, 4535.840
360.3469, 4355.395
360.8290, 4142.174
361.3112, 3891.715
361.7933, 3638.960
362.2754, 3383.459
362.7575, 3133.717
363.2396, 2897.999
363.7217, 2680.876
364.2039, 2478.481
364.6860, 2289.366
365.1681, 2112.767
365.6502, 1954.017
366.1323, 1811.427
366.6144, 1686.817
367.0966, 1581.261
367.5787, 1504.284
368.0608, 1436.097
368.5429, 1378.964
369.0250, 1330.577
369.5071, 1280.451
369.9893, 1226.747
370.4714, 1173.680
370.9535, 1121.887
371.4356, 1066.119
371.9177, 1025.849
372.3998, 1007.872
372.8820, 1002.117
373.3641, 985.2893
373.8462, 952.1876
374.3283, 921.6808
374.8104, 902.9845
375.2925, 897.2911
375.7747, 887.3677
376.2568, 872.3901
376.7389, 854.6580
377.2210, 835.7273
377.7031, 815.1779
378.1852, 799.8023
378.6674, 793.4261
379.1495, 793.7559
379.6316, 790.5212
380.1137, 783.4677
380.5958, 775.3967
381.0779, 768.4434
381.5601, 762.5566
382.0422, 757.9225
382.5243, 754.3536
383.0064, 752.1880
383.4885, 753.4308
383.9706, 757.4633
384.4528, 759.6461
384.9349, 752.8002
385.4170, 743.0669
385.8991, 741.8176
386.3812, 752.9967
386.8633, 765.3685
387.3455, 767.4188
387.8276, 762.5885
388.3097, 758.7666
388.7918, 758.9498
389.2739, 762.4027
389.7560, 769.5364
390.2382, 780.7073
390.7203, 791.5760
391.2024, 801.0456
391.6845, 808.4792
392.1666, 813.2397
392.6487, 812.9626
393.1309, 811.9022
393.6130, 809.5856
394.0951, 806.6138
394.5772, 809.3829
395.0593, 826.8832
395.5414, 845.9852
396.0236, 858.3105
396.5057, 858.0271
396.9878, 856.5010
397.4699, 853.7345
397.9520, 850.3025
398.4341, 847.9306
398.9163, 844.4699
399.3984, 844.3373
399.8805, 850.0085
400.3626, 864.7239
400.8447, 875.4025
401.3268, 879.9484
401.8090, 881.9929
402.2911, 887.4163
402.7732, 898.6617
403.2553, 906.5976
403.7374, 907.5328
404.2195, 902.0153
404.7017, 900.2525
405.1838, 902.9738
405.6659, 907.5136
406.1480, 911.4124
406.6301, 914.6609
407.1122, 919.1891
407.5944, 926.2037
408.0765, 933.8238
408.5586, 936.9763
409.0407, 935.7509
409.5228, 933.7141
410.0049, 932.8894
410.4871, 933.0765
410.9692, 933.5517
411.4513, 934.0898
411.9334, 935.5619
412.4155, 939.2762
412.8976, 944.8340
413.3798, 950.8887
413.8619, 959.7736
414.3440, 967.2559
414.8261, 967.5320
415.3082, 960.5345
415.7903, 953.7263
416.2725, 951.2029
416.7546, 951.8248
417.2367, 954.3355
417.7188, 959.4238
418.2009, 965.0924
418.6830, 972.1528
419.1652, 979.5197
419.6473, 982.9282
420.1294, 974.3677
420.6115, 966.3721
421.0937, 966.8600
421.5758, 983.5217
422.0579, 994.2563
422.5400, 992.4110
423.0221, 983.7588
423.5042, 977.6505
423.9864, 973.5120
424.4685, 973.0175
424.9506, 977.6727
425.4327, 987.9474
425.9148, 996.5633
426.3969, 1003.067
426.8791, 1008.428
427.3612, 1013.062
427.8433, 1016.245
428.3254, 1021.112
428.8075, 1028.839
429.2896, 1038.251
429.7718, 1044.574
430.2539, 1047.079
430.7360, 1050.401
431.2181, 1058.750
431.7002, 1071.532
432.1823, 1079.121
432.6645, 1079.946
433.1466, 1079.252
433.6287, 1084.385
434.1108, 1094.445
434.5929, 1105.133
435.0750, 1114.751
435.5572, 1123.774
436.0393, 1131.969
436.5214, 1139.488
437.0035, 1149.620
437.4856, 1166.590
437.9677, 1187.179
438.4499, 1206.871
438.9320, 1224.351
439.4141, 1240.957
439.8962, 1257.939
440.3783, 1274.741
440.8604, 1290.436
441.3426, 1299.162
441.8247, 1310.569
442.3068, 1330.911
442.7889, 1362.375
443.2710, 1395.488
443.7531, 1428.786
444.2353, 1461.961
444.7174, 1495.260
445.1995, 1528.479
445.6816, 1561.558
446.1637, 1591.771
446.6458, 1619.864
447.1280, 1657.954
447.6101, 1712.095
448.0922, 1769.782
448.5743, 1823.589
449.0564, 1872.171
449.5385, 1921.318
450.0207, 1969.326
450.5028, 2019.443
450.9849, 2079.002
451.4670, 2149.220
451.9491, 2219.877
452.4312, 2286.389
452.9134, 2349.489
453.3955, 2416.621
453.8776, 2487.430
454.3597, 2562.885
454.8418, 2645.817
455.3239, 2734.596
455.8061, 2818.683
456.2882, 2895.599
456.7703, 2968.676
457.2524, 3044.829
457.7345, 3122.050
458.2166, 3193.942
458.6988, 3249.562
459.1809, 3300.742
459.6630, 3362.639
460.1451, 3439.849
460.6272, 3509.579
461.1093, 3554.818
461.5915, 3584.786
462.0736, 3609.916
462.5557, 3642.607
463.0378, 3662.394
463.5199, 3661.638
464.0020, 3640.992
464.4842, 3605.715
464.9663, 3549.347
465.4484, 3484.299
465.9305, 3417.446
466.4126, 3356.195
466.8947, 3278.901
467.3769, 3178.449
467.8590, 3065.501
468.3411, 2955.008
468.8232, 2846.006
469.3053, 2742.647
469.7874, 2647.008
470.2696, 2558.502
470.7517, 2465.797
471.2338, 2368.171
471.7159, 2269.384
472.1980, 2170.323
472.6801, 2070.935
473.1623, 1986.080
473.6444, 1919.367
474.1265, 1863.662
474.6086, 1810.140
475.0907, 1758.098
475.5728, 1702.980
476.0550, 1632.553
476.5371, 1560.700
477.0192, 1514.619
477.5013, 1495.229
477.9834, 1479.784
478.4655, 1448.213
478.9477, 1410.728
479.4298, 1381.676
479.9119, 1374.177
480.3940, 1364.390
480.8761, 1338.096
481.3582, 1299.550
481.8404, 1261.202
482.3225, 1216.598
482.8046, 1181.817
483.2867, 1167.680
483.7688, 1184.032
484.2509, 1189.943
484.7331, 1174.110
485.2152, 1150.351
485.6973, 1130.950
486.1794, 1117.772
486.6615, 1105.753
487.1436, 1094.112
487.6258, 1083.019
488.1079, 1074.042
488.5900, 1068.802
489.0721, 1061.300
489.5542, 1045.800
490.0363, 1022.102
490.5185, 1007.054
491.0006, 1002.498
491.4827, 1002.315
491.9648, 999.5073
492.4470, 994.3887
492.9291, 988.6746
493.4112, 983.1899
493.8933, 977.3365
494.3754, 969.6364
494.8575, 960.4185
495.3397, 952.2167
495.8218, 946.8971
496.3039, 943.2454
496.7860, 940.5743
497.2681, 939.4443
497.7502, 936.4540
498.2324, 929.0863
498.7145, 918.9643
499.1966, 908.1473
499.6787, 895.7421
500.1608, 884.3395
500.6429, 873.7551
501.1251, 864.2225
501.6072, 859.0189
502.0893, 861.9492
502.5714, 866.0008
503.0535, 868.0692
503.5356, 867.9536
504.0178, 866.1392
504.4999, 861.6870
504.9820, 856.4055
505.4641, 853.3234
505.9462, 853.0408
506.4283, 851.7717
506.9105, 847.8235
507.3926, 842.2113
507.8747, 838.9865
508.3568, 838.2056
508.8389, 838.7015
509.3210, 840.2147
509.8032, 842.3254
510.2853, 843.7999
510.7674, 844.3684
511.2495, 844.7971
511.7316, 847.0430
512.2137, 849.6724
512.6959, 849.7619
513.1780, 842.4024
513.6601, 835.1810
514.1422, 833.7937
514.6243, 837.4901
515.1064, 840.8060
515.5886, 841.6230
516.0707, 841.3882
516.5528, 840.8213
517.0349, 839.4008
517.5170, 838.9228
517.9991, 839.5269
518.4813, 841.1819
518.9634, 844.0353
519.4455, 849.2231
519.9276, 853.6573
520.4097, 856.6688
520.8918, 858.3669
521.3740, 859.9515
521.8561, 861.6956
522.3382, 862.4218
522.8203, 860.0509
523.3024, 854.9788
523.7845, 854.1402
524.2667, 858.4446
524.7488, 865.0343
525.2309, 871.9781
525.7130, 878.6579
526.1951, 882.6938
526.6772, 881.9006
527.1594, 879.4345
527.6415, 878.4218
528.1236, 878.8044
528.6057, 880.3351
529.0878, 883.3853
529.5699, 887.1934
530.0521, 891.7155
530.5342, 897.6383
531.0163, 901.2755
531.4984, 897.6569
531.9805, 892.8129
532.4626, 893.1316
532.9448, 905.6918
533.4269, 915.9919
533.9090, 921.6335
534.3911, 923.7557
534.8732, 926.4079
535.3553, 929.3351
535.8375, 933.4030
536.3196, 939.8589
536.8017, 949.0869
537.2838, 953.9046
537.7659, 953.6279
538.2480, 951.3334
538.7302, 948.1677
539.2123, 944.9587
539.6944, 948.9258
540.1765, 964.9680
540.6586, 982.7204
541.1407, 984.9456
541.6229, 975.8245
542.1050, 970.4375
542.5871, 979.1951
543.0692, 993.7904
543.5513, 1008.504
544.0334, 1022.831
544.5156, 1033.794
544.9977, 1039.764
545.4798, 1041.919
545.9619, 1040.751
546.4440, 1031.318
546.9261, 1026.081
547.4083, 1028.827
547.8904, 1036.472
548.3725, 1043.449
548.8546, 1049.562
549.3367, 1055.298
549.8188, 1059.987
550.3010, 1063.998
550.7831, 1072.842
551.2652, 1088.395
551.7473, 1102.564
552.2294, 1107.603
552.7115, 1104.725
553.1937, 1105.831
553.6758, 1112.083
554.1579, 1121.416
554.6400, 1133.811
555.1221, 1147.520
555.6042, 1156.993
556.0864, 1155.525
556.5685, 1153.924
557.0506, 1164.140
557.5327, 1183.506
558.0148, 1202.002
558.4969, 1214.621
558.9791, 1225.008
559.4612, 1235.969
559.9433, 1248.729
560.4254, 1257.011
560.9075, 1250.988
561.3896, 1244.947
561.8718, 1251.987
562.3539, 1285.684
562.8360, 1308.677
563.3181, 1312.467
563.8002, 1306.454
564.2823, 1314.354
564.7645, 1338.765
565.2466, 1365.155
565.7287, 1387.541
566.2108, 1407.067
566.6929, 1429.849
567.1750, 1455.887
567.6572, 1480.974
568.1393, 1499.628
568.6214, 1514.732
569.1035, 1531.432
569.5856, 1550.894
570.0677, 1571.176
570.5499, 1591.859
571.0320, 1612.276
571.5141, 1631.519
571.9962, 1642.565
572.4783, 1659.018
572.9604, 1690.370
573.4426, 1733.206
573.9247, 1770.659
574.4068, 1794.584
574.8889, 1817.245
575.3710, 1843.282
575.8531, 1873.243
576.3353, 1902.331
576.8174, 1931.293
577.2995, 1957.856
577.7816, 1977.771
578.2637, 1989.639
578.7458, 2009.471
579.2280, 2040.521
579.7101, 2078.795
580.1922, 2120.128
580.6743, 2163.509
581.1564, 2203.224
581.6385, 2234.874
582.1207, 2262.378
582.6028, 2286.762
583.0849, 2309.099
583.5670, 2339.344
584.0491, 2389.238
584.5313, 2445.589
585.0134, 2499.576
585.4955, 2551.353
585.9776, 2595.351
586.4597, 2621.931
586.9418, 2643.180
587.4240, 2672.815
587.9061, 2720.650
588.3882, 2762.313
588.8703, 2793.198
589.3524, 2816.795
589.8345, 2843.522
590.3167, 2874.294
590.7988, 2904.927
591.2809, 2933.121
591.7630, 2959.367
592.2451, 2985.485
592.7272, 3011.572
593.2094, 3035.172
593.6915, 3051.523
594.1736, 3064.487
594.6557, 3083.656
595.1378, 3112.780
595.6199, 3137.023
596.1021, 3137.638
596.5842, 3128.235
597.0663, 3128.231
597.5485, 3160.624
598.0306, 3185.979
598.5127, 3190.172
598.9948, 3176.449
599.4769, 3159.229
599.9590, 3129.496
600.4412, 3108.362
600.9233, 3105.212
601.4054, 3121.485
601.8875, 3134.177
602.3696, 3145.583
602.8517, 3147.441
603.3339, 3127.074
603.8160, 3086.596
604.2981, 3055.260
604.7802, 3036.541
605.2623, 3027.711
605.7444, 3030.765
606.2266, 3041.497
606.7087, 3048.547
607.1908, 3047.481
607.6729, 3041.557
608.1550, 3030.492
608.6371, 3016.234
609.1193, 3004.724
609.6014, 3001.487
610.0835, 2998.952
610.5656, 2993.487
611.0477, 2984.435
611.5298, 2975.761
612.0120, 2968.285
612.4941, 2960.634
612.9762, 2950.446
613.4583, 2933.968
613.9404, 2930.611
614.4225, 2946.264
614.9047, 2966.247
615.3868, 2966.587
615.8689, 2949.037
616.3510, 2937.393
616.8331, 2941.804
617.3152, 2951.476
617.7974, 2948.732
618.2795, 2936.375
618.7616, 2925.206
619.2437, 2922.482
619.7258, 2922.268
620.2079, 2919.250
620.6901, 2913.235
621.1722, 2910.480
621.6543, 2914.061
622.1364, 2920.996
622.6185, 2929.858
623.1006, 2943.171
623.5828, 2952.393
624.0649, 2955.241
624.5470, 2956.093
625.0291, 2961.465
625.5112, 2973.326
625.9933, 2977.750
626.4755, 2968.593
626.9576, 2955.534
627.4397, 2962.902
627.9218, 2987.702
628.4039, 3007.084
628.8860, 2997.932
629.3682, 2983.131
629.8503, 3000.003
630.3324, 3044.173
630.8145, 3081.807
631.2966, 3086.932
631.7787, 3082.433
632.2609, 3084.214
632.7430, 3095.904
633.2251, 3107.693
633.7072, 3112.297
634.1893, 3119.574
634.6714, 3138.204
635.1536, 3173.480
635.6357, 3209.634
636.1178, 3248.516
636.5999, 3284.220
637.0820, 3301.309
637.5641, 3298.680
638.0463, 3302.946
638.5284, 3324.376
639.0105, 3356.606
639.4926, 3391.422
639.9747, 3427.669
640.4568, 3457.746
640.9390, 3466.484
641.4211, 3474.265
641.9032, 3502.281
642.3853, 3551.846
642.8674, 3603.009
643.3495, 3653.764
643.8317, 3699.223
644.3138, 3735.410
644.7959, 3750.280
645.2780, 3777.906
645.7601, 3820.706
646.2422, 3873.919
646.7244, 3935.440
647.2065, 4007.725
647.6886, 4071.127
648.1707, 4116.986
648.6528, 4158.627
649.1349, 4228.324
649.6171, 4321.929
650.0992, 4411.971
650.5813, 4479.045
651.0634, 4539.654
651.5455, 4611.384
652.0276, 4694.409
652.5098, 4786.301
652.9919, 4892.659
653.4740, 5002.304
653.9561, 5107.250
654.4382, 5205.081
654.9203, 5308.147
655.4025, 5407.370
655.8846, 5521.061
656.3667, 5665.294
656.8488, 5858.556
657.3309, 6023.775
657.8130, 6147.920
658.2952, 6264.338
658.7773, 6422.306
659.2594, 6619.971
659.7415, 6818.770
660.2236, 7007.522
660.7057, 7195.832
661.1879, 7390.545
661.6700, 7593.886
662.1521, 7810.044
662.6342, 8035.944
663.1163, 8279.732
663.5984, 8552.033
664.0806, 8850.032
664.5627, 9151.932
665.0448, 9447.490
665.5269, 9746.618
666.0090, 10050.10
666.4911, 10352.29
666.9733, 10682.17
667.4554, 11044.60
667.9375, 11425.13
668.4196, 11814.53
668.9017, 12214.25
669.3839, 12617.23
669.8660, 13020.88
670.3481, 13429.76
670.8302, 13839.25
671.3123, 14257.23
671.7944, 14704.83
672.2766, 15200.33
672.7587, 15700.40
673.2408, 16178.29
673.7229, 16641.76
674.2050, 17115.51
674.6871, 17633.25
675.1693, 18132.16
675.6514, 18596.91
676.1335, 19033.40
676.6156, 19461.66
677.0977, 19885.98
677.5798, 20290.54
678.0620, 20666.21
678.5441, 21015.38
679.0262, 21328.01
679.5083, 21606.19
679.9904, 21855.67
680.4725, 22096.73
680.9547, 22307.97
681.4368, 22452.66
681.9189, 22523.53
682.4010, 22543.60
682.8831, 22530.57
683.3652, 22472.46
683.8474, 22355.88
684.3295, 22158.71
684.8116, 21933.20
685.2937, 21694.72
685.7758, 21427.53
686.2579, 21107.80
686.7401, 20716.48
687.2222, 20329.07
687.7043, 19967.10
688.1864, 19612.70
688.6685, 19219.95
689.1506, 18790.64
689.6328, 18355.16
690.1149, 17921.59
690.5970, 17488.41
691.0791, 17040.40
691.5612, 16582.40
692.0433, 16152.96
692.5255, 15782.74
693.0076, 15428.80
693.4897, 15055.74
693.9718, 14656.62
694.4539, 14295.08
694.9360, 14014.17
695.4182, 13741.63
695.9003, 13431.66
696.3824, 13074.61
696.8645, 12737.34
697.3466, 12418.17
697.8287, 12123.16
698.3109, 11865.06
698.7930, 11638.98
699.2751, 11420.07
699.7572, 11208.07
700.2393, 10995.58
700.7214, 10769.75
701.2036, 10539.99
701.6857, 10321.71
702.1678, 10108.76
702.6499, 9921.786
703.1320, 9802.435
703.6141, 9714.065
704.0963, 9560.287
704.5784, 9277.520
705.0605, 9019.133
705.5426, 8823.580
706.0247, 8676.159
706.5068, 8514.278
706.9890, 8334.442
707.4711, 8162.542
707.9532, 8016.290
708.4353, 7887.505
708.9174, 7762.795
709.3995, 7641.029
709.8817, 7515.441
710.3638, 7373.563
710.8459, 7231.928
711.3280, 7110.889
711.8101, 7014.310
712.2922, 6911.586
712.7744, 6783.814
713.2565, 6653.729
713.7386, 6534.992
714.2207, 6429.566
714.7028, 6330.828
715.1849, 6239.687
715.6671, 6151.980
716.1492, 6058.768
716.6313, 5961.630
717.1134, 5870.487
717.5955, 5788.959
718.0776, 5710.444
718.5598, 5627.274
719.0419, 5542.287
719.5240, 5461.241
720.0061, 5384.777
720.4882, 5313.446
720.9703, 5247.348
721.4525, 5186.025
721.9346, 5128.149
722.4167, 5075.687
722.8988, 5023.032
723.3809, 4970.289
723.8630, 4916.435
724.3452, 4854.720
724.8273, 4783.370
725.3094, 4718.713
725.7915, 4676.211
726.2736, 4643.718
726.7557, 4582.103
727.2379, 4495.992
727.7200, 4421.829
728.2021, 4398.165
728.6842, 4385.997
729.1663, 4351.784
729.6484, 4292.264
730.1306, 4232.783
730.6127, 4178.833
731.0948, 4128.420
731.5769, 4080.131
732.0590, 4033.566
732.5411, 3989.212
733.0233, 3947.538
733.5054, 3907.026
733.9875, 3864.948
734.4696, 3821.983
734.9517, 3785.411
735.4338, 3756.450
735.9160, 3730.063
736.3981, 3706.420
736.8802, 3680.386
737.3623, 3642.559
737.8444, 3579.896
738.3266, 3525.550
738.8087, 3500.257
739.2908, 3487.590
739.7729, 3463.477
740.2551, 3417.591
740.7372, 3377.400
741.2193, 3348.157
741.7014, 3324.458
742.1835, 3295.236
742.6656, 3260.563
743.1478, 3222.954
743.6299, 3181.165
744.1120, 3139.048
744.5941, 3103.611
745.0762, 3073.295
745.5583, 3042.091
746.0405, 3004.030
746.5226, 2967.470
747.0047, 2938.649
747.4868, 2916.212
747.9689, 2892.703
748.4510, 2871.907
748.9332, 2843.813
749.4153, 2800.315
749.8974, 2744.231
750.3795, 2710.615
750.8616, 2702.695
751.3438, 2693.080
751.8259, 2657.887
752.3080, 2609.786
752.7901, 2580.997
753.2722, 2571.343
753.7543, 2560.378
754.2365, 2533.835
754.7186, 2500.755
755.2007, 2466.913
755.6828, 2431.586
756.1649, 2402.670
756.6470, 2390.505
757.1292, 2376.730
757.6113, 2347.834
758.0934, 2297.334
758.5755, 2262.176
759.0576, 2244.554
759.5397, 2233.954
760.0219, 2220.401
760.5040, 2204.737
760.9861, 2190.619
761.4682, 2179.348
761.9503, 2166.323
762.4324, 2144.260
762.9146, 2119.826
763.3967, 2101.242
763.8788, 2097.778
764.3609, 2088.340
764.8430, 2062.704
765.3251, 2033.362
765.8073, 2014.562
766.2894, 2008.958
766.7715, 2004.050
767.2536, 1998.955
767.7357, 1992.424
768.2178, 1982.225
768.7000, 1968.657
769.1821, 1952.931
769.6642, 1933.469
770.1463, 1914.982
770.6284, 1903.507
771.1105, 1895.673
771.5927, 1884.965
772.0748, 1865.549
772.5569, 1847.389
773.0390, 1831.788
773.5211, 1819.279
774.0032, 1813.011
774.4854, 1815.759
774.9675, 1813.894
775.4496, 1801.385
775.9317, 1783.374
776.4138, 1773.141
776.8959, 1769.551
777.3781, 1765.955
777.8602, 1758.650
778.3423, 1750.067
778.8244, 1742.261
779.3065, 1734.926
779.7886, 1726.660
780.2708, 1717.468
780.7529, 1706.688
781.2350, 1693.142
781.7171, 1677.356
782.1992, 1663.744
782.6813, 1651.959
783.1635, 1644.316
783.6456, 1645.679
784.1277, 1651.590
784.6098, 1644.208
785.0919, 1625.128
785.5740, 1609.886
786.0562, 1614.598
786.5383, 1622.857
787.0204, 1620.049
787.5025, 1605.307
787.9846, 1591.485
788.4667, 1582.601
788.9489, 1574.426
789.4310, 1565.168
789.9131, 1554.837
790.3952, 1544.562
790.8773, 1534.353
791.3594, 1524.540
791.8416, 1515.518
792.3237, 1507.161
792.8058, 1499.861
793.2879, 1493.521
793.7700, 1485.499
794.2521, 1468.269
794.7343, 1452.370
795.2164, 1449.366
795.6985, 1465.477
796.1806, 1470.882
796.6627, 1453.860
797.1448, 1435.148
797.6270, 1429.724
798.1091, 1440.302
798.5912, 1441.671
799.0733, 1432.757
799.5554, 1419.492
800.0375, 1404.803
800.5197, 1390.742
801.0018, 1382.502
801.4839, 1381.645
801.9660, 1379.580
802.4481, 1367.326
802.9302, 1353.919
803.4124, 1347.635
803.8945, 1355.386
804.3766, 1356.830
804.8587, 1348.006
805.3408, 1338.101
805.8229, 1336.339
806.3051, 1342.658
806.7872, 1348.185
807.2693, 1352.778
807.7514, 1352.790
808.2335, 1338.869
808.7156, 1319.892
809.1978, 1310.776
809.6799, 1318.393
810.1620, 1323.164
810.6441, 1311.322
811.1262, 1295.980
811.6083, 1290.561
812.0905, 1301.582
812.5726, 1308.028
813.0547, 1308.961
813.5368, 1306.217
814.0189, 1299.813
814.5010, 1290.895
814.9832, 1287.146
815.4653, 1290.862
815.9474, 1294.740
816.4295, 1291.783
816.9116, 1285.127
817.3937, 1278.378
817.8759, 1271.239
818.3580, 1266.482
818.8401, 1266.057
819.3222, 1267.432
819.8043, 1268.653
820.2864, 1270.040
820.7686, 1269.474
821.2507, 1266.308
821.7328, 1262.564
822.2149, 1263.325
822.6970, 1265.470
823.1791, 1259.060
823.6613, 1238.115
824.1434, 1221.179
824.6255, 1227.331
825.1076, 1241.266
825.5897, 1245.882
826.0718, 1226.230
826.5540, 1214.379
827.0361, 1212.453
827.5182, 1215.819
828.0003, 1220.687
828.4824, 1226.954
828.9645, 1228.452
829.4467, 1223.874
829.9288, 1215.941
830.4109, 1202.050
830.8930, 1188.696
831.3751, 1187.864
831.8572, 1211.729
832.3394, 1227.432
832.8215, 1214.948
833.3036, 1193.180
833.7857, 1183.811
834.2678, 1192.698
834.7499, 1197.223
835.2321, 1195.670
835.7142, 1190.338
836.1963, 1182.228
836.6784, 1172.518
837.1605, 1165.907
837.6426, 1163.586
838.1248, 1163.323
838.6069, 1164.831
839.0890, 1166.773
839.5711, 1167.753
840.0532, 1168.234
840.5353, 1166.179
841.0175, 1160.712
841.4996, 1153.594
841.9817, 1146.174
842.4638, 1138.340
842.9459, 1132.214
843.4280, 1128.081
843.9102, 1125.229
844.3923, 1123.072
844.8744, 1121.605
845.3565, 1120.952
845.8386, 1121.322
846.3207, 1121.767
846.8029, 1123.684
847.2850, 1124.309
847.7671, 1120.861
848.2492, 1110.496
848.7313, 1103.926
849.2134, 1101.854
849.6956, 1101.915
850.1777, 1102.512
850.6598, 1103.307
851.1419, 1103.323
851.6240, 1102.509
852.1061, 1100.150
852.5883, 1093.423
853.0704, 1086.281
853.5525, 1083.005
854.0346, 1086.892
854.5167, 1086.068
854.9988, 1077.253
855.4810, 1067.121
855.9631, 1060.055
856.4452, 1056.066
856.9273, 1054.671
857.4094, 1056.226
857.8915, 1055.516
858.3737, 1042.573
858.8558, 1027.411
859.3379, 1025.360
859.8200, 1039.320
860.3021, 1049.015
860.7842, 1044.093
861.2664, 1034.783
861.7485, 1026.489
862.2306, 1019.106
862.7127, 1012.665
863.1948, 1006.559
863.6769, 1003.839
864.1591, 1009.938
864.6412, 1020.254
865.1233, 1023.582
865.6054, 1019.960
866.0875, 1014.573
866.5696, 1008.136
867.0518, 1002.884
867.5339, 1001.324
868.0160, 1003.791
868.4981, 1002.303
868.9802, 994.2358
869.4623, 987.7944
869.9445, 988.2327
870.4266, 993.4036
870.9087, 992.5242
871.3908, 986.1473
871.8729, 980.2956
872.3550, 979.1108
872.8372, 979.5610
873.3193, 979.9836
873.8014, 980.0367
874.2835, 978.3184
874.7656, 972.1984
875.2477, 966.8989
875.7299, 962.9733
876.2120, 961.0225
876.6941, 965.3275
877.1762, 975.8541
877.6583, 982.4203
878.1404, 978.9517
878.6226, 970.8194
879.1047, 962.6274
879.5869, 955.5131
880.0690, 952.1871
880.5511, 957.3723
881.0332, 962.3120
881.5153, 966.4077
881.9974, 968.0068
882.4796, 961.7375
882.9617, 945.2310
883.4438, 934.6345
883.9259, 934.8987
884.4080, 940.5897
884.8901, 945.6709
885.3723, 949.2867
885.8544, 949.1443
886.3365, 941.7968
886.8186, 934.8965
887.3007, 933.6959
887.7828, 934.1691
888.2650, 930.0812
888.7471, 917.5529
889.2292, 911.4827
889.7113, 914.7919
890.1934, 920.9720
890.6755, 920.3629
891.1577, 915.6065
891.6398, 916.0792
892.1219, 924.8148
892.6040, 932.0746
893.0861, 929.3243
893.5682, 922.8732
894.0504, 918.5607
894.5325, 917.8671
895.0146, 918.0052
895.4967, 920.0674
895.9788, 920.9500
896.4609, 916.1080
896.9431, 907.1152
897.4252, 904.6228
897.9073, 909.2618
898.3894, 915.4492
898.8715, 920.4949
899.3536, 924.2176
899.8358, 926.4349
900.3179, 927.0651
900.8000, 926.7455
901.2821, 926.0455
901.7642, 923.6359
902.2463, 916.8707
902.7285, 907.3776
903.2106, 909.6451
903.6927, 923.1227
904.1748, 933.4918
904.6569, 926.7891
905.1390, 916.6739
905.6212, 920.2691
906.1033, 933.6113
906.5854, 938.6337
907.0675, 917.9632
907.5496, 903.5173
908.0317, 905.8198
908.5139, 918.2865
908.9960, 919.7133
909.4781, 910.0311
909.9602, 902.4139
910.4423, 902.5381
910.9244, 905.2691
911.4066, 904.6389
911.8887, 902.0875
912.3708, 900.2545
912.8529, 898.5039
913.3350, 899.7260
913.8171, 906.7578
914.2993, 915.2076
914.7814, 918.4855
915.2635, 916.0249
915.7456, 916.3809
916.2277, 921.3224
916.7098, 926.8602
917.1920, 929.5715
917.6741, 929.3901
918.1562, 925.1191
918.6383, 914.5290
919.1204, 907.3163
919.6025, 909.2847
920.0847, 913.3580
920.5668, 914.8438
921.0489, 913.2637
921.5310, 912.4332
922.0131, 912.3662
922.4952, 912.9220
922.9774, 916.0296
923.4595, 918.6928
923.9416, 915.2097
924.4237, 905.7338
924.9058, 897.2980
925.3879, 891.3255
925.8701, 888.5206
926.3522, 889.6064
926.8343, 894.1023
927.3164, 898.8287
927.7985, 904.1613
928.2806, 906.1988
928.7628, 899.6105
929.2449, 892.0341
929.7270, 899.2087
930.2091, 915.4064
930.6912, 925.3089
931.1733, 913.3949
931.6555, 905.0397
932.1376, 912.4630
932.6197, 926.1204
933.1018, 929.3450
933.5839, 920.4857
934.0660, 913.4432
934.5482, 910.3696
935.0303, 910.8293
935.5124, 917.4946
935.9945, 926.3728
936.4766, 930.0116
936.9587, 924.8485
937.4409, 919.6981
937.9230, 915.8824
938.4051, 914.3537
938.8872, 916.5281
939.3693, 923.5798
939.8514, 927.3572
940.3336, 927.5694
940.8157, 926.3021
941.2978, 924.1432
941.7799, 922.1569
942.2620, 921.9944
942.7441, 923.6913
943.2263, 926.0469
943.7084, 930.7775
944.1905, 933.5840
944.6726, 931.7846
945.1547, 926.4865
945.6368, 924.8818
946.1190, 927.1379
946.6011, 930.1326
947.0832, 932.9014
947.5653, 935.1864
948.0474, 937.6488
948.5295, 939.3324
949.0117, 938.0134
949.4938, 929.4594
949.9759, 922.2009
950.4580, 917.6580
950.9401, 915.2839
951.4222, 914.3045
951.9044, 914.7015
952.3865, 917.4039
952.8686, 923.0723
953.3507, 928.5953
953.8328, 932.1547
954.3149, 932.8831
954.7971, 928.8110
955.2792, 917.8367
955.7613, 908.9238
956.2434, 902.6566
956.7255, 899.6987
957.2076, 901.6255
957.6898, 908.2427
958.1719, 912.2852
958.6540, 913.7942
959.1361, 913.4856
959.6182, 910.5397
960.1003, 907.0497
960.5825, 905.3090
961.0646, 904.9429
961.5467, 903.2141
962.0288, 896.4334
962.5109, 893.3956
962.9930, 897.4426
963.4752, 905.4453
963.9573, 910.2274
964.4394, 911.9383
964.9215, 911.6125
965.4036, 909.0789
965.8857, 905.6218
966.3679, 899.9255
966.8500, 894.9116
967.3321, 894.5641
967.8142, 902.2071
968.2963, 909.9849
968.7784, 919.1272
969.2606, 925.7328
969.7427, 924.8015
970.2248, 917.9200
970.7069, 909.3627
971.1890, 899.5551
971.6711, 893.0949
972.1533, 895.2880
972.6354, 900.0439
973.1175, 903.4591
973.5996, 905.3862
974.0817, 909.3207
974.5638, 917.7818
975.0460, 918.6656
975.5281, 902.4930
976.0102, 879.6699
976.4923, 874.4617
976.9744, 881.4636
977.4565, 884.7989
977.9387, 868.8993
978.4208, 858.2747
978.9029, 867.9058
979.3850, 884.6608
979.8671, 890.4550
980.3492, 883.1708
980.8314, 876.3220
981.3135, 870.7784
981.7956, 868.4886
982.2777, 874.8929
982.7598, 884.3582
983.2419, 887.6777
983.7241, 882.4506
984.2062, 880.1671
984.6883, 889.5301
985.1704, 897.0221
985.6525, 894.8625
986.1346, 884.5800
986.6168, 885.0011
987.0989, 895.6576
987.5810, 901.8771
988.0631, 888.0674
988.5452, 871.9542
989.0273, 870.9846
989.5095, 881.0272
989.9916, 891.6936
990.4737, 905.2950
990.9558, 912.1945
991.4379, 909.6678
991.9200, 902.1733
992.4022, 896.5734
992.8843, 892.1014
993.3664, 883.1395
993.8485, 867.0081
994.3306, 857.4666
994.8127, 873.3095
995.2949, 893.6529
995.7770, 898.4344
996.2591, 883.9359
996.7412, 875.9323
997.2233, 876.0420
997.7054, 876.9955
998.1876, 874.6026
998.6697, 869.8930
999.1518, 862.0643
999.6339, 853.2377
1000.116, 851.6647
1000.598, 868.0315
1001.080, 884.2787
1001.562, 896.3651
1002.044, 903.5196
1002.527, 902.1616
1003.009, 891.3890
1003.491, 885.8600
1003.973, 889.1193
1004.455, 894.7433
1004.937, 897.0279
1005.419, 896.7778
1005.901, 894.7200
1006.384, 890.6447
1006.866, 885.9952
1007.348, 878.8420
1007.830, 874.4005
1008.312, 876.6764
1008.794, 884.3297
1009.276, 891.2023
1009.758, 896.7870
1010.240, 897.2710
1010.723, 880.6929
1011.205, 867.9160
1011.687, 880.7690
1012.169, 906.7326
1012.651, 910.0905
1013.133, 878.0923
1013.615, 860.4093
1014.097, 867.3304
1014.580, 883.0446
1015.062, 888.1464
1015.544, 885.3900
1016.026, 878.0433
1016.508, 865.0882
1016.990, 857.6230
1017.472, 863.7067
1017.954, 873.5555
1018.436, 882.7955
1018.919, 891.1786
1019.401, 894.0020
1019.883, 891.2546
1020.365, 886.8799
1020.847, 879.8697
1021.329, 875.0432
1021.811, 880.5952
1022.293, 891.8834
1022.776, 897.4832
1023.258, 891.9492
1023.740, 885.6182
1024.222, 878.4690
1024.704, 872.5327
1025.186, 871.6444
1025.668, 874.3798
1026.150, 876.0717
1026.632, 876.0716
1027.115, 875.0558
1027.597, 873.1817
1028.079, 870.5995
1028.561, 865.9617
1029.043, 859.5776
1029.525, 860.9331
1030.007, 870.9922
1030.489, 880.6137
1030.972, 885.3671
1031.454, 887.6119
1031.936, 891.0606
1032.418, 894.5798
1032.900, 895.7086
1033.382, 891.5035
1033.864, 887.8343
1034.346, 885.2550
1034.828, 883.4866
1035.311, 882.1520
1035.793, 881.3333
1036.275, 882.0162
1036.757, 884.2920
1037.239, 886.2928
1037.721, 885.8239
1038.203, 885.3575
1038.685, 887.6253
1039.167, 892.0668
1039.650, 892.5731
1040.132, 888.2845
1040.614, 883.6856
1041.096, 880.1234
1041.578, 877.4420
1042.060, 876.4254
1042.542, 875.9666
1043.024, 873.6016
1043.507, 865.5121
1043.989, 861.9374
1044.471, 867.3300
1044.953, 874.5936
1045.435, 878.4632
1045.917, 879.1495
1046.399, 879.1014
1046.881, 878.4274
1047.364, 878.3504
1047.846, 880.8346
1048.328, 883.1488
1048.810, 883.5847
1049.292, 882.1706
1049.774, 879.8925
1050.256, 877.0205
1050.738, 871.7191
1051.220, 862.4136
1051.703, 853.8322
1052.185, 853.9023
1052.667, 859.2297
1053.149, 864.4456
1053.631, 868.6340
1054.113, 871.9887
1054.595, 873.5938
1055.077, 875.5455
1055.559, 879.6497
1056.042, 885.1474
1056.524, 887.7460
1057.006, 887.2903
1057.488, 882.5154
1057.970, 865.7039
1058.452, 851.6185
1058.934, 852.8948
1059.416, 862.2141
1059.899, 864.6647
1060.381, 856.0361
1060.863, 856.1379
1061.345, 868.9008
1061.827, 880.5559
1062.309, 873.0428
1062.791, 857.2582
1063.273, 850.1916
1063.755, 853.0540
1064.238, 854.3101
1064.720, 847.5737
1065.202, 842.9033
1065.684, 842.9503
1066.166, 847.2793
1066.648, 856.9009
1067.130, 870.2106
1067.612, 880.5825
1068.094, 885.8350
1068.577, 887.7954
1069.059, 884.8648
1069.541, 881.0197
1070.023, 880.2369
1070.505, 883.1707
1070.987, 886.1030
1071.469, 889.2766
1071.951, 890.4881
1072.434, 888.5415
1072.916, 883.5872
1073.398, 872.6329
1073.880, 858.4283
1074.362, 850.4664
1074.844, 852.5966
1075.326, 858.4194
1075.808, 869.2213
1076.291, 879.9194
1076.773, 882.6269
1077.255, 879.5480
1077.737, 876.6560
1078.219, 874.8384
1078.701, 872.9727
1079.183, 868.3899
1079.665, 866.0004
1080.147, 869.3502
1080.630, 876.9317
1081.112, 880.2554
1081.594, 879.3502
1082.076, 874.2605
1082.558, 861.1847
1083.040, 851.2792
1083.522, 859.8484
1084.004, 875.2764
1084.486, 881.0929
1084.969, 869.8849
1085.451, 866.4756
1085.933, 872.7148
1086.415, 879.8818
1086.897, 880.0433
1087.379, 877.3197
1087.861, 881.1855
1088.343, 889.3138
1088.826, 891.3132
1089.308, 876.2629
1089.790, 863.9282
1090.272, 856.6036
1090.754, 855.0453
1091.236, 863.7950
1091.718, 879.9736
1092.200, 889.9473
1092.682, 891.3523
1093.165, 890.5910
1093.647, 891.6296
1094.129, 891.7142
1094.611, 888.4368
1095.093, 882.4750
1095.575, 878.8696
1096.057, 877.7499
1096.539, 875.4087
1097.022, 869.1702
1097.504, 863.8833
1097.986, 866.7969
1098.468, 872.8538
1098.950, 874.8015
1099.432, 869.2590
1099.914, 865.6407
1100.396, 863.9951
1100.879, 864.2916
1101.361, 866.6069
1101.843, 870.8300
1102.325, 878.2394
1102.807, 887.6797
1103.289, 894.7444
1103.771, 899.0187
1104.253, 898.5839
1104.735, 891.3638
1105.218, 882.0220
1105.700, 876.7787
1106.182, 875.1397
1106.664, 876.0040
1107.146, 879.3099
1107.628, 880.6045
1108.110, 872.9974
1108.592, 866.8641
1109.074, 870.1332
1109.557, 879.5991
1110.039, 881.2894
1110.521, 875.0877
1111.003, 871.4836
1111.485, 874.0868
1111.967, 878.6129
1112.449, 884.0820
1112.931, 887.4384
1113.414, 883.4295
1113.896, 868.4760
1114.378, 864.7621
1114.860, 874.8564
1115.342, 885.0082
1115.824, 887.4471
1116.306, 885.2874
1116.788, 879.5367
1117.271, 873.5537
1117.753, 874.8135
1118.235, 898.2507
1118.717, 909.2385
1119.199, 901.2322
1119.681, 889.0901
1120.163, 888.8781
1120.645, 896.1542
1121.127, 896.4737
1121.609, 890.1852
1122.092, 887.0421
1122.574, 895.5721
1123.056, 903.9288
1123.538, 910.5143
1124.020, 912.9191
1124.502, 901.1503
1124.984, 878.1825
1125.466, 872.3549
1125.949, 890.9205
1126.431, 908.4093
1126.913, 904.5120
1127.395, 895.0220
1127.877, 890.5007
1128.359, 890.7845
1128.841, 893.9286
1129.323, 900.2141
1129.806, 904.6021
1130.288, 905.6174
1130.770, 903.2792
1131.252, 891.4522
1131.734, 879.1909
1132.216, 880.4064
1132.698, 903.0619
1133.180, 914.0858
1133.662, 911.4504
1134.145, 905.3882
1134.627, 900.7648
1135.109, 897.8041
1135.591, 896.2040
1136.073, 896.6096
1136.555, 900.6907
1137.037, 915.4254
1137.519, 923.6262
1138.001, 922.4979
1138.484, 918.4765
1138.966, 918.5809
1139.448, 920.8597
1139.930, 920.3052
1140.412, 916.9285
1140.894, 913.6409
1141.376, 911.8547
1141.858, 909.7956
1142.341, 905.8146
1142.823, 902.5035
1143.305, 906.5147
1143.787, 915.7151
1144.269, 919.6635
1144.751, 916.0601
1145.233, 913.5170
1145.715, 920.0044
1146.198, 925.7611
1146.680, 925.2311
1147.162, 919.6586
1147.644, 913.1945
1148.126, 906.2643
1148.608, 905.3008
1149.090, 914.2029
1149.572, 924.4963
1150.054, 933.7850
1150.536, 938.4813
1151.019, 934.1987
1151.501, 920.3490
1151.983, 905.9063
1152.465, 890.4109
1152.947, 883.8472
1153.429, 898.5601
1153.911, 916.7609
1154.393, 919.5021
1154.876, 914.4935
1155.358, 915.7004
1155.840, 927.4651
1156.322, 934.7510
1156.804, 936.8488
1157.286, 936.8682
1157.768, 936.2162
1158.250, 935.6950
1158.733, 937.3467
1159.215, 940.1476
1159.697, 940.0917
1160.179, 935.6658
1160.661, 929.8645
1161.143, 921.6979
1161.625, 916.0190
1162.107, 919.8278
1162.589, 929.2375
1163.072, 939.9791
1163.554, 951.1316
1164.036, 954.9715
1164.518, 942.0881
1165.000, 934.9813
1165.482, 941.3488
1165.964, 952.2767
1166.446, 951.1388
1166.928, 942.1002
1167.411, 933.2802
1167.893, 925.5417
1168.375, 922.9786
1168.857, 931.1076
1169.339, 939.7289
1169.821, 946.1837
1170.303, 949.5370
1170.785, 943.6578
1171.268, 932.1682
1171.750, 927.3963
1172.232, 935.9969
1172.714, 944.5697
1173.196, 949.0287
1173.678, 950.3703
1174.160, 947.9348
1174.642, 942.6093
1175.125, 940.6268
1175.607, 941.5148
1176.089, 942.8191
1176.571, 945.1908
1177.053, 945.3140
1177.535, 939.4560
1178.017, 932.3367
1178.499, 927.4769
1178.981, 924.8737
1179.464, 928.6467
1179.946, 938.3694
1180.428, 946.7906
1180.910, 949.6016
1181.392, 949.6230
1181.874, 947.6777
1182.356, 944.1837
1182.838, 938.1689
1183.320, 929.2599
1183.803, 929.7112
1184.285, 940.7609
1184.767, 951.5218
1185.249, 954.3121
1185.731, 953.6134
1186.213, 950.3212
1186.695, 946.2429
1187.177, 946.4952
1187.660, 951.4512
1188.142, 954.9180
1188.624, 955.7623
1189.106, 955.8823
1189.588, 956.4083
1190.070, 957.3365
1190.552, 960.2318
1191.034, 964.0188
1191.516, 959.8770
1191.999, 946.2796
1192.481, 939.5938
1192.963, 944.5643
1193.445, 954.9492
1193.927, 971.8967
1194.409, 986.1006
1194.891, 984.5211
1195.373, 966.1399
1195.855, 959.9379
1196.338, 967.3959
1196.820, 973.8904
1197.302, 973.4407
1197.784, 970.2463
1198.266, 966.5988
1198.748, 964.1255
1199.230, 966.1777
1199.712, 974.6987
1200.195, 974.8186
1200.677, 964.8107
1201.159, 958.7297
1201.641, 967.0270
1202.123, 979.3525
1202.605, 985.2724
1203.087, 986.5267
1203.569, 985.9458
1204.052, 983.7141
1204.534, 979.6624
1205.016, 973.0157
1205.498, 969.0132
1205.980, 974.1732
1206.462, 981.5359
1206.944, 983.5286
1207.426, 981.4168
1207.908, 977.3451
1208.391, 967.9062
1208.873, 969.3604
1209.355, 985.0344
1209.837, 997.3693
1210.319, 984.1243
1210.801, 965.0289
1211.283, 964.6118
1211.765, 978.1116
1212.247, 986.2946
1212.730, 985.4147
1213.212, 986.6237
1213.694, 991.6683
1214.176, 995.8997
1214.658, 990.1740
1215.140, 984.5579
1215.622, 995.8109
1216.104, 1019.777
1216.587, 1027.030
1217.069, 1009.886
1217.551, 998.2398
1218.033, 997.7279
1218.515, 1000.294
1218.997, 995.4654
1219.479, 989.7805
1219.961, 992.6464
1220.443, 1003.729
1220.926, 1007.816
1221.408, 1002.288
1221.890, 997.7939
1222.372, 996.4921
1222.854, 998.1121
1223.336, 1005.896
1223.818, 1014.154
1224.300, 1014.476
1224.782, 1005.648
1225.265, 1005.464
1225.747, 1016.610
1226.229, 1023.204
1226.711, 1018.958
1227.193, 1012.142
1227.675, 1012.319
1228.157, 1015.924
1228.639, 1018.120
1229.122, 1017.989
1229.604, 1025.034
1230.086, 1041.475
1230.568, 1050.060
1231.050, 1041.782
1231.532, 1027.810
1232.014, 1015.315
1232.496, 1007.860
1232.979, 1012.673
1233.461, 1032.381
1233.943, 1039.199
1234.425, 1031.841
1234.907, 1023.958
1235.389, 1022.269
1235.871, 1022.282
1236.353, 1017.460
1236.835, 1012.683
1237.318, 1015.736
1237.800, 1028.380
1238.282, 1033.851
1238.764, 1031.602
1239.246, 1032.993
1239.728, 1052.594
1240.210, 1067.818
1240.692, 1052.187
1241.175, 1024.259
1241.657, 1009.617
1242.139, 1010.559
1242.621, 1012.597
1243.103, 1015.760
1243.585, 1020.691
1244.067, 1032.365
1244.549, 1041.116
1245.031, 1036.251
1245.514, 1026.786
1245.996, 1026.015
1246.478, 1034.979
1246.960, 1039.389
1247.442, 1039.215
1247.924, 1038.853
1248.406, 1040.052
1248.888, 1043.028
1249.370, 1051.626
1249.853, 1059.764
1250.335, 1055.929
1250.817, 1040.995
1251.299, 1048.147
1251.781, 1076.677
1252.263, 1095.367
1252.745, 1072.723
1253.227, 1050.352
1253.710, 1048.167
1254.192, 1055.147
1254.674, 1058.319
1255.156, 1058.407
1255.638, 1060.904
1256.120, 1065.937
1256.602, 1070.837
1257.084, 1074.805
1257.567, 1077.448
1258.049, 1078.410
1258.531, 1078.469
1259.013, 1078.473
1259.495, 1078.479
1259.977, 1078.452
1260.459, 1078.486
1260.941, 1079.522
1261.423, 1084.471
1261.906, 1086.504
1262.388, 1082.047
1262.870, 1077.532
1263.352, 1085.844
1263.834, 1100.173
1264.316, 1102.512
1264.798, 1092.492
1265.280, 1087.175
1265.762, 1097.553
1266.245, 1103.027
1266.727, 1098.675
1267.209, 1091.149
1267.691, 1088.912
1268.173, 1090.043
1268.655, 1092.021
1269.137, 1094.474
1269.619, 1095.933
1270.102, 1097.616
1270.584, 1094.485
1271.066, 1084.544
1271.548, 1072.775
1272.030, 1061.505
1272.512, 1054.863
1272.994, 1061.046
1273.476, 1079.404
1273.958, 1090.811
1274.441, 1093.752
1274.923, 1094.076
1275.405, 1092.597
1275.887, 1090.840
1276.369, 1089.566
1276.851, 1089.420
1277.333, 1092.176
1277.815, 1096.957
1278.297, 1097.530
1278.780, 1093.522
1279.262, 1094.094
1279.744, 1102.264
1280.226, 1109.416
1280.708, 1106.306
1281.190, 1101.715
1281.672, 1103.253
1282.154, 1108.379
1282.637, 1106.036
1283.119, 1097.377
1283.601, 1094.206
1284.083, 1099.760
1284.565, 1105.149
1285.047, 1102.389
1285.529, 1101.363
1286.011, 1108.694
1286.494, 1119.694
1286.976, 1119.064
1287.458, 1110.560
1287.940, 1107.298
1288.422, 1112.611
1288.904, 1117.634
1289.386, 1119.689
1289.868, 1120.051
1290.350, 1119.311
1290.833, 1116.755
1291.315, 1107.141
1291.797, 1095.862
1292.279, 1095.213
1292.761, 1109.065
1293.243, 1118.648
1293.725, 1121.715
1294.207, 1120.732
1294.689, 1115.630
1295.172, 1108.979
1295.654, 1101.843
1296.136, 1096.960
##END=



