##NAMES=Pyrosmalite-(Fe)
##RRUFFID=R060438
##IDEAL CHEMISTRY=Fe^2+^_8_Si_6_O_15_(OH)_10_
##LOCALITY=Monchi mine, Brugillos del Cerro, Badoz Province, Spain
##OWNER=RRUFF
##SOURCE=Michael Scott
##DESCRIPTION=Colorless hexagonal prisms
##STATUS=The identification of this mineral is confirmed by single-crystal X-ray diffraction and chemical analysis.
##URL=rruff.info/R060438
##MEASURED CHEMISTRY=(Fe^2+^_7.44_Mn_0.31_Mg_0.25_)_Σ=8_Si_6.00_O_15_((OH)_8.20_Cl_1.80_)_Σ=10_ ; OH estimated by difference and charge balance
203.9028, 48.97428
204.3849, 48.19439
204.8670, 46.17177
205.3492, 44.52877
205.8313, 43.54107
206.3134, 43.04974
206.7955, 42.96532
207.2776, 43.36340
207.7597, 43.81859
208.2419, 44.41438
208.7240, 44.86516
209.2061, 44.80386
209.6882, 44.02993
210.1703, 42.86725
210.6524, 41.80708
211.1346, 40.79089
211.6167, 40.06653
212.0988, 39.90092
212.5809, 39.95088
213.0630, 39.82760
213.5451, 39.33431
214.0273, 38.76721
214.5094, 38.91587
214.9915, 40.53304
215.4736, 41.47447
215.9557, 40.80744
216.4378, 39.60713
216.9200, 39.01922
217.4021, 39.57370
217.8842, 40.77082
218.3663, 41.20165
218.8484, 40.34680
219.3305, 39.39619
219.8127, 38.22432
220.2948, 37.14058
220.7769, 36.47860
221.2590, 36.39040
221.7411, 36.74160
222.2232, 37.13295
222.7054, 37.31994
223.1875, 37.87925
223.6696, 39.53406
224.1517, 41.33867
224.6338, 42.07536
225.1159, 41.19922
225.5980, 39.28142
226.0802, 37.97083
226.5623, 37.68901
227.0444, 37.54737
227.5265, 37.50690
228.0086, 37.56805
228.4907, 37.76373
228.9729, 38.11373
229.4550, 38.54702
229.9371, 38.86483
230.4192, 38.85208
230.9013, 39.06073
231.3834, 39.93753
231.8656, 41.00677
232.3477, 41.51979
232.8298, 41.15586
233.3119, 40.25311
233.7940, 39.42567
234.2761, 38.41047
234.7583, 38.02163
235.2404, 39.03070
235.7225, 40.71618
236.2046, 41.78849
236.6867, 41.75959
237.1688, 41.13568
237.6510, 40.73231
238.1331, 40.53819
238.6152, 40.47351
239.0973, 40.86968
239.5794, 41.35757
240.0615, 40.95063
240.5437, 39.03792
241.0258, 36.88385
241.5079, 36.27092
241.9900, 37.13810
242.4721, 38.16529
242.9542, 38.75420
243.4364, 39.08888
243.9185, 39.72290
244.4006, 40.96538
244.8827, 42.14010
245.3648, 42.42197
245.8469, 41.93559
246.3290, 41.56135
246.8112, 41.83677
247.2933, 42.56414
247.7754, 43.22203
248.2575, 43.94184
248.7396, 44.20866
249.2217, 43.31798
249.7039, 41.60866
250.1860, 40.24755
250.6681, 40.13409
251.1502, 40.91797
251.6323, 41.28114
252.1144, 41.01276
252.5966, 40.55227
253.0787, 40.01135
253.5608, 39.49175
254.0429, 39.23839
254.5250, 39.58504
255.0071, 40.31777
255.4893, 40.54631
255.9714, 39.89640
256.4535, 39.33451
256.9356, 39.40786
257.4177, 39.82871
257.8998, 40.10289
258.3820, 39.86220
258.8641, 39.32576
259.3462, 39.36565
259.8283, 40.62513
260.3104, 41.37410
260.7925, 40.83020
261.2747, 39.59705
261.7568, 38.42532
262.2389, 37.64917
262.7210, 37.22324
263.2031, 37.05429
263.6852, 37.39679
264.1674, 37.55642
264.6495, 37.13764
265.1316, 36.57515
265.6137, 36.36943
266.0958, 36.74863
266.5779, 37.46818
267.0601, 37.93175
267.5422, 37.90773
268.0243, 38.04242
268.5064, 38.69588
268.9885, 39.38753
269.4706, 39.72021
269.9528, 39.55071
270.4349, 38.95707
270.9170, 37.92242
271.3991, 35.60518
271.8812, 34.60962
272.3633, 36.25751
272.8455, 38.33081
273.3276, 38.92479
273.8097, 37.67525
274.2918, 35.82755
274.7739, 35.43409
275.2560, 37.86167
275.7382, 38.78748
276.2202, 37.23883
276.7024, 35.24921
277.1845, 33.94004
277.6666, 33.53889
278.1487, 33.76283
278.6308, 34.37083
279.1129, 35.65249
279.5951, 36.27767
280.0772, 35.97169
280.5593, 35.38113
281.0414, 34.63951
281.5235, 33.87998
282.0056, 33.36655
282.4878, 33.40741
282.9699, 34.13104
283.4520, 34.47077
283.9341, 34.01359
284.4162, 33.63161
284.8983, 33.67272
285.3805, 34.09274
285.8626, 34.75611
286.3447, 35.64331
286.8268, 36.73422
287.3089, 36.87731
287.7910, 34.87274
288.2732, 33.28491
288.7553, 32.89381
289.2374, 33.45835
289.7195, 34.61609
290.2016, 36.24589
290.6837, 38.08618
291.1659, 38.64019
291.6480, 36.19359
292.1301, 34.46947
292.6122, 34.35992
293.0943, 35.26394
293.5764, 36.49662
294.0586, 37.77570
294.5407, 38.86243
295.0228, 39.10875
295.5049, 36.98205
295.9870, 35.88533
296.4691, 36.86380
296.9513, 38.53147
297.4334, 39.29823
297.9155, 38.66867
298.3976, 37.46958
298.8797, 37.08533
299.3618, 38.05354
299.8440, 38.92029
300.3261, 39.94365
300.8082, 40.70493
301.2903, 40.57737
301.7724, 39.56127
302.2545, 38.59967
302.7367, 38.90450
303.2188, 41.04619
303.7009, 42.20538
304.1830, 41.61322
304.6651, 40.76780
305.1472, 40.65501
305.6294, 41.25054
306.1115, 41.85237
306.5936, 41.77906
307.0757, 40.95910
307.5578, 41.06696
308.0399, 43.27520
308.5221, 45.08551
309.0042, 45.09565
309.4863, 43.77488
309.9684, 42.45276
310.4505, 41.97924
310.9326, 42.22770
311.4148, 42.34389
311.8969, 41.95458
312.3790, 41.87980
312.8611, 42.63961
313.3432, 43.78451
313.8253, 44.53918
314.3075, 44.52576
314.7896, 44.07792
315.2717, 44.05796
315.7538, 44.96796
316.2359, 45.58144
316.7180, 45.56617
317.2001, 45.31175
317.6823, 45.19840
318.1644, 45.34248
318.6465, 45.71342
319.1286, 46.29558
319.6107, 47.26890
320.0928, 47.99970
320.5750, 48.32059
321.0571, 48.52482
321.5392, 48.80175
322.0213, 49.18658
322.5034, 49.66935
322.9855, 50.26605
323.4677, 51.02450
323.9498, 51.52463
324.4319, 51.43919
324.9140, 51.43885
325.3961, 52.23642
325.8782, 53.48232
326.3604, 54.05863
326.8425, 53.08336
327.3246, 50.73530
327.8067, 49.02744
328.2888, 48.68803
328.7709, 48.06828
329.2531, 46.50795
329.7352, 44.43703
330.2173, 42.53455
330.6994, 41.11665
331.1815, 40.10247
331.6636, 39.27105
332.1458, 38.98121
332.6279, 38.42933
333.1100, 37.17610
333.5921, 35.85860
334.0742, 35.20202
334.5563, 35.38247
335.0385, 35.88861
335.5206, 35.98077
336.0027, 35.47513
336.4848, 34.98838
336.9669, 34.26759
337.4490, 33.75142
337.9312, 33.99545
338.4133, 34.84776
338.8954, 35.43745
339.3775, 34.82722
339.8596, 32.82029
340.3417, 32.10346
340.8239, 34.13319
341.3060, 35.76384
341.7881, 35.48936
342.2702, 33.97646
342.7523, 32.73594
343.2344, 32.73154
343.7166, 33.66379
344.1987, 34.07602
344.6808, 33.36370
345.1629, 32.78526
345.6450, 32.45044
346.1271, 32.30794
346.6093, 32.36834
347.0914, 32.61971
347.5735, 32.89369
348.0556, 32.83964
348.5377, 32.11770
349.0198, 31.68505
349.5020, 31.56437
349.9841, 31.66877
350.4662, 32.04508
350.9483, 32.63462
351.4304, 33.22808
351.9125, 33.58895
352.3947, 33.67920
352.8768, 33.78638
353.3589, 33.85813
353.8410, 33.99755
354.3231, 34.42129
354.8052, 34.93899
355.2874, 35.11494
355.7695, 34.57942
356.2516, 33.53283
356.7337, 33.15066
357.2158, 34.22180
357.6979, 34.89398
358.1800, 34.43191
358.6621, 33.59654
359.1443, 33.22196
359.6264, 33.62653
360.1085, 34.52447
360.5906, 35.56072
361.0727, 37.13228
361.5548, 37.75953
362.0370, 36.31446
362.5191, 34.68760
363.0012, 34.04105
363.4833, 34.46259
363.9654, 35.31463
364.4475, 36.09553
364.9297, 36.82379
365.4118, 37.15565
365.8939, 36.78689
366.3760, 36.32621
366.8581, 36.00534
367.3402, 35.78014
367.8224, 35.52607
368.3045, 35.14397
368.7866, 34.70687
369.2687, 34.41825
369.7508, 34.26513
370.2329, 34.30618
370.7151, 35.12512
371.1972, 35.86928
371.6793, 35.37047
372.1614, 33.13624
372.6435, 30.83647
373.1256, 30.82526
373.6078, 33.29140
374.0899, 35.31560
374.5720, 36.26287
375.0541, 36.55343
375.5362, 36.38028
376.0183, 35.80157
376.5005, 35.14634
376.9826, 34.42020
377.4647, 33.75928
377.9468, 33.82131
378.4289, 35.06085
378.9110, 36.09602
379.3932, 35.82814
379.8753, 34.72217
380.3574, 33.57810
380.8395, 32.52084
381.3216, 31.64648
381.8037, 31.06603
382.2859, 30.77789
382.7680, 30.80414
383.2501, 31.41319
383.7322, 32.17485
384.2143, 32.28028
384.6964, 31.41831
385.1786, 30.95211
385.6607, 32.19676
386.1428, 34.44662
386.6249, 35.80223
387.1070, 35.74012
387.5891, 34.91990
388.0713, 33.60028
388.5534, 31.84939
389.0355, 31.22124
389.5176, 32.92681
389.9997, 35.34084
390.4818, 36.94667
390.9640, 37.66366
391.4461, 37.91472
391.9282, 37.91754
392.4103, 37.68122
392.8924, 37.32986
393.3745, 36.70748
393.8567, 36.14951
394.3388, 35.78429
394.8209, 35.57653
395.3030, 35.47032
395.7851, 35.44679
396.2672, 35.49703
396.7494, 35.61258
397.2315, 35.82528
397.7136, 36.02856
398.1957, 36.10146
398.6778, 36.24275
399.1599, 36.73153
399.6420, 37.52677
400.1241, 38.21794
400.6063, 38.39042
401.0884, 38.01739
401.5705, 38.08750
402.0526, 39.03929
402.5347, 39.88346
403.0168, 40.33053
403.4990, 40.46850
403.9811, 40.46318
404.4632, 40.39462
404.9453, 40.22940
405.4274, 39.85618
405.9095, 38.96258
406.3917, 38.40705
406.8738, 38.53709
407.3559, 38.74555
407.8380, 38.52309
408.3201, 37.86406
408.8022, 37.18276
409.2844, 36.88006
409.7665, 36.97337
410.2486, 37.20375
410.7307, 37.60996
411.2128, 38.12579
411.6949, 39.18662
412.1771, 40.25037
412.6592, 40.29338
413.1413, 38.63354
413.6234, 36.28846
414.1055, 35.52993
414.5876, 36.81981
415.0698, 38.29418
415.5519, 40.21315
416.0340, 41.68750
416.5161, 41.71144
416.9982, 40.28178
417.4803, 38.90509
417.9625, 39.18986
418.4446, 40.81334
418.9267, 41.46148
419.4088, 40.55505
419.8909, 39.41675
420.3730, 38.96074
420.8552, 38.90411
421.3373, 38.67751
421.8194, 37.98980
422.3015, 37.15548
422.7836, 36.63467
423.2657, 36.42130
423.7479, 35.89692
424.2300, 34.42862
424.7121, 32.88586
425.1942, 32.76830
425.6763, 34.41596
426.1584, 35.69939
426.6406, 35.45621
427.1227, 34.32864
427.6048, 33.22406
428.0869, 32.25047
428.5690, 31.78320
429.0511, 32.35121
429.5333, 33.95965
430.0154, 35.05989
430.4975, 35.67528
430.9796, 35.75512
431.4617, 34.98571
431.9438, 33.64442
432.4260, 32.36065
432.9081, 31.41102
433.3902, 30.79329
433.8723, 30.54523
434.3544, 31.24559
434.8365, 31.33917
435.3187, 29.96004
435.8008, 28.49613
436.2829, 28.38507
436.7650, 29.58992
437.2471, 30.75692
437.7292, 30.54373
438.2114, 28.89802
438.6935, 27.92651
439.1756, 27.90313
439.6577, 28.26722
440.1398, 29.49337
440.6219, 30.84560
441.1040, 31.19622
441.5862, 30.07625
442.0683, 28.34538
442.5504, 27.59322
443.0325, 28.10413
443.5146, 28.72110
443.9967, 29.72614
444.4789, 30.49413
444.9610, 30.43847
445.4431, 29.76950
445.9252, 29.33540
446.4073, 30.06887
446.8894, 31.47306
447.3716, 31.37139
447.8537, 28.95002
448.3358, 27.05993
448.8179, 27.57195
449.3000, 29.00488
449.7821, 29.75758
450.2643, 29.39224
450.7464, 28.86184
451.2285, 29.08471
451.7106, 29.89132
452.1927, 30.45806
452.6748, 30.66596
453.1570, 30.50521
453.6391, 29.58864
454.1212, 28.13828
454.6033, 27.31687
455.0854, 28.00295
455.5675, 28.98271
456.0497, 28.97570
456.5318, 28.15033
457.0139, 27.68989
457.4960, 28.25182
457.9781, 29.49755
458.4602, 30.56317
458.9424, 31.57120
459.4245, 32.20351
459.9066, 32.06708
460.3887, 31.71316
460.8708, 31.71833
461.3529, 32.15608
461.8351, 32.76384
462.3172, 33.36110
462.7993, 33.96122
463.2814, 33.98767
463.7635, 32.59595
464.2456, 31.63888
464.7278, 31.74813
465.2099, 32.51303
465.6920, 33.45357
466.1741, 34.36992
466.6562, 35.12024
467.1383, 35.47075
467.6205, 35.38725
468.1026, 35.00842
468.5847, 33.46667
469.0668, 32.42089
469.5489, 33.11435
470.0310, 34.99146
470.5132, 36.42256
470.9953, 36.14835
471.4774, 35.01158
471.9595, 35.40908
472.4416, 37.88382
472.9237, 39.86779
473.4059, 40.10135
473.8880, 39.61836
474.3701, 39.19007
474.8522, 38.88933
475.3343, 38.88439
475.8164, 39.54160
476.2986, 40.55317
476.7807, 41.04491
477.2628, 40.80316
477.7449, 40.68396
478.2270, 41.55842
478.7091, 43.11257
479.1913, 43.98907
479.6734, 43.22045
480.1555, 42.76100
480.6376, 44.18782
481.1197, 46.59341
481.6018, 47.96655
482.0839, 47.61643
482.5660, 46.54328
483.0482, 46.16613
483.5303, 46.83778
484.0124, 46.89622
484.4945, 45.52156
484.9766, 44.34084
485.4587, 44.41001
485.9409, 45.38738
486.4230, 46.41547
486.9051, 47.04744
487.3872, 47.21626
487.8693, 46.65717
488.3514, 44.76677
488.8336, 43.26811
489.3157, 42.25177
489.7978, 41.62699
490.2799, 41.51274
490.7620, 41.79051
491.2441, 42.04299
491.7263, 41.84039
492.2084, 41.34105
492.6905, 41.46157
493.1726, 42.68685
493.6547, 43.36167
494.1368, 42.16723
494.6190, 40.38619
495.1011, 39.34179
495.5832, 39.32835
496.0653, 39.52994
496.5474, 39.45293
497.0295, 39.10967
497.5117, 38.47350
497.9938, 37.47626
498.4759, 36.44620
498.9580, 35.59962
499.4401, 34.94084
499.9222, 34.44859
500.4044, 34.19362
500.8865, 34.02885
501.3686, 34.14439
501.8507, 34.26068
502.3328, 33.49748
502.8149, 31.50744
503.2971, 29.61248
503.7792, 29.91208
504.2613, 33.60429
504.7434, 35.08782
505.2255, 32.44044
505.7076, 29.73473
506.1898, 29.12932
506.6719, 29.93661
507.1540, 30.51430
507.6361, 30.00132
508.1182, 28.77662
508.6003, 27.66347
509.0825, 26.59549
509.5646, 25.81659
510.0467, 25.23980
510.5288, 25.05427
511.0109, 25.69620
511.4930, 26.90034
511.9752, 27.78018
512.4573, 27.72057
512.9394, 27.00672
513.4215, 26.14538
513.9036, 25.04331
514.3857, 24.38274
514.8679, 24.64173
515.3500, 25.33376
515.8321, 25.96176
516.3142, 26.57044
516.7963, 26.60632
517.2784, 25.04996
517.7606, 23.14293
518.2427, 22.95554
518.7248, 24.56979
519.2069, 26.01737
519.6890, 25.95971
520.1711, 24.68645
520.6533, 23.62540
521.1354, 22.23092
521.6175, 21.71149
522.0996, 23.21367
522.5817, 25.14161
523.0638, 25.77135
523.5460, 24.91123
524.0281, 23.61746
524.5102, 22.89932
524.9923, 22.73776
525.4744, 22.34502
525.9565, 21.14825
526.4387, 20.50157
526.9208, 21.26926
527.4029, 22.38198
527.8850, 22.62947
528.3671, 21.73439
528.8492, 20.54264
529.3314, 19.77251
529.8135, 19.43155
530.2956, 19.73703
530.7777, 21.11893
531.2598, 22.27775
531.7419, 22.08785
532.2241, 21.20653
532.7062, 20.66611
533.1883, 20.73692
533.6704, 21.00415
534.1525, 21.35432
534.6346, 21.67351
535.1168, 21.57038
535.5989, 20.91117
536.0810, 20.34897
536.5631, 20.71831
537.0452, 22.07886
537.5273, 22.33501
538.0095, 20.12264
538.4916, 18.43125
538.9737, 18.90927
539.4558, 20.41883
539.9379, 21.18533
540.4200, 20.65022
540.9022, 19.61663
541.3843, 19.19937
541.8664, 19.52001
542.3485, 19.77076
542.8306, 19.91179
543.3127, 20.01989
543.7948, 20.04637
544.2769, 20.07626
544.7590, 20.29635
545.2411, 20.81276
545.7233, 21.26941
546.2054, 21.08093
546.6875, 20.30665
547.1696, 19.85322
547.6517, 19.92543
548.1339, 20.21108
548.6160, 20.73899
549.0981, 21.30929
549.5802, 21.24844
550.0623, 19.62188
550.5444, 18.19281
551.0266, 18.40100
551.5087, 19.63652
551.9908, 20.47999
552.4729, 20.49574
552.9550, 20.21282
553.4371, 20.34886
553.9193, 21.09567
554.4014, 21.04343
554.8835, 19.11153
555.3656, 17.69247
555.8477, 18.04800
556.3298, 19.33320
556.8120, 20.36016
557.2941, 20.67954
557.7762, 20.44175
558.2583, 19.58242
558.7404, 17.91043
559.2225, 17.31070
559.7047, 18.66673
560.1868, 20.03291
560.6689, 20.54266
561.1510, 20.44371
561.6331, 20.10083
562.1152, 19.51462
562.5974, 19.01718
563.0795, 18.79831
563.5616, 18.90720
564.0437, 19.81642
564.5258, 21.88910
565.0079, 23.48161
565.4901, 22.71258
565.9722, 19.73520
566.4543, 18.16470
566.9364, 19.15906
567.4185, 20.22146
567.9006, 20.39257
568.3828, 20.05837
568.8649, 19.64190
569.3470, 19.31365
569.8291, 19.35587
570.3112, 20.27227
570.7933, 22.18332
571.2755, 22.81277
571.7576, 20.85444
572.2397, 19.22297
572.7218, 18.76633
573.2039, 18.91073
573.6860, 18.98287
574.1682, 18.81747
574.6503, 18.74588
575.1324, 19.22711
575.6145, 20.09730
576.0966, 20.56082
576.5787, 20.45868
577.0609, 20.38612
577.5430, 20.73257
578.0251, 21.35444
578.5072, 21.92266
578.9893, 22.55010
579.4714, 22.85428
579.9536, 22.37537
580.4357, 21.65692
580.9178, 21.44409
581.3999, 21.77035
581.8820, 22.06205
582.3641, 21.84481
582.8463, 21.25440
583.3284, 21.08889
583.8105, 21.75629
584.2926, 22.26987
584.7747, 22.72723
585.2568, 22.88679
585.7390, 22.30742
586.2211, 21.17139
586.7032, 20.26209
587.1853, 20.07695
587.6674, 20.56051
588.1495, 21.80990
588.6317, 24.03677
589.1138, 25.73203
589.5959, 26.41566
590.0780, 26.32266
590.5601, 25.53703
591.0422, 24.07284
591.5244, 23.04004
592.0065, 22.74886
592.4886, 23.05584
592.9707, 24.19227
593.4528, 25.86669
593.9349, 27.13282
594.4171, 27.54632
594.8992, 27.52909
595.3813, 27.81565
595.8634, 28.51312
596.3455, 29.20988
596.8276, 30.00329
597.3098, 30.69458
597.7919, 30.91027
598.2740, 31.04381
598.7561, 31.84806
599.2382, 33.65712
599.7203, 35.73686
600.2025, 37.02124
600.6846, 37.54306
601.1667, 38.37492
601.6488, 39.72771
602.1309, 41.18374
602.6130, 42.68367
603.0952, 44.05145
603.5773, 44.71511
604.0594, 43.83912
604.5415, 43.70972
605.0236, 46.26558
605.5057, 50.01669
605.9879, 52.63617
606.4700, 53.77923
606.9521, 54.43775
607.4342, 55.35108
607.9163, 56.51952
608.3984, 57.98538
608.8806, 60.32070
609.3627, 62.14394
609.8448, 62.56505
610.3269, 63.02378
610.8090, 65.04661
611.2911, 68.35905
611.7733, 71.18571
612.2554, 72.17722
612.7375, 71.96043
613.2196, 72.04304
613.7017, 72.49162
614.1838, 72.46523
614.6660, 71.37792
615.1481, 70.11553
615.6302, 70.04768
616.1123, 71.06310
616.5944, 71.09734
617.0765, 69.32200
617.5587, 66.82921
618.0408, 64.11707
618.5229, 61.28045
619.0050, 58.33918
619.4871, 55.31111
619.9692, 52.50171
620.4514, 50.35083
620.9335, 48.92165
621.4156, 47.61456
621.8977, 46.77423
622.3798, 45.63402
622.8619, 43.68990
623.3441, 41.50508
623.8262, 39.76860
624.3083, 38.64281
624.7904, 37.67255
625.2725, 36.32908
625.7546, 34.86621
626.2367, 34.21696
626.7188, 34.52795
627.2009, 34.38483
627.6830, 32.78732
628.1652, 30.48083
628.6473, 29.22006
629.1294, 29.27141
629.6115, 29.28390
630.0936, 29.19193
630.5757, 28.88414
631.0579, 27.98044
631.5400, 26.79704
632.0221, 26.14018
632.5042, 26.42974
632.9863, 27.25367
633.4684, 27.95096
633.9506, 28.60667
634.4327, 28.70508
634.9148, 27.95300
635.3969, 26.95686
635.8790, 25.83965
636.3611, 24.75161
636.8433, 23.92589
637.3254, 23.39524
637.8075, 23.22856
638.2896, 23.69803
638.7717, 24.50610
639.2538, 25.15527
639.7360, 25.56369
640.2181, 25.63634
640.7002, 25.24115
641.1823, 24.51471
641.6644, 24.00923
642.1465, 23.84877
642.6287, 23.75719
643.1108, 23.75232
643.5929, 23.79706
644.0750, 23.72031
644.5571, 23.66922
645.0392, 24.13222
645.5214, 25.52340
646.0035, 27.07380
646.4856, 27.36186
646.9677, 26.39274
647.4498, 25.41067
647.9319, 24.54557
648.4141, 23.88634
648.8962, 23.58822
649.3783, 23.57228
649.8604, 23.54387
650.3425, 23.24029
650.8246, 23.24799
651.3068, 24.17825
651.7889, 25.34782
652.2710, 25.91123
652.7531, 25.77366
653.2352, 25.31244
653.7173, 24.79598
654.1995, 24.23603
654.6816, 23.63177
655.1637, 22.80842
655.6458, 22.36553
656.1279, 22.83322
656.6100, 23.34884
657.0922, 23.18283
657.5743, 22.60822
658.0564, 22.67303
658.5385, 24.41178
659.0206, 26.05835
659.5027, 25.34261
659.9849, 23.18684
660.4670, 22.45626
660.9491, 23.84950
661.4312, 25.43131
661.9133, 25.33346
662.3954, 23.72812
662.8776, 23.07803
663.3597, 24.71727
663.8418, 25.56436
664.3239, 24.61997
664.8060, 23.30474
665.2881, 22.73928
665.7703, 22.94321
666.2524, 23.36087
666.7345, 23.73707
667.2166, 23.98044
667.6987, 23.80784
668.1808, 23.23642
668.6630, 22.95004
669.1451, 23.20612
669.6272, 23.55811
670.1093, 23.58298
670.5914, 23.29658
671.0735, 23.00742
671.5557, 22.59869
672.0378, 22.33627
672.5199, 22.60143
673.0020, 22.88633
673.4841, 22.46424
673.9662, 21.38184
674.4484, 20.40332
674.9305, 20.12145
675.4126, 20.37583
675.8947, 20.69261
676.3768, 21.13434
676.8589, 21.32402
677.3411, 20.79504
677.8232, 20.44220
678.3053, 21.40461
678.7874, 23.19876
679.2695, 23.99776
679.7516, 22.52198
680.2338, 21.04657
680.7159, 21.32684
681.1980, 22.31392
681.6801, 22.05877
682.1622, 20.39927
682.6443, 19.08286
683.1265, 19.66000
683.6086, 21.61500
684.0907, 22.38687
684.5728, 21.37574
685.0549, 20.49103
685.5370, 19.64773
686.0192, 19.30613
686.5013, 20.23999
686.9834, 21.92265
687.4655, 22.81952
687.9476, 22.00616
688.4297, 20.86713
688.9119, 20.82363
689.3940, 21.35835
689.8761, 21.08701
690.3582, 19.79068
690.8403, 18.68000
691.3224, 18.75175
691.8046, 19.72044
692.2867, 20.23213
692.7688, 20.05174
693.2509, 19.77204
693.7330, 19.16966
694.2151, 18.71218
694.6973, 18.72182
695.1794, 19.10004
695.6615, 19.62117
696.1436, 20.27023
696.6257, 20.74359
697.1078, 20.62851
697.5900, 20.05509
698.0721, 19.33216
698.5542, 18.46786
699.0363, 18.09683
699.5184, 18.85219
700.0005, 20.28372
700.4827, 20.78421
700.9648, 19.35920
701.4469, 18.61988
701.9290, 19.04045
702.4111, 19.73878
702.8932, 20.41332
703.3754, 20.91437
703.8575, 20.98108
704.3396, 20.47500
704.8217, 19.92537
705.3038, 20.24839
705.7859, 21.14569
706.2681, 20.85330
706.7502, 18.97485
707.2323, 17.84833
707.7144, 19.18533
708.1965, 21.75699
708.6786, 22.63716
709.1607, 21.12906
709.6428, 20.07744
710.1249, 20.00315
710.6071, 20.09374
711.0892, 20.00048
711.5713, 19.71750
712.0534, 19.15634
712.5355, 18.31955
713.0176, 17.73464
713.4998, 18.15438
713.9819, 19.37953
714.4640, 20.41999
714.9461, 21.29718
715.4282, 21.70620
715.9103, 21.30327
716.3925, 20.59547
716.8746, 20.44810
717.3567, 20.96415
717.8388, 21.08093
718.3209, 20.10221
718.8030, 19.37052
719.2852, 19.79184
719.7673, 20.72184
720.2494, 21.25891
720.7315, 21.20520
721.2136, 20.98211
721.6957, 21.00536
722.1779, 21.15085
722.6600, 20.78745
723.1421, 19.77402
723.6242, 19.56374
724.1063, 20.97569
724.5884, 22.69708
725.0706, 23.27381
725.5527, 22.79345
726.0348, 22.40716
726.5169, 22.54451
726.9990, 22.32877
727.4811, 20.95480
727.9633, 19.40189
728.4454, 18.61952
728.9275, 18.74661
729.4096, 19.65173
729.8917, 21.42674
730.3738, 23.44645
730.8560, 24.36662
731.3381, 24.16381
731.8202, 23.48804
732.3023, 22.19922
732.7844, 21.04255
733.2665, 20.65211
733.7487, 20.83759
734.2308, 20.82141
734.7129, 20.44287
735.1950, 20.16876
735.6771, 20.15192
736.1592, 20.22355
736.6414, 20.27001
737.1235, 20.28952
737.6056, 20.29550
738.0877, 20.29189
738.5698, 20.35134
739.0519, 20.66708
739.5341, 21.18492
740.0162, 21.42052
740.4983, 21.34233
740.9804, 20.97806
741.4625, 20.14444
741.9446, 19.20111
742.4268, 18.81289
742.9089, 19.00944
743.3910, 19.50681
743.8731, 20.89829
744.3552, 21.92000
744.8373, 21.59926
745.3195, 20.69142
745.8016, 20.27616
746.2837, 20.59161
746.7658, 21.12390
747.2479, 21.55989
747.7300, 21.80117
748.2122, 21.38836
748.6943, 20.30569
749.1764, 19.66247
749.6585, 19.88223
750.1406, 20.34310
750.6227, 20.40332
751.1049, 20.07758
751.5870, 19.93908
752.0691, 20.06604
752.5512, 20.25735
753.0333, 20.44461
753.5154, 20.70883
753.9976, 21.35340
754.4797, 22.14804
754.9618, 22.41391
755.4439, 21.75920
755.9260, 20.59159
756.4081, 19.06647
756.8903, 17.43934
757.3724, 16.94830
757.8545, 17.79116
758.3366, 18.91566
758.8187, 19.75863
759.3008, 20.34044
759.7830, 20.72570
760.2651, 20.99267
760.7472, 20.85842
761.2293, 19.42677
761.7114, 18.61866
762.1935, 19.80596
762.6757, 21.80749
763.1578, 23.16760
763.6399, 23.52852
764.1220, 23.10034
764.6041, 21.19336
765.0862, 19.07124
765.5684, 19.11825
766.0505, 20.85356
766.5326, 21.64435
767.0147, 20.60146
767.4968, 19.28980
767.9789, 19.55487
768.4611, 21.29322
768.9432, 21.95563
769.4253, 20.55923
769.9074, 19.77421
770.3895, 20.73780
770.8716, 21.77334
771.3538, 21.73687
771.8359, 20.81576
772.3180, 19.70715
772.8001, 18.20690
773.2822, 17.44454
773.7643, 19.06824
774.2465, 21.47100
774.7286, 21.96268
775.2107, 20.67378
775.6928, 19.91686
776.1749, 21.04564
776.6570, 22.80092
777.1392, 22.37130
777.6213, 19.19004
778.1034, 18.13215
778.5855, 20.53375
779.0676, 22.52249
779.5497, 21.76161
780.0319, 20.04851
780.5140, 19.91164
780.9961, 21.54629
781.4782, 22.45321
781.9603, 21.26184
782.4424, 19.99969
782.9246, 20.02073
783.4067, 20.63579
783.8888, 20.73205
784.3709, 20.15304
784.8530, 19.58100
785.3351, 19.59280
785.8173, 19.93409
786.2994, 19.90199
786.7815, 19.49529
787.2636, 19.38704
787.7457, 19.71565
788.2278, 20.35101
788.7100, 21.47711
789.1921, 22.76977
789.6742, 22.85173
790.1563, 20.54992
790.6384, 19.25160
791.1205, 20.15411
791.6026, 21.07734
792.0847, 20.57012
792.5668, 19.32017
793.0490, 18.56626
793.5311, 18.67365
794.0132, 19.13306
794.4953, 19.58874
794.9774, 20.09167
795.4595, 20.98393
795.9417, 22.09844
796.4238, 22.34268
796.9059, 21.32537
797.3880, 19.86231
797.8701, 18.77656
798.3522, 18.07025
798.8344, 17.88612
799.3165, 18.57960
799.7986, 19.10909
800.2807, 19.08041
800.7628, 19.04863
801.2449, 19.31577
801.7271, 19.84265
802.2092, 20.58175
802.6913, 21.84628
803.1734, 22.50479
803.6555, 21.15531
804.1376, 19.48755
804.6198, 19.68059
805.1019, 21.21499
805.5840, 22.07651
806.0661, 21.40275
806.5482, 20.29642
807.0303, 20.28612
807.5125, 21.23409
807.9946, 21.89759
808.4767, 22.30812
808.9588, 22.22409
809.4409, 21.38314
809.9230, 20.29179
810.4052, 19.26268
810.8873, 18.32347
811.3694, 18.67360
811.8515, 22.16143
812.3336, 24.40730
812.8157, 23.76914
813.2979, 22.21236
813.7800, 20.77892
814.2621, 19.83851
814.7442, 19.97422
815.2263, 21.63744
815.7084, 23.33932
816.1906, 23.48349
816.6727, 22.65991
817.1548, 21.89914
817.6369, 21.32927
818.1190, 21.24019
818.6011, 21.80119
819.0833, 22.48105
819.5654, 22.45461
820.0475, 21.68254
820.5296, 21.36663
821.0117, 21.82541
821.4938, 22.07730
821.9760, 21.60327
822.4581, 21.06054
822.9402, 21.14521
823.4223, 21.67754
823.9044, 21.78061
824.3865, 20.88917
824.8687, 20.15307
825.3508, 20.04357
825.8329, 20.27053
826.3150, 20.87595
826.7971, 21.54400
827.2792, 21.43307
827.7614, 20.15849
828.2435, 18.73004
828.7256, 18.33116
829.2077, 18.81187
829.6898, 19.96345
830.1719, 21.76455
830.6541, 22.43596
831.1362, 21.09912
831.6183, 19.18046
832.1004, 18.36668
832.5825, 18.64350
833.0646, 18.74729
833.5468, 18.41766
834.0289, 18.32341
834.5110, 18.85644
834.9931, 19.34166
835.4752, 19.13303
835.9573, 18.56307
836.4395, 18.56810
836.9216, 19.59823
837.4037, 20.49753
837.8858, 20.55949
838.3679, 20.26546
838.8500, 20.02702
839.3322, 19.87806
839.8143, 19.83322
840.2964, 19.88116
840.7785, 19.84656
841.2606, 19.47223
841.7427, 18.88415
842.2249, 18.59197
842.7070, 18.60503
843.1891, 18.77789
843.6712, 19.18594
844.1533, 19.33626
844.6354, 18.56371
845.1176, 17.22062
845.5997, 17.06724
846.0818, 19.43247
846.5639, 20.88047
847.0460, 20.95606
847.5281, 20.64453
848.0103, 20.15168
848.4924, 19.68008
848.9745, 19.52486
849.4566, 19.74334
849.9387, 19.95932
850.4208, 19.97849
850.9030, 19.91005
851.3851, 19.88462
851.8672, 19.83668
852.3493, 19.59443
852.8314, 19.15708
853.3135, 18.69107
853.7957, 18.28610
854.2778, 18.06317
854.7599, 18.47465
855.2420, 19.49914
855.7241, 19.93776
856.2062, 19.54957
856.6884, 19.15206
857.1705, 19.22437
857.6526, 19.49446
858.1347, 19.40106
858.6168, 18.74129
859.0989, 18.64487
859.5811, 20.20505
860.0632, 20.90304
860.5453, 19.21985
861.0274, 17.15553
861.5095, 16.54462
861.9916, 17.26024
862.4738, 18.05866
862.9559, 18.63890
863.4380, 18.95318
863.9201, 18.85880
864.4022, 18.55485
864.8843, 18.08333
865.3665, 17.62765
865.8486, 17.75657
866.3307, 18.68900
866.8128, 19.73939
867.2949, 20.07097
867.7770, 19.80133
868.2592, 19.28477
868.7413, 18.51271
869.2234, 18.31429
869.7055, 19.04111
870.1876, 19.87853
870.6697, 20.04447
871.1519, 19.67184
871.6340, 19.52183
872.1161, 19.88942
872.5981, 19.91202
873.0803, 18.97724
873.5624, 18.31653
874.0445, 18.82172
874.5266, 19.74068
875.0087, 19.85625
875.4908, 18.95794
875.9730, 18.41745
876.4551, 19.08529
876.9372, 19.83520
877.4193, 20.01924
877.9014, 19.83763
878.3835, 19.44592
878.8657, 18.97670
879.3478, 18.72736
879.8299, 18.89866
880.3120, 19.27559
880.7941, 19.52674
881.2762, 19.74161
881.7584, 20.38956
882.2405, 21.43322
882.7226, 21.94391
883.2047, 21.48200
883.6868, 20.50742
884.1689, 19.61038
884.6511, 18.78885
885.1332, 17.97809
885.6153, 16.96239
886.0974, 16.58925
886.5795, 17.39172
887.0616, 18.40635
887.5438, 18.99675
888.0259, 19.22183
888.5080, 19.20044
888.9901, 18.56151
889.4722, 18.57611
889.9543, 20.70695
890.4365, 22.14111
890.9186, 20.67502
891.4007, 17.98609
891.8828, 16.28657
892.3649, 15.92635
892.8470, 16.09037
893.3292, 16.49121
893.8113, 17.00161
894.2934, 17.75677
894.7755, 18.42555
895.2576, 18.23317
895.7397, 17.28395
896.2219, 16.47665
896.7040, 16.28855
897.1861, 16.34268
897.6682, 15.95894
898.1503, 16.12081
898.6324, 16.34023
899.1146, 16.24493
899.5967, 16.89449
900.0788, 16.86569
900.5609, 16.79127
901.0430, 17.45645
901.5251, 18.58909
902.0073, 18.38763
902.4894, 15.63840
902.9715, 14.04818
903.4536, 14.41499
903.9357, 15.26141
904.4178, 16.45850
904.9000, 17.47634
905.3821, 17.34942
905.8642, 15.92945
906.3463, 15.00758
906.8284, 15.12835
907.3105, 15.70136
907.7927, 17.07102
908.2748, 18.31724
908.7569, 18.23363
909.2390, 17.13183
909.7211, 16.34762
910.2032, 16.51905
910.6854, 16.87401
911.1675, 16.77112
911.6496, 16.35321
912.1317, 15.50658
912.6138, 14.54760
913.0959, 14.68685
913.5781, 16.20640
914.0602, 17.80093
914.5423, 18.24109
915.0244, 17.86259
915.5065, 17.69386
915.9886, 17.73776
916.4708, 17.49153
916.9529, 16.79881
917.4350, 16.36547
917.9171, 16.69107
918.3992, 17.28588
918.8813, 17.24425
919.3635, 16.43670
919.8456, 16.00130
920.3277, 16.28624
920.8098, 16.36964
921.2919, 15.52289
921.7740, 14.89557
922.2562, 15.82337
922.7383, 17.60721
923.2204, 18.00147
923.7025, 15.90796
924.1846, 14.60022
924.6667, 15.89658
925.1489, 17.13708
925.6310, 16.47522
926.1131, 14.88877
926.5952, 13.54881
927.0773, 12.78074
927.5594, 12.84217
928.0416, 14.39588
928.5237, 15.97282
929.0058, 15.94526
929.4879, 15.22155
929.9700, 15.27149
930.4521, 16.05111
930.9343, 16.81334
931.4164, 17.23444
931.8985, 17.40310
932.3806, 17.31211
932.8627, 17.09130
933.3448, 17.34436
933.8270, 17.98367
934.3091, 17.87516
934.7912, 16.73262
935.2733, 15.66278
935.7554, 15.52086
936.2375, 15.79873
936.7197, 15.10500
937.2018, 13.06534
937.6839, 12.30332
938.1660, 13.37044
938.6481, 14.29265
939.1302, 14.18506
939.6124, 13.99028
940.0945, 14.91931
940.5766, 16.76921
941.0587, 17.62269
941.5408, 16.81956
942.0229, 16.07554
942.5051, 15.42206
942.9872, 14.89565
943.4693, 14.37772
943.9514, 14.06812
944.4335, 14.37413
944.9156, 15.30987
945.3978, 16.05690
945.8799, 16.30944
946.3620, 16.34158
946.8441, 16.09705
947.3262, 15.84766
947.8083, 15.94889
948.2905, 16.28035
948.7726, 16.42570
949.2547, 16.22901
949.7368, 16.09609
950.2189, 16.74879
950.7010, 17.37775
951.1832, 16.42908
951.6653, 14.66619
952.1474, 14.07877
952.6295, 14.90110
953.1116, 15.92862
953.5938, 16.41069
954.0759, 16.54518
954.5580, 16.60329
955.0400, 16.60034
955.5222, 16.60629
956.0043, 16.62508
956.4864, 16.70680
956.9685, 16.87510
957.4506, 17.07199
957.9327, 17.29682
958.4149, 17.43611
958.8970, 16.83609
959.3791, 15.17056
959.8612, 14.48893
960.3433, 15.27986
960.8254, 16.15066
961.3076, 16.58081
961.7897, 16.60810
962.2718, 16.14840
962.7539, 15.18341
963.2360, 14.73938
963.7181, 15.48016
964.2003, 15.71500
964.6824, 14.71207
965.1645, 13.79294
965.6466, 13.55573
966.1287, 13.90445
966.6108, 14.91955
967.0930, 16.76153
967.5751, 17.60822
968.0572, 16.19553
968.5393, 14.82988
969.0214, 14.17548
969.5035, 14.17029
969.9857, 15.19663
970.4678, 16.73586
970.9499, 17.56907
971.4320, 17.27229
971.9141, 16.58468
972.3962, 15.63552
972.8784, 14.77352
973.3605, 14.09899
973.8426, 13.82812
974.3247, 14.63648
974.8068, 16.26017
975.2889, 17.28462
975.7711, 16.83227
976.2532, 16.05445
976.7353, 16.51196
977.2174, 17.38685
977.6995, 16.85679
978.1816, 15.35298
978.6638, 14.81349
979.1459, 15.65945
979.6280, 16.42940
980.1101, 15.89543
980.5922, 14.70530
981.0743, 14.09213
981.5565, 14.02475
982.0386, 14.39770
982.5207, 15.18987
983.0028, 16.15233
983.4849, 17.24158
983.9670, 17.86180
984.4492, 17.21674
984.9313, 15.68605
985.4134, 15.10901
985.8955, 15.60917
986.3776, 16.24879
986.8597, 17.09702
987.3419, 17.43489
987.8240, 16.77225
988.3061, 15.66977
988.7882, 14.85083
989.2703, 14.31876
989.7524, 14.28549
990.2346, 15.24944
990.7167, 15.53839
991.1988, 14.02251
991.6809, 13.13346
992.1630, 14.99698
992.6451, 17.96522
993.1273, 18.97114
993.6094, 17.70096
994.0915, 16.78441
994.5736, 16.14304
995.0557, 16.01354
995.5378, 16.93287
996.0200, 17.90043
996.5021, 18.23543
996.9842, 18.13866
997.4663, 18.02718
997.9484, 17.94413
998.4305, 17.93335
998.9127, 18.19293
999.3948, 18.29348
999.8769, 17.91655
1000.359, 17.40590
1000.841, 17.02781
1001.323, 16.80585
1001.805, 16.69199
1002.287, 16.66422
1002.770, 16.81579
1003.252, 17.23612
1003.734, 17.80680
1004.216, 18.64297
1004.698, 19.45721
1005.180, 19.91162
1005.662, 19.98568
1006.144, 19.77092
1006.627, 19.27156
1007.109, 18.75363
1007.591, 18.70026
1008.073, 18.53156
1008.555, 17.02848
1009.037, 15.08196
1009.519, 14.52008
1010.001, 15.50768
1010.483, 17.05761
1010.966, 18.67816
1011.448, 20.09617
1011.930, 20.99890
1012.412, 21.45934
1012.894, 21.51259
1013.376, 21.26189
1013.858, 20.89016
1014.340, 20.50547
1014.823, 20.51382
1015.305, 21.24199
1015.787, 22.27425
1016.269, 23.06972
1016.751, 23.57728
1017.233, 23.29489
1017.715, 22.38722
1018.197, 22.30573
1018.679, 23.44487
1019.162, 24.85660
1019.644, 25.83165
1020.126, 26.33801
1020.608, 26.12162
1021.090, 25.26217
1021.572, 24.90162
1022.054, 25.09904
1022.536, 25.22142
1023.018, 25.03124
1023.501, 25.10302
1023.983, 26.09929
1024.465, 25.62407
1024.947, 25.33887
1025.429, 25.37240
1025.911, 24.18738
1026.393, 23.92494
1026.875, 23.84732
1027.358, 23.74435
1027.840, 23.62377
1028.322, 23.53313
1028.804, 23.39892
1029.286, 22.87148
1029.768, 21.78706
1030.250, 21.00109
1030.732, 20.62967
1031.214, 20.29510
1031.697, 19.90336
1032.179, 19.40564
1032.661, 18.60290
1033.143, 17.67702
1033.625, 17.63871
1034.107, 19.20424
1034.589, 19.80787
1035.071, 18.85753
1035.553, 17.99461
1036.036, 17.93272
1036.518, 18.02938
1037.000, 17.42346
1037.482, 17.84540
1037.964, 18.34188
1038.446, 18.32675
1038.928, 19.54138
1039.410, 19.79741
1039.893, 19.57147
1040.375, 18.60821
1040.857, 17.55622
1041.339, 16.89103
1041.821, 16.65367
1042.303, 17.16269
1042.785, 19.59182
1043.267, 20.48741
1043.750, 18.23516
1044.232, 16.26655
1044.714, 15.91964
1045.196, 16.30011
1045.678, 16.74621
1046.160, 17.16230
1046.642, 17.31274
1047.124, 17.21067
1047.606, 16.76345
1048.089, 15.17730
1048.571, 14.20146
1049.053, 15.18940
1049.535, 16.60231
1050.017, 16.69382
1050.499, 15.81652
1050.981, 15.82119
1051.463, 17.57226
1051.945, 18.65207
1052.428, 18.36125
1052.910, 17.52666
1053.392, 15.82830
1053.874, 14.30711
1054.356, 14.44076
1054.838, 15.65423
1055.320, 15.58563
1055.802, 13.03707
1056.285, 11.72945
1056.767, 13.95638
1057.249, 16.16917
1057.731, 16.51285
1058.213, 16.10386
1058.695, 15.94349
1059.177, 16.10410
1059.659, 16.47177
1060.141, 17.11129
1060.624, 17.51841
1061.106, 17.70295
1061.588, 17.39141
1062.070, 15.95860
1062.552, 14.35114
1063.034, 13.42481
1063.516, 13.15358
1063.998, 13.31419
1064.480, 13.93964
1064.963, 14.28920
1065.445, 13.95135
1065.927, 13.40870
1066.409, 12.49600
1066.891, 11.84445
1067.373, 12.34955
1067.855, 13.54974
1068.337, 14.32105
1068.820, 14.38840
1069.302, 14.15662
1069.784, 13.43243
1070.266, 12.90650
1070.748, 13.03357
1071.230, 13.44048
1071.712, 13.99074
1072.194, 14.47221
1072.677, 14.45187
1073.159, 13.85131
1073.641, 13.40568
1074.123, 13.87553
1074.605, 14.01388
1075.087, 12.49712
1075.569, 11.00529
1076.051, 11.28652
1076.533, 12.58330
1077.016, 13.35325
1077.498, 13.32351
1077.980, 13.19333
1078.462, 13.09933
1078.944, 13.19935
1079.426, 13.80696
1079.908, 14.40813
1080.390, 14.49989
1080.872, 14.34313
1081.354, 14.47555
1081.837, 14.89961
1082.319, 14.96420
1082.801, 14.09619
1083.283, 13.46972
1083.765, 14.12232
1084.247, 14.70705
1084.729, 13.95163
1085.211, 12.68912
1085.694, 12.09378
1086.176, 12.21306
1086.658, 12.39296
1087.140, 12.44653
1087.622, 12.46106
1088.104, 12.37842
1088.586, 12.37543
1089.068, 12.52577
1089.551, 12.84582
1090.033, 13.52496
1090.515, 14.38385
1090.997, 14.82150
1091.479, 14.61782
1091.961, 14.27461
1092.443, 13.89520
1092.925, 13.52890
1093.407, 12.97829
1093.890, 12.64220
1094.372, 13.38978
1094.854, 14.56721
1095.336, 14.31608
1095.818, 12.03969
1096.300, 10.55078
1096.782, 11.35333
1097.264, 12.29404
1097.746, 12.78313
1098.229, 12.83653
1098.711, 12.11182
1099.193, 11.12608
1099.675, 10.86379
1100.157, 11.46182
1100.639, 11.91352
1101.121, 11.70276
1101.603, 11.69701
1102.086, 12.30396
1102.568, 12.99996
1103.050, 13.81152
1103.532, 14.30371
1104.014, 13.54173
1104.496, 11.67161
1104.978, 10.74038
1105.460, 11.78217
1105.943, 12.61354
1106.425, 12.83458
1106.907, 12.85277
1107.389, 12.65809
1107.871, 12.49599
1108.353, 12.83528
1108.835, 13.46860
1109.317, 13.38589
1109.799, 12.18685
1110.281, 11.08021
1110.764, 9.711000
1111.246, 9.033578
1111.728, 10.01523
1112.210, 11.14808
1112.692, 11.11995
1113.174, 10.35994
1113.656, 9.969274
1114.138, 9.990505
1114.621, 10.20241
1115.103, 10.89698
1115.585, 11.30016
1116.067, 11.18621
1116.549, 10.88362
1117.031, 10.46820
1117.513, 10.05790
1117.995, 9.750384
1118.478, 9.538075
1118.960, 10.14687
1119.442, 12.30546
1119.924, 13.52217
1120.406, 13.28459
1120.888, 12.66183
1121.370, 11.82209
1121.852, 11.28420
1122.334, 11.79558
1122.817, 13.09538
1123.299, 13.74321
1123.781, 13.61460
1124.263, 13.29886
1124.745, 12.68468
1125.227, 12.38869
1125.709, 12.71900
1126.191, 13.00676
1126.673, 12.62200
1127.156, 11.94431
1127.638, 11.95859
1128.120, 12.69643
1128.602, 13.07351
1129.084, 13.02361
1129.566, 13.40550
1130.048, 14.48069
1130.530, 15.05093
1131.013, 14.32171
1131.495, 13.30962
1131.977, 13.76252
1132.459, 15.10688
1132.941, 13.84073
1133.423, 14.15009
1133.905, 14.68148
1134.387, 12.87697
1134.870, 14.77729
1135.352, 13.71696
1135.834, 11.82036
1136.316, 11.02115
1136.798, 11.02141
1137.280, 11.39315
1137.762, 11.99772
1138.244, 12.23296
1138.726, 12.20293
1139.208, 12.60897
1139.691, 13.56072
1140.173, 14.52610
1140.655, 15.21397
1141.137, 15.44503
1141.619, 14.75211
1142.101, 13.61583
1142.583, 12.82822
1143.065, 12.30479
1143.548, 11.79048
1144.030, 11.30089
1144.512, 11.10231
1144.994, 11.27894
1145.476, 11.40178
1145.958, 11.06981
1146.440, 10.59976
1146.922, 9.951071
1147.405, 9.628693
1147.887, 10.85359
1148.369, 12.70982
1148.851, 13.09815
1149.333, 11.84272
1149.815, 10.77006
1150.297, 10.78853
1150.779, 11.00755
1151.261, 10.95561
1151.744, 10.85540
1152.226, 10.70864
1152.708, 10.72458
1153.190, 11.22780
1153.672, 12.09631
1154.154, 13.03488
1154.636, 14.10145
1155.118, 14.38094
1155.600, 12.95576
1156.083, 11.59153
1156.565, 10.35829
1157.047, 9.943337
1157.529, 11.79380
1158.011, 14.26778
1158.493, 14.40473
1158.975, 12.12344
1159.457, 10.90605
1159.940, 11.92175
1160.422, 12.42531
1160.904, 11.82789
1161.386, 11.45628
1161.868, 12.08525
1162.350, 12.72775
1162.832, 12.41951
1163.314, 11.44909
1163.796, 10.63328
1164.279, 9.838343
1164.761, 10.10113
1165.243, 11.88203
1165.725, 13.09601
1166.207, 13.30251
1166.689, 12.99619
1167.171, 12.36496
1167.653, 11.65091
1168.135, 11.18319
1168.618, 10.94560
1169.100, 10.90210
1169.582, 11.04847
1170.064, 11.05384
1170.546, 10.89198
1171.028, 10.59809
1171.510, 10.18390
1171.992, 9.942927
1172.474, 10.12339
1172.957, 10.54957
1173.439, 11.02219
1173.921, 11.46134
1174.403, 11.58879
1174.885, 11.69164
1175.367, 11.39885
1175.849, 11.37131
1176.331, 11.11514
1176.814, 10.53658
1177.296, 10.46265
1177.778, 12.14219
1178.260, 14.00431
1178.742, 14.23246
1179.224, 13.50932
1179.706, 12.32848
1180.188, 11.12659
1180.671, 10.67930
1181.153, 10.99671
1181.635, 11.28539
1182.117, 11.13966
1182.599, 11.15237
1183.081, 11.95787
1183.563, 12.64495
1184.045, 12.39251
1184.527, 11.96049
1185.010, 12.30645
1185.492, 13.03708
1185.974, 13.08325
1186.456, 12.26205
1186.938, 11.49228
1187.420, 10.66344
1187.902, 10.29005
1188.384, 10.97538
1188.866, 11.48397
1189.349, 10.88537
1189.831, 10.24603
1190.313, 10.80498
1190.795, 12.22413
1191.277, 13.22056
1191.759, 13.87889
1192.241, 13.60659
1192.723, 12.02866
1193.206, 10.78309
1193.688, 10.10552
1194.170, 10.36778
1194.652, 12.05897
1195.134, 13.75614
1195.616, 13.21594
1196.098, 14.15247
1196.580, 13.95022
1197.063, 13.33732
1197.545, 13.18841
1198.027, 10.96024
1198.509, 10.32690
1198.991, 12.20969
1199.473, 14.10158
1199.955, 14.28389
1200.437, 13.58410
1200.919, 12.66952
1201.401, 11.89426
1201.884, 12.16509
1202.366, 12.89676
1202.848, 12.91751
1203.330, 12.29596
1203.812, 11.56130
1204.294, 10.93853
1204.776, 10.84630
1205.258, 11.89223
1205.741, 12.81411
1206.223, 12.54581
1206.705, 12.11727
1207.187, 12.39570
1207.669, 12.92628
1208.151, 13.06078
1208.633, 12.90136
1209.115, 13.03203
1209.598, 13.66041
1210.080, 13.92306
1210.562, 13.65811
1211.044, 13.06412
1211.526, 11.14223
1212.008, 10.24010
1212.490, 12.36511
1212.972, 15.07663
1213.454, 15.41089
1213.937, 13.86247
1214.419, 12.79918
1214.901, 12.29072
1215.383, 11.87473
1215.865, 11.48521
1216.347, 11.70182
1216.829, 12.74422
1217.311, 13.63521
1217.793, 13.81658
1218.276, 13.46943
1218.758, 12.76089
1219.240, 11.81213
1219.722, 10.68649
1220.204, 9.651060
1220.686, 10.15309
1221.168, 11.69738
1221.650, 11.69803
1222.133, 9.882222
1222.615, 8.891246
1223.097, 10.32180
1223.579, 11.88889
1224.061, 11.01419
1224.543, 12.22113
1225.025, 10.81251
1225.507, 12.34482
1225.990, 12.31797
1226.472, 11.31790
1226.954, 10.84633
1227.436, 11.12028
1227.918, 11.33948
1228.400, 11.01198
1228.882, 11.17186
1229.364, 12.86311
1229.846, 14.03267
1230.328, 13.68359
1230.811, 12.69823
1231.293, 11.41006
1231.775, 10.18505
1232.257, 9.765676
1232.739, 10.14634
1233.221, 10.52108
1233.703, 10.95177
1234.185, 11.01769
1234.668, 10.56017
1235.150, 10.62219
1235.632, 11.65552
1236.114, 12.18466
1236.596, 10.87231
1237.078, 9.364162
1237.560, 11.33242
1238.042, 10.44166
1238.525, 10.41642
1239.007, 11.56221
1239.489, 10.51308
1239.971, 11.60010
1240.453, 12.71889
1240.935, 13.16468
1241.417, 13.12668
1241.899, 12.59520
1242.381, 12.06400
1242.864, 11.68435
1243.346, 11.73051
1243.828, 13.10197
1244.310, 14.47689
1244.792, 14.06490
1245.274, 12.55518
1245.756, 11.79283
1246.238, 12.04051
1246.720, 11.81410
1247.203, 9.985275
1247.685, 9.146734
1248.167, 10.04193
1248.649, 11.11130
1249.131, 12.13853
1249.613, 12.75441
1250.095, 12.52353
1250.577, 12.95213
1251.059, 11.97785
1251.542, 12.57989
1252.024, 12.48041
1252.506, 11.68773
1252.988, 11.60701
1253.470, 12.31729
1253.952, 12.78631
1254.434, 12.69164
1254.916, 12.31374
1255.399, 11.82039
1255.881, 11.37361
1256.363, 11.19560
1256.845, 11.17561
1257.327, 10.93934
1257.809, 10.90146
1258.291, 12.18343
1258.773, 14.03003
1259.255, 14.75535
1259.738, 14.07034
1260.220, 12.64153
1260.702, 10.10458
1261.184, 8.524428
1261.666, 8.969934
1262.148, 9.940329
1262.630, 11.36408
1263.112, 12.56042
1263.594, 13.07806
1264.077, 13.06819
1264.559, 12.70511
1265.041, 12.00403
1265.523, 10.95327
1266.005, 9.307490
1266.487, 8.946099
1266.969, 10.07782
1267.451, 10.93808
1267.934, 11.10080
1268.416, 11.37646
1268.898, 12.24191
1269.380, 13.09484
1269.862, 13.29265
1270.344, 12.90754
1270.826, 11.50143
1271.308, 9.951826
1271.791, 10.24669
1272.273, 11.61722
1272.755, 12.44322
1273.237, 12.41912
1273.719, 11.55856
1274.201, 9.768904
1274.683, 8.808886
1275.165, 10.08465
1275.647, 11.43802
1276.130, 12.52587
1276.612, 12.92060
1277.094, 11.71639
1277.576, 10.25998
1278.058, 10.13823
1278.540, 10.81211
1279.022, 10.64962
1279.504, 11.24665
1279.986, 12.10690
1280.469, 12.18844
1280.951, 13.62694
1281.433, 13.86450
1281.915, 13.56747
1282.397, 12.97160
1282.879, 12.42984
1283.361, 12.21731
1283.843, 12.22900
1284.326, 12.34184
1284.808, 12.55554
##END=



