##NAMES=Pyrosmalite-(Fe)
##RRUFFID=R050158
##IDEAL CHEMISTRY=Fe^2+^_8_Si_6_O_15_(OH)_10_
##LOCALITY=Burguillos del Cerro, Badajos, Spain
##OWNER=RRUFF
##SOURCE=Jim McGlasson
##DESCRIPTION=Green subhedral crystal aggregate
##STATUS=The identification of this mineral has been confirmed by X-ray diffraction and chemical analysis
##URL=rruff.info/R050158
##MEASURED CHEMISTRY=(Fe^2+^_0.92_Mn^2+^_0.06_Mg_0.02_)_8_Si_6_O_15_(OH_0.83_Cl_0.17_)_10_
93.46680, 166.3957
93.94891, 164.1739
94.43103, 164.6155
94.91315, 166.5925
95.39526, 168.1437
95.87738, 168.8978
96.35950, 169.1804
96.84161, 169.0547
97.32373, 168.3957
97.80585, 167.5914
98.28796, 167.2413
98.77008, 167.6287
99.25220, 168.1306
99.73431, 167.7445
100.2164, 166.0051
100.6985, 164.3043
101.1807, 163.4250
101.6628, 163.2298
102.1449, 163.6189
102.6270, 164.5864
103.1091, 165.9972
103.5912, 167.0894
104.0734, 167.5286
104.5555, 167.9457
105.0376, 168.3193
105.5197, 168.7388
106.0018, 169.3391
106.4839, 170.2302
106.9661, 171.4390
107.4482, 172.8406
107.9303, 174.6304
108.4124, 176.3716
108.8945, 177.7673
109.3766, 178.7915
109.8588, 179.6789
110.3409, 180.6567
110.8230, 181.7090
111.3051, 182.9726
111.7872, 184.6504
112.2693, 186.5052
112.7515, 188.1950
113.2336, 189.6164
113.7157, 190.8505
114.1978, 192.0312
114.6799, 193.1629
115.1620, 194.1550
115.6442, 194.9957
116.1263, 195.6812
116.6084, 196.0356
117.0905, 195.7464
117.5726, 195.2690
118.0547, 194.7773
118.5369, 194.3018
119.0190, 194.0631
119.5011, 194.5015
119.9832, 196.0911
120.4653, 197.2067
120.9474, 197.4234
121.4296, 197.2435
121.9117, 196.9782
122.3938, 196.7616
122.8759, 196.6690
123.3580, 196.9553
123.8401, 198.4837
124.3223, 199.4694
124.8044, 199.1883
125.2865, 198.3261
125.7686, 197.9527
126.2507, 198.7747
126.7328, 200.6923
127.2150, 202.2171
127.6971, 203.1840
128.1792, 204.0330
128.6613, 204.7444
129.1434, 205.4133
129.6255, 206.4549
130.1077, 208.3385
130.5898, 210.9941
131.0719, 213.3461
131.5540, 215.1054
132.0361, 216.6891
132.5182, 218.5486
133.0004, 220.7464
133.4825, 223.0681
133.9646, 225.3126
134.4467, 227.5482
134.9288, 229.9062
135.4109, 232.4924
135.8931, 235.2498
136.3752, 238.0452
136.8573, 240.9867
137.3394, 243.7966
137.8215, 246.1445
138.3036, 248.1972
138.7858, 250.4264
139.2679, 253.4557
139.7500, 257.4735
140.2321, 260.7668
140.7142, 262.8710
141.1963, 264.5945
141.6785, 266.1008
142.1606, 267.4811
142.6427, 268.8929
143.1248, 270.6781
143.6069, 273.6502
144.0890, 274.9701
144.5712, 274.0285
145.0533, 272.1862
145.5354, 270.1967
146.0175, 268.3246
146.4996, 266.5543
146.9817, 264.8835
147.4639, 263.7126
147.9460, 261.9491
148.4281, 258.7637
148.9102, 255.1824
149.3923, 252.5905
149.8744, 251.5981
150.3566, 251.5502
150.8387, 250.8735
151.3208, 249.2157
151.8029, 247.9098
152.2850, 247.6444
152.7671, 248.1702
153.2493, 248.6850
153.7314, 248.8389
154.2135, 248.8286
154.6956, 248.9987
155.1777, 249.3596
155.6598, 249.8705
156.1420, 250.4622
156.6241, 251.1219
157.1062, 252.0226
157.5883, 253.3937
158.0704, 254.9762
158.5525, 256.6620
159.0347, 258.5243
159.5168, 260.1951
159.9989, 260.8954
160.4810, 259.9583
160.9631, 259.7159
161.4452, 261.3721
161.9274, 263.7096
162.4095, 265.6494
162.8916, 266.6983
163.3737, 267.0223
163.8558, 267.1354
164.3379, 266.8852
164.8201, 266.6057
165.3022, 266.0579
165.7843, 265.5844
166.2664, 265.7007
166.7485, 266.7645
167.2306, 268.6157
167.7128, 269.9072
168.1949, 270.0806
168.6770, 270.2968
169.1591, 270.8000
169.6412, 271.5433
170.1233, 272.4092
170.6055, 273.3374
171.0876, 274.3255
171.5697, 275.0996
172.0518, 275.3921
172.5339, 275.7622
173.0160, 276.3846
173.4982, 277.2873
173.9803, 278.5494
174.4624, 280.3309
174.9445, 282.6030
175.4266, 284.6222
175.9087, 286.2700
176.3909, 287.7601
176.8730, 289.1899
177.3551, 290.5641
177.8372, 292.0509
178.3193, 293.8834
178.8014, 295.9529
179.2836, 297.8822
179.7657, 299.6136
180.2478, 301.1581
180.7299, 302.5103
181.2120, 303.6100
181.6941, 304.6693
182.1763, 306.0513
182.6584, 307.5029
183.1405, 308.4875
183.6226, 308.5527
184.1047, 307.9561
184.5868, 307.6869
185.0690, 308.5038
185.5511, 308.3970
186.0332, 306.1986
186.5153, 302.5667
186.9974, 298.7487
187.4795, 295.6573
187.9617, 293.2026
188.4438, 290.1925
188.9259, 286.4132
189.4080, 282.1996
189.8901, 277.4040
190.3722, 272.2507
190.8544, 267.1834
191.3365, 262.6695
191.8186, 258.7671
192.3007, 254.3078
192.7828, 248.6956
193.2649, 243.0657
193.7471, 237.8823
194.2292, 233.0676
194.7113, 228.2201
195.1934, 222.9778
195.6755, 217.2024
196.1576, 211.7828
196.6398, 206.9557
197.1219, 202.1795
197.6040, 197.0324
198.0861, 191.6120
198.5682, 186.3936
199.0503, 181.8894
199.5325, 178.2412
200.0146, 174.6838
200.4967, 171.3016
200.9788, 167.9382
201.4609, 164.4614
201.9430, 160.8604
202.4252, 157.2542
202.9073, 153.6461
203.3894, 150.0289
203.8715, 147.0246
204.3536, 145.0516
204.8357, 143.4818
205.3179, 141.7914
205.8000, 139.9109
206.2821, 137.8679
206.7642, 135.5515
207.2463, 133.0192
207.7284, 130.7023
208.2106, 128.5954
208.6927, 126.7837
209.1748, 125.4618
209.6569, 124.7252
210.1390, 124.1756
210.6211, 123.5579
211.1033, 122.8736
211.5854, 122.0943
212.0675, 121.2539
212.5496, 120.3044
213.0317, 119.0203
213.5138, 117.1141
213.9960, 115.4877
214.4781, 114.8314
214.9602, 114.8388
215.4423, 114.9225
215.9244, 114.8100
216.4065, 114.5363
216.8886, 114.2080
217.3708, 113.6777
217.8529, 113.3335
218.3350, 113.3882
218.8171, 113.7217
219.2992, 114.1230
219.7813, 114.5205
220.2635, 114.8862
220.7456, 114.9843
221.2277, 114.3853
221.7098, 114.0490
222.1919, 114.4831
222.6740, 115.3668
223.1562, 116.1283
223.6383, 116.3347
224.1204, 116.0479
224.6025, 116.0297
225.0846, 116.4009
225.5667, 116.9555
226.0489, 117.8942
226.5310, 118.9711
227.0131, 119.7607
227.4952, 119.9446
227.9773, 119.5653
228.4594, 119.3200
228.9416, 118.8844
229.4237, 118.9334
229.9058, 119.9815
230.3879, 121.6233
230.8700, 123.1309
231.3521, 124.0157
231.8343, 124.3143
232.3164, 124.5844
232.7985, 124.6242
233.2806, 124.8488
233.7627, 125.3673
234.2448, 126.1554
234.7270, 127.1681
235.2091, 128.3930
235.6912, 129.8094
236.1733, 131.2266
236.6554, 132.5468
237.1375, 133.9791
237.6197, 135.8068
238.1018, 137.8058
238.5839, 139.4419
239.0660, 140.3306
239.5481, 140.6613
240.0302, 141.5118
240.5124, 143.0046
240.9945, 144.7512
241.4766, 146.7396
241.9587, 148.8882
242.4408, 150.9919
242.9229, 152.9531
243.4051, 154.7857
243.8872, 156.5502
244.3693, 158.0600
244.8514, 159.7600
245.3335, 162.0606
245.8156, 164.7375
246.2978, 167.0809
246.7799, 168.7156
247.2620, 169.8877
247.7441, 171.1658
248.2262, 172.5244
248.7083, 174.0116
249.1905, 175.7899
249.6726, 177.7491
250.1547, 179.4854
250.6368, 180.7707
251.1189, 181.8651
251.6010, 183.2392
252.0832, 184.9881
252.5653, 186.5819
253.0474, 187.6150
253.5295, 188.2084
254.0116, 188.9984
254.4937, 190.4160
254.9759, 191.7500
255.4580, 192.1561
255.9401, 191.6165
256.4222, 190.9183
256.9043, 190.6436
257.3864, 190.6656
257.8686, 190.2544
258.3507, 188.9049
258.8328, 187.5630
259.3149, 187.2200
259.7970, 187.7516
260.2791, 188.0968
260.7613, 187.3876
261.2434, 185.8318
261.7255, 184.6673
262.2076, 184.4736
262.6897, 184.0794
263.1718, 182.6865
263.6540, 180.4681
264.1361, 178.0459
264.6182, 175.6093
265.1003, 173.2352
265.5824, 171.4254
266.0645, 170.8011
266.5467, 169.8762
267.0288, 167.8324
267.5109, 164.9666
267.9930, 161.9215
268.4751, 158.9315
268.9572, 156.0732
269.4394, 153.7134
269.9215, 152.1630
270.4036, 150.6709
270.8857, 149.0444
271.3678, 147.2595
271.8499, 145.2784
272.3321, 143.0714
272.8142, 140.6612
273.2963, 138.0836
273.7784, 134.9682
274.2605, 132.3691
274.7426, 130.7159
275.2248, 129.6029
275.7069, 128.5990
276.1890, 127.5110
276.6711, 126.3698
277.1532, 125.2528
277.6353, 124.1132
278.1175, 123.0907
278.5996, 122.1540
279.0817, 121.3483
279.5638, 120.7262
280.0459, 120.3045
280.5280, 120.0412
281.0102, 119.8262
281.4923, 119.5349
281.9744, 119.5900
282.4565, 120.1824
282.9386, 120.9833
283.4207, 121.7886
283.9029, 122.5310
284.3850, 123.2082
284.8671, 123.7681
285.3492, 124.0380
285.8313, 124.6372
286.3134, 125.6743
286.7956, 126.9279
287.2777, 128.3622
287.7598, 129.9168
288.2419, 131.4548
288.7240, 132.8315
289.2061, 134.0285
289.6883, 135.0815
290.1704, 135.8004
290.6525, 136.5483
291.1346, 137.4084
291.6167, 138.4386
292.0988, 139.7158
292.5810, 141.3165
293.0631, 143.2451
293.5452, 145.4161
294.0273, 148.4129
294.5094, 151.0811
294.9915, 152.9623
295.4737, 154.1956
295.9558, 155.0495
296.4379, 155.6061
296.9200, 155.9499
297.4021, 157.4153
297.8842, 161.4438
298.3664, 165.1172
298.8485, 167.6490
299.3306, 169.4837
299.8127, 171.2933
300.2948, 173.4423
300.7769, 175.8696
301.2591, 178.3101
301.7412, 180.4397
302.2233, 182.9967
302.7054, 186.3750
303.1875, 190.0576
303.6696, 193.4583
304.1518, 196.3322
304.6339, 198.9377
305.1160, 201.8985
305.5981, 205.6325
306.0802, 209.0691
306.5623, 212.1920
307.0445, 215.0276
307.5266, 217.7016
308.0087, 220.1984
308.4908, 222.2861
308.9729, 223.5807
309.4550, 223.7000
309.9372, 223.9412
310.4193, 224.6484
310.9014, 225.1917
311.3835, 224.9524
311.8656, 224.0476
312.3477, 223.2103
312.8299, 223.1897
313.3120, 224.0906
313.7941, 225.1591
314.2762, 226.4358
314.7583, 227.8156
315.2404, 229.2891
315.7226, 230.8370
316.2047, 232.3322
316.6868, 233.5805
317.1689, 234.6736
317.6510, 237.1127
318.1331, 242.4311
318.6153, 247.4162
319.0974, 251.2514
319.5795, 254.3340
320.0616, 257.2109
320.5437, 260.1420
321.0258, 263.2540
321.5080, 267.0240
321.9901, 271.9831
322.4722, 276.9538
322.9543, 282.4066
323.4364, 287.5774
323.9185, 291.9434
324.4007, 295.2466
324.8828, 297.3124
325.3649, 297.8968
325.8470, 297.5600
326.3291, 294.2826
326.8112, 287.6845
327.2934, 278.8952
327.7755, 268.1661
328.2576, 255.8196
328.7397, 242.5250
329.2218, 228.7610
329.7039, 214.0938
330.1861, 201.0477
330.6682, 190.1387
331.1503, 180.0896
331.6324, 170.2147
332.1145, 160.6985
332.5966, 152.2668
333.0788, 145.4873
333.5609, 140.3033
334.0430, 135.7868
334.5251, 132.5043
335.0072, 129.2771
335.4893, 125.6164
335.9715, 121.9468
336.4536, 118.8879
336.9357, 116.7752
337.4178, 115.4311
337.8999, 114.4078
338.3820, 113.9567
338.8642, 113.4687
339.3463, 113.0337
339.8284, 112.4662
340.3105, 111.4709
340.7926, 110.0119
341.2747, 108.5019
341.7568, 107.5703
342.2390, 107.3874
342.7211, 107.3940
343.2032, 107.7348
343.6853, 108.1183
344.1674, 108.3555
344.6495, 108.4641
345.1317, 108.6086
345.6138, 108.9691
346.0959, 109.5673
346.5780, 110.0190
347.0601, 109.9680
347.5422, 110.1212
348.0244, 110.8928
348.5065, 111.9862
348.9886, 112.8202
349.4707, 112.9856
349.9528, 112.7196
350.4349, 113.0200
350.9171, 114.4530
351.3992, 115.5846
351.8813, 115.6406
352.3634, 115.5358
352.8455, 116.3597
353.3276, 118.4794
353.8098, 121.0297
354.2919, 122.4690
354.7740, 122.3416
355.2561, 122.4884
355.7382, 123.1906
356.2203, 124.1530
356.7025, 125.3850
357.1846, 126.7938
357.6667, 128.0421
358.1488, 128.6086
358.6309, 128.4408
359.1130, 128.9707
359.5952, 131.1058
360.0773, 132.9334
360.5594, 133.3642
361.0415, 132.9199
361.5236, 132.7449
362.0057, 133.6906
362.4879, 135.2401
362.9700, 135.7726
363.4521, 134.9486
363.9342, 133.8193
364.4163, 132.3843
364.8984, 131.0208
365.3806, 130.2733
365.8627, 130.3909
366.3448, 130.5935
366.8269, 129.8528
367.3090, 128.0868
367.7911, 126.0788
368.2733, 123.6012
368.7554, 121.2743
369.2375, 119.6936
369.7196, 118.8208
370.2017, 117.9253
370.6838, 116.3470
371.1660, 114.2600
371.6481, 112.5245
372.1302, 111.3047
372.6123, 110.2721
373.0944, 109.3005
373.5765, 108.3398
374.0587, 107.2465
374.5408, 105.8328
375.0229, 104.3526
375.5050, 103.1948
375.9871, 102.3877
376.4692, 101.7020
376.9514, 101.1034
377.4335, 100.5342
377.9156, 99.88615
378.3977, 99.09478
378.8798, 98.36834
379.3619, 97.93423
379.8441, 97.71500
380.3262, 97.37012
380.8083, 96.78239
381.2904, 96.07264
381.7725, 95.21770
382.2546, 94.20995
382.7368, 93.73201
383.2189, 94.38976
383.7010, 95.54506
384.1831, 96.39388
384.6652, 96.85613
385.1473, 96.89934
385.6295, 96.27531
386.1116, 95.13766
386.5937, 94.52383
387.0758, 94.86926
387.5579, 95.37949
388.0400, 95.59216
388.5222, 95.57068
389.0043, 95.54629
389.4864, 95.61913
389.9685, 95.76458
390.4506, 95.92159
390.9327, 96.06011
391.4149, 96.27031
391.8970, 96.59669
392.3791, 96.99307
392.8612, 97.42636
393.3433, 97.88448
393.8254, 98.31215
394.3076, 98.60145
394.7897, 98.67284
395.2718, 99.12708
395.7539, 100.2785
396.2360, 101.4930
396.7181, 102.3084
397.2003, 102.8672
397.6824, 103.6702
398.1645, 105.0806
398.6466, 106.9210
399.1287, 108.3329
399.6108, 108.7795
400.0930, 109.4281
400.5751, 110.5614
401.0572, 111.8793
401.5393, 113.0713
402.0214, 114.0388
402.5035, 114.8900
402.9857, 115.7927
403.4678, 116.8113
403.9499, 117.6882
404.4320, 118.2384
404.9141, 118.8392
405.3962, 119.5978
405.8784, 120.5643
406.3605, 121.8567
406.8426, 123.6484
407.3247, 125.8088
407.8068, 127.2774
408.2889, 127.4192
408.7711, 127.7548
409.2532, 128.5479
409.7353, 129.7175
410.2174, 131.3681
410.6995, 133.5350
411.1816, 135.5926
411.6638, 136.4172
412.1459, 135.6691
412.6280, 135.5238
413.1101, 136.8275
413.5922, 138.3536
414.0743, 139.5111
414.5565, 140.2906
415.0386, 140.8908
415.5207, 141.3975
416.0028, 141.8264
416.4849, 142.3143
416.9670, 143.0496
417.4492, 143.3667
417.9313, 142.6778
418.4134, 141.4446
418.8955, 140.2332
419.3776, 139.2521
419.8597, 138.1470
420.3419, 136.4860
420.8240, 134.3254
421.3061, 132.2240
421.7882, 130.4860
422.2703, 128.6676
422.7524, 126.2080
423.2346, 123.1171
423.7167, 119.9586
424.1988, 116.6862
424.6809, 113.5750
425.1630, 111.1229
425.6451, 109.3915
426.1273, 107.6463
426.6094, 105.2327
427.0915, 102.3646
427.5736, 100.1922
428.0557, 99.31274
428.5378, 98.46529
429.0200, 97.07854
429.5021, 95.33138
429.9842, 93.54810
430.4663, 91.82338
430.9484, 90.23438
431.4305, 88.93436
431.9127, 88.11338
432.3948, 87.12038
432.8769, 85.56510
433.3590, 84.13651
433.8411, 83.44437
434.3232, 83.40525
434.8054, 83.47836
435.2875, 83.27791
435.7696, 82.80742
436.2517, 82.08452
436.7338, 80.72462
437.2159, 79.55550
437.6981, 78.75247
438.1802, 78.17811
438.6623, 77.73582
439.1444, 77.37632
439.6265, 76.97258
440.1086, 76.35674
440.5908, 75.55310
441.0729, 74.45335
441.5550, 72.40634
442.0371, 70.65327
442.5192, 69.97913
443.0013, 70.06564
443.4835, 70.05185
443.9656, 69.37314
444.4477, 68.21961
444.9298, 67.13863
445.4119, 66.00024
445.8940, 65.26506
446.3762, 65.58503
446.8583, 66.08585
447.3404, 65.93958
447.8225, 64.97981
448.3046, 63.89122
448.7867, 63.19877
449.2689, 62.87251
449.7510, 62.77039
450.2331, 62.93132
450.7152, 63.20414
451.1973, 63.71714
451.6794, 64.27502
452.1616, 64.27745
452.6437, 62.84354
453.1258, 61.36006
453.6079, 61.26697
454.0900, 62.39830
454.5721, 63.74895
455.0543, 65.02546
455.5364, 66.11043
456.0185, 66.69937
456.5006, 66.72047
456.9827, 66.67987
457.4648, 66.56130
457.9470, 66.50980
458.4291, 66.74098
458.9112, 67.25307
459.3933, 67.77990
459.8754, 68.08131
460.3575, 68.16983
460.8397, 68.48097
461.3218, 69.02785
461.8039, 69.74113
462.2860, 70.69927
462.7681, 71.78146
463.2502, 72.83723
463.7324, 73.81200
464.2145, 74.72811
464.6966, 75.61826
465.1787, 76.46922
465.6608, 77.31797
466.1429, 78.07307
466.6251, 78.90984
467.1072, 79.95177
467.5893, 81.14231
468.0714, 82.36677
468.5535, 83.58720
469.0356, 84.73770
469.5178, 85.63712
469.9999, 86.27515
470.4820, 86.69041
470.9641, 86.72123
471.4462, 86.64697
471.9283, 86.66442
472.4105, 86.79787
472.8926, 86.95711
473.3747, 86.92895
473.8568, 86.85251
474.3389, 87.33687
474.8210, 88.59681
475.3032, 89.88918
475.7853, 90.61499
476.2674, 91.04443
476.7495, 91.72720
477.2316, 93.02200
477.7137, 94.15881
478.1959, 94.20829
478.6780, 93.64577
479.1601, 93.92922
479.6422, 95.57410
480.1243, 97.87270
480.6064, 100.1250
481.0886, 102.4611
481.5707, 103.6567
482.0528, 102.4649
482.5349, 101.1232
483.0170, 101.3861
483.4991, 102.8081
483.9813, 103.8880
484.4634, 103.8162
484.9455, 102.7556
485.4276, 101.1933
485.9097, 99.15332
486.3918, 96.50195
486.8740, 92.52253
487.3561, 88.48553
487.8382, 85.40115
488.3203, 83.25369
488.8024, 81.34330
489.2845, 79.06243
489.7667, 76.45308
490.2488, 73.93066
490.7309, 71.37255
491.2130, 69.11227
491.6951, 67.25132
492.1772, 65.67052
492.6594, 64.26247
493.1415, 63.00106
493.6236, 61.90274
494.1057, 61.08683
494.5878, 60.50417
495.0699, 59.73115
495.5521, 58.61475
496.0342, 57.51744
496.5163, 56.65358
496.9984, 56.00735
497.4805, 55.61392
497.9626, 55.66291
498.4448, 55.75798
498.9269, 55.56625
499.4090, 55.14553
499.8911, 54.66473
500.3732, 54.14469
500.8553, 53.70673
501.3375, 53.60490
501.8196, 53.97528
502.3017, 53.94309
502.7838, 53.05297
503.2659, 52.08812
503.7480, 51.55613
504.2302, 51.40619
504.7123, 51.38029
505.1944, 51.34238
505.6765, 51.28592
506.1586, 51.18321
506.6407, 50.91151
507.1228, 50.80034
507.6049, 50.88667
508.0871, 51.09627
508.5692, 51.56040
509.0513, 52.14436
509.5334, 52.39010
510.0155, 51.82036
510.4977, 50.66724
510.9798, 50.12042
511.4619, 50.42701
511.9440, 50.78114
512.4261, 50.92265
512.9083, 50.99616
513.3904, 51.12828
513.8725, 51.33992
514.3546, 51.55965
514.8367, 51.74955
515.3188, 51.90709
515.8010, 52.01737
516.2831, 52.06990
516.7652, 52.12554
517.2473, 52.26728
517.7294, 52.43666
518.2115, 52.46321
518.6937, 52.38462
519.1758, 52.09779
519.6579, 51.33645
520.1400, 50.40162
520.6221, 49.86883
521.1042, 49.86226
521.5864, 49.90417
522.0685, 49.46284
522.5506, 48.48158
523.0327, 47.59889
523.5148, 46.75114
523.9969, 46.04441
524.4791, 45.48634
524.9612, 45.10086
525.4433, 44.99785
525.9254, 45.19781
526.4075, 45.44954
526.8896, 45.34611
527.3718, 44.80396
527.8539, 44.34243
528.3360, 43.94459
528.8181, 43.66772
529.3002, 43.60772
529.7823, 43.66901
530.2645, 43.68734
530.7466, 43.61024
531.2287, 43.43404
531.7108, 43.07332
532.1929, 42.55032
532.6750, 42.22097
533.1572, 42.21910
533.6393, 42.35262
534.1214, 42.51799
534.6035, 42.68977
535.0856, 42.61401
535.5677, 42.02074
536.0499, 41.35287
536.5320, 40.88001
537.0141, 40.60413
537.4962, 40.50132
537.9783, 40.56974
538.4604, 40.77008
538.9426, 41.07473
539.4247, 41.72966
539.9068, 41.80777
540.3889, 40.72774
540.8710, 39.66829
541.3531, 39.15098
541.8353, 39.16333
542.3174, 39.64491
542.7995, 40.61334
543.2816, 41.67367
543.7637, 41.83776
544.2458, 40.76768
544.7280, 39.92830
545.2101, 39.57316
545.6922, 39.46240
546.1743, 39.55779
546.6564, 39.80363
547.1385, 40.05657
547.6207, 40.31823
548.1028, 40.48502
548.5849, 40.29939
549.0670, 39.77952
549.5491, 39.45495
550.0313, 39.59787
550.5134, 39.90016
550.9955, 39.82220
551.4776, 39.33331
551.9597, 39.12432
552.4418, 39.57543
552.9240, 40.14954
553.4061, 40.42640
553.8882, 40.45476
554.3703, 40.46588
554.8524, 40.57401
555.3345, 40.75468
555.8167, 40.96114
556.2988, 41.26586
556.7809, 41.44667
557.2630, 41.56288
557.7451, 41.52020
558.2272, 41.05551
558.7094, 40.39165
559.1915, 40.07965
559.6736, 40.48222
560.1557, 41.25645
560.6378, 41.67154
561.1199, 41.66191
561.6021, 41.70686
562.0842, 41.96967
562.5663, 42.25053
563.0484, 42.37073
563.5305, 42.35715
564.0126, 42.35960
564.4948, 42.44272
564.9769, 42.56022
565.4590, 42.66480
565.9411, 42.76144
566.4232, 42.88798
566.9053, 43.07257
567.3875, 43.24180
567.8696, 43.25045
568.3517, 42.97729
568.8338, 42.98518
569.3159, 43.56502
569.7980, 44.13850
570.2802, 44.34342
570.7623, 44.32068
571.2444, 44.41339
571.7265, 44.77948
572.2086, 45.23886
572.6907, 45.39964
573.1729, 45.10212
573.6550, 45.16707
574.1371, 46.04609
574.6192, 46.85572
575.1013, 47.08341
575.5834, 46.96882
576.0656, 47.01598
576.5477, 47.44059
577.0298, 48.02789
577.5119, 48.65747
577.9940, 49.27849
578.4761, 49.54315
578.9583, 49.25695
579.4404, 48.97707
579.9225, 49.23620
580.4046, 50.03325
580.8867, 50.95201
581.3688, 52.16466
581.8510, 53.29591
582.3331, 54.11160
582.8152, 54.77016
583.2973, 55.51481
583.7794, 56.40971
584.2615, 57.38470
584.7437, 58.32915
585.2258, 59.22578
585.7079, 60.40709
586.1900, 62.28632
586.6721, 63.94405
587.1542, 64.82240
587.6363, 65.54556
588.1184, 66.84025
588.6005, 68.87101
589.0826, 71.14567
589.5648, 73.14901
590.0469, 75.02724
590.5290, 77.28505
591.0111, 79.94842
591.4932, 83.07552
591.9753, 86.79815
592.4575, 91.01506
592.9396, 95.37804
593.4217, 99.90817
593.9038, 104.5997
594.3859, 109.0742
594.8680, 113.9343
595.3502, 119.9649
595.8323, 127.0466
596.3144, 134.4162
596.7965, 141.4815
597.2786, 148.4174
597.7607, 155.8300
598.2429, 163.6697
598.7250, 172.1749
599.2071, 181.8411
599.6892, 191.6512
600.1713, 201.0278
600.6534, 209.9662
601.1356, 218.7691
601.6177, 227.6223
602.0998, 236.3459
602.5819, 244.4898
603.0640, 252.0535
603.5461, 260.2422
604.0283, 269.6361
604.5104, 279.3632
604.9925, 288.3530
605.4746, 296.7374
605.9567, 305.1915
606.4388, 313.3182
606.9210, 322.1194
607.4031, 333.0547
607.8852, 344.9469
608.3673, 355.3783
608.8494, 363.6180
609.3315, 371.3604
609.8137, 380.8377
610.2958, 392.3910
610.7779, 402.0840
611.2600, 408.2545
611.7421, 414.5133
612.2242, 422.8487
612.7064, 431.1283
613.1885, 437.0293
613.6706, 440.0337
614.1527, 440.8913
614.6348, 440.3690
615.1169, 438.1858
615.5991, 433.5659
616.0812, 426.4912
616.5633, 416.6278
617.0454, 403.0630
617.5275, 386.9172
618.0096, 370.6919
618.4918, 354.7037
618.9739, 337.5558
619.4560, 317.6952
619.9381, 297.4738
620.4202, 278.7690
620.9023, 261.5167
621.3845, 244.8301
621.8666, 228.2341
622.3487, 212.1040
622.8308, 197.3943
623.3129, 184.1220
623.7950, 172.2168
624.2772, 162.1311
624.7593, 153.0260
625.2414, 144.8042
625.7235, 137.3187
626.2056, 130.3384
626.6877, 123.8080
627.1699, 117.8021
627.6520, 112.4972
628.1341, 107.8288
628.6162, 103.8077
629.0983, 100.4769
629.5804, 97.18900
630.0626, 93.16850
630.5447, 88.66908
631.0268, 85.59041
631.5089, 85.31870
631.9910, 84.39516
632.4731, 81.62232
632.9553, 78.39713
633.4374, 76.03144
633.9195, 74.54055
634.4016, 73.06510
634.8837, 70.91063
635.3658, 68.46908
635.8480, 67.06422
636.3301, 66.94717
636.8122, 66.81197
637.2943, 66.54169
637.7764, 65.99553
638.2585, 65.00424
638.7407, 63.64872
639.2228, 62.27487
639.7049, 60.75386
640.1870, 59.48060
640.6691, 58.95898
641.1512, 58.89781
641.6334, 58.63920
642.1155, 58.00995
642.5976, 57.18970
643.0797, 56.31048
643.5618, 55.37262
644.0439, 54.88356
644.5261, 55.34458
645.0082, 55.64265
645.4903, 55.74666
645.9724, 55.54089
646.4545, 54.68828
646.9366, 53.31191
647.4188, 52.19712
647.9009, 52.09783
648.3830, 52.57045
648.8651, 52.55610
649.3472, 52.03878
649.8293, 51.78051
650.3115, 52.15462
650.7936, 52.70110
651.2757, 52.80731
651.7578, 52.46030
652.2399, 52.12017
652.7220, 51.66551
653.2042, 51.39008
653.6863, 51.62348
654.1684, 52.06768
654.6505, 52.21566
655.1326, 51.95314
655.6147, 51.63057
656.0969, 51.64722
656.5790, 51.98260
657.0611, 52.32213
657.5432, 52.84882
658.0253, 52.99083
658.5074, 52.04426
658.9896, 50.93861
659.4717, 50.56784
659.9538, 50.96895
660.4359, 51.31115
660.9180, 51.14713
661.4001, 50.81128
661.8823, 50.61322
662.3644, 50.54730
662.8465, 50.58271
663.3286, 50.71761
663.8107, 50.83382
664.2928, 50.77213
664.7750, 50.52237
665.2571, 50.15857
665.7392, 49.40855
666.2213, 48.86406
666.7034, 48.91240
667.1855, 49.09975
667.6677, 48.88706
668.1498, 48.19516
668.6319, 47.43817
669.1140, 46.92440
669.5961, 46.58922
670.0782, 46.32801
670.5604, 46.14019
671.0425, 45.79692
671.5246, 45.09331
672.0067, 44.40809
672.4888, 44.38964
672.9709, 45.23641
673.4531, 45.72546
673.9352, 45.83323
674.4173, 45.58044
674.8994, 44.64294
675.3815, 43.48986
675.8636, 42.77848
676.3458, 42.67328
676.8279, 42.77864
677.3100, 42.69879
677.7921, 42.46389
678.2742, 42.24286
678.7563, 41.99166
679.2385, 41.93764
679.7206, 42.37913
680.2027, 42.87683
680.6848, 42.78521
681.1669, 42.09474
681.6490, 41.63950
682.1312, 41.79536
682.6133, 42.08450
683.0954, 42.37459
683.5775, 42.51663
684.0596, 42.11879
684.5417, 41.10677
685.0239, 40.05521
685.5060, 39.61481
685.9881, 39.77283
686.4702, 40.12738
686.9523, 40.92179
687.4344, 41.43787
687.9166, 41.31648
688.3987, 40.93374
688.8808, 40.47199
689.3629, 39.98112
689.8450, 39.73179
690.3271, 40.09259
690.8093, 40.53876
691.2914, 40.44208
691.7735, 40.01402
692.2556, 39.87205
692.7377, 40.20244
693.2198, 40.73199
693.7020, 41.18750
694.1841, 41.56628
694.6662, 41.83840
695.1483, 41.90665
695.6304, 42.00731
696.1125, 42.31242
696.5947, 42.56391
697.0768, 42.47896
697.5589, 42.10524
698.0410, 41.80399
698.5231, 41.82818
699.0052, 41.95641
699.4874, 41.87224
699.9695, 41.64208
700.4516, 41.53563
700.9337, 41.62118
701.4158, 41.84924
701.8979, 42.20908
702.3801, 42.68407
702.8622, 42.99408
703.3443, 42.96416
703.8264, 42.99566
704.3085, 43.25200
704.7906, 43.48140
705.2728, 43.43880
705.7549, 43.18138
706.2370, 42.96429
706.7191, 42.93383
707.2012, 42.99999
707.6833, 42.99221
708.1655, 42.95209
708.6476, 43.16986
709.1297, 43.74633
709.6118, 44.29973
710.0939, 44.49825
710.5760, 44.42216
711.0582, 44.51104
711.5403, 45.03358
712.0224, 45.33038
712.5045, 45.24732
712.9866, 45.01606
713.4688, 44.69371
713.9509, 44.36991
714.4330, 44.21234
714.9151, 44.31120
715.3972, 44.54163
715.8793, 44.73066
716.3615, 44.89722
716.8436, 45.21085
717.3257, 45.72953
717.8078, 46.14890
718.2899, 46.22646
718.7720, 46.10797
719.2542, 46.20488
719.7363, 46.65966
720.2184, 46.95972
720.7005, 46.90887
721.1826, 46.84080
721.6647, 46.98116
722.1469, 47.24141
722.6290, 47.44617
723.1111, 47.53046
723.5932, 47.53218
724.0753, 47.43898
724.5574, 47.28790
725.0396, 47.29678
725.5217, 47.49043
726.0038, 47.71743
726.4859, 47.97361
726.9680, 48.15073
727.4501, 47.95040
727.9323, 47.22212
728.4144, 47.08625
728.8965, 48.12042
729.3786, 49.18073
729.8607, 49.83335
730.3428, 50.17307
730.8250, 50.33584
731.3071, 50.36262
731.7892, 50.23277
732.2713, 49.81081
732.7534, 49.28606
733.2355, 49.32534
733.7177, 49.96635
734.1998, 50.34269
734.6819, 50.11017
735.1640, 49.75428
735.6461, 49.76875
736.1282, 50.14963
736.6104, 50.53148
737.0925, 51.27000
737.5746, 51.55024
738.0567, 50.75575
738.5388, 49.71143
739.0209, 49.10905
739.5031, 49.00450
739.9852, 49.22180
740.4673, 49.76674
740.9494, 50.22099
741.4315, 49.65177
741.9136, 48.18153
742.3958, 47.28828
742.8779, 47.27126
743.3600, 47.48420
743.8421, 47.55053
744.3242, 47.49648
744.8063, 47.40241
745.2885, 47.24502
745.7706, 47.10075
746.2527, 47.14081
746.7348, 47.03628
747.2169, 46.43121
747.6990, 45.57827
748.1812, 44.91513
748.6633, 44.60184
749.1454, 44.53581
749.6275, 44.62510
750.1096, 44.87713
750.5917, 45.49566
751.0739, 46.51563
751.5560, 46.91307
752.0381, 46.05282
752.5202, 44.83069
753.0023, 44.61523
753.4844, 45.64411
753.9666, 46.18238
754.4487, 45.86250
754.9308, 45.55237
755.4129, 45.42175
755.8950, 45.46313
756.3771, 45.77660
756.8593, 46.28443
757.3414, 46.60783
757.8235, 46.39547
758.3056, 46.00743
758.7877, 46.02366
759.2698, 46.35272
759.7520, 46.57026
760.2341, 46.58360
760.7162, 46.50280
761.1983, 46.36873
761.6804, 46.24035
762.1625, 46.41696
762.6447, 47.20407
763.1268, 47.79967
763.6089, 48.07696
764.0910, 48.27605
764.5731, 48.54211
765.0552, 48.81961
765.5374, 49.00690
766.0195, 49.08181
766.5016, 48.99770
766.9837, 48.56900
767.4658, 48.02779
767.9479, 47.78075
768.4301, 47.81321
768.9122, 47.85756
769.3943, 47.78866
769.8764, 47.77510
770.3585, 48.14553
770.8406, 48.99365
771.3228, 49.22155
771.8049, 48.40943
772.2870, 47.63700
772.7691, 47.24621
773.2512, 46.97612
773.7333, 46.51624
774.2155, 45.91501
774.6976, 45.62565
775.1797, 46.21632
775.6618, 46.75726
776.1439, 46.40110
776.6260, 45.63966
777.1082, 45.33030
777.5903, 45.54711
778.0724, 45.69849
778.5545, 45.33946
779.0366, 44.68596
779.5187, 44.34286
780.0009, 44.37699
780.4830, 44.25692
780.9651, 43.76421
781.4472, 43.41718
781.9293, 43.62324
782.4114, 44.15125
782.8936, 44.61998
783.3757, 45.10833
783.8578, 45.19312
784.3399, 44.30036
784.8220, 43.43126
785.3041, 43.38794
785.7863, 43.81115
786.2684, 43.97882
786.7505, 43.70508
787.2326, 43.40272
787.7147, 43.46122
788.1968, 43.81105
788.6790, 44.26065
789.1611, 44.80904
789.6432, 45.40898
790.1253, 46.10889
790.6074, 46.66937
791.0895, 46.81354
791.5717, 46.58156
792.0538, 46.43618
792.5359, 46.33800
793.0180, 46.37817
793.5001, 46.72650
793.9822, 47.06836
794.4644, 47.14267
794.9465, 47.04971
795.4286, 47.02651
795.9107, 47.14711
796.3928, 47.44604
796.8749, 48.06491
797.3571, 48.84154
797.8392, 49.56888
798.3213, 50.18540
798.8034, 50.31989
799.2855, 49.77266
799.7676, 49.10874
800.2498, 49.14750
800.7319, 49.92136
801.2140, 50.80868
801.6961, 52.02614
802.1782, 52.97087
802.6603, 53.31462
803.1425, 53.45247
803.6246, 53.63723
804.1067, 53.87250
804.5888, 54.10448
805.0709, 54.22252
805.5530, 54.47061
806.0352, 55.15743
806.5173, 55.92821
806.9994, 56.30389
807.4815, 56.33814
807.9636, 56.45116
808.4457, 56.87627
808.9279, 57.38293
809.4100, 57.46419
809.8921, 57.18376
810.3742, 57.64887
810.8563, 59.13349
811.3384, 60.13032
811.8206, 59.81744
812.3027, 58.89455
812.7848, 58.33768
813.2669, 58.18143
813.7490, 58.21922
814.2311, 58.85546
814.7133, 59.16697
815.1954, 58.60736
815.6775, 57.83056
816.1596, 57.46472
816.6417, 57.48707
817.1238, 57.48554
817.6060, 57.23682
818.0881, 56.93835
818.5702, 56.73388
819.0523, 56.65034
819.5344, 56.94544
820.0165, 57.54393
820.4987, 57.60749
820.9808, 56.63432
821.4629, 55.14339
821.9450, 54.08289
822.4271, 53.50927
822.9092, 52.91775
823.3914, 52.26740
823.8735, 51.67599
824.3556, 51.30639
824.8377, 50.92423
825.3198, 50.22025
825.8019, 49.22610
826.2841, 48.41194
826.7662, 48.02102
827.2483, 47.64851
827.7304, 47.09331
828.2125, 46.49142
828.6946, 45.93373
829.1768, 45.47143
829.6589, 45.22902
830.1410, 45.30744
830.6231, 45.40621
831.1052, 45.03068
831.5873, 44.31908
832.0695, 43.85489
832.5516, 43.68040
833.0337, 43.53033
833.5158, 43.28439
833.9979, 43.00164
834.4800, 42.75482
834.9622, 42.53529
835.4443, 42.44442
835.9264, 42.53148
836.4085, 42.67727
836.8906, 43.01404
837.3727, 43.26796
837.8549, 43.21612
838.3370, 42.89537
838.8191, 42.45779
839.3012, 41.78529
839.7833, 41.32521
840.2654, 41.46271
840.7476, 41.84055
841.2297, 42.10395
841.7118, 42.24110
842.1939, 42.36218
842.6760, 42.51236
843.1581, 42.60033
843.6403, 42.46417
844.1224, 42.15986
844.6045, 41.98693
845.0866, 41.95367
845.5687, 41.94415
846.0508, 41.94759
846.5330, 41.88909
847.0151, 41.67956
847.4972, 41.33181
847.9793, 40.99218
848.4614, 40.44707
848.9435, 40.24519
849.4257, 40.83758
849.9078, 41.34003
850.3899, 41.04739
850.8720, 40.37843
851.3541, 40.20533
851.8362, 40.79077
852.3184, 41.25041
852.8005, 40.96686
853.2826, 40.45847
853.7647, 40.16395
854.2468, 40.05310
854.7289, 40.00304
855.2111, 39.98798
855.6932, 40.09181
856.1753, 40.41015
856.6574, 40.85787
857.1395, 41.30354
857.6216, 41.74472
858.1038, 41.65448
858.5859, 40.83199
859.0680, 40.05656
859.5501, 39.84846
860.0322, 39.99273
860.5143, 39.97292
860.9965, 39.68501
861.4786, 39.55390
861.9607, 39.72355
862.4428, 39.86695
862.9249, 39.92203
863.4070, 39.88517
863.8892, 39.70329
864.3713, 39.40637
864.8534, 39.18667
865.3355, 39.06985
865.8176, 39.11557
866.2997, 39.60683
866.7819, 40.13650
867.2640, 40.10891
867.7461, 39.58673
868.2282, 38.99538
868.7103, 38.54072
869.1924, 38.20433
869.6746, 38.02822
870.1567, 37.96073
870.6388, 37.65204
871.1209, 37.08697
871.6030, 36.80641
872.0851, 37.01756
872.5673, 37.46809
873.0494, 37.94704
873.5315, 38.42589
874.0136, 38.60237
874.4957, 38.25581
874.9778, 38.01491
875.4600, 38.05242
875.9421, 38.08208
876.4242, 37.93139
876.9063, 37.69475
877.3884, 37.55412
877.8705, 37.55575
878.3527, 37.49778
878.8348, 37.27850
879.3169, 37.01147
879.7990, 36.72506
880.2811, 36.46454
880.7632, 36.23859
881.2454, 36.08621
881.7275, 36.17933
882.2096, 36.72962
882.6917, 37.31686
883.1738, 37.19856
883.6559, 36.61063
884.1381, 36.36211
884.6202, 36.51795
885.1023, 36.74403
885.5844, 36.89982
886.0665, 36.87604
886.5486, 36.43291
887.0308, 35.55363
887.5129, 35.14362
887.9950, 35.41151
888.4771, 35.57682
888.9592, 35.36198
889.4413, 35.09830
889.9235, 35.14635
890.4056, 35.38712
890.8877, 35.34404
891.3698, 34.86300
891.8519, 34.37829
892.3340, 33.77441
892.8162, 33.37091
893.2983, 33.50526
893.7804, 33.88519
894.2625, 34.15839
894.7446, 34.22831
895.2267, 33.99939
895.7089, 33.06409
896.1910, 32.15551
896.6731, 32.10588
897.1552, 32.55967
897.6373, 32.96954
898.1194, 33.21750
898.6016, 33.21762
899.0837, 32.89622
899.5658, 32.61401
900.0479, 33.21782
900.5300, 34.50814
901.0121, 34.65739
901.4943, 33.53517
901.9764, 32.55006
902.4585, 32.16060
902.9406, 32.15228
903.4227, 32.38255
903.9048, 32.79553
904.3870, 32.86819
904.8691, 32.30099
905.3512, 32.00220
905.8333, 32.29366
906.3154, 32.57612
906.7975, 32.44662
907.2797, 32.17964
907.7618, 32.24514
908.2439, 32.72336
908.7260, 33.06187
909.2081, 33.08208
909.6902, 32.98234
910.1724, 32.78676
910.6545, 32.57000
911.1366, 32.49993
911.6187, 32.48806
912.1008, 32.13186
912.5829, 31.13793
913.0651, 30.26977
913.5472, 30.38777
914.0293, 31.01480
914.5114, 31.46865
914.9935, 31.69277
915.4756, 31.62939
915.9578, 31.28336
916.4398, 30.94888
916.9219, 30.93064
917.4041, 31.13436
917.8862, 31.30631
918.3683, 31.44846
918.8504, 31.27324
919.3325, 30.63050
919.8146, 30.30558
920.2968, 30.87656
920.7789, 31.81480
921.2610, 32.09005
921.7431, 31.54643
922.2252, 31.32642
922.7073, 31.60114
923.1895, 31.92197
923.6716, 32.47102
924.1537, 32.78279
924.6358, 32.23748
925.1179, 31.16563
925.6000, 30.70778
926.0822, 31.37165
926.5643, 31.75180
927.0464, 31.15454
927.5285, 30.53619
928.0106, 30.54165
928.4927, 30.86807
928.9749, 31.08240
929.4570, 31.10228
929.9391, 31.04042
930.4212, 30.93274
930.9033, 30.80999
931.3854, 30.69819
931.8676, 30.59088
932.3497, 30.41843
932.8318, 30.23277
933.3139, 30.24804
933.7960, 30.55389
934.2781, 30.97623
934.7603, 31.37477
935.2424, 31.70193
935.7245, 31.75905
936.2066, 31.56641
936.6887, 31.32541
937.1708, 31.06671
937.6530, 31.03044
938.1351, 31.44661
938.6172, 32.06802
939.0993, 32.29863
939.5814, 32.12827
940.0635, 31.53077
940.5457, 30.11360
941.0278, 29.26815
941.5099, 29.77352
941.9920, 30.64681
942.4741, 30.86073
942.9562, 30.49243
943.4384, 30.31334
943.9205, 30.44449
944.4026, 30.57146
944.8847, 30.78766
945.3668, 30.87859
945.8489, 30.67261
946.3311, 30.31198
946.8132, 29.87399
947.2953, 29.39788
947.7774, 29.34289
948.2595, 30.39711
948.7416, 31.26443
949.2238, 31.09824
949.7059, 30.56285
950.1880, 30.24792
950.6701, 30.18145
951.1522, 30.24487
951.6343, 30.39590
952.1165, 30.47838
952.5986, 30.31075
953.0807, 30.03884
953.5628, 29.83519
954.0449, 29.69464
954.5270, 29.60188
955.0092, 29.55014
955.4913, 29.49705
955.9734, 29.40026
956.4555, 29.41058
956.9376, 29.99652
957.4197, 29.81759
957.9019, 30.95041
958.3840, 30.00282
958.8661, 29.42962
959.3482, 29.67029
959.8303, 30.17423
960.3124, 30.43118
960.7946, 30.51453
961.2767, 30.78634
961.7588, 30.64428
962.2409, 31.35772
962.7230, 30.31383
963.2051, 29.42227
963.6873, 29.16730
964.1694, 29.35756
964.6515, 29.91392
965.1336, 30.83623
965.6157, 31.01789
966.0978, 29.64357
966.5800, 28.80731
967.0621, 29.10131
967.5442, 29.48403
968.0263, 29.21949
968.5084, 28.79650
968.9905, 29.23363
969.4727, 30.71757
969.9548, 31.36394
970.4369, 29.86129
970.9190, 28.60925
971.4011, 28.69308
971.8832, 29.26520
972.3654, 29.72663
972.8475, 30.00274
973.3296, 30.06538
973.8117, 29.87103
974.2938, 29.88339
974.7759, 30.72985
975.2581, 31.54095
975.7402, 31.42231
976.2223, 30.84689
976.7044, 30.50861
977.1865, 30.49393
977.6686, 30.60217
978.1508, 30.74337
978.6329, 30.86121
979.1150, 30.82270
979.5971, 30.75787
980.0792, 30.95958
980.5613, 31.34929
981.0435, 31.63541
981.5256, 31.75040
982.0077, 31.82030
982.4898, 31.95284
982.9719, 32.04551
983.4540, 31.86000
983.9362, 31.44547
984.4183, 30.99294
984.9004, 30.52754
985.3825, 30.47962
985.8646, 31.02840
986.3467, 31.75643
986.8289, 32.28667
987.3110, 32.59798
987.7931, 32.50019
988.2752, 31.88297
988.7573, 31.80303
989.2394, 32.49541
989.7216, 33.12543
990.2037, 33.29765
990.6858, 33.28872
991.1679, 33.44950
991.6500, 33.76773
992.1321, 34.00673
992.6143, 34.11760
993.0964, 34.26188
993.5785, 34.50132
994.0606, 34.70527
994.5427, 34.72744
995.0248, 34.72338
995.5070, 34.96010
995.9891, 35.45694
996.4712, 35.89158
996.9533, 36.24437
997.4354, 36.55476
997.9175, 36.83882
998.3997, 37.06968
998.8818, 37.00491
999.3639, 36.96704
999.8460, 37.64002
1000.328, 39.16034
1000.810, 40.32743
1001.292, 40.54475
1001.774, 40.74654
1002.257, 41.29364
1002.739, 41.97857
1003.221, 42.58474
1003.703, 43.18439
1004.185, 44.01067
1004.667, 45.13857
1005.149, 46.15557
1005.631, 46.64543
1006.114, 47.18472
1006.596, 48.10227
1007.078, 49.34673
1007.560, 51.07967
1008.042, 53.05329
1008.524, 54.57301
1009.006, 55.34491
1009.488, 56.14002
1009.970, 57.48879
1010.453, 59.23616
1010.935, 61.37786
1011.417, 63.72416
1011.899, 66.06113
1012.381, 68.28403
1012.863, 70.25860
1013.345, 71.91833
1013.827, 73.29189
1014.310, 74.13188
1014.792, 74.87520
1015.274, 76.44388
1015.756, 78.62243
1016.238, 80.84539
1016.720, 82.94546
1017.202, 84.76109
1017.684, 86.18179
1018.166, 87.40892
1018.649, 88.68586
1019.131, 90.02951
1019.613, 91.56067
1020.095, 93.24146
1020.577, 94.93557
1021.059, 96.60176
1021.541, 97.84802
1022.023, 98.40070
1022.505, 98.44102
1022.988, 98.21511
1023.470, 97.75304
1023.952, 97.52328
1024.434, 97.53841
1024.916, 97.19648
1025.398, 96.34380
1025.880, 95.01592
1026.362, 93.14829
1026.845, 91.08174
1027.327, 89.80858
1027.809, 89.44743
1028.291, 88.00984
1028.773, 85.29182
1029.255, 82.63672
1029.737, 80.40569
1030.219, 78.34998
1030.702, 76.31971
1031.184, 74.28331
1031.666, 72.15177
1032.148, 69.85725
1032.630, 67.80811
1033.112, 65.99955
1033.594, 64.49515
1034.076, 63.52577
1034.558, 62.41319
1035.041, 60.39461
1035.523, 57.91639
1036.005, 56.43971
1036.487, 56.47710
1036.969, 55.58687
1037.451, 53.02062
1037.933, 50.95855
1038.415, 50.25898
1038.897, 49.89385
1039.380, 48.89771
1039.862, 47.60502
1040.344, 47.23196
1040.826, 48.46943
1041.308, 48.56875
1041.790, 46.53920
1042.272, 44.80352
1042.754, 44.37117
1043.237, 44.07645
1043.719, 42.69997
1044.201, 40.77071
1044.683, 39.91290
1045.165, 40.59907
1045.647, 41.00512
1046.129, 41.06629
1046.611, 40.82949
1047.094, 40.07503
1047.576, 39.23319
1048.058, 38.65474
1048.540, 38.25534
1049.022, 37.74908
1049.504, 37.03365
1049.986, 36.52218
1050.468, 36.47911
1050.950, 36.37005
1051.432, 35.87757
1051.915, 35.38646
1052.397, 35.31998
1052.879, 35.48092
1053.361, 35.31418
1053.843, 34.65752
1054.325, 34.18568
1054.807, 34.22616
1055.289, 34.23967
1055.772, 33.96412
1056.254, 33.64443
1056.736, 33.62198
1057.218, 33.67869
1057.700, 33.18445
1058.182, 31.93048
1058.664, 31.16704
1059.146, 31.82229
1059.629, 32.27331
1060.111, 31.49887
1060.593, 30.59752
1061.075, 30.57208
1061.557, 31.09778
1062.039, 31.41398
1062.521, 31.37533
1063.003, 31.23327
1063.485, 31.04711
1063.968, 30.80848
1064.450, 30.43174
1064.932, 30.07738
1065.414, 29.92088
1065.896, 29.87176
1066.378, 29.76188
1066.860, 29.55836
1067.342, 29.28683
1067.824, 28.76250
1068.307, 28.43059
1068.789, 28.69730
1069.271, 29.03271
1069.753, 28.89959
1070.235, 28.57125
1070.717, 28.58989
1071.199, 29.01783
1071.681, 29.41437
1072.164, 29.66154
1072.646, 29.75800
1073.128, 29.70152
1073.610, 29.49771
1074.092, 28.96063
1074.574, 28.37791
1075.056, 28.24789
1075.538, 28.56638
1076.021, 28.78539
1076.503, 28.63264
1076.985, 28.47062
1077.467, 28.54344
1077.949, 28.59703
1078.431, 28.40894
1078.913, 28.09978
1079.395, 27.79241
1079.877, 27.54119
1080.359, 27.48594
1080.842, 27.80195
1081.324, 27.95413
1081.806, 27.43259
1082.288, 26.94465
1082.770, 27.07413
1083.252, 27.44291
1083.734, 27.63927
1084.216, 27.60124
1084.698, 27.32050
1085.181, 26.70429
1085.663, 26.26252
1086.145, 26.38550
1086.627, 26.56660
1087.109, 26.32398
1087.591, 26.11444
1088.073, 26.71264
1088.555, 27.74084
1089.038, 28.01072
1089.520, 27.13913
1090.002, 26.33479
1090.484, 26.12978
1090.966, 26.07655
1091.448, 25.98708
1091.930, 25.90928
1092.412, 25.78571
1092.895, 25.74842
1093.377, 26.22803
1093.859, 27.30540
1094.341, 27.79188
1094.823, 26.57808
1095.305, 25.60634
1095.787, 25.95044
1096.269, 26.57074
1096.751, 26.76323
1097.234, 26.63341
1097.716, 26.33837
1098.198, 25.94452
1098.680, 25.80841
1099.162, 26.24196
1099.644, 26.61783
1100.126, 26.64736
1100.608, 26.66539
1101.090, 26.98099
1101.573, 27.33410
1102.055, 27.37086
1102.537, 27.10890
1103.019, 26.81912
1103.501, 26.42469
1103.983, 26.32535
1104.465, 27.14459
1104.947, 27.62954
1105.430, 26.65001
1105.912, 25.51493
1106.394, 25.76566
1106.876, 26.95418
1107.358, 27.37961
1107.840, 26.54932
1108.322, 26.01562
1108.804, 26.10365
1109.286, 26.40118
1109.769, 26.84123
1110.251, 27.39564
1110.733, 28.29416
1111.215, 29.20918
1111.697, 29.40476
1112.179, 28.72837
1112.661, 28.24451
1113.143, 28.11463
1113.625, 28.05467
1114.108, 27.98333
1114.590, 28.01519
1115.072, 28.43825
1115.554, 28.86522
1116.036, 28.52209
1116.518, 27.45403
1117.000, 27.37195
1117.482, 29.12795
1117.965, 30.33624
1118.447, 30.89934
1118.929, 30.92098
1119.411, 30.03059
1119.893, 29.06723
1120.375, 28.87465
1120.857, 29.32151
1121.339, 29.89005
1121.822, 30.82759
1122.304, 31.06387
1122.786, 30.21975
1123.268, 29.54873
1123.750, 29.40705
1124.232, 29.46902
1124.714, 29.54907
1125.196, 29.60430
1125.678, 29.49846
1126.161, 29.19724
1126.643, 29.34436
1127.125, 30.16068
1127.607, 30.44062
1128.089, 29.82127
1128.571, 29.28063
1129.053, 29.38268
1129.535, 29.69071
1130.017, 29.56809
1130.500, 29.12649
1130.982, 29.20943
1131.464, 29.89239
1131.946, 29.88669
1132.428, 29.02136
1132.910, 28.27373
1133.392, 28.02646
1133.874, 27.81221
1134.357, 27.15402
1134.839, 26.35121
1135.321, 26.19303
1135.803, 26.61229
1136.285, 27.03039
1136.767, 27.40746
1137.249, 27.35234
1137.731, 26.79488
1138.214, 26.30865
1138.696, 26.25957
1139.178, 26.30039
1139.660, 25.79932
1140.142, 25.05766
1140.624, 25.08451
1141.106, 25.66347
1141.588, 26.05961
1142.070, 26.18172
1142.552, 26.13035
1143.035, 25.95731
1143.517, 25.80331
1143.999, 25.85997
1144.481, 25.87685
1144.963, 25.32416
1145.445, 24.55598
1145.927, 24.19451
1146.409, 24.20029
1146.892, 24.45718
1147.374, 24.84415
1147.856, 24.95607
1148.338, 24.50761
1148.820, 24.03912
1149.302, 24.12324
1149.784, 24.33491
1150.266, 24.09657
1150.749, 23.77027
1151.231, 24.11498
1151.713, 24.86411
1152.195, 24.92834
1152.677, 23.96750
1153.159, 23.28555
1153.641, 23.78778
1154.123, 24.50224
1154.605, 25.19886
1155.088, 25.56790
1155.570, 25.10483
1156.052, 24.26355
1156.534, 23.72708
1157.016, 23.57150
1157.498, 23.52853
1157.980, 23.55046
1158.462, 23.63712
1158.944, 23.93521
1159.427, 24.11640
1159.909, 23.82455
1160.391, 23.52778
1160.873, 23.73344
1161.355, 24.28641
1161.837, 24.73276
1162.319, 25.10090
1162.801, 25.13362
1163.284, 24.30955
1163.766, 24.03449
1164.248, 24.96806
1164.730, 25.79929
1165.212, 25.78767
1165.694, 25.36108
1166.176, 25.05062
1166.658, 24.85973
1167.141, 24.85929
1167.623, 25.16166
1168.105, 25.16498
1168.587, 24.76708
1169.069, 24.37898
1169.551, 24.13716
1170.033, 23.88589
1170.515, 23.45272
1170.997, 23.04972
1171.479, 23.17064
1171.962, 23.77023
1172.444, 24.34603
1172.926, 24.88655
1173.408, 25.03739
1173.890, 24.76434
1174.372, 24.58964
1174.854, 24.75570
1175.336, 24.90376
1175.819, 24.57400
1176.301, 24.93499
1176.783, 24.46050
1177.265, 25.22274
1177.747, 25.51214
1178.229, 25.40075
1178.711, 25.40149
1179.193, 25.57955
1179.676, 25.49839
1180.158, 24.87175
1180.640, 24.28049
1181.122, 24.38450
1181.604, 24.70935
1182.086, 24.72716
1182.568, 24.63560
1183.050, 24.79093
1183.532, 25.08014
1184.015, 25.12730
1184.497, 24.85744
1184.979, 24.60339
1185.461, 24.49159
1185.943, 24.47451
1186.425, 24.63949
1186.907, 24.77063
1187.389, 24.66153
1187.871, 24.48471
1188.354, 24.37974
1188.836, 24.39819
1189.318, 24.74110
1189.800, 25.67941
1190.282, 25.98892
1190.764, 24.87787
1191.246, 24.11562
1191.728, 24.21354
1192.211, 24.48839
1192.693, 24.59070
1193.175, 24.64784
1193.657, 24.84769
1194.139, 25.16983
1194.621, 25.46280
1195.103, 25.82711
1195.585, 25.64755
1196.068, 24.74039
1196.550, 24.07183
1197.032, 23.94922
1197.514, 24.02246
1197.996, 24.05924
1198.478, 24.04099
1198.960, 23.91269
1199.442, 23.70486
1199.924, 23.55009
1200.406, 23.45820
1200.889, 23.52798
1201.371, 23.74088
1201.853, 23.89087
1202.335, 23.90783
1202.817, 23.91125
1203.299, 24.00015
1203.781, 24.10819
1204.263, 24.25410
1204.746, 24.28239
1205.228, 23.73090
1205.710, 22.99244
1206.192, 22.93186
1206.674, 23.42336
1207.156, 23.61695
1207.638, 23.22382
1208.120, 22.87156
1208.603, 22.77749
1209.085, 23.00407
1209.567, 24.04027
1210.049, 24.93435
1210.531, 24.68301
1211.013, 24.00660
1211.495, 24.01698
1211.977, 24.60228
1212.459, 24.67459
1212.942, 23.69840
1213.424, 23.37906
1213.906, 24.70017
1214.388, 25.38329
1214.870, 24.65704
1215.352, 23.71142
1215.834, 23.04675
1216.316, 22.77702
1216.798, 23.17854
1217.281, 24.11298
1217.763, 24.51193
1218.245, 24.30910
1218.727, 24.15128
1219.209, 24.07682
1219.691, 23.91486
1220.173, 23.61392
1220.655, 23.31718
1221.138, 23.10196
1221.620, 23.11689
1222.102, 23.73005
1222.584, 24.62103
1223.066, 24.94443
1223.548, 24.84505
1224.030, 24.63085
1224.512, 24.38197
1224.995, 24.18568
1225.477, 24.07528
1225.959, 24.11641
1226.441, 24.42002
1226.923, 24.55495
1227.405, 23.87386
1227.887, 23.20843
1228.369, 23.37576
1228.851, 23.84154
1229.333, 24.02443
1229.816, 23.98380
1230.298, 23.98474
1230.780, 24.06647
1231.262, 24.09303
1231.744, 23.89431
1232.226, 23.86240
1232.708, 24.43691
1233.190, 24.65323
1233.673, 23.86236
1234.155, 23.00517
1234.637, 22.85170
1235.119, 23.09957
1235.601, 23.10374
1236.083, 22.86435
1236.565, 22.78632
1237.047, 22.88359
1237.530, 23.05282
1238.012, 23.29165
1238.494, 23.49175
1238.976, 23.61556
1239.458, 23.66486
1239.940, 23.63358
1240.422, 23.57389
1240.904, 23.57448
1241.386, 23.61145
1241.869, 23.64024
1242.351, 23.65156
1242.833, 23.64489
1243.315, 23.59926
1243.797, 23.38071
1244.279, 22.99956
1244.761, 22.86209
1245.243, 23.29021
1245.725, 23.77112
1246.208, 24.15366
1246.690, 24.26393
1247.172, 23.66389
1247.654, 22.99848
1248.136, 23.09422
1248.618, 22.71432
1249.100, 22.55795
1249.582, 22.80838
1250.065, 22.53680
1250.547, 23.12867
1251.029, 23.60561
1251.511, 24.00203
1251.993, 24.08904
1252.475, 23.63271
1252.957, 23.24223
1253.439, 23.43890
1253.922, 23.88647
1254.404, 23.93679
1254.886, 23.65508
1255.368, 23.42987
1255.850, 23.28546
1256.332, 23.56861
1256.814, 24.21514
1257.296, 24.52711
1257.778, 24.32697
1258.260, 24.07783
1258.743, 24.09333
1259.225, 24.04551
1259.707, 23.34189
1260.189, 22.64139
1260.671, 22.76403
1261.153, 23.25499
1261.635, 23.57872
1262.117, 23.77067
1262.600, 24.11121
1263.082, 24.57421
1263.564, 24.64765
1264.046, 23.95623
1264.528, 23.48805
1265.010, 23.66312
1265.492, 23.75963
1265.974, 23.36069
1266.457, 23.11821
1266.939, 23.56409
1267.421, 24.17247
1267.903, 24.13427
1268.385, 23.63983
1268.867, 23.90011
1269.349, 23.81517
1269.831, 23.72715
1270.313, 24.18897
1270.796, 23.85745
1271.278, 24.40585
1271.760, 24.83241
1272.242, 24.62702
1272.724, 24.35557
1273.206, 24.61742
1273.688, 25.06881
1274.170, 25.39917
1274.652, 25.48473
1275.135, 24.81398
1275.617, 23.96440
1276.099, 24.13272
1276.581, 25.05141
1277.063, 25.37398
1277.545, 24.72760
1278.027, 24.10327
1278.509, 23.51437
1278.992, 23.42473
1279.474, 24.70045
1279.956, 25.48779
1280.438, 24.43802
1280.920, 23.33756
1281.402, 23.90051
1281.884, 25.25945
1282.366, 25.44523
1282.849, 24.51118
1283.331, 23.84539
1283.813, 23.44516
1284.295, 23.74933
1284.777, 24.73606
1285.259, 25.27796
1285.741, 25.05140
1286.223, 24.58764
1286.705, 24.21740
1287.188, 23.94089
##END=



