##NAMES=Pyromorphite
##RRUFFID=R050085
##IDEAL CHEMISTRY=Pb^2+^_5_(PO_4_)_3_Cl
##LOCALITY=Bunker Hill mine, Shoshone County, Idaho, USA
##OWNER=RRUFF
##SOURCE=Eugene Schlepp
##DESCRIPTION=Group of orange hexagonal prisms
##STATUS=The identification of this mineral has been confirmed by X-ray diffraction and chemical analysis
##URL=rruff.info/R050085
##MEASURED CHEMISTRY=Pb_5.00_(P_0.96_As_0.04_O_4_)_3_Cl_1.00_
154.2855, 998.8058
154.7676, 1010.547
155.2497, 1016.821
155.7318, 1022.947
156.2139, 1030.601
156.6960, 1038.069
157.1782, 1042.166
157.6603, 1041.995
158.1424, 1043.449
158.6245, 1051.322
159.1066, 1064.366
159.5887, 1080.558
160.0709, 1099.526
160.5530, 1121.292
161.0351, 1147.311
161.5172, 1179.142
161.9993, 1209.010
162.4814, 1230.238
162.9636, 1245.512
163.4457, 1259.184
163.9278, 1269.287
164.4099, 1279.534
164.8920, 1297.427
165.3741, 1325.000
165.8563, 1354.493
166.3384, 1384.721
166.8205, 1413.317
167.3026, 1435.209
167.7847, 1443.610
168.2668, 1445.586
168.7490, 1458.306
169.2311, 1487.718
169.7132, 1514.446
170.1953, 1524.671
170.6774, 1526.247
171.1595, 1531.435
171.6417, 1547.450
172.1238, 1569.990
172.6059, 1588.153
173.0880, 1600.255
173.5701, 1611.181
174.0522, 1621.998
174.5344, 1633.466
175.0165, 1646.659
175.4986, 1662.404
175.9807, 1680.091
176.4628, 1698.998
176.9449, 1721.857
177.4271, 1740.545
177.9092, 1751.557
178.3913, 1757.329
178.8734, 1760.113
179.3555, 1759.160
179.8376, 1757.692
180.3197, 1766.681
180.8019, 1794.690
181.2840, 1817.975
181.7661, 1826.225
182.2482, 1827.123
182.7303, 1830.628
183.2124, 1842.545
183.6946, 1858.555
184.1767, 1865.185
184.6588, 1854.492
185.1409, 1848.216
185.6230, 1852.285
186.1051, 1863.046
186.5873, 1877.446
187.0694, 1894.877
187.5515, 1912.859
188.0336, 1924.944
188.5157, 1928.643
188.9978, 1929.982
189.4800, 1926.603
189.9621, 1923.425
190.4442, 1926.863
190.9263, 1940.299
191.4084, 1958.365
191.8905, 1967.268
192.3727, 1959.694
192.8548, 1955.850
193.3369, 1960.696
193.8190, 1969.512
194.3011, 1977.912
194.7832, 1984.160
195.2654, 1989.352
195.7475, 1995.866
196.2296, 2004.733
196.7117, 2013.120
197.1938, 2016.108
197.6759, 2020.886
198.1581, 2037.115
198.6402, 2067.582
199.1223, 2101.065
199.6044, 2114.487
200.0865, 2091.567
200.5686, 2081.123
201.0508, 2095.070
201.5329, 2115.998
202.0150, 2131.020
202.4971, 2136.519
202.9792, 2136.887
203.4613, 2138.536
203.9435, 2140.282
204.4256, 2146.359
204.9077, 2160.821
205.3898, 2176.289
205.8719, 2187.101
206.3540, 2192.462
206.8362, 2196.358
207.3183, 2204.082
207.8004, 2216.131
208.2825, 2230.967
208.7646, 2252.560
209.2467, 2273.556
209.7289, 2288.450
210.2110, 2297.265
210.6931, 2305.117
211.1752, 2319.177
211.6573, 2343.362
212.1395, 2358.760
212.6216, 2354.309
213.1037, 2351.029
213.5858, 2358.722
214.0679, 2377.591
214.5500, 2402.677
215.0322, 2429.936
215.5143, 2459.840
215.9964, 2488.295
216.4785, 2512.676
216.9606, 2538.185
217.4427, 2570.286
217.9249, 2605.951
218.4070, 2636.541
218.8891, 2653.084
219.3712, 2654.918
219.8533, 2666.919
220.3354, 2700.804
220.8176, 2734.023
221.2997, 2761.304
221.7818, 2783.222
222.2639, 2800.879
222.7460, 2813.156
223.2281, 2821.903
223.7103, 2846.135
224.1924, 2910.172
224.6745, 2963.720
225.1566, 2989.585
225.6387, 2999.877
226.1208, 3013.688
226.6030, 3042.504
227.0851, 3081.709
227.5672, 3111.239
228.0493, 3118.279
228.5314, 3133.106
229.0135, 3165.197
229.4957, 3205.590
229.9778, 3244.663
230.4599, 3278.162
230.9420, 3307.135
231.4241, 3333.421
231.9062, 3350.828
232.3884, 3376.737
232.8705, 3421.420
233.3526, 3469.733
233.8347, 3506.673
234.3168, 3527.574
234.7989, 3543.439
235.2811, 3574.198
235.7632, 3628.505
236.2453, 3677.550
236.7274, 3715.555
237.2095, 3750.888
237.6916, 3791.139
238.1738, 3836.862
238.6559, 3880.861
239.1380, 3912.946
239.6201, 3929.060
240.1022, 3948.424
240.5843, 3970.008
241.0665, 3996.324
241.5486, 4031.320
242.0307, 4073.675
242.5128, 4116.850
242.9949, 4153.823
243.4770, 4183.837
243.9592, 4217.750
244.4413, 4268.169
244.9234, 4310.443
245.4055, 4329.651
245.8876, 4332.431
246.3697, 4336.462
246.8519, 4355.302
247.3340, 4387.199
247.8161, 4414.858
248.2982, 4433.204
248.7803, 4454.297
249.2624, 4484.180
249.7446, 4519.105
250.2267, 4553.597
250.7088, 4586.442
251.1909, 4615.388
251.6730, 4631.285
252.1551, 4622.700
252.6373, 4624.873
253.1194, 4658.680
253.6015, 4703.843
254.0836, 4736.961
254.5657, 4747.640
255.0478, 4750.888
255.5300, 4773.691
256.0121, 4823.195
256.4942, 4864.828
256.9763, 4880.380
257.4584, 4888.917
257.9406, 4903.339
258.4227, 4926.324
258.9048, 4954.284
259.3869, 4989.711
259.8690, 5033.750
260.3511, 5057.814
260.8333, 5036.955
261.3154, 5011.438
261.7975, 5012.969
262.2796, 5041.235
262.7617, 5070.678
263.2438, 5079.796
263.7260, 5072.956
264.2081, 5076.853
264.6902, 5100.705
265.1723, 5125.643
265.6544, 5141.101
266.1365, 5147.341
266.6187, 5143.774
267.1008, 5120.471
267.5829, 5088.908
268.0650, 5076.310
268.5471, 5088.900
269.0292, 5102.178
269.5114, 5097.151
269.9935, 5081.430
270.4756, 5066.735
270.9577, 5052.894
271.4398, 5043.914
271.9219, 5048.437
272.4041, 5067.006
272.8862, 5080.683
273.3683, 5081.191
273.8504, 5069.498
274.3325, 5048.782
274.8146, 5014.441
275.2968, 4979.567
275.7789, 4949.919
276.2610, 4926.246
276.7431, 4913.578
277.2252, 4918.760
277.7073, 4928.902
278.1895, 4920.991
278.6716, 4891.958
279.1537, 4864.106
279.6358, 4847.976
280.1179, 4837.683
280.6000, 4821.477
281.0822, 4795.629
281.5643, 4770.566
282.0464, 4760.524
282.5285, 4767.024
283.0106, 4769.666
283.4927, 4764.625
283.9749, 4755.763
284.4570, 4746.171
284.9391, 4736.184
285.4212, 4725.350
285.9033, 4713.813
286.3854, 4701.337
286.8676, 4684.489
287.3497, 4658.562
287.8318, 4633.218
288.3139, 4610.664
288.7960, 4592.187
289.2781, 4581.465
289.7603, 4581.300
290.2424, 4589.102
290.7245, 4594.088
291.2066, 4597.837
291.6887, 4597.131
292.1708, 4589.306
292.6530, 4577.508
293.1351, 4563.577
293.6172, 4548.367
294.0993, 4536.199
294.5814, 4535.625
295.0635, 4558.468
295.5457, 4570.428
296.0278, 4564.706
296.5099, 4553.850
296.9920, 4543.924
297.4741, 4537.127
297.9562, 4535.741
298.4384, 4542.796
298.9205, 4559.696
299.4026, 4575.569
299.8847, 4593.517
300.3668, 4607.405
300.8489, 4614.533
301.3310, 4615.912
301.8131, 4612.810
302.2953, 4604.763
302.7774, 4594.307
303.2595, 4595.552
303.7416, 4621.774
304.2237, 4640.059
304.7058, 4635.657
305.1880, 4624.187
305.6701, 4624.961
306.1522, 4645.570
306.6343, 4671.449
307.1164, 4674.401
307.5985, 4644.069
308.0807, 4629.495
308.5628, 4658.939
309.0449, 4693.309
309.5270, 4708.339
310.0091, 4702.471
310.4912, 4692.039
310.9734, 4693.495
311.4555, 4705.013
311.9376, 4705.011
312.4197, 4684.227
312.9018, 4662.881
313.3839, 4651.402
313.8661, 4648.877
314.3482, 4653.675
314.8303, 4670.099
315.3124, 4691.185
315.7945, 4704.018
316.2766, 4707.396
316.7588, 4709.484
317.2409, 4714.483
317.7230, 4720.929
318.2051, 4727.352
318.6872, 4737.166
319.1693, 4740.547
319.6515, 4722.455
320.1336, 4689.079
320.6157, 4669.604
321.0978, 4677.923
321.5799, 4698.197
322.0620, 4706.223
322.5442, 4702.052
323.0263, 4691.585
323.5084, 4667.533
323.9905, 4641.849
324.4726, 4631.760
324.9547, 4640.062
325.4369, 4654.446
325.9190, 4663.340
326.4011, 4666.024
326.8832, 4672.160
327.3653, 4691.422
327.8474, 4705.246
328.3296, 4699.588
328.8117, 4679.124
329.2938, 4658.090
329.7759, 4644.315
330.2580, 4637.111
330.7401, 4633.863
331.2223, 4642.711
331.7044, 4645.380
332.1865, 4636.214
332.6686, 4621.666
333.1507, 4608.035
333.6328, 4597.437
334.1150, 4588.937
334.5971, 4581.313
335.0792, 4575.258
335.5613, 4568.262
336.0434, 4554.621
336.5255, 4545.109
337.0077, 4548.048
337.4898, 4560.793
337.9719, 4574.746
338.4540, 4585.089
338.9361, 4590.816
339.4182, 4581.085
339.9004, 4540.152
340.3825, 4507.171
340.8646, 4500.118
341.3467, 4504.192
341.8288, 4499.270
342.3109, 4476.367
342.7931, 4448.784
343.2752, 4436.757
343.7573, 4442.064
344.2394, 4450.986
344.7215, 4470.308
345.2036, 4483.608
345.6858, 4475.303
346.1679, 4445.153
346.6500, 4411.835
347.1321, 4384.542
347.6142, 4363.106
348.0963, 4346.745
348.5785, 4335.130
349.0606, 4329.555
349.5427, 4338.237
350.0248, 4354.737
350.5069, 4358.893
350.9890, 4337.434
351.4712, 4310.061
351.9533, 4291.558
352.4354, 4281.032
352.9175, 4274.626
353.3996, 4272.947
353.8817, 4271.502
354.3639, 4256.129
354.8460, 4217.611
355.3281, 4187.595
355.8102, 4178.711
356.2923, 4179.508
356.7744, 4178.671
357.2566, 4173.284
357.7387, 4162.611
358.2208, 4145.257
358.7029, 4119.708
359.1850, 4095.358
359.6671, 4072.406
360.1493, 4050.344
360.6314, 4027.525
361.1135, 4005.471
361.5956, 3988.454
362.0777, 3979.587
362.5598, 3975.230
363.0420, 3961.329
363.5241, 3928.333
364.0062, 3901.086
364.4883, 3882.199
364.9704, 3869.700
365.4525, 3864.208
365.9347, 3864.961
366.4168, 3866.101
366.8989, 3863.487
367.3810, 3857.578
367.8631, 3838.298
368.3452, 3791.195
368.8274, 3747.320
369.3095, 3725.395
369.7916, 3718.432
370.2737, 3709.020
370.7558, 3685.452
371.2379, 3657.674
371.7201, 3646.466
372.2022, 3654.380
372.6843, 3653.506
373.1664, 3621.947
373.6485, 3581.290
374.1306, 3565.959
374.6128, 3583.841
375.0949, 3602.279
375.5770, 3606.525
376.0591, 3599.000
376.5412, 3581.721
377.0233, 3553.939
377.5055, 3525.296
377.9876, 3505.538
378.4697, 3495.829
378.9518, 3487.307
379.4339, 3482.673
379.9160, 3476.732
380.3982, 3464.930
380.8803, 3449.131
381.3624, 3434.592
381.8445, 3424.053
382.3266, 3417.046
382.8087, 3412.107
383.2909, 3413.769
383.7730, 3411.467
384.2551, 3402.771
384.7372, 3391.547
385.2193, 3379.299
385.7014, 3367.200
386.1836, 3357.801
386.6657, 3353.629
387.1478, 3354.741
387.6299, 3360.716
388.1120, 3382.408
388.5941, 3396.032
389.0763, 3388.869
389.5584, 3370.075
390.0405, 3354.720
390.5226, 3350.081
391.0047, 3348.660
391.4868, 3337.212
391.9690, 3314.494
392.4511, 3293.974
392.9332, 3279.361
393.4153, 3268.412
393.8974, 3259.833
394.3795, 3253.478
394.8617, 3245.989
395.3438, 3237.955
395.8259, 3227.014
396.3080, 3208.008
396.7901, 3180.225
397.2722, 3149.183
397.7544, 3115.565
398.2365, 3082.103
398.7186, 3060.058
399.2007, 3056.956
399.6828, 3056.709
400.1649, 3058.232
400.6471, 3057.376
401.1292, 3043.397
401.6113, 3012.570
402.0934, 2979.950
402.5755, 2968.611
403.0576, 2988.605
403.5398, 2999.939
404.0219, 2998.939
404.5040, 2994.101
404.9861, 2989.956
405.4682, 2985.688
405.9503, 2977.064
406.4325, 2960.292
406.9146, 2939.710
407.3967, 2932.846
407.8788, 2951.001
408.3609, 2959.484
408.8430, 2942.679
409.3252, 2920.306
409.8073, 2907.554
410.2894, 2906.725
410.7715, 2910.242
411.2536, 2911.902
411.7357, 2912.388
412.2179, 2916.921
412.7000, 2929.745
413.1821, 2937.144
413.6642, 2922.712
414.1463, 2896.447
414.6284, 2878.646
415.1106, 2879.403
415.5927, 2881.721
416.0748, 2870.273
416.5569, 2849.858
417.0390, 2836.270
417.5211, 2835.777
418.0033, 2840.912
418.4854, 2841.305
418.9675, 2836.785
419.4496, 2826.953
419.9317, 2805.741
420.4138, 2784.193
420.8960, 2770.878
421.3781, 2764.099
421.8602, 2755.552
422.3423, 2738.967
422.8244, 2718.302
423.3065, 2711.808
423.7887, 2738.668
424.2708, 2749.321
424.7529, 2726.877
425.2350, 2695.687
425.7171, 2674.899
426.1992, 2667.388
426.6814, 2664.675
427.1635, 2659.926
427.6456, 2653.149
428.1277, 2644.041
428.6098, 2629.549
429.0919, 2618.704
429.5741, 2616.761
430.0562, 2621.071
430.5383, 2629.468
431.0204, 2644.899
431.5025, 2656.831
431.9846, 2653.659
432.4668, 2639.243
432.9489, 2627.955
433.4310, 2624.265
433.9131, 2621.760
434.3952, 2611.537
434.8773, 2592.390
435.3595, 2579.730
435.8416, 2577.535
436.3237, 2579.259
436.8058, 2584.211
437.2879, 2589.799
437.7701, 2590.180
438.2522, 2582.125
438.7343, 2568.563
439.2164, 2556.871
439.6985, 2547.796
440.1806, 2539.436
440.6628, 2528.726
441.1449, 2520.957
441.6270, 2521.810
442.1091, 2529.419
442.5912, 2535.887
443.0733, 2534.249
443.5555, 2527.231
444.0376, 2526.762
444.5197, 2536.807
445.0018, 2542.244
445.4839, 2531.382
445.9660, 2516.048
446.4482, 2509.018
446.9303, 2513.114
447.4124, 2515.584
447.8945, 2507.380
448.3766, 2492.252
448.8587, 2475.915
449.3409, 2458.552
449.8230, 2447.383
450.3051, 2450.196
450.7872, 2465.300
451.2693, 2473.925
451.7514, 2469.858
452.2336, 2467.064
452.7157, 2473.469
453.1978, 2482.683
453.6799, 2484.980
454.1620, 2477.815
454.6441, 2466.898
455.1263, 2459.469
455.6084, 2456.127
456.0905, 2452.925
456.5726, 2449.696
457.0547, 2446.827
457.5368, 2444.514
458.0190, 2442.627
458.5011, 2440.717
458.9832, 2438.415
459.4653, 2436.906
459.9474, 2438.736
460.4295, 2443.976
460.9117, 2447.528
461.3938, 2449.055
461.8759, 2447.641
462.3580, 2441.130
462.8401, 2430.559
463.3222, 2421.304
463.8044, 2412.655
464.2865, 2407.575
464.7686, 2412.955
465.2507, 2425.283
465.7328, 2429.586
466.2149, 2418.146
466.6971, 2399.640
467.1792, 2391.127
467.6613, 2398.182
468.1434, 2404.153
468.6255, 2411.585
469.1076, 2415.794
469.5898, 2412.336
470.0719, 2402.921
470.5540, 2391.653
471.0361, 2380.118
471.5182, 2371.062
472.0003, 2374.906
472.4825, 2399.638
472.9646, 2415.363
473.4467, 2407.875
473.9288, 2394.725
474.4109, 2385.495
474.8930, 2381.027
475.3752, 2379.484
475.8573, 2380.554
476.3394, 2383.580
476.8215, 2388.637
477.3036, 2395.739
477.7857, 2399.969
478.2679, 2397.800
478.7500, 2392.083
479.2321, 2390.546
479.7142, 2397.263
480.1963, 2397.665
480.6784, 2380.478
481.1606, 2361.500
481.6427, 2358.752
482.1248, 2370.461
482.6069, 2378.022
483.0890, 2365.723
483.5711, 2339.606
484.0533, 2334.234
484.5354, 2366.690
485.0175, 2392.200
485.4996, 2405.234
485.9817, 2409.195
486.4638, 2402.804
486.9460, 2387.928
487.4281, 2375.038
487.9102, 2374.982
488.3923, 2383.069
488.8744, 2384.143
489.3565, 2376.800
489.8387, 2369.892
490.3208, 2367.678
490.8029, 2368.907
491.2850, 2371.289
491.7671, 2376.660
492.2492, 2377.969
492.7314, 2366.620
493.2135, 2353.433
493.6956, 2353.676
494.1777, 2366.931
494.6598, 2377.748
495.1419, 2373.185
495.6241, 2356.878
496.1062, 2352.829
496.5883, 2377.689
497.0704, 2391.389
497.5525, 2380.444
498.0346, 2363.938
498.5168, 2358.311
498.9989, 2364.780
499.4810, 2372.881
499.9631, 2375.155
500.4452, 2372.126
500.9273, 2363.895
501.4095, 2348.139
501.8916, 2337.071
502.3737, 2337.584
502.8558, 2345.178
503.3379, 2352.909
503.8200, 2361.126
504.3022, 2367.357
504.7843, 2368.786
505.2664, 2368.803
505.7485, 2372.799
506.2306, 2380.209
506.7127, 2383.821
507.1949, 2377.922
507.6770, 2365.671
508.1591, 2360.967
508.6412, 2369.140
509.1233, 2377.457
509.6054, 2386.263
510.0876, 2394.169
510.5697, 2400.415
511.0518, 2404.798
511.5339, 2407.103
512.0161, 2406.618
512.4982, 2404.299
512.9803, 2402.788
513.4624, 2402.263
513.9445, 2401.346
514.4266, 2398.118
514.9088, 2395.600
515.3909, 2397.782
515.8730, 2404.922
516.3551, 2413.020
516.8372, 2423.827
517.3193, 2432.907
517.8015, 2435.629
518.2836, 2432.686
518.7657, 2427.696
519.2478, 2422.463
519.7299, 2416.869
520.2120, 2410.412
520.6942, 2400.817
521.1763, 2394.791
521.6584, 2394.383
522.1405, 2395.173
522.6226, 2391.714
523.1047, 2387.512
523.5869, 2392.840
524.0690, 2416.436
524.5511, 2444.792
525.0332, 2453.149
525.5153, 2441.661
525.9974, 2435.810
526.4796, 2444.581
526.9617, 2455.959
527.4438, 2455.285
527.9259, 2444.267
528.4080, 2437.649
528.8901, 2441.218
529.3723, 2446.030
529.8544, 2446.062
530.3365, 2443.651
530.8186, 2444.419
531.3007, 2450.160
531.7828, 2456.152
532.2650, 2454.678
532.7471, 2443.102
533.2292, 2440.604
533.7113, 2455.993
534.1934, 2470.658
534.6755, 2482.245
535.1577, 2488.510
535.6398, 2484.150
536.1219, 2466.367
536.6040, 2450.080
537.0861, 2452.693
537.5682, 2468.099
538.0504, 2475.522
538.5325, 2471.581
539.0146, 2467.043
539.4967, 2469.936
539.9788, 2478.475
540.4609, 2483.623
540.9431, 2485.906
541.4252, 2484.611
541.9073, 2473.827
542.3894, 2463.119
542.8715, 2463.772
543.3536, 2475.119
543.8358, 2486.643
544.3179, 2490.056
544.8000, 2486.810
545.2821, 2482.386
545.7642, 2474.793
546.2463, 2471.581
546.7285, 2480.739
547.2106, 2490.464
547.6926, 2490.774
548.1747, 2482.044
548.6569, 2473.139
549.1390, 2464.177
549.6211, 2459.629
550.1032, 2468.896
550.5853, 2488.235
551.0674, 2500.329
551.5496, 2497.552
552.0317, 2488.746
552.5138, 2488.838
552.9959, 2502.887
553.4780, 2508.579
553.9601, 2500.962
554.4423, 2491.584
554.9244, 2482.060
555.4065, 2474.765
555.8886, 2473.717
556.3707, 2480.539
556.8528, 2489.423
557.3350, 2492.988
557.8171, 2491.982
558.2992, 2492.812
558.7813, 2496.731
559.2634, 2500.368
559.7455, 2501.528
560.2277, 2500.645
560.7098, 2499.070
561.1919, 2493.688
561.6740, 2493.078
562.1561, 2506.410
562.6382, 2521.889
563.1204, 2525.279
563.6025, 2516.857
564.0846, 2508.378
564.5667, 2509.132
565.0488, 2515.113
565.5309, 2508.306
566.0131, 2478.727
566.4952, 2461.625
566.9773, 2471.494
567.4594, 2489.255
567.9415, 2509.402
568.4236, 2528.535
568.9058, 2535.103
569.3879, 2513.556
569.8700, 2486.942
570.3521, 2478.396
570.8342, 2484.425
571.3163, 2495.105
571.7985, 2508.014
572.2806, 2518.704
572.7627, 2521.486
573.2448, 2515.584
573.7269, 2509.030
574.2090, 2500.027
574.6912, 2492.456
575.1733, 2488.597
575.6554, 2485.990
576.1375, 2482.356
576.6196, 2477.005
577.1017, 2469.611
577.5839, 2457.592
578.0660, 2443.305
578.5481, 2436.082
579.0302, 2437.038
579.5123, 2435.807
579.9944, 2425.241
580.4766, 2411.901
580.9587, 2409.575
581.4408, 2420.498
581.9229, 2430.375
582.4050, 2439.529
582.8871, 2444.968
583.3693, 2443.583
583.8514, 2437.023
584.3335, 2428.117
584.8156, 2418.156
585.2977, 2408.922
585.7798, 2402.849
586.2620, 2399.908
586.7441, 2401.438
587.2262, 2411.314
587.7083, 2419.393
588.1904, 2421.719
588.6725, 2418.013
589.1547, 2405.449
589.6368, 2378.505
590.1189, 2356.310
590.6010, 2351.949
591.0831, 2355.380
591.5652, 2355.739
592.0474, 2351.303
592.5295, 2340.701
593.0116, 2321.609
593.4937, 2299.899
593.9758, 2295.552
594.4579, 2320.647
594.9401, 2334.401
595.4222, 2325.082
595.9043, 2311.094
596.3864, 2299.264
596.8685, 2290.055
597.3506, 2283.491
597.8328, 2280.695
598.3149, 2278.430
598.7970, 2273.875
599.2791, 2267.545
599.7612, 2259.739
600.2433, 2250.471
600.7255, 2244.382
601.2076, 2247.285
601.6897, 2256.751
602.1718, 2252.798
602.6539, 2221.294
603.1360, 2195.341
603.6182, 2176.730
604.1003, 2164.966
604.5824, 2163.186
605.0645, 2168.553
605.5466, 2171.441
606.0287, 2165.364
606.5109, 2155.133
606.9930, 2148.421
607.4751, 2144.541
607.9572, 2137.740
608.4393, 2126.004
608.9214, 2113.240
609.4036, 2103.736
609.8857, 2097.488
610.3678, 2088.241
610.8499, 2072.255
611.3320, 2058.343
611.8141, 2050.414
612.2963, 2044.328
612.7784, 2035.863
613.2605, 2024.700
613.7426, 2013.771
614.2247, 2006.849
614.7068, 2000.436
615.1890, 1982.562
615.6711, 1952.331
616.1532, 1932.343
616.6353, 1933.711
617.1174, 1939.391
617.5995, 1927.920
618.0817, 1898.841
618.5638, 1880.137
619.0459, 1884.823
619.5280, 1886.261
620.0101, 1868.152
620.4922, 1844.004
620.9744, 1833.322
621.4565, 1838.156
621.9386, 1842.674
622.4207, 1831.755
622.9028, 1809.502
623.3849, 1790.941
623.8671, 1775.583
624.3492, 1767.680
624.8313, 1773.558
625.3134, 1781.714
625.7955, 1775.852
626.2776, 1756.927
626.7598, 1744.381
627.2419, 1750.696
627.7240, 1753.404
628.2061, 1736.439
628.6882, 1710.641
629.1703, 1692.562
629.6525, 1685.721
630.1346, 1681.776
630.6167, 1672.138
631.0988, 1658.470
631.5809, 1650.865
632.0630, 1651.309
632.5452, 1650.085
633.0273, 1645.011
633.5094, 1636.196
633.9915, 1622.465
634.4736, 1604.178
634.9557, 1587.874
635.4379, 1575.771
635.9200, 1565.151
636.4021, 1553.570
636.8842, 1542.831
637.3663, 1537.023
637.8484, 1536.463
638.3306, 1535.707
638.8127, 1528.714
639.2948, 1516.922
639.7769, 1511.008
640.2590, 1514.902
640.7411, 1509.929
641.2233, 1482.624
641.7054, 1452.157
642.1875, 1439.611
642.6696, 1443.494
643.1517, 1446.129
643.6339, 1445.033
644.1160, 1440.565
644.5981, 1429.437
645.0802, 1416.436
645.5623, 1410.925
646.0444, 1413.623
646.5266, 1413.932
647.0087, 1400.661
647.4908, 1377.624
647.9729, 1362.996
648.4550, 1358.313
648.9371, 1356.831
649.4193, 1361.143
649.9014, 1363.398
650.3835, 1353.982
650.8656, 1334.730
651.3477, 1318.264
651.8298, 1308.033
652.3120, 1299.426
652.7941, 1289.069
653.2762, 1279.566
653.7583, 1276.150
654.2404, 1278.446
654.7225, 1279.531
655.2047, 1273.661
655.6868, 1262.540
656.1689, 1251.346
656.6510, 1239.830
657.1331, 1229.905
657.6152, 1222.702
658.0974, 1216.219
658.5795, 1208.721
659.0616, 1200.430
659.5437, 1192.433
660.0258, 1184.868
660.5079, 1177.523
660.9901, 1167.721
661.4722, 1159.772
661.9543, 1161.693
662.4364, 1171.018
662.9185, 1175.027
663.4006, 1164.467
663.8828, 1145.696
664.3649, 1131.896
664.8470, 1123.181
665.3291, 1115.853
665.8112, 1109.688
666.2933, 1103.890
666.7755, 1097.167
667.2576, 1090.351
667.7397, 1086.849
668.2218, 1090.291
668.7039, 1091.143
669.1860, 1084.529
669.6682, 1077.157
670.1503, 1075.699
670.6324, 1078.120
671.1145, 1077.214
671.5966, 1069.068
672.0787, 1058.684
672.5609, 1053.034
673.0430, 1051.554
673.5251, 1051.302
674.0072, 1052.837
674.4893, 1050.362
674.9714, 1039.575
675.4536, 1023.081
675.9357, 1007.310
676.4178, 989.7841
676.8999, 978.4408
677.3820, 976.8188
677.8641, 978.0255
678.3463, 980.6551
678.8284, 982.9282
679.3105, 982.7314
679.7926, 979.3926
680.2747, 973.3048
680.7568, 961.9535
681.2390, 948.8683
681.7211, 943.6476
682.2032, 946.2895
682.6853, 949.6207
683.1674, 951.1527
683.6495, 949.8456
684.1317, 943.2883
684.6138, 929.6131
685.0959, 920.7081
685.5780, 923.5145
686.0601, 922.6496
686.5422, 909.4387
687.0244, 893.7824
687.5065, 886.6843
687.9886, 889.0453
688.4707, 892.6735
688.9528, 895.4274
689.4349, 895.1688
689.9171, 887.6887
690.3992, 875.1679
690.8813, 863.4525
691.3634, 854.2023
691.8455, 847.1866
692.3276, 841.9590
692.8098, 838.8051
693.2919, 841.7589
693.7740, 858.0829
694.2561, 864.2460
694.7382, 845.9681
695.2203, 825.0632
695.7025, 816.4375
696.1846, 817.8782
696.6667, 820.0273
697.1488, 821.3808
697.6309, 821.7592
698.1130, 822.8877
698.5952, 821.9407
699.0773, 813.4650
699.5594, 798.7169
700.0415, 784.8828
700.5236, 776.2589
701.0057, 771.5326
701.4879, 768.1506
701.9700, 766.0846
702.4521, 766.5464
702.9342, 771.7556
703.4163, 773.9792
703.8984, 767.3228
704.3806, 755.0502
704.8627, 744.3878
705.3448, 733.9839
705.8269, 728.7983
706.3090, 733.8545
706.7911, 739.9407
707.2733, 741.2451
707.7554, 739.8596
708.2375, 741.0493
708.7196, 746.0963
709.2017, 748.4132
709.6838, 738.9436
710.1660, 722.6882
710.6481, 712.0371
711.1302, 707.0037
711.6123, 705.1536
712.0944, 706.1184
712.5765, 707.9876
713.0587, 708.7956
713.5408, 708.6495
714.0229, 705.0118
714.5050, 691.7968
714.9871, 683.5293
715.4692, 686.9580
715.9514, 692.5619
716.4335, 692.8298
716.9156, 687.9908
717.3977, 682.2772
717.8798, 676.9771
718.3619, 671.9484
718.8441, 666.2895
719.3262, 661.1204
719.8083, 659.7417
720.2904, 661.6408
720.7725, 660.8980
721.2546, 653.1310
721.7368, 641.9060
722.2189, 636.2391
722.7010, 637.1029
723.1831, 636.6100
723.6652, 633.0285
724.1473, 630.4573
724.6295, 633.8186
725.1116, 638.6594
725.5937, 634.9737
726.0758, 618.9578
726.5579, 607.7463
727.0400, 605.7286
727.5222, 607.9961
728.0043, 615.0154
728.4864, 623.0425
728.9685, 627.1022
729.4506, 625.7429
729.9327, 619.9770
730.4149, 607.1028
730.8970, 591.9452
731.3791, 587.1915
731.8612, 591.6570
732.3433, 593.7564
732.8254, 589.8433
733.3076, 584.5532
733.7897, 582.6687
734.2718, 583.8918
734.7539, 584.2712
735.2360, 584.5073
735.7181, 582.6646
736.2003, 576.1780
736.6824, 569.7996
737.1645, 567.0474
737.6466, 566.7383
738.1287, 565.2201
738.6108, 560.7408
739.0930, 556.8134
739.5751, 556.1636
740.0572, 556.6154
740.5393, 555.2372
741.0214, 552.5520
741.5035, 550.9346
741.9857, 551.5087
742.4678, 553.6942
742.9499, 558.2693
743.4320, 564.6711
743.9141, 564.2978
744.3962, 555.8636
744.8784, 546.9094
745.3605, 539.4952
745.8426, 534.1253
746.3247, 532.1281
746.8068, 534.0879
747.2889, 533.8236
747.7711, 529.3275
748.2532, 525.3377
748.7353, 524.0371
749.2174, 522.8975
749.6995, 519.4771
750.1816, 513.9595
750.6638, 508.0963
751.1459, 502.3460
751.6280, 497.2706
752.1101, 493.2836
752.5922, 490.3713
753.0743, 489.3480
753.5565, 489.7895
754.0386, 488.3654
754.5207, 482.8456
755.0028, 476.4210
755.4849, 476.0316
755.9670, 482.5574
756.4492, 486.8667
756.9313, 488.3487
757.4134, 488.7542
757.8955, 488.8890
758.3776, 488.3321
758.8597, 485.3716
759.3419, 479.3645
759.8240, 477.7037
760.3061, 485.4268
760.7882, 492.2755
761.2703, 494.6082
761.7524, 494.0002
762.2346, 491.7831
762.7167, 488.4230
763.1988, 484.3972
763.6809, 479.6544
764.1630, 474.9464
764.6451, 470.1163
765.1273, 466.1646
765.6094, 467.5141
766.0915, 473.8329
766.5736, 476.0988
767.0557, 468.2632
767.5378, 455.1977
768.0200, 446.9673
768.5021, 443.7363
768.9842, 445.1470
769.4663, 453.8976
769.9484, 461.6435
770.4305, 466.2510
770.9127, 466.8351
771.3948, 460.2830
771.8769, 445.6892
772.3590, 436.5138
772.8411, 437.7878
773.3232, 440.6099
773.8054, 442.2916
774.2875, 443.3128
774.7696, 444.5370
775.2517, 445.8367
775.7338, 446.1082
776.2159, 444.2984
776.6981, 442.1713
777.1802, 440.5779
777.6623, 440.4482
778.1444, 446.3898
778.6265, 457.5309
779.1086, 463.1288
779.5908, 456.6906
780.0729, 444.6122
780.5550, 439.0921
781.0371, 441.0497
781.5192, 439.9426
782.0013, 433.6367
782.4835, 430.1565
782.9656, 434.7524
783.4477, 441.5565
783.9298, 442.6096
784.4119, 437.7772
784.8940, 434.2328
785.3762, 433.0193
785.8583, 432.1665
786.3404, 430.9943
786.8225, 430.0900
787.3046, 429.7442
787.7867, 430.1346
788.2689, 432.0640
788.7510, 436.9006
789.2331, 439.9615
789.7152, 434.6058
790.1973, 426.3099
790.6794, 425.6788
791.1616, 431.0286
791.6437, 430.8349
792.1258, 420.1087
792.6079, 407.9625
793.0900, 407.7556
793.5721, 417.9539
794.0543, 422.7186
794.5364, 421.0678
795.0185, 420.3276
795.5006, 422.8669
795.9827, 426.4234
796.4648, 429.0927
796.9470, 430.8628
797.4291, 431.5170
797.9112, 430.4145
798.3933, 429.0850
798.8754, 426.5919
799.3575, 424.8806
799.8397, 425.2783
800.3218, 427.2005
800.8039, 430.1678
801.2860, 434.6133
801.7681, 436.1447
802.2502, 427.9435
802.7324, 419.9374
803.2145, 422.3007
803.6966, 431.2895
804.1787, 438.8952
804.6608, 443.3183
805.1429, 448.9090
805.6251, 460.5416
806.1072, 474.1091
806.5893, 479.2548
807.0714, 477.3820
807.5535, 478.9528
808.0356, 485.8126
808.5178, 495.2016
808.9999, 505.4647
809.4820, 516.7211
809.9641, 528.8964
810.4462, 541.5186
810.9283, 557.1663
811.4105, 578.0728
811.8926, 598.4964
812.3747, 617.1161
812.8568, 633.4715
813.3389, 644.5711
813.8210, 650.5028
814.3032, 663.9398
814.7853, 693.7903
815.2674, 722.3721
815.7495, 744.0208
816.2316, 761.4849
816.7137, 778.5751
817.1959, 793.9385
817.6780, 803.5252
818.1601, 806.1122
818.6422, 800.2584
819.1243, 783.3923
819.6064, 757.9935
820.0886, 724.7894
820.5707, 686.4293
821.0528, 650.8707
821.5349, 620.7096
822.0170, 594.5717
822.4991, 570.8476
822.9813, 549.5821
823.4634, 530.9534
823.9455, 514.8709
824.4276, 500.7495
824.9097, 488.6653
825.3918, 477.7155
825.8740, 467.2964
826.3561, 457.4257
826.8382, 448.1818
827.3203, 438.6075
827.8024, 431.9128
828.2845, 430.4612
828.7667, 429.0164
829.2488, 426.0209
829.7309, 421.8333
830.2130, 417.2138
830.6951, 412.1760
831.1772, 404.9460
831.6594, 387.7950
832.1415, 377.3059
832.6236, 387.7966
833.1057, 403.1564
833.5878, 406.3753
834.0699, 398.9507
834.5521, 392.2270
835.0342, 391.4063
835.5163, 391.6160
835.9984, 386.9071
836.4805, 381.0511
836.9626, 380.2998
837.4448, 384.1941
837.9269, 390.6490
838.4090, 398.6805
838.8911, 405.0676
839.3732, 405.7682
839.8553, 402.6065
840.3375, 402.9740
840.8196, 406.9875
841.3017, 408.2131
841.7838, 405.1803
842.2659, 400.6356
842.7480, 395.6487
843.2302, 391.4380
843.7123, 391.4026
844.1944, 397.4366
844.6765, 401.4441
845.1586, 404.5795
845.6407, 403.9599
846.1229, 391.7651
846.6050, 380.1228
847.0871, 383.6233
847.5692, 400.8998
848.0513, 412.8917
848.5334, 415.9832
849.0156, 414.9489
849.4977, 407.2497
849.9798, 399.3210
850.4619, 395.6552
850.9440, 395.8116
851.4261, 398.7279
851.9083, 404.3538
852.3904, 408.5078
852.8725, 407.6687
853.3546, 404.6798
853.8367, 401.2021
854.3188, 398.3304
854.8010, 398.4753
855.2831, 401.7070
855.7652, 405.5707
856.2473, 408.6542
856.7294, 410.1986
857.2115, 407.0836
857.6937, 401.0356
858.1758, 401.1653
858.6579, 408.0326
859.1400, 411.8098
859.6221, 407.3987
860.1042, 401.8226
860.5864, 406.2827
861.0685, 420.1293
861.5506, 424.9760
862.0327, 418.0976
862.5148, 413.0659
862.9969, 413.9175
863.4791, 415.1085
863.9612, 412.1063
864.4433, 406.0197
864.9254, 400.6346
865.4075, 393.1921
865.8896, 392.2705
866.3718, 403.8600
866.8539, 414.5401
867.3360, 421.2607
867.8181, 423.6380
868.3002, 418.6450
868.7823, 407.1761
869.2645, 401.3034
869.7466, 408.7115
870.2287, 416.2796
870.7108, 419.5714
871.1929, 420.4224
871.6750, 418.5309
872.1572, 415.9809
872.6393, 417.5021
873.1214, 424.8594
873.6035, 431.7009
874.0856, 434.1271
874.5677, 433.1023
875.0499, 427.1325
875.5320, 419.3416
876.0141, 416.2986
876.4962, 418.8448
876.9783, 423.2872
877.4604, 427.3777
877.9426, 431.0299
878.4247, 434.0992
878.9068, 436.5851
879.3889, 438.3679
879.8710, 439.4857
880.3531, 439.9465
880.8353, 439.6036
881.3174, 440.9417
881.7995, 447.4630
882.2816, 458.0819
882.7637, 466.9781
883.2458, 474.8799
883.7280, 473.8387
884.2101, 459.2930
884.6922, 446.4725
885.1743, 445.5216
885.6564, 452.4290
886.1385, 458.7386
886.6207, 464.3804
887.1028, 469.8775
887.5849, 478.6487
888.0670, 481.5997
888.5491, 470.6631
889.0313, 457.9605
889.5134, 453.9885
889.9955, 457.2793
890.4776, 461.0344
890.9597, 464.5583
891.4418, 468.9626
891.9240, 477.7198
892.4061, 483.8020
892.8882, 480.2393
893.3703, 473.5306
893.8524, 472.4991
894.3345, 478.1543
894.8167, 485.6824
895.2988, 495.9985
895.7809, 504.2287
896.2630, 507.2496
896.7451, 507.3203
897.2272, 505.5240
897.7094, 503.0508
898.1915, 501.4834
898.6736, 501.3683
899.1557, 503.8948
899.6378, 512.3068
900.1199, 522.0621
900.6021, 526.4691
901.0842, 528.1678
901.5663, 533.6873
902.0484, 543.3705
902.5305, 551.6859
903.0126, 554.8826
903.4948, 556.7795
903.9769, 562.2891
904.4590, 571.1407
904.9411, 583.1945
905.4232, 597.9977
905.9053, 611.3306
906.3875, 621.8548
906.8696, 635.9137
907.3517, 660.8581
907.8338, 691.9332
908.3159, 713.3223
908.7980, 724.9318
909.2802, 735.1569
909.7623, 743.9481
910.2444, 758.0667
910.7265, 780.9653
911.2086, 810.0266
911.6907, 842.0485
912.1729, 877.0137
912.6550, 912.5554
913.1371, 948.2410
913.6192, 985.7327
914.1013, 1023.460
914.5834, 1066.961
915.0656, 1123.154
915.5477, 1185.903
916.0298, 1242.679
916.5119, 1295.616
916.9940, 1334.607
917.4761, 1352.043
917.9583, 1366.217
918.4404, 1392.774
918.9225, 1407.992
919.4046, 1387.190
919.8867, 1338.865
920.3688, 1295.251
920.8510, 1263.010
921.3331, 1225.651
921.8152, 1174.111
922.2973, 1124.697
922.7794, 1088.153
923.2615, 1055.419
923.7437, 1013.208
924.2258, 962.8467
924.7079, 922.3168
925.1900, 900.3686
925.6721, 883.2056
926.1542, 866.7123
926.6364, 851.5280
927.1185, 838.7713
927.6006, 827.5610
928.0827, 814.6480
928.5648, 800.0957
929.0469, 791.9229
929.5291, 800.1182
930.0112, 809.9249
930.4933, 808.0452
930.9754, 802.9741
931.4575, 805.1433
931.9396, 813.9664
932.4218, 825.0544
932.9039, 836.7648
933.3860, 846.7732
933.8681, 849.4143
934.3502, 852.1544
934.8323, 868.2126
935.3145, 890.5155
935.7966, 903.1627
936.2787, 905.6801
936.7608, 908.1727
937.2429, 915.8575
937.7250, 927.1262
938.2072, 940.9730
938.6893, 956.6187
939.1714, 971.4493
939.6535, 986.4090
940.1356, 1008.276
940.6177, 1037.182
941.0999, 1058.288
941.5820, 1060.296
942.0641, 1053.199
942.5462, 1053.221
943.0283, 1059.991
943.5104, 1074.967
943.9926, 1096.966
944.4747, 1109.689
944.9568, 1107.956
945.4389, 1102.002
945.9210, 1101.040
946.4031, 1102.617
946.8853, 1100.637
947.3674, 1095.073
947.8495, 1082.438
948.3316, 1061.672
948.8137, 1044.491
949.2958, 1036.308
949.7780, 1028.520
950.2601, 1010.294
950.7422, 985.0818
951.2243, 973.3170
951.7064, 978.3345
952.1885, 973.8139
952.6707, 954.0339
953.1528, 937.5129
953.6349, 933.9865
954.1170, 935.5251
954.5991, 931.0548
955.0812, 921.0315
955.5634, 914.8747
956.0455, 912.6036
956.5276, 915.2814
957.0097, 928.4438
957.4918, 934.6072
957.9739, 919.1026
958.4561, 896.7797
958.9382, 892.6359
959.4203, 908.1221
959.9024, 921.5605
960.3845, 937.0960
960.8666, 941.6938
961.3488, 924.9797
961.8309, 908.4853
962.3130, 905.2499
962.7951, 911.1062
963.2772, 918.6419
963.7593, 928.5552
964.2415, 936.4236
964.7236, 942.7314
965.2057, 946.2869
965.6878, 942.3637
966.1699, 940.0497
966.6520, 948.6326
967.1342, 962.3250
967.6163, 966.6136
968.0984, 957.1092
968.5805, 954.5958
969.0626, 965.7391
969.5447, 976.3832
970.0269, 980.4978
970.5090, 985.1052
970.9911, 999.0639
971.4732, 1017.345
971.9553, 1025.174
972.4374, 1016.910
972.9196, 1013.641
973.4017, 1022.789
973.8838, 1031.580
974.3659, 1033.771
974.8480, 1035.177
975.3301, 1042.298
975.8123, 1053.036
976.2944, 1059.063
976.7765, 1055.740
977.2586, 1058.865
977.7407, 1081.310
978.2228, 1099.497
978.7050, 1098.065
979.1871, 1091.298
979.6692, 1093.189
980.1513, 1102.786
980.6334, 1112.534
981.1155, 1121.006
981.5977, 1128.926
982.0798, 1135.614
982.5619, 1142.836
983.0440, 1153.219
983.5261, 1163.448
984.0082, 1170.294
984.4904, 1173.591
984.9725, 1173.700
985.4546, 1168.906
985.9367, 1166.361
986.4188, 1165.953
986.9009, 1171.543
987.3831, 1190.165
987.8652, 1212.756
988.3473, 1230.332
988.8294, 1241.622
989.3115, 1246.501
989.7936, 1241.518
990.2758, 1240.269
990.7579, 1250.334
991.2400, 1263.732
991.7221, 1277.425
992.2042, 1290.078
992.6863, 1298.764
993.1685, 1305.055
993.6506, 1316.953
994.1327, 1340.699
994.6148, 1359.515
995.0969, 1362.640
995.5790, 1361.849
996.0612, 1363.231
996.5433, 1366.655
997.0254, 1369.510
997.5075, 1373.324
997.9896, 1385.814
998.4717, 1413.394
998.9539, 1438.365
999.4360, 1452.423
999.9181, 1461.328
1000.400, 1464.127
1000.882, 1467.234
1001.364, 1480.489
1001.847, 1502.016
1002.329, 1519.610
1002.811, 1528.314
1003.293, 1535.151
1003.775, 1542.009
1004.257, 1549.726
1004.739, 1558.661
1005.221, 1568.878
1005.703, 1580.470
1006.186, 1593.297
1006.668, 1607.593
1007.150, 1624.669
1007.632, 1638.704
1008.114, 1643.784
1008.596, 1648.542
1009.078, 1659.015
1009.560, 1672.105
1010.043, 1682.969
1010.525, 1692.479
1011.007, 1705.798
1011.489, 1725.148
1011.971, 1746.303
1012.453, 1772.870
1012.935, 1794.676
1013.417, 1802.809
1013.899, 1804.707
1014.382, 1806.029
1014.864, 1809.058
1015.346, 1817.980
1015.828, 1835.405
1016.310, 1852.194
1016.792, 1865.127
1017.274, 1876.190
1017.756, 1880.984
1018.239, 1888.747
1018.721, 1916.431
1019.203, 1954.663
1019.685, 1971.506
1020.167, 1953.205
1020.649, 1946.406
1021.131, 1977.877
1021.613, 2009.835
1022.095, 2021.002
1022.578, 2028.062
1023.060, 2048.352
1023.542, 2077.461
1024.024, 2100.184
1024.506, 2111.897
1024.988, 2129.018
1025.470, 2166.173
1025.952, 2195.730
1026.435, 2200.084
1026.917, 2199.329
1027.399, 2206.829
1027.881, 2222.550
1028.363, 2247.165
1028.845, 2283.103
1029.327, 2306.788
1029.809, 2297.077
1030.292, 2298.003
1030.774, 2333.028
1031.256, 2370.786
1031.738, 2386.405
1032.220, 2391.341
1032.702, 2408.116
1033.184, 2439.351
1033.666, 2467.646
1034.148, 2487.975
1034.630, 2509.896
1035.113, 2534.054
1035.595, 2561.184
1036.077, 2595.183
1036.559, 2630.504
1037.041, 2658.612
1037.523, 2679.337
1038.005, 2698.048
1038.487, 2710.089
1038.970, 2727.777
1039.452, 2756.760
1039.934, 2785.100
1040.416, 2803.644
1040.898, 2822.054
1041.380, 2853.510
1041.862, 2896.488
1042.344, 2934.960
1042.826, 2969.533
1043.309, 2997.020
1043.791, 3010.972
1044.273, 3029.689
1044.755, 3061.085
1045.237, 3098.679
1045.719, 3136.647
1046.201, 3175.262
1046.683, 3217.216
1047.166, 3268.021
1047.648, 3302.653
1048.130, 3313.831
1048.612, 3330.281
1049.094, 3362.023
1049.576, 3397.631
1050.058, 3426.807
1050.540, 3453.363
1051.022, 3488.296
1051.505, 3532.622
1051.987, 3576.815
1052.469, 3622.894
1052.951, 3648.747
1053.433, 3642.477
1053.915, 3654.638
1054.397, 3723.259
1054.879, 3818.612
1055.361, 3887.984
1055.844, 3932.969
1056.326, 3971.915
1056.808, 4005.117
1057.290, 4041.944
1057.772, 4084.086
1058.254, 4121.373
1058.736, 4147.630
1059.218, 4175.801
1059.701, 4224.055
1060.183, 4286.713
1060.665, 4347.022
1061.147, 4404.549
1061.629, 4454.164
1062.111, 4496.408
1062.593, 4538.566
1063.075, 4583.623
1063.557, 4631.314
1064.040, 4681.162
1064.522, 4732.799
1065.004, 4785.599
1065.486, 4839.148
1065.968, 4893.120
1066.450, 4946.650
1066.932, 4997.230
1067.414, 5044.500
1067.896, 5089.033
1068.379, 5128.624
1068.861, 5174.941
1069.343, 5247.913
1069.825, 5330.551
1070.307, 5403.611
1070.789, 5466.208
1071.271, 5512.981
1071.753, 5549.581
1072.236, 5599.290
1072.718, 5673.711
1073.200, 5756.725
1073.682, 5845.513
1074.164, 5929.064
1074.646, 5995.969
1075.128, 6054.413
1075.610, 6111.924
1076.093, 6170.694
1076.575, 6233.917
1077.057, 6302.807
1077.539, 6368.131
1078.021, 6412.560
1078.503, 6469.856
1078.985, 6569.537
1079.467, 6673.767
1079.949, 6749.561
1080.432, 6811.726
1080.914, 6888.256
1081.396, 6981.394
1081.878, 7072.937
1082.360, 7175.501
1082.842, 7252.595
1083.324, 7265.417
1083.806, 7291.243
1084.288, 7372.246
1084.771, 7477.982
1085.253, 7577.854
1085.735, 7672.552
1086.217, 7768.593
1086.699, 7873.878
1087.181, 7957.311
1087.663, 8004.632
1088.145, 8058.183
1088.628, 8127.553
1089.110, 8208.489
1089.592, 8300.115
1090.074, 8399.502
1090.556, 8502.795
1091.038, 8610.565
1091.520, 8699.899
1092.002, 8767.239
1092.484, 8835.325
1092.967, 8907.751
1093.449, 8983.302
1093.931, 9063.518
1094.413, 9137.644
1094.895, 9188.136
1095.377, 9226.551
1095.859, 9301.130
1096.341, 9405.429
1096.823, 9479.671
1097.306, 9524.798
1097.788, 9606.101
1098.270, 9741.714
1098.752, 9874.692
1099.234, 9959.271
1099.716, 10016.95
1100.198, 10076.78
1100.680, 10135.80
1101.163, 10177.00
1101.645, 10215.16
1102.127, 10295.56
1102.609, 10415.13
1103.091, 10528.33
1103.573, 10613.09
1104.055, 10687.17
1104.537, 10765.27
1105.020, 10838.46
1105.502, 10898.44
1105.984, 10948.67
1106.466, 10976.51
1106.948, 11003.95
1107.430, 11084.74
1107.912, 11226.50
1108.394, 11353.17
1108.876, 11429.71
1109.359, 11492.08
1109.841, 11542.61
1110.323, 11594.86
1110.805, 11653.43
1111.287, 11720.72
1111.769, 11802.31
1112.251, 11895.16
1112.733, 11983.28
1113.215, 12058.01
1113.698, 12145.40
1114.180, 12266.47
1114.662, 12366.85
1115.144, 12426.57
1115.626, 12474.25
1116.108, 12526.15
1116.590, 12581.56
1117.072, 12639.69
1117.555, 12700.65
1118.037, 12760.46
1118.519, 12815.71
1119.001, 12891.23
1119.483, 12992.65
1119.965, 13098.92
1120.447, 13203.25
1120.929, 13293.64
1121.411, 13353.37
1121.894, 13399.00
1122.376, 13475.99
1122.858, 13577.19
1123.340, 13667.74
1123.822, 13747.19
1124.304, 13824.48
1124.786, 13901.67
1125.268, 13980.47
1125.750, 14061.96
1126.233, 14139.55
1126.715, 14202.54
1127.197, 14258.74
1127.679, 14313.90
1128.161, 14372.82
1128.643, 14450.03
1129.125, 14536.67
1129.607, 14602.61
1130.090, 14643.65
1130.572, 14700.80
1131.054, 14804.45
1131.536, 14912.27
1132.018, 15021.34
1132.500, 15106.65
1132.982, 15125.01
1133.464, 15129.35
1133.947, 15182.43
1134.429, 15279.94
1134.911, 15387.66
1135.393, 15513.76
1135.875, 15607.25
1136.357, 15630.86
1136.839, 15670.25
1137.321, 15750.35
1137.803, 15834.08
1138.286, 15901.93
1138.768, 15960.44
1139.250, 16021.24
1139.732, 16082.04
1140.214, 16115.17
1140.696, 16111.15
1141.178, 16160.35
1141.660, 16273.20
1142.142, 16393.10
1142.625, 16503.14
1143.107, 16587.26
1143.589, 16629.00
1144.071, 16657.75
1144.553, 16733.30
1145.035, 16834.82
1145.517, 16889.83
1145.999, 16916.87
1146.482, 16980.57
1146.964, 17079.53
1147.446, 17169.42
1147.928, 17233.23
1148.410, 17284.11
1148.892, 17319.89
1149.374, 17367.00
1149.856, 17463.42
1150.339, 17568.10
1150.821, 17640.93
1151.303, 17693.36
1151.785, 17744.04
1152.267, 17796.06
1152.749, 17848.37
1153.231, 17898.79
1153.713, 17956.60
1154.195, 18032.77
1154.677, 18105.10
1155.160, 18164.63
1155.642, 18220.75
1156.124, 18274.72
1156.606, 18332.82
1157.088, 18407.02
1157.570, 18494.93
1158.052, 18564.49
1158.534, 18604.39
1159.017, 18683.51
1159.499, 18814.31
1159.981, 18924.07
1160.463, 18988.47
1160.945, 19051.21
1161.427, 19145.69
1161.909, 19253.02
1162.391, 19344.78
1162.874, 19422.99
1163.356, 19485.07
1163.838, 19541.95
1164.320, 19637.29
1164.802, 19762.48
1165.284, 19860.33
1165.766, 19916.59
1166.248, 19979.86
1166.730, 20087.75
1167.213, 20199.79
1167.695, 20264.19
1168.177, 20337.04
1168.659, 20499.82
1169.141, 20677.51
1169.623, 20756.18
1170.105, 20767.85
1170.587, 20837.45
1171.069, 20997.33
1171.552, 21126.98
1172.034, 21166.82
1172.516, 21237.02
1172.998, 21383.24
1173.480, 21523.54
1173.962, 21620.08
1174.444, 21698.28
1174.926, 21777.74
1175.409, 21865.72
1175.891, 21992.95
1176.373, 22164.19
1176.855, 22303.39
1177.337, 22410.25
1177.819, 22521.06
1178.301, 22642.46
1178.783, 22747.60
1179.266, 22823.41
1179.748, 22911.93
1180.230, 23065.39
1180.712, 23241.03
1181.194, 23364.33
1181.676, 23463.65
1182.158, 23571.31
1182.640, 23698.92
1183.122, 23880.28
1183.604, 24099.85
1184.087, 24277.93
1184.569, 24378.95
1185.051, 24485.17
1185.533, 24645.74
1186.015, 24803.42
1186.497, 24922.09
1186.979, 25043.13
1187.461, 25210.16
1187.944, 25387.78
1188.426, 25520.27
1188.908, 25616.98
1189.390, 25730.61
1189.872, 25861.09
1190.354, 26012.23
1190.836, 26188.92
1191.318, 26367.25
1191.801, 26542.16
1192.283, 26712.83
1192.765, 26877.97
1193.247, 27037.22
1193.729, 27180.48
1194.211, 27334.13
1194.693, 27596.12
1195.175, 27910.75
1195.657, 28121.08
1196.140, 28251.85
1196.622, 28403.30
1197.104, 28589.94
1197.586, 28763.23
1198.068, 28900.08
1198.550, 29039.97
1199.032, 29191.75
1199.514, 29374.39
1199.996, 29624.51
1200.479, 29884.06
1200.961, 30110.99
1201.443, 30316.25
1201.925, 30510.54
1202.407, 30699.37
1202.889, 30920.40
1203.371, 31193.08
1203.853, 31428.82
1204.336, 31607.44
1204.818, 31817.78
1205.300, 32085.73
1205.782, 32356.13
1206.264, 32600.55
1206.746, 32818.12
1207.228, 32995.05
1207.710, 33171.75
1208.193, 33474.03
1208.675, 33850.51
1209.157, 34151.54
1209.639, 34390.11
1210.121, 34611.92
1210.603, 34832.71
1211.085, 35059.49
1211.567, 35295.76
1212.049, 35553.93
1212.531, 35851.77
1213.014, 36162.11
1213.496, 36493.42
1213.978, 36807.26
1214.460, 37052.49
1214.942, 37281.45
1215.424, 37564.00
1215.906, 37885.30
1216.388, 38178.20
1216.871, 38427.96
1217.353, 38751.60
1217.835, 39183.86
1218.317, 39534.58
1218.799, 39764.19
1219.281, 40009.70
1219.763, 40329.88
1220.245, 40676.03
1220.728, 41009.06
1221.210, 41327.06
1221.692, 41603.29
1222.174, 41874.30
1222.656, 42230.00
1223.138, 42633.17
1223.620, 43007.86
1224.102, 43350.86
1224.584, 43682.44
1225.067, 44009.63
1225.549, 44349.57
1226.031, 44714.48
1226.513, 45077.60
1226.995, 45430.79
1227.477, 45778.65
1227.959, 46118.54
1228.441, 46462.93
1228.923, 46823.84
1229.406, 47196.77
1229.888, 47577.46
1230.370, 47965.67
1230.852, 48323.55
1231.334, 48648.63
1231.816, 49005.68
1232.298, 49397.58
1232.780, 49826.16
1233.263, 50284.50
1233.745, 50695.79
1234.227, 51016.17
1234.709, 51329.11
1235.191, 51721.78
1235.673, 52152.53
1236.155, 52595.61
1236.637, 53037.23
1237.120, 53457.57
1237.602, 53862.90
1238.084, 54232.48
1238.566, 54594.04
1239.048, 55072.16
1239.530, 55745.19
1240.012, 56268.80
1240.494, 56476.42
1240.976, 56835.83
1241.458, 57455.52
1241.941, 58103.34
1242.423, 58694.01
1242.905, 59244.59
##END=



