##NAMES=Pyrosmalite-(Fe)
##RRUFFID=R060438
##IDEAL CHEMISTRY=Fe^2+^_8_Si_6_O_15_(OH)_10_
##LOCALITY=Monchi mine, Brugillos del Cerro, Badoz Province, Spain
##OWNER=RRUFF
##SOURCE=Michael Scott
##DESCRIPTION=Colorless hexagonal prisms
##STATUS=The identification of this mineral is confirmed by single-crystal X-ray diffraction and chemical analysis.
##URL=rruff.info/R060438
##MEASURED CHEMISTRY=(Fe^2+^_7.44_Mn_0.31_Mg_0.25_)_Σ=8_Si_6.00_O_15_((OH)_8.20_Cl_1.80_)_Σ=10_ ; OH estimated by difference and charge balance
161.9064, 151.1273
162.3885, 154.5942
162.8706, 159.0198
163.3527, 163.2531
163.8349, 166.4347
164.3170, 168.8680
164.7991, 172.0033
165.2812, 177.1653
165.7633, 183.0595
166.2454, 188.5059
166.7276, 192.5835
167.2097, 196.6238
167.6918, 201.5396
168.1739, 207.2083
168.6560, 212.9777
169.1381, 217.7939
169.6203, 222.5944
170.1024, 227.0657
170.5845, 233.4942
171.0666, 240.5767
171.5487, 246.5078
172.0309, 251.3614
172.5130, 256.2746
172.9951, 261.9502
173.4772, 268.1989
173.9593, 274.7562
174.4414, 281.3515
174.9236, 288.2491
175.4057, 295.8618
175.8878, 304.2639
176.3699, 312.4496
176.8520, 319.1881
177.3341, 325.1430
177.8163, 331.7925
178.2984, 340.4460
178.7805, 349.8584
179.2626, 358.0932
179.7447, 364.9169
180.2268, 371.3530
180.7090, 378.0399
181.1911, 385.0193
181.6732, 392.3781
182.1553, 400.4198
182.6374, 408.8169
183.1195, 416.6284
183.6017, 423.8961
184.0838, 430.8039
184.5659, 437.8001
185.0480, 444.7905
185.5301, 451.6497
186.0123, 458.0065
186.4944, 464.1368
186.9765, 470.8033
187.4586, 478.2043
187.9407, 485.7242
188.4228, 492.7511
188.9050, 499.2425
189.3871, 505.0397
189.8692, 510.0820
190.3513, 514.3275
190.8334, 517.4130
191.3155, 519.0358
191.7977, 520.2026
192.2798, 522.9487
192.7619, 527.2757
193.2440, 530.7682
193.7261, 532.3811
194.2082, 532.1437
194.6904, 530.2778
195.1725, 526.7010
195.6546, 521.7349
196.1367, 516.1724
196.6188, 510.0396
197.1009, 502.8064
197.5831, 493.8917
198.0652, 483.2254
198.5473, 472.5274
199.0294, 461.6598
199.5115, 451.1016
199.9937, 441.9991
200.4758, 434.6324
200.9579, 427.5728
201.4400, 419.8666
201.9221, 411.3726
202.4042, 404.1265
202.8864, 398.3062
203.3685, 393.7066
203.8506, 390.0276
204.3327, 387.4610
204.8148, 385.1561
205.2969, 383.0279
205.7791, 381.3211
206.2612, 377.8260
206.7433, 371.8029
207.2254, 364.3915
207.7075, 358.7789
208.1896, 355.6515
208.6718, 352.2839
209.1539, 347.0312
209.6360, 339.6133
210.1181, 331.9703
210.6002, 324.0439
211.0823, 316.0504
211.5645, 308.6583
212.0466, 302.0334
212.5287, 295.5586
213.0108, 288.7602
213.4929, 281.2812
213.9750, 274.8111
214.4572, 269.7741
214.9393, 265.6803
215.4214, 260.8388
215.9035, 254.8330
216.3856, 248.8746
216.8678, 243.7527
217.3499, 239.6006
217.8320, 235.6281
218.3141, 231.9278
218.7962, 228.3643
219.2783, 224.4277
219.7605, 219.6944
220.2426, 215.4044
220.7247, 212.3644
221.2068, 211.0672
221.6889, 209.6242
222.1710, 207.9454
222.6532, 206.0791
223.1353, 204.1643
223.6174, 201.9453
224.0995, 200.0765
224.5816, 199.1369
225.0637, 200.1000
225.5459, 199.3989
226.0280, 196.3066
226.5101, 191.6170
226.9922, 187.8451
227.4743, 185.2464
227.9564, 183.1044
228.4386, 181.0900
228.9207, 179.3503
229.4028, 177.4227
229.8849, 175.0211
230.3670, 172.4868
230.8492, 170.8077
231.3313, 170.5806
231.8134, 170.3286
232.2955, 169.3328
232.7776, 167.2363
233.2597, 165.2071
233.7419, 162.9389
234.2240, 160.8268
234.7061, 160.1490
235.1882, 162.0440
235.6703, 163.6453
236.1524, 163.5906
236.6346, 160.7755
237.1167, 158.8679
237.5988, 158.2289
238.0809, 158.3548
238.5630, 157.9839
239.0451, 156.5087
239.5273, 155.4565
240.0094, 155.6515
240.4915, 158.0570
240.9736, 159.1021
241.4557, 158.1006
241.9378, 156.0477
242.4200, 155.0488
242.9021, 155.6266
243.3842, 156.4241
243.8663, 156.8769
244.3484, 156.6812
244.8306, 157.1047
245.3127, 158.5352
245.7948, 160.3753
246.2769, 161.4340
246.7590, 161.1114
247.2411, 161.0195
247.7233, 161.8959
248.2054, 164.2708
248.6875, 165.5496
249.1696, 165.0735
249.6517, 163.9360
250.1338, 163.9962
250.6160, 165.9629
251.0981, 167.8581
251.5802, 169.0050
252.0623, 169.2359
252.5444, 169.6264
253.0265, 170.2085
253.5087, 170.9229
253.9908, 171.6434
254.4729, 172.2474
254.9550, 173.1284
255.4371, 174.5378
255.9192, 176.5907
256.4014, 178.1688
256.8835, 179.3430
257.3656, 179.9703
257.8477, 179.7515
258.3298, 178.1489
258.8120, 176.9102
259.2941, 176.5498
259.7762, 177.1281
260.2583, 177.5007
260.7404, 177.4710
261.2225, 177.4785
261.7047, 178.0997
262.1868, 179.6921
262.6689, 180.9340
263.1510, 181.3875
263.6331, 181.0817
264.1152, 181.4068
264.5974, 182.7086
265.0795, 184.1027
265.5616, 184.7498
266.0437, 184.5932
266.5258, 183.8395
267.0079, 182.1267
267.4901, 179.6937
267.9722, 179.0611
268.4543, 180.9928
268.9364, 183.1932
269.4185, 183.5055
269.9006, 181.2841
270.3828, 180.0572
270.8649, 180.6346
271.3470, 182.5813
271.8291, 183.8566
272.3112, 184.3567
272.7933, 184.4783
273.2755, 184.3636
273.7576, 183.9168
274.2397, 183.8961
274.7218, 184.5318
275.2039, 185.5635
275.6860, 186.0449
276.1682, 185.7491
276.6503, 185.7737
277.1324, 187.1571
277.6145, 190.0599
278.0966, 191.9146
278.5787, 192.1954
279.0609, 191.7227
279.5430, 192.4320
280.0251, 194.5116
280.5072, 196.6293
280.9893, 198.3612
281.4715, 199.6946
281.9536, 199.6416
282.4357, 197.8734
282.9178, 195.2643
283.3999, 193.1822
283.8820, 191.6329
284.3642, 190.4272
284.8463, 189.7292
285.3284, 189.4441
285.8105, 188.4809
286.2926, 186.7090
286.7747, 184.6270
287.2569, 182.6772
287.7390, 180.8772
288.2211, 179.7608
288.7032, 179.8481
289.1853, 180.8461
289.6674, 181.3907
290.1496, 181.4248
290.6317, 181.4102
291.1138, 181.8596
291.5959, 182.7363
292.0780, 183.7472
292.5602, 184.7878
293.0423, 185.9099
293.5244, 187.1626
294.0065, 188.5326
294.4886, 190.2767
294.9707, 193.0501
295.4529, 196.5114
295.9350, 199.3011
296.4171, 200.7672
296.8992, 201.6975
297.3813, 203.3747
297.8634, 205.7639
298.3456, 208.6094
298.8277, 211.7922
299.3098, 215.2595
299.7919, 218.9275
300.2740, 222.8393
300.7561, 226.7916
301.2383, 230.3294
301.7204, 233.5720
302.2025, 236.8243
302.6846, 240.6486
303.1667, 244.5255
303.6488, 247.6451
304.1310, 249.6861
304.6131, 251.4862
305.0952, 254.0270
305.5773, 256.9962
306.0594, 259.5392
306.5415, 260.6416
307.0237, 261.3838
307.5058, 263.0831
307.9879, 265.9803
308.4700, 268.9355
308.9521, 271.1434
309.4343, 272.8143
309.9164, 274.3752
310.3985, 276.1989
310.8806, 277.8676
311.3627, 278.8224
311.8448, 279.0376
312.3270, 279.6115
312.8091, 281.6137
313.2912, 284.2155
313.7733, 286.4384
314.2554, 287.6133
314.7375, 288.6017
315.2197, 289.4964
315.7018, 290.4115
316.1839, 292.1849
316.6660, 295.9943
317.1481, 300.4228
317.6302, 304.2448
318.1124, 306.4989
318.5945, 308.9674
319.0766, 311.9552
319.5587, 315.5763
320.0408, 320.2481
320.5229, 326.5516
321.0051, 333.6235
321.4872, 341.0263
321.9693, 348.5816
322.4514, 356.5172
322.9335, 365.4827
323.4156, 374.8105
323.8978, 383.2138
324.3799, 390.7196
324.8620, 397.0537
325.3441, 402.1821
325.8262, 406.1242
326.3083, 408.6215
326.7905, 410.4815
327.2726, 410.6195
327.7547, 407.6973
328.2368, 401.7440
328.7189, 392.6446
329.2010, 379.6071
329.6832, 362.4078
330.1653, 345.0585
330.6474, 326.5326
331.1295, 308.6170
331.6116, 292.5617
332.0938, 278.7823
332.5759, 266.1623
333.0580, 254.7834
333.5401, 244.5056
334.0222, 235.0242
334.5043, 225.9754
334.9865, 218.1049
335.4686, 211.8555
335.9507, 207.5547
336.4328, 204.0261
336.9149, 201.4507
337.3970, 199.4426
337.8792, 197.0118
338.3613, 193.9173
338.8434, 190.9856
339.3255, 188.6037
339.8076, 186.8333
340.2898, 185.1473
340.7719, 183.6221
341.2540, 182.0328
341.7361, 179.8280
342.2182, 176.9456
342.7003, 174.4006
343.1825, 172.5756
343.6646, 171.4037
344.1467, 170.7237
344.6288, 170.6415
345.1109, 170.4838
345.5930, 169.1573
346.0752, 166.8613
346.5573, 165.5578
347.0394, 166.1494
347.5215, 167.6356
348.0036, 167.4281
348.4857, 165.5761
348.9679, 164.1189
349.4500, 165.1057
349.9321, 167.7136
350.4142, 169.5218
350.8963, 170.0645
351.3784, 169.9695
351.8606, 169.5018
352.3427, 168.9199
352.8248, 169.1865
353.3069, 171.7160
353.7890, 175.0800
354.2711, 177.1876
354.7533, 177.7457
355.2354, 178.2210
355.7175, 179.6632
356.1996, 181.8935
356.6817, 184.6000
357.1638, 188.4936
357.6460, 192.1983
358.1281, 194.4047
358.6102, 195.2165
359.0923, 196.1837
359.5744, 198.0327
360.0565, 200.5158
360.5387, 203.4421
361.0208, 207.3848
361.5029, 210.9900
361.9850, 213.6397
362.4671, 215.4634
362.9492, 216.8097
363.4314, 217.6690
363.9135, 218.1808
364.3956, 218.3632
364.8777, 218.0419
365.3598, 217.8245
365.8419, 218.4123
366.3241, 219.0595
366.8062, 218.6378
367.2883, 215.9978
367.7704, 213.2310
368.2526, 210.8985
368.7347, 209.0930
369.2168, 207.2307
369.6989, 205.1177
370.1810, 203.0464
370.6631, 201.2760
371.1453, 200.4525
371.6274, 198.9229
372.1095, 196.0139
372.5916, 192.0539
373.0737, 189.3636
373.5558, 188.4023
374.0380, 187.9903
374.5201, 187.5356
375.0022, 187.0808
375.4843, 186.4550
375.9664, 185.6403
376.4485, 184.6629
376.9307, 183.4844
377.4128, 182.0355
377.8949, 180.7216
378.3770, 179.7647
378.8591, 179.1469
379.3412, 178.4734
379.8234, 177.7676
380.3055, 176.9437
380.7876, 175.7564
381.2697, 174.2356
381.7518, 173.0943
382.2339, 172.5640
382.7161, 172.4975
383.1982, 172.6669
383.6803, 173.0619
384.1624, 173.4113
384.6445, 173.1276
385.1266, 172.6514
385.6088, 173.2842
386.0909, 175.5050
386.5730, 177.9624
387.0551, 179.2295
387.5372, 179.4534
388.0193, 179.0616
388.5015, 177.7251
388.9836, 176.1753
389.4657, 175.2087
389.9478, 174.8770
390.4299, 174.7891
390.9120, 174.5525
391.3942, 174.4419
391.8763, 174.8072
392.3584, 176.2796
392.8405, 177.7669
393.3226, 178.5241
393.8047, 178.7458
394.2869, 179.3222
394.7690, 181.5693
395.2511, 183.6191
395.7332, 184.1501
396.2154, 181.9743
396.6975, 180.3424
397.1796, 180.0237
397.6617, 180.6542
398.1438, 181.5963
398.6259, 183.2428
399.1081, 184.7298
399.5902, 185.7162
400.0723, 186.0880
400.5544, 186.7514
401.0365, 187.9642
401.5186, 189.2765
402.0008, 190.3686
402.4829, 191.5507
402.9650, 191.8850
403.4471, 190.9050
403.9292, 188.9960
404.4113, 187.8296
404.8935, 187.5965
405.3756, 187.6444
405.8577, 187.6732
406.3398, 187.6815
406.8219, 187.6789
407.3040, 187.6474
407.7862, 187.6462
408.2683, 187.7623
408.7504, 187.9997
409.2325, 188.3160
409.7146, 188.7603
410.1967, 189.2612
410.6789, 189.5625
411.1610, 189.6587
411.6431, 189.7516
412.1252, 189.7994
412.6073, 189.9643
413.0894, 190.9021
413.5716, 193.0813
414.0537, 195.2675
414.5358, 195.6633
415.0179, 194.7089
415.5000, 193.8585
415.9821, 193.8232
416.4643, 194.3369
416.9464, 195.4498
417.4285, 197.2267
417.9106, 198.4123
418.3927, 197.7298
418.8748, 196.1474
419.3570, 194.8288
419.8391, 194.3763
420.3212, 194.0468
420.8033, 193.4801
421.2854, 192.7506
421.7675, 192.1942
422.2497, 192.6936
422.7318, 192.8172
423.2139, 191.6439
423.6960, 188.1941
424.1781, 185.3958
424.6602, 184.4309
425.1424, 184.0730
425.6245, 182.5086
426.1066, 178.5131
426.5887, 174.8735
427.0709, 172.1071
427.5530, 170.2125
428.0351, 169.1409
428.5172, 169.5530
428.9993, 169.8620
429.4814, 168.7126
429.9636, 165.5250
430.4457, 163.1486
430.9278, 161.9762
431.4099, 161.5772
431.8920, 161.0989
432.3741, 160.5425
432.8563, 159.8528
433.3384, 158.7883
433.8205, 157.4842
434.3026, 156.9201
434.7847, 157.1254
435.2668, 157.7890
435.7490, 159.0267
436.2311, 160.5518
436.7132, 161.2612
437.1953, 160.6912
437.6774, 159.4229
438.1595, 157.9521
438.6417, 156.3730
439.1238, 155.0757
439.6059, 154.4470
440.0880, 154.1428
440.5701, 153.8743
441.0522, 153.6406
441.5344, 153.2116
442.0165, 152.7021
442.4986, 151.8362
442.9807, 150.2734
443.4628, 146.9147
443.9449, 143.8039
444.4271, 141.8948
444.9092, 141.0029
445.3913, 140.0152
445.8734, 138.3247
446.3555, 136.7503
446.8376, 135.6815
447.3198, 135.1348
447.8019, 135.1464
448.2840, 136.2199
448.7661, 137.6295
449.2482, 138.3683
449.7303, 138.2175
450.2125, 137.7310
450.6946, 136.8422
451.1767, 135.6105
451.6588, 134.9846
452.1409, 135.0887
452.6230, 135.4981
453.1052, 135.9291
453.5873, 136.3788
454.0694, 136.9218
454.5515, 137.5358
455.0337, 138.2982
455.5158, 139.4148
455.9979, 140.8673
456.4800, 142.2378
456.9621, 143.1946
457.4442, 144.0033
457.9264, 145.3682
458.4085, 147.2665
458.8906, 149.2779
459.3727, 151.1514
459.8548, 152.8787
460.3369, 154.3168
460.8191, 155.2392
461.3012, 156.3836
461.7833, 158.6160
462.2654, 161.5061
462.7475, 164.1474
463.2296, 165.5665
463.7118, 167.1388
464.1939, 169.9666
464.6760, 174.1583
465.1581, 177.6585
465.6402, 178.9012
466.1223, 179.7483
466.6045, 181.4916
467.0866, 185.3374
467.5687, 188.7924
468.0508, 191.9346
468.5329, 194.5916
469.0150, 196.3439
469.4972, 196.5682
469.9793, 196.8206
470.4614, 197.7788
470.9435, 199.5345
471.4256, 200.0970
471.9077, 199.1942
472.3899, 197.6497
472.8720, 196.2786
473.3541, 195.1333
473.8362, 193.1595
474.3183, 189.8935
474.8004, 186.2097
475.2826, 183.8608
475.7647, 182.7826
476.2468, 182.0776
476.7289, 181.0974
477.2110, 180.2011
477.6931, 180.2101
478.1753, 181.1252
478.6574, 182.6480
479.1395, 184.9996
479.6216, 187.6709
480.1037, 189.8024
480.5858, 190.7118
481.0680, 191.9230
481.5501, 194.9919
482.0322, 199.1177
482.5143, 202.6030
482.9964, 204.3355
483.4786, 205.6687
483.9607, 207.4874
484.4428, 209.9282
484.9249, 211.3080
485.4070, 211.0678
485.8892, 209.7939
486.3713, 207.8633
486.8534, 205.4174
487.3355, 202.1895
487.8176, 198.0026
488.2997, 193.0950
488.7819, 187.7381
489.2640, 181.4806
489.7461, 175.7537
490.2282, 171.1334
490.7103, 167.5182
491.1924, 163.8874
491.6746, 160.2113
492.1567, 156.5425
492.6388, 152.5811
493.1209, 148.4521
493.6030, 145.9559
494.0851, 145.6723
494.5673, 146.0099
495.0494, 144.4865
495.5315, 141.5636
496.0136, 138.9655
496.4957, 137.6846
496.9778, 137.0220
497.4600, 136.2731
497.9421, 135.4308
498.4242, 134.4620
498.9063, 133.2144
499.3884, 131.9020
499.8705, 130.6319
500.3527, 129.2840
500.8348, 128.3635
501.3169, 128.1204
501.7990, 128.4086
502.2811, 129.0297
502.7632, 131.0882
503.2454, 132.2471
503.7275, 131.4209
504.2096, 128.8753
504.6917, 127.5303
505.1738, 128.1098
505.6559, 128.9252
506.1381, 129.1386
506.6202, 128.6800
507.1023, 127.8397
507.5844, 126.4769
508.0665, 124.9919
508.5486, 123.8267
509.0308, 122.9737
509.5129, 122.7307
509.9950, 123.3428
510.4771, 124.4297
510.9592, 125.1786
511.4413, 125.6188
511.9235, 126.0824
512.4056, 126.7573
512.8877, 127.5911
513.3698, 128.6962
513.8519, 130.1231
514.3340, 131.1182
514.8162, 130.7322
515.2983, 129.7441
515.7804, 129.0940
516.2625, 129.3107
516.7446, 129.5989
517.2267, 129.5605
517.7089, 129.3571
518.1910, 129.3839
518.6731, 130.4669
519.1552, 131.1012
519.6373, 130.3784
520.1194, 128.0595
520.6016, 126.9600
521.0837, 127.7371
521.5658, 129.0081
522.0479, 129.8706
522.5300, 130.3409
523.0121, 130.2579
523.4943, 129.4642
523.9764, 128.3074
524.4585, 127.2430
524.9406, 126.2779
525.4227, 125.8528
525.9048, 126.3363
526.3870, 127.3701
526.8691, 128.2281
527.3513, 128.8962
527.8334, 129.1296
528.3155, 128.2054
528.7976, 126.9405
529.2797, 126.7832
529.7618, 128.1391
530.2440, 129.1527
530.7261, 127.9546
531.2082, 125.8050
531.6903, 124.3391
532.1724, 124.7474
532.6545, 125.2032
533.1367, 125.0179
533.6188, 124.3848
534.1009, 124.0002
534.5830, 123.9745
535.0651, 124.2170
535.5472, 124.7556
536.0294, 125.6517
536.5115, 126.4577
536.9936, 127.2279
537.4757, 127.8337
537.9578, 128.1616
538.4399, 128.1977
538.9221, 128.0417
539.4042, 127.6656
539.8863, 127.1645
540.3684, 126.6583
540.8505, 126.1545
541.3326, 125.7416
541.8148, 125.4156
542.2969, 125.2267
542.7790, 125.3473
543.2611, 125.7398
543.7432, 126.1035
544.2253, 126.5042
544.7075, 126.6303
545.1896, 125.9102
545.6717, 124.0322
546.1538, 122.6600
546.6359, 123.1312
547.1180, 124.3123
547.6002, 124.9935
548.0823, 124.0162
548.5644, 123.5291
549.0465, 124.4081
549.5286, 126.0771
550.0107, 126.7970
550.4929, 125.6450
550.9750, 124.9524
551.4571, 125.7231
551.9392, 127.9715
552.4213, 129.1440
552.9034, 129.0906
553.3856, 128.4612
553.8677, 127.4544
554.3498, 126.1560
554.8319, 125.7595
555.3140, 126.5491
555.7961, 127.6427
556.2783, 127.6667
556.7604, 127.0350
557.2425, 126.9443
557.7246, 128.2236
558.2067, 129.8336
558.6888, 130.9890
559.1710, 131.6713
559.6531, 131.7860
560.1352, 130.2714
560.6173, 128.9774
561.0994, 129.3510
561.5815, 131.7779
562.0637, 133.4159
562.5458, 132.7037
563.0279, 131.6606
563.5100, 131.7991
563.9921, 134.2402
564.4742, 135.8956
564.9564, 136.5406
565.4385, 136.4918
565.9206, 136.1169
566.4027, 135.2778
566.8848, 134.8085
567.3669, 134.9493
567.8491, 135.6299
568.3312, 136.8145
568.8133, 138.4743
569.2954, 139.9967
569.7775, 141.0889
570.2596, 141.7361
570.7418, 141.5989
571.2239, 140.6236
571.7060, 140.0245
572.1881, 141.2056
572.6702, 143.0481
573.1523, 144.3177
573.6345, 144.5007
574.1166, 144.4301
574.5987, 143.7897
575.0808, 143.2147
575.5629, 143.7637
576.0450, 147.1303
576.5272, 149.9097
577.0093, 151.2441
577.4914, 151.3625
577.9735, 151.7632
578.4556, 152.4236
578.9377, 153.4098
579.4199, 154.8189
579.9020, 156.6407
580.3841, 158.7554
580.8662, 161.2847
581.3483, 163.4436
581.8304, 163.7773
582.3126, 162.9727
582.7947, 163.6448
583.2768, 166.6705
583.7589, 170.0830
584.2410, 171.5703
584.7231, 171.9216
585.2053, 172.6991
585.6874, 174.6704
586.1696, 177.1379
586.6517, 179.8574
587.1338, 182.7880
587.6159, 185.7820
588.0980, 188.7678
588.5801, 191.8291
589.0623, 194.9631
589.5444, 198.1248
590.0265, 201.5887
590.5086, 205.3013
590.9907, 209.3829
591.4728, 213.9322
591.9550, 218.9064
592.4371, 224.3806
592.9192, 230.2899
593.4013, 236.7374
593.8834, 244.0090
594.3655, 252.0082
594.8477, 260.0382
595.3298, 267.3021
595.8119, 275.0899
596.2940, 285.5587
596.7761, 298.0584
597.2582, 310.7274
597.7404, 321.2236
598.2225, 332.5555
598.7046, 346.9335
599.1867, 364.4203
599.6688, 383.3449
600.1509, 403.0772
600.6331, 424.3936
601.1152, 447.6507
601.5973, 473.4034
602.0794, 500.0633
602.5615, 526.7957
603.0436, 555.0176
603.5258, 586.2311
604.0079, 620.7410
604.4900, 655.9486
604.9721, 691.0045
605.4542, 726.5545
605.9363, 763.4065
606.4185, 801.3541
606.9006, 841.6848
607.3827, 884.4807
607.8648, 929.5036
608.3469, 975.5878
608.8290, 1023.043
609.3112, 1071.070
609.7933, 1119.555
610.2754, 1169.748
610.7575, 1219.876
611.2396, 1272.597
611.7217, 1325.156
612.2039, 1379.286
612.6860, 1430.893
613.1681, 1477.411
613.6502, 1517.450
614.1323, 1554.526
614.6144, 1590.850
615.0966, 1621.819
615.5787, 1642.021
616.0608, 1651.240
616.5429, 1650.195
617.0250, 1639.236
617.5071, 1618.027
617.9893, 1585.547
618.4714, 1541.873
618.9535, 1489.478
619.4356, 1426.135
619.9177, 1355.723
620.3998, 1281.045
620.8820, 1202.675
621.3641, 1125.178
621.8462, 1047.538
622.3283, 972.9456
622.8104, 904.4088
623.2925, 842.3506
623.7747, 784.1832
624.2568, 728.7595
624.7389, 677.5759
625.2210, 631.9445
625.7031, 593.0092
626.1852, 557.0145
626.6674, 524.1458
627.1495, 494.1737
627.6316, 467.0760
628.1137, 442.8730
628.5958, 421.1213
629.0779, 401.8627
629.5601, 384.7932
630.0422, 369.7705
630.5243, 356.6562
631.0064, 344.1405
631.4885, 330.5894
631.9706, 317.9581
632.4528, 308.6221
632.9349, 302.4534
633.4170, 296.3994
633.8991, 288.8876
634.3812, 281.2841
634.8633, 274.2164
635.3455, 267.7167
635.8276, 262.1937
636.3097, 258.1839
636.7918, 254.6447
637.2739, 250.6427
637.7560, 246.0021
638.2382, 241.7085
638.7203, 237.8562
639.2024, 234.4037
639.6845, 231.3183
640.1666, 228.5614
640.6487, 225.9233
641.1309, 223.1768
641.6130, 220.6859
642.0951, 219.2280
642.5772, 218.4991
643.0594, 217.7114
643.5415, 216.5757
644.0236, 215.1695
644.5057, 213.3823
644.9879, 211.2683
645.4700, 209.3576
645.9521, 208.1618
646.4342, 206.8178
646.9163, 204.8305
647.3984, 202.0051
647.8806, 199.7711
648.3627, 198.1575
648.8448, 197.0540
649.3269, 196.5355
649.8090, 196.6038
650.2911, 196.3326
650.7733, 195.6022
651.2554, 194.7425
651.7375, 193.9311
652.2196, 193.2960
652.7017, 193.2724
653.1838, 194.4778
653.6660, 195.3370
654.1481, 194.1284
654.6302, 191.8080
655.1123, 190.0480
655.5944, 189.5139
656.0765, 189.5150
656.5587, 190.0021
657.0408, 190.8914
657.5229, 191.8964
658.0050, 193.4219
658.4871, 194.2985
658.9692, 193.8302
659.4514, 192.2033
659.9335, 191.6443
660.4156, 192.2726
660.8977, 192.9912
661.3798, 192.8777
661.8619, 192.2617
662.3441, 192.1522
662.8262, 192.6262
663.3083, 192.9132
663.7904, 192.1859
664.2725, 191.0468
664.7546, 190.1272
665.2368, 189.5335
665.7189, 189.2319
666.2010, 189.8801
666.6831, 190.5196
667.1652, 189.9898
667.6473, 187.3560
668.1295, 185.0678
668.6116, 183.3196
669.0937, 181.9668
669.5758, 180.8839
670.0579, 180.1288
670.5400, 178.9973
671.0222, 177.1204
671.5043, 174.9109
671.9864, 173.2374
672.4685, 172.0011
672.9506, 170.7168
673.4327, 168.9496
673.9149, 167.1478
674.3970, 165.8981
674.8791, 165.0785
675.3612, 163.8286
675.8433, 161.1378
676.3254, 158.4723
676.8076, 156.6432
677.2897, 155.8176
677.7718, 155.1194
678.2539, 154.7111
678.7360, 154.2213
679.2181, 153.3459
679.7003, 152.0441
680.1824, 150.8230
680.6645, 149.6518
681.1466, 148.7855
681.6287, 148.8885
682.1108, 149.5195
682.5930, 149.2987
683.0751, 147.6826
683.5572, 146.1019
684.0393, 145.8963
684.5214, 146.4426
685.0035, 146.8450
685.4857, 146.9815
685.9678, 146.7510
686.4499, 145.8080
686.9320, 144.5166
687.4141, 143.6760
687.8962, 143.4939
688.3784, 143.3907
688.8605, 143.2581
689.3426, 143.1097
689.8247, 143.0838
690.3068, 143.1975
690.7889, 142.9906
691.2711, 141.8720
691.7532, 140.4507
692.2353, 140.2016
692.7174, 140.9351
693.1995, 141.4408
693.6816, 140.5246
694.1638, 139.4375
694.6459, 139.2703
695.1280, 140.1499
695.6101, 140.7363
696.0922, 140.6342
696.5743, 140.1956
697.0565, 139.5631
697.5386, 138.6302
698.0207, 137.8541
698.5028, 137.0591
698.9849, 136.7966
699.4670, 138.0850
699.9492, 140.6862
700.4313, 141.8610
700.9135, 141.0840
701.3956, 140.0151
701.8777, 140.7940
702.3598, 142.4325
702.8419, 143.0846
703.3240, 141.4473
703.8062, 140.3651
704.2883, 142.4747
704.7704, 145.7184
705.2525, 147.0562
705.7346, 143.7101
706.2167, 141.3490
706.6989, 140.6872
707.1810, 141.2540
707.6631, 142.1871
708.1452, 143.5886
708.6273, 144.6260
709.1094, 144.8707
709.5916, 144.7725
710.0737, 145.4958
710.5558, 146.8763
711.0379, 148.0927
711.5200, 148.2059
712.0021, 148.3306
712.4843, 149.8572
712.9664, 152.4571
713.4485, 154.3647
713.9306, 155.0897
714.4127, 154.7960
714.8948, 152.9688
715.3770, 149.5789
715.8591, 147.6539
716.3412, 147.6308
716.8233, 148.2141
717.3054, 148.9030
717.7875, 149.6770
718.2697, 149.7753
718.7518, 149.1687
719.2339, 148.3097
719.7160, 147.4362
720.1981, 146.6248
720.6802, 146.0110
721.1624, 145.6286
721.6445, 145.3062
722.1266, 144.9827
722.6087, 144.6552
723.0908, 144.2597
723.5729, 143.3513
724.0551, 143.3326
724.5372, 144.6208
725.0193, 146.4643
725.5014, 148.2488
725.9835, 150.0804
726.4656, 151.1042
726.9478, 151.0769
727.4299, 150.6636
727.9120, 150.6489
728.3941, 151.0216
728.8762, 151.8844
729.3583, 153.6551
729.8405, 155.0689
730.3226, 154.5052
730.8047, 152.9892
731.2868, 152.2304
731.7689, 153.6666
732.2510, 154.8301
732.7332, 154.8648
733.2153, 154.3314
733.6974, 154.3343
734.1795, 154.9818
734.6616, 155.9443
735.1437, 157.3473
735.6259, 158.8200
736.1080, 158.9989
736.5901, 158.0820
737.0722, 157.8449
737.5543, 160.0618
738.0364, 162.6922
738.5186, 163.0552
739.0007, 161.7057
739.4828, 160.6455
739.9649, 161.3954
740.4470, 161.9938
740.9291, 161.0119
741.4113, 158.6600
741.8934, 158.2823
742.3755, 161.2753
742.8576, 163.7046
743.3397, 163.6550
743.8218, 161.5319
744.3040, 160.8651
744.7861, 161.6986
745.2682, 162.4694
745.7503, 161.9215
746.2324, 160.7035
746.7145, 159.8978
747.1967, 159.5085
747.6788, 159.0256
748.1609, 157.7955
748.6430, 156.6605
749.1251, 156.3448
749.6072, 157.2043
750.0894, 157.2806
750.5715, 156.2515
751.0536, 154.7874
751.5357, 152.9523
752.0178, 150.5611
752.4999, 150.2401
752.9821, 152.2244
753.4642, 154.7260
753.9463, 156.4082
754.4284, 157.2927
754.9105, 157.3066
755.3926, 156.3902
755.8748, 155.1343
756.3569, 153.0084
756.8390, 151.2441
757.3211, 151.0601
757.8032, 153.6299
758.2853, 155.6194
758.7675, 156.7254
759.2496, 157.3022
759.7318, 157.5229
760.2139, 157.2773
760.6960, 157.6241
761.1781, 158.7920
761.6602, 160.0414
762.1423, 160.2985
762.6245, 159.9503
763.1066, 160.0193
763.5887, 160.9054
764.0708, 161.6338
764.5529, 161.4714
765.0350, 160.7827
765.5172, 159.9977
765.9993, 158.4065
766.4814, 157.8764
766.9635, 159.1051
767.4456, 160.9404
767.9277, 161.8648
768.4099, 161.7623
768.8920, 161.5798
769.3741, 161.5286
769.8562, 161.2855
770.3383, 160.2306
770.8204, 158.5935
771.3026, 156.9296
771.7847, 155.1469
772.2668, 153.8881
772.7489, 153.9537
773.2310, 154.7371
773.7131, 155.2824
774.1953, 155.3910
774.6774, 155.2444
775.1595, 154.9232
775.6416, 154.3369
776.1237, 153.1016
776.6058, 151.0431
777.0880, 149.7600
777.5701, 149.8685
778.0522, 150.5154
778.5343, 150.2057
779.0164, 149.2384
779.4985, 148.5034
779.9807, 148.8270
780.4628, 148.9244
780.9449, 147.3623
781.4270, 145.0794
781.9091, 143.9982
782.3912, 145.6023
782.8734, 147.1290
783.3555, 148.4781
783.8376, 149.3919
784.3197, 148.8618
784.8018, 146.7027
785.2839, 145.3553
785.7661, 145.8619
786.2482, 147.1657
786.7303, 147.5109
787.2124, 147.1810
787.6945, 146.9919
788.1766, 147.5226
788.6588, 148.0877
789.1409, 148.3718
789.6230, 148.4224
790.1051, 148.3689
790.5872, 147.9392
791.0693, 147.8957
791.5515, 148.6277
792.0336, 149.7198
792.5157, 149.6774
792.9978, 148.4927
793.4799, 148.0085
793.9620, 149.3581
794.4442, 151.2423
794.9263, 151.6012
795.4084, 150.9074
795.8905, 150.4861
796.3726, 151.1709
796.8547, 151.9972
797.3369, 152.5259
797.8190, 152.8698
798.3011, 153.4207
798.7832, 154.0701
799.2653, 155.1868
799.7474, 156.9835
800.2296, 159.2130
800.7117, 161.2863
801.1938, 163.1915
801.6759, 164.8021
802.1580, 166.0241
802.6401, 166.9719
803.1223, 167.6491
803.6044, 168.1440
804.0865, 168.6732
804.5686, 169.1024
805.0507, 169.8235
805.5328, 171.0345
806.0150, 172.6355
806.4971, 174.4296
806.9792, 176.4708
807.4613, 178.5311
807.9434, 180.5282
808.4255, 182.5287
808.9077, 184.8530
809.3898, 187.3963
809.8719, 189.6761
810.3540, 191.0761
810.8361, 192.5534
811.3182, 195.2664
811.8004, 198.6069
812.2825, 201.1981
812.7646, 201.5003
813.2467, 202.5197
813.7288, 205.3455
814.2109, 209.0352
814.6931, 210.8667
815.1752, 210.5840
815.6573, 211.0018
816.1394, 213.1263
816.6215, 216.0634
817.1037, 218.8944
817.5858, 221.3245
818.0679, 222.6341
818.5500, 221.2472
819.0322, 220.0549
819.5143, 220.6988
819.9964, 222.4979
820.4785, 224.0896
820.9606, 225.4648
821.4427, 226.4811
821.9249, 227.2226
822.4070, 227.4785
822.8891, 226.7681
823.3712, 225.1281
823.8533, 222.9720
824.3354, 220.4247
824.8176, 217.3631
825.2997, 213.2964
825.7818, 208.7113
826.2639, 204.5267
826.7460, 201.0349
827.2281, 197.9424
827.7103, 195.4050
828.1924, 193.0858
828.6745, 190.4468
829.1566, 187.3532
829.6387, 184.5868
830.1208, 182.3440
830.6030, 180.3117
831.0851, 178.0387
831.5672, 175.6451
832.0493, 173.4493
832.5314, 171.5674
833.0135, 169.8742
833.4957, 168.3595
833.9778, 166.9805
834.4599, 165.6635
834.9420, 164.4724
835.4241, 163.2670
835.9063, 161.9746
836.3884, 160.7629
836.8705, 159.8542
837.3526, 159.2452
837.8347, 158.7337
838.3168, 158.2586
838.7990, 158.0572
839.2811, 159.1191
839.7632, 160.2987
840.2453, 159.6497
840.7274, 155.9277
841.2095, 153.3716
841.6917, 154.5203
842.1738, 156.6286
842.6559, 157.6213
843.1380, 157.3606
843.6201, 156.2062
844.1022, 153.8105
844.5844, 151.7188
845.0665, 151.7971
845.5486, 153.2864
846.0307, 154.0556
846.5128, 153.9032
846.9949, 153.6688
847.4771, 154.2237
847.9592, 154.7008
848.4413, 154.2429
848.9234, 152.4519
849.4055, 151.4965
849.8876, 151.8757
850.3698, 152.3863
850.8519, 152.2358
851.3340, 151.5061
851.8161, 151.2606
852.2982, 151.4967
852.7803, 152.0288
853.2625, 153.1857
853.7446, 154.2586
854.2267, 154.3276
854.7088, 153.4522
855.1909, 152.7582
855.6730, 152.8152
856.1552, 152.9243
856.6373, 152.8588
857.1194, 152.6238
857.6015, 152.2134
858.0836, 151.5965
858.5657, 151.0188
859.0479, 150.5195
859.5300, 150.1816
860.0121, 150.1151
860.4942, 150.3412
860.9763, 150.9461
861.4584, 152.6091
861.9406, 153.9958
862.4227, 154.3770
862.9048, 153.9447
863.3869, 153.4651
863.8690, 152.8609
864.3511, 152.3690
864.8333, 151.9817
865.3154, 151.8075
865.7975, 152.2646
866.2796, 153.1805
866.7617, 153.7725
867.2438, 153.4996
867.7260, 153.2777
868.2081, 154.2268
868.6902, 155.5576
869.1723, 156.0581
869.6544, 154.3607
870.1365, 153.4408
870.6187, 153.8158
871.1008, 154.6124
871.5829, 154.4498
872.0650, 153.4055
872.5471, 153.1642
873.0292, 154.1017
873.5114, 155.2439
873.9935, 155.5618
874.4756, 155.5005
874.9577, 155.6881
875.4399, 156.4532
875.9220, 156.8071
876.4041, 156.1203
876.8862, 155.2584
877.3683, 154.8246
877.8505, 154.9421
878.3326, 154.4374
878.8147, 153.1718
879.2968, 152.2899
879.7789, 153.2821
880.2610, 155.1131
880.7432, 156.0986
881.2253, 156.1434
881.7074, 155.9897
882.1895, 155.9539
882.6716, 155.8423
883.1537, 155.4745
883.6359, 154.8771
884.1180, 154.5064
884.6001, 154.3739
885.0822, 154.4296
885.5643, 154.8218
886.0464, 155.2889
886.5286, 155.0821
887.0107, 154.3481
887.4928, 153.6849
887.9749, 153.4083
888.4570, 153.2986
888.9391, 153.2491
889.4213, 153.3628
889.9034, 153.4869
890.3855, 153.9273
890.8676, 154.3974
891.3497, 154.9672
891.8318, 155.3844
892.3140, 154.9900
892.7961, 154.0006
893.2782, 153.2891
893.7603, 153.2175
894.2424, 153.2661
894.7245, 153.0406
895.2067, 152.7203
895.6888, 152.5256
896.1709, 152.6900
896.6530, 152.6213
897.1351, 152.1310
897.6172, 151.7044
898.0994, 151.8558
898.5815, 152.5376
899.0636, 153.6125
899.5457, 155.0995
900.0278, 156.1727
900.5099, 155.7657
900.9921, 154.8923
901.4742, 154.4818
901.9563, 154.7017
902.4384, 154.9399
902.9205, 154.9624
903.4026, 155.2311
903.8848, 156.2181
904.3669, 157.7246
904.8490, 158.0173
905.3311, 157.1238
905.8132, 155.9233
906.2953, 154.5003
906.7775, 153.3627
907.2596, 152.8893
907.7417, 153.0988
908.2238, 154.0307
908.7059, 157.0194
909.1880, 159.0617
909.6702, 159.3745
910.1523, 158.4899
910.6344, 157.3652
911.1165, 156.0208
911.5986, 155.5428
912.0807, 156.5356
912.5629, 157.7346
913.0450, 157.6332
913.5271, 156.8119
914.0092, 156.1062
914.4913, 155.6325
914.9734, 155.5313
915.4556, 156.0191
915.9377, 156.6850
916.4198, 157.2133
916.9019, 157.6085
917.3840, 157.7545
917.8661, 157.6306
918.3483, 157.3919
918.8304, 156.9005
919.3125, 156.5293
919.7946, 157.0050
920.2767, 158.4050
920.7589, 159.1718
921.2410, 158.1881
921.7231, 157.1369
922.2052, 156.6823
922.6873, 156.7541
923.1694, 156.6990
923.6516, 156.5078
924.1337, 156.4992
924.6158, 156.8087
925.0979, 157.4108
925.5800, 158.7024
926.0621, 160.2443
926.5443, 160.9544
927.0264, 159.3473
927.5085, 158.2876
927.9906, 158.6868
928.4727, 159.6901
928.9548, 159.8012
929.4370, 158.9817
929.9191, 158.3845
930.4012, 158.1858
930.8833, 158.3774
931.3654, 159.3225
931.8475, 160.4937
932.3297, 161.1298
932.8118, 160.9092
933.2939, 160.7704
933.7761, 161.0791
934.2582, 161.3789
934.7403, 161.3965
935.2224, 161.1245
935.7045, 160.7691
936.1866, 160.3192
936.6688, 160.0010
937.1509, 159.7541
937.6330, 159.8753
938.1151, 161.2441
938.5972, 163.4825
939.0793, 164.6126
939.5615, 162.8661
940.0436, 161.3653
940.5257, 160.9396
941.0078, 161.2501
941.4899, 161.5511
941.9720, 161.8318
942.4542, 161.6524
942.9363, 160.5554
943.4184, 159.7676
943.9005, 161.3235
944.3826, 163.7500
944.8647, 164.9720
945.3469, 163.5844
945.8290, 162.6716
946.3111, 162.6335
946.7932, 162.9382
947.2753, 163.2143
947.7574, 163.4566
948.2396, 163.4492
948.7217, 163.1846
949.2038, 162.9546
949.6859, 163.0563
950.1680, 163.2464
950.6501, 163.1583
951.1323, 162.8242
951.6144, 163.1333
952.0965, 164.8465
952.5786, 166.0192
953.0607, 165.8050
953.5428, 164.8154
954.0250, 165.3022
954.5071, 166.8888
954.9892, 167.2353
955.4713, 164.5673
955.9534, 161.8539
956.4355, 161.0247
956.9177, 161.6625
957.3998, 163.2541
957.8819, 166.8636
958.3640, 169.2084
958.8461, 170.0531
959.3282, 169.9726
959.8104, 169.1396
960.2925, 167.8838
960.7746, 167.4289
961.2567, 167.8723
961.7388, 168.5440
962.2209, 169.2429
962.7031, 169.8300
963.1852, 170.2510
963.6673, 170.4875
964.1494, 170.2368
964.6315, 169.2043
965.1136, 168.7630
965.5958, 169.7539
966.0779, 171.2948
966.5600, 171.2068
967.0421, 170.1495
967.5242, 169.9649
968.0063, 172.6459
968.4885, 174.5652
968.9706, 173.3659
969.4527, 171.2200
969.9348, 170.9221
970.4169, 173.0503
970.8990, 174.1728
971.3812, 174.0240
971.8633, 173.2582
972.3454, 171.8879
972.8275, 170.6237
973.3096, 170.7933
973.7917, 172.4881
974.2739, 173.8637
974.7560, 173.8941
975.2381, 173.8738
975.7202, 174.3115
976.2023, 175.1086
976.6844, 175.8343
977.1666, 176.4933
977.6487, 176.9035
978.1308, 176.7308
978.6129, 176.6873
979.0950, 177.8504
979.5771, 179.5733
980.0593, 180.7995
980.5414, 181.1040
981.0235, 181.0413
981.5056, 180.3513
981.9877, 179.7224
982.4698, 179.9001
982.9520, 180.7769
983.4341, 181.7712
983.9162, 182.8397
984.3983, 183.7660
984.8804, 183.9902
985.3625, 184.3520
985.8447, 185.7656
986.3268, 188.1548
986.8089, 189.4745
987.2910, 189.3221
987.7731, 189.1882
988.2552, 189.4703
988.7374, 190.1681
989.2195, 191.5577
989.7016, 193.3443
990.1837, 194.7105
990.6658, 195.1066
991.1479, 195.5949
991.6301, 196.8773
992.1122, 198.2858
992.5944, 199.0039
993.0765, 198.6588
993.5586, 199.8941
994.0407, 202.9479
994.5228, 205.8568
995.0049, 206.5697
995.4871, 206.4417
995.9692, 207.2131
996.4513, 208.8823
996.9334, 210.7770
997.4155, 212.8593
997.8976, 214.9420
998.3798, 217.0757
998.8619, 219.1070
999.3440, 220.5496
999.8261, 221.4963
1000.308, 222.7121
1000.790, 224.3088
1001.272, 226.5124
1001.755, 230.0922
1002.237, 234.0846
1002.719, 237.3470
1003.201, 239.3995
1003.683, 242.0253
1004.165, 245.6197
1004.647, 248.8629
1005.129, 250.3364
1005.612, 250.9566
1006.094, 253.8311
1006.576, 258.4839
1007.058, 262.7870
1007.540, 265.0075
1008.022, 267.3177
1008.504, 270.7506
1008.986, 274.8447
1009.468, 278.8154
1009.951, 282.5410
1010.433, 287.0457
1010.915, 292.5917
1011.397, 298.6598
1011.879, 304.2588
1012.361, 310.1684
1012.843, 317.8970
1013.325, 327.9918
1013.807, 336.4365
1014.290, 341.0063
1014.772, 346.1426
1015.254, 353.8646
1015.736, 363.5676
1016.218, 373.3362
1016.700, 383.1208
1017.182, 392.5976
1017.664, 401.6460
1018.147, 410.4719
1018.629, 418.9560
1019.111, 427.4062
1019.593, 436.4703
1020.075, 446.3869
1020.557, 456.3691
1021.039, 466.5834
1021.521, 476.0795
1022.003, 483.6189
1022.486, 489.9846
1022.968, 496.6420
1023.450, 503.5969
1023.932, 509.5548
1024.414, 514.1816
1024.896, 517.4136
1025.378, 519.0746
1025.860, 519.5118
1026.343, 520.1212
1026.825, 520.7356
1027.307, 518.9809
1027.789, 513.8661
1028.271, 507.3144
1028.753, 501.2381
1029.235, 494.5307
1029.717, 485.8478
1030.199, 474.2328
1030.682, 463.0773
1031.164, 452.3860
1031.646, 441.9020
1032.128, 431.6200
1032.610, 421.2172
1033.092, 409.5414
1033.574, 396.9991
1034.056, 385.4666
1034.539, 377.1552
1035.021, 368.3341
1035.503, 356.8813
1035.985, 344.9333
1036.467, 335.4336
1036.949, 328.5332
1037.431, 320.6192
1037.913, 311.1766
1038.396, 302.4225
1038.878, 296.5021
1039.360, 292.0101
1039.842, 287.8262
1040.324, 283.8503
1040.806, 279.4321
1041.288, 274.2647
1041.770, 269.1966
1042.252, 264.3294
1042.734, 259.8043
1043.217, 255.6453
1043.699, 251.9981
1044.181, 249.4131
1044.663, 248.9203
1045.145, 247.3544
1045.627, 242.1181
1046.109, 236.4242
1046.591, 232.7571
1047.074, 231.2026
1047.556, 229.4274
1048.038, 227.4168
1048.520, 225.6184
1049.002, 224.8147
1049.484, 223.9484
1049.966, 221.9238
1050.448, 219.0884
1050.931, 216.3669
1051.413, 213.3342
1051.895, 211.7831
1052.377, 212.4668
1052.859, 213.3067
1053.341, 211.1576
1053.823, 207.3773
1054.305, 205.1626
1054.787, 204.8875
1055.270, 204.3708
1055.752, 202.0283
1056.234, 199.9072
1056.716, 198.9370
1057.198, 198.8457
1057.680, 198.6868
1058.162, 198.4576
1058.644, 198.1440
1059.126, 197.7888
1059.609, 197.2166
1060.091, 195.9079
1060.573, 194.5100
1061.055, 193.8809
1061.537, 194.4257
1062.019, 194.3719
1062.501, 193.6366
1062.983, 192.6096
1063.466, 191.2154
1063.948, 189.8914
1064.430, 189.7244
1064.912, 190.3353
1065.394, 190.5830
1065.876, 189.9697
1066.358, 188.9619
1066.840, 187.1911
1067.323, 185.6100
1067.805, 185.7471
1068.287, 187.2779
1068.769, 187.7613
1069.251, 187.0052
1069.733, 186.2218
1070.215, 186.4052
1070.697, 186.7076
1071.179, 186.5890
1071.661, 184.3486
1072.144, 186.4332
1072.626, 187.5900
1073.108, 187.8689
1073.590, 184.6403
1074.072, 185.9409
1074.554, 185.4264
1075.036, 184.8375
1075.518, 186.7756
1076.001, 184.0571
1076.483, 185.9550
1076.965, 186.0103
1077.447, 186.9088
1077.929, 185.9812
1078.411, 185.6175
1078.893, 187.0808
1079.375, 187.5325
1079.858, 186.3945
1080.340, 187.3467
1080.822, 184.5645
1081.304, 185.0593
1081.786, 186.9680
1082.268, 185.9218
1082.750, 186.9074
1083.232, 187.1192
1083.714, 183.8145
1084.197, 186.6253
1084.679, 186.7914
1085.161, 184.2419
1085.643, 186.8432
1086.125, 184.6680
1086.607, 184.1978
1087.089, 185.0106
1087.571, 184.4859
1088.054, 186.0699
1088.536, 185.6224
1089.018, 184.9934
1089.500, 185.1565
1089.982, 184.5890
1090.464, 185.1577
1090.946, 184.3959
1091.428, 185.0481
1091.911, 186.0206
1092.393, 184.5393
1092.875, 185.6559
1093.357, 182.7437
1093.839, 183.2026
1094.321, 183.2984
1094.803, 185.5490
1095.285, 182.6565
1095.767, 182.4604
1096.250, 180.2037
1096.732, 179.3904
1097.214, 179.9510
1097.696, 180.3537
1098.178, 180.6149
1098.660, 181.0353
1099.142, 182.1862
1099.624, 183.0683
1100.106, 182.5770
1100.589, 181.4491
1101.071, 180.8799
1101.553, 181.1230
1102.035, 181.2037
1102.517, 181.0672
1102.999, 180.9642
1103.481, 181.3385
1103.963, 181.7167
1104.446, 181.2127
1104.928, 180.0901
1105.410, 179.5191
1105.892, 180.1583
1106.374, 180.6993
1106.856, 180.9818
1107.338, 181.0886
1107.820, 180.8800
1108.302, 180.6418
1108.785, 181.3146
1109.267, 182.9952
1109.749, 184.1667
1110.231, 183.7211
1110.713, 183.2026
1111.195, 183.4421
1111.677, 183.8587
1112.159, 182.1079
1112.641, 178.7668
1113.124, 177.8407
1113.606, 180.9997
1114.088, 183.7951
1114.570, 182.1067
1115.052, 179.7648
1115.534, 180.0324
1116.016, 182.7817
1116.498, 184.6774
1116.981, 185.7305
1117.463, 185.9458
1117.945, 184.8675
1118.427, 183.6900
1118.909, 183.7063
1119.391, 184.3372
1119.873, 184.7496
1120.355, 184.6965
1120.838, 184.8759
1121.320, 185.2987
1121.802, 185.8985
1122.284, 187.1242
1122.766, 188.1795
1123.248, 187.3640
1123.730, 185.3956
1124.212, 184.2166
1124.694, 184.7974
1125.177, 185.7302
1125.659, 187.1013
1126.141, 188.4388
1126.623, 189.3836
1127.105, 189.8712
1127.587, 189.5164
1128.069, 188.4305
1128.551, 187.5320
1129.033, 186.9917
1129.516, 187.0707
1129.998, 188.1736
1130.480, 189.5181
1130.962, 189.6393
1131.444, 188.7812
1131.926, 188.2969
1132.408, 188.3973
1132.890, 188.3281
1133.373, 187.1117
1133.855, 186.1141
1134.337, 186.3103
1134.819, 187.2907
1135.301, 187.6578
1135.783, 187.4268
1136.265, 186.9866
1136.747, 186.3708
1137.229, 185.8432
1137.712, 185.4783
1138.194, 185.4101
1138.676, 186.1137
1139.158, 187.5710
1139.640, 187.1992
1140.122, 184.6970
1140.604, 183.3695
1141.086, 185.1649
1141.569, 187.5975
1142.051, 187.9599
1142.533, 187.1950
1143.015, 186.5367
1143.497, 186.1620
1143.979, 185.9131
1144.461, 185.7566
1144.943, 185.8694
1145.426, 186.4754
1145.908, 187.3147
1146.390, 188.2355
1146.872, 189.0095
1147.354, 189.1676
1147.836, 187.9006
1148.318, 187.0322
1148.800, 186.6758
1149.282, 186.5577
1149.765, 186.3854
1150.247, 186.3064
1150.729, 186.8638
1151.211, 187.8694
1151.693, 188.5218
1152.175, 188.0408
1152.657, 187.8800
1153.139, 188.4651
1153.621, 189.1508
1154.104, 189.1141
1154.586, 188.5463
1155.068, 187.9992
1155.550, 187.5244
1156.032, 187.2737
1156.514, 186.8184
1156.996, 187.3530
1157.478, 189.9671
1157.961, 192.9806
1158.443, 192.9045
1158.925, 190.3664
1159.407, 188.8682
1159.889, 188.9102
1160.371, 189.5710
1160.853, 191.1970
1161.335, 192.3052
1161.818, 191.7434
1162.300, 190.2752
1162.782, 190.3208
1163.264, 191.7210
1163.746, 192.3999
1164.228, 191.7520
1164.710, 191.2920
1165.192, 192.8413
1165.674, 194.3571
1166.156, 193.9944
1166.639, 192.1665
1167.121, 191.6191
1167.603, 192.3481
1168.085, 192.8624
1168.567, 192.5846
1169.049, 192.2720
1169.531, 193.0797
1170.013, 193.8284
1170.496, 192.9117
1170.978, 190.2807
1171.460, 189.4386
1171.942, 190.4601
1172.424, 191.8317
1172.906, 193.1445
1173.388, 194.0493
1173.870, 193.5917
1174.353, 192.8006
1174.835, 193.1656
1175.317, 194.9946
1175.799, 196.5454
1176.281, 197.8214
1176.763, 198.9100
1177.245, 200.0190
1177.727, 200.8199
1178.209, 200.7589
1178.692, 200.1970
1179.174, 199.6807
1179.656, 198.9208
1180.138, 199.3915
1180.620, 201.3672
1181.102, 203.1773
1181.584, 203.1946
1182.066, 202.6828
1182.548, 203.5412
1183.031, 203.4151
1183.513, 203.4201
1183.995, 204.2178
1184.477, 203.7974
1184.959, 204.7749
1185.441, 205.8999
1185.923, 206.0226
1186.405, 205.6568
1186.888, 205.5499
1187.370, 205.5871
1187.852, 205.2426
1188.334, 203.8623
1188.816, 203.3884
1189.298, 204.2107
1189.780, 205.2366
1190.262, 205.3726
1190.745, 204.9647
1191.227, 204.5363
1191.709, 204.0713
1192.191, 203.2577
1192.673, 201.5413
1193.155, 200.4978
1193.637, 200.4512
1194.119, 200.8076
1194.601, 200.9205
1195.084, 200.9280
1195.566, 201.0813
1196.048, 201.3787
1196.530, 201.5926
1197.012, 201.8753
1197.494, 201.5991
1197.976, 200.4110
1198.458, 199.1784
1198.941, 199.4588
1199.423, 200.3960
1199.905, 200.3757
1200.387, 199.2607
1200.869, 198.6689
1201.351, 199.5159
1201.833, 199.5612
1202.315, 197.8882
1202.797, 195.9347
1203.280, 196.5203
1203.762, 198.2682
1204.244, 198.5078
1204.726, 196.7416
1205.208, 196.0015
1205.690, 197.2032
1206.172, 198.7002
1206.654, 200.3182
1207.136, 201.4342
1207.619, 200.2506
1208.101, 198.0637
1208.583, 197.2294
1209.065, 198.3284
1209.547, 199.4979
1210.029, 200.9561
1210.511, 201.3171
1210.993, 199.6677
1211.476, 197.3148
1211.958, 196.3961
1212.440, 196.5772
1212.922, 197.5065
1213.404, 199.4084
1213.886, 200.3930
1214.368, 200.0038
1214.850, 199.3534
1215.333, 198.6512
1215.815, 198.3316
1216.297, 200.0733
1216.779, 202.4923
1217.261, 202.8353
1217.743, 199.7139
1218.225, 197.7334
1218.707, 197.3718
1219.189, 197.9046
1219.672, 199.3296
1220.154, 201.0237
1220.636, 201.9980
1221.118, 202.3626
1221.600, 202.1839
1222.082, 201.0365
1222.564, 200.9398
1223.046, 202.4279
1223.528, 203.5762
1224.011, 203.1056
1224.493, 202.0418
1224.975, 202.2148
1225.457, 203.0357
1225.939, 203.4812
1226.421, 203.2070
1226.903, 202.7402
1227.385, 201.9201
1227.868, 201.5193
1228.350, 202.2035
1228.832, 203.2903
1229.314, 203.9548
1229.796, 204.1966
1230.278, 203.9167
1230.760, 202.6521
1231.242, 202.2684
1231.724, 202.9576
1232.207, 203.5951
1232.689, 203.3915
1233.171, 202.9010
1233.653, 202.5739
1234.135, 202.5593
1234.617, 203.2936
1235.099, 205.5707
1235.581, 205.7092
1236.063, 203.3392
1236.546, 201.4230
1237.028, 202.3858
1237.510, 204.1209
1237.992, 204.3409
1238.474, 203.8380
1238.956, 203.9912
1239.438, 205.1579
1239.920, 205.8153
1240.403, 205.9509
1240.885, 205.5999
1241.367, 203.9336
1241.849, 202.6647
1242.331, 204.1208
1242.813, 206.5415
1243.295, 207.2092
1243.777, 205.6957
1244.260, 204.4172
1244.742, 203.3566
1245.224, 202.8522
1245.706, 203.3364
1246.188, 204.1983
1246.670, 205.5956
1247.152, 206.7762
1247.634, 206.5942
1248.116, 204.8798
1248.599, 204.4873
1249.081, 205.3362
1249.563, 205.9571
1250.045, 204.7395
1250.527, 203.9104
1251.009, 205.4219
1251.491, 207.3505
1251.973, 207.5342
1252.455, 206.0751
1252.938, 205.4419
1253.420, 205.6173
1253.902, 206.2283
1254.384, 207.9489
1254.866, 208.9245
1255.348, 207.9586
1255.830, 206.5080
1256.313, 205.6960
1256.795, 205.5065
1257.277, 206.1123
1257.759, 207.3260
1258.241, 208.2079
1258.723, 208.3334
1259.205, 207.9710
1259.687, 206.5989
1260.169, 205.6981
1260.651, 207.1959
1261.134, 210.0833
1261.616, 211.0630
1262.098, 210.5093
1262.580, 209.8884
1263.062, 209.4870
1263.544, 209.5042
1264.026, 210.1036
1264.508, 210.7392
1264.991, 211.0514
1265.473, 211.0320
1265.955, 210.4806
1266.437, 209.5999
1266.919, 208.9126
1267.401, 208.5206
1267.883, 208.4533
1268.365, 208.7792
1268.848, 209.1711
1269.330, 209.0565
1269.812, 209.1125
1270.294, 210.8562
1270.776, 213.3143
1271.258, 214.1801
1271.740, 212.7043
1272.222, 211.5730
1272.704, 210.8132
1273.187, 210.4995
1273.669, 210.9858
1274.151, 211.6366
1274.633, 211.7648
1275.115, 211.7524
1275.597, 212.2999
1276.079, 213.5862
1276.561, 214.2860
1277.043, 214.3928
1277.526, 213.8715
1278.008, 211.5217
1278.490, 209.9045
1278.972, 211.4405
1279.454, 213.8483
1279.936, 214.8008
1280.418, 214.3335
1280.900, 213.6198
1281.383, 212.7639
1281.865, 212.4234
1282.347, 213.3680
1282.829, 214.2465
1283.311, 214.6231
1283.793, 214.7563
1284.275, 214.7898
1284.757, 214.7340
1285.240, 214.5217
1285.722, 214.2566
1286.204, 214.3105
1286.686, 215.4791
1287.168, 215.6276
1287.650, 213.8898
1288.132, 212.6767
1288.614, 214.2005
1289.096, 216.9818
1289.578, 218.1802
1290.061, 218.2373
1290.543, 218.0270
1291.025, 217.6270
1291.507, 217.1888
1291.989, 216.6411
1292.471, 216.3833
1292.953, 216.7863
1293.435, 217.4111
1293.918, 218.1472
1294.400, 218.5594
1294.882, 217.6056
1295.364, 217.9997
1295.846, 218.4724
1296.328, 217.3166
1296.810, 219.1782
1297.292, 218.4986
1297.775, 217.2623
1298.257, 216.9376
1298.739, 216.8498
1299.221, 216.3032
1299.703, 215.3703
1300.185, 214.6639
1300.667, 214.2646
1301.149, 214.8181
1301.631, 217.2564
1302.114, 218.7412
1302.596, 218.5595
##END=



