##NAMES=Pyrosmalite-(Fe)
##RRUFFID=R070313
##IDEAL CHEMISTRY=Fe^2+^_8_Si_6_O_15_(OH)_10_
##LOCALITY=Broken Hill, New South Wales, Australia
##OWNER=RRUFF
##SOURCE=James Shigley
##DESCRIPTION=Brownish orange massive associated with galena
##STATUS=The identification of this mineral has been confirmed only by X-ray diffraction
##URL=rruff.info/R070313
151.1082, 3486.757
151.5903, 3506.655
152.0724, 3517.195
152.5545, 3523.946
153.0366, 3520.648
153.5188, 3513.991
154.0009, 3517.111
154.4830, 3549.031
154.9651, 3578.396
155.4472, 3590.572
155.9293, 3568.680
156.4115, 3551.731
156.8936, 3549.707
157.3757, 3559.190
157.8578, 3568.190
158.3399, 3570.224
158.8221, 3572.407
159.3042, 3579.396
159.7863, 3594.791
160.2684, 3612.710
160.7505, 3632.758
161.2326, 3654.640
161.7148, 3674.642
162.1969, 3686.729
162.6790, 3697.998
163.1611, 3715.117
163.6432, 3749.846
164.1253, 3783.538
164.6075, 3801.599
165.0896, 3803.337
165.5717, 3812.618
166.0538, 3846.131
166.5359, 3895.071
167.0180, 3946.743
167.5002, 4001.261
167.9823, 4053.608
168.4644, 4097.728
168.9465, 4131.742
169.4286, 4167.520
169.9107, 4214.670
170.3929, 4269.828
170.8750, 4327.169
171.3571, 4388.915
171.8392, 4448.431
172.3213, 4494.559
172.8034, 4520.348
173.2856, 4549.520
173.7677, 4611.245
174.2498, 4697.320
174.7319, 4778.399
175.2140, 4828.056
175.6961, 4863.599
176.1783, 4911.581
176.6604, 4978.169
177.1425, 5055.055
177.6246, 5133.913
178.1067, 5214.129
178.5888, 5297.120
179.0710, 5384.942
179.5531, 5475.040
180.0352, 5559.651
180.5173, 5633.025
180.9994, 5703.191
181.4815, 5779.332
181.9637, 5862.167
182.4458, 5952.989
182.9279, 6062.924
183.4100, 6185.046
183.8921, 6295.041
184.3742, 6384.082
184.8564, 6457.623
185.3385, 6522.742
185.8206, 6579.407
186.3027, 6634.838
186.7848, 6701.918
187.2669, 6777.835
187.7491, 6843.848
188.2312, 6896.104
188.7133, 6933.379
189.1954, 6951.603
189.6775, 6950.298
190.1596, 6931.183
190.6418, 6896.784
191.1239, 6847.044
191.6060, 6778.015
192.0881, 6678.358
192.5702, 6552.640
193.0524, 6441.040
193.5345, 6345.286
194.0166, 6259.785
194.4987, 6180.024
194.9808, 6106.374
195.4629, 6032.565
195.9451, 5954.787
196.4272, 5872.243
196.9093, 5797.449
197.3914, 5731.937
197.8735, 5672.367
198.3556, 5611.401
198.8378, 5548.224
199.3199, 5490.042
199.8020, 5443.246
200.2841, 5409.183
200.7662, 5371.904
201.2483, 5328.810
201.7305, 5283.568
202.2126, 5247.460
202.6947, 5223.722
203.1768, 5197.037
203.6589, 5153.855
204.1410, 5090.485
204.6232, 5041.073
205.1053, 5013.556
205.5874, 4999.792
206.0695, 4971.318
206.5516, 4923.733
207.0337, 4872.994
207.5159, 4828.833
207.9980, 4792.444
208.4801, 4761.208
208.9622, 4736.479
209.4443, 4716.667
209.9264, 4695.418
210.4086, 4675.406
210.8907, 4648.428
211.3728, 4604.355
211.8549, 4533.927
212.3370, 4477.255
212.8191, 4442.434
213.3013, 4427.252
213.7834, 4410.368
214.2655, 4389.929
214.7476, 4370.702
215.2297, 4358.254
215.7118, 4356.393
216.1940, 4349.887
216.6761, 4333.169
217.1582, 4307.055
217.6403, 4293.468
218.1224, 4299.852
218.6045, 4309.022
219.0867, 4303.135
219.5688, 4274.956
220.0509, 4248.820
220.5330, 4230.281
221.0151, 4219.226
221.4972, 4209.813
221.9794, 4203.640
222.4615, 4197.243
222.9436, 4186.556
223.4257, 4169.714
223.9078, 4152.182
224.3899, 4135.396
224.8721, 4119.228
225.3542, 4102.097
225.8363, 4081.501
226.3184, 4062.163
226.8005, 4050.170
227.2827, 4050.077
227.7648, 4048.706
228.2469, 4041.616
228.7290, 4027.393
229.2111, 4019.612
229.6932, 4024.510
230.1754, 4030.891
230.6575, 4022.273
231.1396, 3987.283
231.6217, 3957.600
232.1038, 3943.328
232.5859, 3947.970
233.0681, 3948.685
233.5502, 3941.426
234.0323, 3933.135
234.5144, 3935.155
234.9965, 3955.950
235.4786, 3972.623
235.9608, 3976.654
236.4429, 3964.000
236.9250, 3957.505
237.4071, 3959.351
237.8892, 3966.073
238.3713, 3972.545
238.8535, 3979.492
239.3356, 3984.996
239.8177, 3988.696
240.2998, 3990.954
240.7819, 3989.166
241.2640, 3978.350
241.7462, 3966.350
242.2283, 3967.365
242.7104, 3987.881
243.1925, 4010.852
243.6746, 4032.045
244.1567, 4053.470
244.6389, 4065.101
245.1210, 4059.802
245.6031, 4048.934
246.0852, 4053.369
246.5673, 4080.220
247.0494, 4110.351
247.5316, 4138.222
248.0137, 4165.073
248.4958, 4184.844
248.9779, 4193.547
249.4600, 4197.308
249.9421, 4208.400
250.4243, 4233.426
250.9064, 4253.948
251.3885, 4259.474
251.8706, 4239.036
252.3527, 4242.410
252.8348, 4280.522
253.3170, 4335.555
253.7991, 4372.970
254.2812, 4385.005
254.7633, 4393.577
255.2454, 4407.229
255.7275, 4428.388
256.2097, 4444.955
256.6918, 4455.283
257.1739, 4461.971
257.6560, 4470.353
258.1381, 4482.400
258.6202, 4492.040
259.1024, 4495.545
259.5845, 4489.713
260.0666, 4492.396
260.5487, 4510.151
261.0308, 4531.413
261.5129, 4532.938
261.9951, 4505.802
262.4772, 4480.216
262.9593, 4468.917
263.4414, 4475.029
263.9235, 4480.975
264.4056, 4488.940
264.8878, 4494.730
265.3699, 4489.461
265.8520, 4468.866
266.3341, 4449.219
266.8162, 4436.006
267.2983, 4429.503
267.7805, 4429.839
268.2626, 4440.885
268.7447, 4454.452
269.2268, 4455.054
269.7089, 4439.268
270.1910, 4422.902
270.6732, 4414.003
271.1553, 4414.402
271.6374, 4402.063
272.1195, 4371.443
272.6016, 4336.174
273.0837, 4322.869
273.5659, 4336.748
274.0480, 4345.427
274.5301, 4332.447
275.0122, 4296.709
275.4943, 4272.100
275.9764, 4258.693
276.4586, 4256.278
276.9407, 4271.892
277.4228, 4309.048
277.9049, 4332.148
278.3870, 4317.276
278.8691, 4267.154
279.3513, 4248.901
279.8334, 4269.863
280.3155, 4303.809
280.7976, 4312.832
281.2798, 4295.611
281.7619, 4282.752
282.2440, 4289.243
282.7261, 4311.711
283.2082, 4322.756
283.6903, 4320.066
284.1725, 4314.460
284.6546, 4318.731
285.1367, 4332.635
285.6188, 4351.108
286.1009, 4375.731
286.5830, 4403.798
287.0652, 4420.539
287.5473, 4423.712
288.0294, 4428.000
288.5115, 4454.979
288.9936, 4501.424
289.4757, 4539.164
289.9579, 4552.853
290.4400, 4552.715
290.9221, 4568.775
291.4042, 4601.942
291.8863, 4639.962
292.3684, 4666.553
292.8506, 4686.047
293.3327, 4718.014
293.8148, 4774.915
294.2969, 4844.628
294.7790, 4903.271
295.2611, 4951.061
295.7433, 4999.513
296.2254, 5065.193
296.7075, 5141.213
297.1896, 5204.639
297.6717, 5241.451
298.1538, 5270.435
298.6360, 5321.799
299.1181, 5394.321
299.6002, 5467.919
300.0823, 5529.186
300.5644, 5581.078
301.0465, 5629.675
301.5287, 5676.337
302.0108, 5720.599
302.4929, 5762.688
302.9750, 5802.288
303.4571, 5835.198
303.9392, 5856.163
304.4214, 5869.776
304.9035, 5883.497
305.3856, 5902.237
305.8677, 5915.873
306.3498, 5907.699
306.8319, 5884.439
307.3141, 5869.719
307.7962, 5885.168
308.2783, 5912.486
308.7604, 5934.919
309.2425, 5949.667
309.7246, 5956.833
310.2068, 5949.386
310.6889, 5933.509
311.1710, 5925.135
311.6531, 5934.711
312.1352, 5953.034
312.6173, 5973.183
313.0995, 5992.816
313.5816, 6017.177
314.0637, 6051.745
314.5458, 6092.715
315.0279, 6133.162
315.5100, 6148.352
315.9922, 6178.956
316.4743, 6254.746
316.9564, 6392.166
317.4385, 6520.596
317.9206, 6600.660
318.4027, 6661.437
318.8849, 6743.565
319.3670, 6873.017
319.8491, 7012.409
320.3312, 7147.545
320.8133, 7276.121
321.2954, 7411.027
321.7776, 7575.233
322.2597, 7740.176
322.7418, 7875.411
323.2239, 7991.067
323.7060, 8062.146
324.1881, 8082.462
324.6703, 8051.259
325.1524, 7975.991
325.6345, 7841.202
326.1166, 7671.567
326.5987, 7485.576
327.0808, 7275.434
327.5630, 7058.194
328.0451, 6823.579
328.5272, 6573.952
329.0093, 6359.882
329.4914, 6198.181
329.9735, 6061.469
330.4557, 5933.132
330.9378, 5807.272
331.4199, 5700.670
331.9020, 5621.350
332.3841, 5562.966
332.8662, 5492.021
333.3484, 5395.728
333.8305, 5307.321
334.3126, 5245.841
334.7947, 5219.785
335.2768, 5196.907
335.7589, 5177.500
336.2411, 5159.427
336.7232, 5135.565
337.2053, 5103.535
337.6874, 5073.174
338.1695, 5048.089
338.6516, 5028.380
339.1338, 5017.667
339.6159, 5021.415
340.0980, 5025.733
340.5801, 5000.885
341.0622, 4942.420
341.5443, 4893.247
342.0265, 4872.261
342.5086, 4877.106
342.9907, 4886.383
343.4728, 4901.383
343.9549, 4915.438
344.4370, 4919.245
344.9192, 4913.630
345.4013, 4906.044
345.8834, 4896.180
346.3655, 4887.076
346.8476, 4887.952
347.3297, 4898.938
347.8119, 4915.030
348.2940, 4935.320
348.7761, 4957.458
349.2582, 4973.106
349.7403, 4975.047
350.2225, 4974.836
350.7046, 4988.899
351.1867, 5016.419
351.6688, 5050.146
352.1509, 5091.977
352.6331, 5134.915
353.1152, 5167.391
353.5973, 5183.083
354.0794, 5194.812
354.5615, 5211.435
355.0436, 5232.954
355.5258, 5259.372
356.0079, 5298.566
356.4900, 5338.295
356.9721, 5366.888
357.4542, 5380.117
357.9363, 5390.485
358.4185, 5407.580
358.9006, 5426.287
359.3827, 5437.762
359.8648, 5431.235
360.3469, 5422.390
360.8290, 5419.368
361.3112, 5423.494
361.7933, 5428.950
362.2754, 5439.513
362.7575, 5448.387
363.2396, 5448.182
363.7217, 5424.688
364.2039, 5404.486
364.6860, 5396.174
365.1681, 5400.017
365.6502, 5402.350
366.1323, 5400.574
366.6144, 5397.443
367.0966, 5394.850
367.5787, 5394.999
368.0608, 5393.095
368.5429, 5388.746
369.0250, 5382.045
369.5071, 5372.984
369.9893, 5355.067
370.4714, 5342.318
370.9535, 5343.710
371.4356, 5371.940
371.9177, 5384.220
372.3998, 5372.473
372.8820, 5348.304
373.3641, 5337.940
373.8462, 5345.105
374.3283, 5356.523
374.8104, 5369.000
375.2925, 5383.397
375.7747, 5388.270
376.2568, 5380.611
376.7389, 5369.471
377.2210, 5368.505
377.7031, 5378.598
378.1852, 5385.914
378.6674, 5384.237
379.1495, 5376.506
379.6316, 5375.788
380.1137, 5382.559
380.5958, 5392.070
381.0779, 5397.639
381.5601, 5401.325
382.0422, 5414.281
382.5243, 5444.457
383.0064, 5478.383
383.4885, 5491.104
383.9706, 5485.122
384.4528, 5478.028
384.9349, 5484.592
385.4170, 5497.160
385.8991, 5501.553
386.3812, 5493.008
386.8633, 5484.983
387.3455, 5491.423
387.8276, 5508.021
388.3097, 5525.103
388.7918, 5535.794
389.2739, 5546.147
389.7560, 5565.223
390.2382, 5595.328
390.7203, 5614.399
391.2024, 5597.225
391.6845, 5566.993
392.1666, 5550.227
392.6487, 5568.376
393.1309, 5589.924
393.6130, 5604.721
394.0951, 5612.642
394.5772, 5614.593
395.0593, 5601.491
395.5414, 5588.386
396.0236, 5584.836
396.5057, 5602.845
396.9878, 5617.793
397.4699, 5625.964
397.9520, 5629.220
398.4341, 5633.375
398.9163, 5639.546
399.3984, 5645.484
399.8805, 5650.999
400.3626, 5657.791
400.8447, 5658.886
401.3268, 5652.477
401.8090, 5641.697
402.2911, 5629.427
402.7732, 5612.652
403.2553, 5602.856
403.7374, 5605.269
404.2195, 5619.010
404.7017, 5627.791
405.1838, 5630.588
405.6659, 5631.219
406.1480, 5632.570
406.6301, 5634.633
407.1122, 5638.103
407.5944, 5643.252
408.0765, 5649.755
408.5586, 5656.059
409.0407, 5662.232
409.5228, 5670.967
410.0049, 5685.429
410.4871, 5703.755
410.9692, 5720.311
411.4513, 5733.878
411.9334, 5748.519
412.4155, 5775.049
412.8976, 5807.731
413.3798, 5829.242
413.8619, 5823.341
414.3440, 5807.659
414.8261, 5801.083
415.3082, 5804.001
415.7903, 5806.443
416.2725, 5807.568
416.7546, 5802.498
417.2367, 5785.450
417.7188, 5749.858
418.2009, 5707.514
418.6830, 5661.237
419.1652, 5611.886
419.6473, 5564.411
420.1294, 5517.052
420.6115, 5474.081
421.0937, 5436.654
421.5758, 5404.171
422.0579, 5380.661
422.5400, 5378.761
423.0221, 5383.610
423.5042, 5370.430
423.9864, 5316.479
424.4685, 5269.398
424.9506, 5241.751
425.4327, 5235.835
425.9148, 5223.480
426.3969, 5196.885
426.8791, 5172.735
427.3612, 5168.067
427.8433, 5190.988
428.3254, 5207.259
428.8075, 5209.177
429.2896, 5202.370
429.7718, 5208.009
430.2539, 5228.819
430.7360, 5247.670
431.2181, 5250.491
431.7002, 5238.958
432.1823, 5238.682
432.6645, 5252.427
433.1466, 5272.497
433.6287, 5289.683
434.1108, 5304.207
434.5929, 5317.246
435.0750, 5330.537
435.5572, 5341.947
436.0393, 5348.375
436.5214, 5349.784
437.0035, 5345.360
437.4856, 5332.560
437.9677, 5314.148
438.4499, 5293.932
438.9320, 5272.845
439.4141, 5250.233
439.8962, 5221.004
440.3783, 5189.562
440.8604, 5166.400
441.3426, 5169.881
441.8247, 5172.901
442.3068, 5157.226
442.7889, 5115.922
443.2710, 5079.900
443.7531, 5056.369
444.2353, 5042.787
444.7174, 5035.945
445.1995, 5045.065
445.6816, 5050.480
446.1637, 5044.682
446.6458, 5029.548
447.1280, 5025.533
447.6101, 5039.555
448.0922, 5057.122
448.5743, 5069.395
449.0564, 5071.650
449.5385, 5082.996
450.0207, 5109.474
450.5028, 5140.142
450.9849, 5150.873
451.4670, 5136.752
451.9491, 5127.132
452.4312, 5133.963
452.9134, 5155.505
453.3955, 5178.745
453.8776, 5203.614
454.3597, 5229.997
454.8418, 5260.294
455.3239, 5292.653
455.8061, 5317.071
456.2882, 5328.242
456.7703, 5335.769
457.2524, 5353.007
457.7345, 5378.511
458.2166, 5406.949
458.6988, 5438.956
459.1809, 5470.105
459.6630, 5493.232
460.1451, 5506.529
460.6272, 5521.765
461.1093, 5545.841
461.5915, 5576.276
462.0736, 5609.576
462.5557, 5650.486
463.0378, 5688.317
463.5199, 5711.315
464.0020, 5723.192
464.4842, 5752.633
464.9663, 5820.933
465.4484, 5896.766
465.9305, 5964.493
466.4126, 6025.213
466.8947, 6076.337
467.3769, 6119.222
467.8590, 6151.829
468.3411, 6171.306
468.8232, 6177.478
469.3053, 6170.200
469.7874, 6148.345
470.2696, 6112.276
470.7517, 6066.173
471.2338, 6006.943
471.7159, 5947.606
472.1980, 5897.051
472.6801, 5855.282
473.1623, 5828.780
473.6444, 5819.464
474.1265, 5823.204
474.6086, 5840.025
475.0907, 5867.091
475.5728, 5886.048
476.0550, 5875.973
476.5371, 5855.498
477.0192, 5855.144
477.5013, 5875.995
477.9834, 5906.348
478.4655, 5947.868
478.9477, 5990.275
479.4298, 6019.381
479.9119, 6026.043
480.3940, 6025.224
480.8761, 6029.043
481.3582, 6032.142
481.8404, 6018.854
482.3225, 5967.088
482.8046, 5911.780
483.2867, 5870.880
483.7688, 5853.367
484.2509, 5824.355
484.7331, 5769.003
485.2152, 5707.130
485.6973, 5656.453
486.1794, 5625.532
486.6615, 5590.172
487.1436, 5540.607
487.6258, 5483.504
488.1079, 5453.689
488.5900, 5459.910
489.0721, 5469.813
489.5542, 5466.287
490.0363, 5449.269
490.5185, 5427.252
491.0006, 5398.729
491.4827, 5371.576
491.9648, 5359.911
492.4470, 5360.599
492.9291, 5356.251
493.4112, 5337.229
493.8933, 5313.336
494.3754, 5302.204
494.8575, 5301.682
495.3397, 5298.903
495.8218, 5280.791
496.3039, 5258.086
496.7860, 5244.808
497.2681, 5246.503
497.7502, 5242.987
498.2324, 5210.116
498.7145, 5169.280
499.1966, 5148.948
499.6787, 5187.535
500.1608, 5217.903
500.6429, 5214.271
501.1251, 5178.670
501.6072, 5150.544
502.0893, 5133.845
502.5714, 5123.751
503.0535, 5118.038
503.5356, 5116.201
504.0178, 5120.250
504.4999, 5131.871
504.9820, 5147.846
505.4641, 5165.999
505.9462, 5188.624
506.4283, 5200.576
506.9105, 5193.213
507.3926, 5172.713
507.8747, 5164.464
508.3568, 5168.978
508.8389, 5176.131
509.3210, 5176.978
509.8032, 5174.686
510.2853, 5179.710
510.7674, 5195.223
511.2495, 5210.043
511.7316, 5208.400
512.2137, 5197.807
512.6959, 5193.550
513.1780, 5206.034
513.6601, 5223.574
514.1422, 5240.640
514.6243, 5256.822
515.1064, 5270.160
515.5886, 5279.852
516.0707, 5286.509
516.5528, 5289.512
517.0349, 5284.110
517.5170, 5284.918
517.9991, 5298.722
518.4813, 5317.370
518.9634, 5330.936
519.4455, 5339.568
519.9276, 5342.727
520.4097, 5339.386
520.8918, 5330.288
521.3740, 5319.280
521.8561, 5305.785
522.3382, 5292.299
522.8203, 5279.781
523.3024, 5268.423
523.7845, 5259.599
524.2667, 5253.232
524.7488, 5249.907
525.2309, 5252.876
525.7130, 5259.899
526.1951, 5262.665
526.6772, 5252.883
527.1594, 5242.651
527.6415, 5249.697
528.1236, 5270.150
528.6057, 5287.192
529.0878, 5293.942
529.5699, 5291.651
530.0521, 5277.246
530.5342, 5245.425
531.0163, 5223.617
531.4984, 5224.074
531.9805, 5237.281
532.4626, 5253.052
532.9448, 5277.063
533.4269, 5295.165
533.9090, 5305.060
534.3911, 5307.823
534.8732, 5306.415
535.3553, 5297.273
535.8375, 5290.708
536.3196, 5293.368
536.8017, 5306.127
537.2838, 5309.339
537.7659, 5301.414
538.2480, 5289.256
538.7302, 5275.587
539.2123, 5262.135
539.6944, 5263.380
540.1765, 5286.988
540.6586, 5318.282
541.1407, 5340.439
541.6229, 5353.787
542.1050, 5359.992
542.5871, 5353.495
543.0692, 5344.493
543.5513, 5343.340
544.0334, 5350.514
544.5156, 5356.289
544.9977, 5350.593
545.4798, 5344.801
545.9619, 5348.557
546.4440, 5375.291
546.9261, 5394.312
547.4083, 5398.109
547.8904, 5392.176
548.3725, 5385.435
548.8546, 5370.934
549.3367, 5367.756
549.8188, 5387.021
550.3010, 5425.198
550.7831, 5435.950
551.2652, 5410.458
551.7473, 5386.946
552.2294, 5402.166
552.7115, 5450.331
553.1937, 5469.882
553.6758, 5452.418
554.1579, 5420.986
554.6400, 5394.522
555.1221, 5376.214
555.6042, 5376.475
556.0864, 5413.558
556.5685, 5455.978
557.0506, 5471.699
557.5327, 5466.348
558.0148, 5460.440
558.4969, 5467.357
558.9791, 5474.247
559.4612, 5471.455
559.9433, 5455.224
560.4254, 5443.939
560.9075, 5433.720
561.3896, 5434.288
561.8718, 5455.256
562.3539, 5522.446
562.8360, 5565.328
563.3181, 5571.153
563.8002, 5552.854
564.2823, 5540.532
564.7645, 5535.256
565.2466, 5531.292
565.7287, 5523.439
566.2108, 5514.836
566.6929, 5524.564
567.1750, 5553.229
567.6572, 5584.773
568.1393, 5608.319
568.6214, 5624.269
569.1035, 5630.354
569.5856, 5623.735
570.0677, 5617.875
570.5499, 5626.527
571.0320, 5642.771
571.5141, 5655.694
571.9962, 5664.044
572.4783, 5665.598
572.9604, 5650.873
573.4426, 5625.327
573.9247, 5616.472
574.4068, 5647.668
574.8889, 5679.158
575.3710, 5693.120
575.8531, 5683.111
576.3353, 5690.125
576.8174, 5722.478
577.2995, 5759.423
577.7816, 5777.496
578.2637, 5773.519
578.7458, 5787.527
579.2280, 5832.458
579.7101, 5884.713
580.1922, 5896.750
580.6743, 5875.173
581.1564, 5857.283
581.6385, 5862.841
582.1207, 5880.498
582.6028, 5896.727
583.0849, 5911.691
583.5670, 5927.793
584.0491, 5940.037
584.5313, 5958.050
585.0134, 5992.532
585.4955, 6052.464
585.9776, 6104.155
586.4597, 6134.919
586.9418, 6154.490
587.4240, 6172.835
587.9061, 6180.624
588.3882, 6203.170
588.8703, 6249.386
589.3524, 6310.407
589.8345, 6357.610
590.3167, 6385.501
590.7988, 6421.403
591.2809, 6480.614
591.7630, 6557.780
592.2451, 6620.902
592.7272, 6669.387
593.2094, 6718.298
593.6915, 6776.190
594.1736, 6844.228
594.6557, 6925.400
595.1378, 7018.946
595.6199, 7124.245
596.1021, 7243.172
596.5842, 7372.535
597.0663, 7508.340
597.5485, 7642.279
598.0306, 7787.885
598.5127, 7945.792
598.9948, 8117.775
599.4769, 8312.994
599.9590, 8531.836
600.4412, 8775.743
600.9233, 9044.596
601.4054, 9340.184
601.8875, 9648.751
602.3696, 9963.079
602.8517, 10303.50
603.3339, 10675.73
603.8160, 11082.50
604.2981, 11526.77
604.7802, 12004.98
605.2623, 12520.99
605.7444, 13074.23
606.2266, 13668.16
606.7087, 14283.57
607.1908, 14918.45
607.6729, 15581.57
608.1550, 16295.36
608.6371, 17047.41
609.1193, 17822.07
609.6014, 18606.42
610.0835, 19413.13
610.5656, 20242.73
611.0477, 21101.75
611.5298, 21943.01
612.0120, 22820.37
612.4941, 23617.86
612.9762, 24261.45
613.4583, 24759.29
613.9404, 25073.85
614.4225, 25207.09
614.9047, 25143.43
615.3868, 24850.87
615.8689, 24331.58
616.3510, 23640.52
616.8331, 22760.25
617.3152, 21763.58
617.7974, 20703.61
618.2795, 19608.90
618.7616, 18535.80
619.2437, 17515.98
619.7258, 16535.87
620.2079, 15544.95
620.6901, 14547.78
621.1722, 13675.98
621.6543, 13045.43
622.1364, 12503.39
622.6185, 11954.47
623.1006, 11338.36
623.5828, 10828.22
624.0649, 10460.84
624.5470, 10165.72
625.0291, 9857.687
625.5112, 9528.113
625.9933, 9231.559
626.4755, 8983.002
626.9576, 8770.349
627.4397, 8572.748
627.9218, 8390.750
628.4039, 8228.560
628.8860, 8089.788
629.3682, 7970.743
629.8503, 7875.877
630.3324, 7801.549
630.8145, 7723.987
631.2966, 7621.800
631.7787, 7517.667
632.2609, 7427.305
632.7430, 7353.727
633.2251, 7289.835
633.7072, 7243.756
634.1893, 7201.893
634.6714, 7151.373
635.1536, 7081.544
635.6357, 7028.651
636.1178, 7004.593
636.5999, 6989.520
637.0820, 6940.399
637.5641, 6855.500
638.0463, 6785.608
638.5284, 6752.700
639.0105, 6739.466
639.4926, 6709.447
639.9747, 6665.603
640.4568, 6626.045
640.9390, 6603.611
641.4211, 6588.804
641.9032, 6571.948
642.3853, 6552.422
642.8674, 6538.206
643.3495, 6538.769
643.8317, 6541.596
644.3138, 6537.807
644.7959, 6522.391
645.2780, 6507.803
645.7601, 6493.075
646.2422, 6480.069
646.7244, 6472.147
647.2065, 6471.192
647.6886, 6465.313
648.1707, 6450.818
648.6528, 6432.778
649.1349, 6419.482
649.6171, 6411.148
650.0992, 6408.778
650.5813, 6421.945
651.0634, 6435.675
651.5455, 6427.510
652.0276, 6401.306
652.5098, 6378.150
652.9919, 6374.990
653.4740, 6373.934
653.9561, 6361.684
654.4382, 6333.831
654.9203, 6314.092
655.4025, 6306.100
655.8846, 6306.430
656.3667, 6317.124
656.8488, 6351.239
657.3309, 6352.194
657.8130, 6307.580
658.2952, 6248.575
658.7773, 6218.534
659.2594, 6215.428
659.7415, 6218.934
660.2236, 6226.280
660.7057, 6233.519
661.1879, 6235.164
661.6700, 6232.061
662.1521, 6226.493
662.6342, 6220.562
663.1163, 6211.660
663.5984, 6196.222
664.0806, 6175.224
664.5627, 6156.544
665.0448, 6139.401
665.5269, 6127.952
666.0090, 6125.759
666.4911, 6134.966
666.9733, 6136.683
667.4554, 6127.397
667.9375, 6117.582
668.4196, 6120.581
668.9017, 6135.437
669.3839, 6127.240
669.8660, 6087.701
670.3481, 6049.628
670.8302, 6065.258
671.3123, 6110.112
671.7944, 6129.150
672.2766, 6089.281
672.7587, 6045.150
673.2408, 6034.091
673.7229, 6044.109
674.2050, 6051.434
674.6871, 6048.899
675.1693, 6043.535
675.6514, 6034.651
676.1335, 6023.768
676.6156, 6020.677
677.0977, 6031.896
677.5798, 6035.662
678.0620, 6016.127
678.5441, 5977.548
679.0262, 5966.865
679.5083, 5985.454
679.9904, 6007.990
680.4725, 6015.708
680.9547, 6013.124
681.4368, 6006.336
681.9189, 5995.400
682.4010, 5986.926
682.8831, 5986.958
683.3652, 5991.016
683.8474, 5994.575
684.3295, 5995.244
684.8116, 5997.616
685.2937, 6005.736
685.7758, 6014.407
686.2579, 6015.572
686.7401, 6004.294
687.2222, 5999.888
687.7043, 6008.814
688.1864, 6023.749
688.6685, 6026.931
689.1506, 6018.838
689.6328, 6006.957
690.1149, 5987.389
690.5970, 5970.608
691.0791, 5977.220
691.5612, 6002.918
692.0433, 6025.467
692.5255, 6029.335
693.0076, 6029.531
693.4897, 6037.367
693.9718, 6054.892
694.4539, 6064.471
694.9360, 6055.317
695.4182, 6045.480
695.9003, 6046.549
696.3824, 6064.413
696.8645, 6065.150
697.3466, 6042.886
697.8287, 6018.912
698.3109, 6018.595
698.7930, 6037.761
699.2751, 6054.770
699.7572, 6065.939
700.2393, 6073.494
700.7214, 6078.425
701.2036, 6081.547
701.6857, 6084.246
702.1678, 6088.607
702.6499, 6090.770
703.1320, 6084.835
703.6141, 6075.736
704.0963, 6076.607
704.5784, 6100.346
705.0605, 6114.804
705.5426, 6109.609
706.0247, 6090.140
706.5068, 6081.200
706.9890, 6083.858
707.4711, 6087.580
707.9532, 6085.495
708.4353, 6080.805
708.9174, 6083.069
709.3995, 6091.588
709.8817, 6099.504
710.3638, 6098.136
710.8459, 6096.602
711.3280, 6104.760
711.8101, 6125.131
712.2922, 6141.766
712.7744, 6147.015
713.2565, 6149.412
713.7386, 6154.849
714.2207, 6164.624
714.7028, 6175.406
715.1849, 6190.791
715.6671, 6201.079
716.1492, 6187.805
716.6313, 6154.355
717.1134, 6142.004
717.5955, 6160.885
718.0776, 6192.998
718.5598, 6225.073
719.0419, 6253.055
719.5240, 6268.863
720.0061, 6264.612
720.4882, 6253.921
720.9703, 6232.561
721.4525, 6209.963
721.9346, 6207.719
722.4167, 6253.631
722.8988, 6287.409
723.3809, 6295.473
723.8630, 6283.341
724.3452, 6271.780
724.8273, 6260.653
725.3094, 6251.265
725.7915, 6243.982
726.2736, 6239.065
726.7557, 6234.317
727.2379, 6230.909
727.7200, 6238.058
728.2021, 6277.896
728.6842, 6319.271
729.1663, 6333.059
729.6484, 6315.936
730.1306, 6302.251
730.6127, 6295.964
731.0948, 6301.160
731.5769, 6323.257
732.0590, 6371.546
732.5411, 6397.288
733.0233, 6395.782
733.5054, 6382.277
733.9875, 6365.445
734.4696, 6347.053
734.9517, 6342.131
735.4338, 6353.517
735.9160, 6370.899
736.3981, 6392.161
736.8802, 6410.029
737.3623, 6411.675
737.8444, 6381.585
738.3266, 6358.447
738.8087, 6366.711
739.2908, 6387.334
739.7729, 6392.017
740.2551, 6369.700
740.7372, 6349.330
741.2193, 6332.290
741.7014, 6320.506
742.1835, 6325.184
742.6656, 6346.627
743.1478, 6346.515
743.6299, 6299.660
744.1120, 6240.817
744.5941, 6229.736
745.0762, 6253.862
745.5583, 6273.838
746.0405, 6265.692
746.5226, 6252.181
747.0047, 6246.940
747.4868, 6248.021
747.9689, 6242.169
748.4510, 6218.777
748.9332, 6200.020
749.4153, 6193.221
749.8974, 6197.641
750.3795, 6205.194
750.8616, 6216.415
751.3438, 6226.403
751.8259, 6234.366
752.3080, 6238.308
752.7901, 6227.981
753.2722, 6204.447
753.7543, 6190.079
754.2365, 6216.301
754.7186, 6246.462
755.2007, 6245.119
755.6828, 6199.983
756.1649, 6174.394
756.6470, 6199.902
757.1292, 6229.090
757.6113, 6231.318
758.0934, 6197.362
758.5755, 6177.558
759.0576, 6172.527
759.5397, 6179.131
760.0219, 6203.144
760.5040, 6236.515
760.9861, 6250.125
761.4682, 6236.246
761.9503, 6219.726
762.4324, 6222.178
762.9146, 6232.221
763.3967, 6236.026
763.8788, 6222.789
764.3609, 6215.385
764.8430, 6220.993
765.3251, 6232.371
765.8073, 6243.072
766.2894, 6255.086
766.7715, 6258.354
767.2536, 6250.777
767.7357, 6235.117
768.2178, 6208.632
768.7000, 6176.216
769.1821, 6160.301
769.6642, 6177.402
770.1463, 6198.124
770.6284, 6193.329
771.1105, 6174.390
771.5927, 6163.296
772.0748, 6179.684
772.5569, 6189.507
773.0390, 6179.606
773.5211, 6158.695
774.0032, 6148.332
774.4854, 6149.630
774.9675, 6157.929
775.4496, 6174.268
775.9317, 6194.589
776.4138, 6210.133
776.8959, 6220.752
777.3781, 6226.371
777.8602, 6223.646
778.3423, 6218.512
778.8244, 6217.573
779.3065, 6219.035
779.7886, 6215.134
780.2708, 6192.726
780.7529, 6176.163
781.2350, 6175.146
781.7171, 6187.752
782.1992, 6195.758
782.6813, 6198.040
783.1635, 6199.824
783.6456, 6201.943
784.1277, 6205.857
784.6098, 6221.981
785.0919, 6248.161
785.5740, 6263.970
786.0562, 6245.649
786.5383, 6219.167
787.0204, 6204.156
787.5025, 6201.923
787.9846, 6208.863
788.4667, 6238.778
788.9489, 6263.199
789.4310, 6265.893
789.9131, 6244.584
790.3952, 6247.957
790.8773, 6281.264
791.3594, 6314.623
791.8416, 6324.210
792.3237, 6316.676
792.8058, 6305.166
793.2879, 6290.529
793.7700, 6285.570
794.2521, 6310.546
794.7343, 6341.261
795.2164, 6353.645
795.6985, 6337.063
796.1806, 6340.389
796.6627, 6384.331
797.1448, 6431.693
797.6270, 6456.426
798.1091, 6454.485
798.5912, 6463.945
799.0733, 6486.917
799.5554, 6511.817
800.0375, 6524.113
800.5197, 6530.968
801.0018, 6546.741
801.4839, 6573.915
801.9660, 6604.795
802.4481, 6641.079
802.9302, 6675.096
803.4124, 6699.058
803.8945, 6702.240
804.3766, 6717.130
804.8587, 6745.350
805.3408, 6783.133
805.8229, 6831.472
806.3051, 6890.225
806.7872, 6939.367
807.2693, 6978.344
807.7514, 7001.102
808.2335, 6984.581
808.7156, 6954.090
809.1978, 6950.464
809.6799, 6989.582
810.1620, 7030.754
810.6441, 7058.084
811.1262, 7078.989
811.6083, 7100.696
812.0905, 7126.161
812.5726, 7146.040
813.0547, 7157.981
813.5368, 7168.136
814.0189, 7188.815
814.5010, 7215.998
814.9832, 7222.314
815.4653, 7199.338
815.9474, 7174.738
816.4295, 7177.396
816.9116, 7191.964
817.3937, 7200.601
817.8759, 7204.416
818.3580, 7191.015
818.8401, 7141.575
819.3222, 7084.570
819.8043, 7049.056
820.2864, 7043.053
820.7686, 7020.824
821.2507, 6977.025
821.7328, 6920.889
822.2149, 6858.771
822.6970, 6794.863
823.1791, 6738.398
823.6613, 6691.791
824.1434, 6653.698
824.6255, 6625.307
825.1076, 6604.468
825.5897, 6589.295
826.0718, 6594.617
826.5540, 6582.242
827.0361, 6544.539
827.5182, 6497.661
828.0003, 6457.708
828.4824, 6425.016
828.9645, 6402.795
829.4467, 6392.743
829.9288, 6388.924
830.4109, 6386.579
830.8930, 6385.365
831.3751, 6384.607
831.8572, 6383.574
832.3394, 6384.308
832.8215, 6390.552
833.3036, 6397.257
833.7857, 6398.098
834.2678, 6388.539
834.7499, 6388.455
835.2321, 6403.639
835.7142, 6417.767
836.1963, 6405.633
836.6784, 6374.415
837.1605, 6350.926
837.6426, 6341.275
838.1248, 6336.102
838.6069, 6330.950
839.0890, 6325.003
839.5711, 6317.114
840.0532, 6303.620
840.5353, 6294.418
841.0175, 6288.776
841.4996, 6288.752
841.9817, 6299.113
842.4638, 6320.573
842.9459, 6336.605
843.4280, 6346.560
843.9102, 6346.247
844.3923, 6318.329
844.8744, 6281.144
845.3565, 6267.164
845.8386, 6289.146
846.3207, 6309.943
846.8029, 6313.990
847.2850, 6310.559
847.7671, 6307.683
848.2492, 6305.415
848.7313, 6304.531
849.2134, 6306.047
849.6956, 6306.361
850.1777, 6299.394
850.6598, 6288.046
851.1419, 6282.716
851.6240, 6284.884
852.1061, 6290.502
852.5883, 6296.723
853.0704, 6304.812
853.5525, 6318.440
854.0346, 6344.981
854.5167, 6352.803
854.9988, 6325.619
855.4810, 6298.792
855.9631, 6303.057
856.4452, 6339.208
856.9273, 6351.020
857.4094, 6335.969
857.8915, 6313.262
858.3737, 6293.701
858.8558, 6279.667
859.3379, 6275.564
859.8200, 6282.412
860.3021, 6291.899
860.7842, 6303.463
861.2664, 6314.496
861.7485, 6323.992
862.2306, 6332.308
862.7127, 6334.392
863.1948, 6328.155
863.6769, 6324.973
864.1591, 6338.384
864.6412, 6359.605
865.1233, 6367.758
865.6054, 6362.798
866.0875, 6352.860
866.5696, 6337.245
867.0518, 6322.799
867.5339, 6312.681
868.0160, 6307.307
868.4981, 6310.208
868.9802, 6324.165
869.4623, 6340.657
869.9445, 6357.808
870.4266, 6374.018
870.9087, 6382.036
871.3908, 6382.065
871.8729, 6375.620
872.3550, 6347.624
872.8372, 6326.485
873.3193, 6346.033
873.8014, 6398.186
874.2835, 6434.192
874.7656, 6432.639
875.2477, 6425.744
875.7299, 6422.182
876.2120, 6419.065
876.6941, 6399.853
877.1762, 6364.664
877.6583, 6340.762
878.1404, 6346.046
878.6226, 6362.881
879.1047, 6370.854
879.5869, 6371.529
880.0690, 6369.142
880.5511, 6357.653
881.0332, 6352.206
881.5153, 6360.946
881.9974, 6377.334
882.4796, 6388.823
882.9617, 6394.840
883.4438, 6399.290
883.9259, 6403.315
884.4080, 6405.633
884.8901, 6401.790
885.3723, 6394.779
885.8544, 6392.382
886.3365, 6404.713
886.8186, 6409.968
887.3007, 6386.281
887.7828, 6355.012
888.2650, 6346.826
888.7471, 6371.772
889.2292, 6394.667
889.7113, 6414.127
890.1934, 6427.600
890.6755, 6431.465
891.1577, 6426.784
891.6398, 6413.153
892.1219, 6386.914
892.6040, 6371.262
893.0861, 6394.350
893.5682, 6428.773
894.0504, 6448.428
894.5325, 6443.545
895.0146, 6438.337
895.4967, 6430.979
895.9788, 6426.664
896.4609, 6432.333
896.9431, 6445.813
897.4252, 6453.084
897.9073, 6453.349
898.3894, 6451.711
898.8715, 6447.167
899.3536, 6445.902
899.8358, 6456.584
900.3179, 6481.450
900.8000, 6495.824
901.2821, 6492.027
901.7642, 6485.755
902.2463, 6487.604
902.7285, 6494.138
903.2106, 6470.746
903.6927, 6419.040
904.1748, 6378.803
904.6569, 6385.177
905.1390, 6406.465
905.6212, 6407.002
906.1033, 6392.874
906.5854, 6393.328
907.0675, 6432.088
907.5496, 6468.235
908.0317, 6493.675
908.5139, 6509.200
908.9960, 6517.218
909.4781, 6517.659
909.9602, 6509.128
910.4423, 6483.887
910.9244, 6461.314
911.4066, 6474.437
911.8887, 6505.529
912.3708, 6522.099
912.8529, 6497.206
913.3350, 6477.045
913.8171, 6472.738
914.2993, 6475.116
914.7814, 6470.252
915.2635, 6456.796
915.7456, 6455.891
916.2277, 6472.622
916.7098, 6493.341
917.1920, 6499.869
917.6741, 6500.894
918.1562, 6511.450
918.6383, 6539.830
919.1204, 6558.197
919.6025, 6544.660
920.0847, 6529.258
920.5668, 6534.855
921.0489, 6566.832
921.5310, 6580.335
922.0131, 6574.069
922.4952, 6560.206
922.9774, 6540.818
923.4595, 6523.860
923.9416, 6526.268
924.4237, 6547.193
924.9058, 6560.661
925.3879, 6546.355
925.8701, 6532.813
926.3522, 6535.094
926.8343, 6549.927
927.3164, 6546.139
927.7985, 6520.391
928.2806, 6507.128
928.7628, 6530.114
929.2449, 6567.211
929.7270, 6586.341
930.2091, 6591.014
930.6912, 6591.284
931.1733, 6584.565
931.6555, 6581.793
932.1376, 6591.306
932.6197, 6604.612
933.1018, 6607.180
933.5839, 6597.862
934.0660, 6584.746
934.5482, 6566.654
935.0303, 6553.137
935.5124, 6562.098
935.9945, 6582.618
936.4766, 6594.299
936.9587, 6587.538
937.4409, 6585.748
937.9230, 6603.653
938.4051, 6623.998
938.8872, 6633.044
939.3693, 6628.503
939.8514, 6626.790
940.3336, 6628.384
940.8157, 6629.692
941.2978, 6629.026
941.7799, 6625.531
942.2620, 6612.972
942.7441, 6592.456
943.2263, 6585.110
943.7084, 6616.100
944.1905, 6644.349
944.6726, 6652.586
945.1547, 6643.871
945.6368, 6636.478
946.1190, 6630.360
946.6011, 6625.303
947.0832, 6620.409
947.5653, 6617.386
948.0474, 6619.023
948.5295, 6624.239
949.0117, 6630.521
949.4938, 6638.414
949.9759, 6645.504
950.4580, 6651.689
950.9401, 6656.677
951.4222, 6659.414
951.9044, 6659.853
952.3865, 6661.790
952.8686, 6666.233
953.3507, 6670.331
953.8328, 6668.276
954.3149, 6665.380
954.7971, 6669.406
955.2792, 6684.399
955.7613, 6696.136
956.2434, 6702.778
956.7255, 6705.222
957.2076, 6700.681
957.6898, 6689.721
958.1719, 6696.982
958.6540, 6722.174
959.1361, 6741.961
959.6182, 6729.040
960.1003, 6712.351
960.5825, 6724.413
961.0646, 6759.715
961.5467, 6780.185
962.0288, 6768.244
962.5109, 6756.944
962.9930, 6753.711
963.4752, 6756.142
963.9573, 6761.126
964.4394, 6767.451
964.9215, 6766.320
965.4036, 6748.366
965.8857, 6735.238
966.3679, 6751.476
966.8500, 6779.956
967.3321, 6798.241
967.8142, 6796.784
968.2963, 6796.381
968.7784, 6797.655
969.2606, 6798.897
969.7427, 6799.249
970.2248, 6798.147
970.7069, 6793.083
971.1890, 6783.928
971.6711, 6773.271
972.1533, 6755.020
972.6354, 6742.444
973.1175, 6749.125
973.5996, 6774.578
974.0817, 6787.875
974.5638, 6784.302
975.0460, 6785.862
975.5281, 6806.201
976.0102, 6833.354
976.4923, 6838.404
976.9744, 6828.528
977.4565, 6824.798
977.9387, 6844.618
978.4208, 6862.534
978.9029, 6872.309
979.3850, 6873.616
979.8671, 6861.087
980.3492, 6828.641
980.8314, 6821.292
981.3135, 6847.260
981.7956, 6883.940
982.2777, 6912.154
982.7598, 6932.925
983.2419, 6946.935
983.7241, 6953.835
984.2062, 6957.936
984.6883, 6952.479
985.1704, 6953.232
985.6525, 6971.426
986.1346, 7004.106
986.6168, 7015.707
987.0989, 7007.021
987.5810, 7002.913
988.0631, 7024.020
988.5452, 7050.964
989.0273, 7066.958
989.5095, 7074.102
989.9916, 7077.282
990.4737, 7066.343
990.9558, 7071.062
991.4379, 7102.454
991.9200, 7140.016
992.4022, 7144.527
992.8843, 7125.676
993.3664, 7129.580
993.8485, 7168.608
994.3306, 7205.553
994.8127, 7199.708
995.2949, 7190.752
995.7770, 7222.041
996.2591, 7305.797
996.7412, 7345.527
997.2233, 7330.956
997.7054, 7308.562
998.1876, 7301.054
998.6697, 7307.644
999.1518, 7334.614
999.6339, 7375.896
1000.116, 7407.586
1000.598, 7406.304
1001.080, 7408.599
1001.562, 7429.994
1002.044, 7461.590
1002.527, 7489.658
1003.009, 7514.104
1003.491, 7532.500
1003.973, 7543.113
1004.455, 7551.599
1004.937, 7559.225
1005.419, 7570.640
1005.901, 7594.433
1006.384, 7637.615
1006.866, 7667.918
1007.348, 7671.085
1007.830, 7677.122
1008.312, 7705.126
1008.794, 7750.739
1009.276, 7789.923
1009.758, 7823.021
1010.240, 7854.302
1010.723, 7878.523
1011.205, 7909.345
1011.687, 7967.111
1012.169, 8036.911
1012.651, 8074.053
1013.133, 8052.646
1013.615, 8077.623
1014.097, 8173.703
1014.580, 8296.948
1015.062, 8391.186
1015.544, 8465.685
1016.026, 8533.859
1016.508, 8593.848
1016.990, 8671.498
1017.472, 8785.106
1017.954, 8913.097
1018.436, 9044.626
1018.919, 9178.643
1019.401, 9311.844
1019.883, 9444.190
1020.365, 9590.494
1020.847, 9765.026
1021.329, 9952.828
1021.811, 10138.44
1022.293, 10325.00
1022.776, 10524.80
1023.258, 10748.17
1023.740, 10973.73
1024.222, 11204.78
1024.704, 11429.22
1025.186, 11624.02
1025.668, 11797.09
1026.150, 11970.64
1026.632, 12149.64
1027.115, 12316.70
1027.597, 12476.04
1028.079, 12606.69
1028.561, 12699.66
1029.043, 12756.00
1029.525, 12757.82
1030.007, 12703.30
1030.489, 12609.67
1030.972, 12481.09
1031.454, 12321.74
1031.936, 12123.07
1032.418, 11897.40
1032.900, 11674.49
1033.382, 11482.80
1033.864, 11259.85
1034.346, 10984.20
1034.828, 10697.71
1035.311, 10454.33
1035.793, 10246.02
1036.275, 10032.06
1036.757, 9807.299
1037.239, 9590.918
1037.721, 9390.954
1038.203, 9208.110
1038.685, 9045.688
1039.167, 8904.069
1039.650, 8782.383
1040.132, 8685.815
1040.614, 8589.731
1041.096, 8485.536
1041.578, 8382.045
1042.060, 8294.287
1042.542, 8219.972
1043.024, 8155.149
1043.507, 8110.696
1043.989, 8052.190
1044.471, 7960.203
1044.953, 7866.882
1045.435, 7795.200
1045.917, 7744.444
1046.399, 7703.250
1046.881, 7671.500
1047.364, 7646.867
1047.846, 7645.193
1048.328, 7634.019
1048.810, 7576.633
1049.292, 7488.339
1049.774, 7437.836
1050.256, 7435.454
1050.738, 7437.517
1051.220, 7437.830
1051.703, 7432.562
1052.185, 7416.331
1052.667, 7390.778
1053.149, 7354.412
1053.631, 7300.982
1054.113, 7265.882
1054.595, 7271.030
1055.077, 7282.645
1055.559, 7284.843
1056.042, 7278.919
1056.524, 7274.260
1057.006, 7270.383
1057.488, 7263.343
1057.970, 7254.360
1058.452, 7238.032
1058.934, 7192.722
1059.416, 7143.469
1059.899, 7141.849
1060.381, 7211.103
1060.863, 7244.956
1061.345, 7230.923
1061.827, 7197.541
1062.309, 7164.846
1062.791, 7136.282
1063.273, 7113.883
1063.755, 7098.138
1064.238, 7103.195
1064.720, 7160.685
1065.202, 7203.941
1065.684, 7213.988
1066.166, 7195.985
1066.648, 7151.631
1067.130, 7089.261
1067.612, 7043.565
1068.094, 7025.489
1068.577, 7027.135
1069.059, 7057.297
1069.541, 7095.931
1070.023, 7125.577
1070.505, 7147.337
1070.987, 7148.473
1071.469, 7126.718
1071.951, 7106.692
1072.434, 7109.818
1072.916, 7120.691
1073.398, 7120.296
1073.880, 7111.763
1074.362, 7107.189
1074.844, 7113.830
1075.326, 7116.237
1075.808, 7111.071
1076.291, 7103.615
1076.773, 7099.623
1077.255, 7099.506
1077.737, 7108.023
1078.219, 7126.593
1078.701, 7136.211
1079.183, 7112.847
1079.665, 7092.583
1080.147, 7094.263
1080.630, 7114.393
1081.112, 7136.175
1081.594, 7159.179
1082.076, 7169.421
1082.558, 7157.696
1083.040, 7138.817
1083.522, 7119.751
1084.004, 7104.383
1084.486, 7098.970
1084.969, 7108.083
1085.451, 7116.667
1085.933, 7126.759
1086.415, 7128.447
1086.897, 7105.713
1087.379, 7073.702
1087.861, 7056.024
1088.343, 7052.692
1088.826, 7061.019
1089.308, 7102.298
1089.790, 7123.600
1090.272, 7107.541
1090.754, 7077.635
1091.236, 7071.098
1091.718, 7083.405
1092.200, 7095.733
1092.682, 7105.688
1093.165, 7109.034
1093.647, 7091.512
1094.129, 7077.308
1094.611, 7085.636
1095.093, 7112.057
1095.575, 7127.453
1096.057, 7131.956
1096.539, 7118.793
1097.022, 7073.640
1097.504, 7034.003
1097.986, 7047.255
1098.468, 7086.707
1098.950, 7115.828
1099.432, 7126.086
1099.914, 7134.445
1100.396, 7141.513
1100.879, 7144.298
1101.361, 7135.123
1101.843, 7122.642
1102.325, 7126.138
1102.807, 7141.794
1103.289, 7154.684
1103.771, 7153.746
1104.253, 7158.124
1104.735, 7176.566
1105.218, 7194.786
1105.700, 7187.405
1106.182, 7161.104
1106.664, 7149.771
1107.146, 7157.217
1107.628, 7165.421
1108.110, 7158.743
1108.592, 7154.381
1109.074, 7163.825
1109.557, 7183.427
1110.039, 7199.943
1110.521, 7213.527
1111.003, 7221.484
1111.485, 7223.122
1111.967, 7218.496
1112.449, 7195.621
1112.931, 7173.505
1113.414, 7176.162
1113.896, 7212.309
1114.378, 7239.705
1114.860, 7258.739
1115.342, 7266.874
1115.824, 7254.984
1116.306, 7237.837
1116.788, 7244.465
1117.271, 7263.647
1117.753, 7270.383
1118.235, 7223.420
1118.717, 7218.631
1119.199, 7279.128
1119.681, 7349.193
1120.163, 7373.923
1120.645, 7363.843
1121.127, 7343.146
1121.609, 7315.042
1122.092, 7295.153
1122.574, 7305.813
1123.056, 7307.466
1123.538, 7276.682
1124.020, 7237.514
1124.502, 7244.995
1124.984, 7292.666
1125.466, 7326.551
1125.949, 7336.329
1126.431, 7333.332
1126.913, 7314.244
1127.395, 7294.663
1127.877, 7288.751
1128.359, 7294.017
1128.841, 7286.762
1129.323, 7265.850
1129.806, 7253.543
1130.288, 7262.038
1130.770, 7273.511
1131.252, 7268.528
1131.734, 7256.248
1132.216, 7248.274
1132.698, 7245.794
1133.180, 7250.675
1133.662, 7266.567
1134.145, 7274.107
1134.627, 7246.876
1135.109, 7213.064
1135.591, 7229.359
1136.073, 7274.851
1136.555, 7296.169
1137.037, 7245.214
1137.519, 7221.027
1138.001, 7238.325
1138.484, 7264.447
1138.966, 7261.568
1139.448, 7242.237
1139.930, 7238.133
1140.412, 7249.346
1140.894, 7259.623
1141.376, 7253.388
1141.858, 7258.281
1142.341, 7288.124
1142.823, 7325.426
1143.305, 7335.821
1143.787, 7324.989
1144.269, 7317.777
1144.751, 7318.200
1145.233, 7323.849
1145.715, 7345.407
1146.198, 7359.049
1146.680, 7349.096
1147.162, 7321.480
1147.644, 7300.812
1148.126, 7287.551
1148.608, 7292.216
1149.090, 7329.873
1149.572, 7354.573
1150.054, 7304.933
1150.536, 7244.943
1151.019, 7241.465
1151.501, 7300.914
1151.983, 7334.965
1152.465, 7342.988
1152.947, 7345.606
1153.429, 7351.652
1153.911, 7359.863
1154.393, 7372.044
1154.876, 7384.548
1155.358, 7389.831
1155.840, 7382.553
1156.322, 7383.646
1156.804, 7394.080
1157.286, 7409.644
1157.768, 7437.220
1158.250, 7460.780
1158.733, 7453.563
1159.215, 7423.657
1159.697, 7402.886
1160.179, 7394.846
1160.661, 7399.715
1161.143, 7420.679
1161.625, 7445.727
1162.107, 7465.782
1162.589, 7478.516
1163.072, 7475.564
1163.554, 7457.804
1164.036, 7446.795
1164.518, 7450.951
1165.000, 7455.946
1165.482, 7454.635
1165.964, 7458.792
1166.446, 7500.891
1166.928, 7562.275
1167.411, 7600.754
1167.893, 7606.426
1168.375, 7604.745
1168.857, 7597.819
1169.339, 7592.944
1169.821, 7594.026
1170.303, 7598.335
1170.785, 7596.276
1171.268, 7590.457
1171.750, 7589.077
1172.232, 7593.957
1172.714, 7605.605
1173.196, 7639.865
1173.678, 7665.188
1174.160, 7659.255
1174.642, 7626.891
1175.125, 7593.510
1175.607, 7561.393
1176.089, 7544.962
1176.571, 7564.697
1177.053, 7583.093
1177.535, 7591.303
1178.017, 7584.086
1178.499, 7545.059
1178.981, 7474.828
1179.464, 7460.790
1179.946, 7500.361
1180.428, 7538.511
1180.910, 7540.488
1181.392, 7531.896
1181.874, 7523.178
1182.356, 7514.037
1182.838, 7502.653
1183.320, 7488.709
1183.803, 7479.847
1184.285, 7476.705
1184.767, 7476.579
1185.249, 7475.792
1185.731, 7478.786
1186.213, 7495.147
1186.695, 7516.728
1187.177, 7518.769
1187.660, 7499.611
1188.142, 7486.831
1188.624, 7485.485
1189.106, 7486.885
1189.588, 7480.588
1190.070, 7476.186
1190.552, 7486.630
1191.034, 7508.207
1191.516, 7510.901
1191.999, 7491.968
1192.481, 7481.469
1192.963, 7488.949
1193.445, 7499.333
1193.927, 7495.840
1194.409, 7488.808
1194.891, 7488.023
1195.373, 7494.279
1195.855, 7511.507
1196.338, 7543.849
1196.820, 7549.029
1197.302, 7497.341
1197.784, 7439.475
1198.266, 7429.620
1198.748, 7447.311
1199.230, 7470.662
1199.712, 7499.367
1200.195, 7514.259
1200.677, 7513.000
1201.159, 7514.646
1201.641, 7533.150
1202.123, 7554.808
1202.605, 7567.691
1203.087, 7571.456
1203.569, 7564.346
1204.052, 7540.471
1204.534, 7524.796
1205.016, 7518.098
1205.498, 7514.227
1205.980, 7505.011
1206.462, 7499.384
1206.944, 7512.802
1207.426, 7536.956
1207.908, 7551.489
1208.391, 7548.759
1208.873, 7556.152
1209.355, 7577.668
1209.837, 7594.170
1210.319, 7581.337
1210.801, 7560.809
1211.283, 7557.242
1211.765, 7567.510
1212.247, 7579.196
1212.730, 7594.676
1213.212, 7597.720
1213.694, 7583.644
1214.176, 7571.432
1214.658, 7590.023
1215.140, 7612.919
1215.622, 7601.564
1216.104, 7563.010
1216.587, 7550.339
1217.069, 7574.755
1217.551, 7595.629
1218.033, 7606.138
1218.515, 7612.781
1218.997, 7626.586
1219.479, 7637.954
1219.961, 7630.006
1220.443, 7604.346
1220.926, 7598.894
1221.408, 7620.107
1221.890, 7641.939
1222.372, 7660.356
1222.854, 7670.358
1223.336, 7660.940
1223.818, 7642.945
1224.300, 7628.362
1224.782, 7618.712
1225.265, 7607.683
1225.747, 7594.221
1226.229, 7583.555
1226.711, 7576.323
1227.193, 7575.188
1227.675, 7586.495
1228.157, 7603.957
1228.639, 7620.239
1229.122, 7634.490
1229.604, 7651.729
1230.086, 7674.229
1230.568, 7683.293
1231.050, 7664.213
1231.532, 7644.493
1232.014, 7668.072
1232.496, 7702.654
1232.979, 7700.655
1233.461, 7651.242
1233.943, 7648.712
1234.425, 7699.209
1234.907, 7734.171
1235.389, 7711.851
1235.871, 7675.522
1236.353, 7662.801
1236.835, 7664.650
1237.318, 7671.740
1237.800, 7685.023
1238.282, 7685.203
1238.764, 7671.275
1239.246, 7665.071
1239.728, 7684.085
1240.210, 7708.956
1240.692, 7728.675
1241.175, 7741.177
1241.657, 7744.512
1242.139, 7739.325
1242.621, 7717.225
1243.103, 7677.752
1243.585, 7649.094
1244.067, 7652.380
1244.549, 7667.442
1245.031, 7689.082
1245.514, 7709.439
1245.996, 7714.364
1246.478, 7700.753
1246.960, 7718.697
1247.442, 7767.099
1247.924, 7806.754
1248.406, 7810.563
1248.888, 7800.060
1249.370, 7774.575
1249.853, 7749.453
1250.335, 7748.815
1250.817, 7771.404
1251.299, 7775.047
1251.781, 7759.097
1252.263, 7742.256
1252.745, 7729.776
1253.227, 7726.645
1253.710, 7741.005
1254.192, 7761.122
1254.674, 7775.180
1255.156, 7782.613
1255.638, 7776.188
1256.120, 7756.739
1256.602, 7738.481
1257.084, 7715.949
1257.567, 7715.462
1258.049, 7756.569
1258.531, 7807.061
1259.013, 7818.139
1259.495, 7800.599
1259.977, 7791.525
1260.459, 7793.804
1260.941, 7803.321
1261.423, 7831.569
1261.906, 7847.341
1262.388, 7839.543
1262.870, 7823.838
1263.352, 7824.728
1263.834, 7834.610
1264.316, 7836.615
1264.798, 7829.421
1265.280, 7817.571
1265.762, 7790.888
1266.245, 7779.936
1266.727, 7793.613
1267.209, 7816.825
1267.691, 7834.324
1268.173, 7844.597
1268.655, 7838.833
1269.137, 7818.398
1269.619, 7819.255
1270.102, 7857.584
1270.584, 7879.662
1271.066, 7870.228
1271.548, 7854.897
1272.030, 7875.673
1272.512, 7902.445
1272.994, 7891.159
1273.476, 7842.651
1273.958, 7824.486
1274.441, 7845.216
1274.923, 7862.976
1275.405, 7868.507
1275.887, 7868.965
1276.369, 7871.560
1276.851, 7872.870
1277.333, 7869.312
1277.815, 7861.202
1278.297, 7848.783
1278.780, 7831.389
1279.262, 7828.391
1279.744, 7846.790
1280.226, 7864.516
1280.708, 7858.119
1281.190, 7849.723
1281.672, 7858.819
1282.154, 7878.568
1282.637, 7880.639
1283.119, 7867.555
1283.601, 7865.988
1284.083, 7884.123
1284.565, 7895.042
1285.047, 7865.422
1285.529, 7844.764
1286.011, 7863.292
1286.494, 7902.492
1286.976, 7909.208
1287.458, 7891.254
1287.940, 7870.129
1288.422, 7847.598
1288.904, 7844.906
1289.386, 7892.524
1289.868, 7931.411
1290.350, 7942.490
1290.833, 7933.528
1291.315, 7901.738
1291.797, 7867.168
1292.279, 7879.538
1292.761, 7956.944
1293.243, 7995.113
1293.725, 7970.840
1294.207, 7939.909
1294.689, 7915.982
1295.172, 7904.438
1295.654, 7921.908
1296.136, 7951.713
1296.618, 7973.082
1297.100, 7982.353
1297.582, 7984.521
1298.064, 7978.750
1298.546, 7971.767
1299.029, 7965.561
1299.511, 7959.171
1299.993, 7946.749
1300.475, 7937.313
1300.957, 7943.129
1301.439, 7961.288
1301.921, 7971.696
1302.403, 7974.992
1302.885, 7992.927
1303.368, 8039.137
1303.850, 8067.934
1304.332, 8024.357
1304.814, 7975.828
1305.296, 7965.377
1305.778, 7982.174
1306.260, 7987.204
1306.742, 7984.633
1307.224, 7993.956
1307.707, 8023.298
1308.189, 8044.815
1308.671, 8045.286
1309.153, 8036.458
1309.635, 8018.268
1310.117, 7998.302
1310.599, 7991.025
##END=



