##NAMES=Pyroaurite
##RRUFFID=R100053
##IDEAL CHEMISTRY=Mg_6_Fe^3+^_2_CO_3_(OH)_16_&#183;4H_2_O
##LOCALITY=Langban, Filipstad, Varmland, Sweden
##OWNER=RRUFF
##SOURCE=William W Pinch
##DESCRIPTION=Pale bluish-green hexagonal tablets embedded in calcite, associated with magnetite
##STATUS=The identification of this mineral has been confirmed by single-crystal X-ray diffraction.
##URL=rruff.info/R100053
93.46167, 217.2979
93.94379, 216.5170
94.42590, 213.7290
94.90802, 210.0092
95.39014, 205.7307
95.87225, 200.5906
96.35437, 196.1342
96.83649, 193.4549
97.31860, 191.6539
97.80072, 189.7938
98.28284, 187.1179
98.76495, 183.7085
99.24707, 180.9388
99.72919, 179.3537
100.2113, 177.8631
100.6934, 175.9712
101.1755, 173.8917
101.6577, 172.1411
102.1398, 171.1861
102.6219, 171.1763
103.1040, 171.1279
103.5861, 171.0970
104.0682, 170.9690
104.5504, 170.6871
105.0325, 170.2366
105.5146, 169.6038
105.9967, 168.7005
106.4788, 167.2732
106.9609, 166.2068
107.4431, 165.6812
107.9252, 165.4928
108.4073, 165.3600
108.8894, 165.1663
109.3715, 165.0482
109.8536, 165.2525
110.3358, 165.7950
110.8179, 166.4472
111.3000, 167.2188
111.7821, 168.0759
112.2642, 168.6680
112.7463, 168.6625
113.2285, 168.4314
113.7106, 168.3064
114.1927, 168.3176
114.6748, 168.5084
115.1569, 168.9972
115.6390, 169.9389
116.1212, 170.7905
116.6033, 171.3660
117.0854, 171.7981
117.5675, 172.2253
118.0496, 172.7285
118.5317, 173.2610
119.0139, 173.5890
119.4960, 173.2978
119.9781, 173.2395
120.4602, 173.5841
120.9423, 174.2689
121.4244, 175.2113
121.9066, 176.3997
122.3887, 177.8898
122.8708, 178.8037
123.3529, 178.9557
123.8350, 178.8598
124.3171, 178.6339
124.7993, 178.3365
125.2814, 178.0960
125.7635, 178.0512
126.2456, 178.2538
126.7277, 178.4424
127.2098, 178.5256
127.6920, 178.6307
128.1741, 178.9553
128.6562, 179.5776
129.1383, 180.2146
129.6204, 180.5243
130.1025, 180.5537
130.5847, 180.3752
131.0668, 179.9973
131.5489, 179.4303
132.0310, 178.6473
132.5131, 177.3087
132.9952, 176.1404
133.4774, 176.0064
133.9595, 176.8980
134.4416, 177.5694
134.9237, 176.6084
135.4058, 173.6884
135.8879, 171.3953
136.3701, 170.7204
136.8522, 170.5150
137.3343, 170.2599
137.8164, 169.8071
138.2985, 169.1902
138.7806, 168.4662
139.2628, 167.6705
139.7449, 166.6693
140.2270, 165.3881
140.7091, 163.9632
141.1912, 162.5084
141.6733, 161.0815
142.1555, 159.6534
142.6376, 158.1472
143.1197, 156.3016
143.6018, 154.6673
144.0839, 153.3008
144.5660, 152.1834
145.0482, 151.3738
145.5303, 150.9832
146.0124, 150.8666
146.4945, 149.9081
146.9766, 147.5054
147.4587, 145.0626
147.9409, 143.0491
148.4230, 141.4679
148.9051, 140.2803
149.3872, 139.6263
149.8693, 139.3752
150.3514, 138.7060
150.8336, 137.3117
151.3157, 135.6766
151.7978, 134.1909
152.2799, 132.8589
152.7620, 131.6455
153.2441, 130.6347
153.7263, 129.7209
154.2084, 128.6988
154.6905, 127.3625
155.1726, 125.9003
155.6547, 124.8000
156.1368, 124.3730
156.6190, 123.7380
157.1011, 122.1193
157.5832, 119.9712
158.0653, 118.1796
158.5474, 117.5445
159.0295, 117.9432
159.5117, 117.7337
159.9938, 116.4447
160.4759, 114.9362
160.9580, 113.2895
161.4401, 111.6501
161.9222, 110.3044
162.4044, 109.6028
162.8865, 109.7146
163.3686, 109.4441
163.8507, 108.4405
164.3328, 107.3841
164.8149, 106.5813
165.2971, 106.0341
165.7792, 105.5652
166.2613, 104.9521
166.7434, 104.1006
167.2255, 103.3931
167.7076, 102.8917
168.1898, 102.4660
168.6719, 102.0987
169.1540, 101.7628
169.6361, 101.3271
170.1182, 100.5725
170.6003, 99.28960
171.0825, 98.22141
171.5646, 97.60976
172.0467, 97.15107
172.5288, 96.44131
173.0109, 95.33556
173.4930, 94.14622
173.9752, 93.41151
174.4573, 93.13184
174.9394, 92.97945
175.4215, 93.02225
175.9036, 93.12151
176.3857, 92.96938
176.8679, 92.46392
177.3500, 91.67014
177.8321, 90.62785
178.3142, 89.29966
178.7963, 88.08090
179.2784, 87.25732
179.7606, 86.78126
180.2427, 86.30880
180.7248, 85.63241
181.2069, 85.04852
181.6890, 84.89768
182.1711, 85.22141
182.6533, 85.55392
183.1354, 85.43119
183.6175, 84.80508
184.0996, 84.10680
184.5817, 83.36330
185.0638, 82.61459
185.5460, 81.90567
186.0281, 81.24303
186.5102, 80.56434
186.9923, 79.69904
187.4744, 78.40650
187.9565, 77.60061
188.4387, 77.73705
188.9208, 78.12045
189.4029, 78.29445
189.8850, 78.11245
190.3671, 77.69029
190.8492, 77.21191
191.3314, 76.49229
191.8135, 76.05186
192.2956, 76.35997
192.7777, 76.71397
193.2598, 76.36952
193.7419, 75.05440
194.2241, 73.22697
194.7062, 71.99278
195.1883, 71.77917
195.6704, 71.74505
196.1525, 72.19437
196.6346, 72.71177
197.1168, 72.74340
197.5989, 72.03254
198.0810, 70.87153
198.5631, 70.11189
199.0452, 70.16908
199.5273, 70.05017
200.0095, 69.44077
200.4916, 68.57644
200.9737, 67.81814
201.4558, 67.31049
201.9379, 67.03336
202.4200, 66.95919
202.9022, 67.24233
203.3843, 67.42262
203.8664, 67.26948
204.3485, 66.87860
204.8306, 66.53095
205.3127, 66.38894
205.7949, 66.30922
206.2770, 65.97221
206.7591, 65.26588
207.2412, 64.56675
207.7233, 64.07826
208.2054, 63.78138
208.6876, 63.58306
209.1697, 63.50289
209.6518, 63.46338
210.1339, 63.31055
210.6160, 62.96559
211.0981, 62.72071
211.5803, 62.90658
212.0624, 63.52418
212.5445, 64.05206
213.0266, 64.39040
213.5087, 64.47740
213.9908, 64.21786
214.4730, 63.56792
214.9551, 62.73532
215.4372, 61.84259
215.9193, 60.82292
216.4014, 60.14103
216.8836, 60.19732
217.3657, 60.50287
217.8478, 60.80549
218.3299, 61.04674
218.8120, 61.19085
219.2941, 61.15080
219.7763, 60.85093
220.2584, 60.61618
220.7405, 60.60956
221.2226, 60.61881
221.7047, 60.54601
222.1868, 60.35569
222.6690, 59.98315
223.1511, 59.18960
223.6332, 57.43908
224.1153, 56.53736
224.5974, 57.30269
225.0795, 58.42444
225.5617, 58.95477
226.0438, 58.63241
226.5259, 57.86098
227.0080, 57.29948
227.4901, 56.89219
227.9722, 56.85975
228.4544, 57.56664
228.9365, 58.37579
229.4186, 58.75582
229.9007, 58.57230
230.3828, 58.10535
230.8649, 57.85231
231.3471, 58.11087
231.8292, 58.09362
232.3113, 57.50879
232.7934, 56.84196
233.2755, 56.55398
233.7576, 56.75293
234.2398, 57.12040
234.7219, 57.11128
235.2040, 56.27905
235.6861, 55.87952
236.1682, 56.13532
236.6503, 56.68945
237.1325, 57.33742
237.6146, 58.00158
238.0967, 58.50662
238.5788, 58.53955
239.0609, 57.73492
239.5430, 57.31178
240.0252, 57.66683
240.5073, 58.24631
240.9894, 58.54312
241.4715, 58.43667
241.9536, 58.01140
242.4357, 57.24697
242.9179, 55.95144
243.4000, 55.23463
243.8821, 55.56760
244.3642, 56.36446
244.8463, 57.11928
245.3284, 57.75126
245.8106, 58.07183
246.2927, 57.65552
246.7748, 56.45692
247.2569, 55.69584
247.7390, 55.78841
248.2211, 56.30763
248.7033, 56.77891
249.1854, 57.13512
249.6675, 57.43175
250.1496, 57.73785
250.6317, 58.04553
251.1138, 58.25346
251.5960, 58.28515
252.0781, 58.22966
252.5602, 58.17930
253.0423, 58.13288
253.5244, 58.14538
254.0065, 58.31488
254.4887, 58.58958
254.9708, 58.83180
255.4529, 58.96464
255.9350, 59.06292
256.4171, 59.24640
256.8992, 59.53963
257.3813, 59.82078
257.8635, 59.92629
258.3456, 59.96489
258.8277, 60.13694
259.3098, 60.57598
259.7919, 61.13116
260.2740, 61.56390
260.7562, 61.83424
261.2383, 62.15238
261.7204, 62.70626
262.2025, 63.36506
262.6846, 63.97641
263.1667, 64.47444
263.6489, 64.93317
264.1310, 65.50240
264.6131, 66.23666
265.0952, 66.84312
265.5773, 67.04594
266.0594, 67.10791
266.5416, 67.24953
267.0237, 67.51347
267.5058, 67.92010
267.9879, 68.59002
268.4700, 69.62186
268.9521, 70.45293
269.4343, 70.67684
269.9164, 70.73180
270.3985, 70.93530
270.8806, 71.36826
271.3627, 71.90508
271.8448, 72.37864
272.3270, 72.76293
272.8091, 73.22978
273.2912, 73.89281
273.7733, 74.60829
274.2554, 75.29408
274.7375, 75.93967
275.2197, 76.57802
275.7018, 77.33192
276.1839, 78.26643
276.6660, 78.87134
277.1481, 78.75594
277.6302, 78.50381
278.1124, 78.33430
278.5945, 78.28830
279.0766, 78.36016
279.5587, 78.64005
280.0408, 79.18591
280.5229, 79.42475
281.0051, 79.00380
281.4872, 78.53513
281.9693, 78.29016
282.4514, 78.23530
282.9335, 78.17394
283.4156, 77.89612
283.8978, 77.39300
284.3799, 77.09949
284.8620, 77.40098
285.3441, 77.52161
285.8262, 77.10947
286.3083, 76.30618
286.7905, 75.43147
287.2726, 74.68809
287.7547, 74.07339
288.2368, 73.59326
288.7189, 73.43985
289.2010, 73.19151
289.6832, 72.64402
290.1653, 71.95122
290.6474, 71.34992
291.1295, 70.98909
291.6116, 70.80538
292.0938, 70.55088
292.5759, 70.24018
293.0580, 69.82355
293.5401, 69.10677
294.0222, 68.35918
294.5043, 67.92598
294.9865, 67.96954
295.4686, 68.28297
295.9507, 68.34182
296.4328, 67.89253
296.9149, 67.64501
297.3970, 67.92892
297.8792, 68.28633
298.3613, 68.25359
298.8434, 67.70930
299.3255, 66.98515
299.8076, 66.67256
300.2897, 67.06934
300.7719, 67.20016
301.2540, 66.92285
301.7361, 66.48157
302.2182, 65.93804
302.7003, 65.34962
303.1824, 64.84592
303.6646, 64.57333
304.1467, 64.54307
304.6288, 64.72426
305.1109, 65.49999
305.5930, 66.14388
306.0751, 66.19734
306.5573, 65.75768
307.0394, 65.29008
307.5215, 65.26382
308.0036, 65.73371
308.4857, 65.82547
308.9678, 65.09684
309.4500, 64.40881
309.9321, 63.91258
310.4142, 63.64839
310.8963, 63.69767
311.3784, 64.18724
311.8605, 65.00150
312.3427, 65.21075
312.8248, 64.03318
313.3069, 63.13831
313.7890, 62.99701
314.2711, 63.25861
314.7532, 63.47798
315.2354, 63.43888
315.7175, 63.19297
316.1996, 62.88382
316.6817, 62.48895
317.1638, 62.05614
317.6459, 61.42357
318.1281, 60.84753
318.6102, 60.61348
319.0923, 60.79535
319.5744, 61.16454
320.0565, 61.37996
320.5386, 61.51050
321.0208, 61.29677
321.5029, 60.32443
321.9850, 59.36259
322.4671, 58.98783
322.9492, 59.20228
323.4313, 59.50985
323.9135, 59.31960
324.3956, 58.48120
324.8777, 57.90941
325.3598, 57.91712
325.8419, 57.90013
326.3240, 57.56844
326.8062, 57.00079
327.2883, 56.45034
327.7704, 56.09105
328.2525, 55.92382
328.7346, 55.95597
329.2167, 56.57289
329.6989, 56.94771
330.1810, 56.78468
330.6631, 56.27996
331.1452, 55.70242
331.6273, 55.18108
332.1094, 54.73186
332.5916, 54.39968
333.0737, 54.16661
333.5558, 54.10382
334.0379, 54.29815
334.5200, 54.59924
335.0021, 54.92542
335.4843, 55.24262
335.9664, 55.43817
336.4485, 55.28025
336.9306, 54.61127
337.4127, 54.05633
337.8948, 53.66058
338.3770, 53.39864
338.8591, 53.35364
339.3412, 53.48113
339.8233, 53.55770
340.3055, 53.25499
340.7876, 52.49937
341.2697, 52.12415
341.7518, 52.42642
342.2339, 52.85161
342.7160, 53.32415
343.1982, 53.75385
343.6803, 53.97174
344.1624, 53.81134
344.6445, 53.35594
345.1266, 53.03831
345.6087, 52.99782
346.0909, 52.86548
346.5730, 52.33997
347.0551, 51.72637
347.5372, 51.44552
348.0193, 51.70573
348.5014, 52.23280
348.9836, 52.53035
349.4657, 52.53732
349.9478, 52.51421
350.4299, 52.50603
350.9120, 52.50714
351.3941, 52.56483
351.8763, 52.68144
352.3584, 52.69054
352.8405, 52.24530
353.3226, 51.31746
353.8047, 50.92982
354.2868, 51.58817
354.7690, 52.46031
355.2511, 53.15000
355.7332, 53.62154
356.2153, 53.81233
356.6974, 53.45510
357.1795, 52.74730
357.6617, 52.52590
358.1438, 53.03835
358.6259, 53.54404
359.1080, 53.51379
359.5901, 53.21988
360.0722, 53.11048
360.5544, 53.43616
361.0365, 53.90866
361.5186, 54.05940
362.0007, 53.82764
362.4828, 53.76131
362.9649, 54.31443
363.4471, 55.01628
363.9292, 55.28783
364.4113, 54.98932
364.8934, 54.62907
365.3755, 54.62373
365.8576, 54.91021
366.3398, 55.13047
366.8219, 55.16159
367.3040, 55.16698
367.7861, 55.34552
368.2682, 55.67843
368.7503, 55.97210
369.2325, 56.10327
369.7146, 56.16123
370.1967, 56.34143
370.6788, 56.69365
371.1609, 56.95568
371.6430, 56.76481
372.1252, 56.30906
372.6073, 56.22364
373.0894, 57.01476
373.5715, 57.86619
374.0536, 58.05194
374.5357, 57.67210
375.0179, 57.34038
375.5000, 57.39754
375.9821, 57.64430
376.4642, 57.57846
376.9463, 57.03495
377.4284, 56.60280
377.9106, 56.56133
378.3927, 56.76020
378.8748, 56.97143
379.3569, 57.14377
379.8390, 57.24325
380.3211, 57.17210
380.8033, 56.86348
381.2854, 56.81100
381.7675, 57.33158
382.2496, 57.91890
382.7317, 58.20626
383.2138, 58.16679
383.6960, 57.88427
384.1781, 57.33924
384.6602, 56.58139
385.1423, 56.31643
385.6244, 56.91294
386.1065, 57.48920
386.5887, 57.82191
387.0708, 57.92725
387.5529, 57.79620
388.0350, 57.41197
388.5171, 56.92696
388.9992, 56.67608
389.4814, 56.83706
389.9635, 56.98098
390.4456, 57.15056
390.9277, 57.27610
391.4098, 57.32312
391.8919, 57.27531
392.3741, 57.09180
392.8562, 56.69115
393.3383, 56.00523
393.8204, 55.62542
394.3025, 55.62333
394.7846, 55.82703
395.2668, 56.34609
395.7489, 57.01279
396.2310, 57.55291
396.7131, 57.80634
397.1952, 57.82327
397.6773, 57.77237
398.1595, 57.60633
398.6416, 57.44697
399.1237, 57.23603
399.6058, 57.08050
400.0879, 57.06799
400.5700, 57.21930
401.0522, 57.49779
401.5343, 57.91152
402.0164, 58.50428
402.4985, 58.95595
402.9806, 59.10534
403.4627, 59.24826
403.9449, 59.51231
404.4270, 59.87357
404.9091, 60.24583
405.3912, 60.55489
405.8733, 60.84732
406.3554, 61.30029
406.8376, 62.02303
407.3197, 62.63966
407.8018, 62.80231
408.2839, 62.87480
408.7660, 63.29688
409.2481, 64.24004
409.7303, 65.18893
410.2124, 65.52084
410.6945, 65.28541
411.1766, 65.29282
411.6587, 65.85222
412.1408, 66.53138
412.6230, 66.84694
413.1051, 66.86112
413.5872, 67.04921
414.0693, 67.82988
414.5514, 68.82646
415.0335, 69.36897
415.5157, 69.38089
415.9978, 69.37292
416.4799, 69.62602
416.9620, 70.12821
417.4441, 70.78208
417.9262, 71.66798
418.4084, 72.59525
418.8905, 73.56248
419.3726, 74.49001
419.8547, 75.08899
420.3368, 75.19023
420.8189, 75.16529
421.3011, 75.64832
421.7832, 76.76846
422.2653, 77.81048
422.7474, 78.69446
423.2295, 79.47340
423.7116, 80.22606
424.1938, 80.94053
424.6759, 81.49112
425.1580, 81.73830
425.6401, 81.71152
426.1222, 81.97692
426.6043, 82.87874
427.0865, 83.62469
427.5686, 83.92307
428.0507, 83.97863
428.5328, 84.09074
429.0149, 84.37317
429.4970, 84.71501
429.9792, 84.90685
430.4613, 84.79446
430.9434, 84.87666
431.4255, 85.40412
431.9076, 85.87379
432.3897, 85.91955
432.8719, 85.62851
433.3540, 85.36845
433.8361, 85.44004
434.3182, 85.79160
434.8003, 86.05030
435.2824, 86.18192
435.7646, 86.26469
436.2467, 86.28560
436.7288, 86.29008
437.2109, 86.39578
437.6930, 86.64370
438.1751, 86.75967
438.6573, 86.24670
439.1394, 85.03360
439.6215, 84.23064
440.1036, 84.40258
440.5857, 84.55096
441.0678, 83.94711
441.5500, 82.74758
442.0321, 81.58252
442.5142, 80.71574
442.9963, 80.10178
443.4784, 79.71354
443.9605, 79.58393
444.4427, 79.42824
444.9248, 79.14046
445.4069, 78.71449
445.8890, 78.15546
446.3711, 77.43427
446.8532, 76.65746
447.3354, 75.91263
447.8175, 75.15337
448.2996, 74.19959
448.7817, 72.96834
449.2638, 71.83069
449.7459, 71.26454
450.2281, 71.31387
450.7102, 71.16003
451.1923, 70.59232
451.6744, 69.97424
452.1565, 69.54229
452.6386, 69.25488
453.1208, 68.97795
453.6029, 68.65293
454.0850, 68.25076
454.5671, 67.68617
455.0492, 66.50172
455.5313, 65.79741
456.0135, 66.06312
456.4956, 66.49194
456.9777, 66.36583
457.4598, 65.64700
457.9419, 64.83286
458.4240, 64.39280
458.9062, 64.33342
459.3883, 64.27881
459.8704, 64.45491
460.3525, 64.36269
460.8346, 63.71052
461.3167, 62.79785
461.7989, 61.96576
462.2810, 61.33864
462.7631, 60.90765
463.2452, 60.72463
463.7273, 60.85614
464.2094, 60.84130
464.6916, 60.63683
465.1737, 60.23978
465.6558, 59.45567
466.1379, 58.43986
466.6200, 57.71373
467.1021, 57.71701
467.5843, 58.12490
468.0664, 58.33177
468.5485, 58.33689
469.0306, 58.13111
469.5127, 57.52635
469.9948, 56.81454
470.4770, 56.43250
470.9591, 56.41732
471.4412, 56.64920
471.9233, 57.26541
472.4054, 58.04154
472.8875, 58.55405
473.3697, 58.72272
473.8518, 58.71567
474.3339, 58.64047
474.8160, 58.50187
475.2981, 58.46286
475.7802, 58.61721
476.2624, 58.76925
476.7445, 58.78598
477.2266, 58.74503
477.7087, 58.81060
478.1908, 59.04961
478.6729, 59.36311
479.1551, 59.53972
479.6372, 59.30714
480.1193, 59.61422
480.6014, 60.98535
481.0835, 62.35268
481.5656, 63.10513
482.0478, 63.32967
482.5299, 63.39215
483.0120, 63.49903
483.4941, 63.69100
483.9762, 64.15795
484.4583, 65.11880
484.9405, 65.90523
485.4226, 66.26591
485.9047, 66.50246
486.3868, 66.80156
486.8689, 67.20295
487.3510, 67.70672
487.8332, 68.38644
488.3153, 69.18546
488.7974, 69.79147
489.2795, 70.05710
489.7616, 70.46484
490.2437, 71.43439
490.7259, 72.71118
491.2080, 73.95410
491.6901, 75.11127
492.1722, 76.19225
492.6543, 77.14366
493.1364, 78.01640
493.6186, 78.95069
494.1007, 79.98943
494.5828, 81.10313
495.0649, 82.24708
495.5470, 83.41886
496.0291, 84.75040
496.5113, 86.47382
496.9934, 88.15369
497.4755, 89.33031
497.9576, 90.26216
498.4397, 91.66991
498.9218, 93.91534
499.4040, 96.56961
499.8861, 98.61179
500.3682, 99.34946
500.8503, 100.7390
501.3324, 103.0284
501.8145, 105.6802
502.2967, 108.4368
502.7788, 111.2690
503.2609, 114.2790
503.7430, 117.6097
504.2251, 121.1130
504.7072, 124.0849
505.1894, 126.1237
505.6715, 128.5885
506.1536, 132.1699
506.6357, 136.0820
507.1178, 139.6218
507.5999, 142.7312
508.0821, 146.0537
508.5642, 150.3429
509.0463, 155.1990
509.5284, 159.3783
510.0105, 162.6521
510.4926, 165.9451
510.9748, 170.1336
511.4569, 174.6273
511.9390, 177.9522
512.4211, 179.0671
512.9032, 180.7414
513.3853, 184.9170
513.8674, 190.3929
514.3495, 195.1280
514.8317, 198.7032
515.3138, 201.5633
515.7959, 204.0665
516.2780, 206.1780
516.7601, 208.6058
517.2422, 211.6518
517.7244, 214.6335
518.2065, 217.5308
518.6886, 220.1532
519.1707, 222.2091
519.6528, 223.6057
520.1349, 224.5855
520.6171, 225.5094
521.0992, 226.4362
521.5813, 227.0727
522.0634, 227.2964
522.5455, 227.3305
523.0276, 227.3676
523.5098, 227.2528
523.9919, 226.7323
524.4740, 225.7268
524.9561, 224.1744
525.4382, 221.8392
525.9203, 218.7217
526.4025, 215.4527
526.8846, 212.1472
527.3667, 208.7949
527.8488, 205.5190
528.3309, 202.2576
528.8130, 198.4150
529.2952, 193.6302
529.7773, 188.3425
530.2594, 182.8182
530.7415, 177.1058
531.2236, 171.2839
531.7057, 165.3517
532.1879, 159.4250
532.6700, 153.6883
533.1521, 147.8511
533.6342, 142.8986
534.1163, 139.8377
534.5984, 136.8500
535.0806, 132.6003
535.5627, 127.3645
536.0448, 122.1733
536.5269, 117.6739
537.0090, 113.7087
537.4911, 109.8630
537.9733, 105.9894
538.4554, 102.5005
538.9375, 99.67732
539.4196, 97.04075
539.9017, 94.28188
540.3839, 91.41458
540.8660, 88.65689
541.3481, 86.18697
541.8302, 83.89576
542.3123, 81.52500
542.7944, 79.06158
543.2766, 76.67124
543.7587, 74.43712
544.2408, 72.30965
544.7229, 70.16917
545.2050, 67.98335
545.6871, 66.04440
546.1693, 64.52646
546.6514, 63.26978
547.1335, 62.13348
547.6156, 61.09547
548.0977, 60.13019
548.5798, 59.25501
549.0620, 58.38873
549.5441, 57.26634
550.0262, 55.29563
550.5083, 53.87408
550.9904, 53.47440
551.4725, 53.27033
551.9547, 52.53803
552.4368, 51.36583
552.9189, 50.39794
553.4010, 50.18206
553.8831, 50.47173
554.3652, 50.22388
554.8474, 49.15950
555.3295, 48.26674
555.8116, 48.18102
556.2937, 48.08891
556.7758, 47.19395
557.2579, 45.54208
557.7401, 44.19273
558.2222, 44.05700
558.7043, 44.51002
559.1864, 44.42006
559.6685, 43.75566
560.1506, 43.10627
560.6328, 42.73461
561.1149, 42.57728
561.5970, 42.54351
562.0791, 42.71958
562.5612, 42.72663
563.0433, 42.28988
563.5255, 41.81048
564.0076, 41.79660
564.4897, 42.10622
564.9718, 42.01881
565.4539, 41.01716
565.9360, 39.46875
566.4182, 38.65126
566.9003, 39.04020
567.3824, 39.26707
567.8645, 39.16909
568.3466, 38.95855
568.8287, 38.77997
569.3109, 38.61410
569.7930, 38.34064
570.2751, 37.83525
570.7572, 37.22464
571.2393, 36.77004
571.7214, 36.47765
572.2036, 36.28202
572.6857, 36.20010
573.1678, 36.17199
573.6499, 36.09329
574.1320, 35.96539
574.6141, 35.96894
575.0963, 36.30015
575.5784, 36.66576
576.0605, 36.85168
576.5426, 36.85470
577.0247, 36.69701
577.5068, 36.38300
577.9890, 35.94337
578.4711, 35.39951
578.9532, 34.53263
579.4353, 34.14555
579.9174, 34.69697
580.3995, 35.20784
580.8817, 35.14090
581.3638, 34.69371
581.8459, 34.29106
582.3280, 34.13073
582.8101, 34.11503
583.2922, 34.08949
583.7744, 34.05038
584.2565, 34.07966
584.7386, 34.32270
585.2207, 34.44014
585.7029, 34.08852
586.1850, 33.43443
586.6671, 32.89124
587.1492, 32.50396
587.6313, 32.32423
588.1135, 32.48086
588.5956, 32.86398
589.0777, 33.25352
589.5598, 33.59705
590.0419, 33.82837
590.5240, 33.85218
591.0062, 33.65602
591.4883, 33.54215
591.9704, 33.65866
592.4525, 33.66880
592.9346, 33.34432
593.4167, 32.94410
593.8989, 32.81122
594.3810, 32.99536
594.8631, 33.20303
595.3452, 33.10642
595.8273, 32.73702
596.3094, 32.45556
596.7916, 32.27443
597.2737, 32.15060
597.7558, 32.03777
598.2379, 31.98954
598.7200, 32.11196
599.2021, 32.44007
599.6843, 32.70387
600.1664, 32.77337
600.6485, 32.69333
601.1306, 32.44890
601.6127, 32.07241
602.0948, 31.81222
602.5770, 31.82107
603.0591, 32.02680
603.5412, 32.23501
604.0233, 32.49171
604.5054, 32.66954
604.9875, 32.86820
605.4697, 32.90289
605.9518, 32.47369
606.4339, 31.78215
606.9160, 31.34979
607.3981, 31.49077
607.8802, 31.93501
608.3624, 32.16904
608.8445, 32.17502
609.3266, 32.09438
609.8087, 31.86616
610.2908, 31.66403
610.7729, 31.67285
611.2551, 31.81262
611.7372, 31.83945
612.2193, 31.62878
612.7014, 31.36593
613.1835, 31.14579
613.6656, 30.97676
614.1478, 30.90784
614.6299, 30.94995
615.1120, 30.96639
615.5941, 30.77978
616.0762, 30.38781
616.5583, 30.32503
617.0405, 30.90327
617.5226, 31.41981
618.0047, 31.84670
618.4868, 32.10943
618.9689, 32.06342
619.4510, 31.73648
619.9332, 31.39344
620.4153, 31.24368
620.8974, 31.25809
621.3795, 31.36727
621.8616, 31.60147
622.3438, 31.77182
622.8259, 31.80960
623.3080, 31.74553
623.7901, 31.58113
624.2722, 31.30384
624.7543, 31.15672
625.2365, 31.41063
625.7186, 31.64663
626.2007, 31.40270
626.6828, 30.84675
627.1649, 30.49029
627.6470, 30.54926
628.1292, 30.82074
628.6113, 30.97745
629.0934, 30.97728
629.5755, 31.03819
630.0576, 31.24177
630.5397, 31.41982
631.0219, 31.57721
631.5040, 31.65797
631.9861, 31.57433
632.4682, 31.29793
632.9503, 30.94259
633.4324, 30.50158
633.9146, 30.06485
634.3967, 29.94597
634.8788, 30.18554
635.3609, 30.62894
635.8430, 31.33814
636.3251, 32.10422
636.8073, 32.24084
637.2894, 31.39945
637.7715, 30.86338
638.2536, 31.13566
638.7357, 31.52749
639.2178, 31.45063
639.7000, 31.01672
640.1821, 30.69902
640.6642, 30.76158
641.1463, 31.01508
641.6284, 31.04962
642.1105, 30.79806
642.5927, 30.69154
643.0748, 30.86138
643.5569, 31.06287
644.0390, 31.26516
644.5211, 31.38282
645.0032, 31.16962
645.4854, 30.33729
645.9675, 29.72863
646.4496, 30.18242
646.9317, 31.16552
647.4138, 31.68910
647.8959, 31.61928
648.3781, 31.31419
648.8602, 30.99399
649.3423, 30.69910
649.8244, 30.64171
650.3065, 31.22391
650.7886, 31.43283
651.2708, 30.79175
651.7529, 30.16499
652.2350, 30.20868
652.7171, 30.77482
653.1992, 31.31302
653.6813, 31.55278
654.1635, 31.57817
654.6456, 31.43463
655.1277, 31.14569
655.6098, 31.03214
656.0919, 31.20028
656.5740, 31.42509
657.0562, 31.54113
657.5383, 31.54560
658.0204, 31.47672
658.5025, 31.03742
658.9846, 30.89721
659.4667, 31.61212
659.9489, 32.50074
660.4310, 32.78139
660.9131, 32.43742
661.3952, 31.99058
661.8773, 31.80189
662.3594, 31.84174
662.8416, 32.06853
663.3237, 32.60149
663.8058, 32.88251
664.2879, 32.71861
664.7700, 32.36216
665.2521, 31.82741
665.7343, 31.23917
666.2164, 31.03084
666.6985, 31.60292
667.1806, 32.21571
667.6627, 32.31215
668.1448, 32.08819
668.6270, 31.89023
669.1091, 31.79466
669.5912, 31.75317
670.0733, 31.72136
670.5554, 31.70849
671.0375, 31.79265
671.5197, 32.13507
672.0018, 32.30374
672.4839, 31.95583
672.9660, 31.68537
673.4481, 32.02549
673.9302, 32.82480
674.4124, 33.51045
674.8945, 33.83570
675.3766, 33.84053
675.8587, 33.40426
676.3408, 32.64918
676.8229, 32.14503
677.3051, 32.02288
677.7872, 32.10332
678.2693, 32.23384
678.7514, 32.42183
679.2335, 32.75848
679.7156, 33.74630
680.1978, 34.19684
680.6799, 33.37378
681.1620, 32.37617
681.6441, 32.26734
682.1262, 32.90905
682.6083, 33.37837
683.0905, 33.05423
683.5726, 32.33588
684.0547, 31.98661
684.5368, 32.00674
685.0189, 31.95131
685.5010, 31.65334
685.9832, 31.46313
686.4653, 31.83052
686.9474, 32.59005
687.4295, 32.88323
687.9116, 32.12340
688.3937, 31.67299
688.8759, 32.32524
689.3580, 33.20988
689.8401, 33.29357
690.3222, 32.67176
690.8043, 32.29004
691.2864, 32.81765
691.7686, 33.78262
692.2507, 33.92704
692.7328, 33.05277
693.2149, 32.67410
693.6970, 33.39176
694.1791, 34.06258
694.6613, 33.64874
695.1434, 32.63108
695.6255, 32.08650
696.1076, 32.31661
696.5897, 32.74529
697.0718, 33.29833
697.5540, 33.79707
698.0361, 34.02818
698.5182, 33.98185
699.0003, 33.71101
699.4824, 33.22680
699.9645, 32.66064
700.4467, 32.35239
700.9288, 32.37481
701.4109, 32.39591
701.8930, 32.48354
702.3751, 32.45715
702.8572, 32.05951
703.3394, 31.54830
703.8215, 31.38270
704.3036, 31.71314
704.7857, 32.15631
705.2678, 32.52121
705.7499, 32.85056
706.2321, 33.34118
706.7142, 33.90129
707.1963, 33.95253
707.6784, 33.13710
708.1605, 32.00013
708.6426, 31.67612
709.1248, 32.47669
709.6069, 32.97470
710.0890, 32.92558
710.5711, 32.85561
711.0532, 32.98439
711.5353, 33.17839
712.0175, 33.23083
712.4996, 33.09423
712.9817, 33.00413
713.4638, 33.10997
713.9459, 33.34613
714.4280, 33.79951
714.9102, 34.35075
715.3923, 34.36551
715.8744, 33.53380
716.3565, 32.40144
716.8386, 31.74451
717.3207, 31.59685
717.8029, 31.70074
718.2850, 32.43411
718.7671, 32.94667
719.2492, 32.89575
719.7313, 32.63420
720.2134, 32.47903
720.6956, 32.47904
721.1777, 32.56576
721.6598, 32.87674
722.1419, 33.13155
722.6240, 32.90999
723.1061, 32.30155
723.5883, 31.52602
724.0704, 30.61378
724.5525, 30.10966
725.0346, 30.71096
725.5167, 32.37216
725.9988, 33.37366
726.4810, 33.25182
726.9631, 33.12086
727.4452, 33.17768
727.9273, 33.22555
728.4094, 32.99026
728.8915, 32.58733
729.3737, 32.50307
729.8558, 33.17110
730.3379, 33.88827
730.8200, 33.74899
731.3021, 33.07214
731.7842, 32.82606
732.2664, 33.17125
732.7485, 33.38873
733.2306, 32.83374
733.7127, 31.84261
734.1948, 31.80377
734.6769, 33.67605
735.1591, 34.74824
735.6412, 34.40643
736.1233, 33.85900
736.6054, 33.64462
737.0875, 33.68214
737.5696, 33.77859
738.0518, 33.89744
738.5339, 33.92482
739.0160, 33.67176
739.4981, 33.30344
739.9802, 33.14311
740.4623, 33.19243
740.9445, 33.26681
741.4266, 33.28419
741.9087, 33.22562
742.3908, 33.02221
742.8729, 32.56748
743.3550, 32.42941
743.8372, 32.97376
744.3193, 33.39982
744.8014, 33.34325
745.2835, 33.14827
745.7656, 33.18189
746.2477, 33.49593
746.7299, 33.93468
747.2120, 34.57802
747.6941, 35.18056
748.1762, 35.44065
748.6583, 35.41478
749.1404, 35.23381
749.6226, 34.94031
750.1047, 34.69342
750.5868, 34.69184
751.0689, 34.89099
751.5510, 34.77177
752.0331, 34.07590
752.5153, 33.56028
752.9974, 33.42292
753.4795, 33.43309
753.9616, 33.45861
754.4437, 33.51262
754.9258, 33.68291
755.4080, 34.11844
755.8901, 34.43823
756.3722, 34.10579
756.8543, 33.62592
757.3364, 34.00285
757.8185, 35.12950
758.3007, 35.83802
758.7828, 35.39513
759.2649, 34.26863
759.7470, 33.38137
760.2291, 32.67431
760.7112, 32.51213
761.1934, 33.29508
761.6755, 34.01336
762.1576, 34.02279
762.6397, 33.78069
763.1218, 33.96398
763.6039, 34.71544
764.0861, 35.06796
764.5682, 34.33582
765.0503, 33.40617
765.5324, 32.90456
766.0145, 32.74929
766.4966, 32.76915
766.9788, 32.88666
767.4609, 32.95839
767.9430, 32.80762
768.4251, 32.49922
768.9072, 32.34797
769.3893, 32.35204
769.8715, 32.54809
770.3536, 33.06763
770.8357, 33.61184
771.3178, 34.00086
771.7999, 34.19660
772.2820, 33.98174
772.7642, 32.71418
773.2463, 31.88692
773.7284, 32.31697
774.2105, 33.03329
774.6926, 33.12550
775.1747, 32.71141
775.6569, 32.39888
776.1390, 32.48942
776.6211, 32.81671
777.1032, 33.31897
777.5853, 33.90034
778.0674, 33.94103
778.5496, 33.34498
779.0317, 32.63497
779.5138, 31.98495
779.9959, 31.48525
780.4780, 31.32383
780.9601, 31.60348
781.4423, 31.81657
781.9244, 31.87391
782.4065, 31.97529
782.8886, 32.19045
783.3707, 32.47778
783.8528, 32.87147
784.3350, 33.32232
784.8171, 33.57612
785.2992, 33.34097
785.7813, 32.98430
786.2634, 32.98085
786.7455, 33.25954
787.2277, 33.69419
787.7098, 34.24829
788.1919, 34.50643
788.6740, 34.07075
789.1561, 33.19372
789.6382, 32.83044
790.1204, 33.24719
790.6025, 33.53759
791.0846, 33.61917
791.5667, 33.60720
792.0488, 33.43876
792.5309, 33.25347
793.0131, 33.27944
793.4952, 33.57433
793.9773, 33.93038
794.4594, 34.49309
794.9415, 34.87152
795.4236, 34.44254
795.9058, 33.56989
796.3879, 33.18024
796.8700, 33.52575
797.3521, 34.00360
797.8342, 33.97260
798.3163, 33.54305
798.7985, 33.29257
799.2806, 33.24598
799.7627, 33.23229
800.2448, 33.22169
800.7269, 33.21886
801.2090, 33.22554
801.6912, 33.24332
802.1733, 33.28315
802.6554, 33.47093
803.1375, 33.47966
803.6196, 32.88235
804.1017, 32.41633
804.5839, 32.77592
805.0660, 33.65921
805.5481, 34.41002
806.0302, 34.78927
806.5123, 34.89217
806.9944, 34.73079
807.4766, 34.39001
807.9587, 34.02035
808.4408, 33.64175
808.9229, 33.41347
809.4050, 33.40707
809.8871, 33.49026
810.3693, 33.49931
810.8514, 33.43622
811.3335, 33.48269
811.8156, 33.72078
812.2977, 33.93219
812.7798, 34.15264
813.2620, 34.27716
813.7441, 34.22729
814.2262, 34.02359
814.7083, 33.71719
815.1904, 33.27110
815.6725, 32.85011
816.1547, 32.44100
816.6368, 32.17556
817.1189, 32.23716
817.6010, 32.58237
818.0831, 33.10402
818.5652, 33.74858
819.0474, 34.32808
819.5295, 34.63118
820.0116, 34.65388
820.4937, 34.22701
820.9758, 33.20974
821.4579, 32.63088
821.9401, 32.98473
822.4222, 33.60165
822.9043, 33.78350
823.3864, 33.54454
823.8685, 33.36019
824.3506, 33.26702
824.8328, 33.17600
825.3149, 33.05521
825.7970, 32.94915
826.2791, 32.83741
826.7612, 32.77493
827.2433, 32.88523
827.7255, 33.22543
828.2076, 33.64912
828.6897, 34.23180
829.1718, 34.71673
829.6539, 34.55788
830.1360, 33.86350
830.6182, 33.15208
831.1003, 32.61859
831.5824, 32.38596
832.0645, 32.66597
832.5466, 33.40080
833.0287, 33.83177
833.5109, 33.83919
833.9930, 33.89956
834.4751, 34.15278
834.9572, 34.43403
835.4393, 34.62346
835.9214, 34.73314
836.4036, 34.79062
836.8857, 34.78152
837.3678, 34.75225
837.8499, 34.58845
838.3320, 34.52542
838.8141, 35.06657
839.2963, 35.73452
839.7784, 35.43909
840.2605, 33.91655
840.7426, 32.53451
841.2247, 32.78123
841.7068, 33.87780
842.1890, 34.30272
842.6711, 34.15750
843.1532, 33.98519
843.6353, 33.92485
844.1174, 33.94625
844.5995, 34.05143
845.0817, 34.18451
845.5638, 34.07121
846.0459, 33.60070
846.5280, 33.18573
847.0101, 32.77459
847.4922, 32.53219
847.9744, 32.74621
848.4565, 33.09394
848.9386, 32.98298
849.4207, 32.25903
849.9028, 31.88525
850.3849, 32.45017
850.8671, 33.08416
851.3492, 33.25677
851.8313, 33.19139
852.3134, 33.23497
852.7955, 33.42070
853.2776, 33.52293
853.7598, 33.36317
854.2419, 33.10064
854.7240, 32.96245
855.2061, 32.93009
855.6882, 32.93412
856.1703, 32.96544
856.6525, 33.03894
857.1346, 33.16202
857.6167, 33.33343
858.0988, 33.55406
858.5809, 33.83230
859.0630, 34.13511
859.5452, 34.72528
860.0273, 34.86578
860.5094, 33.77789
860.9915, 32.58754
861.4736, 32.42748
861.9557, 33.12828
862.4379, 33.57140
862.9200, 33.50812
863.4021, 33.23428
863.8842, 32.45430
864.3663, 31.83637
864.8484, 32.16436
865.3306, 33.12183
865.8127, 33.90287
866.2948, 34.19666
866.7769, 34.19616
867.2590, 34.05255
867.7411, 33.75954
868.2233, 33.17812
868.7054, 32.39638
869.1875, 31.88479
869.6696, 31.77685
870.1517, 31.99485
870.6339, 32.53236
871.1160, 33.25737
871.5981, 33.54992
872.0802, 33.30001
872.5623, 32.99714
873.0444, 32.57374
873.5266, 32.29363
874.0087, 32.35661
874.4908, 32.63842
874.9729, 32.98247
875.4550, 33.47056
875.9371, 33.54565
876.4193, 32.74672
876.9014, 31.98149
877.3835, 31.53874
877.8656, 31.38670
878.3477, 31.56321
878.8298, 31.99071
879.3120, 32.47475
879.7941, 33.05997
880.2762, 33.28878
880.7583, 32.28940
881.2404, 30.82053
881.7225, 30.29243
882.2047, 30.65856
882.6868, 31.12320
883.1689, 31.34117
883.6510, 31.43904
884.1331, 31.62531
884.6152, 31.84262
885.0974, 31.54668
885.5795, 30.63214
886.0616, 29.99728
886.5437, 29.91328
887.0258, 29.99807
887.5079, 29.92052
887.9901, 29.76621
888.4722, 29.88941
888.9543, 30.58503
889.4364, 30.99582
889.9185, 31.14634
890.4006, 30.99148
890.8828, 30.16436
891.3649, 29.22424
891.8470, 28.86826
892.3291, 29.15085
892.8112, 29.54942
893.2933, 30.00051
893.7755, 30.34025
894.2576, 30.55836
894.7397, 30.54899
895.2218, 29.93508
895.7039, 28.94646
896.1860, 28.42228
896.6682, 28.77596
897.1503, 29.40265
897.6324, 29.55830
898.1145, 29.39901
898.5966, 29.40890
899.0787, 29.57621
899.5609, 29.61893
900.0430, 29.43553
900.5251, 29.31593
901.0072, 29.58127
901.4893, 30.10691
901.9714, 30.26347
902.4536, 29.94436
902.9357, 29.63682
903.4178, 29.34794
903.8999, 29.13870
904.3820, 29.08993
904.8641, 29.11522
905.3463, 29.05036
905.8284, 28.87568
906.3105, 28.78075
906.7926, 28.80265
907.2747, 28.87649
907.7568, 29.21662
908.2390, 29.41256
908.7211, 28.83001
909.2032, 27.79371
909.6853, 27.37962
910.1674, 28.12370
910.6495, 28.90211
911.1317, 28.93917
911.6138, 28.64534
912.0959, 28.41049
912.5780, 28.24848
913.0601, 28.10217
913.5422, 27.95948
914.0244, 27.85648
914.5065, 27.79162
914.9886, 27.84174
915.4707, 28.34342
915.9528, 29.16712
916.4349, 29.41461
916.9171, 28.95722
917.3992, 28.41984
917.8813, 28.12281
918.3634, 28.00066
918.8455, 27.94714
919.3276, 27.96243
919.8098, 28.08327
920.2919, 28.46665
920.7740, 28.52842
921.2561, 27.85096
921.7382, 27.17213
922.2203, 27.19686
922.7025, 27.72503
923.1846, 27.95329
923.6667, 27.73545
924.1488, 27.54189
924.6309, 27.34155
925.1130, 27.25889
925.5952, 27.47997
926.0773, 27.77140
926.5594, 27.79633
927.0415, 27.56433
927.5236, 27.45871
928.0057, 27.72163
928.4879, 28.03518
928.9700, 28.28487
929.4521, 28.40646
929.9342, 28.21061
930.4163, 27.83053
930.8984, 27.67209
931.3806, 27.87465
931.8627, 28.05804
932.3448, 27.75799
932.8269, 27.22171
933.3090, 26.87679
933.7911, 26.74433
934.2733, 27.04874
934.7554, 27.79786
935.2375, 28.39697
935.7196, 28.44283
936.2017, 28.10569
936.6838, 27.63919
937.1660, 27.01505
937.6481, 26.86715
938.1302, 27.29906
938.6123, 27.79508
939.0944, 28.30401
939.5765, 28.55251
940.0587, 28.14464
940.5408, 27.21280
941.0229, 26.73989
941.5050, 26.90139
941.9871, 27.20026
942.4692, 27.95133
942.9514, 28.46128
943.4335, 28.25527
943.9156, 27.76472
944.3977, 27.52407
944.8798, 27.56435
945.3619, 27.64266
945.8441, 27.81944
946.3262, 27.88113
946.8083, 27.55908
947.2904, 27.25780
947.7725, 27.43944
948.2546, 27.89370
948.7368, 28.04108
949.2189, 27.69828
949.7010, 27.46643
950.1831, 27.92979
950.6652, 28.52054
951.1473, 28.72264
951.6295, 28.61085
952.1116, 28.21030
952.5937, 27.63134
953.0758, 27.26912
953.5579, 27.36868
954.0400, 27.59416
954.5222, 27.39034
955.0043, 26.96420
955.4864, 26.94423
955.9685, 27.31545
956.4506, 27.88435
956.9327, 28.59068
957.4149, 29.05271
957.8970, 28.89767
958.3791, 28.31734
958.8612, 27.89229
959.3433, 27.63692
959.8254, 27.28587
960.3076, 26.72098
960.7897, 26.57039
961.2718, 27.27434
961.7539, 28.14747
962.2360, 28.25450
962.7181, 27.64517
963.2003, 27.49235
963.6824, 28.14712
964.1645, 28.53504
964.6466, 28.44941
965.1287, 28.21273
965.6108, 28.00842
966.0930, 27.75159
966.5751, 27.22512
967.0572, 26.37148
967.5393, 25.86208
968.0214, 25.91647
968.5035, 26.12498
968.9857, 26.67299
969.4678, 27.06540
969.9499, 26.75914
970.4320, 26.04177
970.9141, 25.55921
971.3962, 25.46412
971.8784, 25.59842
972.3605, 26.27273
972.8426, 26.74203
973.3247, 26.23243
973.8068, 25.37650
974.2889, 24.92884
974.7711, 24.95696
975.2532, 25.27009
975.7353, 25.84902
976.2174, 26.20945
976.6995, 25.65756
977.1816, 24.79997
977.6638, 24.43475
978.1459, 24.49451
978.6280, 24.88796
979.1101, 25.47966
979.5922, 25.63819
980.0743, 24.82365
980.5565, 23.79025
981.0386, 23.89567
981.5207, 24.81244
982.0028, 25.42545
982.4849, 25.67807
982.9670, 25.70560
983.4492, 25.55168
983.9313, 25.28559
984.4134, 24.94135
984.8955, 24.59478
985.3776, 24.52592
985.8597, 24.74555
986.3419, 24.90676
986.8240, 24.99602
987.3061, 24.90569
987.7882, 24.52096
988.2703, 24.14606
988.7524, 24.18174
989.2346, 24.57593
989.7167, 24.78551
990.1988, 24.81303
990.6809, 24.62433
991.1630, 24.06024
991.6451, 23.57032
992.1273, 23.34434
992.6094, 23.35327
993.0915, 23.62061
993.5736, 24.17097
994.0557, 24.50414
994.5378, 24.42980
995.0200, 24.41416
995.5021, 24.55747
995.9842, 24.70946
996.4663, 24.75680
996.9484, 24.77412
997.4305, 24.96274
997.9127, 25.37391
998.3948, 25.43295
998.8769, 24.52540
999.3590, 23.94967
999.8411, 24.45883
1000.323, 25.12020
1000.805, 25.17174
1001.287, 24.82197
1001.770, 24.58293
1002.252, 24.56597
1002.734, 24.62292
1003.216, 24.84173
1003.698, 24.94244
1004.180, 24.61172
1004.662, 24.18747
1005.144, 24.03773
1005.627, 24.13084
1006.109, 24.29405
1006.591, 24.47489
1007.073, 24.55980
1007.555, 24.27882
1008.037, 24.04835
1008.519, 24.59903
1009.001, 25.30686
1009.483, 24.91389
1009.966, 23.63218
1010.448, 22.78885
1010.930, 23.01781
1011.412, 23.69898
1011.894, 24.51492
1012.376, 25.18220
1012.858, 25.02581
1013.340, 24.40795
1013.823, 24.35473
1014.305, 24.93214
1014.787, 25.38056
1015.269, 25.26007
1015.751, 24.88785
1016.233, 24.60408
1016.715, 24.43261
1017.197, 24.52975
1017.679, 24.81909
1018.162, 24.94000
1018.644, 24.81406
1019.126, 24.45746
1019.608, 23.83474
1020.090, 23.34663
1020.572, 23.97320
1021.054, 25.45665
1021.536, 25.82365
1022.018, 25.10350
1022.501, 24.56373
1022.983, 24.51127
1023.465, 24.68324
1023.947, 24.91504
1024.429, 25.14300
1024.911, 25.21805
1025.393, 25.13643
1025.875, 25.07850
1026.358, 25.04736
1026.840, 24.99134
1027.322, 24.86667
1027.804, 24.87972
1028.286, 25.25115
1028.768, 25.76337
1029.250, 25.81443
1029.732, 25.30266
1030.214, 25.15528
1030.697, 25.51626
1031.179, 25.74745
1031.661, 25.67691
1032.143, 25.43432
1032.625, 25.06131
1033.107, 24.64034
1033.589, 24.39569
1034.071, 24.31216
1034.553, 24.50102
1035.036, 25.16295
1035.518, 25.64776
1036.000, 25.62519
1036.482, 25.62765
1036.964, 26.17591
1037.446, 27.03237
1037.928, 27.47567
1038.410, 27.37947
1038.893, 27.30763
1039.375, 27.05087
1039.857, 27.15713
1040.339, 27.96219
1040.821, 28.96117
1041.303, 29.91159
1041.785, 30.74265
1042.267, 31.13801
1042.750, 30.76076
1043.232, 31.06791
1043.714, 33.02842
1044.196, 34.37895
1044.678, 33.88215
1045.160, 33.27560
1045.642, 34.01679
1046.124, 35.58241
1046.606, 36.63220
1047.089, 36.93219
1047.571, 37.37292
1048.053, 38.22663
1048.535, 38.98188
1049.017, 39.25270
1049.499, 39.60888
1049.981, 40.80319
1050.463, 42.32930
1050.945, 42.90673
1051.428, 42.17669
1051.910, 41.93660
1052.392, 43.21202
1052.874, 44.10121
1053.356, 43.54191
1053.838, 42.80185
1054.320, 42.97170
1054.802, 43.66988
1055.285, 44.05153
1055.767, 43.98401
1056.249, 43.67236
1056.731, 42.90899
1057.213, 42.25549
1057.695, 42.25854
1058.177, 42.12857
1058.659, 41.13562
1059.141, 39.60111
1059.624, 38.15236
1060.106, 36.90249
1060.588, 35.69223
1061.070, 34.40598
1061.552, 33.23631
1062.034, 32.43822
1062.516, 31.61890
1062.998, 30.32330
1063.480, 28.85853
1063.963, 27.75605
1064.445, 27.10400
1064.927, 26.66605
1065.409, 26.54881
1065.891, 26.36800
1066.373, 25.95281
1066.855, 25.43016
1067.337, 24.77256
1067.820, 24.13811
1068.302, 23.82653
1068.784, 23.82842
1069.266, 23.65830
1069.748, 22.84367
1070.230, 22.33456
1070.712, 23.00108
1071.194, 23.67114
1071.677, 23.20039
1072.159, 22.31144
1072.641, 22.19059
1073.123, 22.84877
1073.605, 23.32627
1074.087, 23.21755
1074.569, 23.01895
1075.051, 22.89758
1075.533, 22.83481
1076.016, 22.91597
1076.498, 22.98437
1076.980, 22.82817
1077.462, 22.45989
1077.944, 21.99839
1078.426, 21.36994
1078.908, 21.06210
1079.390, 21.64328
1079.873, 22.23527
1080.355, 22.13627
1080.837, 21.81237
1081.319, 21.87125
1081.801, 22.22947
1082.283, 22.35113
1082.765, 21.99291
1083.247, 21.97167
1083.729, 23.08408
1084.212, 24.12902
1084.694, 24.26329
1085.176, 24.09764
1085.658, 24.40940
1086.140, 24.93893
1086.622, 24.85301
1087.104, 23.92693
1087.586, 23.07030
1088.068, 22.80005
1088.551, 22.51954
1089.033, 21.82553
1089.515, 21.09080
1089.997, 20.63136
1090.479, 20.38593
1090.961, 20.21136
1091.443, 20.07582
1091.925, 19.95350
1092.408, 19.72113
1092.890, 19.65587
1093.372, 20.25313
1093.854, 20.66411
1094.336, 19.94058
1094.818, 18.81015
1095.300, 18.40251
1095.782, 18.78309
1096.265, 19.21373
1096.747, 19.57300
1097.229, 19.77771
1097.711, 19.65998
1098.193, 19.53875
1098.675, 19.54469
1099.157, 19.68982
1099.639, 20.06810
1100.121, 20.59661
1100.604, 20.97297
1101.086, 21.19321
1101.568, 21.07608
1102.050, 20.28067
1102.532, 19.50441
1103.014, 18.84046
1103.496, 18.50765
1103.978, 18.89003
1104.460, 19.71507
1104.943, 20.27082
1105.425, 20.41027
1105.907, 20.56923
1106.389, 20.96891
1106.871, 21.20277
1107.353, 21.21107
1107.835, 20.95671
1108.317, 20.06602
1108.800, 19.05051
1109.282, 18.92762
1109.764, 19.80964
1110.246, 20.25748
1110.728, 19.72890
1111.210, 19.37523
1111.692, 19.52051
1112.174, 19.67643
1112.656, 19.56647
1113.139, 19.36664
1113.621, 19.29047
1114.103, 19.33172
1114.585, 19.38527
1115.067, 19.34687
1115.549, 19.51355
1116.031, 20.28506
1116.513, 20.68024
1116.995, 20.04466
1117.478, 19.29098
1117.960, 19.34776
1118.442, 19.88505
1118.924, 19.76219
1119.406, 18.59533
1119.888, 18.34322
1120.370, 19.64736
1120.852, 20.50212
1121.335, 20.23413
1121.817, 19.88420
1122.299, 20.22956
1122.781, 20.79679
1123.263, 20.67346
1123.745, 19.84031
1124.227, 19.29736
1124.709, 19.06871
1125.192, 19.11685
1125.674, 19.64542
1126.156, 19.73073
1126.638, 18.71271
1127.120, 17.66624
1127.602, 17.95751
1128.084, 19.25815
1128.566, 19.95146
1129.048, 19.98062
1129.531, 19.88179
1130.013, 19.65786
1130.495, 19.46824
1130.977, 19.36451
1131.459, 19.29481
1131.941, 19.21136
1132.423, 19.15461
1132.905, 19.26644
1133.387, 19.52216
1133.870, 19.46050
1134.352, 19.09948
1134.834, 18.97528
1135.316, 19.18882
1135.798, 19.49592
1136.280, 19.77761
1136.762, 19.86138
1137.244, 19.40908
1137.727, 18.69447
1138.209, 18.65547
1138.691, 19.10025
1139.173, 19.13910
1139.655, 18.77257
1140.137, 18.56737
1140.619, 18.72699
1141.101, 19.21410
1141.583, 20.13058
1142.066, 20.91435
1142.548, 20.45912
1143.030, 19.36665
1143.512, 18.85054
1143.994, 18.77576
1144.476, 18.48890
1144.958, 17.98759
1145.440, 17.99712
1145.922, 18.91829
1146.405, 19.89518
1146.887, 20.15268
1147.369, 20.01859
1147.851, 19.68258
1148.333, 19.31823
1148.815, 19.17630
1149.297, 19.23111
1149.779, 19.34645
1150.262, 19.48283
1150.744, 19.69646
1151.226, 20.21507
1151.708, 20.49062
1152.190, 19.99514
1152.672, 19.28234
1153.154, 18.65241
1153.636, 18.21263
1154.119, 18.03817
1154.601, 18.14351
1155.083, 18.62524
1155.565, 19.77072
1156.047, 20.35897
1156.529, 19.42578
1157.011, 18.57825
1157.493, 18.65052
1157.975, 18.97775
1158.458, 19.00746
1158.940, 18.85350
1159.422, 18.79940
1159.904, 18.86737
1160.386, 19.05704
1160.868, 19.41939
1161.350, 19.82882
1161.832, 20.58160
1162.314, 20.97018
1162.797, 20.45391
1163.279, 19.67371
1163.761, 19.27385
1164.243, 19.20108
1164.725, 19.21561
1165.207, 19.32214
1165.689, 19.51830
1166.171, 19.87259
1166.654, 20.09162
1167.136, 20.04317
1167.618, 20.05004
1168.100, 20.36970
1168.582, 20.76129
1169.064, 20.80487
1169.546, 20.53637
1170.028, 20.30264
1170.510, 20.10838
1170.993, 19.59038
1171.475, 18.69790
1171.957, 18.31916
1172.439, 18.80210
1172.921, 19.37869
1173.403, 19.32511
1173.885, 19.02377
1174.367, 19.36270
1174.849, 20.06722
1175.332, 20.10866
1175.814, 19.64365
1176.296, 19.41479
1176.778, 19.51000
1177.260, 19.51560
1177.742, 19.23360
1178.224, 18.98412
1178.706, 19.12735
1179.189, 19.41201
1179.671, 19.51927
1180.153, 19.55259
1180.635, 19.70357
1181.117, 19.89680
1181.599, 19.92776
1182.081, 19.77148
1182.563, 19.54462
1183.046, 19.23791
1183.528, 19.08792
1184.010, 19.34906
1184.492, 19.68320
1184.974, 20.00311
1185.456, 20.15965
1185.938, 19.84891
1186.420, 19.30179
1186.902, 19.06246
1187.385, 19.22783
1187.867, 19.50217
1188.349, 20.09508
1188.831, 20.38977
1189.313, 20.05660
1189.795, 19.66057
1190.277, 19.29444
1190.759, 19.15126
1191.241, 19.64889
1191.724, 20.50865
1192.206, 20.56312
1192.688, 19.47075
1193.170, 19.07547
1193.652, 19.66436
1194.134, 20.07822
1194.616, 20.08975
1195.098, 19.86106
1195.581, 19.41519
1196.063, 19.00212
1196.545, 19.01795
1197.027, 19.30561
1197.509, 19.08253
1197.991, 18.40040
1198.473, 18.17159
1198.955, 18.41116
1199.438, 18.47635
1199.920, 18.21349
1200.402, 18.10695
1200.884, 18.48883
1201.366, 19.06854
1201.848, 19.57605
1202.330, 19.93877
1202.812, 19.99178
1203.294, 19.80384
1203.776, 19.41944
1204.259, 18.94409
1204.741, 18.56021
1205.223, 18.34567
1205.705, 18.41677
1206.187, 18.93865
1206.669, 19.50124
1207.151, 19.95534
1207.633, 20.19153
1208.116, 19.92906
1208.598, 19.55042
1209.080, 19.54830
1209.562, 19.80072
1210.044, 19.82869
1210.526, 19.51431
1211.008, 19.47024
1211.490, 20.10748
1211.973, 20.57913
1212.455, 20.84775
1212.937, 20.75888
1213.419, 19.91154
1213.901, 19.03817
1214.383, 18.95008
1214.865, 19.39623
1215.347, 19.51351
1215.829, 19.24238
1216.312, 19.03541
1216.794, 18.87957
1217.276, 18.93470
1217.758, 19.30892
1218.240, 19.26769
1218.722, 18.36513
1219.204, 17.54358
1219.686, 17.94331
1220.168, 19.00372
1220.651, 19.34292
1221.133, 19.08250
1221.615, 18.45218
1222.097, 17.68611
1222.579, 17.84428
1223.061, 18.89650
1223.543, 19.44184
1224.025, 18.82053
1224.508, 18.20591
1224.990, 18.88700
1225.472, 19.74331
1225.954, 19.53847
1226.436, 18.98468
1226.918, 18.81666
1227.400, 18.94352
1227.882, 19.20829
1228.365, 19.50410
1228.847, 19.51625
1229.329, 19.00200
1229.811, 18.86535
1230.293, 19.91904
1230.775, 20.60478
1231.257, 20.19636
1231.739, 19.50012
1232.221, 18.77587
1232.703, 18.24728
1233.186, 18.26187
1233.668, 18.74071
1234.150, 19.18582
1234.632, 19.65770
1235.114, 19.79209
1235.596, 19.46311
1236.078, 19.43557
1236.560, 19.94034
1237.043, 20.35439
1237.525, 20.29968
1238.007, 20.12083
1238.489, 20.30963
1238.971, 20.65153
1239.453, 20.46029
1239.935, 19.93914
1240.417, 19.87554
1240.900, 20.12648
1241.382, 19.93826
1241.864, 19.25987
1242.346, 18.70799
1242.828, 18.57647
1243.310, 18.74041
1243.792, 19.48652
1244.274, 20.02670
1244.756, 19.34374
1245.239, 18.52329
1245.721, 18.74069
1246.203, 19.46890
1246.685, 19.86103
1247.167, 19.85244
1247.649, 19.71727
1248.131, 19.46519
1248.613, 19.21171
1249.095, 18.78573
1249.578, 18.65460
1250.060, 19.04555
1250.542, 19.51465
1251.024, 19.87324
1251.506, 20.16344
1251.988, 20.48812
1252.470, 20.73810
1252.952, 20.37084
1253.435, 19.35834
1253.917, 18.88161
1254.399, 18.93918
1254.881, 19.01789
1255.363, 19.02414
1255.845, 19.08747
1256.327, 19.26794
1256.809, 19.52808
1257.292, 19.87478
1257.774, 20.17772
1258.256, 20.21152
1258.738, 20.12374
1259.220, 20.12452
1259.702, 20.16068
1260.184, 20.12343
1260.666, 20.01305
1261.148, 19.87066
1261.630, 19.70685
1262.113, 19.58716
1262.595, 19.58027
1263.077, 19.55269
1263.559, 19.34893
1264.041, 19.26114
1264.523, 19.54246
1265.005, 19.90335
1265.487, 20.18549
1265.970, 20.29919
1266.452, 19.97331
1266.934, 19.19535
1267.416, 18.78025
1267.898, 18.74782
1268.380, 18.96737
1268.862, 19.43909
1269.344, 19.99241
1269.827, 20.57844
1270.309, 20.82313
1270.791, 20.42455
1271.273, 19.83122
1271.755, 19.63794
1272.237, 19.71310
1272.719, 19.91907
1273.201, 20.15623
1273.683, 20.27052
1274.166, 20.25281
1274.648, 20.02985
1275.130, 19.67541
1275.612, 19.59897
1276.094, 20.04051
1276.576, 20.37992
1277.058, 20.18139
1277.540, 20.09735
1278.022, 20.70315
1278.505, 21.14745
1278.987, 20.56571
1279.469, 19.75444
1279.951, 19.65924
1280.433, 20.11462
1280.915, 20.47239
1281.397, 20.75871
1281.879, 20.68256
1282.362, 20.18837
1282.844, 20.05494
1283.326, 20.41557
1283.808, 20.37261
1284.290, 19.55474
1284.772, 18.83649
1285.254, 18.90588
1285.736, 19.75940
##END=



