##NAMES=Pyrosmalite-(Mn)
##RRUFFID=R110207
##IDEAL CHEMISTRY=Mn^2+^_8_Si_6_O_15_(OH,Cl)_10_
##LOCALITY=Kyurasawa mine, Ashio, Tochigi Prefecture, Kanto Region, Japan
##OWNER=RRUFF
##SOURCE=Royal Ontario Museum
##DESCRIPTION=Pink massive with good cleavage
##STATUS=The identification of this mineral has been confirmed only by single crystal X-ray diffraction.
##URL=rruff.info/R110207
112.8167, 232.2030
113.2988, 233.4502
113.7809, 235.7357
114.2630, 238.7048
114.7451, 241.9849
115.2272, 245.3394
115.7094, 248.7820
116.1915, 252.0267
116.6736, 254.5855
117.1557, 257.4678
117.6378, 261.2236
118.1199, 265.6809
118.6021, 270.1625
119.0842, 274.0209
119.5663, 277.2051
120.0484, 280.9398
120.5305, 285.5648
121.0126, 290.5289
121.4948, 295.5661
121.9769, 300.7091
122.4590, 305.3780
122.9411, 308.8173
123.4232, 311.2642
123.9053, 313.0456
124.3875, 314.2039
124.8696, 314.7633
125.3517, 314.7998
125.8338, 314.3730
126.3159, 313.2379
126.7980, 311.4995
127.2802, 309.1210
127.7623, 305.9671
128.2444, 301.6960
128.7265, 296.2201
129.2086, 290.7577
129.6907, 285.5557
130.1729, 280.2563
130.6550, 274.5611
131.1371, 268.4999
131.6192, 262.4589
132.1013, 256.9740
132.5834, 252.0941
133.0656, 247.6772
133.5477, 243.4065
134.0298, 239.6683
134.5119, 236.8555
134.9940, 235.0797
135.4761, 234.0311
135.9583, 233.0417
136.4404, 231.9252
136.9225, 231.1246
137.4046, 230.7249
137.8867, 230.6425
138.3688, 230.8283
138.8510, 231.3062
139.3331, 231.9388
139.8152, 232.2423
140.2973, 231.8435
140.7794, 231.7057
141.2615, 232.4962
141.7437, 234.0001
142.2258, 235.2760
142.7079, 235.8467
143.1900, 235.8074
143.6721, 235.5107
144.1542, 234.8553
144.6364, 234.0842
145.1185, 233.4105
145.6006, 232.8372
146.0827, 232.3437
146.5648, 232.2747
147.0469, 232.1689
147.5291, 231.4374
148.0112, 229.6806
148.4933, 227.3828
148.9754, 225.6502
149.4575, 224.7477
149.9396, 223.9897
150.4218, 223.2132
150.9039, 222.3968
151.3860, 221.4544
151.8681, 220.2482
152.3502, 218.8754
152.8323, 218.2391
153.3145, 218.7717
153.7966, 219.7255
154.2787, 221.2519
154.7608, 223.1028
155.2429, 224.8077
155.7250, 225.9260
156.2072, 226.3490
156.6893, 227.8500
157.1714, 230.7401
157.6535, 234.1732
158.1356, 238.0499
158.6177, 242.2321
159.0999, 246.4019
159.5820, 250.1882
160.0641, 253.4948
160.5462, 257.5017
161.0283, 262.1348
161.5104, 267.4366
161.9926, 273.6742
162.4747, 280.8497
162.9568, 288.2805
163.4389, 295.0934
163.9210, 301.3494
164.4031, 307.9202
164.8853, 314.9523
165.3674, 322.3861
165.8495, 330.1164
166.3316, 338.2948
166.8137, 346.4201
167.2958, 353.7001
167.7780, 360.4100
168.2601, 367.6970
168.7422, 376.2886
169.2243, 385.9534
169.7064, 395.6095
170.1885, 405.0760
170.6707, 414.6079
171.1528, 424.4340
171.6349, 434.4917
172.1170, 444.5905
172.5991, 454.5633
173.0812, 464.4006
173.5634, 474.3019
174.0455, 484.2845
174.5276, 494.4149
175.0097, 504.6158
175.4918, 514.9421
175.9739, 525.5287
176.4561, 536.4447
176.9382, 547.8017
177.4203, 559.4143
177.9024, 571.3723
178.3845, 583.4562
178.8666, 595.3544
179.3488, 607.0649
179.8309, 619.0750
180.3130, 631.9266
180.7951, 646.1314
181.2772, 660.0217
181.7593, 674.0985
182.2415, 687.5718
182.7236, 699.5798
183.2057, 709.9979
183.6878, 719.5914
184.1699, 729.4932
184.6520, 739.9283
185.1342, 750.2646
185.6163, 761.7176
186.0984, 772.5319
186.5805, 780.8059
187.0626, 785.9572
187.5447, 788.7879
188.0269, 790.5894
188.5090, 791.9906
188.9911, 790.5938
189.4732, 785.0894
189.9553, 776.5309
190.4374, 766.7393
190.9196, 756.0781
191.4017, 744.3643
191.8838, 731.0566
192.3659, 716.2412
192.8480, 700.8542
193.3301, 684.9520
193.8123, 668.7408
194.2944, 652.8541
194.7765, 637.4294
195.2586, 622.5066
195.7407, 607.8156
196.2228, 593.3832
196.7050, 579.7307
197.1871, 567.2815
197.6692, 556.0162
198.1513, 545.4884
198.6334, 535.9922
199.1155, 526.9776
199.5977, 518.1009
200.0798, 509.3203
200.5619, 500.7454
201.0440, 492.4481
201.5261, 484.3898
202.0082, 476.5682
202.4904, 469.3169
202.9725, 462.0359
203.4546, 454.3277
203.9367, 446.1762
204.4188, 437.8756
204.9009, 429.9073
205.3831, 422.5629
205.8652, 414.6611
206.3473, 406.0434
206.8294, 397.0258
207.3115, 387.6063
207.7936, 377.9007
208.2758, 368.2107
208.7579, 359.0052
209.2400, 350.3251
209.7221, 342.1592
210.2042, 334.5724
210.6863, 327.3780
211.1685, 320.5043
211.6506, 313.9005
212.1327, 307.4403
212.6148, 300.8534
213.0969, 293.8752
213.5790, 287.5234
214.0612, 281.8930
214.5433, 276.7872
215.0254, 272.1486
215.5075, 267.9568
215.9896, 263.8536
216.4717, 259.3279
216.9539, 253.9400
217.4360, 249.1927
217.9181, 245.4774
218.4002, 242.2202
218.8823, 238.8280
219.3644, 235.1674
219.8466, 231.4810
220.3287, 228.1109
220.8108, 225.0740
221.2929, 222.1502
221.7750, 219.3072
222.2571, 216.5647
222.7393, 214.0534
223.2214, 211.8589
223.7035, 209.5722
224.1856, 206.5217
224.6677, 202.7825
225.1498, 199.2339
225.6320, 196.2179
226.1141, 193.5033
226.5962, 190.6225
227.0783, 187.3674
227.5604, 184.3385
228.0425, 182.3163
228.5247, 181.0872
229.0068, 179.8099
229.4889, 178.2273
229.9710, 176.3806
230.4531, 174.2752
230.9352, 171.7702
231.4174, 169.3251
231.8995, 167.2359
232.3816, 165.4639
232.8637, 163.9642
233.3458, 162.8010
233.8279, 161.9006
234.3101, 161.0519
234.7922, 160.4105
235.2743, 159.5384
235.7564, 157.9590
236.2385, 156.0025
236.7206, 154.3456
237.2028, 153.5727
237.6849, 153.4258
238.1670, 152.7183
238.6491, 150.9423
239.1312, 149.3618
239.6133, 148.6022
240.0955, 148.3428
240.5776, 148.0045
241.0597, 147.1746
241.5418, 146.0164
242.0239, 145.3626
242.5060, 145.5791
242.9882, 145.8320
243.4703, 145.9672
243.9524, 145.9593
244.4345, 145.7663
244.9166, 145.3412
245.3987, 144.7390
245.8809, 144.2151
246.3630, 143.6370
246.8451, 143.3441
247.3272, 143.5633
247.8093, 144.0429
248.2914, 144.4802
248.7736, 144.7150
249.2557, 144.7753
249.7378, 144.7580
250.2199, 144.3375
250.7020, 144.2707
251.1841, 145.0456
251.6663, 146.0897
252.1484, 146.6967
252.6305, 146.5236
253.1126, 145.8019
253.5947, 145.2498
254.0768, 144.9492
254.5590, 144.7548
255.0411, 144.9170
255.5232, 145.0806
256.0053, 144.7740
256.4874, 143.8023
256.9695, 142.4736
257.4517, 141.5351
257.9338, 141.7807
258.4159, 141.4536
258.8980, 139.9266
259.3801, 138.0857
259.8622, 136.9784
260.3444, 136.9511
260.8265, 137.3583
261.3086, 136.9780
261.7907, 135.1030
262.2728, 133.4906
262.7549, 132.1702
263.2371, 131.1102
263.7192, 130.3483
264.2013, 129.8816
264.6834, 129.5556
265.1655, 129.1415
265.6476, 128.5755
266.1298, 128.0806
266.6119, 127.6107
267.0940, 127.2395
267.5761, 127.0986
268.0582, 127.2021
268.5403, 127.3464
269.0225, 127.2975
269.5046, 127.0104
269.9867, 126.6819
270.4688, 126.1533
270.9509, 125.6878
271.4330, 125.5000
271.9152, 125.6161
272.3973, 125.9826
272.8794, 126.6733
273.3615, 127.7077
273.8436, 128.2254
274.3257, 127.5531
274.8079, 126.8267
275.2900, 127.0341
275.7721, 128.1852
276.2542, 129.5332
276.7363, 130.6028
277.2184, 131.3678
277.7006, 131.9870
278.1827, 132.1795
278.6648, 132.4445
279.1469, 133.1539
279.6290, 134.2765
280.1111, 135.5373
280.5933, 136.7743
281.0754, 138.0425
281.5575, 139.4978
282.0396, 141.2971
282.5217, 143.0872
283.0038, 144.5417
283.4860, 145.7496
283.9681, 147.1834
284.4502, 149.0427
284.9323, 151.2983
285.4144, 153.8452
285.8965, 156.8072
286.3787, 159.7426
286.8608, 162.4179
287.3429, 164.8635
287.8250, 167.1572
288.3071, 169.1308
288.7892, 171.2417
289.2714, 174.2006
289.7535, 178.0658
290.2356, 182.0232
290.7177, 185.7185
291.1998, 189.2211
291.6819, 192.7026
292.1641, 196.0984
292.6462, 199.7032
293.1283, 203.9459
293.6104, 208.7381
294.0925, 213.5791
294.5746, 217.9945
295.0568, 222.3554
295.5389, 227.5587
296.0210, 233.9575
296.5031, 240.4406
296.9852, 245.9200
297.4673, 250.7148
297.9495, 255.7044
298.4316, 261.1092
298.9137, 266.8732
299.3958, 273.0773
299.8779, 279.8642
300.3600, 286.4066
300.8422, 292.0238
301.3243, 297.0193
301.8064, 301.7471
302.2885, 306.2036
302.7706, 310.5639
303.2527, 315.1774
303.7349, 320.1090
304.2170, 324.6497
304.6991, 328.6290
305.1812, 331.8828
305.6633, 334.1268
306.1454, 335.0983
306.6276, 335.5887
307.1097, 336.2966
307.5918, 337.1942
308.0739, 337.7339
308.5560, 337.2803
309.0381, 336.8110
309.5203, 337.5418
310.0024, 339.6192
310.4845, 341.7006
310.9666, 342.5020
311.4487, 342.3931
311.9308, 343.2402
312.4130, 345.6156
312.8951, 348.7738
313.3772, 351.8565
313.8593, 354.9395
314.3414, 358.5441
314.8235, 363.1348
315.3057, 368.4329
315.7878, 373.7028
316.2699, 378.6653
316.7520, 384.0938
317.2341, 390.7116
317.7162, 398.1641
318.1984, 405.8481
318.6805, 413.7397
319.1626, 421.6241
319.6447, 429.3133
320.1268, 436.9152
320.6089, 443.8057
321.0911, 450.6211
321.5732, 456.1806
322.0553, 458.5909
322.5374, 457.3544
323.0195, 453.0905
323.5016, 446.0969
323.9838, 436.3289
324.4659, 424.8567
324.9480, 411.0837
325.4301, 396.4566
325.9122, 382.7447
326.3943, 369.9070
326.8765, 358.0600
327.3586, 347.4119
327.8407, 337.8295
328.3228, 328.7814
328.8049, 319.9870
329.2870, 311.9991
329.7692, 305.5041
330.2513, 300.3983
330.7334, 295.5519
331.2155, 290.4059
331.6976, 285.1526
332.1797, 280.1564
332.6619, 275.3506
333.1440, 271.1032
333.6261, 268.0812
334.1082, 265.8764
334.5903, 263.5558
335.0724, 260.4900
335.5546, 257.3576
336.0367, 255.0998
336.5188, 253.7838
337.0009, 252.7701
337.4830, 251.8709
337.9651, 250.9881
338.4473, 249.8833
338.9294, 248.2119
339.4115, 246.8216
339.8936, 246.5422
340.3757, 247.2508
340.8578, 248.0250
341.3400, 248.4932
341.8221, 248.9138
342.3042, 249.6209
342.7863, 250.5984
343.2684, 251.8931
343.7505, 253.6364
344.2327, 255.7102
344.7148, 257.8071
345.1969, 259.8217
345.6790, 261.9560
346.1611, 264.5595
346.6432, 267.5525
347.1254, 270.4980
347.6075, 272.9604
348.0896, 275.4673
348.5717, 278.8598
349.0538, 283.2607
349.5359, 287.4847
350.0181, 290.6106
350.5002, 292.8054
350.9823, 295.0374
351.4644, 297.7987
351.9465, 300.2179
352.4286, 301.8005
352.9108, 302.5613
353.3929, 302.6026
353.8750, 301.9629
354.3571, 300.6017
354.8392, 298.3726
355.3214, 294.8882
355.8035, 291.5570
356.2856, 289.2897
356.7677, 287.4497
357.2498, 284.7283
357.7319, 280.6405
358.2141, 276.2162
358.6962, 272.9176
359.1783, 270.9647
359.6604, 268.7092
360.1425, 265.8804
360.6246, 262.7099
361.1068, 259.1229
361.5889, 255.1863
362.0710, 251.7940
362.5531, 249.8197
363.0352, 249.2485
363.5173, 248.1946
363.9995, 246.0710
364.4816, 244.0863
364.9637, 243.0290
365.4458, 242.5894
365.9279, 241.8893
366.4100, 240.4270
366.8922, 238.5050
367.3743, 237.1421
367.8564, 236.7637
368.3385, 236.2946
368.8206, 235.5436
369.3027, 234.6538
369.7849, 233.7236
370.2670, 232.7976
370.7491, 232.0159
371.2312, 231.6249
371.7133, 231.9033
372.1954, 231.6976
372.6776, 230.5046
373.1597, 229.2887
373.6418, 228.7323
374.1239, 228.7510
374.6060, 228.7678
375.0881, 228.3052
375.5703, 227.3839
376.0524, 226.6641
376.5345, 226.1297
377.0166, 225.8042
377.4987, 225.8940
377.9808, 226.1458
378.4630, 226.1467
378.9451, 225.7038
379.4272, 225.0721
379.9093, 224.8693
380.3914, 225.4021
380.8735, 225.8763
381.3557, 226.2695
381.8378, 226.5946
382.3199, 226.7513
382.8020, 226.7900
383.2841, 226.9821
383.7662, 227.6600
384.2484, 228.8978
384.7305, 230.1169
385.2126, 231.3049
385.6947, 232.4885
386.1768, 233.7759
386.6589, 235.0573
387.1411, 236.0715
387.6232, 236.5871
388.1053, 236.8456
388.5874, 237.7191
389.0695, 239.4026
389.5516, 241.3702
390.0338, 243.7473
390.5159, 246.1849
390.9980, 248.2916
391.4801, 249.9698
391.9622, 251.5732
392.4443, 253.5961
392.9265, 256.0901
393.4086, 258.4897
393.8907, 260.8444
394.3728, 262.9488
394.8549, 264.5902
395.3370, 265.8549
395.8192, 267.0540
396.3013, 268.3011
396.7834, 269.6395
397.2655, 271.2287
397.7476, 273.1398
398.2297, 275.1100
398.7119, 277.2136
399.1940, 279.2331
399.6761, 280.8156
400.1582, 281.7762
400.6403, 282.4934
401.1224, 283.3373
401.6046, 284.3023
402.0867, 285.1639
402.5688, 285.7050
403.0509, 286.2924
403.5330, 287.4678
404.0151, 289.2475
404.4973, 290.8083
404.9794, 291.6992
405.4615, 292.1634
405.9436, 292.6548
406.4257, 293.2478
406.9078, 293.6727
407.3900, 293.7386
407.8721, 293.4295
408.3542, 292.7770
408.8363, 291.8105
409.3184, 290.4783
409.8005, 288.8480
410.2827, 286.8484
410.7648, 284.2175
411.2469, 280.7919
411.7290, 276.7793
412.2111, 272.6357
412.6932, 268.5154
413.1754, 263.9506
413.6575, 258.5151
414.1396, 252.7884
414.6217, 247.4212
415.1038, 242.5068
415.5859, 237.5646
416.0681, 232.1219
416.5502, 226.1402
417.0323, 220.0054
417.5144, 213.3586
417.9965, 206.9574
418.4786, 201.1173
418.9608, 195.7573
419.4429, 190.5947
419.9250, 185.4804
420.4071, 180.5616
420.8892, 176.2538
421.3713, 172.9664
421.8535, 169.7517
422.3356, 166.6495
422.8177, 163.5406
423.2998, 160.2399
423.7819, 156.7789
424.2640, 153.4871
424.7462, 150.7103
425.2283, 148.4596
425.7104, 146.3954
426.1925, 144.5153
426.6746, 142.8505
427.1567, 141.5789
427.6389, 140.4863
428.1210, 139.1787
428.6031, 137.3999
429.0852, 135.5812
429.5673, 134.7181
430.0494, 135.1145
430.5316, 135.3589
431.0137, 134.7963
431.4958, 134.2049
431.9779, 134.2554
432.4600, 134.9207
432.9421, 135.3805
433.4243, 134.7773
433.9064, 133.4009
434.3885, 132.6021
434.8706, 132.7261
435.3527, 132.7601
435.8348, 132.0407
436.3170, 130.7964
436.7991, 129.3056
437.2812, 127.4839
437.7633, 125.6564
438.2454, 124.1709
438.7275, 122.9755
439.2097, 121.7382
439.6918, 120.3155
440.1739, 118.8569
440.6560, 117.6073
441.1381, 116.5682
441.6202, 115.5393
442.1024, 114.4448
442.5845, 113.3456
443.0666, 112.3162
443.5487, 111.3615
444.0308, 110.4457
444.5129, 109.5066
444.9951, 108.5813
445.4772, 107.9524
445.9593, 107.6885
446.4414, 107.5937
446.9235, 107.6163
447.4056, 107.7700
447.8878, 108.1315
448.3699, 108.7209
448.8520, 109.3596
449.3341, 109.7454
449.8162, 109.6530
450.2983, 109.9663
450.7805, 110.7969
451.2626, 111.8604
451.7447, 113.1642
452.2268, 114.5848
452.7089, 115.8962
453.1910, 116.9423
453.6732, 117.7582
454.1553, 118.4639
454.6374, 118.9473
455.1195, 119.5138
455.6016, 120.2560
456.0837, 121.0585
456.5659, 121.7744
457.0480, 122.4012
457.5301, 123.1156
458.0122, 124.1957
458.4943, 125.6338
458.9764, 126.7779
459.4586, 127.3226
459.9407, 128.0053
460.4228, 129.2350
460.9049, 130.8384
461.3870, 132.5250
461.8691, 134.2155
462.3513, 135.9105
462.8334, 137.4923
463.3155, 138.9783
463.7976, 140.8544
464.2797, 143.4403
464.7618, 146.2864
465.2440, 148.8554
465.7261, 151.1575
466.2082, 153.3166
466.6903, 155.5924
467.1724, 157.6424
467.6545, 159.1156
468.1367, 159.9697
468.6188, 160.1558
469.1009, 159.5796
469.5830, 158.3128
470.0651, 156.7121
470.5472, 154.7617
471.0294, 152.5690
471.5115, 149.9296
471.9936, 147.1620
472.4757, 144.6094
472.9578, 142.3787
473.4399, 140.4412
473.9221, 138.7670
474.4042, 137.3601
474.8863, 136.2152
475.3684, 135.4482
475.8505, 134.7753
476.3326, 133.9352
476.8148, 133.1518
477.2969, 132.9063
477.7790, 133.4518
478.2611, 134.3406
478.7432, 134.6521
479.2253, 134.3351
479.7075, 133.5708
480.1896, 131.9626
480.6717, 130.2578
481.1538, 129.0171
481.6359, 128.1084
482.1180, 126.8641
482.6002, 124.7219
483.0823, 121.9619
483.5644, 119.3433
484.0465, 116.9420
484.5286, 114.4433
485.0107, 111.5632
485.4929, 108.5905
485.9750, 105.8087
486.4571, 103.2462
486.9392, 100.9762
487.4213, 99.21702
487.9034, 97.75746
488.3856, 96.13806
488.8677, 94.26305
489.3498, 92.31929
489.8319, 90.46799
490.3140, 88.69671
490.7961, 86.89970
491.2783, 84.63757
491.7604, 82.79652
492.2425, 82.03869
492.7246, 81.93006
493.2067, 81.66065
493.6888, 80.94758
494.1710, 80.03630
494.6531, 79.30076
495.1352, 78.76054
495.6173, 78.35751
496.0994, 78.32107
496.5815, 78.18029
497.0637, 77.46540
497.5458, 76.48434
498.0279, 75.93594
498.5100, 76.24141
498.9921, 77.07202
499.4742, 77.67252
499.9564, 78.16176
500.4385, 78.09295
500.9206, 76.60452
501.4027, 75.17356
501.8848, 74.79167
502.3669, 75.39742
502.8491, 76.23459
503.3312, 76.93047
503.8133, 77.44933
504.2954, 77.64592
504.7775, 77.46835
505.2596, 77.20322
505.7418, 76.86962
506.2239, 76.59000
506.7060, 76.54892
507.1881, 76.80102
507.6702, 77.10322
508.1523, 77.35034
508.6345, 77.56375
509.1166, 77.76807
509.5987, 77.96770
510.0808, 78.18429
510.5629, 78.41943
511.0450, 78.68300
511.5272, 79.07911
512.0093, 79.59905
512.4914, 80.24275
512.9735, 81.16377
513.4556, 82.14738
513.9377, 82.91886
514.4199, 83.40214
514.9020, 83.72767
515.3841, 84.06385
515.8662, 84.44551
516.3483, 84.59688
516.8304, 84.09254
517.3126, 83.81020
517.7947, 84.19609
518.2768, 84.89968
518.7589, 85.39559
519.2410, 85.47104
519.7231, 85.35436
520.2053, 85.31661
520.6874, 85.35037
521.1695, 85.59761
521.6516, 86.23928
522.1337, 86.89287
522.6158, 87.26230
523.0980, 87.43430
523.5801, 87.66412
524.0622, 88.13708
524.5443, 88.61033
525.0264, 88.79518
525.5085, 88.73438
525.9907, 88.65639
526.4728, 88.62206
526.9549, 88.64707
527.4370, 88.76608
527.9191, 88.99137
528.4012, 89.23363
528.8834, 89.44263
529.3655, 89.70224
529.8476, 90.16503
530.3297, 90.73609
530.8118, 91.11205
531.2939, 91.11446
531.7761, 90.92336
532.2582, 91.01338
532.7403, 91.63951
533.2224, 92.07536
533.7045, 92.20953
534.1866, 92.26067
534.6688, 92.19744
535.1509, 92.15208
535.6330, 92.47864
536.1151, 93.53884
536.5972, 94.95482
537.0793, 95.66576
537.5615, 95.50211
538.0436, 95.31623
538.5257, 95.31116
539.0078, 95.41542
539.4899, 95.55737
539.9720, 95.73812
540.4542, 96.01414
540.9363, 96.46257
541.4184, 96.99804
541.9005, 97.48751
542.3826, 97.93112
542.8647, 98.42064
543.3469, 99.00472
543.8290, 99.66827
544.3111, 100.3938
544.7932, 101.2381
545.2753, 101.9955
545.7574, 102.4477
546.2396, 102.9407
546.7217, 103.9246
547.2038, 105.2890
547.6859, 106.4151
548.1680, 106.8273
548.6501, 106.7461
549.1323, 107.1750
549.6144, 108.4845
550.0965, 109.6697
550.5786, 110.6434
551.0607, 111.4587
551.5428, 112.2429
552.0250, 112.9401
552.5071, 113.2503
552.9892, 112.6941
553.4713, 111.6771
553.9534, 111.4856
554.4355, 112.3008
554.9177, 113.0331
555.3998, 113.2398
555.8819, 113.1415
556.3640, 113.0585
556.8461, 113.0035
557.3282, 112.8857
557.8104, 112.5496
558.2925, 112.2015
558.7746, 112.1563
559.2567, 112.3874
559.7388, 112.5798
560.2209, 112.5750
560.7031, 112.3489
561.1852, 111.8213
561.6673, 110.2800
562.1494, 109.4544
562.6315, 109.9800
563.1136, 110.7488
563.5958, 111.0249
564.0779, 110.7798
564.5600, 110.2784
565.0421, 109.6647
565.5242, 109.0094
566.0063, 108.5281
566.4885, 108.1913
566.9706, 108.1207
567.4527, 108.6542
567.9348, 109.2391
568.4169, 109.5021
568.8990, 109.4448
569.3812, 109.2783
569.8633, 108.8195
570.3454, 108.4691
570.8275, 109.0132
571.3096, 110.3825
571.7917, 111.5204
572.2739, 111.9421
572.7560, 111.9779
573.2381, 112.1803
573.7202, 112.5344
574.2023, 113.0983
574.6844, 114.1030
575.1666, 115.1275
575.6487, 115.7689
576.1308, 116.1866
576.6129, 116.8668
577.0950, 118.0787
577.5771, 119.5549
578.0593, 120.6775
578.5414, 121.2436
579.0235, 122.0090
579.5056, 123.0099
579.9877, 124.2235
580.4698, 125.6446
580.9520, 127.2740
581.4341, 129.1491
581.9162, 131.3377
582.3983, 133.6714
582.8804, 135.9396
583.3625, 138.1518
583.8447, 140.2462
584.3268, 142.0518
584.8089, 144.0809
585.2910, 146.8765
585.7731, 150.3945
586.2552, 154.1808
586.7374, 158.5777
587.2195, 162.8372
587.7016, 166.1813
588.1837, 169.2096
588.6658, 172.9572
589.1479, 177.7339
589.6301, 183.1416
590.1122, 188.7061
590.5943, 194.3784
591.0764, 200.6762
591.5585, 207.4688
592.0406, 215.1395
592.5228, 223.9426
593.0049, 233.5977
593.4870, 243.6302
593.9691, 253.9778
594.4512, 265.1166
594.9333, 277.6682
595.4155, 291.4881
595.8976, 305.6497
596.3797, 319.8620
596.8618, 335.4097
597.3439, 353.1406
597.8260, 372.7206
598.3082, 392.8331
598.7903, 413.3354
599.2724, 434.6979
599.7545, 457.1892
600.2366, 480.5592
600.7188, 504.3920
601.2009, 528.7316
601.6830, 553.7148
602.1651, 579.5318
602.6472, 606.1690
603.1293, 633.4789
603.6115, 660.5778
604.0936, 690.1536
604.5757, 722.8821
605.0578, 757.2575
605.5399, 792.1236
606.0220, 827.7006
606.5042, 865.4825
606.9863, 906.3909
607.4684, 949.4090
607.9505, 993.1311
608.4326, 1037.656
608.9147, 1083.723
609.3969, 1132.187
609.8790, 1181.124
610.3611, 1229.579
610.8432, 1277.526
611.3253, 1320.318
611.8074, 1358.919
612.2896, 1390.753
612.7717, 1415.850
613.2538, 1432.874
613.7359, 1439.826
614.2180, 1436.061
614.7001, 1421.930
615.1823, 1397.568
615.6644, 1362.859
616.1465, 1320.035
616.6286, 1266.417
617.1107, 1208.049
617.5928, 1145.185
618.0750, 1079.793
618.5571, 1012.611
619.0392, 944.1920
619.5213, 878.2322
620.0034, 817.6392
620.4855, 761.5770
620.9677, 707.2785
621.4498, 654.6708
621.9319, 606.6656
622.4140, 565.0390
622.8961, 528.5815
623.3782, 494.8604
623.8604, 463.9164
624.3425, 435.1718
624.8246, 408.3916
625.3067, 384.1389
625.7888, 363.1266
626.2709, 344.9342
626.7531, 328.3534
627.2352, 312.9006
627.7173, 298.4078
628.1994, 284.6669
628.6815, 271.5536
629.1636, 259.6833
629.6458, 249.3113
630.1279, 240.0578
630.6100, 231.9783
631.0921, 224.6519
631.5742, 217.3424
632.0563, 209.7597
632.5385, 202.4882
633.0206, 196.0413
633.5027, 190.1925
633.9848, 184.3833
634.4669, 178.5473
634.9490, 173.1682
635.4312, 168.6512
635.9133, 164.8145
636.3954, 160.7343
636.8775, 156.1521
637.3596, 151.7019
637.8417, 147.2068
638.3239, 143.0306
638.8060, 139.5265
639.2881, 136.5876
639.7702, 133.8535
640.2523, 131.1276
640.7344, 128.4309
641.2166, 125.7928
641.6987, 123.1955
642.1808, 120.8350
642.6629, 118.7319
643.1450, 116.8829
643.6271, 115.4203
644.1093, 114.2310
644.5914, 112.9356
645.0735, 111.4108
645.5556, 109.8609
646.0377, 108.3329
646.5198, 106.8579
647.0020, 105.5193
647.4841, 104.3213
647.9662, 103.1342
648.4483, 101.8257
648.9304, 100.4407
649.4125, 99.25481
649.8947, 98.38818
650.3768, 97.51205
650.8589, 96.62812
651.3410, 95.67364
651.8231, 94.55539
652.3052, 93.30862
652.7874, 92.10162
653.2695, 91.04497
653.7516, 90.04369
654.2337, 88.97023
654.7158, 87.84974
655.1979, 86.78813
655.6801, 85.80925
656.1622, 84.94282
656.6443, 84.25282
657.1264, 83.75866
657.6085, 83.09360
658.0906, 82.06251
658.5728, 81.13143
659.0549, 80.45385
659.5370, 79.89807
660.0191, 79.31909
660.5012, 78.69627
660.9833, 78.11592
661.4655, 77.72465
661.9476, 77.38558
662.4297, 76.56811
662.9118, 75.17698
663.3939, 74.08421
663.8760, 73.65653
664.3582, 73.52580
664.8403, 73.32156
665.3224, 73.04726
665.8045, 72.67239
666.2866, 72.11978
666.7687, 71.54106
667.2509, 71.03928
667.7330, 70.56380
668.2151, 70.00736
668.6972, 69.35075
669.1793, 68.69501
669.6614, 68.11905
670.1436, 67.63067
670.6257, 67.37849
671.1078, 67.60081
671.5899, 67.56454
672.0720, 66.75409
672.5541, 65.82143
673.0363, 65.26205
673.5184, 65.08914
674.0005, 65.04535
674.4826, 65.21674
674.9647, 65.30843
675.4468, 64.87711
675.9290, 64.11479
676.4111, 63.66744
676.8932, 63.74277
677.3753, 63.89406
677.8574, 63.58789
678.3395, 62.80451
678.8217, 62.07629
679.3038, 61.26756
679.7859, 60.70134
680.2680, 60.71151
680.7501, 60.80157
681.2322, 60.40491
681.7144, 59.55502
682.1965, 58.88581
682.6786, 58.93941
683.1607, 59.34021
683.6428, 59.47076
684.1249, 59.36363
684.6071, 59.31594
685.0892, 59.44376
685.5713, 59.55520
686.0534, 59.39690
686.5355, 58.94346
687.0176, 58.68584
687.4998, 58.73404
687.9819, 58.81950
688.4640, 59.03611
688.9461, 59.15689
689.4282, 58.85918
689.9103, 58.17918
690.3925, 57.52386
690.8746, 57.19242
691.3567, 57.11081
691.8388, 57.19092
692.3209, 57.44775
692.8030, 57.42469
693.2852, 56.81154
693.7673, 56.24220
694.2494, 56.48733
694.7315, 57.48449
695.2136, 58.16158
695.6957, 58.36993
696.1779, 58.38973
696.6600, 58.15048
697.1421, 57.87104
697.6242, 57.80727
698.1063, 57.97369
698.5884, 58.21552
699.0706, 58.43945
699.5527, 58.61186
700.0348, 58.56977
700.5169, 58.24279
700.9990, 58.18582
701.4811, 58.68090
701.9633, 59.22864
702.4454, 59.37300
702.9275, 59.21767
703.4096, 59.09111
703.8917, 58.94816
704.3738, 58.96122
704.8560, 59.27669
705.3381, 59.74406
705.8202, 60.34557
706.3023, 60.96210
706.7844, 61.15767
707.2665, 60.58496
707.7487, 59.56456
708.2308, 58.99377
708.7129, 58.96370
709.1950, 58.95655
709.6771, 58.88612
710.1592, 58.86480
710.6414, 59.02056
711.1235, 59.26671
711.6056, 59.42039
712.0877, 59.44595
712.5698, 59.39112
713.0519, 59.21561
713.5341, 59.01094
714.0162, 58.93470
714.4983, 58.95168
714.9804, 58.82416
715.4625, 58.39747
715.9446, 57.88313
716.4268, 57.81953
716.9089, 58.41949
717.3910, 58.47798
717.8731, 57.48520
718.3552, 56.60126
718.8373, 56.41139
719.3195, 56.63572
719.8016, 56.91186
720.2837, 57.20216
720.7658, 57.46319
721.2479, 57.74656
721.7300, 57.93925
722.2122, 57.85958
722.6943, 57.57036
723.1764, 57.30603
723.6585, 57.16897
724.1406, 57.08076
724.6227, 56.92212
725.1049, 56.68368
725.5870, 56.45686
726.0691, 56.26928
726.5512, 56.04906
727.0333, 55.70383
727.5154, 55.35718
727.9976, 55.20982
728.4797, 55.26665
728.9618, 55.12991
729.4439, 54.26044
729.9260, 53.44663
730.4081, 53.63490
730.8903, 54.42118
731.3724, 54.81800
731.8545, 54.54180
732.3366, 53.92889
732.8187, 53.26816
733.3008, 52.59242
733.7830, 52.31464
734.2651, 52.65720
734.7472, 52.91844
735.2293, 52.95786
735.7114, 52.84961
736.1935, 52.56317
736.6757, 52.15395
737.1578, 51.84686
737.6399, 51.78340
738.1220, 51.74598
738.6041, 51.56250
739.0862, 51.32167
739.5684, 51.11650
740.0505, 50.98817
740.5326, 51.08236
741.0147, 51.55128
741.4968, 52.18622
741.9789, 52.28450
742.4611, 51.62227
742.9432, 51.25924
743.4253, 51.48419
743.9074, 51.78828
744.3895, 51.89555
744.8716, 51.87545
745.3538, 51.87748
745.8359, 51.98317
746.3180, 51.91785
746.8001, 51.18359
747.2822, 50.49038
747.7643, 50.87045
748.2465, 51.98169
748.7286, 52.53154
749.2107, 51.92952
749.6928, 50.91700
750.1749, 50.65030
750.6570, 51.17724
751.1392, 51.42575
751.6213, 51.29649
752.1034, 51.11574
752.5855, 50.96618
753.0676, 50.86145
753.5497, 50.86265
754.0319, 50.97598
754.5140, 50.94464
754.9961, 50.63069
755.4782, 50.23459
755.9603, 49.72352
756.4424, 49.27277
756.9246, 49.29188
757.4067, 49.76682
757.8888, 50.04554
758.3709, 49.49587
758.8530, 48.39953
759.3351, 47.69585
759.8173, 47.41045
760.2994, 47.32638
760.7815, 47.47276
761.2636, 47.68619
761.7457, 47.89878
762.2278, 48.06984
762.7100, 48.01687
763.1921, 47.47925
763.6742, 47.11715
764.1563, 47.32161
764.6384, 47.56597
765.1205, 47.40924
765.6027, 46.91164
766.0848, 46.29231
766.5669, 45.63601
767.0490, 45.13454
767.5311, 45.14889
768.0132, 45.57201
768.4954, 45.80188
768.9775, 45.78814
769.4596, 45.70042
769.9417, 45.60094
770.4238, 45.50047
770.9059, 45.41801
771.3881, 45.35730
771.8702, 45.30128
772.3523, 45.21285
772.8344, 45.17196
773.3165, 45.19817
773.7986, 45.29097
774.2808, 45.48641
774.7629, 45.76481
775.2450, 46.00447
775.7271, 46.14701
776.2092, 46.18102
776.6913, 45.98759
777.1735, 45.65278
777.6556, 45.58741
778.1377, 45.89533
778.6198, 46.22064
779.1019, 46.25724
779.5840, 46.05668
780.0662, 45.86800
780.5483, 45.59166
781.0304, 45.51971
781.5125, 45.76103
781.9946, 46.11406
782.4767, 46.57978
782.9589, 47.06477
783.4410, 47.36921
783.9231, 47.39779
784.4052, 47.49509
784.8873, 48.04442
785.3694, 48.65908
785.8516, 48.79536
786.3337, 48.55230
786.8158, 48.33964
787.2979, 48.32319
787.7800, 48.46916
788.2621, 48.73928
788.7443, 49.13224
789.2264, 49.64890
789.7085, 50.31147
790.1906, 51.04951
790.6727, 51.99146
791.1548, 52.86454
791.6370, 53.32254
792.1191, 53.43311
792.6012, 53.65816
793.0833, 53.98629
793.5654, 54.53912
794.0475, 55.56140
794.5297, 56.69018
795.0118, 57.46472
795.4939, 57.97422
795.9760, 58.70823
796.4581, 59.96178
796.9402, 61.39911
797.4224, 62.55096
797.9045, 63.44086
798.3866, 64.08073
798.8687, 64.40225
799.3508, 65.10795
799.8329, 66.64439
800.3151, 68.64163
800.7972, 70.43314
801.2793, 72.04436
801.7614, 73.35800
802.2435, 74.14323
802.7256, 74.94794
803.2078, 75.89671
803.6899, 76.96465
804.1720, 78.13583
804.6541, 79.39809
805.1362, 80.74224
805.6183, 82.24104
806.1005, 83.72045
806.5826, 85.07773
807.0647, 86.25327
807.5468, 87.06302
808.0289, 87.50252
808.5110, 87.76999
808.9932, 87.98189
809.4753, 88.20222
809.9574, 88.66940
810.4395, 89.52539
810.9216, 89.97674
811.4037, 89.80897
811.8859, 89.52488
812.3680, 89.40866
812.8501, 89.30761
813.3322, 88.96517
813.8143, 88.32854
814.2964, 87.76852
814.7786, 87.66973
815.2607, 87.34824
815.7428, 86.32947
816.2249, 84.87512
816.7070, 83.38213
817.1891, 81.91715
817.6713, 80.26111
818.1534, 78.19418
818.6355, 75.93050
819.1176, 73.80976
819.5997, 71.84746
820.0818, 70.23203
820.5640, 69.03242
821.0461, 67.85397
821.5282, 66.40860
822.0103, 64.78953
822.4924, 63.29700
822.9745, 61.97890
823.4567, 60.65594
823.9388, 59.13543
824.4209, 57.82427
824.9030, 56.97620
825.3851, 56.35722
825.8672, 55.69984
826.3494, 54.95924
826.8315, 54.16911
827.3136, 53.13063
827.7957, 52.25187
828.2778, 52.09103
828.7599, 52.27281
829.2421, 52.13813
829.7242, 51.55439
830.2063, 50.66705
830.6884, 49.50848
831.1705, 48.32774
831.6526, 47.79960
832.1348, 47.94633
832.6169, 48.11871
833.0990, 48.25694
833.5811, 48.37652
834.0632, 48.52323
834.5453, 48.62970
835.0275, 48.52655
835.5096, 48.10438
835.9917, 47.79787
836.4738, 47.75451
836.9559, 47.65431
837.4380, 47.27654
837.9202, 46.84301
838.4023, 46.56721
838.8844, 46.49135
839.3665, 46.61079
839.8486, 47.10675
840.3307, 47.56877
840.8129, 47.53875
841.2950, 47.18283
841.7771, 46.78468
842.2592, 46.40693
842.7413, 46.08451
843.2234, 45.84706
843.7056, 45.52570
844.1877, 45.37988
844.6698, 45.02428
845.1519, 44.77349
845.6340, 44.61276
846.1161, 44.63380
846.5983, 45.00560
847.0804, 45.45705
847.5625, 45.60360
848.0446, 45.43240
848.5267, 45.19522
849.0089, 44.78859
849.4910, 44.46321
849.9731, 44.24297
850.4552, 44.16783
850.9373, 44.50829
851.4194, 45.03007
851.9016, 44.96787
852.3837, 43.82347
852.8658, 42.61589
853.3479, 42.37405
853.8300, 42.65040
854.3121, 42.72981
854.7943, 42.56280
855.2764, 42.20065
855.7585, 41.66339
856.2406, 41.17364
856.7227, 41.02953
857.2048, 41.21104
857.6870, 41.50024
858.1691, 41.97430
858.6512, 42.23046
859.1333, 42.10167
859.6154, 41.82878
860.0975, 41.54599
860.5797, 41.28749
861.0618, 41.22947
861.5439, 41.45710
862.0260, 41.73640
862.5081, 42.16578
862.9902, 42.51780
863.4724, 42.61658
863.9545, 42.56197
864.4366, 42.49519
864.9187, 42.45548
865.4008, 42.50606
865.8829, 42.82919
866.3651, 43.15196
866.8472, 43.07212
867.3293, 42.75678
867.8114, 42.64941
868.2935, 42.82129
868.7756, 42.97252
869.2578, 42.86372
869.7399, 42.61359
870.2220, 42.50855
870.7041, 42.55247
871.1862, 42.68990
871.6683, 42.95903
872.1505, 43.15774
872.6326, 43.15273
873.1147, 43.05042
873.5968, 43.03246
874.0789, 43.12129
874.5610, 43.17262
875.0432, 43.14498
875.5253, 43.13558
876.0074, 43.10637
876.4895, 43.15165
876.9716, 43.45541
877.4537, 43.91489
877.9359, 44.14900
878.4180, 43.95763
878.9001, 43.70224
879.3822, 43.59106
879.8643, 43.54351
880.3464, 43.42000
880.8286, 43.28204
881.3107, 43.37288
881.7928, 43.75893
882.2749, 44.09951
882.7570, 43.91985
883.2391, 43.45567
883.7213, 43.52646
884.2034, 44.09525
884.6855, 44.52789
885.1676, 44.66608
885.6497, 44.72089
886.1318, 44.82539
886.6140, 45.01140
887.0961, 45.39955
887.5782, 46.07371
888.0603, 46.74768
888.5424, 47.57790
889.0245, 48.18644
889.5067, 48.26536
889.9888, 48.13995
890.4709, 48.11813
890.9530, 48.21745
891.4351, 48.55520
891.9172, 49.16915
892.3994, 50.01063
892.8815, 51.29112
893.3636, 52.61541
893.8457, 53.50470
894.3278, 54.08808
894.8099, 54.88696
895.2921, 56.15206
895.7742, 57.43138
896.2563, 58.20797
896.7384, 58.75871
897.2205, 59.49716
897.7026, 60.43900
898.1848, 61.59975
898.6669, 62.97320
899.1490, 64.27512
899.6311, 65.21242
900.1132, 66.33273
900.5953, 66.79593
901.0775, 67.96993
901.5596, 68.75803
902.0417, 69.05000
902.5238, 68.99971
903.0059, 68.65897
903.4880, 68.07133
903.9702, 67.29713
904.4523, 66.27591
904.9344, 65.31582
905.4165, 64.57384
905.8986, 63.68822
906.3807, 62.62834
906.8629, 61.34275
907.3450, 59.70536
907.8271, 57.79079
908.3092, 55.90871
908.7913, 54.06656
909.2734, 52.38129
909.7556, 50.93549
910.2377, 49.62947
910.7198, 48.35369
911.2019, 47.15120
911.6840, 46.17342
912.1661, 45.44396
912.6483, 44.71310
913.1304, 43.77102
913.6125, 42.70300
914.0946, 41.50837
914.5767, 40.31467
915.0588, 39.68774
915.5410, 39.65059
916.0231, 39.38988
916.5052, 38.34222
916.9873, 37.04427
917.4694, 36.69207
917.9515, 37.34457
918.4337, 37.14256
918.9158, 35.83568
919.3979, 34.80191
919.8800, 34.58387
920.3621, 34.67122
920.8442, 34.54417
921.3264, 34.22885
921.8085, 34.01151
922.2906, 34.08372
922.7727, 33.93686
923.2548, 33.33897
923.7369, 32.75607
924.2191, 32.39194
924.7012, 32.18819
925.1833, 32.09568
925.6654, 32.11642
926.1475, 32.02523
926.6296, 31.70149
927.1118, 31.31325
927.5939, 30.73840
928.0760, 30.28711
928.5581, 30.43633
929.0402, 31.03226
929.5223, 31.48162
930.0045, 31.52563
930.4866, 31.35968
930.9687, 30.94961
931.4508, 30.57078
931.9329, 30.81489
932.4150, 31.47183
932.8972, 31.86609
933.3793, 31.80424
933.8614, 31.41495
934.3435, 30.72585
934.8256, 29.97696
935.3077, 29.86873
935.7899, 30.34435
936.2720, 30.55407
936.7541, 30.39085
937.2362, 30.12621
937.7183, 29.85400
938.2004, 29.67498
938.6826, 29.76101
939.1647, 30.11924
939.6468, 30.43124
940.1289, 30.70617
940.6110, 30.91601
941.0931, 31.09666
941.5753, 31.15375
942.0574, 30.96331
942.5395, 30.60801
943.0216, 30.31071
943.5037, 30.08570
943.9858, 29.87816
944.4680, 29.57773
944.9501, 29.42335
945.4322, 29.59625
945.9143, 29.89233
946.3964, 30.12892
946.8785, 30.28903
947.3607, 30.41178
947.8428, 30.52608
948.3249, 30.57341
948.8070, 30.43238
949.2891, 30.28651
949.7712, 30.33574
950.2534, 30.50852
950.7355, 30.64633
951.2176, 30.70612
951.6997, 30.74035
952.1818, 30.77061
952.6639, 30.81889
953.1461, 30.95949
953.6282, 31.12965
954.1103, 31.13428
954.5924, 30.99173
955.0745, 30.98949
955.5566, 31.27566
956.0388, 31.50215
956.5209, 31.06475
957.0030, 30.16365
957.4851, 29.87267
957.9672, 30.18748
958.4493, 30.53901
958.9315, 30.81110
959.4136, 31.02055
959.8957, 31.18578
960.3778, 31.28794
960.8599, 31.25743
961.3420, 31.04810
961.8242, 30.93702
962.3063, 30.91675
962.7884, 31.02734
963.2705, 31.38267
963.7526, 31.74030
964.2347, 31.81924
964.7169, 31.66842
965.1990, 31.64979
965.6811, 31.80661
966.1632, 32.03283
966.6453, 32.51735
967.1274, 32.85402
967.6096, 32.81005
968.0917, 32.56012
968.5738, 32.29200
969.0559, 32.02676
969.5380, 31.80636
970.0201, 31.61411
970.5023, 31.50097
970.9844, 31.41209
971.4665, 31.47357
971.9486, 31.99957
972.4307, 32.69061
972.9128, 32.88766
973.3950, 32.43155
973.8771, 32.04432
974.3592, 32.29385
974.8413, 32.65300
975.3234, 32.63233
975.8055, 32.43715
976.2877, 32.37057
976.7698, 32.44455
977.2519, 32.53038
977.7340, 32.56914
978.2161, 32.57241
978.6982, 32.44394
979.1804, 32.34511
979.6625, 32.73093
980.1446, 33.42014
980.6267, 33.78709
981.1088, 33.70795
981.5909, 33.38876
982.0731, 32.93056
982.5552, 32.54964
983.0373, 32.68511
983.5194, 33.27496
984.0015, 33.91744
984.4836, 34.59985
984.9658, 35.14975
985.4479, 35.50922
985.9300, 35.75339
986.4121, 35.93905
986.8942, 36.08332
987.3763, 36.23217
987.8585, 36.37305
988.3406, 36.62452
988.8227, 37.04287
989.3048, 37.39069
989.7869, 37.53069
990.2690, 37.62634
990.7512, 37.87183
991.2333, 38.25562
991.7154, 38.63700
992.1975, 39.07660
992.6796, 39.37421
993.1617, 39.31242
993.6439, 39.38928
994.1260, 39.91727
994.6081, 40.67780
995.0902, 41.37959
995.5723, 42.02117
996.0544, 42.64703
996.5366, 43.36620
997.0187, 43.92037
997.5008, 44.12637
997.9829, 44.30083
998.4650, 44.57547
998.9471, 44.97784
999.4293, 45.58691
999.9114, 46.42817
1000.393, 47.14065
1000.876, 47.51683
1001.358, 47.87927
1001.840, 48.23814
1002.322, 48.74060
1002.804, 49.60681
1003.286, 50.70109
1003.768, 51.69622
1004.250, 52.49006
1004.733, 53.35394
1005.215, 54.58355
1005.697, 55.76969
1006.179, 56.46738
1006.661, 57.02079
1007.143, 57.93020
1007.625, 59.13257
1008.107, 60.22528
1008.589, 61.02727
1009.072, 61.82627
1009.554, 62.82985
1010.036, 63.98134
1010.518, 65.13290
1011.000, 66.41215
1011.482, 68.09825
1011.964, 70.20844
1012.446, 72.57007
1012.929, 75.10951
1013.411, 77.87327
1013.893, 80.93034
1014.375, 84.25058
1014.857, 87.73300
1015.339, 91.43380
1015.821, 95.58894
1016.303, 100.2447
1016.785, 105.3782
1017.268, 111.0033
1017.750, 116.9550
1018.232, 122.9734
1018.714, 129.1465
1019.196, 135.9266
1019.678, 143.2719
1020.160, 150.8335
1020.642, 158.5596
1021.125, 166.8096
1021.607, 175.9651
1022.089, 185.7570
1022.571, 195.5081
1023.053, 205.3197
1023.535, 215.6627
1024.017, 226.5254
1024.499, 238.8131
1024.981, 252.9606
1025.464, 267.7679
1025.946, 282.1266
1026.428, 296.2251
1026.910, 310.8654
1027.392, 326.2452
1027.874, 340.3959
1028.356, 353.3843
1028.838, 364.7708
1029.321, 374.9640
1029.803, 381.8992
1030.285, 383.6383
1030.767, 380.4473
1031.249, 373.5364
1031.731, 362.6740
1032.213, 348.7471
1032.695, 331.3120
1033.177, 311.7139
1033.660, 289.5443
1034.142, 266.9473
1034.624, 246.1311
1035.106, 226.7923
1035.588, 207.9055
1036.070, 188.7275
1036.552, 171.8233
1037.034, 157.7234
1037.516, 145.0732
1037.999, 133.5787
1038.481, 123.2513
1038.963, 114.2050
1039.445, 106.3855
1039.927, 99.37443
1040.409, 93.28466
1040.891, 87.79772
1041.373, 83.06262
1041.855, 78.76428
1042.338, 74.89391
1042.820, 71.37452
1043.302, 68.06588
1043.784, 65.00989
1044.266, 62.43516
1044.748, 60.67691
1045.230, 58.86248
1045.712, 56.89079
1046.195, 54.93614
1046.677, 52.81979
1047.159, 50.92084
1047.641, 49.78851
1048.123, 49.31129
1048.605, 48.62664
1049.087, 47.61113
1049.569, 46.43327
1050.052, 45.00467
1050.534, 43.55606
1051.016, 41.94880
1051.498, 40.54746
1051.980, 39.85764
1052.462, 39.78827
1052.944, 39.67390
1053.426, 39.51954
1053.908, 39.06264
1054.391, 37.92607
1054.873, 36.84284
1055.355, 36.13354
1055.837, 35.70879
1056.319, 35.61177
1056.801, 35.71117
1057.283, 35.41297
1057.765, 34.23796
1058.248, 33.47578
1058.730, 33.98976
1059.212, 34.45758
1059.694, 34.01365
1060.176, 33.21297
1060.658, 32.67937
1061.140, 32.43624
1061.622, 32.22649
1062.104, 31.92463
1062.587, 31.81823
1063.069, 32.29424
1063.551, 32.67333
1064.033, 32.41601
1064.515, 31.94618
1064.997, 31.82582
1065.479, 31.97789
1065.961, 31.88299
1066.443, 31.31245
1066.926, 30.77828
1067.408, 30.36949
1067.890, 30.19366
1068.372, 30.59846
1068.854, 31.06506
1069.336, 30.93973
1069.818, 30.33577
1070.300, 29.79390
1070.782, 29.42967
1071.265, 29.32304
1071.747, 29.71150
1072.229, 30.13143
1072.711, 30.38996
1073.193, 30.46760
1073.675, 30.22452
1074.157, 29.80744
1074.639, 29.61156
1075.122, 29.77103
1075.604, 29.96314
1076.086, 30.06190
1076.568, 30.12536
1077.050, 30.23162
1077.532, 30.28480
1078.014, 30.09855
1078.496, 29.79058
1078.979, 29.69637
1079.461, 29.91574
1079.943, 30.06309
1080.425, 29.83718
1080.907, 29.64570
1081.389, 29.88674
1081.871, 30.12003
1082.353, 29.70445
1082.835, 29.00794
1083.318, 28.96119
1083.800, 29.76226
1084.282, 30.39065
1084.764, 30.18954
1085.246, 29.98847
1085.728, 30.28694
1086.210, 30.68412
1086.692, 30.84942
1087.175, 30.84470
1087.657, 30.83878
1088.139, 30.85764
1088.621, 30.78598
1089.103, 30.53581
1089.585, 30.24496
1090.067, 29.72373
1090.549, 29.43127
1091.031, 29.98217
1091.514, 30.85989
1091.996, 31.26513
1092.478, 31.12756
1092.960, 30.92187
1093.442, 30.71212
1093.924, 30.63241
1094.406, 30.72239
1094.888, 30.96909
1095.370, 31.61805
1095.853, 32.25417
1096.335, 32.21072
1096.817, 31.60820
1097.299, 31.34870
1097.781, 31.82039
1098.263, 32.26024
1098.745, 32.47962
1099.227, 32.54567
1099.709, 32.29531
1100.192, 32.06133
1100.674, 32.27566
1101.156, 32.81434
1101.638, 33.16898
1102.120, 33.18678
1102.602, 33.23785
1103.084, 33.28843
1103.566, 33.54720
1104.049, 34.36089
1104.531, 35.18093
1105.013, 35.46368
1105.495, 35.40446
1105.977, 35.55737
1106.459, 36.04956
1106.941, 36.33315
1107.423, 36.10072
1107.906, 35.95163
1108.388, 36.17123
1108.870, 36.39350
1109.352, 36.25557
1109.834, 36.00978
1110.316, 36.14639
1110.798, 36.71447
1111.280, 37.15873
1111.762, 37.26051
1112.245, 37.50362
1112.727, 38.36437
1113.209, 38.90276
1113.691, 38.20917
1114.173, 37.22600
1114.655, 37.26454
1115.137, 38.23397
1115.619, 38.85523
1116.102, 38.96452
1116.584, 39.01014
1117.066, 39.01424
1117.548, 38.92635
1118.030, 38.66186
1118.512, 38.36682
1118.994, 38.15287
1119.476, 38.02634
1119.958, 38.01624
1120.441, 38.14239
1120.923, 38.34919
1121.405, 38.82281
1121.887, 38.93174
1122.369, 38.29903
1122.851, 37.66780
1123.333, 37.64254
1123.815, 37.94250
1124.297, 37.95781
1124.780, 37.67903
1125.262, 37.21714
1125.744, 36.48060
1126.226, 35.93255
1126.708, 35.71558
1127.190, 35.46792
1127.672, 34.95759
1128.154, 34.39096
1128.636, 34.06866
1129.119, 33.96906
1129.601, 33.91161
1130.083, 33.89063
1130.565, 34.02478
1131.047, 34.36509
1131.529, 34.45267
1132.011, 34.07002
1132.493, 33.60829
1132.976, 33.46544
1133.458, 33.54137
1133.940, 33.56799
1134.422, 33.54562
1134.904, 33.43779
1135.386, 33.25358
1135.868, 33.22681
1136.350, 33.41702
1136.833, 33.59968
1137.315, 33.61936
1137.797, 33.52134
1138.279, 33.29427
1138.761, 33.03083
1139.243, 33.09636
1139.725, 33.42504
1140.207, 33.80016
1140.689, 34.14406
1141.172, 34.21692
1141.654, 33.91052
1142.136, 33.61056
1142.618, 33.77889
1143.100, 34.15788
1143.582, 34.36489
1144.064, 34.42745
1144.546, 34.26121
1145.029, 34.01849
1145.511, 34.24113
1145.993, 35.01020
1146.475, 35.58472
1146.957, 35.25361
1147.439, 35.06632
1147.921, 36.69766
1148.403, 38.52380
1148.885, 38.33303
1149.368, 36.97838
1149.850, 35.92696
1150.332, 35.47284
1150.814, 35.44351
1151.296, 35.81680
1151.778, 36.33529
1152.260, 37.07833
1152.742, 37.64037
1153.224, 37.55931
1153.707, 37.31078
1154.189, 37.40063
1154.671, 37.75175
1155.153, 38.04442
1155.635, 38.21300
1156.117, 38.56641
1156.599, 39.34574
1157.081, 40.11917
1157.563, 40.84363
1158.046, 41.42280
1158.528, 41.77042
1159.010, 41.95091
1159.492, 42.00923
1159.974, 41.96893
1160.456, 41.96558
1160.938, 41.82279
1161.420, 42.08553
1161.903, 43.23758
1162.385, 44.13324
1162.867, 44.34770
1163.349, 44.33076
1163.831, 44.42962
1164.313, 44.54830
1164.795, 44.38585
1165.277, 43.83968
1165.760, 43.92393
1166.242, 44.87532
1166.724, 45.72106
1167.206, 46.34191
1167.688, 46.72361
1168.170, 46.81033
1168.652, 46.77679
1169.134, 46.83678
1169.616, 46.97860
1170.099, 47.17411
1170.581, 47.42558
1171.063, 47.50716
1171.545, 47.40337
1172.027, 47.48386
1172.509, 47.86420
1172.991, 48.28768
1173.473, 48.53699
1173.956, 48.84505
1174.438, 49.95541
1174.920, 49.63934
1175.402, 51.08951
1175.884, 49.65532
1176.366, 49.01116
1176.848, 49.34209
1177.330, 49.83816
1177.813, 50.14773
1178.295, 50.45699
1178.777, 50.97106
1179.259, 51.52145
1179.741, 51.74774
1180.223, 51.98300
1180.705, 52.92043
1181.187, 54.17943
1181.669, 54.74109
1182.151, 54.59587
1182.634, 54.83865
1183.116, 56.08423
1183.598, 57.32436
1184.080, 57.86626
1184.562, 58.31902
1185.044, 58.98279
1185.526, 59.85273
1186.008, 61.02827
1186.490, 62.35915
1186.973, 63.51574
1187.455, 64.43098
1187.937, 65.34490
1188.419, 66.19093
1188.901, 67.21605
1189.383, 68.55486
1189.865, 69.98814
1190.347, 71.31684
1190.830, 72.75273
1191.312, 74.64700
1191.794, 76.85560
1192.276, 78.65869
1192.758, 79.90170
1193.240, 81.23634
1193.722, 82.51684
1194.204, 84.36582
1194.687, 87.05667
1195.169, 89.93393
1195.651, 92.62456
1196.133, 95.18328
1196.615, 97.67531
1197.097, 100.1303
1197.579, 102.7077
1198.061, 105.4401
1198.543, 108.7327
1199.026, 112.6022
1199.508, 116.5657
1199.990, 120.4527
1200.472, 124.7698
1200.954, 129.9511
1201.436, 135.4112
1201.918, 140.0391
1202.400, 144.4758
1202.883, 150.0000
1203.365, 156.3683
1203.847, 162.9057
1204.329, 169.6053
1204.811, 176.9733
1205.293, 185.1613
1205.775, 193.6390
1206.257, 201.9480
1206.740, 210.5520
1207.222, 219.6424
1207.704, 229.3208
1208.186, 239.9072
1208.668, 251.0023
1209.150, 261.8728
1209.632, 272.6974
1210.114, 284.7448
1210.596, 298.6664
1211.078, 312.4429
1211.561, 325.3350
1212.043, 338.6827
1212.525, 353.3460
1213.007, 368.1078
1213.489, 381.8486
1213.971, 395.4726
1214.453, 410.3965
1214.935, 426.5297
1215.417, 442.3124
1215.900, 457.7663
1216.382, 472.6977
1216.864, 486.9640
1217.346, 500.9702
1217.828, 514.9689
1218.310, 528.0790
1218.792, 539.7404
1219.274, 550.2694
1219.757, 560.8000
1220.239, 570.7454
1220.721, 577.1321
1221.203, 580.4393
1221.685, 583.0829
1222.167, 585.1667
1222.649, 585.4925
1223.131, 583.5904
1223.614, 579.3941
1224.096, 572.7689
1224.578, 564.0901
1225.060, 553.1513
1225.542, 540.9392
1226.024, 529.1397
1226.506, 516.6353
1226.988, 501.0907
1227.470, 483.3008
1227.953, 466.0959
1228.435, 450.3755
1228.917, 434.7431
1229.399, 418.2695
1229.881, 402.5161
1230.363, 387.9046
1230.845, 374.0678
1231.327, 360.4618
1231.810, 347.7298
1232.292, 336.7590
1232.774, 327.2743
1233.256, 318.3923
1233.738, 310.2036
1234.220, 302.1472
1234.702, 293.9746
1235.184, 286.8135
1235.667, 280.8004
1236.149, 276.3496
1236.631, 273.9351
1237.113, 272.0931
1237.595, 269.0255
1238.077, 265.2310
1238.559, 262.0655
1239.041, 259.4837
1239.523, 257.4862
1240.005, 255.8368
1240.488, 253.2314
1240.970, 249.6932
1241.452, 247.2284
1241.934, 246.8233
1242.416, 246.3296
1242.898, 243.6420
1243.380, 240.0548
1243.862, 236.5331
1244.344, 233.0908
1244.827, 229.8855
1245.309, 226.6600
1245.791, 222.9814
1246.273, 218.8461
1246.755, 214.5978
1247.237, 210.3893
1247.719, 205.8216
1248.201, 200.8974
1248.684, 195.4430
1249.166, 188.8657
1249.648, 182.3923
1250.130, 176.8058
1250.612, 171.6452
1251.094, 166.2425
1251.576, 160.6805
1252.058, 155.5567
1252.541, 150.8974
1253.023, 146.6055
1253.505, 142.7175
1253.987, 138.3722
1254.469, 133.3469
1254.951, 128.2755
1255.433, 123.5044
1255.915, 119.1690
1256.397, 115.4926
1256.880, 112.2754
1257.362, 109.3206
1257.844, 106.4516
1258.326, 102.9126
1258.808, 99.30519
1259.290, 97.50709
1259.772, 97.28808
1260.254, 96.02013
1260.737, 92.51657
1261.219, 88.95161
1261.701, 86.43517
1262.183, 84.19131
1262.665, 81.64303
1263.147, 79.42788
1263.629, 78.39716
1264.111, 77.74080
1264.594, 76.18728
1265.076, 73.90648
1265.558, 72.06490
1266.040, 70.68153
1266.522, 69.71738
1267.004, 69.34407
1267.486, 68.72384
1267.968, 67.60116
1268.450, 66.77221
1268.932, 66.72247
1269.415, 66.56670
1269.897, 65.18749
1270.379, 63.23548
1270.861, 62.27176
1271.343, 62.03333
1271.825, 61.83016
1272.307, 61.60990
1272.789, 61.33987
1273.271, 61.02316
1273.754, 60.76403
1274.236, 60.58695
1274.718, 60.09563
1275.200, 58.69219
1275.682, 57.41875
1276.164, 56.88375
1276.646, 56.70992
1277.128, 56.90857
1277.611, 57.10033
1278.093, 56.76727
1278.575, 56.08623
1279.057, 55.72374
1279.539, 55.75202
1280.021, 55.67369
1280.503, 55.38555
1280.985, 55.29746
1281.468, 55.58772
1281.950, 55.55297
1282.432, 54.84636
1282.914, 54.27519
1283.396, 54.57000
1283.878, 55.15873
1284.360, 54.90350
1284.842, 54.09155
1285.324, 53.54485
##END=



