##NAMES=Pyromorphite
##RRUFFID=R050015
##IDEAL CHEMISTRY=Pb^2+^_5_(PO_4_)_3_Cl
##LOCALITY=Bunker Hill mine, Shoshone County, Idaho, USA
##OWNER=RRUFF
##SOURCE=Eugene Schlepp
##DESCRIPTION=Yellowish green prismatic hexagonal single crystals
##STATUS=The identification of this mineral has been confirmed by X-ray diffraction and chemical analysis
##URL=rruff.info/R050015
##MEASURED CHEMISTRY=Pb_5.00_((P_0.88_As_0.12_)O_4_)_3_Cl_1.00_
63.64752, 9.757082
64.12964, 6.702970
64.61176, 4.633851
65.09387, 3.690393
65.57599, 3.894189
66.05811, 4.343469
66.54022, 5.402040
67.02234, 6.402861
67.50446, 6.989526
67.98657, 7.267164
68.46869, 7.643148
68.95081, 8.573550
69.43292, 10.24896
69.91504, 11.92202
70.39716, 15.04319
70.87927, 17.20498
71.36139, 16.22790
71.84351, 11.90633
72.32562, 6.330622
72.80774, 2.607195
73.28986, 1.391812
73.77197, 1.385973
74.25409, 3.761562
74.73621, 6.942801
75.21832, 9.136472
75.70044, 9.669263
76.18256, 9.034226
76.66467, 8.192000
77.14679, 6.845736
77.62891, 5.898850
78.11102, 6.075756
78.59314, 6.947233
79.07526, 7.081011
79.55737, 5.206279
80.03949, 2.804956
80.52161, 3.051986
81.00372, 7.146821
81.48584, 11.94303
81.96796, 15.65920
82.45007, 18.29953
82.93219, 19.36987
83.41431, 17.88227
83.89642, 14.80040
84.37854, 11.06452
84.86066, 5.831573
85.34277, 1.050299
85.82489, 0.1768652
86.30701, 4.572703
86.78912, 9.178702
87.27124, 12.27503
87.75336, 14.05002
88.23547, 14.39472
88.71759, 12.58329
89.19971, 9.474196
89.68182, 8.575871
90.16394, 12.13081
90.64606, 15.04120
91.12817, 15.26993
91.61029, 13.68810
92.09241, 11.87079
92.57452, 10.92623
93.05664, 10.86240
93.53876, 10.92326
94.02087, 11.37751
94.50299, 11.71893
94.98511, 11.54045
95.46722, 11.04514
95.94934, 10.82531
96.43146, 11.53408
96.91357, 13.47068
97.39569, 14.97596
97.87781, 16.40877
98.35992, 17.25097
98.84204, 16.72996
99.32416, 15.02327
99.80627, 13.34222
100.2884, 13.25453
100.7705, 15.69990
101.2526, 17.50038
101.7347, 19.07136
102.2169, 19.82079
102.6990, 18.45889
103.1811, 14.79036
103.6632, 11.01135
104.1453, 11.09214
104.6274, 17.51490
105.1096, 21.45903
105.5917, 20.55363
106.0738, 17.07815
106.5559, 13.82477
107.0380, 11.55333
107.5201, 10.27286
108.0023, 10.28821
108.4844, 11.70567
108.9665, 13.40390
109.4486, 15.46703
109.9307, 17.57384
110.4128, 18.70470
110.8950, 18.09374
111.3771, 16.82308
111.8592, 16.90681
112.3413, 18.85821
112.8234, 20.52013
113.3055, 20.01311
113.7877, 17.62299
114.2698, 16.02068
114.7519, 16.53785
115.2340, 18.20237
115.7161, 19.65913
116.1982, 20.58275
116.6804, 21.86667
117.1625, 25.41981
117.6446, 31.87040
118.1267, 35.61744
118.6088, 30.14257
119.0909, 22.85683
119.5731, 20.25509
120.0552, 24.84237
120.5373, 32.46965
121.0194, 36.27111
121.5015, 34.01273
121.9836, 34.35980
122.4658, 43.09523
122.9479, 54.19614
123.4300, 61.77592
123.9121, 63.19056
124.3942, 60.75980
124.8763, 59.81870
125.3585, 60.39131
125.8406, 62.69563
126.3227, 67.37876
126.8048, 73.27645
127.2869, 79.19596
127.7690, 84.50984
128.2512, 89.35179
128.7333, 94.11610
129.2154, 99.50638
129.6975, 103.8262
130.1796, 105.1977
130.6617, 105.6571
131.1439, 108.4355
131.6260, 115.8684
132.1081, 126.9291
132.5902, 133.5284
133.0723, 130.6427
133.5544, 128.1697
134.0366, 127.1635
134.5187, 127.9049
135.0008, 130.9740
135.4829, 137.1257
135.9650, 146.0619
136.4471, 150.9989
136.9293, 146.8212
137.4114, 144.2515
137.8935, 146.4678
138.3756, 152.9104
138.8577, 162.0572
139.3398, 173.2812
139.8220, 186.6425
140.3041, 196.3495
140.7862, 197.0684
141.2683, 199.9926
141.7504, 211.9695
142.2325, 231.1275
142.7147, 249.9654
143.1968, 262.7184
143.6789, 269.0853
144.1610, 276.5677
144.6431, 285.4292
145.1252, 294.9951
145.6074, 304.6850
146.0895, 314.5950
146.5716, 325.5320
147.0537, 338.3996
147.5358, 353.2527
148.0179, 367.3376
148.5001, 381.5886
148.9822, 394.4135
149.4643, 405.1091
149.9464, 413.6183
150.4285, 419.0724
150.9106, 419.3286
151.3928, 415.0461
151.8749, 414.1285
152.3570, 420.0290
152.8391, 427.6555
153.3212, 432.3364
153.8033, 433.6797
154.2855, 434.1080
154.7676, 435.6128
155.2497, 437.8138
155.7318, 439.0490
156.2139, 436.4866
156.6960, 434.1000
157.1782, 437.0613
157.6603, 446.1412
158.1424, 456.8933
158.6245, 466.6282
159.1066, 475.4587
159.5887, 483.4199
160.0709, 488.2578
160.5530, 493.0422
161.0351, 503.2076
161.5172, 520.2725
161.9993, 537.2806
162.4814, 549.2167
162.9636, 557.5375
163.4457, 564.4778
163.9278, 569.1426
164.4099, 573.2858
164.8920, 580.1999
165.3741, 590.4367
165.8563, 601.9091
166.3384, 614.8242
166.8205, 627.9439
167.3026, 638.9239
167.7847, 645.7463
168.2668, 650.2073
168.7490, 656.1625
169.2311, 663.8917
169.7132, 672.6415
170.1953, 682.3888
170.6774, 692.7470
171.1595, 703.2552
171.6417, 714.3231
172.1238, 725.1500
172.6059, 733.6149
173.0880, 739.1231
173.5701, 743.2979
174.0522, 746.1240
174.5344, 748.4304
175.0165, 751.5624
175.4986, 756.9073
175.9807, 763.0751
176.4628, 765.4364
176.9449, 760.1165
177.4271, 758.3568
177.9092, 766.3517
178.3913, 779.4675
178.8734, 791.8141
179.3555, 801.1783
179.8376, 807.4589
180.3197, 809.4710
180.8019, 802.3406
181.2840, 799.8550
181.7661, 811.7222
182.2482, 828.3940
182.7303, 836.9931
183.2124, 829.6686
183.6946, 812.9427
184.1767, 806.2281
184.6588, 816.7438
185.1409, 824.9783
185.6230, 824.5992
186.1051, 819.8569
186.5873, 815.4244
187.0694, 813.3983
187.5515, 813.1123
188.0336, 812.8873
188.5157, 813.0682
188.9978, 812.6572
189.4800, 811.4837
189.9621, 809.7169
190.4442, 808.0027
190.9263, 806.8115
191.4084, 804.7065
191.8905, 797.1932
192.3727, 777.5894
192.8548, 764.7737
193.3369, 764.7976
193.8190, 770.4866
194.3011, 775.8817
194.7832, 778.6759
195.2654, 778.6565
195.7475, 774.6354
196.2296, 762.3464
196.7117, 754.1525
197.1938, 752.7916
197.6759, 754.7852
198.1581, 758.0181
198.6402, 761.6554
199.1223, 764.5688
199.6044, 764.4029
200.0865, 759.3339
200.5686, 754.6787
201.0508, 751.4303
201.5329, 748.3828
202.0150, 743.8340
202.4971, 737.5422
202.9792, 731.9186
203.4613, 731.3712
203.9435, 739.1517
204.4256, 744.7511
204.9077, 747.4782
205.3898, 748.4138
205.8719, 748.1310
206.3540, 746.8054
206.8362, 744.4438
207.3183, 740.3102
207.8004, 731.9759
208.2825, 728.4216
208.7646, 733.9101
209.2467, 740.3098
209.7289, 743.4430
210.2110, 742.5765
210.6931, 739.0162
211.1752, 733.4819
211.6573, 724.4290
212.1395, 719.3518
212.6216, 721.9910
213.1037, 725.1360
213.5858, 723.8789
214.0679, 719.1616
214.5500, 716.2700
215.0322, 721.3698
215.5143, 736.3335
215.9964, 746.6962
216.4785, 746.4982
216.9606, 747.3312
217.4427, 754.9155
217.9249, 767.6826
218.4070, 780.4514
218.8891, 789.3134
219.3712, 794.2719
219.8533, 795.0822
220.3354, 782.3621
220.8176, 774.5796
221.2997, 781.2306
221.7818, 796.7419
222.2639, 809.2427
222.7460, 809.5815
223.2281, 799.3730
223.7103, 796.0704
224.1924, 808.6232
224.6745, 818.6855
225.1566, 819.3312
225.6387, 815.7100
226.1208, 816.1359
226.6030, 825.8196
227.0851, 842.1375
227.5672, 854.0038
228.0493, 858.2885
228.5314, 862.0054
229.0135, 867.4261
229.4957, 872.5807
229.9778, 874.2446
230.4599, 870.7941
230.9420, 865.3718
231.4241, 866.1008
231.9062, 877.2596
232.3884, 887.5247
232.8705, 893.7750
233.3526, 899.4816
233.8347, 908.2060
234.3168, 921.0074
234.7989, 935.5421
235.2811, 947.6196
235.7632, 956.1298
236.2453, 964.8320
236.7274, 973.4078
237.2095, 982.7509
237.6916, 993.6265
238.1738, 1006.120
238.6559, 1019.695
239.1380, 1035.373
239.6201, 1056.028
240.1022, 1067.887
240.5843, 1060.434
241.0665, 1052.303
241.5486, 1052.009
242.0307, 1059.940
242.5128, 1071.838
242.9949, 1084.280
243.4770, 1097.359
243.9592, 1110.129
244.4413, 1122.790
244.9234, 1135.019
245.4055, 1146.341
245.8876, 1157.108
246.3697, 1167.989
246.8519, 1179.109
247.3340, 1190.740
247.8161, 1205.109
248.2982, 1226.704
248.7803, 1244.917
249.2624, 1254.517
249.7446, 1258.989
250.2267, 1263.416
250.7088, 1269.664
251.1909, 1278.634
251.6730, 1294.338
252.1551, 1322.503
252.6373, 1345.685
253.1194, 1353.058
253.6015, 1355.236
254.0836, 1364.456
254.5657, 1386.112
255.0478, 1412.507
255.5300, 1430.845
256.0121, 1438.644
256.4942, 1447.614
256.9763, 1464.305
257.4584, 1481.545
257.9406, 1493.364
258.4227, 1498.342
258.9048, 1502.060
259.3869, 1511.453
259.8690, 1526.921
260.3511, 1538.784
260.8333, 1540.519
261.3154, 1542.431
261.7975, 1553.275
262.2796, 1572.773
262.7617, 1592.150
263.2438, 1606.477
263.7260, 1615.812
264.2081, 1619.525
264.6902, 1614.131
265.1723, 1608.287
265.6544, 1608.860
266.1365, 1614.290
266.6187, 1619.548
267.1008, 1623.388
267.5829, 1625.254
268.0650, 1622.914
268.5471, 1614.827
269.0292, 1607.423
269.5114, 1607.419
269.9935, 1610.987
270.4756, 1611.427
270.9577, 1604.788
271.4398, 1596.146
271.9219, 1591.712
272.4041, 1591.620
272.8862, 1590.973
273.3683, 1588.015
273.8504, 1582.469
274.3325, 1574.103
274.8146, 1561.403
275.2968, 1548.567
275.7789, 1538.239
276.2610, 1530.108
276.7431, 1522.766
277.2252, 1515.609
277.7073, 1509.236
278.1895, 1505.046
278.6716, 1503.660
279.1537, 1501.211
279.6358, 1498.189
280.1179, 1492.778
280.6000, 1479.189
281.0822, 1454.650
281.5643, 1431.035
282.0464, 1425.033
282.5285, 1438.556
283.0106, 1445.502
283.4927, 1438.469
283.9749, 1426.484
284.4570, 1418.076
284.9391, 1413.703
285.4212, 1407.696
285.9033, 1394.149
286.3854, 1373.490
286.8676, 1361.248
287.3497, 1366.359
287.8318, 1370.408
288.3139, 1363.378
288.7960, 1347.900
289.2781, 1331.280
289.7603, 1317.074
290.2424, 1305.570
290.7245, 1298.511
291.2066, 1301.239
291.6887, 1301.490
292.1708, 1295.226
292.6530, 1286.274
293.1351, 1280.134
293.6172, 1278.658
294.0993, 1278.320
294.5814, 1272.910
295.0635, 1260.147
295.5457, 1246.004
296.0278, 1222.484
296.5099, 1203.434
296.9920, 1202.647
297.4741, 1219.111
297.9562, 1238.445
298.4384, 1245.845
298.9205, 1239.735
299.4026, 1232.311
299.8847, 1218.748
300.3668, 1208.700
300.8489, 1208.874
301.3310, 1215.162
301.8131, 1218.272
302.2953, 1211.318
302.7774, 1197.088
303.2595, 1190.221
303.7416, 1196.704
304.2237, 1202.045
304.7058, 1203.688
305.1880, 1202.606
305.6701, 1199.193
306.1522, 1193.497
306.6343, 1187.473
307.1164, 1184.742
307.5985, 1186.432
308.0807, 1187.245
308.5628, 1184.623
309.0449, 1181.987
309.5270, 1181.355
310.0091, 1182.909
310.4912, 1185.612
310.9734, 1188.957
311.4555, 1192.865
311.9376, 1196.403
312.4197, 1199.526
312.9018, 1202.184
313.3839, 1206.626
313.8661, 1210.927
314.3482, 1209.724
314.8303, 1197.946
315.3124, 1180.357
315.7945, 1163.029
316.2766, 1144.708
316.7588, 1134.443
317.2409, 1144.405
317.7230, 1163.401
318.2051, 1172.542
318.6872, 1166.224
319.1693, 1155.689
319.6515, 1147.676
320.1336, 1142.102
320.6157, 1138.546
321.0978, 1137.103
321.5799, 1137.332
322.0620, 1139.526
322.5442, 1144.534
323.0263, 1146.486
323.5084, 1141.534
323.9905, 1133.532
324.4726, 1127.221
324.9547, 1123.377
325.4369, 1120.984
325.9190, 1119.523
326.4011, 1119.143
326.8832, 1116.748
327.3653, 1110.487
327.8474, 1103.982
328.3296, 1098.848
328.8117, 1095.126
329.2938, 1092.699
329.7759, 1091.618
330.2580, 1091.528
330.7401, 1090.855
331.2223, 1090.559
331.7044, 1088.458
332.1865, 1084.222
332.6686, 1078.107
333.1507, 1068.462
333.6328, 1055.393
334.1150, 1044.040
334.5971, 1043.572
335.0792, 1062.059
335.5613, 1069.255
336.0434, 1057.514
336.5255, 1042.694
337.0077, 1030.792
337.4898, 1022.888
337.9719, 1018.841
338.4540, 1019.527
338.9361, 1024.155
339.4182, 1025.278
339.9004, 1019.527
340.3825, 1015.220
340.8646, 1016.515
341.3467, 1019.862
341.8288, 1021.010
342.3109, 1018.441
342.7931, 1012.839
343.2752, 1003.478
343.7573, 989.1506
344.2394, 979.9672
344.7215, 984.9988
345.2036, 990.6423
345.6858, 983.8809
346.1679, 964.5001
346.6500, 947.0582
347.1321, 942.2170
347.6142, 946.2882
348.0963, 949.5978
348.5785, 951.5606
349.0606, 951.6809
349.5427, 949.2665
350.0248, 944.6367
350.5069, 938.3932
350.9890, 927.4908
351.4712, 917.4715
351.9533, 914.1068
352.4354, 916.1861
352.9175, 917.1061
353.3996, 913.3110
353.8817, 906.9629
354.3639, 904.3340
354.8460, 908.9496
355.3281, 909.2851
355.8102, 896.5876
356.2923, 881.0544
356.7744, 877.1019
357.2566, 887.1292
357.7387, 899.3605
358.2208, 900.0897
358.7029, 886.2913
359.1850, 877.6689
359.6671, 877.5349
360.1493, 878.4731
360.6314, 878.6898
361.1135, 877.3162
361.5956, 872.8156
362.0777, 863.9427
362.5598, 852.3504
363.0420, 843.9556
363.5241, 839.3609
364.0062, 837.3854
364.4883, 838.6174
364.9704, 841.5878
365.4525, 846.5563
365.9347, 852.9750
366.4168, 857.2142
366.8989, 853.9001
367.3810, 842.4144
367.8631, 833.1186
368.3452, 825.7533
368.8274, 821.6813
369.3095, 822.8281
369.7916, 827.4769
370.2737, 831.7206
370.7558, 834.5392
371.2379, 835.2557
371.7201, 831.5224
372.2022, 822.7408
372.6843, 815.3715
373.1664, 812.6789
373.6485, 812.7545
374.1306, 812.4315
374.6128, 811.3672
375.0949, 810.8218
375.5770, 811.8752
376.0591, 813.8401
376.5412, 814.9756
377.0233, 814.7421
377.5055, 815.2277
377.9876, 819.3555
378.4697, 827.6411
378.9518, 832.2332
379.4339, 829.6439
379.9160, 826.3779
380.3982, 826.9803
380.8803, 830.1937
381.3624, 831.5522
381.8445, 828.3178
382.3266, 822.7119
382.8087, 821.4819
383.2909, 828.3710
383.7730, 835.0930
384.2551, 842.8229
384.7372, 849.4280
385.2193, 852.6049
385.7014, 852.3482
386.1836, 851.1875
386.6657, 852.4803
387.1478, 856.6250
387.6299, 855.0494
388.1120, 837.1955
388.5941, 826.0856
389.0763, 833.4228
389.5584, 851.1394
390.0405, 867.0485
390.5226, 876.6149
391.0047, 880.6037
391.4868, 878.7397
391.9690, 870.2448
392.4511, 863.5313
392.9332, 862.5994
393.4153, 862.6818
393.8974, 859.3265
394.3795, 852.4757
394.8617, 844.6016
395.3438, 835.4330
395.8259, 826.5203
396.3080, 820.7495
396.7901, 818.4969
397.2722, 817.2691
397.7544, 814.9011
398.2365, 812.2055
398.7186, 812.8014
399.2007, 820.7798
399.6828, 827.3932
400.1649, 827.0173
400.6471, 823.5645
401.1292, 823.9440
401.6113, 830.4567
402.0934, 839.8005
402.5755, 847.6024
403.0576, 854.8079
403.5398, 856.8964
404.0219, 849.8336
404.5040, 842.1631
404.9861, 836.5403
405.4682, 833.9766
405.9503, 836.0880
406.4325, 844.4161
406.9146, 856.9550
407.3967, 866.4966
407.8788, 872.0861
408.3609, 876.5075
408.8430, 884.7161
409.3252, 889.2669
409.8073, 880.5639
410.2894, 858.3209
410.7715, 837.6699
411.2536, 834.3533
411.7357, 844.6824
412.2179, 849.8629
412.7000, 847.8986
413.1821, 842.6526
413.6642, 835.1475
414.1463, 826.3303
414.6284, 818.2150
415.1106, 811.5041
415.5927, 805.1253
416.0748, 797.2043
416.5569, 788.8250
417.0390, 784.2362
417.5211, 785.6411
418.0033, 788.5909
418.4854, 786.2191
418.9675, 776.5519
419.4496, 768.0226
419.9317, 760.6559
420.4138, 754.7661
420.8960, 750.8323
421.3781, 748.5806
421.8602, 747.5968
422.3423, 747.9058
422.8244, 748.6005
423.3065, 745.5011
423.7887, 733.8159
424.2708, 725.8665
424.7529, 723.2235
425.2350, 724.2094
425.7171, 730.1176
426.1992, 739.7657
426.6814, 746.3033
427.1635, 739.7991
427.6456, 721.9278
428.1277, 714.6824
428.6098, 724.1735
429.0919, 732.5811
429.5741, 726.6002
430.0562, 714.7875
430.5383, 710.8546
431.0204, 721.6405
431.5025, 733.0576
431.9846, 731.8516
432.4668, 721.3105
432.9489, 713.2532
433.4310, 710.9274
433.9131, 711.0100
434.3952, 709.2842
434.8773, 705.3499
435.3595, 704.6636
435.8416, 713.4472
436.3237, 720.2212
436.8058, 714.6154
437.2879, 701.1364
437.7701, 692.2388
438.2522, 694.5654
438.7343, 703.5944
439.2164, 707.7417
439.6985, 703.1887
440.1806, 700.4403
440.6628, 699.9583
441.1449, 700.8868
441.6270, 703.4700
442.1091, 707.1088
442.5912, 710.1373
443.0733, 711.0290
443.5555, 710.4254
444.0376, 711.0839
444.5197, 713.8260
445.0018, 715.5242
445.4839, 714.2535
445.9660, 711.6929
446.4482, 709.2740
446.9303, 707.1595
447.4124, 705.3455
447.8945, 704.7045
448.3766, 704.1896
448.8587, 700.5838
449.3409, 693.1223
449.8230, 687.2072
450.3051, 687.5416
450.7872, 693.5459
451.2693, 698.1306
451.7514, 702.2687
452.2336, 704.0052
452.7157, 700.1375
453.1978, 694.3895
453.6799, 693.0088
454.1620, 697.4484
454.6441, 702.3296
455.1263, 700.0316
455.6084, 688.5456
456.0905, 681.2988
456.5726, 682.3986
457.0547, 683.7781
457.5368, 682.9857
458.0190, 680.8895
458.5011, 679.1490
458.9832, 678.5116
459.4653, 678.2230
459.9474, 676.5718
460.4295, 673.5095
460.9117, 673.1945
461.3938, 678.5142
461.8759, 683.9319
462.3580, 684.0891
462.8401, 679.8669
463.3222, 675.6163
463.8044, 673.8575
464.2865, 671.4911
464.7686, 663.6229
465.2507, 652.2028
465.7328, 645.5247
466.2149, 647.7503
466.6971, 654.6042
467.1792, 657.7891
467.6613, 655.2287
468.1434, 653.1329
468.6255, 653.2983
469.1076, 652.3723
469.5898, 646.2002
470.0719, 636.9456
470.5540, 630.9378
471.0361, 632.4470
471.5182, 639.0493
472.0003, 644.1115
472.4825, 647.9260
472.9646, 649.2881
473.4467, 643.0010
473.9288, 637.7474
474.4109, 641.7783
474.8930, 654.1223
475.3752, 663.1212
475.8573, 657.8651
476.3394, 646.6943
476.8215, 646.3494
477.3036, 657.3110
477.7857, 662.6089
478.2679, 650.9458
478.7500, 630.5905
479.2321, 622.5567
479.7142, 632.5239
480.1963, 638.6154
480.6784, 630.8749
481.1606, 621.3892
481.6427, 622.7731
482.1248, 634.4291
482.6069, 646.6880
483.0890, 652.6727
483.5711, 652.8829
484.0533, 649.7235
484.5354, 638.6705
485.0175, 631.8085
485.4996, 632.5640
485.9817, 636.4056
486.4638, 640.7135
486.9460, 644.7543
487.4281, 647.5385
487.9102, 647.5704
488.3923, 645.7885
488.8744, 645.2558
489.3565, 646.2817
489.8387, 646.8388
490.3208, 645.3972
490.8029, 643.1125
491.2850, 642.8042
491.7671, 645.9725
492.2492, 646.7934
492.7314, 640.6346
493.2135, 632.5955
493.6956, 628.5905
494.1777, 629.0262
494.6598, 630.9069
495.1419, 632.1367
495.6241, 632.7371
496.1062, 632.8406
496.5883, 631.6267
497.0704, 631.0847
497.5525, 633.0469
498.0346, 634.6088
498.5168, 632.8076
498.9989, 627.6935
499.4810, 622.1909
499.9631, 618.2918
500.4452, 615.9391
500.9273, 615.4926
501.4095, 617.6069
501.8916, 618.6901
502.3737, 615.3052
502.8558, 611.1556
503.3379, 613.0827
503.8200, 623.5147
504.3022, 630.1539
504.7843, 624.8350
505.2664, 615.3329
505.7485, 611.2581
506.2306, 612.7076
506.7127, 613.1858
507.1949, 607.8300
507.6770, 598.7573
508.1591, 595.3956
508.6412, 603.9877
509.1233, 609.2424
509.6054, 606.3981
510.0876, 603.1205
510.5697, 605.6886
511.0518, 613.6725
511.5339, 621.9520
512.0161, 626.6624
512.4982, 629.1413
512.9803, 634.1058
513.4624, 642.6051
513.9445, 646.7763
514.4266, 641.8654
514.9088, 632.8903
515.3909, 626.2805
515.8730, 622.1265
516.3551, 618.7897
516.8372, 614.1061
517.3193, 611.2269
517.8015, 615.9426
518.2836, 625.8467
518.7657, 630.6244
519.2478, 624.2861
519.7299, 611.8336
520.2120, 605.3845
520.6942, 609.4381
521.1763, 610.9441
521.6584, 606.9800
522.1405, 603.4926
522.6226, 604.5777
523.1047, 608.7936
523.5869, 611.7407
524.0690, 610.5323
524.5511, 608.2172
525.0332, 610.8015
525.5153, 618.2378
525.9974, 622.9117
526.4796, 622.7065
526.9617, 619.7024
527.4438, 614.9859
527.9259, 608.8394
528.4080, 604.1747
528.8901, 600.9920
529.3723, 599.7993
529.8544, 602.7818
530.3365, 607.6111
530.8186, 609.9527
531.3007, 608.3285
531.7828, 603.8713
532.2650, 597.0129
532.7471, 586.0173
533.2292, 583.4820
533.7113, 598.7506
534.1934, 611.9573
534.6755, 617.1130
535.1577, 616.6561
535.6398, 613.1570
536.1219, 606.9208
536.6040, 601.7105
537.0861, 601.3098
537.5682, 604.7579
538.0504, 609.7957
538.5325, 616.5542
539.0146, 621.7046
539.4967, 622.5214
539.9788, 619.7333
540.4609, 617.1374
540.9431, 615.9608
541.4252, 613.2618
541.9073, 605.5599
542.3894, 597.9349
542.8715, 595.9004
543.3536, 599.3961
543.8358, 604.3067
544.3179, 607.7316
544.8000, 609.5576
545.2821, 608.7786
545.7642, 603.8870
546.2463, 600.5839
546.7285, 603.9767
547.2106, 606.6845
547.6926, 600.1521
548.1747, 585.4588
548.6569, 576.5432
549.1390, 583.6285
549.6211, 596.6528
550.1032, 606.3033
550.5853, 612.4086
551.0674, 615.0920
551.5496, 614.2672
552.0317, 610.7882
552.5138, 605.5938
552.9959, 597.0191
553.4780, 592.4518
553.9601, 595.6611
554.4423, 598.2279
554.9244, 594.7023
555.4065, 588.9427
555.8886, 587.9931
556.3707, 594.5712
556.8528, 602.4805
557.3350, 604.4900
557.8171, 601.0681
558.2992, 595.3436
558.7813, 586.5055
559.2634, 578.7983
559.7455, 574.9179
560.2277, 574.4613
560.7098, 575.7098
561.1919, 580.7559
561.6740, 583.8165
562.1561, 582.1896
562.6382, 578.2296
563.1204, 572.7076
563.6025, 566.8791
564.0846, 564.7271
564.5667, 569.6590
565.0488, 579.6263
565.5309, 586.8095
566.0131, 591.0832
566.4952, 592.8748
566.9773, 589.8751
567.4594, 586.2690
567.9415, 585.6021
568.4236, 586.9874
568.9058, 585.8688
569.3879, 577.1691
569.8700, 567.9559
570.3521, 564.3187
570.8342, 566.0514
571.3163, 574.7338
571.7985, 591.6684
572.2806, 607.3728
572.7627, 609.7762
573.2448, 597.2637
573.7269, 586.6588
574.2090, 574.9756
574.6912, 568.5132
575.1733, 573.2050
575.6554, 581.6617
576.1375, 585.4761
576.6196, 582.9413
577.1017, 578.8647
577.5839, 577.7363
578.0660, 578.5546
578.5481, 577.5076
579.0302, 574.2133
579.5123, 572.2593
579.9944, 574.4785
580.4766, 577.9400
580.9587, 576.2268
581.4408, 567.7931
581.9229, 561.6693
582.4050, 558.4934
582.8871, 558.5677
583.3693, 565.1268
583.8514, 574.7209
584.3335, 580.1311
584.8156, 577.9894
585.2977, 571.9295
585.7798, 567.8173
586.2620, 565.9999
586.7441, 561.8052
587.2262, 552.9839
587.7083, 545.0513
588.1904, 541.9602
588.6725, 541.5854
589.1547, 540.1620
589.6368, 535.7023
590.1189, 534.1297
590.6010, 541.2028
591.0831, 551.1961
591.5652, 557.4234
592.0474, 559.1692
592.5295, 557.6207
593.0116, 553.2427
593.4937, 547.0021
593.9758, 541.6617
594.4579, 536.8893
594.9401, 533.8714
595.4222, 534.2911
595.9043, 535.1022
596.3864, 535.1886
596.8685, 534.4533
597.3506, 532.6541
597.8328, 528.8077
598.3149, 525.6390
598.7970, 527.5768
599.2791, 531.9448
599.7612, 530.9167
600.2433, 522.9617
600.7255, 514.0775
601.2076, 509.0283
601.6897, 507.5940
602.1718, 508.0301
602.6539, 513.9169
603.1360, 516.7141
603.6182, 513.6774
604.1003, 509.0427
604.5824, 505.9859
605.0645, 504.3908
605.5466, 501.9933
606.0287, 496.0162
606.5109, 490.5172
606.9930, 493.3703
607.4751, 503.3228
607.9572, 510.4548
608.4393, 512.3484
608.9214, 510.6822
609.4036, 506.2928
609.8857, 499.1640
610.3678, 494.4758
610.8499, 493.1429
611.3320, 492.8461
611.8141, 494.9958
612.2963, 496.7083
612.7784, 493.5414
613.2605, 486.1814
613.7426, 481.2954
614.2247, 486.4805
614.7068, 495.5847
615.1890, 490.5068
615.6711, 470.3361
616.1532, 456.9595
616.6353, 458.2339
617.1174, 465.8398
617.5995, 472.2401
618.0817, 477.4133
618.5638, 477.8243
619.0459, 469.2124
619.5280, 460.5908
620.0101, 455.0409
620.4922, 451.6306
620.9744, 449.3612
621.4565, 447.8424
621.9386, 446.6694
622.4207, 445.6243
622.9028, 444.5705
623.3849, 442.7732
623.8671, 439.9888
624.3492, 437.9897
624.8313, 437.9279
625.3134, 438.1716
625.7955, 436.2911
626.2776, 432.4325
626.7598, 429.9606
627.2419, 432.4063
627.7240, 433.0339
628.2061, 426.7946
628.6882, 417.2563
629.1703, 409.5638
629.6525, 404.9636
630.1346, 401.6844
630.6167, 398.1526
631.0988, 394.4393
631.5809, 391.0612
632.0630, 388.2820
632.5452, 384.5721
633.0273, 377.7552
633.5094, 371.4706
633.9915, 370.0238
634.4736, 373.1688
634.9557, 376.9762
635.4379, 380.9486
635.9200, 385.0900
636.4021, 391.8086
636.8842, 397.8045
637.3663, 396.7320
637.8484, 387.7881
638.3306, 377.2694
638.8127, 371.0617
639.2948, 368.8170
639.7769, 369.0171
640.2590, 372.4917
640.7411, 375.5999
641.2233, 378.4957
641.7054, 379.3856
642.1875, 375.5128
642.6696, 367.3238
643.1517, 360.4362
643.6339, 355.4948
644.1160, 352.6803
644.5981, 353.5057
645.0802, 355.9612
645.5623, 357.6483
646.0444, 357.7528
646.5266, 355.4461
647.0087, 349.1810
647.4908, 340.3354
647.9729, 335.5959
648.4550, 335.6763
648.9371, 337.3734
649.4193, 341.7205
649.9014, 345.4032
650.3835, 344.7260
650.8656, 340.2828
651.3477, 336.1028
651.8298, 333.6874
652.3120, 330.7194
652.7941, 323.6967
653.2762, 316.6261
653.7583, 316.9410
654.2404, 324.3234
654.7225, 329.2753
655.2047, 322.9023
655.6868, 309.9083
656.1689, 307.5842
656.6510, 318.4834
657.1331, 323.5889
657.6152, 314.8426
658.0974, 305.1495
658.5795, 308.5239
659.0616, 321.6140
659.5437, 329.3694
660.0258, 327.0152
660.5079, 323.4354
660.9901, 321.4969
661.4722, 319.9089
661.9543, 317.4558
662.4364, 313.9583
662.9185, 309.4308
663.4006, 303.6017
663.8828, 297.5530
664.3649, 293.5625
664.8470, 291.6591
665.3291, 291.0630
665.8112, 292.1264
666.2933, 293.3896
666.7755, 294.0690
667.2576, 294.0428
667.7397, 292.9768
668.2218, 290.9762
668.7039, 287.8023
669.1860, 281.0459
669.6682, 275.0419
670.1503, 273.9189
670.6324, 276.5381
671.1145, 279.2523
671.5966, 280.3788
672.0787, 280.0097
672.5609, 277.7880
673.0430, 273.9889
673.5251, 270.6317
674.0072, 267.9347
674.4893, 265.3686
674.9714, 262.3530
675.4536, 259.4511
675.9357, 258.1689
676.4178, 258.8294
676.8999, 260.4553
677.3820, 263.5428
677.8641, 267.0689
678.3463, 272.8504
678.8284, 277.9086
679.3105, 276.7000
679.7926, 267.4767
680.2747, 256.5945
680.7568, 249.4633
681.2390, 245.2973
681.7211, 242.5281
682.2032, 241.0629
682.6853, 240.5251
683.1674, 240.8605
683.6495, 241.7624
684.1317, 243.0413
684.6138, 245.2558
685.0959, 244.8409
685.5780, 236.7014
686.0601, 232.0613
686.5422, 236.9594
687.0244, 244.6425
687.5065, 248.5266
687.9886, 247.6924
688.4707, 244.2509
688.9528, 236.2153
689.4349, 228.6155
689.9171, 228.8391
690.3992, 234.2746
690.8813, 236.9109
691.3634, 234.6052
691.8455, 231.0902
692.3276, 230.0241
692.8098, 231.1862
693.2919, 232.8673
693.7740, 235.9492
694.2561, 237.5989
694.7382, 237.1732
695.2203, 235.2066
695.7025, 230.3533
696.1846, 224.0166
696.6667, 221.5750
697.1488, 228.6430
697.6309, 233.4280
698.1130, 226.6849
698.5952, 215.7950
699.0773, 209.6437
699.5594, 208.8881
700.0415, 210.2339
700.5236, 211.7955
701.0057, 213.4995
701.4879, 215.6650
701.9700, 218.4313
702.4521, 218.7118
702.9342, 215.7382
703.4163, 211.3584
703.8984, 204.8379
704.3806, 198.3956
704.8627, 198.2226
705.3448, 208.4500
705.8269, 212.6900
706.3090, 202.0255
706.7911, 191.4595
707.2733, 190.9189
707.7554, 196.3736
708.2375, 200.9685
708.7196, 202.4570
709.2017, 201.2972
709.6838, 195.5805
710.1660, 188.1160
710.6481, 186.8805
711.1302, 191.6262
711.6123, 196.7167
712.0944, 200.5446
712.5765, 202.2857
713.0587, 200.5701
713.5408, 195.2022
714.0229, 190.5466
714.5050, 187.4044
714.9871, 183.9159
715.4692, 178.1084
715.9514, 173.1591
716.4335, 172.3606
716.9156, 175.0439
717.3977, 177.4140
717.8798, 178.3002
718.3619, 177.8516
718.8441, 175.1053
719.3262, 171.5266
719.8083, 169.5959
720.2904, 169.5880
720.7725, 170.6629
721.2546, 172.3973
721.7368, 174.2630
722.2189, 174.3965
722.7010, 172.1121
723.1831, 173.5617
723.6652, 182.5294
724.1473, 188.6425
724.6295, 183.9828
725.1116, 173.3250
725.5937, 166.3524
726.0758, 163.5723
726.5579, 162.9852
727.0400, 165.5353
727.5222, 168.8450
728.0043, 172.7475
728.4864, 175.9877
728.9685, 176.4184
729.4506, 173.6508
729.9327, 169.9634
730.4149, 167.2157
730.8970, 165.1008
731.3791, 162.8623
731.8612, 160.5535
732.3433, 158.7711
732.8254, 157.7437
733.3076, 156.7473
733.7897, 154.6252
734.2718, 151.7024
734.7539, 152.4137
735.2360, 160.3937
735.7181, 165.9288
736.2003, 166.4994
736.6824, 165.7538
737.1645, 165.4063
737.6466, 165.5959
738.1287, 166.5863
738.6108, 169.3956
739.0930, 170.6839
739.5751, 166.9335
740.0572, 161.7548
740.5393, 159.3564
741.0214, 159.5191
741.5035, 160.4363
741.9857, 161.2736
742.4678, 161.2730
742.9499, 158.1898
743.4320, 152.5071
743.9141, 151.8117
744.3962, 157.3728
744.8784, 161.4038
745.3605, 160.7761
745.8426, 157.3637
746.3247, 153.0469
746.8068, 147.4491
747.2889, 144.6409
747.7711, 146.0473
748.2532, 148.1930
748.7353, 152.0405
749.2174, 154.9665
749.6995, 153.8995
750.1816, 149.5416
750.6638, 145.5936
751.1459, 143.8993
751.6280, 143.0474
752.1101, 141.9552
752.5922, 140.7014
753.0743, 138.3790
753.5565, 135.5633
754.0386, 136.9995
754.5207, 146.0382
755.0028, 156.7645
755.4849, 155.9610
755.9670, 141.7408
756.4492, 134.0599
756.9313, 135.1635
757.4134, 138.1742
757.8955, 141.4473
758.3776, 144.0209
758.8597, 144.0001
759.3419, 141.1205
759.8240, 138.9706
760.3061, 138.2302
760.7882, 137.7896
761.2703, 137.3697
761.7524, 136.9503
762.2346, 136.3062
762.7167, 135.5982
763.1988, 135.5561
763.6809, 136.7761
764.1630, 138.5116
764.6451, 140.5166
765.1273, 142.2593
765.6094, 142.1194
766.0915, 140.0386
766.5736, 137.4115
767.0557, 134.8980
767.5378, 133.2981
768.0200, 134.8852
768.5021, 140.4840
768.9842, 144.0513
769.4663, 144.3646
769.9484, 145.1326
770.4305, 149.2451
770.9127, 153.7983
771.3948, 154.0839
771.8769, 149.7199
772.3590, 146.5846
772.8411, 145.7034
773.3232, 145.7408
773.8054, 146.5051
774.2875, 147.7174
774.7696, 149.5760
775.2517, 151.7150
775.7338, 152.5870
776.2159, 150.3393
776.6981, 148.6256
777.1802, 152.5472
777.6623, 159.8881
778.1444, 166.9189
778.6265, 172.5720
779.1086, 172.8072
779.5908, 164.8237
780.0729, 153.9477
780.5550, 150.6412
781.0371, 155.8862
781.5192, 158.8195
782.0013, 158.5506
782.4835, 158.4114
782.9656, 160.1852
783.4477, 162.1852
783.9298, 161.4529
784.4119, 157.8549
784.8940, 157.4161
785.3762, 165.0162
785.8583, 169.8086
786.3404, 166.3735
786.8225, 160.9274
787.3046, 158.7124
787.7867, 159.4775
788.2689, 160.5629
788.7510, 161.2473
789.2331, 160.6549
789.7152, 157.4205
790.1973, 152.7482
790.6794, 147.9128
791.1616, 143.3867
791.6437, 140.5179
792.1258, 139.8652
792.6079, 139.7699
793.0900, 137.4379
793.5721, 133.3740
794.0543, 133.3854
794.5364, 138.4138
795.0185, 141.2345
795.5006, 138.6709
795.9827, 135.7049
796.4648, 137.8862
796.9470, 144.4838
797.4291, 147.5495
797.9112, 142.3738
798.3933, 140.4109
798.8754, 144.5992
799.3575, 149.7021
799.8397, 152.6369
800.3218, 154.3392
800.8039, 157.0518
801.2860, 161.4460
801.7681, 165.5923
802.2502, 168.2502
802.7324, 170.4795
803.2145, 172.2865
803.6966, 174.6844
804.1787, 179.8576
804.6608, 188.0688
805.1429, 196.9327
805.6251, 203.9815
806.1072, 210.9832
806.5893, 221.2310
807.0714, 234.8140
807.5535, 253.0255
808.0356, 276.3976
808.5178, 299.9012
808.9999, 320.2506
809.4820, 338.6138
809.9641, 357.1823
810.4462, 375.1052
810.9283, 396.7400
811.4105, 423.8203
811.8926, 451.9555
812.3747, 480.3338
812.8568, 508.2731
813.3389, 534.7155
813.8210, 559.6122
814.3032, 584.0895
814.7853, 611.8234
815.2674, 634.5610
815.7495, 649.2715
816.2316, 657.9243
816.7137, 663.4613
817.1959, 664.6451
817.6780, 657.2059
818.1601, 638.8441
818.6422, 613.8509
819.1243, 583.7905
819.6064, 550.3291
820.0886, 515.7729
820.5707, 480.2083
821.0528, 442.5598
821.5349, 402.3904
822.0170, 365.0491
822.4991, 336.5830
822.9813, 315.3568
823.4634, 294.2688
823.9455, 273.0877
824.4276, 253.3683
824.9097, 234.8998
825.3918, 220.2070
825.8740, 212.0161
826.3561, 208.4361
826.8382, 203.1324
827.3203, 194.5359
827.8024, 187.8480
828.2845, 184.1496
828.7667, 181.0661
829.2488, 178.7108
829.7309, 175.9291
830.2130, 170.7200
830.6951, 163.0154
831.1772, 156.9529
831.6594, 153.4523
832.1415, 151.8681
832.6236, 154.2310
833.1057, 156.6668
833.5878, 154.0092
834.0699, 147.7295
834.5521, 143.7989
835.0342, 145.0896
835.5163, 148.1154
835.9984, 150.6524
836.4805, 152.2861
836.9626, 152.2489
837.4448, 150.6742
837.9269, 147.8667
838.4090, 144.0186
838.8911, 140.1028
839.3732, 136.8757
839.8553, 134.6615
840.3375, 135.5958
840.8196, 139.7951
841.3017, 140.4109
841.7838, 135.4258
842.2659, 130.8789
842.7480, 131.2053
843.2302, 134.2967
843.7123, 134.4164
844.1944, 129.2372
844.6765, 129.2119
845.1586, 140.0173
845.6407, 147.5094
846.1229, 144.5159
846.6050, 137.7036
847.0871, 132.4314
847.5692, 128.9306
848.0513, 128.2154
848.5334, 133.8043
849.0156, 137.6062
849.4977, 135.5918
849.9798, 132.6237
850.4619, 133.0644
850.9440, 135.4432
851.4261, 135.3063
851.9083, 131.0144
852.3904, 128.4960
852.8725, 133.6784
853.3546, 140.8508
853.8367, 144.2535
854.3188, 144.8752
854.8010, 145.3174
855.2831, 145.9814
855.7652, 145.0809
856.2473, 140.8045
856.7294, 135.7085
857.2115, 134.3307
857.6937, 136.1083
858.1758, 139.3168
858.6579, 143.6497
859.1400, 145.9205
859.6221, 144.4368
860.1042, 141.8107
860.5864, 141.9612
861.0685, 144.7354
861.5506, 145.7453
862.0327, 144.5207
862.5148, 143.2313
862.9969, 141.8245
863.4791, 141.5715
863.9612, 144.4221
864.4433, 148.9754
864.9254, 150.0060
865.4075, 145.1585
865.8896, 141.7016
866.3718, 139.4816
866.8539, 138.7495
867.3360, 140.6303
867.8181, 143.3843
868.3002, 145.3309
868.7823, 146.3088
869.2645, 146.3175
869.7466, 144.7462
870.2287, 142.9972
870.7108, 141.4376
871.1929, 140.0693
871.6750, 139.1975
872.1572, 138.4597
872.6393, 136.1909
873.1214, 131.6485
873.6035, 130.2489
874.0856, 141.1317
874.5677, 152.8707
875.0499, 150.1116
875.5320, 138.9566
876.0141, 132.0810
876.4962, 131.9621
876.9783, 135.0996
877.4604, 139.6004
877.9426, 144.1648
878.4247, 146.4604
878.9068, 147.0056
879.3889, 148.0293
879.8710, 149.5325
880.3531, 149.1409
880.8353, 145.7529
881.3174, 142.3852
881.7995, 142.6437
882.2816, 146.1010
882.7637, 150.6953
883.2458, 156.9238
883.7280, 160.0784
884.2101, 158.5376
884.6922, 156.6217
885.1743, 157.1079
885.6564, 159.0160
886.1385, 160.1101
886.6207, 159.8992
887.1028, 161.2836
887.5849, 167.4968
888.0670, 169.9957
888.5491, 162.6982
889.0313, 154.1909
889.5134, 151.2339
889.9955, 153.3210
890.4776, 158.4137
890.9597, 171.8397
891.4418, 178.3270
891.9240, 168.8664
892.4061, 159.5544
892.8882, 158.3111
893.3703, 162.6946
893.8524, 170.4736
894.3345, 180.7110
894.8167, 188.0481
895.2988, 190.2873
895.7809, 189.1204
896.2630, 182.7009
896.7451, 175.4207
897.2272, 171.6154
897.7094, 171.0493
898.1915, 171.8832
898.6736, 173.4623
899.1557, 175.9416
899.6378, 180.4505
900.1199, 185.1180
900.6021, 187.6421
901.0842, 188.5186
901.5663, 188.3286
902.0484, 187.5750
902.5305, 187.5829
903.0126, 189.0855
903.4948, 192.3044
903.9769, 199.2836
904.4590, 207.9960
904.9411, 210.7239
905.4232, 208.1288
905.9053, 207.3517
906.3875, 210.7198
906.8696, 216.0246
907.3517, 220.8952
907.8338, 226.5217
908.3159, 237.9606
908.7980, 255.2537
909.2802, 269.2924
909.7623, 278.8435
910.2444, 287.1282
910.7265, 295.5503
911.2086, 303.7415
911.6907, 310.9790
912.1729, 317.2982
912.6550, 324.9702
913.1371, 333.2756
913.6192, 345.5624
914.1013, 364.1259
914.5834, 383.7345
915.0656, 402.3484
915.5477, 418.8227
916.0298, 430.0396
916.5119, 433.5981
916.9940, 441.1071
917.4761, 459.4918
917.9583, 471.9861
918.4404, 471.4370
918.9225, 466.4765
919.4046, 465.2540
919.8867, 465.4367
920.3688, 457.5907
920.8510, 436.0768
921.3331, 417.4736
921.8152, 404.6160
922.2973, 394.5997
922.7794, 387.2071
923.2615, 381.1111
923.7437, 374.8086
924.2258, 368.3395
924.7079, 363.1458
925.1900, 358.9003
925.6721, 357.2082
926.1542, 362.1272
926.6364, 366.6768
927.1185, 363.8128
927.6006, 357.1236
928.0827, 352.5447
928.5648, 351.6151
929.0469, 354.1797
929.5291, 361.5438
930.0112, 370.7468
930.4933, 380.6282
930.9754, 390.4055
931.4575, 398.5210
931.9396, 405.7253
932.4218, 413.9404
932.9039, 423.9470
933.3860, 435.8944
933.8681, 451.4497
934.3502, 467.7445
934.8323, 479.8043
935.3145, 490.1266
935.7966, 503.0847
936.2787, 519.4868
936.7608, 539.7211
937.2429, 564.1616
937.7250, 588.7445
938.2072, 609.1636
938.6893, 625.8882
939.1714, 639.8631
939.6535, 651.2097
940.1356, 658.8312
940.6177, 663.1852
941.0999, 671.3069
941.5820, 689.2847
942.0641, 707.8815
942.5462, 706.8094
943.0283, 690.9192
943.5104, 688.4291
943.9926, 698.9268
944.4747, 700.0742
944.9568, 684.8333
945.4389, 664.9443
945.9210, 650.5799
946.4031, 640.3943
946.8853, 631.7361
947.3674, 624.5551
947.8495, 611.7556
948.3316, 592.1723
948.8137, 576.4187
949.2958, 569.7476
949.7780, 562.1281
950.2601, 540.7390
950.7422, 509.9048
951.2243, 494.3084
951.7064, 496.9818
952.1885, 495.1652
952.6707, 486.0397
953.1528, 474.8514
953.6349, 463.1538
954.1170, 452.3417
954.5991, 443.8146
955.0812, 437.7153
955.5634, 437.1964
956.0455, 446.3434
956.5276, 447.9983
957.0097, 437.0589
957.4918, 424.5525
957.9739, 415.6860
958.4561, 409.4764
958.9382, 404.1407
959.4203, 399.4805
959.9024, 398.4193
960.3845, 402.1828
960.8666, 407.3926
961.3488, 417.4174
961.8309, 423.3210
962.3130, 415.6653
962.7951, 402.2444
963.2772, 399.2946
963.7593, 409.7360
964.2415, 414.9964
964.7236, 410.6233
965.2057, 407.5427
965.6878, 407.0378
966.1699, 408.8970
966.6520, 416.3788
967.1342, 425.3796
967.6163, 425.0634
968.0984, 411.0024
968.5805, 404.5382
969.0626, 411.6250
969.5447, 419.7855
970.0269, 428.6570
970.5090, 434.9885
970.9911, 433.6742
971.4732, 428.2719
971.9553, 428.4904
972.4374, 436.9264
972.9196, 444.8545
973.4017, 450.3239
973.8838, 456.1461
974.3659, 463.7894
974.8480, 471.7795
975.3301, 480.8658
975.8123, 489.0649
976.2944, 489.4482
976.7765, 476.9306
977.2586, 470.0413
977.7407, 479.6015
978.2228, 487.4817
978.7050, 480.9461
979.1871, 472.6687
979.6692, 478.0995
980.1513, 493.3615
980.6334, 500.8730
981.1155, 492.9579
981.5977, 489.4955
982.0798, 501.1723
982.5619, 513.1176
983.0440, 516.3095
983.5261, 516.8858
984.0082, 523.3996
984.4904, 534.0732
984.9725, 539.0717
985.4546, 533.5435
985.9367, 529.0132
986.4188, 527.5145
986.9009, 530.5582
987.3831, 543.9068
987.8652, 558.9376
988.3473, 564.7469
988.8294, 562.3038
989.3115, 560.4614
989.7936, 561.6509
990.2758, 564.3138
990.7579, 569.6822
991.2400, 574.2746
991.7221, 572.2354
992.2042, 570.5094
992.6863, 580.4016
993.1685, 599.5016
993.6506, 612.9330
994.1327, 614.3828
994.6148, 613.6974
995.0969, 613.3657
995.5790, 614.3885
996.0612, 618.6064
996.5433, 623.8293
997.0254, 627.0776
997.5075, 628.5428
997.9896, 630.8574
998.4717, 635.4667
998.9539, 639.3503
999.4360, 638.5027
999.9181, 639.2623
1000.400, 646.2878
1000.882, 657.3773
1001.364, 671.2078
1001.847, 686.2755
1002.329, 698.5433
1002.811, 706.6884
1003.293, 711.7451
1003.775, 711.4787
1004.257, 711.2837
1004.739, 713.6368
1005.221, 719.0460
1005.703, 730.3870
1006.186, 745.3246
1006.668, 754.7263
1007.150, 753.4453
1007.632, 753.3295
1008.114, 760.5800
1008.596, 769.8725
1009.078, 777.2949
1009.560, 785.0912
1010.043, 796.5698
1010.525, 811.2703
1011.007, 826.9954
1011.489, 845.0298
1011.971, 856.9857
1012.453, 852.4428
1012.935, 848.6189
1013.417, 858.5164
1013.899, 872.9843
1014.382, 881.8021
1014.864, 885.1265
1015.346, 887.4962
1015.828, 889.3268
1016.310, 893.7455
1016.792, 902.4793
1017.274, 913.5147
1017.756, 929.3915
1018.239, 944.1604
1018.721, 950.2160
1019.203, 949.9658
1019.685, 951.8575
1020.167, 958.0126
1020.649, 965.4274
1021.131, 973.3932
1021.613, 982.1181
1022.095, 992.5175
1022.578, 1003.072
1023.060, 1011.723
1023.542, 1019.499
1024.024, 1029.824
1024.506, 1044.103
1024.988, 1055.494
1025.470, 1058.908
1025.952, 1063.420
1026.435, 1073.152
1026.917, 1084.531
1027.399, 1095.078
1027.881, 1104.818
1028.363, 1113.670
1028.845, 1121.107
1029.327, 1132.042
1029.809, 1153.851
1030.292, 1170.244
1030.774, 1170.656
1031.256, 1170.563
1031.738, 1181.262
1032.220, 1198.467
1032.702, 1214.677
1033.184, 1229.454
1033.666, 1241.554
1034.148, 1246.253
1034.630, 1254.913
1035.113, 1273.734
1035.595, 1292.233
1036.077, 1302.546
1036.559, 1310.022
1037.041, 1323.081
1037.523, 1342.077
1038.005, 1359.374
1038.487, 1371.493
1038.970, 1387.506
1039.452, 1415.640
1039.934, 1437.595
1040.416, 1437.822
1040.898, 1434.052
1041.380, 1448.901
1041.862, 1480.471
1042.344, 1508.635
1042.826, 1537.230
1043.309, 1552.332
1043.791, 1541.683
1044.273, 1540.261
1044.755, 1567.895
1045.237, 1599.883
1045.719, 1608.779
1046.201, 1601.342
1046.683, 1609.966
1047.166, 1641.347
1047.648, 1665.947
1048.130, 1681.271
1048.612, 1696.159
1049.094, 1711.975
1049.576, 1731.324
1050.058, 1756.500
1050.540, 1786.562
1051.022, 1819.611
1051.505, 1856.120
1051.987, 1891.926
1052.469, 1928.439
1052.951, 1952.609
1053.433, 1959.615
1053.915, 1962.792
1054.397, 1970.156
1054.879, 1982.528
1055.361, 2002.281
1055.844, 2028.831
1056.326, 2056.335
1056.808, 2084.962
1057.290, 2110.199
1057.772, 2131.246
1058.254, 2152.502
1058.736, 2175.882
1059.218, 2205.000
1059.701, 2247.223
1060.183, 2296.610
1060.665, 2330.999
1061.147, 2353.638
1061.629, 2382.141
1062.111, 2417.765
1062.593, 2451.484
1063.075, 2479.970
1063.557, 2509.800
1064.040, 2548.422
1064.522, 2589.215
1065.004, 2615.809
1065.486, 2636.204
1065.968, 2672.717
1066.450, 2721.566
1066.932, 2764.714
1067.414, 2797.551
1067.896, 2826.126
1068.379, 2853.868
1068.861, 2881.223
1069.343, 2903.883
1069.825, 2930.045
1070.307, 2979.055
1070.789, 3037.528
1071.271, 3074.110
1071.753, 3090.321
1072.236, 3118.000
1072.718, 3173.522
1073.200, 3228.825
1073.682, 3258.820
1074.164, 3285.524
1074.646, 3330.298
1075.128, 3380.688
1075.610, 3417.683
1076.093, 3446.714
1076.575, 3488.141
1077.057, 3547.850
1077.539, 3605.586
1078.021, 3654.667
1078.503, 3696.831
1078.985, 3723.097
1079.467, 3752.304
1079.949, 3804.065
1080.432, 3866.515
1080.914, 3921.089
1081.396, 3965.305
1081.878, 4001.506
1082.360, 4016.705
1082.842, 4044.820
1083.324, 4096.471
1083.806, 4155.314
1084.288, 4227.319
1084.771, 4292.712
1085.253, 4320.346
1085.735, 4320.530
1086.217, 4344.173
1086.699, 4397.449
1087.181, 4458.243
1087.663, 4531.548
1088.145, 4602.724
1088.628, 4672.338
1089.110, 4729.866
1089.592, 4763.182
1090.074, 4784.714
1090.556, 4821.417
1091.038, 4873.613
1091.520, 4931.190
1092.002, 4995.657
1092.484, 5053.623
1092.967, 5102.712
1093.449, 5147.356
1093.931, 5190.537
1094.413, 5227.730
1094.895, 5249.870
1095.377, 5265.600
1095.859, 5310.217
1096.341, 5379.527
1096.823, 5440.627
1097.306, 5491.426
1097.788, 5544.242
1098.270, 5602.269
1098.752, 5651.042
1099.234, 5676.986
1099.716, 5695.310
1100.198, 5729.714
1100.680, 5773.276
1101.163, 5812.997
1101.645, 5849.426
1102.127, 5883.400
1102.609, 5916.880
1103.091, 5960.573
1103.573, 6020.333
1104.055, 6069.030
1104.537, 6068.593
1105.020, 6063.316
1105.502, 6099.476
1105.984, 6150.286
1106.466, 6182.271
1106.948, 6201.013
1107.430, 6223.846
1107.912, 6255.271
1108.394, 6296.560
1108.876, 6365.698
1109.359, 6418.390
1109.841, 6416.958
1110.323, 6417.629
1110.805, 6463.355
1111.287, 6524.610
1111.769, 6567.851
1112.251, 6591.837
1112.733, 6601.185
1113.215, 6577.227
1113.698, 6586.250
1114.180, 6653.851
1114.662, 6716.611
1115.144, 6764.174
1115.626, 6797.646
1116.108, 6810.519
1116.590, 6817.453
1117.072, 6848.603
1117.555, 6904.207
1118.037, 6940.394
1118.519, 6953.388
1119.001, 6968.630
1119.483, 6989.865
1119.965, 7004.358
1120.447, 7003.604
1120.929, 7018.808
1121.411, 7088.373
1121.894, 7181.880
1122.376, 7211.724
1122.858, 7192.268
1123.340, 7201.558
1123.822, 7236.406
1124.304, 7257.443
1124.786, 7258.154
1125.268, 7263.856
1125.750, 7288.655
1126.233, 7327.066
1126.715, 7387.837
1127.197, 7445.366
1127.679, 7457.565
1128.161, 7445.939
1128.643, 7440.318
1129.125, 7443.632
1129.607, 7449.591
1130.090, 7457.406
1130.572, 7478.062
1131.054, 7536.638
1131.536, 7574.484
1132.018, 7534.839
1132.500, 7493.382
1132.982, 7507.909
1133.464, 7545.877
1133.947, 7564.625
1134.429, 7567.975
1134.911, 7588.472
1135.393, 7641.781
1135.875, 7671.515
1136.357, 7652.885
1136.839, 7640.406
1137.321, 7648.632
1137.803, 7656.547
1138.286, 7647.859
1138.768, 7637.925
1139.250, 7653.573
1139.732, 7689.699
1140.214, 7695.684
1140.696, 7666.982
1141.178, 7639.192
1141.660, 7612.655
1142.142, 7614.576
1142.625, 7655.844
1143.107, 7688.145
1143.589, 7671.488
1144.071, 7636.667
1144.553, 7642.070
1145.035, 7671.331
1145.517, 7673.380
1145.999, 7656.111
1146.482, 7646.127
1146.964, 7644.396
1147.446, 7633.767
1147.928, 7609.062
1148.410, 7592.754
1148.892, 7610.057
1149.374, 7627.711
1149.856, 7606.708
1150.339, 7580.693
1150.821, 7593.239
1151.303, 7617.561
1151.785, 7605.071
1152.267, 7561.165
1152.749, 7535.489
1153.231, 7546.367
1153.713, 7550.486
1154.195, 7535.025
1154.677, 7515.519
1155.160, 7494.306
1155.642, 7472.520
1156.124, 7438.759
1156.606, 7415.130
1157.088, 7445.694
1157.570, 7521.708
1158.052, 7533.641
1158.534, 7461.539
1159.017, 7419.828
1159.499, 7420.549
1159.981, 7410.956
1160.463, 7373.166
1160.945, 7341.126
1161.427, 7340.390
1161.909, 7353.914
1162.391, 7352.246
1162.874, 7341.348
1163.356, 7342.254
1163.838, 7351.169
1164.320, 7355.005
1164.802, 7354.292
1165.284, 7361.124
1165.766, 7377.408
1166.248, 7384.063
1166.730, 7368.250
1167.213, 7339.068
1167.695, 7284.515
1168.177, 7240.199
1168.659, 7244.648
1169.141, 7273.829
1169.623, 7306.417
1170.105, 7333.485
1170.587, 7338.638
1171.069, 7315.506
1171.552, 7300.413
1172.034, 7300.689
1172.516, 7307.880
1172.998, 7336.920
1173.480, 7347.804
1173.962, 7306.465
1174.444, 7264.027
1174.926, 7278.929
1175.409, 7331.813
1175.891, 7354.779
1176.373, 7345.489
1176.855, 7339.645
1177.337, 7337.386
1177.819, 7328.680
1178.301, 7312.041
1178.783, 7306.269
1179.266, 7320.569
##END=



