##NAMES=Pyrobelonite
##RRUFFID=R100056
##IDEAL CHEMISTRY=Pb^2+^Mn^2+^V^5+^O_4_(OH)
##LOCALITY=Langban, Filipstad, Varmland, Sweden
##OWNER=RRUFF
##SOURCE=William W Pinch
##DESCRIPTION=Isolated red blocky crystals
##STATUS=The identification of this mineral has been confirmed by single-crystal X-ray diffraction.
##URL=rruff.info/R100056
91.53320, 4859.111
92.01532, 4809.847
92.49744, 4778.775
92.97955, 4844.454
93.46167, 4935.354
93.94379, 4980.794
94.42590, 5003.409
94.90802, 5022.301
95.39014, 5045.359
95.87225, 5070.711
96.35437, 5105.563
96.83649, 5149.415
97.31860, 5207.104
97.80072, 5284.704
98.28284, 5376.511
98.76495, 5478.824
99.24707, 5606.654
99.72919, 5772.871
100.2113, 5956.146
100.6934, 6173.438
101.1755, 6404.609
101.6577, 6616.104
102.1398, 6791.251
102.6219, 6952.097
103.1040, 6953.014
103.5861, 6796.155
104.0682, 6531.562
104.5504, 6151.976
105.0325, 5671.221
105.5146, 5144.564
105.9967, 4644.057
106.4788, 4157.374
106.9609, 3735.560
107.4431, 3388.018
107.9252, 3101.984
108.4073, 2866.510
108.8894, 2681.930
109.3715, 2538.089
109.8536, 2419.844
110.3358, 2327.292
110.8179, 2244.762
111.3000, 2167.138
111.7821, 2093.888
112.2642, 2020.049
112.7463, 1943.548
113.2285, 1865.547
113.7106, 1786.742
114.1927, 1707.125
114.6748, 1627.860
115.1569, 1550.495
115.6390, 1472.559
116.1212, 1401.745
116.6033, 1338.867
117.0854, 1282.984
117.5675, 1233.641
118.0496, 1190.555
118.5317, 1153.414
119.0139, 1121.252
119.4960, 1096.248
119.9781, 1074.813
120.4602, 1056.354
120.9423, 1040.860
121.4244, 1028.525
121.9066, 1019.471
122.3887, 1013.708
122.8708, 1011.585
123.3529, 1013.590
123.8350, 1017.738
124.3171, 1022.675
124.7993, 1028.582
125.2814, 1036.999
125.7635, 1049.689
126.2456, 1067.669
126.7277, 1087.061
127.2098, 1108.111
127.6920, 1130.391
128.1741, 1153.824
128.6562, 1178.385
129.1383, 1203.539
129.6204, 1228.366
130.1025, 1252.909
130.5847, 1278.473
131.0668, 1305.250
131.5489, 1333.389
132.0310, 1363.421
132.5131, 1396.439
132.9952, 1430.973
133.4774, 1465.286
133.9595, 1499.371
134.4416, 1534.635
134.9237, 1573.111
135.4058, 1615.680
135.8879, 1656.602
136.3701, 1693.547
136.8522, 1729.198
137.3343, 1764.926
137.8164, 1801.304
138.2985, 1837.428
138.7806, 1871.990
139.2628, 1903.606
139.7449, 1936.267
140.2270, 1969.070
140.7091, 2003.522
141.1912, 2041.237
141.6733, 2082.750
142.1555, 2127.511
142.6376, 2173.028
143.1197, 2218.766
143.6018, 2265.891
144.0839, 2315.251
144.5660, 2366.006
145.0482, 2417.385
145.5303, 2469.222
146.0124, 2520.922
146.4945, 2569.157
146.9766, 2615.620
147.4587, 2657.805
147.9409, 2695.530
148.4230, 2728.415
148.9051, 2754.985
149.3872, 2774.331
149.8693, 2785.304
150.3514, 2790.031
150.8336, 2785.678
151.3157, 2776.829
151.7978, 2767.120
152.2799, 2756.566
152.7620, 2745.215
153.2441, 2734.625
153.7263, 2723.237
154.2084, 2707.341
154.6905, 2688.399
155.1726, 2663.892
155.6547, 2627.758
156.1368, 2578.635
156.6190, 2519.071
157.1011, 2449.784
157.5832, 2372.934
158.0653, 2291.358
158.5474, 2205.248
159.0295, 2115.159
159.5117, 2028.537
159.9938, 1943.104
160.4759, 1863.648
160.9580, 1792.416
161.4401, 1728.710
161.9222, 1670.883
162.4044, 1617.750
162.8865, 1569.101
163.3686, 1525.099
163.8507, 1485.421
164.3328, 1449.864
164.8149, 1418.941
165.2971, 1392.285
165.7792, 1369.601
166.2613, 1350.293
166.7434, 1334.698
167.2255, 1322.787
167.7076, 1316.129
168.1898, 1311.433
168.6719, 1306.346
169.1540, 1300.405
169.6361, 1294.904
170.1182, 1291.634
170.6003, 1291.097
171.0825, 1292.081
171.5646, 1294.289
172.0467, 1298.107
172.5288, 1304.090
173.0109, 1312.450
173.4930, 1322.640
173.9752, 1333.991
174.4573, 1346.134
174.9394, 1360.157
175.4215, 1376.551
175.9036, 1395.121
176.3857, 1415.714
176.8679, 1439.484
177.3500, 1463.766
177.8321, 1486.849
178.3142, 1509.668
178.7963, 1525.869
179.2784, 1533.247
179.7606, 1531.558
180.2427, 1518.143
180.7248, 1489.976
181.2069, 1450.102
181.6890, 1400.575
182.1711, 1341.030
182.6533, 1278.377
183.1354, 1217.494
183.6175, 1157.959
184.0996, 1103.594
184.5817, 1055.913
185.0638, 1013.634
185.5460, 977.4170
186.0281, 947.2853
186.5102, 921.5646
186.9923, 898.2071
187.4744, 877.4901
187.9565, 858.6434
188.4387, 841.3705
188.9208, 825.6652
189.4029, 812.0812
189.8850, 800.6138
190.3671, 790.3450
190.8492, 779.3318
191.3314, 767.2545
191.8135, 754.9935
192.2956, 742.0071
192.7777, 729.2239
193.2598, 717.5327
193.7419, 707.3032
194.2241, 698.1148
194.7062, 688.9715
195.1883, 679.3812
195.6704, 670.4117
196.1525, 662.0048
196.6346, 654.2854
197.1168, 647.4893
197.5989, 641.7366
198.0810, 636.7821
198.5631, 631.9617
199.0452, 627.2073
199.5273, 622.6508
200.0095, 618.1313
200.4916, 613.8551
200.9737, 610.1136
201.4558, 607.0106
201.9379, 604.5487
202.4200, 602.7362
202.9022, 601.6359
203.3843, 600.8781
203.8664, 600.7488
204.3485, 600.9256
204.8306, 600.3807
205.3127, 598.3447
205.7949, 595.6917
206.2770, 594.3919
206.7591, 594.9291
207.2412, 595.6096
207.7233, 595.3286
208.2054, 594.2538
208.6876, 593.4438
209.1697, 593.4156
209.6518, 593.8283
210.1339, 594.1323
210.6160, 594.2863
211.0981, 594.3901
211.5803, 594.5076
212.0624, 594.6389
212.5445, 594.8036
213.0266, 595.1180
213.5087, 595.3951
213.9908, 595.3854
214.4730, 594.9982
214.9551, 594.6326
215.4372, 594.6798
215.9193, 595.1474
216.4014, 595.9957
216.8836, 597.8198
217.3657, 599.6949
217.8478, 600.9938
218.3299, 601.5565
218.8120, 601.6873
219.2941, 601.5360
219.7763, 600.6917
220.2584, 600.9684
220.7405, 603.8002
221.2226, 607.1061
221.7047, 609.4720
222.1868, 610.5176
222.6690, 610.8375
223.1511, 611.2364
223.6332, 611.4229
224.1153, 612.4362
224.5974, 614.8735
225.0795, 617.7043
225.5617, 620.2513
226.0438, 622.3080
226.5259, 624.0395
227.0080, 625.6660
227.4901, 626.8207
227.9722, 628.5989
228.4544, 631.2297
228.9365, 634.2748
229.4186, 637.3959
229.9007, 640.4879
230.3828, 643.6588
230.8649, 647.0781
231.3471, 651.0427
231.8292, 654.8106
232.3113, 657.8712
232.7934, 661.0286
233.2755, 665.1620
233.7576, 670.4314
234.2398, 676.1085
234.7219, 680.8575
235.2040, 683.4437
235.6861, 687.3975
236.1682, 694.1877
236.6503, 701.5213
237.1325, 707.0549
237.6146, 710.2031
238.0967, 712.4832
238.5788, 716.1881
239.0609, 722.2286
239.5430, 727.6015
240.0252, 731.5201
240.5073, 735.0469
240.9894, 739.1120
241.4715, 743.9598
241.9536, 749.4327
242.4357, 755.5792
242.9179, 762.6940
243.4000, 769.0353
243.8821, 773.9441
244.3642, 778.2108
244.8463, 782.5173
245.3284, 786.9976
245.8106, 791.8549
246.2927, 797.4767
246.7748, 803.8928
247.2569, 810.2805
247.7390, 816.5956
248.2211, 822.8134
248.7033, 828.7616
249.1854, 834.3605
249.6675, 840.2018
250.1496, 847.1852
250.6317, 855.1610
251.1138, 862.7695
251.5960, 869.5979
252.0781, 875.9872
252.5602, 882.7418
253.0423, 890.1038
253.5244, 896.6384
254.0065, 900.2895
254.4887, 901.9424
254.9708, 903.9104
255.4529, 906.8669
255.9350, 910.4128
256.4171, 914.1271
256.8992, 918.0937
257.3813, 921.7871
257.8635, 924.9394
258.3456, 927.5555
258.8277, 929.4911
259.3098, 930.3496
259.7919, 930.6888
260.2740, 931.3318
260.7562, 932.3690
261.2383, 933.2946
261.7204, 933.0203
262.2025, 932.6542
262.6846, 933.7524
263.1667, 937.1451
263.6489, 941.7141
264.1310, 945.8514
264.6131, 949.3499
265.0952, 953.3232
265.5773, 958.4951
266.0594, 964.3036
266.5416, 970.2322
267.0237, 976.0345
267.5058, 982.2421
267.9879, 989.6590
268.4700, 998.3915
268.9521, 1007.811
269.4343, 1017.568
269.9164, 1028.068
270.3985, 1039.706
270.8806, 1052.599
271.3627, 1066.463
271.8448, 1080.764
272.3270, 1095.371
272.8091, 1111.422
273.2912, 1129.357
273.7733, 1148.819
274.2554, 1169.750
274.7375, 1192.267
275.2197, 1216.299
275.7018, 1241.882
276.1839, 1268.816
276.6660, 1297.900
277.1481, 1328.770
277.6302, 1362.351
278.1124, 1398.710
278.5945, 1438.129
279.0766, 1480.908
279.5587, 1527.513
280.0408, 1578.173
280.5229, 1631.526
281.0051, 1687.285
281.4872, 1746.173
281.9693, 1809.679
282.4514, 1876.835
282.9335, 1945.243
283.4156, 2012.402
283.8978, 2078.255
284.3799, 2145.620
284.8620, 2215.802
285.3441, 2286.307
285.8262, 2356.259
286.3083, 2425.806
286.7905, 2495.572
287.2726, 2565.682
287.7547, 2636.186
288.2368, 2706.167
288.7189, 2772.948
289.2010, 2842.742
289.6832, 2917.666
290.1653, 2996.051
290.6474, 3075.507
291.1295, 3153.856
291.6116, 3232.556
292.0938, 3317.281
292.5759, 3410.765
293.0580, 3506.652
293.5401, 3600.989
294.0222, 3697.794
294.5043, 3801.190
294.9865, 3913.162
295.4686, 4031.900
295.9507, 4153.001
296.4328, 4275.307
296.9149, 4402.438
297.3970, 4535.256
297.8792, 4671.750
298.3613, 4811.083
298.8434, 4952.991
299.3255, 5094.099
299.8076, 5229.966
300.2897, 5364.380
300.7719, 5483.764
301.2540, 5593.122
301.7361, 5686.367
302.2182, 5761.483
302.7003, 5817.125
303.1824, 5852.792
303.6646, 5867.041
304.1467, 5857.327
304.6288, 5833.857
305.1109, 5790.728
305.5930, 5739.825
306.0751, 5681.550
306.5573, 5619.281
307.0394, 5559.908
307.5215, 5508.795
308.0036, 5465.433
308.4857, 5434.453
308.9678, 5412.602
309.4500, 5407.206
309.9321, 5422.360
310.4142, 5456.088
310.8963, 5504.106
311.3784, 5563.921
311.8605, 5635.625
312.3427, 5718.227
312.8248, 5812.443
313.3069, 5919.751
313.7890, 6045.473
314.2711, 6182.658
314.7532, 6324.634
315.2354, 6467.506
315.7175, 6611.452
316.1996, 6755.323
316.6817, 6903.829
317.1638, 7045.311
317.6459, 7180.407
318.1281, 7308.056
318.6102, 7426.760
319.0923, 7536.101
319.5744, 7636.241
320.0565, 7726.416
320.5386, 7802.290
321.0208, 7877.464
321.5029, 7951.041
321.9850, 8024.976
322.4671, 8099.756
322.9492, 8176.152
323.4313, 8255.357
323.9135, 8339.380
324.3956, 8428.062
324.8777, 8522.205
325.3598, 8621.365
325.8419, 8726.578
326.3240, 8841.302
326.8062, 8963.471
327.2883, 9089.231
327.7704, 9217.519
328.2525, 9347.606
328.7346, 9470.866
329.2167, 9590.849
329.6989, 9699.341
330.1810, 9798.850
330.6631, 9885.260
331.1452, 9953.084
331.6273, 9999.994
332.1094, 10025.03
332.5916, 10026.60
333.0737, 10013.95
333.5558, 9956.741
334.0379, 9852.731
334.5200, 9708.553
335.0021, 9529.785
335.4843, 9318.072
335.9664, 9075.374
336.4485, 8803.453
336.9306, 8494.753
337.4127, 8176.418
337.8948, 7841.292
338.3770, 7504.321
338.8591, 7170.929
339.3412, 6842.078
339.8233, 6522.959
340.3055, 6215.722
340.7876, 5921.476
341.2697, 5639.553
341.7518, 5367.756
342.2339, 5114.321
342.7160, 4882.186
343.1982, 4670.387
343.6803, 4475.261
344.1624, 4295.325
344.6445, 4129.909
345.1266, 3975.953
345.6087, 3834.913
346.0909, 3704.472
346.5730, 3581.989
347.0551, 3467.964
347.5372, 3364.541
348.0193, 3272.078
348.5014, 3188.323
348.9836, 3107.809
349.4657, 3030.167
349.9478, 2958.342
350.4299, 2894.671
350.9120, 2836.034
351.3941, 2780.851
351.8763, 2728.884
352.3584, 2680.524
352.8405, 2637.369
353.3226, 2599.367
353.8047, 2562.136
354.2868, 2524.591
354.7690, 2488.405
355.2511, 2453.728
355.7332, 2420.862
356.2153, 2391.440
356.6974, 2370.833
357.1795, 2355.213
357.6617, 2328.309
358.1438, 2285.533
358.6259, 2240.875
359.1080, 2201.042
359.5901, 2165.044
360.0722, 2131.189
360.5544, 2098.370
361.0365, 2068.110
361.5186, 2042.008
362.0007, 2020.249
362.4828, 2002.282
362.9649, 1987.930
363.4471, 1977.586
363.9292, 1971.432
364.4113, 1969.541
364.8934, 1971.725
365.3755, 1977.584
365.8576, 1987.279
366.3398, 2002.211
366.8219, 2024.474
367.3040, 2049.749
367.7861, 2072.452
368.2682, 2092.993
368.7503, 2117.149
369.2325, 2149.256
369.7146, 2186.009
370.1967, 2221.698
370.6788, 2255.765
371.1609, 2289.856
371.6430, 2325.614
372.1252, 2362.419
372.6073, 2397.398
373.0894, 2432.999
373.5715, 2464.282
374.0536, 2487.910
374.5357, 2503.841
375.0179, 2512.422
375.5000, 2514.431
375.9821, 2507.897
376.4642, 2489.213
376.9463, 2458.634
377.4284, 2418.221
377.9106, 2366.382
378.3927, 2305.787
378.8748, 2239.990
379.3569, 2169.576
379.8390, 2096.903
380.3211, 2023.582
380.8033, 1948.935
381.2854, 1878.928
381.7675, 1813.808
382.2496, 1754.045
382.7317, 1699.735
383.2138, 1650.953
383.6960, 1607.953
384.1781, 1570.813
384.6602, 1539.628
385.1423, 1513.039
385.6244, 1491.770
386.1065, 1473.223
386.5887, 1457.481
387.0708, 1443.809
387.5529, 1431.047
388.0350, 1418.684
388.5171, 1406.919
388.9992, 1396.155
389.4814, 1387.166
389.9635, 1378.121
390.4456, 1370.162
390.9277, 1361.410
391.4098, 1350.078
391.8919, 1336.126
392.3741, 1320.906
392.8562, 1305.885
393.3383, 1291.164
393.8204, 1275.408
394.3025, 1259.593
394.7846, 1241.830
395.2668, 1219.819
395.7489, 1195.486
396.2310, 1172.219
396.7131, 1151.950
397.1952, 1134.138
397.6773, 1116.623
398.1595, 1097.589
398.6416, 1082.070
399.1237, 1069.707
399.6058, 1061.165
400.0879, 1057.185
400.5700, 1057.852
401.0522, 1062.293
401.5343, 1069.516
402.0164, 1079.403
402.4985, 1092.688
402.9806, 1110.017
403.4627, 1130.563
403.9449, 1154.083
404.4270, 1180.518
404.9091, 1209.857
405.3912, 1242.438
405.8733, 1277.808
406.3554, 1314.019
406.8376, 1350.760
407.3197, 1389.884
407.8018, 1433.752
408.2839, 1479.531
408.7660, 1523.827
409.2481, 1565.988
409.7303, 1608.057
410.2124, 1652.279
410.6945, 1698.536
411.1766, 1746.208
411.6587, 1795.575
412.1408, 1846.221
412.6230, 1897.704
413.1051, 1949.930
413.5872, 2002.402
414.0693, 2053.647
414.5514, 2105.542
415.0335, 2161.029
415.5157, 2220.477
415.9978, 2281.357
416.4799, 2342.780
416.9620, 2404.315
417.4441, 2464.460
417.9262, 2520.985
418.4084, 2579.112
418.8905, 2642.984
419.3726, 2710.637
419.8547, 2776.954
420.3368, 2840.349
420.8189, 2901.390
421.3011, 2961.161
421.7832, 3020.961
422.2653, 3074.024
422.7474, 3121.901
423.2295, 3161.180
423.7116, 3188.746
424.1938, 3204.626
424.6759, 3211.771
425.1580, 3212.800
425.6401, 3207.406
426.1222, 3189.186
426.6043, 3154.998
427.0865, 3113.853
427.5686, 3066.348
428.0507, 3013.527
428.5328, 2956.085
429.0149, 2894.217
429.4970, 2829.022
429.9792, 2762.086
430.4613, 2693.687
430.9434, 2621.755
431.4255, 2543.876
431.9076, 2465.099
432.3897, 2387.769
432.8719, 2311.882
433.3540, 2236.127
433.8361, 2159.792
434.3182, 2083.086
434.8003, 2005.861
435.2824, 1926.170
435.7646, 1849.700
436.2467, 1778.219
436.7288, 1710.253
437.2109, 1644.736
437.6930, 1581.289
438.1751, 1520.301
438.6573, 1461.696
439.1394, 1405.431
439.6215, 1352.520
440.1036, 1302.877
440.5857, 1257.105
441.0678, 1215.365
441.5500, 1177.315
442.0321, 1141.793
442.5142, 1108.855
442.9963, 1077.683
443.4784, 1046.121
443.9605, 1013.884
444.4427, 983.4258
444.9248, 956.2214
445.4069, 931.7134
445.8890, 908.9785
446.3711, 888.1533
446.8532, 868.3961
447.3354, 849.6987
447.8175, 831.7476
448.2996, 813.6943
448.7817, 795.2829
449.2638, 777.3620
449.7459, 761.0040
450.2281, 746.3136
450.7102, 732.1856
451.1923, 718.4184
451.6744, 705.3420
452.1565, 693.2759
452.6386, 682.1156
453.1208, 671.7960
453.6029, 662.3476
454.0850, 653.3239
454.5671, 643.4774
455.0492, 631.0922
455.5313, 620.2453
456.0135, 611.5792
456.4956, 604.0560
456.9777, 597.0750
457.4598, 590.3967
457.9419, 583.5837
458.4240, 576.0940
458.9062, 567.9255
459.3883, 560.4125
459.8704, 554.0170
460.3525, 547.7657
460.8346, 541.5333
461.3167, 535.2963
461.7989, 528.9271
462.2810, 522.3376
462.7631, 515.9852
463.2452, 510.6526
463.7273, 506.4973
464.2094, 502.4185
464.6916, 498.3128
465.1737, 494.2197
465.6558, 490.2617
466.1379, 486.3670
466.6200, 482.2241
467.1021, 477.4259
467.5843, 472.3698
468.0664, 467.9541
468.5485, 464.2445
469.0306, 460.5647
469.5127, 456.4952
469.9948, 452.3546
470.4770, 448.7050
470.9591, 445.6550
471.4412, 442.7667
471.9233, 439.9765
472.4054, 437.1621
472.8875, 434.0099
473.3697, 430.4367
473.8518, 426.9790
474.3339, 424.1697
474.8160, 422.0221
475.2981, 419.7212
475.7802, 417.2323
476.2624, 414.6400
476.7445, 411.8329
477.2266, 408.9549
477.7087, 406.3034
478.1908, 403.9753
478.6729, 401.8464
479.1551, 399.6805
479.6372, 397.2657
480.1193, 395.3224
480.6014, 394.4460
481.0835, 393.4335
481.5656, 391.3751
482.0478, 388.5832
482.5299, 386.0418
483.0120, 384.4412
483.4941, 383.5035
483.9762, 382.2511
484.4583, 380.6407
484.9405, 378.7926
485.4226, 376.6433
485.9047, 374.3450
486.3868, 371.7439
486.8689, 368.9315
487.3510, 366.7499
487.8332, 366.5135
488.3153, 367.6767
488.7974, 367.3417
489.2795, 364.8199
489.7616, 362.2446
490.2437, 361.2633
490.7259, 360.9862
491.2080, 359.9855
491.6901, 357.7005
492.1722, 355.2862
492.6543, 353.4857
493.1364, 352.2191
493.6186, 351.3402
494.1007, 350.8678
494.5828, 350.5049
495.0649, 349.9997
495.5470, 349.3571
496.0291, 348.2110
496.5113, 346.0746
496.9934, 343.8681
497.4755, 341.9854
497.9576, 340.4669
498.4397, 339.3915
498.9218, 338.8236
499.4040, 338.5283
499.8861, 337.9802
500.3682, 336.9315
500.8503, 336.0931
501.3324, 335.5892
501.8145, 335.1593
502.2967, 334.7113
502.7788, 334.1957
503.2609, 333.5209
503.7430, 332.5771
504.2251, 331.4725
504.7072, 330.6931
505.1894, 330.4807
505.6715, 330.0264
506.1536, 328.8765
506.6357, 327.5717
507.1178, 326.4796
507.5999, 325.6591
508.0821, 325.0747
508.5642, 324.8932
509.0463, 324.9261
509.5284, 324.5615
510.0105, 323.6932
510.4926, 322.7487
510.9748, 321.9262
511.4569, 321.2391
511.9390, 320.6919
512.4211, 320.2806
512.9032, 320.0259
513.3853, 320.1883
513.8674, 320.4470
514.3495, 319.9908
514.8317, 318.6397
515.3138, 317.6059
515.7959, 318.3491
516.2780, 321.0865
516.7601, 322.1912
517.2422, 320.5511
517.7244, 318.8090
518.2065, 317.7108
518.6886, 317.1128
519.1707, 316.8319
519.6528, 316.7800
520.1349, 316.7570
520.6171, 316.4074
521.0992, 315.5851
521.5813, 315.0439
522.0634, 315.1328
522.5455, 315.1696
523.0276, 314.7777
523.5098, 314.1762
523.9919, 313.8073
524.4740, 313.8997
524.9561, 314.2003
525.4382, 314.4955
525.9203, 314.7910
526.4025, 314.4381
526.8846, 312.7871
527.3667, 311.1070
527.8488, 310.9112
528.3309, 311.9286
528.8130, 312.3799
529.2952, 311.2293
529.7773, 309.6875
530.2594, 308.9258
530.7415, 308.7987
531.2236, 308.4869
531.7057, 307.5863
532.1879, 306.4333
532.6700, 305.6673
533.1521, 305.3978
533.6342, 305.3082
534.1163, 305.6977
534.5984, 306.0090
535.0806, 305.8579
535.5627, 305.3040
536.0448, 304.5617
536.5269, 303.7392
537.0090, 302.9323
537.4911, 302.4904
537.9733, 302.6783
538.4554, 302.6353
538.9375, 302.0895
539.4196, 301.4360
539.9017, 300.9286
540.3839, 300.5460
540.8660, 300.0891
541.3481, 299.3160
541.8302, 298.4461
542.3123, 298.0678
542.7944, 298.2576
543.2766, 298.2698
543.7587, 297.7038
544.2408, 296.9011
544.7229, 295.7918
545.2050, 294.0375
545.6871, 294.7270
546.1693, 302.7981
546.6514, 311.4398
547.1335, 312.1296
547.6156, 305.3448
548.0977, 297.8989
548.5798, 293.7150
549.0620, 292.2005
549.5441, 291.3781
550.0262, 292.1797
550.5083, 292.4381
550.9904, 291.6122
551.4725, 290.6400
551.9547, 290.3505
552.4368, 290.6369
552.9189, 290.7606
553.4010, 290.1338
553.8831, 288.9629
554.3652, 288.0697
554.8474, 287.4940
555.3295, 287.1111
555.8116, 287.0303
556.2937, 287.0423
556.7758, 287.0462
557.2579, 287.0215
557.7401, 286.9034
558.2222, 286.5891
558.7043, 286.1834
559.1864, 285.7860
559.6685, 285.4014
560.1506, 285.3257
560.6328, 285.8269
561.1149, 286.6047
561.5970, 287.0492
562.0791, 287.2277
562.5612, 286.9635
563.0433, 285.6862
563.5255, 284.3534
564.0076, 283.8125
564.4897, 284.0050
564.9718, 284.3937
565.4539, 284.6639
565.9360, 284.7896
566.4182, 284.6702
566.9003, 284.1865
567.3824, 283.6779
567.8645, 282.9145
568.3466, 282.3509
568.8287, 282.4560
569.3109, 283.0616
569.7930, 283.5207
570.2751, 283.3679
570.7572, 282.8871
571.2393, 282.6709
571.7214, 282.7362
572.2036, 282.8732
572.6857, 283.0815
573.1678, 283.2607
573.6499, 283.3126
574.1320, 283.2409
574.6141, 283.0389
575.0963, 282.5444
575.5784, 282.0451
576.0605, 281.8926
576.5426, 281.9691
577.0247, 281.8108
577.5068, 281.1840
577.9890, 280.3730
578.4711, 279.9262
578.9532, 280.0595
579.4353, 280.0154
579.9174, 279.4015
580.3995, 279.0229
580.8817, 279.4707
581.3638, 280.4080
581.8459, 281.2101
582.3280, 281.5960
582.8101, 281.6162
583.2922, 281.1463
583.7744, 280.1118
584.2565, 279.7746
584.7386, 280.7991
585.2207, 281.8387
585.7029, 281.6281
586.1850, 280.6945
586.6671, 280.4665
587.1492, 282.0768
587.6313, 283.4162
588.1135, 282.4249
588.5956, 280.0465
589.0777, 278.5446
589.5598, 278.5023
590.0419, 278.9891
590.5240, 279.0270
591.0062, 278.5819
591.4883, 278.4926
591.9704, 279.0313
592.4525, 279.5525
592.9346, 280.0855
593.4167, 280.4230
593.8989, 280.2057
594.3810, 279.4291
594.8631, 278.6167
595.3452, 278.1879
595.8273, 278.1705
596.3094, 279.0519
596.7916, 281.5013
597.2737, 283.3336
597.7558, 283.0905
598.2379, 281.9977
598.7200, 281.2184
599.2021, 280.8741
599.6843, 280.8365
600.1664, 281.2336
600.6485, 281.8007
601.1306, 282.0981
601.6127, 282.1323
602.0948, 282.3215
602.5770, 282.9496
603.0591, 283.8172
603.5412, 284.3703
604.0233, 284.2701
604.5054, 284.4038
604.9875, 285.0672
605.4697, 285.7013
605.9518, 285.8637
606.4339, 285.6936
606.9160, 285.6556
607.3981, 286.0459
607.8802, 286.5410
608.3624, 286.2659
608.8445, 285.0103
609.3266, 284.7345
609.8087, 286.2628
610.2908, 288.1830
610.7729, 289.6608
611.2551, 290.7012
611.7372, 291.2707
612.2193, 291.0090
612.7014, 290.7139
613.1835, 290.9403
613.6656, 291.5563
614.1478, 292.3967
614.6299, 293.4111
615.1120, 294.2159
615.5941, 294.3400
616.0762, 293.7774
616.5583, 293.7109
617.0405, 294.4744
617.5226, 295.3131
618.0047, 296.3211
618.4868, 297.2201
618.9689, 297.6119
619.4510, 297.5246
619.9332, 297.4984
620.4153, 298.0225
620.8974, 298.9650
621.3795, 299.9062
621.8616, 300.8954
622.3438, 301.6124
622.8259, 301.7389
623.3080, 301.7133
623.7901, 302.0910
624.2722, 302.8796
624.7543, 303.8708
625.2365, 305.1558
625.7186, 306.5059
626.2007, 307.5898
626.6828, 308.5695
627.1649, 310.0503
627.6470, 312.3107
628.1292, 314.6061
628.6113, 315.6311
629.0934, 314.9066
629.5755, 314.9091
630.0576, 316.0525
630.5397, 317.5182
631.0219, 319.5118
631.5040, 321.5201
631.9861, 322.7815
632.4682, 323.0573
632.9503, 323.1122
633.4324, 323.4232
633.9146, 324.0773
634.3967, 325.5876
634.8788, 328.1117
635.3609, 330.2959
635.8430, 331.1639
636.3251, 331.2435
636.8073, 332.0920
637.2894, 334.1525
637.7715, 335.8120
638.2536, 336.2231
638.7357, 336.6448
639.2178, 338.4384
639.7000, 341.1210
640.1821, 343.0395
640.6642, 343.2515
641.1463, 342.6534
641.6284, 343.0324
642.1105, 344.4938
642.5927, 346.3732
643.0748, 348.7746
643.5569, 351.3894
644.0390, 354.3093
644.5211, 357.2695
645.0032, 359.6259
645.4854, 360.8996
645.9675, 362.3699
646.4496, 364.9988
646.9317, 368.3990
647.4138, 372.0034
647.8959, 375.6955
648.3781, 379.1467
648.8602, 382.0599
649.3423, 384.5654
649.8244, 387.1291
650.3065, 389.0729
650.7886, 392.1710
651.2708, 397.2403
651.7529, 402.7857
652.2350, 408.0767
652.7171, 412.9650
653.1992, 417.2746
653.6813, 420.6993
654.1635, 424.1025
654.6456, 428.8844
655.1277, 434.9625
655.6098, 441.4101
656.0919, 448.1918
656.5740, 454.8883
657.0562, 461.0697
657.5383, 466.7886
658.0204, 472.5536
658.5025, 477.1325
658.9846, 483.2709
659.4667, 493.0331
659.9489, 503.9122
660.4310, 513.1852
660.9131, 520.6783
661.3952, 527.8991
661.8773, 535.9973
662.3594, 544.7855
662.8416, 553.6846
663.3237, 562.6196
663.8058, 572.0719
664.2879, 582.3040
664.7700, 592.9896
665.2521, 604.0845
665.7343, 615.4376
666.2164, 626.4902
666.6985, 636.6185
667.1806, 647.1096
667.6627, 659.2992
668.1448, 672.4005
668.6270, 684.8137
669.1091, 696.1962
669.5912, 707.6353
670.0733, 720.0808
670.5554, 733.3058
671.0375, 746.0026
671.5197, 757.4122
672.0018, 769.4523
672.4839, 783.2172
672.9660, 796.7648
673.4481, 808.4908
673.9302, 818.6724
674.4124, 828.7809
674.8945, 839.3356
675.3766, 850.3165
675.8587, 862.3920
676.3408, 875.0443
676.8229, 885.7248
677.3051, 893.8029
677.7872, 900.5706
678.2693, 906.8212
678.7514, 912.6951
679.2335, 919.8255
679.7156, 929.8379
680.1978, 938.8619
680.6799, 945.8398
681.1620, 952.0582
681.6441, 958.1767
682.1262, 964.5416
682.6083, 971.5824
683.0905, 979.7846
683.5726, 988.4230
684.0547, 995.9316
684.5368, 1002.284
685.0189, 1009.579
685.5010, 1018.266
685.9832, 1027.755
686.4653, 1037.419
686.9474, 1047.464
687.4295, 1058.535
687.9116, 1071.195
688.3937, 1084.136
688.8759, 1096.968
689.3580, 1109.923
689.8401, 1122.667
690.3222, 1135.616
690.8043, 1150.417
691.2864, 1168.575
691.7686, 1187.941
692.2507, 1202.732
692.7328, 1211.995
693.2149, 1223.009
693.6970, 1238.270
694.1791, 1253.137
694.6613, 1264.603
695.1434, 1273.284
695.6255, 1280.492
696.1076, 1286.513
696.5897, 1290.789
697.0718, 1293.432
697.5540, 1293.991
698.0361, 1291.717
698.5182, 1286.728
699.0003, 1279.685
699.4824, 1270.912
699.9645, 1260.873
700.4467, 1250.800
700.9288, 1240.942
701.4109, 1230.266
701.8930, 1218.089
702.3751, 1205.840
702.8572, 1194.249
703.3394, 1183.152
703.8215, 1172.250
704.3036, 1161.486
704.7857, 1151.161
705.2678, 1140.906
705.7499, 1131.600
706.2321, 1125.144
706.7142, 1121.132
707.1963, 1116.639
707.6784, 1109.908
708.1605, 1103.005
708.6426, 1100.133
709.1248, 1102.268
709.6069, 1104.947
710.0890, 1108.365
710.5711, 1112.143
711.0532, 1115.135
711.5353, 1118.859
712.0175, 1125.484
712.4996, 1135.537
712.9817, 1146.829
713.4638, 1157.223
713.9459, 1168.579
714.4280, 1183.974
714.9102, 1202.903
715.3923, 1222.362
715.8744, 1240.921
716.3565, 1259.866
716.8386, 1281.067
717.3207, 1304.316
717.8029, 1330.450
718.2850, 1360.032
718.7671, 1391.792
719.2492, 1425.315
719.7313, 1460.833
720.2134, 1498.456
720.6956, 1538.269
721.1777, 1581.251
721.6598, 1628.047
722.1419, 1678.298
722.6240, 1730.290
723.1061, 1784.882
723.5883, 1845.313
724.0704, 1912.642
724.5525, 1986.268
725.0346, 2066.762
725.5167, 2154.042
725.9988, 2243.807
726.4810, 2331.903
726.9631, 2429.220
727.4452, 2537.556
727.9273, 2655.563
728.4094, 2781.906
728.8915, 2917.343
729.3737, 3062.327
729.8558, 3215.916
730.3379, 3382.765
730.8200, 3568.195
731.3021, 3771.051
731.7842, 3987.333
732.2664, 4215.991
732.7485, 4461.825
733.2306, 4726.676
733.7127, 5011.499
734.1948, 5320.072
734.6769, 5653.860
735.1591, 6009.884
735.6412, 6388.989
736.1233, 6788.491
736.6054, 7207.765
737.0875, 7645.069
737.5696, 8097.165
738.0518, 8564.557
738.5339, 9041.875
739.0160, 9531.688
739.4981, 10028.80
739.9802, 10524.67
740.4623, 11019.73
740.9445, 11516.17
741.4266, 12013.15
741.9087, 12513.49
742.3908, 13021.56
742.8729, 13540.36
743.3550, 14062.45
743.8372, 14584.49
744.3193, 15114.03
744.8014, 15655.78
745.2835, 16203.96
745.7656, 16752.88
746.2477, 17302.63
746.7299, 17852.09
747.2120, 18403.03
747.6941, 18956.07
748.1762, 19519.45
748.6583, 20082.16
749.1404, 20607.59
749.6226, 21084.51
750.1047, 21514.08
750.5868, 21901.99
751.0689, 22242.31
751.5510, 22486.57
752.0331, 22641.29
752.5153, 22683.93
752.9974, 22615.19
753.4795, 22428.15
753.9616, 22108.90
754.4437, 21664.37
754.9258, 21114.49
755.4080, 20447.25
755.8901, 19703.99
756.3722, 18894.34
756.8543, 18037.72
757.3364, 17148.30
757.8185, 16242.13
758.3007, 15345.15
758.7828, 14474.34
759.2649, 13636.15
759.7470, 12841.57
760.2291, 12082.67
760.7112, 11377.87
761.1934, 10728.19
761.6755, 10127.56
762.1576, 9580.923
762.6397, 9076.339
763.1218, 8605.626
763.6039, 8166.018
764.0861, 7761.600
764.5682, 7399.871
765.0503, 7067.774
765.5324, 6758.534
766.0145, 6472.731
766.4966, 6211.666
766.9788, 5975.042
767.4609, 5756.667
767.9430, 5550.614
768.4251, 5357.297
768.9072, 5178.815
769.3893, 5016.252
769.8715, 4866.825
770.3536, 4731.970
770.8357, 4606.971
771.3178, 4487.470
771.7999, 4374.517
772.2820, 4273.294
772.7642, 4190.119
773.2463, 4110.371
773.7284, 4028.804
774.2105, 3949.938
774.6926, 3878.593
775.1747, 3813.902
775.6569, 3753.462
776.1390, 3696.145
776.6211, 3640.373
777.1032, 3584.433
777.5853, 3528.087
778.0674, 3469.598
778.5496, 3409.091
779.0317, 3344.422
779.5138, 3273.884
779.9959, 3199.083
780.4780, 3122.866
780.9601, 3045.533
781.4423, 2964.714
781.9244, 2878.186
782.4065, 2791.290
782.8886, 2704.511
783.3707, 2619.067
783.8528, 2534.381
784.3350, 2451.298
784.8171, 2373.220
785.2992, 2302.318
785.7813, 2236.793
786.2634, 2174.496
786.7455, 2115.453
787.2277, 2059.700
787.7098, 2007.338
788.1919, 1958.401
788.6740, 1913.536
789.1561, 1872.237
789.6382, 1832.851
790.1204, 1795.119
790.6025, 1760.421
791.0846, 1729.486
791.5667, 1701.173
792.0488, 1676.061
792.5309, 1652.731
793.0131, 1628.478
793.4952, 1602.486
793.9773, 1578.196
794.4594, 1557.032
794.9415, 1538.435
795.4236, 1523.254
795.9058, 1510.043
796.3879, 1494.883
796.8700, 1476.876
797.3521, 1460.120
797.8342, 1449.352
798.3163, 1443.187
798.7985, 1433.926
799.2806, 1420.634
799.7627, 1409.647
800.2448, 1403.039
800.7269, 1397.912
801.2090, 1391.290
801.6912, 1383.888
802.1733, 1379.345
802.6554, 1380.155
803.1375, 1379.842
803.6196, 1375.328
804.1017, 1371.007
804.5839, 1370.059
805.0660, 1371.854
805.5481, 1374.826
806.0302, 1378.417
806.5123, 1381.867
806.9944, 1384.480
807.4766, 1386.387
807.9587, 1387.273
808.4408, 1387.373
808.9229, 1389.416
809.4050, 1394.523
809.8871, 1401.089
810.3693, 1407.268
810.8514, 1413.078
811.3335, 1419.420
811.8156, 1426.327
812.2977, 1433.764
812.7798, 1440.731
813.2620, 1449.104
813.7441, 1460.461
814.2262, 1474.188
814.7083, 1488.420
815.1904, 1502.246
815.6725, 1517.558
816.1547, 1535.562
816.6368, 1555.597
817.1189, 1577.242
817.6010, 1600.276
818.0831, 1623.692
818.5652, 1647.119
819.0474, 1672.282
819.5295, 1701.930
820.0116, 1735.596
820.4937, 1768.613
820.9758, 1800.419
821.4579, 1834.989
821.9401, 1873.998
822.4222, 1915.482
822.9043, 1958.112
823.3864, 2001.662
823.8685, 2046.311
824.3506, 2093.286
824.8328, 2139.265
825.3149, 2182.090
825.7970, 2225.217
826.2791, 2271.151
826.7612, 2319.669
827.2433, 2369.652
827.7255, 2420.868
828.2076, 2473.972
828.6897, 2529.241
829.1718, 2586.998
829.6539, 2648.062
830.1360, 2712.084
830.6182, 2778.317
831.1003, 2846.292
831.5824, 2915.669
832.0645, 2985.748
832.5466, 3056.754
833.0287, 3126.760
833.5109, 3194.921
833.9930, 3264.009
834.4751, 3336.093
834.9572, 3406.994
835.4393, 3474.049
835.9214, 3536.610
836.4036, 3592.718
836.8857, 3641.032
837.3678, 3684.789
837.8499, 3724.323
838.3320, 3759.756
838.8141, 3788.474
839.2963, 3813.741
839.7784, 3839.967
840.2605, 3868.902
840.7426, 3903.511
841.2247, 3944.212
841.7068, 3993.625
842.1890, 4056.267
842.6711, 4132.504
843.1532, 4222.342
843.6353, 4326.097
844.1174, 4441.752
844.5995, 4567.393
845.0817, 4702.764
845.5638, 4842.780
846.0459, 4988.904
846.5280, 5135.322
847.0101, 5284.820
847.4922, 5429.227
847.9744, 5561.708
848.4565, 5687.763
848.9386, 5814.279
849.4207, 5940.407
849.9028, 6075.689
850.3849, 6225.327
850.8671, 6381.423
851.3492, 6539.499
851.8313, 6700.836
852.3134, 6867.281
852.7955, 7039.194
853.2776, 7220.926
853.7598, 7417.343
854.2419, 7620.706
854.7240, 7820.817
855.2061, 8019.592
855.6882, 8224.269
856.1703, 8434.918
856.6525, 8634.317
857.1346, 8815.202
857.6167, 8966.246
858.0988, 9067.729
858.5809, 9125.333
859.0630, 9095.960
859.5452, 8983.137
860.0273, 8777.332
860.5094, 8458.818
860.9915, 8057.495
861.4736, 7580.925
861.9557, 7040.428
862.4379, 6491.610
862.9200, 5923.166
863.4021, 5379.296
863.8842, 4869.626
864.3663, 4399.195
864.8484, 3968.469
865.3306, 3581.127
865.8127, 3239.266
866.2948, 2945.836
866.7769, 2688.546
867.2590, 2463.350
867.7411, 2266.031
868.2233, 2091.996
868.7054, 1940.149
869.1875, 1807.344
869.6696, 1692.425
870.1517, 1589.685
870.6339, 1494.317
871.1160, 1406.801
871.5981, 1329.809
872.0802, 1264.285
872.5623, 1204.972
873.0444, 1152.889
873.5266, 1104.925
874.0087, 1059.725
874.4908, 1017.441
874.9729, 978.9898
875.4550, 944.5726
875.9371, 912.2420
876.4193, 881.6891
876.9014, 853.4061
877.3835, 828.8694
877.8656, 806.1879
878.3477, 782.6998
878.8298, 758.8837
879.3120, 737.6700
879.7941, 721.2713
880.2762, 706.2487
880.7583, 688.8523
881.2404, 670.8604
881.7225, 655.5544
882.2047, 642.8138
882.6868, 631.1349
883.1689, 619.8288
883.6510, 608.3913
884.1331, 595.8226
884.6152, 582.4343
885.0974, 571.1406
885.5795, 562.2680
886.0616, 553.4140
886.5437, 543.9255
887.0258, 534.5781
887.5079, 525.9351
887.9901, 517.9622
888.4722, 510.4904
888.9543, 503.9188
889.4364, 497.0482
889.9185, 489.3863
890.4006, 482.0489
890.8828, 475.3636
891.3649, 469.2899
891.8470, 463.7850
892.3291, 458.8273
892.8112, 454.1277
893.2933, 449.9750
893.7755, 445.5876
894.2576, 439.9896
894.7397, 434.1811
895.2218, 429.2835
895.7039, 425.3983
896.1860, 422.4624
896.6682, 420.4550
897.1503, 418.4472
897.6324, 415.0497
898.1145, 410.7759
898.5966, 406.8945
899.0787, 403.4991
899.5609, 401.2324
900.0430, 400.3817
900.5251, 399.3965
901.0072, 396.6573
901.4893, 392.6300
901.9714, 389.6654
902.4536, 388.0439
902.9357, 386.4488
903.4178, 384.6729
903.8999, 383.0952
904.3820, 382.0919
904.8641, 381.3222
905.3463, 380.1496
905.8284, 378.5173
906.3105, 377.0610
906.7926, 376.0433
907.2747, 374.9414
907.7568, 373.5261
908.2390, 372.0201
908.7211, 370.7122
909.2032, 369.4833
909.6853, 367.8109
910.1674, 365.3307
910.6495, 363.1517
911.1317, 362.3173
911.6138, 361.9198
912.0959, 361.0039
912.5780, 359.6515
913.0601, 358.1063
913.5422, 356.4891
914.0244, 355.1117
914.5065, 354.3190
914.9886, 353.7988
915.4707, 352.7739
915.9528, 351.3662
916.4349, 350.4739
916.9171, 350.2303
917.3992, 349.7408
917.8813, 348.4795
918.3634, 346.8759
918.8455, 345.7476
919.3276, 345.1773
919.8098, 343.3961
920.2919, 339.5941
920.7740, 336.6813
921.2561, 335.8170
921.7382, 335.4323
922.2203, 334.3860
922.7025, 332.7588
923.1846, 330.9135
923.6667, 328.9628
924.1488, 326.5424
924.6309, 323.6010
925.1130, 320.2047
925.5952, 315.9173
926.0773, 311.4595
926.5594, 307.7411
927.0415, 304.8143
927.5236, 301.9864
928.0057, 298.7940
928.4879, 295.8781
928.9700, 293.7347
929.4521, 292.0419
929.9342, 290.7678
930.4163, 289.5521
930.8984, 287.4188
931.3806, 284.0453
931.8627, 280.6161
932.3448, 278.3388
932.8269, 276.8126
933.3090, 275.4064
933.7911, 274.0287
934.2733, 272.2762
934.7554, 270.0816
935.2375, 267.6831
935.7196, 265.1991
936.2017, 262.8261
936.6838, 261.1192
937.1660, 260.1233
937.6481, 258.7769
938.1302, 256.9791
938.6123, 255.3001
939.0944, 254.0407
939.5765, 252.7062
940.0587, 250.6655
940.5408, 248.0745
941.0229, 246.1944
941.5050, 245.6187
941.9871, 244.6673
942.4692, 242.9878
942.9514, 241.2748
943.4335, 239.9302
943.9156, 238.6372
944.3977, 236.8693
944.8798, 234.6163
945.3619, 232.7241
945.8441, 231.4859
946.3262, 230.4909
946.8083, 229.7710
947.2904, 229.0820
947.7725, 228.1909
948.2546, 227.1613
948.7368, 226.1556
949.2189, 225.2170
949.7010, 224.3879
950.1831, 224.0291
950.6652, 223.4807
951.1473, 221.7849
951.6295, 219.5338
952.1116, 217.7635
952.5937, 216.6102
953.0758, 215.7912
953.5579, 215.1770
954.0400, 214.4949
954.5222, 213.0607
955.0043, 211.3221
955.4864, 210.9079
955.9685, 211.6285
956.4506, 211.5871
956.9327, 210.2193
957.4149, 208.7395
957.8970, 208.2435
958.3791, 208.3980
958.8612, 208.1623
959.3433, 207.5034
959.8254, 206.9943
960.3076, 206.7888
960.7897, 206.1348
961.2718, 204.5079
961.7539, 202.7177
962.2360, 201.8242
962.7181, 201.7852
963.2003, 201.7116
963.6824, 201.9031
964.1645, 201.4124
964.6466, 199.3486
965.1287, 197.5872
965.6108, 197.4089
966.0930, 198.0252
966.5751, 198.3668
967.0572, 198.4151
967.5393, 198.1392
968.0214, 197.3490
968.5035, 196.4818
968.9857, 195.3903
969.4678, 194.5031
969.9499, 194.4259
970.4320, 194.7359
970.9141, 194.2924
971.3962, 192.6807
971.8784, 191.7103
972.3605, 193.0084
972.8426, 194.3704
973.3247, 193.9556
973.8068, 192.9023
974.2889, 192.9992
974.7711, 194.0036
975.2532, 194.0307
975.7353, 192.0543
976.2174, 190.0220
976.6995, 189.7713
977.1816, 190.4779
977.6638, 191.3827
978.1459, 192.1904
978.6280, 192.1046
979.1101, 191.1208
979.5922, 190.3976
980.0743, 190.8357
980.5565, 191.5694
981.0386, 190.8878
981.5207, 189.3316
982.0028, 189.0340
982.4849, 189.9526
982.9670, 190.5593
983.4492, 190.3362
983.9313, 189.9147
984.4134, 189.8661
984.8955, 190.1394
985.3776, 190.6762
985.8597, 191.4951
986.3419, 191.9155
986.8240, 191.8442
987.3061, 191.6228
987.7882, 191.3775
988.2703, 191.1059
988.7524, 190.8261
989.2346, 190.5175
989.7167, 189.9269
990.1988, 188.7859
990.6809, 188.1995
991.1630, 188.4731
991.6451, 188.9376
992.1273, 189.3587
992.6094, 189.6973
993.0915, 189.8828
993.5736, 189.9082
994.0557, 189.9134
994.5378, 189.7928
995.0200, 189.8096
995.5021, 190.4560
995.9842, 190.7507
996.4663, 189.6921
996.9484, 188.1376
997.4305, 187.5000
997.9127, 187.9298
998.3948, 188.6667
998.8769, 190.2062
999.3590, 191.2113
999.8411, 190.7637
1000.323, 190.1005
1000.805, 190.2863
1001.287, 190.9721
1001.770, 191.3070
1002.252, 191.0965
1002.734, 190.7911
1003.216, 190.2493
1003.698, 190.0517
1004.180, 191.0176
1004.662, 192.1526
1005.144, 192.2112
1005.627, 191.4743
1006.109, 190.9560
1006.591, 191.0008
1007.073, 191.4532
1007.555, 192.7815
1008.037, 193.9146
1008.519, 193.4464
1009.001, 192.2584
1009.483, 191.6220
1009.966, 191.7215
1010.448, 192.4320
1010.930, 193.7207
1011.412, 194.9933
1011.894, 195.5560
1012.376, 195.7809
1012.858, 196.3559
1013.340, 197.0560
1013.823, 197.1756
1014.305, 196.7059
1014.787, 196.2781
1015.269, 196.2430
1015.751, 196.5667
1016.233, 197.3399
1016.715, 198.3985
1017.197, 199.3987
1017.679, 200.2696
1018.162, 200.6148
1018.644, 200.3935
1019.126, 200.2327
1019.608, 200.5554
1020.090, 201.1150
1020.572, 201.4176
1021.054, 201.5450
1021.536, 202.2030
1022.018, 203.3699
1022.501, 204.3421
1022.983, 204.9558
1023.465, 205.3008
1023.947, 205.4188
1024.429, 205.4047
1024.911, 205.3962
1025.393, 205.3860
1025.875, 205.8976
1026.358, 207.0559
1026.840, 207.6014
1027.322, 207.0634
1027.804, 206.5146
1028.286, 206.8110
1028.768, 207.6377
1029.250, 208.2004
1029.732, 208.4496
1030.214, 208.8573
1030.697, 209.5893
1031.179, 209.8110
1031.661, 208.9806
1032.143, 208.3907
1032.625, 209.3229
1033.107, 211.0272
1033.589, 211.2611
1034.071, 209.5193
1034.553, 208.6107
1035.036, 208.8937
1035.518, 209.2239
1036.000, 209.3322
1036.482, 209.3663
1036.964, 209.4075
1037.446, 209.4808
1037.928, 209.7247
1038.410, 210.4178
1038.893, 210.2803
1039.375, 208.4857
1039.857, 207.1785
1040.339, 206.8958
1040.821, 207.2351
1041.303, 208.2652
1041.785, 209.6342
1042.267, 210.3110
1042.750, 210.1573
1043.232, 209.7814
1043.714, 208.4798
1044.196, 207.9162
1044.678, 209.6475
1045.160, 211.1430
1045.642, 209.9120
1046.124, 207.1510
1046.606, 205.8417
1047.089, 206.4615
1047.571, 207.2470
1048.053, 208.2863
1048.535, 209.1044
1049.017, 209.3762
1049.499, 209.5664
1049.981, 210.1994
1050.463, 210.9772
1050.945, 211.1413
1051.428, 210.4896
1051.910, 210.0169
1052.392, 209.8753
1052.874, 209.9883
1053.356, 210.9084
1053.838, 211.5372
1054.320, 210.7378
1054.802, 209.1101
1055.285, 207.8413
1055.767, 207.1066
1056.249, 206.8218
1056.731, 207.3195
1057.213, 207.7974
1057.695, 207.9420
1058.177, 207.9751
1058.659, 208.0650
1059.141, 208.1773
1059.624, 208.2527
1060.106, 208.2809
1060.588, 208.1401
1061.070, 207.3151
1061.552, 206.9514
1062.034, 208.0740
1062.516, 209.2820
1062.998, 209.3605
1063.480, 208.7916
1063.963, 208.4148
1064.445, 208.3931
1064.927, 208.7129
1065.409, 209.9763
1065.891, 210.7574
1066.373, 210.1850
1066.855, 209.1898
1067.337, 208.1524
1067.820, 207.3523
1068.302, 207.2536
1068.784, 207.8278
1069.266, 208.2700
1069.748, 208.2769
1070.230, 208.0984
1070.712, 207.5604
1071.194, 207.1642
1071.677, 207.4432
1072.159, 208.0171
1072.641, 208.3964
1073.123, 208.4919
1073.605, 208.2927
1074.087, 207.6009
1074.569, 207.0837
1075.051, 207.1027
1075.533, 207.3538
1076.016, 207.9325
1076.498, 208.4110
1076.980, 208.0826
1077.462, 207.1093
1077.944, 206.4154
1078.426, 206.3251
1078.908, 206.4861
1079.390, 206.8353
1079.873, 207.2684
1080.355, 208.0449
1080.837, 208.6282
1081.319, 208.2384
1081.801, 207.0999
1082.283, 205.9496
1082.765, 204.8804
1083.247, 204.5978
1083.729, 206.2819
1084.212, 207.8124
1084.694, 207.7038
1085.176, 207.0272
1085.658, 206.8303
1086.140, 207.0468
1086.622, 207.2195
1087.104, 207.2352
1087.586, 207.3108
1088.068, 207.5207
1088.551, 207.8346
1089.033, 208.6571
1089.515, 209.1965
1089.997, 208.6003
1090.479, 207.2628
1090.961, 205.8025
1091.443, 204.3827
1091.925, 203.5913
1092.408, 204.2048
1092.890, 204.7284
1093.372, 204.3132
1093.854, 203.8530
1094.336, 204.2674
1094.818, 204.9136
1095.300, 204.8024
1095.782, 203.8636
1096.265, 202.6177
1096.747, 200.5618
1097.229, 199.4887
1097.711, 200.8086
1098.193, 202.3598
1098.675, 202.9359
1099.157, 203.0018
1099.639, 203.1854
1100.121, 203.4497
1100.604, 203.3259
1101.086, 202.5256
1101.568, 201.9278
1102.050, 201.9172
1102.532, 201.9579
1103.014, 201.6998
1103.496, 201.4873
1103.978, 201.7139
1104.460, 202.2320
1104.943, 202.6701
1105.425, 203.0194
1105.907, 203.0239
1106.389, 202.0882
1106.871, 201.5566
1107.353, 201.9858
1107.835, 202.7775
1108.317, 203.9137
1108.800, 204.9532
1109.282, 204.9930
1109.764, 203.9244
1110.246, 203.3338
1110.728, 203.8163
1111.210, 204.1096
1111.692, 204.0276
1112.174, 203.7428
1112.656, 203.0221
1113.139, 202.3517
1113.621, 202.4863
1114.103, 203.3278
1114.585, 203.7471
1115.067, 203.4775
1115.549, 203.2554
1116.031, 203.3048
1116.513, 203.0716
1116.995, 202.0453
1117.478, 201.0295
1117.960, 200.7699
1118.442, 201.0681
1118.924, 201.3018
1119.406, 201.4828
1119.888, 201.5697
1120.370, 201.7095
1120.852, 201.4074
1121.335, 200.2609
1121.817, 199.1898
1122.299, 198.8913
1122.781, 198.9345
1123.263, 198.5121
1123.745, 197.6107
1124.227, 196.9348
1124.709, 196.5246
1125.192, 196.2031
1125.674, 195.9655
1126.156, 195.8227
1126.638, 195.9208
1127.120, 195.7235
1127.602, 194.4520
1128.084, 192.4343
1128.566, 191.3940
1129.048, 191.4860
1129.531, 191.1734
1130.013, 190.3777
1130.495, 189.0818
1130.977, 187.1558
1131.459, 185.6491
1131.941, 185.5317
1132.423, 186.0596
1132.905, 185.4674
1133.387, 183.8694
1133.870, 183.2058
1134.352, 183.4296
1134.834, 183.1470
1135.316, 182.0985
1135.798, 181.1645
1136.280, 180.8489
1136.762, 180.4577
1137.244, 178.9744
1137.727, 176.8193
1138.209, 174.9963
1138.691, 173.6377
1139.173, 173.7008
1139.655, 174.9734
1140.137, 175.7494
1140.619, 175.4397
1141.101, 174.5791
1141.583, 173.5291
1142.066, 172.4209
1142.548, 171.3302
1143.030, 170.4007
1143.512, 170.0858
1143.994, 170.1611
1144.476, 169.9590
1144.958, 169.4144
1145.440, 168.9701
1145.922, 168.8595
1146.405, 168.7193
1146.887, 167.8763
1147.369, 167.1397
1147.851, 167.9547
1148.333, 169.1471
1148.815, 168.7455
1149.297, 167.1741
1149.779, 166.0043
1150.262, 165.6637
1150.744, 165.4261
1151.226, 164.7638
1151.708, 164.2937
1152.190, 164.5247
1152.672, 165.0061
1153.154, 165.6226
1153.636, 166.0783
1154.119, 165.8313
1154.601, 165.0286
1155.083, 164.5655
1155.565, 164.8333
1156.047, 164.9238
1156.529, 164.2366
1157.011, 163.6981
1157.493, 163.7976
1157.975, 164.1340
1158.458, 164.3940
1158.940, 164.6195
1159.422, 165.0048
1159.904, 165.5930
1160.386, 165.8899
1160.868, 165.8647
1161.350, 165.5199
1161.832, 164.3418
1162.314, 163.5127
1162.797, 163.5742
1163.279, 164.1874
1163.761, 165.3376
1164.243, 166.7036
1164.725, 166.6545
1165.207, 164.5962
1165.689, 163.2090
1166.171, 162.6346
1166.654, 162.3539
1167.136, 162.3568
1167.618, 162.2857
1168.100, 161.8658
1168.582, 161.3236
1169.064, 161.0177
1169.546, 160.9512
1170.028, 161.2951
1170.510, 162.0702
1170.993, 162.2583
1171.475, 161.7423
1171.957, 161.2690
1172.439, 161.1206
1172.921, 160.8945
1173.403, 160.1480
1173.885, 159.3786
1174.367, 159.9669
1174.849, 161.2847
1175.332, 160.8431
1175.814, 159.1405
1176.296, 158.4362
1176.778, 158.9836
1177.260, 159.6663
1177.742, 159.9395
1178.224, 159.6818
1178.706, 158.2952
1179.189, 156.8646
1179.671, 157.2029
1180.153, 158.1262
1180.635, 157.8187
1181.117, 156.6294
1181.599, 155.5389
1182.081, 154.8288
1182.563, 154.5787
1183.046, 155.0373
1183.528, 155.2558
1184.010, 154.4847
1184.492, 153.5036
1184.974, 152.6899
1185.456, 152.0661
1185.938, 151.6481
1186.420, 151.4079
1186.902, 151.2781
1187.385, 151.2461
1187.867, 151.3746
1188.349, 152.1974
1188.831, 152.3918
1189.313, 151.0358
1189.795, 149.8085
1190.277, 149.8924
1190.759, 150.1726
1191.241, 149.3841
1191.724, 147.8631
1192.206, 146.9605
1192.688, 146.8697
1193.170, 146.5493
1193.652, 145.8936
1194.134, 145.3256
1194.616, 144.9089
1195.098, 144.7181
1195.581, 144.9089
1196.063, 144.9543
1196.545, 144.0033
1197.027, 142.4172
1197.509, 141.9436
1197.991, 142.4735
1198.473, 142.1598
1198.955, 140.9659
1199.438, 139.9707
1199.920, 139.4853
1200.402, 139.4649
1200.884, 139.9358
1201.366, 140.2759
1201.848, 139.4149
1202.330, 138.0115
1202.812, 137.3674
1203.294, 137.1274
1203.776, 136.5952
1204.259, 135.7610
1204.741, 134.7390
1205.223, 133.6474
1205.705, 133.0207
1206.187, 133.4194
1206.669, 133.6852
1207.151, 132.6913
1207.633, 131.6043
1208.116, 131.5816
1208.598, 131.8009
1209.080, 131.0792
1209.562, 129.7721
1210.044, 129.1557
1210.526, 129.5354
1211.008, 129.4245
1211.490, 127.9538
1211.973, 126.8473
1212.455, 126.7996
1212.937, 126.6974
1213.419, 125.8754
1213.901, 124.9694
1214.383, 124.6910
1214.865, 124.8112
1215.347, 124.5288
1215.829, 123.7604
1216.312, 123.1643
1216.794, 122.7655
1217.276, 122.4576
1217.758, 122.2448
1218.240, 121.9694
1218.722, 121.5400
1219.204, 121.1254
1219.686, 120.9576
1220.168, 120.8406
1220.651, 120.1943
1221.133, 119.1604
1221.615, 118.1908
1222.097, 117.3819
1222.579, 117.0888
1223.061, 117.2864
1223.543, 117.5633
1224.025, 117.7202
1224.508, 117.5165
1224.990, 116.4059
1225.472, 115.2493
1225.954, 114.9952
1226.436, 115.1027
1226.918, 115.0742
1227.400, 114.8870
1227.882, 114.4897
1228.365, 113.9792
1228.847, 113.7974
1229.329, 114.2509
1229.811, 114.2520
1230.293, 112.6689
1230.775, 111.7435
1231.257, 112.9446
1231.739, 114.2268
1232.221, 114.2718
1232.703, 113.6479
1233.186, 112.9404
1233.668, 112.2107
1234.150, 111.9314
1234.632, 112.3603
1235.114, 112.1201
1235.596, 110.9510
1236.078, 110.3872
1236.560, 110.8661
1237.043, 111.3968
1237.525, 111.4058
1238.007, 111.2252
1238.489, 111.3493
1238.971, 111.5211
1239.453, 110.8321
1239.935, 109.6296
1240.417, 109.0779
1240.900, 109.1364
1241.382, 109.4987
1241.864, 109.9906
1242.346, 110.2302
1242.828, 110.0303
1243.310, 109.6233
1243.792, 109.1066
1244.274, 108.5605
1244.756, 107.7915
1245.239, 107.2649
1245.721, 107.4896
1246.203, 108.2280
1246.685, 109.5084
1247.167, 110.9743
1247.649, 110.9854
1248.131, 108.5312
1248.613, 107.0740
1249.095, 107.8723
1249.578, 108.4149
1250.060, 108.1262
1250.542, 107.7304
1251.024, 107.5698
1251.506, 107.5078
1251.988, 107.3705
1252.470, 107.2059
1252.952, 107.1519
1253.435, 107.2020
1253.917, 107.8653
1254.399, 109.1085
1254.881, 109.6775
1255.363, 109.3568
1255.845, 108.4170
1256.327, 107.0144
1256.809, 106.1595
1257.292, 107.0959
1257.774, 108.4104
1258.256, 107.7849
1258.738, 106.6091
1259.220, 107.0923
1259.702, 108.3637
1260.184, 108.7160
1260.666, 108.2543
1261.148, 108.1663
1261.630, 108.7785
1262.113, 109.1017
1262.595, 108.3685
1263.077, 107.9062
1263.559, 108.2804
1264.041, 108.7748
1264.523, 109.1432
1265.005, 109.3799
1265.487, 109.4315
1265.970, 109.3892
1266.452, 109.4523
1266.934, 109.6211
1267.416, 109.9730
1267.898, 110.6088
1268.380, 110.5083
1268.862, 109.5159
1269.344, 108.9270
1269.827, 109.1628
1270.309, 109.6501
1270.791, 109.9848
1271.273, 110.2386
1271.755, 110.4163
1272.237, 110.6535
1272.719, 111.3020
1273.201, 112.1309
1273.683, 112.9589
1274.166, 113.5242
1274.648, 112.9855
1275.130, 111.5488
1275.612, 111.0434
1276.094, 112.3992
1276.576, 113.6150
1277.058, 113.8213
1277.540, 113.8418
1278.022, 113.9627
1278.505, 114.0275
1278.987, 113.8379
1279.469, 113.6040
1279.951, 113.5376
1280.433, 113.6427
1280.915, 113.9817
1281.397, 114.6320
1281.879, 115.0169
1282.362, 115.1064
1282.844, 115.2702
1283.326, 115.5701
1283.808, 115.8054
1284.290, 115.8853
1284.772, 115.9276
1285.254, 115.9649
1285.736, 115.9947
##END=



