##NAMES=Pyroxene
##RRUFFID=R110130
##LOCALITY=Little Deer Creek eclogite, Skagit County, Washington, USA
##OWNER=RRUFF
##SOURCE=Bart Cannon
##DESCRIPTION=Blocky transparent green crystals coating a surface of a rock. Single crystal X-ray diffraction shows that this sample is composed of exsolution lamellae of diopside and jadeite
##STATUS=The identification of this mineral has been confirmed only by single crystal X-ray diffraction.
##URL=rruff.info/R110130
164.7382, 68.55047
165.2203, 69.76071
165.7024, 70.82310
166.1845, 71.64214
166.6666, 72.73168
167.1487, 74.58568
167.6309, 78.18662
168.1130, 81.72918
168.5951, 83.93434
169.0772, 84.98327
169.5593, 85.89619
170.0414, 86.94029
170.5236, 88.29444
171.0057, 90.16811
171.4878, 93.12625
171.9699, 96.27235
172.4520, 98.70340
172.9341, 100.4888
173.4163, 102.3674
173.8984, 105.3667
174.3805, 108.7842
174.8626, 111.3674
175.3447, 111.5293
175.8268, 111.2676
176.3090, 113.1243
176.7911, 117.1015
177.2732, 121.3405
177.7553, 123.5915
178.2374, 124.3077
178.7195, 125.1111
179.2017, 127.0114
179.6838, 129.3071
180.1659, 130.6956
180.6480, 131.1214
181.1301, 131.6178
181.6122, 133.6278
182.0944, 136.6753
182.5765, 139.1327
183.0586, 139.6779
183.5407, 139.2567
184.0228, 140.1079
184.5049, 142.4193
184.9871, 145.0489
185.4692, 146.7307
185.9513, 147.5618
186.4334, 147.9385
186.9155, 147.9539
187.3976, 147.6590
187.8798, 147.2171
188.3619, 146.6336
188.8440, 145.9143
189.3261, 144.9236
189.8082, 143.6883
190.2903, 142.7203
190.7725, 142.2980
191.2546, 142.3670
191.7367, 142.7852
192.2188, 143.6862
192.7009, 144.5765
193.1830, 144.4900
193.6652, 143.4273
194.1473, 142.2968
194.6294, 141.5258
195.1115, 141.1028
195.5936, 140.9816
196.0757, 141.2381
196.5579, 141.6534
197.0400, 141.6493
197.5221, 141.1497
198.0042, 141.0152
198.4863, 141.9013
198.9684, 143.8178
199.4506, 145.5353
199.9327, 146.9217
200.4148, 148.1119
200.8969, 149.4944
201.3790, 151.1903
201.8611, 152.5193
202.3433, 152.9464
202.8254, 152.3863
203.3075, 151.9429
203.7896, 151.6324
204.2717, 151.5384
204.7538, 151.9611
205.2360, 153.0036
205.7181, 154.1658
206.2002, 155.0948
206.6823, 155.7086
207.1644, 156.6775
207.6465, 158.2904
208.1287, 160.1575
208.6108, 161.0784
209.0929, 160.8270
209.5750, 160.2574
210.0571, 159.9069
210.5392, 159.8599
211.0214, 159.6077
211.5035, 159.0253
211.9856, 158.2397
212.4677, 157.6763
212.9498, 157.3875
213.4319, 157.2094
213.9141, 157.1705
214.3962, 157.5034
214.8783, 157.0820
215.3604, 155.4854
215.8425, 153.1100
216.3246, 151.7134
216.8067, 151.7208
217.2889, 151.8567
217.7710, 151.2343
218.2531, 149.4302
218.7352, 148.1571
219.2173, 147.8023
219.6994, 148.0770
220.1816, 147.5149
220.6637, 145.5003
221.1458, 143.6862
221.6279, 143.3338
222.1100, 145.3460
222.5921, 146.3950
223.0743, 146.0200
223.5564, 144.4788
224.0385, 142.8361
224.5206, 140.8620
225.0027, 139.2047
225.4848, 138.3667
225.9670, 138.8126
226.4491, 138.9825
226.9312, 138.7538
227.4133, 138.1646
227.8954, 137.3067
228.3775, 135.9585
228.8597, 134.6910
229.3418, 133.9084
229.8239, 133.8866
230.3060, 133.6867
230.7881, 133.0943
231.2702, 132.2497
231.7524, 131.9394
232.2345, 132.6643
232.7166, 133.2139
233.1987, 132.7122
233.6808, 130.2138
234.1629, 128.8200
234.6451, 129.2728
235.1272, 131.0111
235.6093, 131.4766
236.0914, 129.8210
236.5735, 128.0586
237.0556, 127.3860
237.5378, 128.5022
238.0199, 129.1441
238.5020, 128.8565
238.9841, 128.0008
239.4662, 128.1944
239.9483, 130.4684
240.4305, 132.3919
240.9126, 132.5256
241.3947, 129.6737
241.8768, 127.7235
242.3589, 127.2896
242.8410, 127.8523
243.3232, 127.4294
243.8053, 125.1115
244.2874, 123.0611
244.7695, 122.4294
245.2516, 123.7809
245.7337, 125.3099
246.2159, 127.2348
246.6980, 129.2689
247.1801, 130.4158
247.6622, 130.2935
248.1443, 129.8752
248.6264, 129.6298
249.1086, 129.7187
249.5907, 129.5446
250.0728, 128.8232
250.5549, 127.9112
251.0370, 127.8561
251.5191, 129.2438
252.0013, 130.5648
252.4834, 131.0844
252.9655, 130.3162
253.4476, 130.0694
253.9297, 130.7187
254.4118, 131.7247
254.8940, 131.8117
255.3761, 130.5026
255.8582, 129.1117
256.3403, 128.1152
256.8224, 127.4569
257.3046, 127.4333
257.7867, 128.3421
258.2688, 129.6905
258.7509, 130.5300
259.2330, 130.7492
259.7151, 130.6577
260.1973, 130.1596
260.6794, 128.9344
261.1615, 128.8726
261.6436, 130.4633
262.1257, 132.7916
262.6078, 134.3445
263.0900, 134.9761
263.5721, 135.1517
264.0542, 134.9224
264.5363, 134.1949
265.0184, 133.6877
265.5005, 133.4298
265.9827, 133.3503
266.4648, 133.2698
266.9469, 133.0265
267.4290, 133.2919
267.9111, 134.6099
268.3932, 137.1158
268.8754, 138.0885
269.3575, 136.9181
269.8396, 135.1490
270.3217, 134.8814
270.8038, 136.5281
271.2859, 138.0772
271.7681, 139.0692
272.2502, 139.5012
272.7323, 139.1534
273.2144, 137.6965
273.6965, 136.1388
274.1786, 135.7768
274.6608, 136.9162
275.1429, 137.5384
275.6250, 136.9347
276.1071, 135.3339
276.5892, 134.4967
277.0714, 134.5810
277.5535, 135.0179
278.0356, 135.3129
278.5177, 135.4515
278.9998, 135.5713
279.4819, 135.6266
279.9641, 135.6974
280.4462, 136.2899
280.9283, 137.5655
281.4104, 138.6735
281.8925, 138.6662
282.3746, 137.5208
282.8568, 136.9972
283.3389, 137.5376
283.8210, 138.7626
284.3031, 139.5053
284.7852, 139.6862
285.2673, 140.1162
285.7495, 141.7399
286.2316, 144.4187
286.7137, 146.1738
287.1958, 146.5130
287.6779, 146.1779
288.1600, 146.7542
288.6422, 148.2552
289.1243, 149.7997
289.6064, 150.9792
290.0885, 151.7695
290.5706, 151.8523
291.0527, 151.0482
291.5349, 149.8912
292.0170, 149.1685
292.4991, 148.8646
292.9812, 148.7597
293.4633, 148.9723
293.9454, 149.3130
294.4276, 149.1329
294.9097, 148.3542
295.3918, 147.2605
295.8739, 146.0979
296.3560, 144.8990
296.8381, 143.7592
297.3203, 142.6070
297.8024, 141.5800
298.2845, 140.7995
298.7666, 140.2241
299.2487, 140.3482
299.7308, 142.4948
300.2130, 145.8771
300.6951, 148.1905
301.1772, 147.7577
301.6593, 146.1062
302.1414, 145.2368
302.6235, 145.1522
303.1057, 145.6813
303.5878, 147.3183
304.0699, 149.4146
304.5520, 150.6960
305.0341, 150.1863
305.5162, 149.2081
305.9984, 149.0805
306.4805, 149.7370
306.9626, 150.7160
307.4447, 152.0910
307.9268, 153.4792
308.4089, 154.2972
308.8911, 154.0598
309.3732, 153.7369
309.8553, 154.1733
310.3374, 155.1916
310.8195, 156.2046
311.3016, 156.3318
311.7838, 156.5739
312.2659, 158.0401
312.7480, 161.5263
313.2301, 164.8353
313.7122, 166.3532
314.1943, 166.7680
314.6765, 167.4933
315.1586, 169.1896
315.6407, 171.3722
316.1228, 173.9543
316.6049, 177.1133
317.0870, 179.7976
317.5692, 181.0615
318.0513, 181.6586
318.5334, 182.6337
319.0155, 184.7100
319.4976, 186.9057
319.9797, 188.6008
320.4619, 189.6698
320.9440, 191.3466
321.4261, 194.3860
321.9082, 198.0168
322.3903, 201.4987
322.8724, 205.1416
323.3546, 208.1448
323.8367, 209.8875
324.3188, 210.4353
324.8009, 211.6145
325.2830, 214.0361
325.7651, 216.9704
326.2473, 219.9422
326.7294, 223.4742
327.2115, 226.3988
327.6936, 227.9483
328.1757, 228.5564
328.6578, 230.4499
329.1400, 235.1606
329.6221, 239.9092
330.1042, 243.5706
330.5863, 245.7714
331.0684, 247.4878
331.5505, 248.3375
332.0327, 248.7604
332.5148, 249.7324
332.9969, 251.5303
333.4790, 253.5082
333.9611, 255.6132
334.4432, 258.0869
334.9254, 259.6049
335.4075, 259.6790
335.8896, 259.1790
336.3717, 259.2730
336.8538, 260.0507
337.3359, 261.2479
337.8180, 263.1412
338.3001, 265.6957
338.7823, 266.6302
339.2644, 265.4859
339.7465, 263.6285
340.2286, 262.4177
340.7107, 262.0242
341.1928, 261.2807
341.6750, 259.7228
342.1571, 257.7412
342.6392, 257.0728
343.1213, 257.8854
343.6034, 259.0948
344.0855, 260.1866
344.5677, 261.1313
345.0498, 261.2714
345.5319, 260.3685
346.0140, 258.8864
346.4961, 257.7375
346.9782, 256.9081
347.4604, 255.9040
347.9425, 254.2072
348.4246, 252.0716
348.9067, 250.5689
349.3888, 249.8381
349.8709, 249.3229
350.3531, 248.1458
350.8352, 246.5496
351.3173, 245.4412
351.7994, 245.6608
352.2815, 246.4510
352.7636, 246.4551
353.2458, 245.6705
353.7279, 244.8214
354.2100, 244.6645
354.6921, 244.8361
355.1742, 244.7126
355.6563, 244.0687
356.1385, 243.0786
356.6206, 241.6043
357.1027, 239.7923
357.5848, 238.4100
358.0669, 238.2057
358.5490, 238.4875
359.0312, 238.5833
359.5133, 238.2583
359.9954, 237.9739
360.4775, 238.0359
360.9596, 238.3360
361.4417, 238.6395
361.9239, 238.5952
362.4060, 238.7304
362.8881, 239.4836
363.3702, 241.0676
363.8523, 242.3622
364.3344, 242.4470
364.8166, 242.2449
365.2987, 242.8144
365.7808, 245.3229
366.2629, 247.6921
366.7450, 249.2616
367.2271, 250.0231
367.7093, 250.9315
368.1914, 252.3741
368.6735, 253.8197
369.1556, 254.9255
369.6377, 254.9420
370.1198, 255.5170
370.6020, 257.0945
371.0841, 259.3255
371.5662, 260.9105
372.0483, 261.1647
372.5304, 261.5770
373.0125, 262.7952
373.4947, 265.0887
373.9768, 267.4910
374.4589, 270.4678
374.9410, 273.2077
375.4231, 274.1401
375.9052, 272.5260
376.3874, 271.2091
376.8695, 271.0700
377.3516, 272.0922
377.8337, 273.5258
378.3158, 275.7455
378.7979, 277.4306
379.2801, 276.9329
379.7622, 274.1414
380.2443, 271.5528
380.7264, 269.5834
381.2085, 268.1486
381.6906, 267.2791
382.1728, 266.9962
382.6549, 266.3112
383.1370, 264.1944
383.6191, 261.0302
384.1012, 258.4547
384.5833, 256.6648
385.0655, 255.2619
385.5476, 253.8319
386.0297, 252.3591
386.5118, 250.8729
386.9939, 249.3929
387.4760, 247.8896
387.9582, 246.3327
388.4403, 244.7107
388.9224, 242.9946
389.4045, 240.9519
389.8866, 238.8759
390.3687, 237.1965
390.8509, 236.4892
391.3330, 235.7866
391.8151, 234.2264
392.2972, 232.0232
392.7793, 230.0214
393.2614, 228.9370
393.7436, 228.0305
394.2257, 226.6677
394.7078, 224.4439
395.1899, 222.5089
395.6720, 221.2458
396.1541, 220.5286
396.6363, 220.1564
397.1184, 220.3109
397.6005, 220.5849
398.0826, 220.9115
398.5647, 221.3138
399.0468, 221.5137
399.5290, 221.4185
400.0111, 221.1463
400.4932, 220.7916
400.9753, 220.3213
401.4574, 219.8070
401.9395, 219.1525
402.4217, 218.4391
402.9038, 218.1535
403.3859, 218.8602
403.8680, 219.1677
404.3501, 218.1777
404.8322, 215.2299
405.3144, 213.3625
405.7965, 212.8022
406.2786, 213.0733
406.7607, 213.7323
407.2428, 215.0091
407.7249, 215.3634
408.2071, 213.9170
408.6892, 211.0322
409.1713, 209.0365
409.6534, 207.9850
410.1355, 207.4723
410.6176, 207.6318
411.0998, 208.2083
411.5819, 207.5989
412.0640, 205.2448
412.5461, 201.9789
413.0282, 198.7728
413.5103, 195.7029
413.9925, 193.1369
414.4746, 192.0047
414.9567, 191.2490
415.4388, 189.1064
415.9209, 185.3183
416.4030, 181.0962
416.8852, 177.3428
417.3673, 173.8170
417.8494, 170.1150
418.3315, 165.4232
418.8136, 161.0185
419.2957, 157.8451
419.7779, 155.7776
420.2600, 153.7613
420.7421, 151.5976
421.2242, 149.1470
421.7063, 146.2743
422.1884, 142.3833
422.6706, 139.0684
423.1527, 137.1864
423.6348, 136.0656
424.1169, 134.4325
424.5990, 131.3733
425.0811, 128.4479
425.5633, 126.1412
426.0454, 124.5223
426.5275, 123.0250
427.0096, 121.6698
427.4917, 120.3996
427.9738, 119.1855
428.4560, 118.1429
428.9381, 116.8823
429.4202, 115.1666
429.9023, 113.2593
430.3844, 112.1931
430.8665, 112.4277
431.3487, 112.2086
431.8308, 110.1981
432.3129, 106.2474
432.7950, 103.9116
433.2771, 103.5484
433.7592, 103.9689
434.2414, 103.7371
434.7235, 102.8897
435.2056, 101.8199
435.6877, 100.4664
436.1698, 99.10256
436.6519, 98.39654
437.1341, 98.32028
437.6162, 98.32554
438.0983, 97.95909
438.5804, 97.40961
439.0625, 97.08323
439.5446, 97.16637
440.0268, 97.07085
440.5089, 95.76089
440.9910, 93.89540
441.4731, 92.83828
441.9552, 94.25981
442.4373, 95.83950
442.9195, 95.91737
443.4016, 94.47852
443.8837, 93.13072
444.3658, 92.57221
444.8479, 92.34736
445.3300, 92.09768
445.8122, 91.45305
446.2943, 91.16357
446.7764, 91.74931
447.2585, 92.79333
447.7406, 93.22581
448.2227, 91.98160
448.7049, 91.11552
449.1870, 91.43034
449.6691, 93.25951
450.1512, 94.20040
450.6333, 93.77067
451.1154, 92.97039
451.5976, 92.79035
452.0797, 93.47199
452.5618, 93.96352
453.0439, 94.04192
453.5260, 93.86069
454.0081, 93.96912
454.4903, 94.43639
454.9724, 94.74620
455.4545, 94.51712
455.9366, 93.83320
456.4187, 93.21145
456.9008, 92.63895
457.3830, 92.30926
457.8651, 92.66380
458.3472, 93.49171
458.8293, 94.07577
459.3114, 93.99516
459.7935, 93.75403
460.2757, 94.07145
460.7578, 94.84077
461.2399, 95.53040
461.7220, 95.66871
462.2041, 95.65073
462.6862, 95.94597
463.1684, 96.75497
463.6505, 97.27307
464.1326, 96.63249
464.6147, 95.59146
465.0968, 95.12333
465.5789, 96.23798
466.0611, 97.24777
466.5432, 97.51432
467.0253, 97.11079
467.5074, 96.98939
467.9895, 97.41047
468.4716, 98.01975
468.9538, 98.69863
469.4359, 99.68995
469.9180, 100.1514
470.4001, 99.64932
470.8822, 98.91887
471.3643, 99.05683
471.8465, 100.1951
472.3286, 101.8680
472.8107, 104.2350
473.2928, 107.0442
473.7749, 108.8751
474.2570, 109.5657
474.7392, 110.0695
475.2213, 111.1132
475.7034, 112.6173
476.1855, 114.1350
476.6676, 115.7128
477.1497, 116.9849
477.6319, 117.2285
478.1140, 116.7030
478.5961, 116.2446
479.0782, 116.4994
479.5603, 116.8378
480.0424, 116.5607
480.5246, 115.6926
481.0067, 114.4602
481.4888, 112.7414
481.9709, 110.8712
482.4530, 109.1667
482.9352, 107.7643
483.4173, 106.3382
483.8994, 104.3024
484.3815, 102.2547
484.8636, 101.1254
485.3457, 102.2488
485.8279, 103.1543
486.3100, 103.0487
486.7921, 101.9139
487.2742, 101.0558
487.7563, 100.4078
488.2384, 100.0980
488.7206, 100.2716
489.2027, 101.2212
489.6848, 101.8671
490.1669, 102.1624
490.6490, 102.1899
491.1311, 101.8970
491.6133, 101.1546
492.0954, 101.0515
492.5775, 102.2413
493.0596, 104.2426
493.5417, 105.0442
494.0238, 104.6210
494.5060, 104.3438
494.9881, 105.3891
495.4702, 107.3470
495.9523, 109.3713
496.4344, 111.4427
496.9165, 113.0918
497.3987, 113.1454
497.8808, 112.5064
498.3629, 112.8780
498.8450, 115.8789
499.3271, 119.3502
499.8092, 121.8979
500.2914, 123.6793
500.7735, 125.3965
501.2556, 127.2449
501.7377, 129.2218
502.2198, 131.3589
502.7019, 133.7978
503.1841, 136.0959
503.6662, 137.9686
504.1483, 139.7787
504.6304, 141.9813
505.1125, 145.2973
505.5946, 147.7833
506.0768, 148.9968
506.5589, 149.1392
507.0410, 149.3852
507.5231, 150.0441
508.0052, 149.9385
508.4873, 147.9744
508.9695, 144.1513
509.4516, 141.6835
509.9337, 140.8581
510.4158, 140.2626
510.8979, 137.9903
511.3800, 134.4313
511.8622, 131.4381
512.3443, 129.5724
512.8264, 128.3874
513.3085, 127.6506
513.7906, 127.1574
514.2728, 126.1719
514.7549, 123.8230
515.2370, 121.1021
515.7191, 118.8398
516.2012, 117.1071
516.6833, 115.5505
517.1655, 113.7980
517.6476, 112.2408
518.1297, 111.2228
518.6118, 111.5079
519.0939, 111.4726
519.5760, 110.6091
520.0582, 109.2708
520.5403, 108.2780
521.0224, 107.7449
521.5045, 107.4357
521.9866, 107.5097
522.4688, 107.9614
522.9509, 107.1826
523.4330, 104.4772
523.9151, 102.1400
524.3972, 102.4079
524.8793, 105.3545
525.3615, 107.0758
525.8436, 106.9597
526.3257, 106.2956
526.8078, 107.4049
527.2899, 109.8250
527.7720, 111.2929
528.2542, 110.2384
528.7363, 108.2702
529.2184, 107.4188
529.7005, 107.5793
530.1826, 108.1345
530.6647, 109.1704
531.1469, 110.1558
531.6290, 110.4682
532.1111, 109.7967
532.5932, 109.5746
533.0753, 110.7983
533.5574, 112.5708
534.0396, 113.9410
534.5217, 113.9176
535.0038, 114.4753
535.4859, 116.3670
535.9680, 119.0708
536.4501, 120.9778
536.9323, 121.9692
537.4144, 122.3386
537.8965, 121.8829
538.3786, 120.5579
538.8607, 120.4561
539.3428, 121.8328
539.8250, 123.6434
540.3071, 124.9143
540.7892, 125.6934
541.2713, 126.6069
541.7534, 127.7524
542.2355, 129.0249
542.7177, 130.4370
543.1998, 131.8899
543.6819, 133.0298
544.1640, 133.2646
544.6461, 133.4007
545.1282, 134.4543
545.6104, 136.2335
546.0925, 137.5690
546.5746, 137.0436
547.0567, 136.4354
547.5388, 137.2154
548.0209, 140.2900
548.5031, 142.3380
548.9852, 141.4744
549.4673, 139.8322
549.9494, 139.7202
550.4315, 142.7610
550.9136, 144.8181
551.3958, 145.0897
551.8779, 144.1985
552.3600, 144.0659
552.8421, 144.9417
553.3242, 145.6896
553.8063, 145.7479
554.2885, 145.2248
554.7706, 145.0157
555.2527, 145.1488
555.7348, 145.3043
556.2169, 145.0425
556.6990, 144.5936
557.1812, 144.7055
557.6633, 145.6937
558.1454, 146.4851
558.6275, 145.6293
559.1096, 143.9145
559.5917, 142.7105
560.0739, 143.5818
560.5560, 144.1569
561.0381, 142.9563
561.5202, 140.3586
562.0023, 138.0243
562.4844, 136.4258
562.9666, 135.1276
563.4487, 134.0174
563.9308, 133.1492
564.4129, 132.1525
564.8950, 130.9140
565.3771, 129.6679
565.8593, 128.5715
566.3414, 127.6065
566.8235, 126.9679
567.3056, 126.9212
567.7877, 126.8177
568.2698, 125.1812
568.7520, 122.1016
569.2341, 119.3147
569.7162, 117.3819
570.1983, 116.1937
570.6804, 115.8217
571.1625, 116.1436
571.6447, 116.2861
572.1268, 115.6792
572.6089, 114.6197
573.0910, 113.3656
573.5731, 111.9256
574.0552, 110.3848
574.5374, 108.3754
575.0195, 106.4678
575.5016, 105.1854
575.9837, 105.0531
576.4658, 105.0312
576.9479, 105.2919
577.4301, 105.5371
577.9122, 105.1268
578.3943, 103.6792
578.8764, 102.3216
579.3585, 101.3921
579.8406, 100.8185
580.3228, 100.0651
580.8049, 99.09372
581.2870, 98.19170
581.7691, 97.46269
582.2512, 96.94831
582.7333, 96.91227
583.2155, 97.41841
583.6976, 97.93436
584.1797, 98.09208
584.6617, 97.89732
585.1439, 97.36860
585.6260, 96.53971
586.1081, 95.33025
586.5902, 92.90209
587.0723, 90.13329
587.5544, 88.74976
588.0366, 90.74203
588.5187, 92.63511
589.0008, 93.13350
589.4829, 92.29572
589.9650, 91.95748
590.4471, 92.46546
590.9293, 93.02353
591.4114, 93.33875
591.8935, 93.46003
592.3756, 92.89589
592.8577, 91.45712
593.3398, 89.83610
593.8220, 88.75173
594.3041, 88.14498
594.7862, 87.49901
595.2683, 86.62922
595.7504, 85.93375
596.2325, 86.24110
596.7147, 87.15291
597.1968, 87.62777
597.6789, 86.75500
598.1610, 85.66447
598.6431, 85.35278
599.1252, 85.60303
599.6074, 85.38665
600.0895, 83.44288
600.5716, 81.70230
601.0537, 81.35042
601.5358, 82.96041
602.0179, 83.56944
602.5001, 82.68262
602.9822, 81.24544
603.4643, 79.94130
603.9464, 78.82864
604.4285, 77.47542
604.9106, 75.62526
605.3928, 73.92477
605.8749, 73.54712
606.3570, 74.39110
606.8391, 75.13184
607.3212, 75.32048
607.8033, 75.25241
608.2855, 75.61890
608.7676, 76.18569
609.2497, 76.10253
609.7318, 74.05760
610.2139, 71.79057
610.6960, 70.79513
611.1782, 71.10135
611.6603, 71.39858
612.1424, 71.23104
612.6245, 70.90827
613.1066, 70.58152
613.5887, 70.09766
614.0709, 70.03215
614.5530, 70.74886
615.0351, 71.55833
615.5172, 71.75462
615.9993, 71.26969
616.4814, 70.36366
616.9636, 68.79550
617.4457, 67.24295
617.9278, 67.30433
618.4099, 68.81716
618.8920, 70.08971
619.3741, 70.43471
619.8563, 70.14000
620.3384, 69.37527
620.8205, 68.24796
621.3026, 67.29840
621.7847, 66.70450
622.2668, 66.50079
622.7490, 66.94312
623.2311, 68.13995
623.7132, 68.87566
624.1953, 68.39017
624.6774, 67.63149
625.1595, 67.24644
625.6417, 67.28076
626.1238, 67.65361
626.6059, 68.52385
627.0880, 69.55569
627.5701, 70.35316
628.0522, 70.92437
628.5344, 71.16241
629.0165, 70.96955
629.4986, 70.54429
629.9807, 70.14712
630.4628, 69.81621
630.9449, 69.76307
631.4271, 70.40488
631.9092, 71.17127
632.3913, 71.34463
632.8734, 71.01772
633.3555, 70.79575
633.8376, 70.70139
634.3198, 71.02016
634.8019, 72.14491
635.2840, 74.39067
635.7661, 75.95751
636.2482, 76.36226
636.7303, 76.30299
637.2125, 76.17509
637.6946, 75.82666
638.1767, 75.89164
638.6588, 76.48918
639.1409, 77.33849
639.6230, 78.06303
640.1052, 78.67153
640.5873, 79.21329
641.0694, 79.62630
641.5515, 80.10035
642.0336, 81.10502
642.5157, 82.42384
642.9979, 83.44074
643.4800, 83.11014
643.9621, 82.97493
644.4442, 84.59960
644.9263, 87.61385
645.4084, 89.75954
645.8906, 89.31913
646.3727, 88.69566
646.8548, 89.10860
647.3369, 90.74104
647.8190, 92.02708
648.3011, 92.82284
648.7833, 93.47258
649.2654, 94.03130
649.7475, 94.43273
650.2296, 95.98592
650.7117, 99.05214
651.1938, 102.1633
651.6760, 102.9644
652.1581, 102.2387
652.6402, 102.4857
653.1223, 104.7476
653.6044, 107.3509
654.0865, 108.5905
654.5687, 109.1387
655.0508, 110.2941
655.5329, 112.8370
656.0150, 115.7872
656.4971, 118.9796
656.9792, 122.3334
657.4614, 125.4724
657.9435, 128.0920
658.4256, 130.8837
658.9077, 133.9653
659.3898, 137.3540
659.8719, 141.5806
660.3541, 146.7486
660.8362, 152.2444
661.3183, 157.6244
661.8004, 162.9744
662.2825, 168.9850
662.7646, 175.7140
663.2468, 182.7168
663.7289, 189.4136
664.2110, 196.2222
664.6931, 203.7073
665.1752, 212.1248
665.6573, 220.9353
666.1395, 229.3220
666.6216, 238.2629
667.1037, 248.9609
667.5858, 263.6178
668.0679, 277.4731
668.5500, 289.4533
669.0322, 300.6874
669.5143, 313.4067
669.9964, 327.9311
670.4785, 342.7036
670.9606, 357.3964
671.4427, 371.9709
671.9249, 385.8444
672.4070, 399.1665
672.8891, 412.7592
673.3712, 427.0677
673.8533, 441.8280
674.3354, 456.8111
674.8176, 471.9707
675.2997, 486.4241
675.7818, 499.6086
676.2639, 511.8657
676.7460, 523.7620
677.2281, 535.6887
677.7103, 544.8492
678.1924, 551.3232
678.6745, 554.9149
679.1566, 555.3519
679.6387, 552.3057
680.1208, 547.6712
680.6030, 541.6135
681.0851, 533.6265
681.5672, 522.5335
682.0493, 508.7503
682.5314, 493.5506
683.0135, 477.3539
683.4957, 459.9117
683.9778, 440.4698
684.4599, 419.7018
684.9420, 399.6378
685.4241, 380.6743
685.9063, 362.4571
686.3884, 344.4905
686.8705, 327.0375
687.3526, 310.7896
687.8347, 295.9083
688.3168, 281.6651
688.7990, 267.9135
689.2811, 254.6111
689.7632, 242.6738
690.2453, 232.1825
690.7274, 222.7359
691.2095, 214.8694
691.6917, 207.9346
692.1738, 199.2480
692.6559, 189.0023
693.1380, 179.7327
693.6201, 173.9809
694.1022, 169.7494
694.5844, 165.0215
695.0665, 159.4393
695.5486, 154.2055
696.0307, 149.8691
696.5128, 145.9678
696.9949, 142.0747
697.4771, 138.0219
697.9592, 134.3296
698.4413, 131.1060
698.9234, 128.1451
699.4055, 124.8943
699.8876, 121.3239
700.3698, 119.5227
700.8519, 120.4371
701.3340, 121.7028
701.8161, 119.5112
702.2982, 115.0302
702.7803, 111.1838
703.2625, 109.2924
703.7446, 108.0948
704.2267, 106.8722
704.7088, 105.7266
705.1909, 104.8933
705.6730, 104.7366
706.1552, 104.5825
706.6373, 104.4491
707.1194, 104.2148
707.6015, 103.2045
708.0836, 101.1423
708.5657, 99.13271
709.0479, 97.46724
709.5300, 96.22187
710.0121, 96.01432
710.4942, 96.79573
710.9763, 97.39500
711.4584, 96.89843
711.9406, 95.83567
712.4227, 94.71597
712.9048, 93.58389
713.3869, 92.76920
713.8690, 92.66509
714.3511, 92.76473
714.8333, 92.82188
715.3154, 92.97134
715.7975, 92.45192
716.2796, 90.80056
716.7617, 89.04499
717.2438, 87.92384
717.7260, 87.46382
718.2081, 87.62109
718.6902, 88.56283
719.1723, 89.42468
719.6544, 88.82492
720.1365, 87.36104
720.6187, 86.60762
721.1008, 87.09192
721.5829, 87.77695
722.0650, 88.06456
722.5471, 88.01518
723.0292, 87.71350
723.5114, 87.44514
723.9935, 86.58206
724.4756, 83.85178
724.9577, 80.88595
725.4398, 80.80325
725.9219, 84.92591
726.4041, 87.87871
726.8862, 88.40366
727.3683, 87.17414
727.8504, 85.16122
728.3325, 82.58470
728.8146, 80.98499
729.2968, 81.57358
729.7789, 83.07236
730.2610, 84.47292
730.7431, 85.63353
731.2252, 86.08479
731.7073, 84.87418
732.1895, 83.63756
732.6716, 83.15959
733.1537, 83.40686
733.6358, 83.41688
734.1179, 83.04019
734.6000, 82.68095
735.0822, 82.51392
735.5643, 82.52060
736.0464, 82.54260
736.5285, 82.58299
737.0106, 82.58910
737.4927, 82.59367
737.9749, 82.51352
738.4570, 82.10014
738.9391, 81.36104
739.4212, 80.76491
739.9033, 80.59251
740.3854, 80.66435
740.8676, 80.95824
741.3497, 81.64280
741.8318, 81.80569
742.3139, 81.09810
742.7960, 80.20875
743.2781, 79.53773
743.7603, 79.07079
744.2424, 78.98254
744.7245, 79.34085
745.2066, 79.81979
745.6887, 80.19271
746.1708, 80.41588
746.6530, 80.31650
747.1351, 79.81322
747.6172, 79.27603
748.0993, 78.98082
748.5814, 78.80013
749.0635, 78.57957
749.5457, 78.02160
750.0278, 77.85689
750.5099, 78.60464
750.9920, 79.50525
751.4741, 79.62409
751.9562, 78.75976
752.4384, 77.87765
752.9205, 76.98731
753.4026, 76.38901
753.8847, 76.99677
754.3668, 78.41453
754.8489, 79.00191
755.3311, 77.90066
755.8132, 76.48079
756.2953, 75.91427
756.7774, 75.88088
757.2595, 75.83086
757.7416, 75.49660
758.2238, 75.24089
758.7059, 75.19141
759.1880, 75.26340
759.6701, 75.30208
760.1522, 75.33935
760.6343, 75.21008
761.1165, 74.74663
761.5986, 74.21902
762.0807, 74.30364
762.5628, 74.94138
763.0449, 75.80586
763.5270, 77.45861
764.0092, 78.63426
764.4913, 77.58855
764.9734, 75.00814
765.4555, 73.01779
765.9376, 72.56501
766.4197, 72.66167
766.9019, 73.31082
767.3840, 74.30259
767.8661, 74.67101
768.3482, 74.27743
768.8303, 73.66136
769.3124, 73.01157
769.7946, 72.31325
770.2767, 71.24508
770.7588, 69.90188
771.2409, 69.16867
771.7230, 70.13093
772.2051, 71.57755
772.6873, 72.48247
773.1694, 72.81578
773.6515, 72.63888
774.1336, 71.09396
774.6157, 69.90726
775.0978, 70.02180
775.5800, 71.37341
776.0621, 72.26128
776.5442, 72.64078
777.0263, 72.67905
777.5084, 72.28089
777.9905, 71.59584
778.4727, 71.49735
778.9548, 71.94178
779.4369, 72.15730
779.9190, 71.28062
780.4011, 70.11082
780.8832, 69.28002
781.3654, 68.85277
781.8475, 69.01503
782.3296, 70.54908
782.8117, 72.04097
783.2938, 72.84423
783.7759, 72.93169
784.2581, 72.49088
784.7402, 71.27918
785.2223, 70.31298
785.7044, 70.56438
786.1865, 71.66528
786.6686, 72.13432
787.1508, 71.93489
787.6329, 71.55943
788.1150, 71.02224
788.5971, 70.70791
789.0792, 71.30553
789.5613, 73.08135
790.0435, 73.87496
790.5256, 71.89108
791.0077, 69.92051
791.4898, 69.56944
791.9719, 71.17994
792.4540, 71.87749
792.9362, 71.43192
793.4183, 70.97026
793.9004, 71.69685
794.3825, 73.12833
794.8646, 73.96504
795.3467, 74.12131
795.8289, 73.68192
796.3110, 72.15821
796.7931, 70.44210
797.2752, 69.30680
797.7573, 68.93434
798.2394, 68.71682
798.7216, 68.27248
799.2037, 68.28030
799.6858, 69.46628
800.1679, 72.15830
800.6500, 73.32817
801.1321, 72.81940
801.6143, 71.88957
802.0964, 71.78164
802.5785, 72.04078
803.0606, 71.56898
803.5427, 70.17345
804.0248, 69.27763
804.5070, 70.21976
804.9891, 71.64314
805.4712, 72.53280
805.9533, 72.64838
806.4354, 72.59138
806.9175, 72.26826
807.3997, 71.91488
807.8818, 71.64576
808.3639, 71.46677
808.8460, 71.57914
809.3281, 71.99395
809.8102, 72.64638
810.2924, 74.00460
810.7745, 75.32584
811.2566, 75.31995
811.7387, 73.65264
812.2208, 72.39834
812.7029, 72.72948
813.1851, 73.54287
813.6672, 74.14371
814.1493, 74.56114
814.6314, 74.43633
815.1135, 73.45230
815.5956, 72.72088
816.0778, 73.54625
816.5599, 75.47375
817.0420, 76.27661
817.5241, 75.81985
818.0062, 75.09700
818.4883, 74.75066
818.9705, 74.60019
819.4526, 74.48068
819.9347, 74.36613
820.4168, 74.31612
820.8989, 74.20337
821.3810, 74.29995
821.8632, 74.90099
822.3453, 76.13567
822.8274, 76.54004
823.3095, 76.03587
823.7916, 75.15528
824.2737, 74.17680
824.7559, 73.17252
825.2380, 71.97816
825.7201, 70.64140
826.2022, 70.36481
826.6843, 73.45006
827.1664, 76.62703
827.6486, 77.40897
828.1307, 75.12721
828.6128, 73.74041
829.0949, 73.47115
829.5770, 73.73238
830.0591, 74.44878
830.5413, 75.52177
831.0234, 75.78134
831.5055, 75.23547
831.9876, 74.53293
832.4697, 73.88377
832.9518, 73.47977
833.4340, 73.69617
833.9161, 74.49440
834.3982, 75.07600
834.8803, 75.02737
835.3624, 74.81984
835.8445, 74.50899
836.3267, 74.12568
836.8088, 74.65666
837.2909, 76.39402
837.7730, 77.68081
838.2551, 77.17679
838.7372, 75.68557
839.2194, 75.38112
839.7015, 76.06142
840.1836, 76.55606
840.6657, 75.86687
841.1478, 75.07071
841.6299, 74.84307
842.1121, 75.15524
842.5942, 75.47453
843.0763, 75.69087
843.5584, 76.05443
844.0405, 76.76330
844.5226, 77.64039
845.0048, 77.88483
845.4869, 77.53763
845.9690, 77.23674
846.4511, 77.32784
846.9332, 77.60620
847.4153, 78.03898
847.8975, 78.49133
848.3796, 78.58086
848.8617, 77.56658
849.3438, 76.88238
849.8259, 77.12193
850.3080, 77.91719
850.7902, 78.24307
851.2723, 77.95818
851.7544, 78.07359
852.2365, 78.98093
852.7186, 80.27516
853.2007, 81.52946
853.6829, 82.58552
854.1650, 83.00043
854.6471, 81.91834
855.1292, 81.04106
855.6113, 81.51674
856.0934, 82.66360
856.5756, 83.20638
857.0577, 82.72193
857.5398, 82.35762
858.0219, 82.13902
858.5040, 82.23717
858.9861, 83.21937
859.4683, 84.86517
859.9504, 85.91244
860.4325, 85.94767
860.9146, 85.67639
861.3967, 85.47407
861.8788, 85.45182
862.3610, 85.75942
862.8431, 86.59653
863.3252, 87.49257
863.8073, 88.56148
864.2894, 89.50761
864.7715, 90.04061
865.2537, 90.15547
865.7358, 89.82986
866.2179, 88.95983
866.7000, 88.33802
867.1821, 89.28178
867.6642, 90.76946
868.1464, 90.99532
868.6285, 89.39426
869.1106, 88.69899
869.5927, 90.73848
870.0748, 93.41821
870.5569, 95.34407
871.0391, 96.38130
871.5212, 97.59443
872.0033, 99.09273
872.4854, 100.2884
872.9675, 100.4351
873.4496, 100.0067
873.9318, 100.2284
874.4139, 101.0752
874.8960, 101.7911
875.3781, 101.6605
875.8602, 101.4912
876.3423, 101.8252
876.8245, 102.6903
877.3066, 103.4533
877.7887, 104.1161
878.2708, 104.6880
878.7529, 105.2024
879.2350, 105.6221
879.7172, 105.7393
880.1993, 105.6035
880.6814, 105.5304
881.1635, 105.7666
881.6456, 106.0626
882.1277, 106.0077
882.6099, 105.8463
883.0920, 106.3317
883.5741, 108.8759
884.0562, 110.1770
884.5383, 109.1525
885.0204, 107.0682
885.5026, 106.8759
885.9847, 108.4397
886.4668, 109.8254
886.9489, 110.6107
887.4310, 110.6973
887.9131, 109.1032
888.3953, 107.0140
888.8774, 106.2411
889.3595, 108.5016
889.8416, 110.2894
890.3237, 111.1458
890.8058, 111.3200
891.2880, 110.8017
891.7701, 109.4760
892.2522, 109.0741
892.7343, 109.8135
893.2164, 111.0059
893.6985, 112.2206
894.1807, 113.3054
894.6628, 114.1533
895.1449, 114.7988
895.6270, 114.7501
896.1091, 112.6742
896.5912, 110.8743
897.0734, 110.9098
897.5555, 113.0005
898.0376, 114.1751
898.5197, 114.3456
899.0018, 114.0925
899.4839, 113.7490
899.9661, 113.2854
900.4482, 112.3243
900.9303, 111.0373
901.4124, 110.5409
901.8945, 111.9329
902.3766, 113.6914
902.8588, 115.4284
903.3409, 116.9706
903.8230, 117.5198
904.3051, 116.7729
904.7872, 116.2395
905.2693, 116.4749
905.7515, 117.1383
906.2336, 117.5930
906.7157, 117.8947
907.1978, 118.2151
907.6799, 118.8735
908.1620, 119.2496
908.6442, 118.7908
909.1263, 117.9615
909.6084, 117.5341
910.0905, 117.6326
910.5726, 117.9155
911.0547, 118.4990
911.5369, 118.9167
912.0190, 118.1860
912.5011, 116.8088
912.9832, 116.3551
913.4653, 117.2365
913.9474, 118.0767
914.4296, 117.9554
914.9117, 117.4454
915.3938, 117.0207
915.8759, 116.7601
916.3580, 116.4371
916.8401, 116.1459
917.3223, 115.5541
917.8044, 113.8950
918.2865, 111.7516
918.7686, 111.6825
919.2507, 113.4691
919.7328, 114.9354
920.2150, 114.7715
920.6971, 113.8141
921.1792, 112.1557
921.6613, 110.0114
922.1434, 108.8090
922.6255, 109.1128
923.1077, 109.0564
923.5898, 107.9901
924.0719, 106.3576
924.5540, 105.0548
925.0361, 104.0595
925.5182, 103.3384
926.0004, 103.0920
926.4825, 102.7414
926.9646, 101.6391
927.4467, 100.2898
927.9288, 99.53151
928.4109, 100.0700
928.8931, 99.68859
929.3752, 97.88596
929.8573, 95.97459
930.3394, 95.73873
930.8215, 96.65971
931.3036, 96.77082
931.7858, 95.79723
932.2679, 94.73767
932.7500, 94.43017
933.2321, 94.20659
933.7142, 93.43355
934.1964, 91.94794
934.6785, 90.97585
935.1606, 90.65317
935.6427, 90.53316
936.1248, 90.39127
936.6069, 90.27452
937.0891, 90.39198
937.5712, 90.70325
938.0533, 91.00105
938.5354, 91.52420
939.0175, 91.64670
939.4996, 90.54292
939.9818, 88.76660
940.4639, 87.96531
940.9460, 88.59978
941.4281, 89.15237
941.9102, 89.44555
942.3923, 89.37141
942.8745, 88.55650
943.3566, 87.22922
943.8387, 85.96785
944.3208, 84.77384
944.8029, 84.22145
945.2850, 85.45369
945.7672, 86.96339
946.2493, 87.24745
946.7314, 85.93600
947.2135, 84.82118
947.6956, 83.92585
948.1777, 83.15697
948.6599, 82.29106
949.1420, 81.55228
949.6241, 81.61860
950.1062, 82.42437
950.5883, 83.32854
951.0704, 84.58411
951.5526, 85.26797
952.0347, 84.28426
952.5168, 82.27164
952.9989, 81.72273
953.4810, 82.95214
953.9631, 84.19140
954.4453, 85.00849
954.9274, 85.44609
955.4095, 85.51633
955.8916, 85.26914
956.3737, 84.73952
956.8558, 83.43595
957.3380, 82.81007
957.8201, 83.96117
958.3022, 85.61568
958.7843, 86.58798
959.2664, 86.75140
959.7485, 86.88143
960.2307, 86.96220
960.7128, 87.28920
961.1949, 88.34033
961.6770, 89.69412
962.1591, 90.95322
962.6412, 92.05154
963.1234, 92.36759
963.6055, 90.68433
964.0876, 89.30432
964.5697, 89.19434
965.0518, 90.00847
965.5339, 90.01218
966.0161, 89.20669
966.4982, 89.09389
966.9803, 90.55677
967.4624, 92.45400
967.9445, 93.66164
968.4266, 94.36182
968.9088, 94.83158
969.3909, 94.93352
969.8730, 95.11434
970.3551, 95.40936
970.8372, 95.78658
971.3193, 96.25523
971.8015, 96.79836
972.2836, 97.21656
972.7657, 97.48551
973.2478, 97.93751
973.7299, 99.43156
974.2120, 100.7745
974.6942, 100.5824
975.1763, 98.76384
975.6584, 98.19305
976.1405, 99.43784
976.6226, 100.9480
977.1047, 102.2254
977.5869, 103.3283
978.0690, 104.6772
978.5511, 106.0107
979.0332, 106.2946
979.5153, 103.7856
979.9974, 102.0673
980.4796, 104.5011
980.9617, 108.2329
981.4438, 108.9567
981.9259, 104.7642
982.4080, 103.6145
982.8901, 106.4981
983.3723, 110.0531
983.8544, 110.6908
984.3365, 109.6774
984.8186, 109.1631
985.3007, 109.3549
985.7828, 110.2712
986.2650, 112.7451
986.7471, 115.1042
987.2292, 116.7951
987.7113, 117.7779
988.1934, 117.4512
988.6755, 115.7251
989.1577, 114.8349
989.6398, 115.9185
990.1219, 117.7635
990.6040, 119.1496
991.0861, 120.2102
991.5682, 121.1576
992.0504, 121.4043
992.5325, 122.6238
993.0146, 125.4511
993.4967, 128.5570
993.9788, 130.8365
994.4609, 132.3285
994.9431, 132.9976
995.4252, 132.8576
995.9073, 133.4220
996.3894, 136.5870
996.8715, 140.2289
997.3536, 142.7054
997.8358, 144.0182
998.3179, 145.8130
998.8000, 148.3722
999.2821, 150.7150
999.7642, 152.3766
1000.246, 153.9717
1000.728, 157.1517
1001.211, 161.2188
1001.693, 164.1312
1002.175, 164.5309
1002.657, 165.3811
1003.139, 168.0373
1003.621, 171.6977
1004.103, 175.8189
1004.585, 180.7385
1005.068, 183.9980
1005.550, 185.5159
1006.032, 186.3976
1006.514, 186.7825
1006.996, 187.4868
1007.478, 190.0644
1007.960, 194.1334
1008.442, 197.3376
1008.924, 197.9807
1009.407, 199.1237
1009.889, 201.6192
1010.371, 204.7415
1010.853, 207.0139
1011.335, 208.5531
1011.817, 209.9164
1012.299, 211.2310
1012.781, 212.4691
1013.263, 213.6553
1013.746, 214.7499
1014.228, 215.7150
1014.710, 216.5503
1015.192, 217.2868
1015.674, 217.9262
1016.156, 218.4675
1016.638, 219.0404
1017.120, 219.4587
1017.603, 218.9720
1018.085, 217.9078
1018.567, 217.4457
1019.049, 218.7442
1019.531, 219.9578
1020.013, 220.8375
1020.495, 221.1291
1020.977, 220.1392
1021.459, 217.8197
1021.942, 216.3871
1022.424, 216.2551
1022.906, 215.9046
1023.388, 213.3321
1023.870, 210.2159
1024.352, 208.5443
1024.834, 208.6850
1025.316, 207.4911
1025.799, 204.0770
1026.281, 200.8128
1026.763, 198.7025
1027.245, 197.3260
1027.727, 195.6156
1028.209, 193.6015
1028.691, 191.3792
1029.173, 188.9736
1029.656, 186.3743
1030.138, 183.5596
1030.620, 180.5742
1031.102, 177.4625
1031.584, 174.2155
1032.066, 170.6329
1032.548, 166.6072
1033.030, 163.0451
1033.512, 161.0813
1033.995, 159.7784
1034.477, 158.3382
1034.959, 156.6414
1035.441, 154.2325
1035.923, 150.3318
1036.405, 146.7118
1036.887, 143.7212
1037.369, 141.1589
1037.851, 138.4368
1038.334, 135.7543
1038.816, 133.8483
1039.298, 133.1026
1039.780, 132.1309
1040.262, 129.4410
1040.744, 126.6610
1041.226, 125.3832
1041.708, 125.7608
1042.191, 124.4287
1042.673, 121.1673
1043.155, 117.9520
1043.637, 115.5107
1044.119, 113.9846
1044.601, 114.2717
1045.083, 115.5445
1045.565, 115.9001
1046.047, 114.1350
1046.530, 112.2680
1047.012, 110.3046
1047.494, 108.5674
1047.976, 107.5782
1048.458, 107.1520
1048.940, 106.4954
1049.422, 105.5437
1049.904, 104.4047
1050.386, 102.8839
1050.869, 101.4240
1051.351, 100.2216
1051.833, 99.30014
1052.315, 98.82063
1052.797, 98.81898
1053.279, 99.05617
1053.761, 99.61565
1054.243, 99.99324
1054.726, 99.55788
1055.208, 98.53413
1055.690, 97.10558
1056.172, 94.94979
1056.654, 93.64439
1057.136, 93.67539
1057.618, 93.84132
1058.100, 93.45899
1058.583, 92.62862
1059.065, 91.55431
1059.547, 90.33873
1060.029, 89.45067
1060.511, 89.34874
1060.993, 89.39936
1061.475, 89.54052
1061.957, 89.57790
1062.439, 89.18359
1062.922, 88.28764
1063.404, 87.62564
1063.886, 87.28217
1064.368, 86.94203
1064.850, 86.06737
1065.332, 85.23506
1065.814, 85.26578
1066.296, 86.09856
1066.778, 86.22879
1067.261, 85.22955
1067.743, 84.20766
1068.225, 83.37172
1068.707, 82.78275
1069.189, 82.84020
1069.671, 83.20564
1070.153, 82.95280
1070.635, 81.57469
1071.118, 80.65524
1071.600, 81.59818
1072.082, 82.46609
1072.564, 82.01782
1073.046, 80.40126
1073.528, 79.35903
1074.010, 78.88377
1074.492, 78.75499
1074.974, 79.26021
1075.457, 79.61949
1075.939, 79.03909
1076.421, 77.99487
1076.903, 77.29975
1077.385, 77.10875
1077.867, 76.89722
1078.349, 76.61108
1078.831, 76.44364
1079.313, 76.86367
1079.796, 77.35758
1080.278, 76.91151
1080.760, 75.66167
1081.242, 74.87556
1081.724, 75.53661
1082.206, 75.91112
1082.688, 75.56245
1083.170, 74.87260
1083.652, 74.60072
1084.135, 74.60204
1084.617, 74.16670
1085.099, 73.03301
1085.581, 72.46694
1086.063, 74.01522
1086.545, 75.62991
1087.027, 76.01696
1087.509, 75.27934
1087.992, 74.43227
1088.474, 73.47306
1088.956, 72.65307
1089.438, 72.13831
1089.920, 71.68990
1090.402, 70.74809
1090.884, 69.85841
1091.366, 69.81301
1091.849, 70.93267
1092.331, 72.43890
1092.813, 74.59089
1093.295, 76.25098
1093.777, 76.49533
1094.259, 75.72047
1094.741, 74.20856
1095.223, 72.28098
1095.705, 71.00748
1096.188, 71.23927
1096.670, 71.61064
1097.152, 72.01514
1097.634, 72.29324
1098.116, 72.07716
1098.598, 71.52946
1099.080, 71.59885
1099.562, 72.35653
1100.044, 72.73549
1100.527, 71.38133
1101.009, 70.18483
1101.491, 70.46999
1101.973, 71.66895
1102.455, 72.01965
1102.937, 71.52155
1103.419, 70.67610
1103.901, 69.53225
1104.384, 68.40247
1104.866, 67.42077
1105.348, 66.73299
1105.830, 66.65553
1106.312, 67.34769
1106.794, 67.19178
1107.276, 65.84429
1107.758, 65.06287
1108.240, 66.01857
1108.723, 67.53088
1109.205, 67.85760
1109.687, 67.31132
1110.169, 66.46085
1110.651, 64.82921
1111.133, 64.13411
1111.615, 64.73763
1112.097, 65.77583
1112.579, 66.86027
1113.062, 67.81152
1113.544, 67.73421
1114.026, 66.84865
1114.508, 66.24277
1114.990, 67.13737
1115.472, 67.49791
1115.954, 66.09229
1116.436, 64.33653
1116.919, 64.29117
1117.401, 65.79591
1117.883, 66.55950
1118.365, 66.38216
1118.847, 65.93097
1119.329, 65.52734
1119.811, 65.15676
1120.293, 64.72309
1120.776, 64.31868
1121.258, 64.41409
1121.740, 65.12469
1122.222, 65.00460
1122.704, 63.50635
1123.186, 62.17798
1123.668, 63.22166
1124.150, 64.86467
1124.632, 65.02660
1125.115, 63.27647
1125.597, 62.56642
1126.079, 63.40534
1126.561, 63.59793
1127.043, 61.89481
1127.525, 59.77971
1128.007, 59.87249
1128.489, 61.23801
1128.971, 62.31256
1129.454, 62.71013
1129.936, 62.79797
1130.418, 62.59862
1130.900, 62.16726
1131.382, 61.18863
1131.864, 60.13990
1132.346, 60.92964
1132.828, 62.96047
1133.311, 64.26179
1133.793, 63.29491
1134.275, 62.39068
1134.757, 62.02288
1135.239, 61.97701
1135.721, 62.19382
1136.203, 62.60913
1136.685, 62.58253
1137.167, 62.14885
1137.650, 61.87954
1138.132, 62.24007
1138.614, 62.71422
1139.096, 63.21169
1139.578, 63.58751
1140.060, 63.59611
1140.542, 63.23497
1141.024, 62.62712
1141.506, 61.77838
1141.989, 60.84687
1142.471, 59.80534
1142.953, 58.85691
1143.435, 57.89336
1143.917, 57.13679
1144.399, 57.73466
1144.881, 60.02714
1145.363, 61.21210
1145.846, 60.47581
1146.328, 59.27217
1146.810, 59.10770
1147.292, 59.38156
1147.774, 59.50556
1148.256, 59.39622
1148.738, 59.15075
1149.220, 58.74593
1149.703, 58.24163
1150.185, 57.48454
1150.667, 56.98304
1151.149, 57.99604
1151.631, 59.58751
1152.113, 60.25158
1152.595, 59.45571
1153.077, 58.39060
1153.559, 57.02338
1154.042, 55.68793
1154.524, 54.27276
1155.006, 53.24957
1155.488, 54.12822
1155.970, 56.21758
1156.452, 57.84280
1156.934, 58.74235
1157.416, 58.52868
1157.898, 56.82157
1158.381, 54.74424
1158.863, 52.82468
1159.345, 51.24267
1159.827, 51.03347
1160.309, 51.90516
1160.791, 52.68661
1161.273, 52.74955
1161.755, 52.78206
1162.238, 53.12104
1162.720, 53.32906
1163.202, 52.75323
1163.684, 51.56721
1164.166, 50.93945
1164.648, 50.87034
1165.130, 50.87068
1165.612, 50.44885
1166.094, 50.30246
1166.577, 51.11512
1167.059, 52.11301
1167.541, 51.87415
1168.023, 50.53049
1168.505, 49.85012
1168.987, 50.01493
1169.469, 50.28164
1169.951, 50.09632
1170.433, 49.89373
1170.916, 50.00491
1171.398, 49.93005
1171.880, 49.91258
1172.362, 50.08398
1172.844, 50.02029
1173.326, 50.19577
1173.808, 50.48633
1174.290, 51.14915
1174.773, 51.58156
1175.255, 50.92414
1175.737, 49.52094
1176.219, 49.48930
1176.701, 50.93579
1177.183, 51.27946
1177.665, 49.42391
1178.147, 47.69868
1178.630, 48.67570
1179.112, 50.63144
1179.594, 52.20039
1180.076, 53.28077
1180.558, 52.59301
1181.040, 49.86065
1181.522, 48.07690
1182.004, 48.70964
1182.486, 50.04923
1182.969, 50.58034
1183.451, 50.56807
1183.933, 50.23764
1184.415, 49.53552
1184.897, 49.12146
1185.379, 49.03394
1185.861, 48.95926
1186.343, 48.67559
1186.825, 48.40797
1187.308, 48.41199
1187.790, 48.61829
1188.272, 48.94238
1188.754, 49.44488
1189.236, 49.81419
1189.718, 50.01780
1190.200, 50.24799
1190.682, 51.08318
1191.165, 51.63937
1191.647, 50.48108
1192.129, 48.24726
1192.611, 46.11292
1193.093, 43.39681
1193.575, 43.18398
1194.057, 46.09696
1194.539, 49.14734
1195.021, 49.72787
1195.504, 49.25239
1195.986, 49.73017
1196.468, 50.78405
1196.950, 51.17077
1197.432, 50.19134
1197.914, 49.74657
1198.396, 50.12224
1198.878, 50.41138
1199.360, 49.15997
1199.843, 47.66019
1200.325, 48.26259
1200.807, 50.40806
1201.289, 51.47594
1201.771, 50.47268
1202.253, 49.58924
1202.735, 49.00595
1203.217, 48.78904
1203.700, 49.37135
1204.182, 50.15784
1204.664, 50.17554
1205.146, 49.49757
1205.628, 49.05510
1206.110, 49.18066
1206.592, 49.05824
1207.074, 48.43953
1207.557, 47.88020
1208.039, 48.32294
1208.521, 49.13094
1209.003, 49.38669
1209.485, 49.03055
1209.967, 48.51915
1210.449, 47.77804
1210.931, 47.18705
1211.413, 46.73081
1211.896, 46.69982
1212.378, 48.05239
1212.860, 49.77571
1213.342, 50.02299
1213.824, 50.99427
1214.306, 51.91831
1214.788, 51.13839
1215.270, 52.37891
1215.752, 50.88380
1216.235, 48.54330
1216.717, 47.96624
1217.199, 48.33867
1217.681, 48.44693
1218.163, 48.08770
1218.645, 48.22016
1219.127, 49.22215
1219.609, 49.69814
1220.092, 49.01902
1220.574, 48.04140
1221.056, 48.20143
1221.538, 48.81004
1222.020, 48.78187
1222.502, 47.81378
1222.984, 47.36048
1223.466, 47.58860
1223.948, 47.95959
1224.431, 48.29225
1224.913, 48.64063
1225.395, 49.33213
1225.877, 49.96672
1226.359, 49.88292
1226.841, 48.73569
1227.323, 48.17058
1227.805, 48.35345
1228.287, 48.48164
1228.770, 48.19600
1229.252, 47.73511
1229.734, 47.10086
1230.216, 46.66103
1230.698, 47.11829
1231.180, 48.92260
1231.662, 49.56791
1232.144, 48.86123
1232.627, 48.12560
1233.109, 47.93965
1233.591, 48.05585
1234.073, 48.41845
1234.555, 48.77430
1235.037, 48.73639
1235.519, 48.20441
1236.001, 47.69415
1236.484, 47.18290
1236.966, 46.96895
1237.448, 47.49089
1237.930, 47.93492
1238.412, 46.99734
1238.894, 45.72340
1239.376, 45.73618
1239.858, 47.35348
1240.340, 48.03371
1240.823, 47.73332
1241.305, 47.19769
1241.787, 46.50940
1242.269, 46.18679
1242.751, 47.01651
1243.233, 48.28237
1243.715, 49.14111
1244.197, 49.58935
1244.679, 49.40525
1245.162, 48.59724
1245.644, 47.62234
1246.126, 46.25065
1246.608, 45.41478
1247.090, 46.38528
1247.572, 47.80030
1248.054, 48.04435
1248.536, 47.07223
1249.019, 46.31134
1249.501, 45.76945
1249.983, 45.50666
1250.465, 45.57907
1250.947, 45.91925
1251.429, 46.72094
1251.911, 47.60222
1252.393, 48.27787
1252.875, 48.73627
1253.358, 48.68293
1253.840, 48.17902
1254.322, 47.64423
1254.804, 47.06667
1255.286, 46.80795
1255.768, 47.36048
1256.250, 47.89003
1256.732, 47.54828
1257.214, 46.52985
1257.697, 45.95593
1258.179, 45.80513
1258.661, 45.95335
1259.143, 46.83198
1259.625, 47.26083
1260.107, 46.74591
1260.589, 46.20268
1261.071, 46.33072
1261.554, 47.06587
1262.036, 48.88065
1262.518, 51.17339
1263.000, 51.98465
1263.482, 48.51835
1263.964, 46.80165
1264.446, 47.81274
1264.928, 49.48604
1265.411, 50.39195
1265.893, 50.60661
1266.375, 49.73140
1266.857, 48.32465
1267.339, 47.90428
1267.821, 50.04742
1268.303, 50.93194
1268.785, 50.23745
1269.267, 49.20087
1269.750, 48.65034
1270.232, 48.44648
1270.714, 48.58376
1271.196, 48.88966
1271.678, 48.94392
1272.160, 48.57933
1272.642, 48.48468
1273.124, 48.73444
1273.606, 48.74203
1274.089, 47.46615
1274.571, 46.35299
1275.053, 47.30381
1275.535, 49.08086
1276.017, 49.40482
1276.499, 47.93341
1276.981, 46.96498
1277.463, 46.54665
1277.946, 46.63568
1278.428, 47.69680
1278.910, 48.71408
1279.392, 49.12469
1279.874, 49.07132
1280.356, 48.59007
1280.838, 47.70803
1281.320, 47.37630
1281.802, 47.56391
1282.285, 47.85572
1282.767, 48.06976
1283.249, 48.29642
1283.731, 48.62858
1284.213, 48.92037
1284.695, 48.85666
1285.177, 48.63032
1285.659, 49.63305
1286.141, 51.42556
1286.624, 52.16605
1287.106, 49.88328
1287.588, 48.22728
1288.070, 47.70643
1288.552, 47.80683
1289.034, 48.50834
1289.516, 49.35482
1289.998, 48.96987
1290.481, 47.89558
1290.963, 47.54103
1291.445, 49.17199
1291.927, 49.95800
1292.409, 49.75077
1292.891, 49.24121
1293.373, 48.70428
1293.855, 48.32664
1294.338, 48.52913
1294.820, 49.00939
1295.302, 49.20373
1295.784, 49.11963
1296.266, 48.45503
1296.748, 47.15405
1297.230, 46.27935
1297.712, 46.68121
1298.194, 47.52546
1298.677, 48.54439
1299.159, 49.35849
1299.641, 49.40289
1300.123, 48.64220
1300.605, 48.74494
1301.087, 49.61359
1301.569, 50.38678
1302.051, 50.69853
1302.533, 50.69384
1303.016, 50.38484
##END=



