##NAMES=Pyrope
##RRUFFID=R040159
##IDEAL CHEMISTRY=Mg_3_Al_2_(SiO_4_)_3_
##LOCALITY=Meronitz, Bohemia
##OWNER=RRUFF
##SOURCE=University of Arizona Mineral Museum
##DESCRIPTION=Deep red crystal fragments
##STATUS=The identification of this mineral has been confirmed by X-ray diffraction and chemical analysis
##URL=rruff.info/R040159
##MEASURED CHEMISTRY=(Mg_2.17_Fe^2+^_0.47_Ca_0.34_Mn_0.02_)_Σ=3_(Al_1.86_Cr_0.11_Ti_0.03_)_Σ=2_((Si_0.99_Al_0.01_)_Σ=1_O_4_)_3_; trace amounts of Rb?
125.8406, 388.7388
126.3227, 423.3136
126.8048, 457.3982
127.2869, 492.5071
127.7690, 529.0913
128.2512, 567.3766
128.7333, 607.2442
129.2154, 653.0703
129.6975, 694.7512
130.1796, 734.1841
130.6617, 767.7978
131.1439, 791.2862
131.6260, 802.3517
132.1081, 800.8175
132.5902, 785.0160
133.0723, 737.8547
133.5544, 693.0729
134.0366, 655.8879
134.5187, 625.6654
135.0008, 600.0515
135.4829, 577.5696
135.9650, 558.2778
136.4471, 544.4900
136.9293, 536.3527
137.4114, 532.8920
137.8935, 533.9504
138.3756, 539.5032
138.8577, 549.7183
139.3398, 564.9142
139.8220, 585.1874
140.3041, 608.1918
140.7862, 634.8151
141.2683, 662.5977
141.7504, 690.6744
142.2325, 718.8902
142.7147, 746.5035
143.1968, 772.0661
143.6789, 795.6861
144.1610, 828.7693
144.6431, 884.7436
145.1252, 937.6771
145.6074, 972.0424
146.0895, 988.4436
146.5716, 996.8994
147.0537, 1003.795
147.5358, 1009.158
148.0179, 1016.067
148.5001, 1028.094
148.9822, 1039.031
149.4643, 1043.414
149.9464, 1041.233
150.4285, 1038.114
150.9106, 1039.532
151.3928, 1044.605
151.8749, 1044.590
152.3570, 1033.633
152.8391, 1020.623
153.3212, 1014.464
153.8033, 1015.971
154.2855, 1018.324
154.7676, 1016.292
155.2497, 1010.535
155.7318, 1003.988
156.2139, 993.7910
156.6960, 984.6395
157.1782, 982.9908
157.6603, 989.9642
158.1424, 998.8352
158.6245, 1004.403
159.1066, 1007.881
159.5887, 1012.148
160.0709, 1018.258
160.5530, 1025.423
161.0351, 1032.731
161.5172, 1040.320
161.9993, 1047.322
162.4814, 1054.857
162.9636, 1061.398
163.4457, 1063.302
163.9278, 1053.628
164.4099, 1040.074
164.8920, 1037.811
165.3741, 1050.096
165.8563, 1064.655
166.3384, 1073.627
166.8205, 1079.570
167.3026, 1086.862
167.7847, 1099.217
168.2668, 1113.457
168.7490, 1121.559
169.2311, 1120.067
169.7132, 1120.420
170.1953, 1132.499
170.6774, 1149.764
171.1595, 1161.710
171.6417, 1161.875
172.1238, 1154.338
172.6059, 1149.076
173.0880, 1146.614
173.5701, 1145.545
174.0522, 1143.182
174.5344, 1141.908
175.0165, 1145.779
175.4986, 1158.287
175.9807, 1176.281
176.4628, 1191.812
176.9449, 1205.964
177.4271, 1215.086
177.9092, 1214.484
178.3913, 1209.614
178.8734, 1207.677
179.3555, 1212.101
179.8376, 1221.808
180.3197, 1234.496
180.8019, 1253.851
181.2840, 1269.403
181.7661, 1276.255
182.2482, 1278.615
182.7303, 1281.484
183.2124, 1287.281
183.6946, 1295.142
184.1767, 1302.809
184.6588, 1310.796
185.1409, 1317.469
185.6230, 1319.750
186.1051, 1321.570
186.5873, 1328.456
187.0694, 1343.850
187.5515, 1363.276
188.0336, 1374.359
188.5157, 1370.301
188.9978, 1369.332
189.4800, 1376.159
189.9621, 1387.180
190.4442, 1399.297
190.9263, 1411.236
191.4084, 1422.567
191.8905, 1432.403
192.3727, 1441.526
192.8548, 1447.414
193.3369, 1446.238
193.8190, 1443.811
194.3011, 1446.189
194.7832, 1455.828
195.2654, 1469.571
195.7475, 1480.501
196.2296, 1486.973
196.7117, 1493.742
197.1938, 1501.991
197.6759, 1510.478
198.1581, 1518.038
198.6402, 1524.310
199.1223, 1529.829
199.6044, 1535.871
200.0865, 1544.084
200.5686, 1549.286
201.0508, 1548.716
201.5329, 1546.988
202.0150, 1547.911
202.4971, 1552.445
202.9792, 1558.374
203.4613, 1561.851
203.9435, 1560.786
204.4256, 1562.024
204.9077, 1567.217
205.3898, 1573.501
205.8719, 1580.482
206.3540, 1587.411
206.8362, 1591.623
207.3183, 1588.021
207.8004, 1570.847
208.2825, 1560.807
208.7646, 1563.960
209.2467, 1568.747
209.7289, 1568.295
210.2110, 1562.012
210.6931, 1553.972
211.1752, 1548.916
211.6573, 1547.762
212.1395, 1546.388
212.6216, 1546.752
213.1037, 1545.308
213.5858, 1539.334
214.0679, 1529.464
214.5500, 1518.683
215.0322, 1509.748
215.5143, 1502.775
215.9964, 1497.133
216.4785, 1494.832
216.9606, 1491.957
217.4427, 1486.118
217.9249, 1478.213
218.4070, 1470.929
218.8891, 1466.527
219.3712, 1465.070
219.8533, 1464.282
220.3354, 1466.622
220.8176, 1467.207
221.2997, 1465.605
221.7818, 1461.175
222.2639, 1451.973
222.7460, 1435.327
223.2281, 1412.672
223.7103, 1401.094
224.1924, 1416.227
224.6745, 1425.812
225.1566, 1418.768
225.6387, 1402.846
226.1208, 1389.890
226.6030, 1386.886
227.0851, 1391.652
227.5672, 1395.098
228.0493, 1396.301
228.5314, 1397.324
229.0135, 1399.523
229.4957, 1401.389
229.9778, 1400.152
230.4599, 1394.372
230.9420, 1387.338
231.4241, 1388.391
231.9062, 1407.774
232.3884, 1417.140
232.8705, 1405.576
233.3526, 1388.010
233.8347, 1377.459
234.3168, 1378.203
234.7989, 1384.993
235.2811, 1388.621
235.7632, 1386.545
236.2453, 1387.465
236.7274, 1395.851
237.2095, 1404.528
237.6916, 1407.690
238.1738, 1404.700
238.6559, 1400.541
239.1380, 1402.274
239.6201, 1412.558
240.1022, 1418.831
240.5843, 1416.186
241.0665, 1413.105
241.5486, 1414.006
242.0307, 1418.747
242.5128, 1424.126
242.9949, 1427.182
243.4770, 1427.766
243.9592, 1427.785
244.4413, 1425.843
244.9234, 1424.686
245.4055, 1426.163
245.8876, 1429.376
246.3697, 1432.098
246.8519, 1433.283
247.3340, 1432.731
247.8161, 1428.017
248.2982, 1412.863
248.7803, 1402.140
249.2624, 1401.756
249.7446, 1408.562
250.2267, 1418.267
250.7088, 1430.354
251.1909, 1441.966
251.6730, 1443.098
252.1551, 1425.723
252.6373, 1414.361
253.1194, 1422.657
253.6015, 1437.966
254.0836, 1446.535
254.5657, 1442.865
255.0478, 1432.835
255.5300, 1425.232
256.0121, 1420.420
256.4942, 1416.773
256.9763, 1413.716
257.4584, 1411.773
257.9406, 1412.778
258.4227, 1417.294
258.9048, 1420.051
259.3869, 1411.704
259.8690, 1391.323
260.3511, 1382.167
260.8333, 1398.357
261.3154, 1418.857
261.7975, 1428.342
262.2796, 1426.609
262.7617, 1422.709
263.2438, 1422.368
263.7260, 1425.191
264.2081, 1429.263
264.6902, 1435.880
265.1723, 1441.351
265.6544, 1442.793
266.1365, 1441.005
266.6187, 1438.444
267.1008, 1435.663
267.5829, 1433.000
268.0650, 1431.124
268.5471, 1430.033
269.0292, 1429.788
269.5114, 1432.671
269.9935, 1436.275
270.4756, 1435.823
270.9577, 1426.190
271.4398, 1415.186
271.9219, 1412.654
272.4041, 1418.846
272.8862, 1425.044
273.3683, 1427.827
273.8504, 1427.302
274.3325, 1423.702
274.8146, 1414.372
275.2968, 1406.799
275.7789, 1406.985
276.2610, 1413.446
276.7431, 1420.816
277.2252, 1428.761
277.7073, 1434.557
278.1895, 1431.538
278.6716, 1416.659
279.1537, 1408.335
279.6358, 1421.366
280.1179, 1443.459
280.6000, 1452.147
281.0822, 1441.465
281.5643, 1423.499
282.0464, 1410.129
282.5285, 1401.107
283.0106, 1400.731
283.4927, 1417.960
283.9749, 1438.729
284.4570, 1450.205
284.9391, 1451.569
285.4212, 1449.664
285.9033, 1450.002
286.3854, 1452.407
286.8676, 1451.324
287.3497, 1440.533
287.8318, 1432.571
288.3139, 1437.871
288.7960, 1451.390
289.2781, 1458.254
289.7603, 1448.995
290.2424, 1428.913
290.7245, 1420.677
291.2066, 1435.968
291.6887, 1447.780
292.1708, 1451.453
292.6530, 1449.695
293.1351, 1444.639
293.6172, 1437.167
294.0993, 1429.625
294.5814, 1426.053
295.0635, 1426.578
295.5457, 1431.647
296.0278, 1448.802
296.5099, 1464.730
296.9920, 1466.219
297.4741, 1454.237
297.9562, 1443.225
298.4384, 1450.057
298.9205, 1479.465
299.4026, 1493.513
299.8847, 1477.961
300.3668, 1461.780
300.8489, 1452.229
301.3311, 1449.879
301.8131, 1454.608
302.2953, 1467.578
302.7774, 1486.210
303.2595, 1497.153
303.7416, 1496.564
304.2237, 1493.254
304.7058, 1482.708
305.1880, 1473.407
305.6701, 1477.365
306.1522, 1499.509
306.6343, 1526.455
307.1164, 1533.679
307.5985, 1513.958
308.0807, 1501.372
308.5628, 1508.739
309.0449, 1520.443
309.5270, 1527.591
310.0091, 1529.406
310.4912, 1530.603
310.9734, 1534.379
311.4555, 1540.776
311.9376, 1551.198
312.4197, 1570.295
312.9018, 1586.625
313.3839, 1591.926
313.8661, 1589.213
314.3482, 1586.087
314.8303, 1584.940
315.3124, 1585.918
315.7945, 1590.696
316.2766, 1600.347
316.7588, 1607.351
317.2409, 1604.996
317.7230, 1598.190
318.2051, 1595.143
318.6872, 1597.945
319.1693, 1602.645
319.6515, 1607.531
320.1336, 1612.189
320.6157, 1614.729
321.0978, 1614.228
321.5799, 1611.725
322.0620, 1607.480
322.5442, 1600.265
323.0263, 1598.014
323.5084, 1608.233
323.9905, 1622.431
324.4726, 1628.145
324.9547, 1623.352
325.4369, 1617.485
325.9190, 1619.412
326.4011, 1630.051
326.8832, 1641.680
327.3653, 1655.458
327.8474, 1669.178
328.3296, 1683.472
328.8117, 1696.953
329.2938, 1705.362
329.7759, 1705.683
330.2580, 1700.028
330.7401, 1697.960
331.2223, 1696.075
331.7044, 1702.112
332.1865, 1724.088
332.6686, 1751.129
333.1507, 1770.492
333.6328, 1778.653
334.1150, 1783.240
334.5971, 1796.640
335.0792, 1825.185
335.5613, 1845.016
336.0434, 1844.151
336.5255, 1846.125
337.0077, 1868.060
337.4898, 1904.852
337.9719, 1937.098
338.4540, 1946.682
338.9361, 1937.446
339.4182, 1945.171
339.9004, 1983.491
340.3825, 2018.990
340.8646, 2040.253
341.3467, 2054.088
341.8288, 2067.781
342.3109, 2083.354
342.7931, 2103.355
343.2752, 2134.406
343.7573, 2178.904
344.2394, 2217.452
344.7215, 2239.854
345.2036, 2259.137
345.6858, 2286.396
346.1679, 2322.061
346.6500, 2357.996
347.1321, 2387.903
347.6142, 2414.150
348.0963, 2441.544
348.5785, 2468.160
349.0606, 2503.751
349.5427, 2563.895
350.0248, 2640.334
350.5069, 2708.365
350.9890, 2760.330
351.4712, 2805.295
351.9533, 2847.139
352.4354, 2887.364
352.9175, 2933.220
353.3996, 2987.836
353.8817, 3050.493
354.3639, 3121.077
354.8460, 3202.040
355.3281, 3283.090
355.8102, 3363.822
356.2923, 3442.505
356.7744, 3516.091
357.2566, 3584.269
357.7387, 3647.443
358.2208, 3705.870
358.7029, 3759.117
359.1850, 3810.126
359.6671, 3866.885
360.1493, 3913.886
360.6314, 3944.074
361.1135, 3959.049
361.5956, 3963.890
362.0777, 3961.871
362.5598, 3951.000
363.0420, 3923.738
363.5241, 3874.684
364.0062, 3816.270
364.4883, 3751.554
364.9704, 3678.565
365.4525, 3592.237
365.9347, 3493.154
366.4168, 3391.042
366.8989, 3295.528
367.3810, 3205.668
367.8631, 3126.796
368.3452, 3065.784
368.8274, 3008.030
369.3095, 2947.090
369.7916, 2883.120
370.2737, 2816.711
370.7558, 2744.250
371.2379, 2672.590
371.7201, 2616.305
372.2022, 2577.141
372.6843, 2537.346
373.1664, 2488.889
373.6485, 2436.125
374.1306, 2384.958
374.6128, 2334.638
375.0949, 2289.386
375.5770, 2253.241
376.0591, 2223.745
376.5412, 2197.005
377.0233, 2172.538
377.5055, 2148.581
377.9876, 2124.121
378.4697, 2099.260
378.9518, 2069.534
379.4339, 2029.451
379.9160, 1989.466
380.3982, 1955.053
380.8803, 1926.041
381.3624, 1901.794
381.8445, 1882.277
382.3266, 1866.113
382.8087, 1848.824
383.2909, 1832.003
383.7730, 1811.770
384.2551, 1784.642
384.7372, 1756.398
385.2193, 1731.318
385.7014, 1710.269
386.1836, 1691.793
386.6657, 1674.775
387.1478, 1659.400
387.6299, 1643.123
388.1120, 1624.578
388.5941, 1606.577
389.0763, 1587.833
389.5584, 1570.731
390.0405, 1560.353
390.5226, 1560.479
391.0047, 1563.047
391.4868, 1553.844
391.9690, 1531.502
392.4511, 1510.545
392.9332, 1493.236
393.4153, 1480.520
393.8974, 1474.005
394.3795, 1473.568
394.8617, 1473.708
395.3438, 1473.700
395.8259, 1471.898
396.3080, 1464.574
396.7901, 1451.169
397.2722, 1436.558
397.7544, 1423.501
398.2365, 1412.145
398.7186, 1402.240
399.2007, 1392.170
399.6828, 1385.374
400.1649, 1387.473
400.6471, 1392.753
401.1292, 1390.290
401.6113, 1376.416
402.0934, 1358.875
402.5755, 1349.066
403.0576, 1349.922
403.5398, 1350.139
404.0219, 1351.630
404.5040, 1350.835
404.9861, 1344.200
405.4682, 1333.686
405.9503, 1324.050
406.4325, 1318.262
406.9146, 1315.650
407.3967, 1314.096
407.8788, 1314.075
408.3609, 1314.161
408.8430, 1315.658
409.3252, 1316.123
409.8073, 1312.256
410.2894, 1303.989
410.7715, 1296.793
411.2536, 1297.386
411.7357, 1303.724
412.2179, 1304.784
412.7000, 1298.323
413.1821, 1290.268
413.6642, 1283.467
414.1463, 1278.067
414.6284, 1274.825
415.1106, 1273.324
415.5927, 1274.670
416.0748, 1283.115
416.5569, 1295.495
417.0390, 1301.735
417.5211, 1298.134
418.0033, 1287.905
418.4854, 1274.056
418.9675, 1252.729
419.4496, 1242.258
419.9317, 1255.659
420.4138, 1270.032
420.8960, 1266.486
421.3781, 1249.382
421.8602, 1236.763
422.3423, 1240.870
422.8244, 1257.167
423.3065, 1266.109
423.7887, 1264.913
424.2708, 1260.115
424.7529, 1249.424
425.2350, 1237.775
425.7171, 1228.070
426.1992, 1221.238
426.6814, 1218.353
427.1635, 1222.134
427.6456, 1231.890
428.1277, 1239.266
428.6098, 1244.815
429.0919, 1246.792
429.5741, 1239.601
430.0562, 1229.604
430.5383, 1227.634
431.0204, 1240.259
431.5025, 1252.658
431.9846, 1249.428
432.4668, 1235.233
432.9489, 1228.057
433.4310, 1234.125
433.9131, 1242.683
434.3952, 1239.965
434.8773, 1224.447
435.3595, 1213.869
435.8416, 1210.736
436.3237, 1211.405
436.8058, 1216.502
437.2879, 1223.583
437.7701, 1226.862
438.2522, 1223.168
438.7343, 1215.256
439.2164, 1209.900
439.6985, 1206.468
440.1806, 1207.103
440.6628, 1216.173
441.1449, 1225.223
441.6270, 1228.586
442.1091, 1226.614
442.5912, 1223.097
443.0733, 1220.484
443.5555, 1218.696
444.0376, 1217.063
444.5197, 1214.745
445.0018, 1214.973
445.4839, 1222.732
445.9660, 1231.741
446.4482, 1234.759
446.9303, 1230.013
447.4124, 1226.310
447.8945, 1230.496
448.3766, 1239.262
448.8587, 1246.611
449.3409, 1251.951
449.8230, 1253.121
450.3051, 1246.197
450.7872, 1232.757
451.2693, 1228.091
451.7514, 1241.092
452.2336, 1251.816
452.7157, 1251.686
453.1978, 1246.081
453.6799, 1242.661
454.1620, 1243.600
454.6441, 1245.721
455.1263, 1244.619
455.6084, 1239.271
456.0905, 1236.503
456.5726, 1238.308
457.0547, 1240.811
457.5368, 1242.059
458.0190, 1243.449
458.5011, 1248.121
458.9832, 1258.097
459.4653, 1268.422
459.9474, 1270.844
460.4295, 1265.206
460.9117, 1261.949
461.3938, 1264.088
461.8759, 1267.774
462.3580, 1269.577
462.8401, 1269.847
463.3222, 1270.392
463.8044, 1271.182
464.2865, 1272.865
464.7686, 1277.135
465.2507, 1283.078
465.7328, 1287.043
466.2149, 1287.311
466.6971, 1285.231
467.1792, 1283.291
467.6613, 1280.963
468.1434, 1280.031
468.6255, 1279.854
469.1076, 1281.577
469.5898, 1287.638
470.0719, 1296.354
470.5540, 1303.056
471.0361, 1304.563
471.5182, 1302.810
472.0003, 1303.486
472.4825, 1307.209
472.9646, 1311.682
473.4467, 1319.628
473.9288, 1325.780
474.4109, 1323.234
474.8930, 1313.355
475.3752, 1309.214
475.8573, 1323.373
476.3394, 1346.001
476.8215, 1361.045
477.3036, 1368.060
477.7857, 1370.302
478.2679, 1368.076
478.7500, 1363.149
479.2321, 1359.357
479.7142, 1355.508
480.1963, 1355.334
480.6784, 1361.774
481.1606, 1370.700
481.6427, 1378.174
482.1248, 1384.184
482.6069, 1391.433
483.0890, 1402.372
483.5711, 1415.850
484.0533, 1425.573
484.5354, 1429.316
485.0175, 1432.816
485.4996, 1438.612
485.9817, 1443.359
486.4638, 1444.326
486.9460, 1441.285
487.4281, 1435.861
487.9102, 1428.069
488.3923, 1418.925
488.8744, 1411.672
489.3565, 1406.587
489.8387, 1402.031
490.3208, 1397.538
490.8029, 1392.900
491.2850, 1387.918
491.7671, 1382.925
492.2492, 1376.654
492.7314, 1365.449
493.2135, 1354.602
493.6956, 1350.391
494.1777, 1353.183
494.6598, 1360.436
495.1419, 1371.632
495.6241, 1384.671
496.1062, 1385.589
496.5883, 1357.452
497.0704, 1341.075
497.5525, 1346.480
498.0346, 1360.415
498.5168, 1372.995
498.9989, 1382.594
499.4810, 1392.065
499.9631, 1403.933
500.4452, 1417.568
500.9273, 1430.621
501.4095, 1443.268
501.8916, 1454.473
502.3737, 1461.831
502.8558, 1468.749
503.3379, 1480.757
503.8200, 1499.114
504.3022, 1517.456
504.7843, 1530.747
505.2664, 1544.257
505.7485, 1568.351
506.2306, 1601.142
506.7127, 1624.773
507.1949, 1625.775
507.6770, 1610.510
508.1591, 1607.033
508.6412, 1629.320
509.1233, 1643.041
509.6054, 1644.141
510.0876, 1638.241
510.5697, 1627.689
511.0518, 1613.764
511.5339, 1598.700
512.0161, 1584.477
512.4982, 1570.062
512.9803, 1550.955
513.4624, 1525.798
513.9445, 1505.265
514.4266, 1496.073
514.9088, 1490.815
515.3909, 1478.864
515.8730, 1459.488
516.3551, 1442.862
516.8372, 1431.935
517.3193, 1425.133
517.8015, 1422.317
518.2836, 1422.516
518.7657, 1422.808
519.2478, 1421.764
519.7299, 1419.381
520.2120, 1415.487
520.6942, 1408.403
521.1763, 1403.013
521.6584, 1399.024
522.1405, 1396.771
522.6226, 1397.509
523.1047, 1400.125
523.5869, 1402.120
524.0690, 1402.307
524.5511, 1400.972
525.0332, 1397.755
525.5153, 1392.681
525.9974, 1389.014
526.4796, 1386.251
526.9617, 1387.237
527.4438, 1398.524
527.9259, 1418.510
528.4080, 1431.860
528.8901, 1431.450
529.3723, 1428.779
529.8544, 1431.092
530.3365, 1435.989
530.8186, 1438.045
531.3007, 1435.478
531.7828, 1431.393
532.2650, 1429.928
532.7471, 1431.273
533.2292, 1433.976
533.7113, 1435.738
534.1934, 1441.829
534.6755, 1458.200
535.1577, 1478.076
535.6398, 1491.714
536.1219, 1495.899
536.6040, 1498.303
537.0861, 1506.694
537.5682, 1519.060
538.0504, 1527.770
538.5325, 1531.146
539.0146, 1536.655
539.4967, 1549.954
539.9788, 1569.728
540.4609, 1588.860
540.9431, 1607.864
541.4252, 1625.857
541.9073, 1640.573
542.3894, 1655.522
542.8715, 1673.645
543.3536, 1695.532
543.8358, 1720.663
544.3179, 1748.597
544.8000, 1779.504
545.2821, 1815.215
545.7642, 1858.875
546.2463, 1898.499
546.7285, 1924.144
547.2106, 1949.686
547.6927, 1986.698
548.1748, 2034.780
548.6569, 2084.780
549.1390, 2132.749
549.6211, 2180.277
550.1032, 2229.521
550.5853, 2279.928
551.0674, 2326.160
551.5496, 2365.338
552.0317, 2405.947
552.5138, 2462.635
552.9959, 2541.477
553.4780, 2616.828
553.9601, 2686.773
554.4423, 2756.169
554.9244, 2829.391
555.4065, 2902.654
555.8886, 2970.586
556.3707, 3031.561
556.8528, 3085.300
557.3350, 3135.288
557.8171, 3179.663
558.2992, 3202.919
558.7813, 3202.715
559.2634, 3184.075
559.7455, 3147.356
560.2277, 3093.885
560.7098, 3032.710
561.1919, 2969.217
561.6740, 2888.496
562.1561, 2772.350
562.6382, 2644.958
563.1204, 2530.023
563.6025, 2430.149
564.0846, 2336.459
564.5667, 2241.522
565.0488, 2147.162
565.5309, 2058.346
566.0131, 1972.861
566.4952, 1898.672
566.9773, 1844.451
567.4594, 1796.138
567.9415, 1744.993
568.4236, 1691.824
568.9058, 1642.483
569.3879, 1599.025
569.8700, 1560.559
570.3521, 1526.087
570.8342, 1495.570
571.3163, 1469.423
571.7985, 1447.970
572.2806, 1429.052
572.7627, 1410.589
573.2448, 1392.757
573.7269, 1373.050
574.2090, 1344.695
574.6912, 1322.370
575.1733, 1314.276
575.6554, 1311.754
576.1375, 1304.320
576.6196, 1290.006
577.1017, 1276.106
577.5839, 1268.898
578.0660, 1267.383
578.5481, 1269.328
579.0302, 1275.244
579.5123, 1280.014
579.9944, 1282.247
580.4766, 1281.134
580.9587, 1273.131
581.4408, 1255.116
581.9229, 1244.088
582.4050, 1248.866
582.8871, 1255.533
583.3693, 1255.101
583.8514, 1249.155
584.3335, 1242.130
584.8156, 1236.055
585.2977, 1231.416
585.7798, 1228.615
586.2620, 1227.520
586.7441, 1230.602
587.2262, 1241.330
587.7083, 1250.761
588.1904, 1252.061
588.6725, 1249.199
589.1547, 1249.153
589.6368, 1255.187
590.1189, 1257.830
590.6010, 1246.781
591.0831, 1232.888
591.5652, 1234.050
592.0474, 1248.551
592.5295, 1256.688
593.0116, 1244.485
593.4937, 1219.322
593.9758, 1203.836
594.4579, 1201.209
594.9401, 1200.876
595.4222, 1207.975
595.9043, 1211.704
596.3864, 1201.156
596.8685, 1183.000
597.3506, 1175.455
597.8328, 1191.240
598.3149, 1207.974
598.7970, 1201.236
599.2791, 1180.027
599.7612, 1168.443
600.2433, 1171.109
600.7255, 1176.954
601.2076, 1176.827
601.6897, 1171.489
602.1718, 1167.149
602.6539, 1164.462
603.1360, 1161.932
603.6182, 1158.707
604.1003, 1156.177
604.5824, 1158.628
605.0645, 1163.432
605.5466, 1159.818
606.0287, 1135.386
606.5109, 1107.636
606.9930, 1105.974
607.4751, 1127.226
607.9572, 1147.330
608.4393, 1161.604
608.9214, 1168.253
609.4036, 1162.635
609.8857, 1144.699
610.3678, 1138.217
610.8499, 1155.336
611.3320, 1167.409
611.8141, 1164.123
612.2963, 1154.972
612.7784, 1149.636
613.2605, 1149.020
613.7426, 1147.523
614.2247, 1138.847
614.7068, 1128.010
615.1890, 1129.145
615.6711, 1142.854
616.1532, 1155.488
616.6353, 1164.229
617.1174, 1168.472
617.5995, 1166.315
618.0817, 1157.589
618.5638, 1149.530
619.0459, 1142.028
619.5280, 1135.687
620.0101, 1128.510
620.4922, 1123.745
620.9744, 1127.246
621.4565, 1138.919
621.9386, 1150.797
622.4207, 1154.766
622.9028, 1153.624
623.3849, 1159.825
623.8671, 1175.469
624.3492, 1185.803
624.8313, 1183.817
625.3134, 1177.565
625.7955, 1175.769
626.2776, 1178.153
626.7598, 1183.421
627.2419, 1195.073
627.7240, 1205.593
628.2061, 1210.469
628.6882, 1212.043
629.1703, 1211.743
629.6525, 1210.997
630.1346, 1215.048
630.6167, 1229.932
631.0988, 1253.911
631.5809, 1278.303
632.0630, 1304.396
632.5452, 1326.199
633.0273, 1341.688
633.5094, 1352.307
633.9915, 1355.329
634.4736, 1351.542
634.9557, 1361.059
635.4379, 1400.053
635.9200, 1440.414
636.4021, 1467.801
636.8842, 1485.664
637.3663, 1496.699
637.8484, 1503.267
638.3306, 1514.550
638.8127, 1542.102
639.2948, 1581.884
639.7769, 1607.674
640.2590, 1616.340
640.7411, 1622.149
641.2233, 1626.991
641.7054, 1632.587
642.1875, 1644.198
642.6696, 1660.674
643.1517, 1665.947
643.6339, 1654.015
644.1160, 1632.958
644.5981, 1600.938
645.0802, 1565.118
645.5623, 1538.533
646.0444, 1522.545
646.5266, 1504.429
647.0087, 1471.195
647.4908, 1426.866
647.9729, 1390.149
648.4550, 1362.196
648.9371, 1338.476
649.4193, 1319.965
649.9014, 1303.130
650.3835, 1282.314
650.8656, 1258.855
651.3477, 1242.488
651.8298, 1242.592
652.3120, 1241.237
652.7941, 1227.627
653.2762, 1208.660
653.7583, 1193.405
654.2404, 1183.332
654.7225, 1174.684
655.2047, 1164.100
655.6868, 1153.069
656.1689, 1147.862
656.6510, 1149.994
657.1331, 1148.207
657.6152, 1137.961
658.0974, 1126.378
658.5795, 1120.599
659.0616, 1119.207
659.5437, 1116.026
660.0258, 1106.936
660.5079, 1100.391
660.9901, 1103.528
661.4722, 1107.910
661.9543, 1102.302
662.4364, 1088.105
662.9185, 1076.792
663.4006, 1076.500
663.8828, 1082.279
664.3649, 1083.329
664.8470, 1079.475
665.3291, 1077.328
665.8112, 1079.754
666.2933, 1079.300
666.7755, 1067.009
667.2576, 1047.172
667.7397, 1038.443
668.2218, 1049.091
668.7039, 1057.306
669.1860, 1057.306
669.6682, 1054.651
670.1503, 1054.230
670.6324, 1055.052
671.1145, 1052.534
671.5966, 1043.962
672.0787, 1034.384
672.5609, 1031.482
673.0430, 1034.312
673.5251, 1035.715
674.0072, 1034.535
674.4893, 1035.260
674.9714, 1042.315
675.4536, 1051.723
675.9357, 1052.657
676.4178, 1039.719
676.8999, 1030.063
677.3820, 1025.870
677.8641, 1023.254
678.3463, 1021.455
678.8284, 1019.452
679.3105, 1014.426
679.7926, 1005.504
680.2747, 1000.020
680.7568, 1009.806
681.2390, 1026.969
681.7211, 1030.792
682.2032, 1021.168
682.6853, 1012.504
683.1674, 1011.043
683.6495, 1013.244
684.1317, 1013.219
684.6138, 1009.584
685.0959, 1011.117
685.5780, 1027.902
686.0601, 1037.735
686.5422, 1030.482
687.0244, 1016.582
687.5065, 1006.507
687.9886, 1001.595
688.4707, 997.6922
688.9528, 990.7744
689.4349, 984.9284
689.9171, 985.8872
690.3992, 991.7997
690.8813, 997.7305
691.3634, 1002.265
691.8455, 1005.313
692.3276, 1007.174
692.8098, 1007.407
693.2919, 1000.754
693.7740, 980.4194
694.2561, 968.3387
694.7382, 974.6454
695.2203, 985.0718
695.7025, 991.7441
696.1846, 994.4818
696.6667, 993.2197
697.1488, 983.2783
697.6309, 976.3483
698.1130, 982.4082
698.5952, 992.8815
699.0773, 997.3804
699.5594, 995.1884
700.0415, 990.0031
700.5236, 983.7149
701.0057, 977.7736
701.4879, 975.9057
701.9700, 978.3918
702.4521, 978.1863
702.9342, 972.4622
703.4163, 969.9656
703.8984, 978.8683
704.3806, 993.3380
704.8627, 999.0252
705.3448, 992.8599
705.8269, 987.4589
706.3090, 985.0707
706.7911, 983.3571
707.2733, 980.8060
707.7554, 977.9893
708.2375, 975.8115
708.7196, 974.5916
709.2017, 974.6879
709.6838, 977.3926
710.1660, 981.4381
710.6481, 983.7246
711.1302, 984.2387
711.6123, 982.9760
712.0944, 979.3641
712.5765, 976.5980
713.0587, 979.6175
713.5408, 989.0095
714.0229, 991.5005
714.5050, 977.7740
714.9871, 969.9130
715.4692, 976.8533
715.9514, 986.5226
716.4335, 989.1088
716.9156, 985.1043
717.3977, 980.7270
717.8798, 978.0071
718.3619, 976.4144
718.8441, 975.1834
719.3262, 974.9183
719.8083, 978.2742
720.2904, 984.5171
720.7725, 987.1351
721.2546, 981.1634
721.7368, 971.1920
722.2189, 968.9012
722.7010, 975.6213
723.1831, 980.8129
723.6652, 983.1934
724.1473, 985.0650
724.6295, 988.6187
725.1116, 992.1069
725.5937, 991.9576
726.0758, 987.2883
726.5579, 981.9984
727.0400, 975.9299
727.5222, 970.2900
728.0043, 964.7689
728.4864, 960.5181
728.9685, 959.7614
729.4506, 962.8484
729.9327, 967.0269
730.4149, 970.3964
730.8970, 972.8423
731.3791, 973.8633
731.8612, 973.5743
732.3433, 972.9123
732.8254, 972.0491
733.3076, 971.6692
733.7897, 972.9329
734.2718, 975.4875
734.7539, 974.4703
735.2360, 965.8439
735.7181, 960.4156
736.2003, 962.4244
736.6824, 965.0385
737.1645, 963.9739
737.6466, 960.0895
738.1287, 955.8334
738.6108, 950.3905
739.0930, 948.2497
739.5751, 956.9713
740.0572, 966.9830
740.5393, 963.2930
741.0214, 950.1025
741.5035, 945.5543
741.9857, 958.2551
742.4678, 975.3171
742.9499, 976.8704
743.4320, 964.2972
743.9141, 957.2764
744.3962, 956.6347
744.8784, 958.1711
745.3605, 960.3746
745.8426, 964.0143
746.3247, 971.9940
746.8068, 985.9047
747.2889, 988.3129
747.7711, 966.1611
748.2532, 950.1027
748.7353, 951.8212
749.2174, 959.2583
749.6995, 961.5209
750.1816, 958.8005
750.6638, 957.5313
751.1459, 961.3234
751.6280, 966.5112
752.1101, 971.5859
752.5922, 974.9988
753.0743, 971.5988
753.5565, 962.2935
754.0386, 956.5861
754.5207, 960.4570
755.0028, 968.2145
755.4849, 967.9094
755.9670, 958.2925
756.4492, 952.7188
756.9313, 953.2082
757.4134, 952.9634
757.8955, 946.2335
758.3776, 939.2273
758.8597, 944.2488
759.3419, 963.2111
759.8240, 972.4654
760.3061, 961.2612
760.7882, 950.6572
761.2703, 949.7571
761.7524, 952.6434
762.2346, 952.3807
762.7167, 948.8549
763.1988, 946.9710
763.6809, 950.1883
764.1630, 955.0289
764.6451, 957.9908
765.1273, 959.3605
765.6094, 960.0214
766.0915, 960.0128
766.5736, 958.0336
767.0557, 952.9423
767.5378, 946.9569
768.0200, 945.3005
768.5021, 948.8781
768.9842, 951.5952
769.4663, 954.1657
769.9484, 953.9748
770.4305, 946.7672
770.9127, 938.2839
771.3948, 937.5651
771.8769, 945.2346
772.3590, 951.4957
772.8411, 956.0045
773.3232, 957.9830
773.8054, 955.3447
774.2875, 951.2052
774.7696, 949.0246
775.2517, 948.7728
775.7338, 947.7607
776.2159, 943.6287
776.6981, 940.0305
777.1802, 943.0465
777.6623, 949.2454
778.1444, 949.0400
778.6265, 942.4306
779.1086, 939.3621
779.5908, 945.7432
780.0729, 956.3710
780.5550, 961.4376
781.0371, 960.2822
781.5192, 960.2834
782.0013, 962.4802
782.4835, 962.9689
782.9656, 959.2494
783.4477, 954.0632
783.9298, 950.2857
784.4119, 947.8618
784.8940, 948.4295
785.3762, 956.8136
785.8583, 962.0441
786.3404, 958.0063
786.8225, 952.1189
787.3046, 950.6596
787.7867, 953.2974
788.2689, 956.6546
788.7510, 959.5825
789.2331, 961.9951
789.7152, 964.8176
790.1973, 966.5933
790.6794, 963.2721
791.1616, 956.3129
791.6437, 952.5641
792.1258, 954.9604
792.6079, 960.5468
793.0900, 966.5554
793.5721, 972.4603
794.0543, 971.6814
794.5364, 962.6924
795.0185, 956.7536
795.5006, 957.6508
795.9827, 961.4550
796.4648, 964.8337
796.9470, 967.7786
797.4291, 970.0754
797.9112, 973.8107
798.3933, 973.7930
798.8754, 964.7082
799.3575, 956.8529
799.8397, 956.5823
800.3218, 961.6689
800.8039, 968.2091
801.2860, 975.8801
801.7681, 980.8245
802.2502, 979.2104
802.7324, 975.6857
803.2145, 974.3314
803.6966, 974.3024
804.1787, 973.0399
804.6608, 970.2413
805.1429, 968.7406
805.6251, 971.3988
806.1072, 976.2839
806.5893, 978.6680
807.0714, 979.1292
807.5535, 983.4291
808.0356, 993.0016
808.5178, 998.0172
808.9999, 990.4764
809.4820, 977.1199
809.9641, 975.9573
810.4462, 991.9064
810.9283, 1001.917
811.4105, 1003.131
811.8926, 1003.125
812.3747, 1005.628
812.8568, 1007.777
813.3389, 1005.907
813.8210, 1000.012
814.3032, 994.1205
814.7853, 983.2650
815.2674, 979.5887
815.7495, 992.4692
816.2316, 1010.217
816.7137, 1025.413
817.1959, 1035.613
817.6780, 1036.836
818.1601, 1025.289
818.6422, 1014.661
819.1243, 1017.200
819.6064, 1027.739
820.0886, 1041.870
820.5707, 1056.769
821.0528, 1063.074
821.5349, 1057.944
822.0170, 1052.291
822.4991, 1060.046
822.9813, 1076.302
823.4634, 1077.567
823.9455, 1062.811
824.4276, 1055.338
824.9097, 1061.232
825.3918, 1069.823
825.8740, 1072.562
826.3561, 1072.253
826.8382, 1079.145
827.3203, 1101.744
827.8024, 1111.687
828.2845, 1095.163
828.7667, 1082.915
829.2488, 1090.818
829.7309, 1105.967
830.2130, 1112.404
830.6951, 1109.220
831.1772, 1108.136
831.6594, 1112.426
832.1415, 1118.776
832.6236, 1128.573
833.1057, 1137.681
833.5878, 1141.071
834.0699, 1139.904
834.5521, 1137.881
835.0342, 1135.442
835.5163, 1139.396
835.9984, 1161.577
836.4805, 1191.330
836.9626, 1211.821
837.4448, 1223.594
837.9269, 1232.207
838.4090, 1239.698
838.8911, 1246.502
839.3732, 1252.380
839.8553, 1258.457
840.3375, 1268.348
840.8196, 1282.013
841.3017, 1302.961
841.7838, 1333.393
842.2659, 1363.689
842.7480, 1387.816
843.2302, 1406.898
843.7123, 1423.380
844.1944, 1434.906
844.6765, 1451.773
845.1586, 1473.878
845.6407, 1501.437
846.1229, 1540.013
846.6050, 1580.464
847.0871, 1612.478
847.5692, 1636.847
848.0513, 1665.066
848.5334, 1697.730
849.0156, 1735.938
849.4977, 1785.682
849.9798, 1836.011
850.4619, 1875.973
850.9440, 1910.665
851.4261, 1952.427
851.9083, 2005.718
852.3904, 2058.646
852.8725, 2102.959
853.3546, 2143.977
853.8367, 2186.418
854.3188, 2230.634
854.8010, 2279.397
855.2831, 2331.607
855.7652, 2378.074
856.2473, 2411.306
856.7294, 2436.701
857.2115, 2465.736
857.6937, 2495.528
858.1758, 2511.407
858.6579, 2512.389
859.1400, 2511.983
859.6221, 2516.619
860.1042, 2522.091
860.5864, 2524.043
861.0685, 2522.039
861.5506, 2502.867
862.0327, 2462.151
862.5148, 2421.019
862.9969, 2383.254
863.4791, 2347.501
863.9612, 2317.313
864.4433, 2286.918
864.9254, 2234.099
865.4075, 2131.628
865.8896, 2063.487
866.3718, 2058.738
866.8539, 2051.702
867.3360, 2015.617
867.8181, 1967.832
868.3002, 1928.267
868.7823, 1897.778
869.2645, 1865.571
869.7466, 1823.458
870.2287, 1786.470
870.7108, 1763.534
871.1929, 1745.682
871.6750, 1724.583
872.1572, 1702.007
872.6393, 1685.127
873.1214, 1676.596
873.6035, 1666.502
874.0856, 1646.627
874.5677, 1622.245
875.0499, 1593.695
875.5320, 1566.788
876.0141, 1556.377
876.4962, 1562.457
876.9783, 1567.400
877.4604, 1558.512
877.9426, 1545.530
878.4247, 1546.547
878.9068, 1556.894
879.3889, 1556.934
879.8710, 1546.513
880.3531, 1541.768
880.8353, 1549.585
881.3174, 1559.127
881.7995, 1555.845
882.2816, 1543.494
882.7637, 1548.194
883.2458, 1572.932
883.7280, 1592.441
884.2101, 1602.430
884.6922, 1606.385
885.1743, 1603.128
885.6564, 1599.144
886.1385, 1610.291
886.6207, 1642.444
887.1028, 1662.718
887.5849, 1664.245
888.0670, 1664.785
888.5491, 1665.776
889.0313, 1670.402
889.5134, 1683.106
889.9955, 1702.079
890.4776, 1719.069
890.9597, 1732.034
891.4418, 1745.569
891.9240, 1757.252
892.4061, 1773.046
892.8882, 1797.964
893.3703, 1828.024
893.8524, 1857.999
894.3345, 1887.181
894.8167, 1916.884
895.2988, 1950.115
895.7809, 1980.783
896.2630, 1999.706
896.7451, 2019.131
897.2272, 2052.670
897.7094, 2097.801
898.1915, 2144.770
898.6736, 2190.005
899.1557, 2237.923
899.6378, 2292.565
900.1199, 2351.117
900.6021, 2408.279
901.0842, 2467.191
901.5663, 2532.999
902.0484, 2607.548
902.5305, 2694.080
903.0126, 2794.871
903.4948, 2904.533
903.9769, 3011.012
904.4590, 3120.189
904.9411, 3250.413
905.4232, 3400.581
905.9053, 3550.894
906.3875, 3694.817
906.8696, 3848.023
907.3517, 4025.586
907.8338, 4224.052
908.3159, 4432.934
908.7980, 4651.798
909.2802, 4886.651
909.7623, 5137.784
910.2444, 5406.720
910.7265, 5697.264
911.2086, 5992.017
911.6907, 6265.921
912.1729, 6519.261
912.6550, 6777.145
913.1371, 7043.413
913.6192, 7304.754
914.1013, 7563.204
914.5834, 7808.511
915.0656, 8034.169
915.5477, 8243.617
916.0298, 8453.636
916.5119, 8687.644
916.9940, 8834.465
917.4761, 8866.284
917.9583, 8849.837
918.4404, 8798.313
918.9225, 8706.586
919.4046, 8567.996
919.8867, 8385.441
920.3688, 8169.629
920.8510, 7918.509
921.3331, 7638.509
921.8152, 7316.745
922.2973, 6982.018
922.7794, 6634.303
923.2615, 6287.208
923.7437, 5955.182
924.2258, 5639.917
924.7079, 5348.376
925.1900, 5091.751
925.6721, 4841.614
926.1542, 4579.208
926.6364, 4326.650
927.1185, 4100.581
927.6006, 3899.378
928.0827, 3719.770
928.5648, 3560.114
929.0469, 3408.012
929.5291, 3250.746
930.0112, 3105.486
930.4933, 2982.691
930.9754, 2880.142
931.4575, 2808.156
931.9396, 2752.031
932.4218, 2673.122
932.9039, 2557.270
933.3860, 2437.072
933.8681, 2329.717
934.3502, 2242.785
934.8323, 2203.480
935.3145, 2186.708
935.7966, 2138.816
936.2787, 2058.013
936.7608, 1978.003
937.2429, 1916.748
937.7250, 1864.660
938.2072, 1810.684
938.6893, 1756.598
939.1714, 1704.318
939.6535, 1655.335
940.1356, 1616.944
940.6177, 1589.684
941.0999, 1563.843
941.5820, 1532.485
942.0641, 1498.841
942.5462, 1465.551
943.0283, 1434.716
943.5104, 1422.624
943.9926, 1427.808
944.4747, 1419.964
944.9568, 1389.502
945.4389, 1354.322
945.9210, 1330.106
946.4031, 1314.292
946.8853, 1300.293
947.3674, 1288.084
947.8495, 1276.428
948.3316, 1265.237
948.8137, 1255.066
949.2958, 1246.525
949.7780, 1236.851
950.2601, 1222.042
950.7422, 1204.142
951.2243, 1195.578
951.7064, 1198.744
952.1885, 1195.233
952.6707, 1181.917
953.1528, 1166.686
953.6349, 1151.408
954.1170, 1140.054
954.5991, 1139.406
955.0812, 1148.676
955.5634, 1149.614
956.0455, 1138.523
956.5276, 1131.105
957.0097, 1132.813
957.4918, 1130.363
957.9739, 1113.261
958.4561, 1091.408
958.9382, 1081.482
959.4203, 1084.424
959.9024, 1085.542
960.3845, 1085.026
960.8666, 1082.121
961.3488, 1074.180
961.8309, 1067.434
962.3130, 1068.491
962.7951, 1071.856
963.2772, 1065.314
963.7593, 1045.553
964.2415, 1033.664
964.7236, 1036.201
965.2057, 1037.083
965.6878, 1030.121
966.1699, 1024.107
966.6520, 1029.112
967.1342, 1038.184
967.6163, 1033.035
968.0984, 1006.356
968.5805, 993.3462
969.0626, 1011.572
969.5447, 1022.309
970.0269, 1009.097
970.5090, 991.0749
970.9911, 980.4788
971.4732, 977.0674
971.9553, 979.7372
972.4374, 990.7956
972.9196, 999.2654
973.4017, 1002.562
973.8838, 1004.511
974.3659, 1007.384
974.8480, 1008.681
975.3301, 1004.821
975.8123, 997.5328
976.2944, 992.6174
976.7765, 992.0786
977.2586, 990.2673
977.7407, 980.3167
978.2228, 975.6905
978.7050, 988.9921
979.1871, 1005.248
979.6692, 1008.639
980.1513, 1001.492
980.6334, 996.6638
981.1155, 999.0216
981.5977, 997.0703
982.0798, 980.4886
982.5619, 966.8678
983.0440, 966.7200
983.5261, 973.0519
984.0082, 981.5545
984.4904, 989.1886
984.9725, 987.4293
985.4546, 969.2268
985.9367, 955.9372
986.4188, 958.2741
986.9009, 964.2145
987.3831, 969.1728
987.8652, 972.1295
988.3473, 971.7978
988.8294, 968.6730
989.3115, 964.6948
989.7936, 959.4760
990.2758, 956.3433
990.7579, 959.2111
991.2400, 961.8376
991.7221, 961.8690
992.2042, 958.2472
992.6863, 947.1982
993.1685, 931.1121
993.6506, 919.9088
994.1327, 917.0337
994.6148, 918.9707
995.0969, 929.0414
995.5790, 938.1774
996.0612, 940.6898
996.5433, 938.2675
997.0254, 930.9192
997.5075, 920.8173
997.9896, 915.4405
998.4717, 918.6351
998.9539, 922.8529
999.4360, 924.6142
999.9181, 926.1997
1000.400, 930.7970
1000.882, 935.1138
1001.364, 935.3271
1001.847, 931.0894
1002.329, 922.9673
1002.811, 909.2143
1003.293, 897.6961
1003.775, 892.1595
1004.257, 889.9811
1004.739, 890.3961
1005.221, 892.4957
1005.703, 896.5192
1006.186, 901.3729
1006.668, 903.3582
1007.150, 900.2140
1007.632, 897.5423
1008.114, 897.9110
1008.596, 899.5735
1009.078, 901.3210
1009.560, 903.7697
1010.043, 907.4356
1010.525, 912.5712
1011.007, 920.6878
1011.489, 934.7476
1011.971, 942.5734
1012.453, 931.4904
1012.935, 921.1483
1013.417, 927.9332
1013.899, 938.7601
1014.382, 935.2021
1014.864, 921.5889
1015.346, 918.5584
1015.828, 934.6227
1016.310, 948.8997
1016.792, 952.3701
1017.274, 953.1791
1017.756, 954.7123
1018.239, 956.6416
1018.721, 959.3030
1019.203, 961.7854
1019.685, 960.9965
1020.167, 954.9198
1020.649, 952.2911
1021.131, 960.2410
1021.613, 966.9338
1022.095, 963.5272
1022.578, 959.2626
1023.060, 964.8214
1023.542, 976.3137
1024.024, 981.4402
1024.506, 976.2809
1024.988, 975.7809
1025.470, 991.5867
1025.952, 1002.493
1026.435, 995.0157
1026.917, 984.6537
1027.399, 985.1749
1027.881, 992.1387
1028.363, 993.1224
1028.845, 985.0042
1029.327, 984.4822
1029.809, 1005.860
1030.292, 1019.530
1030.774, 1009.009
1031.256, 996.8851
1031.738, 999.3040
1032.220, 1010.511
1032.702, 1020.488
1033.184, 1028.720
1033.666, 1032.428
1034.148, 1024.341
1034.630, 1021.925
1035.113, 1034.742
1035.595, 1046.595
1036.077, 1042.585
1036.559, 1035.205
1037.041, 1046.651
1037.523, 1078.061
1038.005, 1096.337
1038.487, 1091.832
1038.970, 1089.370
1039.452, 1091.559
1039.934, 1094.393
1040.416, 1094.536
1040.898, 1095.798
1041.380, 1103.717
1041.862, 1117.531
1042.344, 1128.827
1042.826, 1135.260
1043.309, 1144.283
1043.791, 1157.595
1044.273, 1170.759
1044.755, 1181.869
1045.237, 1192.672
1045.719, 1204.554
1046.201, 1217.834
1046.683, 1234.799
1047.166, 1258.872
1047.648, 1274.806
1048.130, 1279.840
1048.612, 1284.798
1049.094, 1293.622
1049.576, 1301.034
1050.058, 1301.093
1050.540, 1298.391
1051.022, 1307.414
1051.505, 1330.646
1051.987, 1339.526
1052.469, 1331.749
1052.951, 1324.490
1053.433, 1322.771
1053.915, 1315.664
1054.397, 1294.488
1054.879, 1267.461
1055.361, 1249.139
1055.844, 1239.077
1056.326, 1233.122
1056.808, 1231.196
1057.290, 1225.148
1057.772, 1213.593
1058.254, 1196.422
1058.736, 1173.224
1059.218, 1149.085
1059.701, 1132.466
1060.183, 1119.061
1060.665, 1090.323
1061.147, 1050.518
1061.629, 1023.597
1062.111, 1011.566
1062.593, 1008.276
1063.075, 1010.817
1063.557, 1011.369
1064.040, 1002.034
1064.522, 986.8516
1065.004, 970.5856
1065.486, 955.2960
1065.968, 949.2039
1066.450, 948.9251
1066.932, 939.6563
1067.414, 918.9698
1067.896, 900.3280
1068.379, 893.0375
1068.861, 891.1915
1069.343, 891.1923
1069.825, 890.1855
1070.307, 882.2209
1070.789, 870.8962
1071.271, 864.8899
1071.753, 863.6929
1072.236, 857.5344
1072.718, 840.8250
1073.200, 827.0110
1073.682, 828.7682
1074.164, 834.2745
1074.646, 833.3039
1075.128, 830.5113
1075.610, 831.4427
1076.093, 836.0756
1076.575, 843.8617
1077.057, 854.9353
1077.539, 860.2695
1078.021, 854.2040
1078.503, 843.8121
1078.985, 827.1524
1079.467, 812.4797
1079.949, 804.7865
1080.432, 804.0522
1080.914, 813.0195
1081.396, 830.8763
1081.878, 839.4531
1082.360, 824.8371
1082.842, 817.1566
1083.324, 829.5530
1083.806, 839.4625
1084.288, 833.5858
1084.771, 822.4861
1085.253, 816.7834
1085.735, 815.9671
1086.217, 817.9293
1086.699, 827.3159
1087.181, 826.4457
1087.663, 808.1586
1088.145, 794.1072
1088.628, 790.2563
1089.110, 791.5842
1089.592, 795.7883
1090.074, 801.1475
1090.556, 804.5329
1091.038, 806.1099
1091.520, 799.0676
1092.002, 780.6484
1092.484, 772.6562
1092.967, 779.8764
1093.449, 790.0876
1093.931, 798.1223
1094.413, 800.1926
1094.895, 788.8599
1095.377, 770.8133
1095.859, 774.6420
1096.341, 796.5001
1096.823, 805.7150
1097.306, 800.8433
1097.788, 794.1270
1098.270, 789.7557
1098.752, 787.5235
1099.234, 787.7709
1099.716, 788.0243
1100.198, 782.2144
1100.680, 774.8710
1101.163, 777.4359
1101.645, 785.8340
1102.127, 787.2881
1102.609, 781.9653
1103.091, 782.3563
1103.573, 794.6963
1104.055, 806.2104
1104.537, 803.8804
1105.020, 798.5505
1105.502, 802.2162
1105.984, 807.1265
1106.466, 802.3030
1106.948, 791.0961
1107.430, 781.5619
1107.912, 775.7855
1108.394, 775.3104
1108.876, 786.4115
1109.359, 794.3549
1109.841, 792.9140
1110.323, 787.4926
1110.805, 777.1422
1111.287, 767.6017
1111.769, 766.2943
1112.251, 772.2119
1112.733, 778.5881
1113.215, 787.5365
1113.698, 790.0427
1114.180, 780.0565
1114.662, 773.0109
1115.144, 774.5338
1115.626, 776.6624
1116.108, 773.4536
1116.590, 767.9660
1117.072, 765.8748
1117.555, 767.1947
1118.037, 769.5445
1118.519, 773.4993
1119.001, 775.2844
1119.483, 774.4485
1119.965, 770.7764
1120.447, 763.5587
1120.929, 757.9409
1121.411, 759.8521
1121.894, 765.7827
1122.376, 766.2634
1122.858, 762.4557
1123.340, 760.1685
1123.822, 759.5177
1124.304, 759.3010
1124.786, 759.3824
1125.268, 761.7090
1125.750, 767.6464
1126.233, 771.7986
1126.715, 764.9921
1127.197, 755.4049
1127.679, 753.9603
1128.161, 757.8502
1128.643, 765.2187
1129.125, 773.0806
1129.607, 774.6559
1130.090, 768.8835
1130.572, 764.1187
1131.054, 765.3829
1131.536, 767.1492
1132.018, 768.4111
1132.500, 767.1281
1132.982, 757.8932
1133.464, 748.2291
1133.947, 749.1111
1134.429, 757.8978
1134.911, 760.6806
1135.393, 752.0287
1135.875, 750.3419
1136.357, 767.3729
1136.839, 775.7535
1137.321, 764.2913
1137.803, 752.9710
1138.286, 754.6732
1138.768, 760.9812
1139.250, 758.6196
1139.732, 749.1104
1140.214, 747.7239
1140.696, 755.9368
1141.178, 761.0780
1141.660, 762.3212
1142.142, 760.1947
1142.625, 754.6799
1143.107, 748.9315
1143.589, 745.3062
1144.071, 743.3715
1144.553, 741.5352
1145.035, 741.0250
1145.517, 749.2291
1145.999, 761.4037
1146.482, 760.2241
1146.964, 747.2989
1147.446, 739.0090
1147.928, 741.4346
1148.410, 747.7756
1148.892, 754.7878
1149.374, 760.6302
1149.856, 763.2034
1150.339, 764.1729
1150.821, 764.5776
1151.303, 764.8723
1151.785, 766.0456
1152.267, 767.6216
1152.749, 767.4101
1153.231, 764.6852
1153.713, 760.9484
1154.195, 754.0574
1154.677, 749.6172
1155.160, 751.9003
1155.642, 754.2032
1156.124, 750.0210
1156.606, 745.4278
1157.088, 751.1007
1157.570, 765.4841
1158.052, 769.6744
1158.534, 761.5514
1159.017, 751.9047
1159.499, 740.1285
1159.981, 733.7383
1160.463, 735.0917
1160.945, 742.2716
1161.427, 754.8364
1161.909, 767.6191
1162.391, 770.9415
1162.874, 767.8078
1163.356, 769.3037
1163.838, 772.9947
1164.320, 769.4008
1164.802, 759.8561
1165.284, 754.2386
1165.766, 755.3214
1166.248, 756.7633
1166.730, 753.7010
1167.213, 751.2686
1167.695, 756.7385
1168.177, 761.5646
1168.659, 754.1215
1169.141, 744.3669
1169.623, 747.1069
1170.105, 758.6254
1170.587, 764.6310
1171.069, 762.0901
1171.552, 758.5214
1172.034, 752.8755
1172.516, 749.9094
1172.998, 753.3457
1173.480, 754.9722
1173.962, 748.5531
1174.444, 742.9357
1174.926, 749.0111
1175.409, 762.0430
1175.891, 764.5845
1176.373, 755.5637
1176.855, 752.6270
1177.337, 756.0226
1177.819, 751.1229
1178.301, 735.6142
1178.783, 728.8408
1179.266, 740.2358
1179.748, 756.0814
1180.230, 762.2750
1180.712, 763.3393
1181.194, 766.3497
1181.676, 769.4400
1182.158, 769.1238
1182.640, 766.3601
1183.122, 763.0205
1183.604, 759.7783
1184.087, 757.3970
1184.569, 756.2592
1185.051, 755.2318
1185.533, 753.0603
1186.015, 751.8976
1186.497, 753.8612
1186.979, 755.8524
1187.461, 752.1605
1187.944, 749.6210
1188.426, 763.8226
1188.908, 789.1172
1189.390, 788.1464
1189.872, 747.3722
1190.354, 729.7678
1190.836, 740.6193
1191.318, 751.5787
1191.801, 756.7399
1192.283, 759.1752
1192.765, 760.3058
1193.247, 762.1461
1193.729, 768.5905
1194.211, 775.4964
1194.693, 769.8882
1195.175, 757.5881
1195.657, 754.7830
1196.140, 759.2635
1196.622, 763.1116
1197.104, 763.7491
1197.586, 758.1879
1198.068, 744.1917
1198.550, 733.6675
1199.032, 736.0915
1199.514, 741.5050
1199.996, 746.2852
1200.479, 749.6870
1200.961, 748.2238
1201.443, 746.8974
1201.925, 756.3331
1202.407, 774.0768
1202.889, 779.1030
1203.371, 766.5165
1203.853, 756.2311
1204.336, 747.5458
1204.818, 744.3116
1205.300, 748.8155
1205.782, 751.1591
1206.264, 745.3651
1206.746, 739.6711
1207.228, 744.8345
1207.710, 755.4086
1208.193, 756.2793
1208.675, 751.8165
1209.157, 757.0743
1209.639, 767.8419
1210.121, 769.2316
1210.603, 760.6187
1211.085, 750.5969
1211.567, 742.4075
1212.049, 740.2916
1212.531, 752.5027
1213.014, 763.7682
1213.496, 768.6367
1213.978, 766.8457
1214.460, 750.0182
1214.942, 732.4056
1215.424, 735.3988
1215.906, 752.4557
1216.388, 756.3486
1216.871, 742.9977
1217.353, 743.3802
1217.835, 763.0577
1218.317, 772.0021
1218.799, 764.7574
1219.281, 755.4689
1219.763, 749.7695
1220.245, 746.7909
1220.728, 746.3218
1221.210, 745.5914
1221.692, 735.6636
1222.174, 724.4186
1222.656, 733.9836
1223.138, 752.2037
1223.620, 750.9818
1224.102, 734.7385
1224.584, 725.5824
1225.067, 729.1022
1225.549, 735.8181
1226.031, 744.8889
1226.513, 750.2478
1226.995, 748.2274
1227.477, 744.1915
1227.959, 738.6416
1228.441, 733.7278
1228.923, 728.5940
1229.406, 727.5560
1229.888, 741.2169
1230.370, 766.6471
1230.852, 766.9006
1231.334, 740.4106
1231.816, 729.9143
1232.298, 737.3021
1232.780, 745.1008
1233.263, 748.4830
1233.745, 746.9042
1234.227, 739.8492
1234.709, 733.4121
1235.191, 736.2983
1235.673, 740.3029
1236.155, 735.0642
1236.637, 727.1301
1237.120, 720.1923
1237.602, 718.0656
1238.084, 731.8353
1238.566, 755.5191
##END=



