##NAMES=Pyrochlore
##RRUFFID=R070742
##IDEAL CHEMISTRY=Ca_2_Nb_2_O_7_
##LOCALITY=Alakurtti pegmatite, North Karelia, Murmanskaja Oblast', Northern Region, Russia
##OWNER=RRUFF
##SOURCE=Michael Scott
##DESCRIPTION=Vitreous brown metamict fragments
##STATUS=The identification of this mineral has been made only by X-ray diffraction.
##URL=rruff.info/R070742
204.0156, 11730.72
204.4977, 11741.90
204.9798, 11760.06
205.4619, 11787.44
205.9440, 11800.26
206.4262, 11790.86
206.9083, 11771.04
207.3904, 11776.42
207.8725, 11818.61
208.3546, 11853.35
208.8367, 11849.12
209.3189, 11793.45
209.8010, 11751.13
210.2831, 11730.90
210.7652, 11727.54
211.2473, 11717.21
211.7294, 11696.80
212.2116, 11676.19
212.6937, 11663.91
213.1758, 11662.91
213.6579, 11662.52
214.1400, 11665.23
214.6221, 11670.00
215.1043, 11652.82
215.5864, 11599.28
216.0685, 11545.15
216.5506, 11531.88
217.0327, 11580.75
217.5148, 11615.61
217.9970, 11613.95
218.4791, 11572.50
218.9612, 11548.82
219.4433, 11549.98
219.9254, 11561.26
220.4075, 11563.41
220.8897, 11552.12
221.3718, 11539.10
221.8539, 11526.22
222.3360, 11511.19
222.8181, 11505.42
223.3002, 11511.65
223.7824, 11525.22
224.2645, 11536.60
224.7466, 11540.22
225.2287, 11551.88
225.7108, 11584.36
226.1929, 11660.72
226.6750, 11691.80
227.1572, 11658.15
227.6393, 11585.17
228.1214, 11537.25
228.6035, 11523.35
229.0856, 11521.96
229.5677, 11524.34
230.0499, 11533.46
230.5320, 11539.15
231.0141, 11539.62
231.4962, 11536.09
231.9783, 11532.76
232.4604, 11525.08
232.9426, 11523.24
233.4247, 11536.41
233.9068, 11580.60
234.3889, 11606.37
234.8710, 11607.20
235.3531, 11584.83
235.8353, 11552.23
236.3174, 11497.97
236.7995, 11446.79
237.2816, 11418.60
237.7637, 11425.23
238.2458, 11432.50
238.7280, 11436.21
239.2101, 11436.43
239.6922, 11435.08
240.1743, 11428.16
240.6564, 11423.56
241.1385, 11430.35
241.6207, 11460.49
242.1028, 11480.34
242.5849, 11481.41
243.0670, 11462.00
243.5491, 11443.36
244.0313, 11421.05
244.5134, 11403.16
244.9955, 11402.22
245.4776, 11436.87
245.9597, 11455.80
246.4418, 11441.28
246.9240, 11384.68
247.4061, 11345.12
247.8882, 11327.24
248.3703, 11323.50
248.8524, 11325.42
249.3345, 11341.42
249.8167, 11348.25
250.2988, 11334.77
250.7809, 11290.96
251.2630, 11267.97
251.7451, 11278.11
252.2272, 11301.74
252.7094, 11301.44
253.1915, 11261.20
253.6736, 11223.92
254.1557, 11206.90
254.6378, 11218.86
255.1199, 11223.02
255.6021, 11216.40
256.0842, 11203.40
256.5663, 11193.15
257.0484, 11185.18
257.5305, 11180.88
258.0126, 11181.95
258.4948, 11191.94
258.9769, 11198.08
259.4590, 11200.78
259.9411, 11199.70
260.4232, 11193.29
260.9053, 11180.13
261.3875, 11164.51
261.8696, 11149.46
262.3517, 11138.29
262.8338, 11115.96
263.3159, 11071.94
263.7980, 11018.54
264.2802, 11005.01
264.7623, 11051.32
265.2444, 11096.94
265.7265, 11099.49
266.2086, 11040.74
266.6907, 11006.57
267.1729, 11013.29
267.6550, 11047.96
268.1371, 11061.19
268.6192, 11047.57
269.1013, 11023.71
269.5834, 10999.57
270.0656, 10975.23
270.5477, 10951.49
271.0298, 10928.70
271.5119, 10906.86
271.9940, 10884.06
272.4761, 10858.45
272.9583, 10837.55
273.4404, 10828.77
273.9225, 10834.76
274.4046, 10840.58
274.8867, 10848.06
275.3688, 10853.48
275.8510, 10836.24
276.3331, 10791.50
276.8152, 10739.20
277.2973, 10692.36
277.7794, 10650.14
278.2615, 10621.83
278.7437, 10612.04
279.2258, 10617.13
279.7079, 10620.41
280.1900, 10621.04
280.6721, 10623.36
281.1542, 10640.47
281.6364, 10674.26
282.1185, 10676.00
282.6006, 10621.46
283.0827, 10529.66
283.5648, 10479.87
284.0469, 10476.97
284.5291, 10490.91
285.0112, 10492.32
285.4933, 10481.82
285.9754, 10482.48
286.4575, 10511.00
286.9396, 10552.06
287.4217, 10544.49
287.9038, 10482.71
288.3860, 10410.97
288.8681, 10374.29
289.3502, 10369.17
289.8323, 10361.95
290.3144, 10339.82
290.7965, 10309.84
291.2787, 10292.69
291.7608, 10288.91
292.2429, 10291.25
292.7250, 10297.44
293.2071, 10305.61
293.6892, 10305.72
294.1714, 10292.11
294.6535, 10269.90
295.1356, 10249.38
295.6177, 10230.78
296.0998, 10212.74
296.5819, 10192.90
297.0641, 10172.29
297.5462, 10154.53
298.0283, 10144.68
298.5104, 10136.60
298.9925, 10118.75
299.4746, 10090.97
299.9568, 10060.24
300.4389, 10024.37
300.9210, 9989.565
301.4031, 9969.784
301.8852, 9978.315
302.3673, 9999.559
302.8495, 10016.70
303.3316, 10029.33
303.8137, 10034.71
304.2958, 10020.90
304.7779, 9998.808
305.2600, 9988.490
305.7422, 10018.19
306.2243, 10049.60
306.7064, 10035.92
307.1885, 9979.368
307.6706, 9926.646
308.1527, 9921.117
308.6349, 9937.649
309.1170, 9941.539
309.5991, 9902.946
310.0812, 9859.815
310.5633, 9844.010
311.0454, 9853.861
311.5276, 9861.284
312.0097, 9842.395
312.4918, 9814.451
312.9739, 9796.481
313.4560, 9819.371
313.9381, 9834.264
314.4203, 9800.784
314.9024, 9723.394
315.3845, 9664.313
315.8666, 9664.817
316.3487, 9692.155
316.8308, 9715.377
317.3130, 9730.836
317.7951, 9735.157
318.2772, 9723.150
318.7593, 9696.006
319.2414, 9667.143
319.7235, 9633.366
320.2057, 9603.578
320.6878, 9584.856
321.1699, 9576.969
321.6520, 9582.375
322.1341, 9616.960
322.6162, 9675.588
323.0984, 9704.625
323.5805, 9667.084
324.0626, 9612.544
324.5447, 9574.454
325.0268, 9561.260
325.5089, 9560.279
325.9911, 9579.683
326.4732, 9616.008
326.9553, 9635.311
327.4374, 9616.479
327.9195, 9592.452
328.4016, 9582.353
328.8838, 9615.392
329.3659, 9624.803
329.8480, 9592.082
330.3301, 9526.188
330.8122, 9483.870
331.2943, 9477.595
331.7765, 9481.876
332.2586, 9482.980
332.7407, 9479.295
333.2228, 9475.590
333.7049, 9473.259
334.1870, 9471.371
334.6692, 9465.812
335.1513, 9456.652
335.6334, 9444.136
336.1155, 9427.029
336.5976, 9401.553
337.0797, 9383.747
337.5619, 9376.373
338.0440, 9376.431
338.5261, 9377.457
339.0082, 9381.817
339.4903, 9379.735
339.9724, 9363.434
340.4546, 9330.705
340.9367, 9300.785
341.4188, 9273.827
341.9009, 9250.760
342.3830, 9235.402
342.8651, 9228.938
343.3473, 9221.172
343.8294, 9204.104
344.3115, 9179.052
344.7936, 9162.140
345.2757, 9154.090
345.7578, 9154.974
346.2400, 9172.636
346.7221, 9205.339
347.2042, 9226.443
347.6863, 9212.950
348.1684, 9176.238
348.6505, 9153.365
349.1327, 9146.279
349.6148, 9149.049
350.0969, 9156.701
350.5790, 9168.379
351.0611, 9181.536
351.5432, 9205.756
352.0254, 9226.772
352.5075, 9217.935
352.9896, 9176.086
353.4717, 9125.484
353.9538, 9080.842
354.4359, 9044.017
354.9181, 9020.104
355.4002, 9022.720
355.8823, 9032.506
356.3644, 9028.184
356.8465, 9009.456
357.3286, 8997.291
357.8108, 9017.090
358.2929, 9048.568
358.7750, 9065.516
359.2571, 9049.508
359.7392, 9023.963
360.2213, 8995.729
360.7035, 8965.878
361.1856, 8947.190
361.6677, 8959.727
362.1498, 8978.828
362.6319, 8983.237
363.1140, 8946.330
363.5962, 8915.044
364.0783, 8908.427
364.5604, 8922.483
365.0425, 8928.913
365.5246, 8921.428
366.0067, 8904.080
366.4889, 8879.524
366.9710, 8816.536
367.4531, 8782.983
367.9352, 8809.475
368.4173, 8878.004
368.8994, 8908.219
369.3815, 8865.333
369.8636, 8813.118
370.3458, 8778.455
370.8279, 8763.212
371.3100, 8762.843
371.7921, 8787.457
372.2742, 8824.684
372.7563, 8843.145
373.2385, 8833.884
373.7206, 8820.118
374.2027, 8810.493
374.6848, 8805.586
375.1669, 8802.946
375.6490, 8804.694
376.1312, 8806.432
376.6133, 8798.741
377.0954, 8778.184
377.5775, 8762.222
378.0596, 8759.660
378.5417, 8770.056
379.0239, 8772.479
379.5060, 8763.599
379.9881, 8756.859
380.4702, 8778.063
380.9523, 8825.811
381.4344, 8854.375
381.9166, 8840.998
382.3987, 8798.782
382.8808, 8765.403
383.3629, 8741.301
383.8450, 8721.734
384.3271, 8699.114
384.8093, 8676.849
385.2914, 8667.558
385.7735, 8682.941
386.2556, 8705.354
386.7377, 8710.580
387.2198, 8699.952
387.7020, 8683.436
388.1841, 8659.083
388.6662, 8636.241
389.1483, 8629.948
389.6304, 8656.565
390.1125, 8680.486
390.5947, 8667.285
391.0768, 8628.040
391.5589, 8597.313
392.0410, 8607.776
392.5231, 8624.156
393.0052, 8602.938
393.4874, 8618.084
393.9695, 8624.844
394.4516, 8623.666
394.9337, 8590.778
395.4158, 8598.838
395.8979, 8590.487
396.3801, 8581.463
396.8622, 8595.285
397.3443, 8567.009
397.8264, 8580.470
398.3085, 8577.270
398.7906, 8581.695
399.2728, 8569.608
399.7549, 8562.621
400.2370, 8572.152
400.7191, 8572.537
401.2012, 8558.550
401.6833, 8563.460
402.1655, 8534.606
402.6476, 8535.381
403.1297, 8548.938
403.6118, 8535.782
404.0939, 8540.994
404.5760, 8516.430
405.0582, 8529.145
405.5403, 8520.006
406.0224, 8480.598
406.5045, 8443.903
406.9866, 8438.997
407.4688, 8468.409
407.9509, 8479.804
408.4330, 8461.583
408.9151, 8431.001
409.3972, 8426.710
409.8793, 8448.738
410.3615, 8472.344
410.8436, 8486.707
411.3257, 8491.842
411.8078, 8485.499
412.2899, 8465.860
412.7720, 8442.777
413.2542, 8426.393
413.7363, 8416.154
414.2184, 8410.052
414.7005, 8405.903
415.1826, 8406.162
415.6647, 8417.174
416.1469, 8439.143
416.6290, 8458.135
417.1111, 8461.921
417.5932, 8456.971
418.0753, 8451.719
418.5574, 8452.368
419.0396, 8450.188
419.5217, 8433.194
420.0038, 8405.388
420.4859, 8392.604
420.9680, 8434.972
421.4501, 8477.920
421.9323, 8481.664
422.4144, 8395.855
422.8965, 8331.134
423.3786, 8315.421
423.8607, 8335.758
424.3428, 8353.962
424.8250, 8372.219
425.3071, 8383.842
425.7892, 8384.813
426.2713, 8367.706
426.7534, 8360.648
427.2355, 8368.749
427.7177, 8383.581
428.1998, 8393.191
428.6819, 8397.084
429.1640, 8395.662
429.6461, 8386.184
430.1282, 8368.825
430.6104, 8358.355
431.0925, 8354.217
431.5746, 8357.376
432.0567, 8374.372
432.5388, 8405.784
433.0209, 8424.756
433.5031, 8425.852
433.9852, 8410.891
434.4673, 8374.720
434.9494, 8318.342
435.4315, 8273.470
435.9136, 8274.491
436.3958, 8305.081
436.8779, 8323.038
437.3600, 8320.718
437.8421, 8309.629
438.3242, 8297.725
438.8063, 8286.669
439.2885, 8280.951
439.7706, 8290.285
440.2527, 8301.582
440.7348, 8298.868
441.2169, 8278.860
441.6990, 8266.249
442.1812, 8283.106
442.6633, 8312.097
443.1454, 8332.791
443.6275, 8338.738
444.1096, 8335.092
444.5917, 8315.935
445.0739, 8283.213
445.5560, 8264.007
446.0381, 8281.009
446.5202, 8301.382
447.0023, 8305.785
447.4844, 8269.678
447.9666, 8248.053
448.4487, 8250.795
448.9308, 8267.684
449.4129, 8269.358
449.8950, 8243.775
450.3771, 8223.208
450.8593, 8224.992
451.3413, 8256.806
451.8235, 8263.646
452.3056, 8236.809
452.7877, 8198.889
453.2698, 8179.354
453.7519, 8179.380
454.2340, 8186.176
454.7162, 8199.409
455.1983, 8215.721
455.6804, 8222.006
456.1625, 8217.737
456.6446, 8212.046
457.1267, 8216.664
457.6089, 8226.132
458.0910, 8222.970
458.5731, 8196.411
459.0552, 8169.117
459.5373, 8173.635
460.0194, 8201.677
460.5016, 8225.871
460.9837, 8224.891
461.4658, 8216.293
461.9479, 8218.494
462.4300, 8236.904
462.9121, 8247.516
463.3943, 8224.637
463.8764, 8168.892
464.3585, 8192.366
464.8406, 8204.506
465.3227, 8205.920
465.8048, 8164.482
466.2870, 8178.377
466.7691, 8170.098
467.2512, 8160.910
467.7333, 8182.593
468.2154, 8147.388
468.6975, 8168.583
469.1797, 8167.263
469.6618, 8176.247
470.1439, 8162.919
470.6260, 8156.483
471.1081, 8172.367
471.5902, 8175.891
472.0724, 8159.995
472.5545, 8169.634
473.0366, 8133.650
473.5187, 8137.701
474.0008, 8159.026
474.4829, 8144.251
474.9651, 8154.298
475.4472, 8154.892
475.9293, 8112.524
476.4114, 8144.872
476.8935, 8144.907
477.3756, 8111.765
477.8578, 8141.551
478.3399, 8112.983
478.8220, 8105.245
479.3041, 8113.181
479.7862, 8104.776
480.2683, 8122.135
480.7505, 8114.674
481.2326, 8104.996
481.7147, 8104.995
482.1968, 8077.571
482.6789, 8101.022
483.1610, 8089.721
483.6432, 8095.694
484.1253, 8105.583
484.6074, 8085.492
485.0895, 8097.140
485.5716, 8059.567
486.0537, 8063.180
486.5359, 8062.356
487.0180, 8087.858
487.5001, 8050.526
487.9822, 8052.994
488.4643, 8072.408
488.9464, 8068.111
489.4286, 8073.727
489.9107, 8049.993
490.3928, 8053.832
490.8749, 8050.070
491.3570, 8072.571
491.8391, 8074.339
492.3213, 8078.793
492.8034, 8101.629
493.2855, 8104.072
493.7676, 8091.736
494.2497, 8074.542
494.7318, 8052.922
495.2140, 8035.804
495.6961, 8037.165
496.1782, 8046.766
496.6603, 8044.824
497.1424, 8020.710
497.6245, 7998.351
498.1067, 7997.704
498.5888, 8012.947
499.0709, 8030.499
499.5530, 8042.115
500.0351, 8055.911
500.5172, 8082.949
500.9994, 8127.813
501.4815, 8150.101
501.9636, 8118.758
502.4457, 8071.643
502.9278, 8042.892
503.4099, 8042.397
503.8921, 8051.359
504.3742, 8077.907
504.8563, 8114.261
505.3384, 8125.482
505.8205, 8101.563
506.3026, 8072.668
506.7848, 8052.489
507.2669, 8041.773
507.7490, 8035.498
508.2311, 8034.188
508.7132, 8036.701
509.1953, 8044.207
509.6775, 8055.830
510.1596, 8061.660
510.6417, 8055.416
511.1238, 8042.929
511.6059, 8031.599
512.0880, 8022.001
512.5701, 8022.933
513.0522, 8054.347
513.5344, 8094.152
514.0165, 8112.239
514.4986, 8097.213
514.9807, 8077.774
515.4628, 8068.656
515.9449, 8067.672
516.4271, 8071.181
516.9092, 8090.652
517.3913, 8102.813
517.8734, 8092.294
518.3555, 8057.522
518.8376, 8038.625
519.3198, 8060.187
519.8019, 8084.952
520.2840, 8090.007
520.7661, 8064.188
521.2482, 8040.065
521.7303, 8016.438
522.2125, 7996.595
522.6946, 7989.238
523.1767, 7996.170
523.6588, 8007.399
524.1409, 8021.876
524.6230, 8038.024
525.1052, 8042.776
525.5873, 8034.437
526.0694, 8028.202
526.5515, 8045.076
527.0336, 8076.521
527.5157, 8097.575
527.9979, 8100.224
528.4800, 8093.351
528.9621, 8077.425
529.4442, 8058.178
529.9263, 8052.055
530.4084, 8085.170
530.8906, 8121.896
531.3727, 8134.110
531.8548, 8116.260
532.3369, 8101.527
532.8190, 8103.600
533.3011, 8112.244
533.7833, 8118.113
534.2654, 8114.211
534.7475, 8114.376
535.2296, 8122.581
535.7117, 8135.872
536.1938, 8143.293
536.6760, 8141.062
537.1581, 8140.458
537.6402, 8148.461
538.1223, 8166.480
538.6044, 8172.881
539.0865, 8143.479
539.5687, 8173.867
540.0508, 8192.918
540.5329, 8201.243
541.0150, 8166.718
541.4971, 8187.525
541.9792, 8186.158
542.4614, 8183.883
542.9435, 8212.478
543.4256, 8184.185
543.9077, 8212.292
544.3898, 8217.884
544.8719, 8233.780
545.3541, 8227.366
545.8362, 8227.842
546.3183, 8250.638
546.8004, 8261.074
547.2825, 8252.090
547.7646, 8268.642
548.2468, 8239.571
548.7289, 8250.534
549.2110, 8278.771
549.6931, 8270.909
550.1752, 8287.868
550.6573, 8295.375
551.1395, 8259.921
551.6216, 8299.180
552.1037, 8306.127
552.5858, 8279.898
553.0679, 8316.597
553.5500, 8294.941
554.0322, 8366.462
554.5143, 8410.629
554.9964, 8411.235
555.4785, 8389.854
555.9606, 8383.603
556.4427, 8390.423
556.9249, 8399.276
557.4070, 8405.041
557.8891, 8408.388
558.3712, 8408.457
558.8533, 8404.448
559.3354, 8403.806
559.8176, 8413.868
560.2997, 8427.754
560.7818, 8438.445
561.2639, 8440.461
561.7460, 8442.807
562.2281, 8443.594
562.7103, 8445.362
563.1924, 8458.209
563.6745, 8496.941
564.1566, 8526.659
564.6387, 8529.165
565.1208, 8499.193
565.6030, 8498.996
566.0851, 8538.936
566.5672, 8585.095
567.0493, 8601.619
567.5314, 8589.703
568.0135, 8579.189
568.4957, 8577.704
568.9778, 8576.724
569.4599, 8554.655
569.9420, 8518.021
570.4241, 8495.309
570.9063, 8513.034
571.3884, 8544.952
571.8705, 8564.337
572.3526, 8569.848
572.8347, 8576.390
573.3168, 8594.925
573.7990, 8615.992
574.2811, 8631.246
574.7632, 8634.836
575.2453, 8638.687
575.7274, 8647.917
576.2095, 8658.077
576.6917, 8659.903
577.1738, 8648.759
577.6559, 8636.479
578.1380, 8623.713
578.6201, 8611.142
579.1022, 8610.834
579.5844, 8623.502
580.0665, 8645.537
580.5486, 8681.374
581.0307, 8727.554
581.5128, 8755.981
581.9949, 8761.343
582.4771, 8756.241
582.9592, 8750.890
583.4413, 8747.070
583.9234, 8749.178
584.4055, 8765.969
584.8876, 8784.017
585.3698, 8792.336
585.8519, 8792.533
586.3340, 8793.382
586.8161, 8783.406
587.2982, 8786.598
587.7803, 8823.558
588.2625, 8924.139
588.7446, 8984.720
589.2267, 8980.136
589.7088, 8948.336
590.1909, 8927.777
590.6730, 8918.840
591.1552, 8921.456
591.6373, 8939.375
592.1194, 8966.513
592.6015, 8984.958
593.0836, 8994.327
593.5657, 9000.820
594.0479, 9006.945
594.5300, 9012.755
595.0121, 9022.933
595.4942, 9038.019
595.9763, 9040.332
596.4584, 8990.288
596.9406, 8927.256
597.4227, 8905.639
597.9048, 8964.199
598.3869, 9022.197
598.8690, 9040.931
599.3511, 9033.202
599.8333, 9024.428
600.3154, 9005.207
600.7975, 9001.664
601.2796, 9033.124
601.7617, 9098.112
602.2438, 9120.601
602.7260, 9078.347
603.2081, 9032.825
603.6902, 9029.821
604.1723, 9074.573
604.6544, 9090.176
605.1365, 9065.793
605.6187, 9034.276
606.1008, 9045.544
606.5829, 9089.630
607.0650, 9125.043
607.5471, 9139.660
608.0292, 9138.164
608.5114, 9111.015
608.9935, 9068.539
609.4756, 9047.265
609.9577, 9089.653
610.4398, 9141.460
610.9219, 9167.819
611.4041, 9162.322
611.8862, 9157.199
612.3683, 9149.218
612.8504, 9150.200
613.3325, 9170.666
613.8146, 9231.811
614.2968, 9269.982
614.7789, 9275.789
615.2610, 9262.848
615.7431, 9255.725
616.2252, 9254.571
616.7073, 9257.514
617.1895, 9263.238
617.6716, 9272.950
618.1537, 9297.744
618.6358, 9335.704
619.1179, 9358.310
619.6000, 9330.926
620.0822, 9283.489
620.5643, 9252.089
621.0464, 9242.244
621.5285, 9241.517
622.0106, 9243.006
622.4927, 9250.142
622.9749, 9266.635
623.4570, 9319.604
623.9391, 9350.246
624.4212, 9335.051
624.9033, 9293.644
625.3854, 9276.282
625.8676, 9291.118
626.3497, 9313.042
626.8318, 9339.803
627.3139, 9368.488
627.7960, 9362.622
628.2781, 9317.387
628.7603, 9276.737
629.2424, 9283.752
629.7245, 9322.796
630.2066, 9354.207
630.6887, 9372.723
631.1708, 9384.008
631.6530, 9391.030
632.1351, 9394.634
632.6172, 9396.107
633.0993, 9391.814
633.5814, 9389.878
634.0635, 9396.047
634.5457, 9407.670
635.0278, 9414.434
635.5099, 9415.608
635.9920, 9410.928
636.4741, 9393.109
636.9562, 9359.535
637.4384, 9371.382
637.9205, 9449.219
638.4026, 9516.305
638.8847, 9484.176
639.3668, 9368.076
639.8489, 9323.578
640.3311, 9382.347
640.8132, 9460.359
641.2953, 9445.770
641.7774, 9375.693
642.2595, 9331.527
642.7416, 9363.646
643.2238, 9412.213
643.7059, 9452.191
644.1880, 9479.769
644.6701, 9483.378
645.1522, 9422.648
645.6343, 9370.691
646.1165, 9362.149
646.5986, 9401.560
647.0807, 9436.815
647.5628, 9474.419
648.0449, 9499.103
648.5270, 9492.031
649.0092, 9449.253
649.4913, 9428.490
649.9734, 9436.023
650.4555, 9459.636
650.9376, 9487.330
651.4197, 9517.898
651.9019, 9547.978
652.3840, 9590.442
652.8661, 9614.705
653.3482, 9571.322
653.8303, 9482.250
654.3124, 9414.856
654.7946, 9400.825
655.2767, 9411.391
655.7588, 9441.855
656.2409, 9494.798
656.7230, 9526.658
657.2051, 9526.712
657.6872, 9515.394
658.1693, 9502.729
658.6514, 9487.013
659.1335, 9479.788
659.6157, 9484.319
660.0978, 9491.049
660.5799, 9486.544
661.0620, 9472.733
661.5441, 9458.480
662.0262, 9443.201
662.5084, 9433.758
662.9905, 9450.022
663.4726, 9480.001
663.9547, 9490.998
664.4368, 9439.884
664.9189, 9389.576
665.4011, 9377.052
665.8832, 9402.032
666.3653, 9423.576
666.8474, 9434.175
667.3295, 9439.847
667.8116, 9442.966
668.2938, 9443.706
668.7759, 9438.624
669.2580, 9424.591
669.7401, 9411.598
670.2222, 9413.390
670.7043, 9428.335
671.1865, 9438.034
671.6686, 9438.470
672.1507, 9435.101
672.6328, 9437.151
673.1149, 9441.039
673.5970, 9437.872
674.0792, 9418.656
674.5613, 9396.364
675.0434, 9374.258
675.5255, 9354.085
676.0076, 9343.679
676.4897, 9350.618
676.9719, 9361.678
677.4540, 9373.211
677.9361, 9385.588
678.4182, 9391.753
678.9003, 9389.917
679.3824, 9384.935
679.8646, 9380.541
680.3467, 9376.468
680.8288, 9369.874
681.3109, 9359.523
681.7930, 9350.518
682.2751, 9355.465
682.7573, 9365.354
683.2394, 9360.807
683.7215, 9321.241
684.2036, 9285.375
684.6857, 9280.699
685.1678, 9296.126
685.6500, 9305.679
686.1321, 9287.655
686.6142, 9280.617
687.0963, 9304.966
687.5784, 9354.556
688.0605, 9366.673
688.5427, 9326.363
689.0248, 9286.882
689.5069, 9281.240
689.9890, 9305.822
690.4711, 9320.234
690.9532, 9323.588
691.4354, 9321.274
691.9175, 9317.475
692.3996, 9311.465
692.8817, 9301.792
693.3638, 9287.265
693.8459, 9271.526
694.3281, 9251.523
694.8102, 9233.254
695.2923, 9224.887
695.7744, 9229.474
696.2565, 9243.104
696.7386, 9270.741
697.2208, 9305.720
697.7029, 9332.567
698.1850, 9353.542
698.6671, 9357.325
699.1492, 9332.274
699.6313, 9289.185
700.1135, 9264.288
700.5956, 9257.259
701.0777, 9263.450
701.5598, 9296.728
702.0419, 9332.586
702.5240, 9335.461
703.0062, 9300.999
703.4883, 9268.434
703.9704, 9255.182
704.4525, 9252.439
704.9346, 9254.323
705.4167, 9268.703
705.8989, 9272.088
706.3810, 9259.284
706.8631, 9240.108
707.3452, 9225.162
707.8273, 9214.269
708.3094, 9210.423
708.7916, 9216.889
709.2737, 9226.103
709.7558, 9218.880
710.2379, 9200.789
710.7200, 9193.626
711.2021, 9217.526
711.6843, 9248.890
712.1664, 9267.995
712.6485, 9276.675
713.1306, 9282.806
713.6127, 9288.473
714.0948, 9292.540
714.5770, 9294.574
715.0591, 9294.649
715.5412, 9290.596
716.0233, 9279.246
716.5054, 9269.317
716.9875, 9267.509
717.4697, 9273.765
717.9518, 9280.668
718.4339, 9288.792
718.9160, 9292.267
719.3981, 9277.188
719.8802, 9254.445
720.3624, 9246.143
720.8445, 9261.349
721.3266, 9282.889
721.8087, 9310.898
722.2908, 9335.668
722.7729, 9342.302
723.2551, 9307.092
723.7372, 9277.872
724.2193, 9255.236
724.7014, 9244.045
725.1835, 9267.654
725.6656, 9340.571
726.1478, 9385.268
726.6299, 9358.407
727.1120, 9289.706
727.5941, 9275.470
728.0762, 9310.061
728.5583, 9341.382
729.0405, 9326.761
729.5226, 9297.868
730.0047, 9287.003
730.4868, 9296.572
730.9689, 9305.068
731.4510, 9300.895
731.9332, 9295.919
732.4153, 9299.460
732.8974, 9318.583
733.3795, 9325.804
733.8616, 9316.010
734.3438, 9302.616
734.8259, 9300.664
735.3080, 9309.839
735.7901, 9312.020
736.2722, 9302.543
736.7543, 9292.663
737.2365, 9299.342
737.7186, 9315.738
738.2007, 9327.916
738.6828, 9327.786
739.1649, 9326.004
739.6470, 9324.604
740.1292, 9325.567
740.6113, 9333.715
741.0934, 9359.508
741.5755, 9381.115
742.0576, 9397.591
742.5397, 9406.667
743.0219, 9389.588
743.5040, 9339.304
743.9861, 9306.726
744.4682, 9331.912
744.9503, 9390.923
745.4324, 9413.420
745.9146, 9402.986
746.3967, 9394.686
746.8788, 9423.801
747.3609, 9457.559
747.8430, 9463.507
748.3251, 9433.435
748.8073, 9415.114
749.2894, 9438.858
749.7715, 9462.938
750.2536, 9457.805
750.7357, 9404.675
751.2178, 9385.264
751.7000, 9410.050
752.1821, 9443.914
752.6642, 9438.730
753.1463, 9404.194
753.6284, 9391.207
754.1105, 9412.824
754.5927, 9445.486
755.0748, 9477.414
755.5569, 9501.974
756.0390, 9509.268
756.5211, 9468.434
757.0032, 9440.824
757.4854, 9453.682
757.9675, 9490.557
758.4496, 9513.753
758.9317, 9520.239
759.4138, 9520.060
759.8959, 9514.122
760.3781, 9504.204
760.8602, 9492.020
761.3423, 9478.395
761.8244, 9474.900
762.3065, 9488.216
762.7886, 9514.844
763.2708, 9564.002
763.7529, 9628.977
764.2350, 9667.836
764.7171, 9640.780
765.1992, 9599.904
765.6813, 9569.408
766.1635, 9551.108
766.6456, 9541.979
767.1277, 9541.995
767.6098, 9550.856
768.0919, 9575.438
768.5740, 9615.380
769.0562, 9624.979
769.5383, 9600.643
770.0204, 9572.784
770.5025, 9569.633
770.9846, 9581.879
771.4667, 9598.368
771.9489, 9621.351
772.4310, 9630.368
772.9131, 9599.318
773.3952, 9557.146
773.8773, 9533.462
774.3594, 9547.953
774.8416, 9555.242
775.3237, 9553.153
775.8058, 9545.288
776.2879, 9531.158
776.7700, 9510.695
777.2521, 9513.111
777.7343, 9554.122
778.2164, 9599.357
778.6985, 9594.125
779.1806, 9556.179
779.6627, 9525.624
780.1448, 9530.751
780.6270, 9535.276
781.1091, 9517.494
781.5912, 9486.179
782.0733, 9468.739
782.5554, 9478.219
783.0375, 9481.581
783.5197, 9410.869
784.0018, 9431.809
784.4839, 9441.411
784.9660, 9440.289
785.4481, 9396.314
785.9302, 9407.675
786.4124, 9396.857
786.8945, 9385.134
787.3766, 9404.280
787.8587, 9366.539
788.3408, 9385.196
788.8229, 9381.341
789.3051, 9387.787
789.7872, 9371.924
790.2693, 9362.951
790.7514, 9376.297
791.2335, 9377.285
791.7156, 9358.853
792.1978, 9365.954
792.6799, 9386.138
793.1620, 9366.463
793.6441, 9333.352
794.1262, 9281.771
794.6083, 9230.253
795.0905, 9212.300
795.5726, 9234.886
796.0547, 9253.227
796.5368, 9234.817
797.0189, 9209.751
797.5010, 9204.227
797.9832, 9234.487
798.4653, 9245.488
798.9474, 9231.647
799.4295, 9207.271
799.9116, 9181.084
800.3937, 9154.434
800.8759, 9149.545
801.3580, 9174.357
801.8401, 9197.367
802.3222, 9180.313
802.8043, 9141.220
803.2864, 9107.292
803.7686, 9090.329
804.2507, 9071.538
804.7328, 9039.592
805.2149, 9004.367
805.6970, 8979.396
806.1791, 8968.808
806.6613, 8959.279
807.1434, 8950.767
807.6255, 8940.093
808.1076, 8913.129
808.5897, 8875.235
809.0718, 8863.146
809.5540, 8907.611
810.0361, 8949.651
810.5182, 8918.427
811.0003, 8844.781
811.4824, 8788.922
811.9645, 8790.186
812.4467, 8789.034
812.9288, 8772.743
813.4109, 8743.841
813.8930, 8702.872
814.3751, 8641.069
814.8572, 8605.353
815.3394, 8620.934
815.8215, 8659.688
816.3036, 8656.439
816.7857, 8618.022
817.2678, 8576.897
817.7499, 8548.046
818.2321, 8522.933
818.7142, 8496.011
819.1963, 8467.601
819.6784, 8440.471
820.1605, 8403.968
820.6426, 8381.956
821.1248, 8386.276
821.6068, 8410.979
822.0889, 8424.688
822.5710, 8427.727
823.0532, 8413.505
823.5353, 8366.627
824.0174, 8304.851
824.4995, 8259.990
824.9816, 8230.518
825.4637, 8202.457
825.9459, 8155.816
826.4280, 8120.212
826.9101, 8123.862
827.3922, 8169.542
827.8743, 8176.604
828.3564, 8123.663
828.8386, 8070.500
829.3207, 8046.745
829.8028, 8048.045
830.2849, 8039.963
830.7670, 8022.655
831.2491, 8001.745
831.7313, 7982.690
832.2134, 7961.599
832.6955, 7930.982
833.1776, 7890.636
833.6597, 7857.136
834.1418, 7845.392
834.6240, 7833.158
835.1061, 7806.555
835.5882, 7762.658
836.0703, 7734.652
836.5524, 7726.338
837.0345, 7720.934
837.5167, 7706.572
837.9988, 7685.466
838.4809, 7665.657
838.9630, 7647.443
839.4451, 7621.803
839.9272, 7571.112
840.4094, 7518.246
840.8915, 7483.790
841.3736, 7475.958
841.8557, 7457.061
842.3378, 7406.699
842.8199, 7368.173
843.3021, 7382.220
843.7842, 7451.600
844.2663, 7463.246
844.7484, 7411.473
845.2305, 7350.253
845.7126, 7323.198
846.1948, 7317.975
846.6769, 7324.328
847.1590, 7344.180
847.6411, 7345.887
848.1232, 7299.646
848.6053, 7243.695
849.0875, 7205.107
849.5696, 7188.499
850.0517, 7174.190
850.5338, 7164.746
851.0159, 7151.015
851.4980, 7114.952
851.9802, 7067.795
852.4623, 7053.135
852.9444, 7077.407
853.4265, 7098.228
853.9086, 7081.999
854.3907, 7048.242
854.8729, 7009.754
855.3550, 6958.410
855.8371, 6937.429
856.3192, 6967.438
856.8013, 7003.755
857.2834, 7013.048
857.7656, 6995.070
858.2477, 6964.793
858.7298, 6921.574
859.2119, 6877.568
859.6940, 6839.370
860.1761, 6809.720
860.6583, 6796.862
861.1404, 6806.805
861.6225, 6807.784
862.1046, 6771.912
862.5867, 6734.772
863.0688, 6726.575
863.5510, 6762.534
864.0331, 6765.023
864.5152, 6726.606
864.9973, 6679.300
865.4794, 6653.719
865.9615, 6642.388
866.4437, 6622.528
866.9258, 6590.697
867.4079, 6563.820
867.8900, 6554.704
868.3721, 6554.083
868.8542, 6555.548
869.3364, 6561.703
869.8185, 6559.532
870.3006, 6547.993
870.7827, 6530.355
871.2648, 6504.479
871.7469, 6472.464
872.2291, 6460.568
872.7112, 6471.716
873.1933, 6478.843
873.6754, 6448.537
874.1575, 6407.617
874.6396, 6384.200
875.1218, 6384.682
875.6039, 6389.494
876.0860, 6399.791
876.5681, 6407.779
877.0502, 6409.042
877.5323, 6403.110
878.0145, 6393.030
878.4966, 6378.376
878.9787, 6361.795
879.4608, 6346.744
879.9429, 6330.748
880.4250, 6307.388
880.9072, 6275.869
881.3893, 6248.906
881.8714, 6233.016
882.3535, 6223.890
882.8356, 6221.340
883.3177, 6226.937
883.7999, 6223.369
884.2820, 6209.367
884.7641, 6190.005
885.2462, 6164.310
885.7283, 6136.347
886.2104, 6117.344
886.6926, 6107.534
887.1747, 6104.943
887.6568, 6128.390
888.1389, 6142.684
888.6210, 6114.435
889.1031, 6036.574
889.5853, 5986.073
890.0674, 5974.148
890.5495, 5973.021
891.0316, 5973.210
891.5137, 5973.391
891.9958, 5961.873
892.4780, 5939.488
892.9601, 5920.346
893.4422, 5916.593
893.9243, 5917.991
894.4064, 5915.727
894.8885, 5909.805
895.3707, 5905.546
895.8528, 5915.254
896.3349, 5911.677
896.8170, 5877.938
897.2991, 5823.038
897.7813, 5803.808
898.2634, 5820.379
898.7455, 5832.825
899.2276, 5815.773
899.7097, 5784.926
900.1918, 5753.054
900.6740, 5723.027
901.1561, 5705.280
901.6382, 5721.688
902.1203, 5730.559
902.6024, 5717.129
903.0845, 5687.485
903.5667, 5661.784
904.0488, 5639.658
904.5309, 5626.070
905.0130, 5627.614
905.4951, 5632.565
905.9772, 5622.857
906.4594, 5601.286
906.9415, 5575.417
907.4236, 5535.251
907.9057, 5505.397
908.3878, 5504.671
908.8699, 5517.144
909.3521, 5509.826
909.8342, 5476.089
910.3163, 5449.274
910.7984, 5437.449
911.2805, 5433.520
911.7626, 5427.480
912.2448, 5420.042
912.7269, 5413.215
913.2090, 5411.629
913.6911, 5404.405
914.1732, 5379.459
914.6553, 5348.693
915.1375, 5329.239
915.6196, 5326.533
916.1017, 5322.344
916.5838, 5316.623
917.0659, 5305.586
917.5480, 5277.524
918.0302, 5239.970
918.5123, 5218.612
918.9944, 5223.738
919.4765, 5223.304
919.9586, 5190.285
920.4407, 5145.720
920.9229, 5108.657
921.4050, 5077.854
921.8871, 5063.585
922.3692, 5071.822
922.8513, 5083.908
923.3334, 5084.489
923.8156, 5074.591
924.2977, 5056.505
924.7798, 5030.314
925.2619, 5000.829
925.7440, 4968.667
926.2261, 4936.941
926.7083, 4906.465
927.1904, 4875.749
927.6725, 4861.467
928.1546, 4876.106
928.6367, 4882.081
929.1188, 4849.275
929.6010, 4788.354
930.0831, 4756.683
930.5652, 4752.691
931.0473, 4753.566
931.5294, 4744.026
932.0115, 4734.725
932.4937, 4739.515
932.9758, 4755.634
933.4579, 4750.921
933.9400, 4714.134
934.4221, 4673.987
934.9042, 4636.069
935.3864, 4602.411
935.8685, 4606.417
936.3506, 4618.795
936.8327, 4621.727
937.3148, 4615.719
937.7969, 4574.004
938.2791, 4578.396
938.7612, 4564.311
939.2433, 4549.470
939.7254, 4560.354
940.2075, 4523.831
940.6896, 4534.309
941.1718, 4526.021
941.6539, 4468.048
942.1360, 4467.271
942.6181, 4454.136
943.1002, 4418.443
943.5823, 4383.813
944.0645, 4368.321
944.5466, 4364.765
945.0287, 4364.750
945.5108, 4380.430
945.9929, 4373.909
946.4750, 4336.142
946.9572, 4290.747
947.4393, 4261.227
947.9214, 4245.579
948.4035, 4234.445
948.8856, 4227.125
949.3677, 4220.642
949.8499, 4213.229
950.3320, 4205.246
950.8141, 4198.547
951.2962, 4195.104
951.7783, 4179.641
952.2604, 4143.331
952.7426, 4112.466
953.2247, 4107.348
953.7068, 4120.894
954.1889, 4118.729
954.6710, 4102.597
955.1531, 4088.127
955.6353, 4090.152
956.1174, 4092.555
956.5995, 4082.265
957.0816, 4061.296
957.5637, 4046.882
958.0458, 4042.810
958.5280, 4037.993
959.0101, 4030.650
959.4922, 4019.130
959.9743, 3991.161
960.4564, 3939.936
960.9385, 3958.046
961.4207, 3966.709
961.9028, 3966.436
962.3849, 3930.452
962.8670, 3940.580
963.3491, 3932.228
963.8312, 3923.119
964.3134, 3939.736
964.7955, 3908.946
965.2776, 3925.156
965.7597, 3922.604
966.2418, 3928.639
966.7239, 3916.081
967.2061, 3909.265
967.6882, 3921.049
968.1703, 3922.534
968.6524, 3907.835
969.1345, 3914.416
969.6166, 3882.977
970.0988, 3884.900
970.5809, 3901.219
971.0630, 3887.455
971.5451, 3894.376
972.0272, 3861.401
972.5093, 3835.848
972.9915, 3800.847
973.4736, 3781.296
973.9557, 3806.529
974.4378, 3831.733
974.9199, 3836.924
975.4020, 3825.326
975.8842, 3810.313
976.3663, 3791.712
976.8484, 3772.045
977.3305, 3749.901
977.8126, 3730.725
978.2947, 3726.563
978.7769, 3731.148
979.2590, 3730.695
979.7411, 3712.947
980.2232, 3699.231
980.7053, 3695.109
981.1874, 3695.369
981.6696, 3692.849
982.1517, 3687.399
982.6338, 3683.194
983.1159, 3680.708
983.5980, 3679.929
984.0801, 3682.168
984.5623, 3685.360
985.0444, 3688.447
985.5265, 3693.465
986.0085, 3688.450
986.4907, 3668.279
986.9728, 3644.351
987.4549, 3620.499
987.9370, 3597.813
988.4191, 3589.647
988.9012, 3595.407
989.3834, 3603.693
989.8655, 3608.570
990.3476, 3611.819
990.8297, 3617.685
991.3118, 3624.227
991.7939, 3618.019
992.2761, 3587.647
992.7582, 3569.576
993.2403, 3577.349
993.7224, 3597.979
994.2045, 3605.167
994.6866, 3601.164
995.1688, 3592.248
995.6509, 3576.306
996.1330, 3563.889
996.6151, 3561.003
997.0972, 3564.765
997.5793, 3573.024
998.0615, 3592.011
998.5436, 3590.478
999.0257, 3562.785
999.5078, 3531.821
999.9899, 3522.129
1000.472, 3524.941
1000.954, 3525.084
1001.436, 3520.771
1001.918, 3519.374
1002.401, 3525.184
1002.883, 3533.627
1003.365, 3545.345
1003.847, 3558.816
1004.329, 3554.645
1004.811, 3532.340
1005.293, 3515.159
1005.775, 3520.824
1006.257, 3531.674
1006.740, 3529.878
1007.222, 3518.203
1007.704, 3503.216
1008.186, 3479.889
1008.668, 3462.934
1009.150, 3454.073
1009.632, 3452.083
1010.114, 3458.877
1010.596, 3471.961
1011.079, 3476.893
1011.561, 3470.051
1012.043, 3460.014
1012.525, 3453.095
1013.007, 3446.110
1013.489, 3434.863
1013.971, 3416.556
1014.453, 3407.198
1014.936, 3408.673
1015.418, 3413.007
1015.900, 3418.447
1016.382, 3421.864
1016.864, 3410.679
1017.346, 3388.792
1017.828, 3376.283
1018.310, 3394.051
1018.792, 3410.401
1019.275, 3413.972
1019.757, 3407.646
1020.239, 3396.102
1020.721, 3378.896
1021.203, 3365.917
1021.685, 3361.156
1022.167, 3356.783
1022.649, 3335.428
1023.132, 3312.226
1023.614, 3310.692
1024.096, 3353.785
1024.578, 3376.063
1025.060, 3366.404
1025.542, 3346.631
1026.024, 3331.155
1026.506, 3319.802
1026.989, 3311.148
1027.471, 3305.344
1027.953, 3304.948
1028.435, 3318.491
1028.917, 3331.678
1029.399, 3335.754
1029.881, 3331.021
1030.363, 3321.049
1030.845, 3303.153
1031.328, 3289.308
1031.810, 3281.420
1032.292, 3281.347
1032.774, 3301.961
1033.256, 3330.769
1033.738, 3341.988
1034.220, 3315.874
1034.702, 3294.343
1035.184, 3291.801
1035.667, 3293.170
1036.149, 3283.083
1036.631, 3261.419
1037.113, 3262.222
1037.595, 3287.226
1038.077, 3305.711
1038.559, 3284.312
1039.041, 3253.613
1039.524, 3238.349
1040.006, 3239.339
1040.488, 3242.535
1040.970, 3251.844
1041.452, 3250.585
1041.934, 3228.791
1042.416, 3199.860
1042.898, 3189.069
1043.380, 3193.170
1043.863, 3204.079
1044.345, 3226.498
1044.827, 3242.013
1045.309, 3240.697
1045.791, 3230.905
1046.273, 3220.773
1046.755, 3211.093
1047.237, 3189.780
1047.719, 3155.132
1048.202, 3127.484
1048.684, 3127.770
1049.166, 3140.678
1049.648, 3155.591
1050.130, 3170.656
1050.612, 3170.899
1051.094, 3142.672
1051.576, 3125.549
1052.059, 3136.036
1052.541, 3158.289
1053.023, 3151.531
1053.505, 3124.632
1053.987, 3106.158
1054.469, 3108.596
1054.951, 3114.763
1055.433, 3122.804
1055.916, 3126.423
1056.398, 3117.346
1056.880, 3091.053
1057.362, 3082.551
1057.844, 3094.063
1058.326, 3102.878
1058.808, 3080.390
1059.290, 3052.484
1059.772, 3052.608
1060.255, 3078.202
1060.737, 3091.376
1061.219, 3078.500
1061.701, 3067.809
1062.183, 3067.554
1062.665, 3071.473
1063.147, 3065.615
1063.629, 3052.506
1064.111, 3040.146
1064.594, 3030.078
1065.076, 3022.750
1065.558, 3021.304
1066.040, 3020.708
1066.522, 3015.609
1067.004, 3004.377
1067.486, 3002.178
1067.968, 3009.709
1068.450, 3016.836
1068.933, 3017.399
1069.415, 3012.974
1069.897, 3000.734
1070.379, 2983.923
1070.861, 2977.402
1071.343, 2990.069
1071.825, 3000.590
1072.307, 3005.521
1072.790, 3005.966
1073.272, 3001.241
1073.754, 2993.602
1074.236, 2991.213
1074.718, 2998.907
1075.200, 2998.471
1075.682, 2966.007
1076.164, 2936.232
1076.646, 2934.616
1077.129, 2960.967
1077.611, 2971.549
1078.093, 2966.374
1078.575, 2962.299
1079.057, 2975.603
1079.539, 2989.244
1080.021, 2988.720
1080.503, 2976.788
1080.985, 2959.323
1081.468, 2929.278
1081.950, 2914.823
1082.432, 2923.495
1082.914, 2937.176
1083.396, 2930.886
1083.878, 2913.672
1084.360, 2903.626
1084.842, 2903.732
1085.325, 2903.814
1085.807, 2902.766
1086.289, 2897.416
1086.771, 2883.724
1087.253, 2864.956
1087.735, 2858.372
1088.217, 2862.939
1088.699, 2870.945
1089.182, 2884.161
1089.664, 2892.318
1090.146, 2881.094
1090.628, 2863.803
1091.110, 2860.320
1091.592, 2876.259
1092.074, 2888.075
1092.556, 2895.718
1093.038, 2895.240
1093.521, 2874.722
1094.003, 2849.040
1094.485, 2839.716
1094.967, 2846.173
1095.449, 2848.872
1095.931, 2839.304
1096.413, 2832.359
1096.895, 2831.604
1097.377, 2835.536
1097.860, 2842.587
1098.342, 2851.618
1098.824, 2860.021
1099.306, 2869.781
1099.788, 2870.365
1100.270, 2845.030
1100.752, 2818.279
1101.234, 2809.982
1101.717, 2820.648
1102.199, 2818.831
1102.681, 2804.769
1103.163, 2794.917
1103.645, 2807.756
1104.127, 2821.956
1104.609, 2815.742
1105.091, 2797.694
1105.573, 2792.320
1106.056, 2808.177
1106.538, 2812.771
1107.020, 2799.540
1107.502, 2783.763
1107.984, 2786.376
1108.466, 2797.394
1108.948, 2800.604
1109.430, 2793.642
1109.912, 2788.816
1110.395, 2787.565
1110.877, 2791.563
1111.359, 2805.938
1111.841, 2822.862
1112.323, 2812.620
1112.805, 2783.079
1113.287, 2762.280
1113.769, 2764.421
1114.252, 2770.042
1114.734, 2774.698
1115.216, 2775.865
1115.698, 2768.269
1116.180, 2750.166
1116.662, 2754.714
1117.144, 2782.517
1117.626, 2800.410
1118.109, 2769.585
1118.591, 2733.026
1119.073, 2727.300
1119.555, 2745.893
1120.037, 2758.699
1120.519, 2766.282
1121.001, 2761.101
1121.483, 2738.474
1121.965, 2714.465
1122.448, 2706.243
1122.930, 2711.370
1123.412, 2732.020
1123.894, 2772.635
1124.376, 2791.982
1124.858, 2777.620
1125.340, 2756.904
1125.822, 2738.102
1126.304, 2723.519
1126.787, 2724.687
1127.269, 2735.889
1127.751, 2739.932
1128.233, 2724.606
1128.715, 2709.923
1129.197, 2699.462
1129.679, 2694.157
1130.161, 2696.344
1130.644, 2705.601
1131.126, 2716.035
1131.608, 2727.118
1132.090, 2733.609
1132.572, 2731.177
1133.054, 2723.837
1133.536, 2710.229
1134.018, 2694.084
1134.500, 2684.782
1134.983, 2682.637
1135.465, 2685.167
1135.947, 2693.499
1136.429, 2698.573
1136.911, 2682.526
1137.393, 2663.695
1137.875, 2665.404
1138.357, 2694.250
1138.839, 2704.133
1139.322, 2691.154
1139.804, 2671.131
1140.286, 2645.120
1140.768, 2623.075
1141.250, 2629.998
1141.732, 2651.633
1142.214, 2660.143
1142.696, 2633.581
1143.179, 2618.681
1143.661, 2621.703
1144.143, 2631.189
1144.625, 2640.243
1145.107, 2648.010
1145.589, 2651.373
1146.071, 2650.716
1146.553, 2648.784
1147.036, 2643.791
1147.518, 2641.630
1148.000, 2645.250
1148.482, 2651.081
1148.964, 2654.794
1149.446, 2655.783
1149.928, 2647.153
1150.410, 2626.926
1150.892, 2611.868
1151.375, 2615.697
1151.857, 2626.240
1152.339, 2641.180
1152.821, 2656.632
1153.303, 2646.504
1153.785, 2611.241
1154.267, 2589.202
1154.749, 2598.187
1155.231, 2612.630
1155.714, 2610.792
1156.196, 2601.073
1156.678, 2592.137
1157.160, 2583.520
1157.642, 2581.669
1158.124, 2587.091
1158.606, 2595.179
1159.088, 2605.180
1159.571, 2614.481
1160.053, 2621.197
1160.535, 2624.843
1161.017, 2624.365
1161.499, 2622.792
1161.981, 2608.008
1162.463, 2574.320
1162.945, 2542.832
1163.427, 2538.745
1163.910, 2550.552
1164.392, 2565.979
1164.874, 2582.607
1165.356, 2586.323
1165.838, 2559.442
1166.320, 2543.646
1166.802, 2550.740
1167.284, 2568.578
1167.766, 2578.937
1168.249, 2582.925
1168.731, 2583.878
1169.213, 2583.065
1169.695, 2574.838
1170.177, 2543.190
1170.659, 2521.228
1171.141, 2527.973
1171.623, 2553.327
1172.106, 2562.340
1172.588, 2558.044
1173.070, 2552.332
1173.552, 2549.909
1174.034, 2546.680
1174.516, 2538.491
1174.998, 2531.120
1175.480, 2530.895
1175.963, 2537.191
1176.445, 2533.045
1176.927, 2519.538
1177.409, 2508.288
1177.891, 2504.422
1178.373, 2506.948
1178.855, 2522.739
1179.337, 2541.021
1179.819, 2543.029
1180.302, 2528.190
1180.784, 2526.372
1181.266, 2541.253
1181.748, 2555.593
1182.230, 2557.232
1182.712, 2552.369
1183.194, 2543.079
1183.676, 2530.925
1184.158, 2519.321
1184.641, 2507.481
1185.123, 2506.733
1185.605, 2522.416
1186.087, 2538.807
1186.569, 2540.882
1187.051, 2535.976
1187.533, 2529.487
1188.015, 2521.608
1188.498, 2523.717
1188.980, 2538.352
1189.462, 2541.827
1189.944, 2516.075
1190.426, 2487.615
1190.908, 2488.270
1191.390, 2506.431
1191.872, 2527.033
1192.354, 2554.854
1192.837, 2561.319
1193.319, 2542.997
1193.801, 2520.926
1194.283, 2505.753
1194.765, 2497.973
1195.247, 2502.306
1195.729, 2514.402
1196.211, 2523.244
1196.693, 2531.149
1197.176, 2524.785
1197.658, 2499.145
1198.140, 2473.323
1198.622, 2468.273
1199.104, 2474.105
1199.586, 2474.104
1200.068, 2469.431
1200.550, 2477.696
1201.033, 2517.235
1201.515, 2535.827
1201.997, 2519.577
1202.479, 2490.479
1202.961, 2475.504
1203.443, 2471.298
1203.925, 2476.068
1204.407, 2490.463
1204.890, 2492.464
1205.372, 2469.016
1205.854, 2452.933
1206.336, 2456.651
1206.818, 2471.234
1207.300, 2483.029
1207.782, 2490.930
1208.264, 2491.326
1208.746, 2480.480
1209.229, 2472.440
1209.711, 2469.593
1210.193, 2468.712
1210.675, 2468.398
1211.157, 2468.624
1211.639, 2471.818
1212.121, 2475.363
1212.603, 2472.144
1213.085, 2450.022
1213.568, 2437.951
1214.050, 2442.107
1214.532, 2450.840
1215.014, 2453.303
1215.496, 2453.434
1215.978, 2468.681
1216.460, 2493.462
1216.942, 2505.087
1217.425, 2478.457
1217.907, 2459.915
1218.389, 2459.968
1218.871, 2465.362
1219.353, 2460.095
1219.835, 2448.187
1220.317, 2440.814
1220.799, 2438.382
1221.281, 2437.032
1221.764, 2430.440
1222.246, 2432.885
1222.728, 2453.150
1223.210, 2475.662
1223.692, 2473.369
1224.174, 2453.026
1224.656, 2426.349
1225.138, 2394.273
1225.620, 2384.136
1226.103, 2438.263
1226.585, 2474.994
1227.067, 2464.475
1227.549, 2428.615
1228.031, 2413.858
1228.513, 2414.209
1228.995, 2413.528
1229.477, 2407.231
1229.960, 2396.089
1230.442, 2417.950
1230.924, 2430.366
1231.406, 2433.843
1231.888, 2401.612
1232.370, 2415.491
1232.852, 2410.891
1233.334, 2405.533
1233.816, 2425.902
1234.299, 2398.865
1234.781, 2418.826
1235.263, 2420.026
1235.745, 2429.813
1236.227, 2421.006
1236.709, 2417.942
1237.191, 2433.478
1237.673, 2438.715
1238.156, 2427.768
1238.638, 2438.100
1239.120, 2410.413
1239.602, 2416.089
1240.084, 2436.159
1240.566, 2426.146
1241.048, 2436.819
1241.530, 2439.613
1242.012, 2406.606
1242.495, 2382.346
1242.977, 2366.695
1243.459, 2373.103
1243.941, 2388.313
1244.423, 2397.870
1244.905, 2404.771
1245.387, 2420.152
1245.869, 2441.747
1246.351, 2448.055
1246.834, 2417.185
1247.316, 2392.221
1247.798, 2380.078
1248.280, 2376.202
1248.762, 2374.136
1249.244, 2375.846
1249.726, 2389.984
1250.208, 2416.919
1250.691, 2426.598
1251.173, 2404.161
1251.655, 2384.827
1252.137, 2376.477
1252.619, 2376.470
1253.101, 2384.262
1253.583, 2395.917
1254.065, 2406.549
1254.547, 2416.114
1255.030, 2415.608
1255.512, 2400.405
1255.994, 2388.292
1256.476, 2387.501
1256.958, 2389.130
1257.440, 2372.706
1257.922, 2352.673
1258.404, 2353.058
1258.886, 2385.832
1259.369, 2403.712
1259.851, 2404.491
1260.333, 2396.287
1260.815, 2377.092
1261.297, 2359.360
1261.779, 2362.643
1262.261, 2376.830
1262.743, 2387.016
1263.226, 2390.563
1263.708, 2392.708
1264.190, 2393.348
1264.672, 2393.602
1265.154, 2396.740
1265.636, 2396.954
1266.118, 2383.457
1266.600, 2364.833
1267.083, 2355.651
1267.565, 2358.855
1268.047, 2362.126
1268.529, 2365.582
##END=



