##NAMES=Pyromorphite
##RRUFFID=R050015
##IDEAL CHEMISTRY=Pb^2+^_5_(PO_4_)_3_Cl
##LOCALITY=Bunker Hill mine, Shoshone County, Idaho, USA
##OWNER=RRUFF
##SOURCE=Eugene Schlepp
##DESCRIPTION=Yellowish green prismatic hexagonal single crystals
##STATUS=The identification of this mineral has been confirmed by X-ray diffraction and chemical analysis
##URL=rruff.info/R050015
##MEASURED CHEMISTRY=Pb_5.00_((P_0.88_As_0.12_)O_4_)_3_Cl_1.00_
107.7177, 141.3505
108.1998, 148.8004
108.6819, 156.6053
109.1640, 165.4626
109.6461, 175.4612
110.1282, 186.8658
110.6104, 199.2384
111.0925, 212.5010
111.5746, 226.7649
112.0567, 241.9769
112.5388, 257.7182
113.0209, 274.6913
113.5031, 293.2251
113.9852, 310.9953
114.4673, 332.3483
114.9494, 360.0790
115.4315, 393.5554
115.9136, 427.2215
116.3958, 455.6025
116.8779, 484.2963
117.3600, 518.8663
117.8421, 566.4615
118.3242, 616.6740
118.8063, 661.9855
119.2885, 701.1877
119.7706, 744.1605
120.2527, 796.8242
120.7348, 857.5923
121.2169, 923.8586
121.6990, 991.4160
122.1812, 1064.467
122.6633, 1147.107
123.1454, 1240.213
123.6275, 1341.978
124.1096, 1452.999
124.5917, 1572.103
125.0739, 1694.498
125.5560, 1817.361
126.0381, 1940.801
126.5202, 2068.379
127.0023, 2203.333
127.4844, 2339.873
127.9666, 2465.247
128.4487, 2579.635
128.9308, 2697.966
129.4129, 2835.850
129.8950, 2990.762
130.3772, 3142.247
130.8593, 3282.813
131.3414, 3416.328
131.8235, 3555.414
132.3056, 3698.248
132.7877, 3848.744
133.2699, 4014.808
133.7520, 4197.916
134.2341, 4379.630
134.7162, 4551.878
135.1983, 4715.417
135.6804, 4878.315
136.1626, 5038.906
136.6447, 5198.524
137.1268, 5359.966
137.6089, 5523.076
138.0910, 5684.334
138.5731, 5840.317
139.0553, 5994.809
139.5374, 6134.148
140.0195, 6252.879
140.5016, 6356.310
140.9837, 6459.760
141.4658, 6564.115
141.9480, 6668.688
142.4301, 6771.645
142.9122, 6870.277
143.3943, 6972.588
143.8764, 7080.575
144.3585, 7193.265
144.8407, 7310.188
145.3228, 7432.075
145.8049, 7556.890
146.2870, 7680.880
146.7691, 7790.011
147.2512, 7914.741
147.7334, 8065.779
148.2155, 8254.918
148.6976, 8423.604
149.1797, 8555.240
149.6618, 8671.536
150.1439, 8799.936
150.6261, 8958.585
151.1082, 9111.573
151.5903, 9248.565
152.0724, 9365.060
152.5545, 9474.403
153.0366, 9576.756
153.5188, 9671.986
154.0009, 9759.467
154.4830, 9842.616
154.9651, 9916.275
155.4472, 9978.267
155.9293, 10020.15
156.4115, 10062.20
156.8936, 10112.77
157.3757, 10167.87
157.8578, 10214.44
158.3399, 10236.23
158.8221, 10255.42
159.3042, 10286.77
159.7863, 10353.68
160.2684, 10413.78
160.7505, 10444.98
161.2326, 10451.99
161.7148, 10468.99
162.1969, 10510.68
162.6790, 10569.44
163.1611, 10637.25
163.6432, 10715.87
164.1253, 10799.93
164.6075, 10883.82
165.0896, 10967.23
165.5717, 11062.41
166.0538, 11190.33
166.5359, 11332.00
167.0180, 11460.51
167.5002, 11547.71
167.9823, 11629.31
168.4644, 11731.35
168.9465, 11856.51
169.4286, 11996.70
169.9107, 12161.92
170.3929, 12337.86
170.8750, 12498.74
171.3571, 12619.06
171.8392, 12721.04
172.3213, 12826.98
172.8034, 12938.38
173.2856, 13054.32
173.7677, 13182.91
174.2498, 13318.38
174.7319, 13438.63
175.2140, 13542.80
175.6961, 13620.99
176.1783, 13650.79
176.6604, 13613.01
177.1425, 13552.40
177.6246, 13528.85
178.1067, 13536.24
178.5888, 13533.11
179.0710, 13489.84
179.5531, 13414.31
180.0352, 13322.74
180.5173, 13217.22
180.9994, 13100.09
181.4815, 12974.10
181.9637, 12838.43
182.4458, 12702.89
182.9279, 12577.87
183.4100, 12459.74
183.8921, 12332.67
184.3742, 12191.54
184.8564, 12038.53
185.3385, 11883.44
185.8206, 11725.25
186.3027, 11561.01
186.7848, 11384.56
187.2669, 11197.09
187.7491, 11001.73
188.2312, 10793.16
188.7133, 10578.14
189.1954, 10379.05
189.6775, 10199.05
190.1596, 10026.39
190.6418, 9844.190
191.1239, 9653.441
191.6060, 9463.240
192.0881, 9280.413
192.5702, 9103.175
193.0524, 8911.955
193.5345, 8702.719
194.0166, 8491.252
194.4987, 8306.663
194.9808, 8150.193
195.4629, 8001.305
195.9451, 7851.704
196.4272, 7699.667
196.9093, 7558.409
197.3914, 7429.310
197.8735, 7309.440
198.3556, 7194.867
198.8378, 7086.733
199.3199, 6979.173
199.8020, 6866.896
200.2841, 6749.817
200.7662, 6645.104
201.2483, 6556.770
201.7305, 6478.607
202.2126, 6393.942
202.6947, 6300.016
203.1768, 6209.889
203.6589, 6133.596
204.1410, 6074.450
204.6232, 6009.412
205.1053, 5932.740
205.5874, 5850.523
206.0695, 5786.199
206.5516, 5746.637
207.0337, 5706.932
207.5159, 5646.749
207.9980, 5561.451
208.4801, 5483.452
208.9622, 5418.387
209.4443, 5363.655
209.9264, 5305.429
210.4086, 5240.414
210.8907, 5178.290
211.3728, 5130.313
211.8549, 5103.186
212.3370, 5065.149
212.8191, 5007.389
213.3013, 4933.383
213.7834, 4868.045
214.2655, 4812.955
214.7476, 4763.795
215.2297, 4719.059
215.7118, 4681.713
216.1940, 4638.634
216.6761, 4584.030
217.1582, 4518.721
217.6403, 4468.189
218.1224, 4439.799
218.6045, 4417.109
219.0867, 4384.151
219.5688, 4337.514
220.0509, 4289.029
220.5330, 4241.580
221.0151, 4194.551
221.4972, 4148.209
221.9794, 4100.951
222.4615, 4055.718
222.9436, 4015.865
223.4257, 3984.942
223.9078, 3951.440
224.3899, 3911.832
224.8721, 3864.699
225.3542, 3823.593
225.8363, 3790.805
226.3184, 3761.530
226.8005, 3728.692
227.2827, 3688.007
227.7648, 3652.623
228.2469, 3628.254
228.7290, 3617.562
229.2111, 3597.524
229.6932, 3564.386
230.1754, 3525.201
230.6575, 3488.435
231.1396, 3454.887
231.6217, 3422.824
232.1038, 3391.969
232.5859, 3362.501
233.0681, 3333.364
233.5502, 3304.927
234.0323, 3276.678
234.5144, 3246.781
234.9965, 3211.826
235.4786, 3181.471
235.9608, 3160.013
236.4429, 3150.663
236.9250, 3136.555
237.4071, 3116.964
237.8892, 3093.133
238.3713, 3066.172
238.8535, 3032.183
239.3356, 3001.654
239.8177, 2979.020
240.2998, 2967.250
240.7819, 2951.181
241.2640, 2926.240
241.7462, 2899.397
242.2283, 2883.981
242.7104, 2889.830
243.1925, 2890.865
243.6746, 2877.139
244.1567, 2843.093
244.6389, 2812.688
245.1210, 2786.011
245.6031, 2762.953
246.0852, 2743.515
246.5673, 2727.547
247.0494, 2715.541
247.5316, 2709.125
248.0137, 2711.924
248.4958, 2707.534
248.9779, 2692.771
249.4600, 2672.613
249.9421, 2657.305
250.4243, 2651.039
250.9064, 2641.907
251.3885, 2624.418
251.8706, 2594.560
252.3527, 2569.830
252.8348, 2552.852
253.3170, 2539.419
253.7991, 2521.000
254.2812, 2494.352
254.7633, 2469.286
255.2454, 2449.293
255.7275, 2435.061
256.2097, 2424.924
256.6918, 2422.816
257.1739, 2422.224
257.6560, 2408.967
258.1381, 2374.958
258.6202, 2344.930
259.1024, 2329.426
259.5845, 2332.978
260.0666, 2333.172
260.5487, 2330.406
261.0308, 2323.958
261.5129, 2310.768
261.9951, 2287.065
262.4772, 2265.904
262.9593, 2252.890
263.4414, 2249.289
263.9235, 2248.396
264.4056, 2253.451
264.8878, 2258.149
265.3699, 2248.633
265.8520, 2217.882
266.3341, 2192.824
266.8162, 2187.424
267.2983, 2206.870
267.7805, 2211.972
268.2626, 2198.631
268.7447, 2175.385
269.2268, 2156.885
269.7089, 2144.571
270.1910, 2131.827
270.6732, 2113.734
271.1553, 2088.795
271.6374, 2075.764
272.1195, 2078.268
272.6016, 2087.354
273.0837, 2088.760
273.5659, 2081.581
274.0480, 2071.486
274.5301, 2059.344
275.0122, 2045.043
275.4943, 2034.051
275.9764, 2027.161
276.4586, 2022.091
276.9407, 2014.965
277.4228, 2005.460
277.9049, 1997.444
278.3870, 1993.242
278.8691, 1992.627
279.3513, 1990.435
279.8334, 1986.553
280.3155, 1981.382
280.7976, 1973.704
281.2798, 1963.288
281.7619, 1957.399
282.2440, 1961.549
282.7261, 1973.823
283.2082, 1979.225
283.6903, 1976.954
284.1725, 1970.759
284.6546, 1963.211
285.1367, 1954.560
285.6188, 1949.953
286.1009, 1954.142
286.5830, 1964.142
287.0652, 1965.701
287.5473, 1957.667
288.0294, 1947.988
288.5115, 1944.144
288.9936, 1946.046
289.4757, 1953.146
289.9579, 1968.996
290.4400, 1989.009
290.9221, 1998.254
291.4042, 1995.785
291.8863, 1994.354
292.3684, 1987.447
292.8506, 2019.478
293.3327, 2044.717
293.8148, 2063.530
294.2969, 2056.677
294.7790, 2082.967
295.2611, 2095.975
295.7433, 2108.441
296.2254, 2139.397
296.7075, 2154.732
297.1896, 2187.438
297.6717, 2213.746
298.1538, 2238.580
298.6360, 2269.234
299.1181, 2305.632
299.6002, 2343.522
300.0823, 2378.692
300.5644, 2413.523
301.0465, 2452.378
301.5287, 2494.594
302.0108, 2543.485
302.4929, 2606.970
302.9750, 2682.867
303.4571, 2755.049
303.9392, 2807.097
304.4214, 2851.065
304.9035, 2904.319
305.3856, 2970.351
305.8677, 3045.823
306.3498, 3129.719
306.8319, 3220.254
307.3141, 3313.163
307.7962, 3406.751
308.2783, 3499.745
308.7604, 3592.776
309.2425, 3685.326
309.7246, 3775.014
310.2068, 3858.725
310.6889, 3938.455
311.1710, 4020.300
311.6531, 4114.268
312.1352, 4207.309
312.6173, 4287.239
313.0995, 4346.607
313.5816, 4406.412
314.0637, 4480.186
314.5458, 4561.315
315.0279, 4637.927
315.5100, 4705.239
315.9922, 4767.012
316.4743, 4825.019
316.9564, 4879.392
317.4385, 4930.293
317.9206, 4980.986
318.4027, 5027.509
318.8849, 5064.324
319.3670, 5088.104
319.8491, 5103.541
320.3312, 5108.438
320.8133, 5099.610
321.2954, 5099.355
321.7776, 5131.182
322.2597, 5166.378
322.7418, 5174.341
323.2239, 5117.932
323.7060, 5066.572
324.1881, 5038.914
324.6703, 5037.607
325.1524, 5033.296
325.6345, 5026.647
326.1166, 5014.895
326.5987, 4995.810
327.0808, 4971.856
327.5630, 4937.487
328.0451, 4883.640
328.5272, 4812.046
329.0093, 4761.245
329.4914, 4750.745
329.9735, 4744.463
330.4557, 4717.085
330.9378, 4643.360
331.4199, 4593.085
331.9020, 4578.539
332.3841, 4592.541
332.8662, 4600.729
333.3484, 4602.639
333.8305, 4599.320
334.3126, 4591.610
334.7947, 4580.532
335.2768, 4560.931
335.7589, 4527.500
336.2411, 4488.236
336.7232, 4464.693
337.2053, 4462.753
337.6874, 4459.841
338.1695, 4442.650
338.6516, 4408.702
339.1338, 4384.960
339.6159, 4375.686
340.0980, 4370.982
340.5801, 4353.333
341.0622, 4321.174
341.5443, 4288.377
342.0265, 4262.869
342.5086, 4243.082
342.9907, 4211.222
343.4728, 4166.515
343.9549, 4113.784
344.4370, 4054.522
344.9192, 3990.380
345.4013, 3934.971
345.8834, 3900.089
346.3655, 3876.171
346.8476, 3840.349
347.3297, 3792.724
347.8119, 3736.138
348.2940, 3667.493
348.7761, 3591.368
349.2582, 3523.439
349.7403, 3469.551
350.2225, 3422.620
350.7046, 3373.698
351.1867, 3322.460
351.6688, 3269.811
352.1509, 3210.616
352.6331, 3151.759
353.1152, 3105.090
353.5973, 3078.338
354.0794, 3054.763
354.5615, 3017.409
355.0436, 2970.504
355.5258, 2926.920
356.0079, 2897.804
356.4900, 2872.843
356.9721, 2840.854
357.4542, 2795.991
357.9363, 2758.123
358.4185, 2743.285
358.9006, 2742.470
359.3827, 2740.089
359.8648, 2729.087
360.3469, 2715.734
360.8290, 2700.745
361.3112, 2682.796
361.7933, 2673.640
362.2754, 2681.932
362.7575, 2698.957
363.2396, 2715.314
363.7217, 2721.801
364.2039, 2734.289
364.6860, 2760.810
365.1681, 2801.709
365.6502, 2835.802
366.1323, 2854.336
366.6144, 2869.424
367.0966, 2889.393
367.5787, 2907.114
368.0608, 2938.698
368.5429, 2990.321
369.0250, 3058.508
369.5071, 3123.729
369.9893, 3180.569
370.4714, 3240.388
370.9535, 3309.590
371.4356, 3392.904
371.9177, 3471.907
372.3998, 3539.144
372.8820, 3605.999
373.3641, 3698.180
373.8462, 3821.618
374.3283, 3954.192
374.8104, 4085.058
375.2925, 4214.318
375.7747, 4353.883
376.2568, 4504.887
376.7389, 4666.248
377.2210, 4835.859
377.7031, 5013.924
378.1852, 5196.240
378.6674, 5381.114
379.1495, 5569.452
379.6316, 5773.781
380.1137, 5992.729
380.5958, 6224.605
381.0779, 6467.508
381.5601, 6722.826
382.0422, 6976.586
382.5243, 7225.336
383.0064, 7479.318
383.4885, 7765.602
383.9706, 8081.637
384.4528, 8388.473
384.9349, 8655.994
385.4170, 8900.392
385.8991, 9158.725
386.3812, 9446.083
386.8633, 9724.547
387.3455, 9965.654
387.8276, 10171.09
388.3097, 10348.43
388.7918, 10502.70
389.2739, 10627.11
389.7560, 10720.03
390.2382, 10782.46
390.7203, 10799.55
391.2024, 10774.58
391.6845, 10696.48
392.1666, 10551.42
392.6487, 10304.40
393.1309, 10017.59
393.6130, 9709.653
394.0951, 9381.082
394.5772, 9043.002
395.0593, 8669.606
395.5414, 8305.167
396.0236, 7980.970
396.5057, 7703.760
396.9878, 7462.763
397.4699, 7263.354
397.9520, 7101.752
398.4341, 6966.568
398.9163, 6843.606
399.3984, 6762.077
399.8805, 6735.598
400.3626, 6776.973
400.8447, 6836.200
401.3268, 6915.995
401.8090, 7011.605
402.2911, 7117.508
402.7732, 7230.347
403.2553, 7359.902
403.7374, 7512.213
404.2195, 7685.982
404.7017, 7859.625
405.1838, 8036.119
405.6659, 8206.229
406.1480, 8364.013
406.6301, 8510.313
407.1122, 8641.947
407.5944, 8766.955
408.0765, 8868.285
408.5586, 8899.848
409.0407, 8862.619
409.5228, 8787.695
410.0049, 8695.450
410.4871, 8582.239
410.9692, 8434.079
411.4513, 8246.821
411.9334, 8033.304
412.4155, 7796.531
412.8976, 7539.744
413.3798, 7282.340
413.8619, 7016.744
414.3440, 6759.511
414.8261, 6531.575
415.3082, 6332.162
415.7903, 6130.406
416.2725, 5893.834
416.7546, 5646.609
417.2367, 5411.186
417.7188, 5211.202
418.2009, 5012.605
418.6830, 4797.723
419.1652, 4571.026
419.6473, 4357.342
420.1294, 4164.239
420.6115, 3984.882
421.0937, 3811.463
421.5758, 3640.554
422.0579, 3488.602
422.5400, 3362.012
423.0221, 3254.400
423.5042, 3152.813
423.9864, 3059.469
424.4685, 2970.121
424.9506, 2881.433
425.4327, 2793.881
425.9148, 2716.369
426.3969, 2652.344
426.8791, 2594.448
427.3612, 2537.409
427.8433, 2481.269
428.3254, 2426.247
428.8075, 2372.345
429.2896, 2319.779
429.7718, 2269.511
430.2539, 2220.804
430.7360, 2177.551
431.2181, 2145.584
431.7002, 2123.844
432.1823, 2095.957
432.6645, 2059.971
433.1466, 2021.502
433.6287, 1991.877
434.1108, 1968.426
434.5929, 1937.020
435.0750, 1883.530
435.5572, 1822.335
436.0393, 1780.202
436.5214, 1756.461
437.0035, 1736.784
437.4856, 1710.686
437.9677, 1681.701
438.4499, 1655.896
438.9320, 1639.536
439.4141, 1618.647
439.8962, 1576.569
440.3783, 1521.713
440.8604, 1474.512
441.3426, 1449.074
441.8247, 1430.645
442.3068, 1411.635
442.7889, 1391.069
443.2710, 1370.573
443.7531, 1348.353
444.2353, 1327.344
444.7174, 1310.407
445.1995, 1304.826
445.6816, 1296.061
446.1637, 1277.954
446.6458, 1252.213
447.1280, 1236.174
447.6101, 1236.310
448.0922, 1239.003
448.5743, 1237.367
449.0564, 1231.549
449.5385, 1219.887
450.0207, 1198.838
450.5028, 1175.176
450.9849, 1163.149
451.4670, 1165.141
451.9491, 1167.245
452.4312, 1164.268
452.9134, 1156.758
453.3955, 1148.631
453.8776, 1139.833
454.3597, 1131.020
454.8418, 1123.589
455.3239, 1116.922
455.8061, 1108.478
456.2882, 1096.644
456.7703, 1084.229
457.2524, 1073.726
457.7345, 1065.634
458.2166, 1061.846
458.6988, 1069.042
459.1809, 1078.415
459.6630, 1079.560
460.1451, 1070.551
460.6272, 1059.845
461.1093, 1052.566
461.5915, 1046.819
462.0736, 1040.399
462.5557, 1031.543
463.0378, 1022.890
463.5199, 1015.562
464.0020, 1009.461
464.4842, 1003.459
464.9663, 999.9865
465.4484, 994.6342
465.9305, 984.5734
466.4126, 963.5657
466.8947, 948.4458
467.3769, 940.2778
467.8590, 937.5377
468.3411, 938.4803
468.8232, 946.1519
469.3053, 951.4528
469.7874, 952.0660
470.2696, 948.1063
470.7517, 941.1989
471.2338, 930.7644
471.7159, 919.2456
472.1980, 907.9467
472.6801, 896.8959
473.1623, 888.9204
473.6444, 884.5499
474.1265, 883.0039
474.6086, 885.6330
475.0907, 891.2633
475.5728, 892.3051
476.0550, 879.5317
476.5371, 861.3839
477.0192, 853.0652
477.5013, 855.1519
477.9834, 857.5582
478.4655, 850.7741
478.9477, 840.1533
479.4298, 832.8582
479.9119, 832.7900
480.3940, 834.1725
480.8761, 833.5580
481.3582, 831.9606
481.8404, 832.3205
482.3225, 839.1636
482.8046, 845.2380
483.2867, 847.4861
483.7688, 845.4714
484.2509, 840.2234
484.7331, 826.9203
485.2152, 812.9819
485.6973, 805.1862
486.1794, 806.1774
486.6615, 809.1050
487.1436, 814.7574
487.6258, 821.7158
488.1079, 821.7879
488.5900, 811.6824
489.0721, 803.8125
489.5542, 807.2267
490.0363, 822.0735
490.5185, 830.4970
491.0006, 831.0931
491.4827, 828.1949
491.9648, 826.7381
492.4470, 826.5286
492.9291, 826.5424
493.4112, 826.3078
493.8933, 826.2195
494.3754, 827.8289
494.8575, 830.6632
495.3397, 831.6557
495.8218, 826.1559
496.3039, 819.0304
496.7860, 816.0140
497.2681, 818.8033
497.7502, 822.1079
498.2324, 822.5421
498.7145, 821.9591
499.1966, 822.8886
499.6787, 828.8894
500.1608, 833.6672
500.6429, 834.5625
501.1251, 831.8300
501.6072, 830.1411
502.0893, 831.0455
502.5714, 831.9587
503.0535, 831.6605
503.5356, 829.7091
504.0178, 827.3452
504.4999, 823.4044
504.9820, 820.1520
505.4641, 822.0125
505.9462, 830.3549
506.4283, 836.5470
506.9105, 837.4174
507.3926, 834.3685
507.8747, 833.1193
508.3568, 833.7742
508.8389, 834.2236
509.3210, 832.3406
509.8032, 829.0375
510.2853, 827.0822
510.7674, 827.1379
511.2495, 827.1785
511.7316, 825.3431
512.2137, 821.9330
512.6959, 817.6130
513.1780, 805.4492
513.6601, 798.4164
514.1422, 811.3353
514.6243, 840.4721
515.1064, 860.1995
515.5886, 852.0799
516.0707, 837.3373
516.5528, 828.8809
517.0349, 830.9473
517.5170, 833.7095
517.9991, 838.1705
518.4813, 842.0786
518.9634, 842.1184
519.4455, 834.5026
519.9276, 829.6822
520.4097, 831.0359
520.8918, 837.2388
521.3740, 838.7811
521.8561, 833.9041
522.3382, 830.1919
522.8203, 833.2777
523.3024, 842.7348
523.7845, 851.9828
524.2667, 860.9053
524.7488, 868.8769
525.2309, 874.1252
525.7130, 877.7626
526.1951, 883.6677
526.6772, 895.0621
527.1594, 907.6855
527.6415, 915.1100
528.1236, 918.7267
528.6057, 924.8747
529.0878, 939.9539
529.5699, 957.0605
530.0521, 969.4420
530.5342, 974.1537
531.0163, 984.1925
531.4984, 1009.043
531.9805, 1039.152
532.4626, 1064.457
532.9448, 1078.190
533.4269, 1093.540
533.9090, 1112.118
534.3911, 1133.392
534.8732, 1153.996
535.3553, 1171.584
535.8375, 1193.546
536.3196, 1224.857
536.8017, 1266.681
537.2838, 1299.809
537.7659, 1322.053
538.2480, 1343.862
538.7302, 1378.412
539.2123, 1423.998
539.6944, 1466.503
540.1765, 1502.224
540.6586, 1534.777
541.1407, 1568.803
541.6229, 1604.494
542.1050, 1642.980
542.5871, 1695.546
543.0692, 1744.260
543.5513, 1768.907
544.0334, 1768.443
544.5156, 1766.702
544.9977, 1771.864
545.4798, 1782.036
545.9619, 1795.923
546.4440, 1816.295
546.9261, 1835.884
547.4083, 1854.128
547.8904, 1870.947
548.3725, 1885.599
548.8546, 1895.260
549.3367, 1907.911
549.8188, 1928.274
550.3010, 1954.837
550.7831, 1970.992
551.2652, 1977.527
551.7473, 1970.943
552.2294, 1945.718
552.7115, 1903.292
553.1937, 1858.568
553.6758, 1812.880
554.1579, 1764.261
554.6400, 1709.469
555.1221, 1649.440
555.6042, 1587.730
556.0864, 1521.995
556.5685, 1457.794
557.0506, 1397.595
557.5327, 1342.907
558.0148, 1300.513
558.4969, 1284.273
558.9791, 1273.300
559.4612, 1252.868
559.9433, 1217.850
560.4254, 1192.592
560.9075, 1183.713
561.3896, 1185.547
561.8718, 1192.948
562.3539, 1210.273
562.8360, 1225.396
563.3181, 1234.563
563.8002, 1242.202
564.2823, 1261.120
564.7645, 1294.116
565.2466, 1324.913
565.7287, 1344.576
566.2108, 1356.430
566.6929, 1376.397
567.1750, 1404.443
567.6572, 1437.763
568.1393, 1475.673
568.6214, 1516.433
569.1035, 1555.732
569.5856, 1593.565
570.0677, 1628.658
570.5499, 1658.958
571.0320, 1686.445
571.5141, 1714.461
571.9962, 1760.613
572.4783, 1791.253
572.9604, 1790.137
573.4426, 1760.631
573.9247, 1720.562
574.4068, 1671.939
574.8889, 1613.746
575.3710, 1543.714
575.8531, 1459.646
576.3353, 1379.079
576.8174, 1300.341
577.2995, 1228.739
577.7816, 1169.354
578.2637, 1123.154
578.7458, 1082.346
579.2280, 1046.099
579.7101, 1014.236
580.1922, 988.4078
580.6743, 967.5630
581.1564, 945.7537
581.6385, 915.1792
582.1207, 884.7316
582.6028, 868.4902
583.0849, 865.0837
583.5670, 862.6193
584.0491, 852.1674
584.5313, 841.1189
585.0134, 836.3329
585.4955, 841.8538
585.9776, 843.7401
586.4597, 833.9078
586.9418, 820.5278
587.4240, 813.0536
587.9061, 815.5529
588.3882, 818.1829
588.8703, 821.7318
589.3524, 824.2438
589.8345, 818.1566
590.3167, 800.4382
590.7988, 785.8074
591.2809, 782.3478
591.7630, 787.5865
592.2451, 788.8805
592.7272, 786.0884
593.2094, 782.8079
593.6915, 782.1627
594.1736, 783.1320
594.6557, 783.8267
595.1378, 783.9229
595.6199, 783.7629
596.1021, 782.0823
596.5842, 780.7063
597.0663, 782.2461
597.5485, 792.3215
598.0306, 800.4097
598.5127, 801.0673
598.9948, 796.3836
599.4769, 795.7348
599.9590, 805.7441
600.4412, 812.4615
600.9233, 809.7044
601.4054, 796.4742
601.8875, 790.1256
602.3696, 792.8049
602.8517, 797.2224
603.3339, 796.8952
603.8160, 792.2332
604.2981, 788.5742
604.7802, 786.6927
605.2623, 785.3830
605.7444, 782.0658
606.2266, 778.0124
606.7087, 776.9631
607.1908, 784.5294
607.6729, 791.1688
608.1550, 787.5635
608.6371, 776.4631
609.1193, 766.6818
609.6014, 761.3069
610.0835, 758.5258
610.5656, 758.1277
611.0477, 760.3986
611.5298, 762.5422
612.0120, 764.9951
612.4941, 766.7457
612.9762, 767.2527
613.4583, 766.7421
613.9404, 763.8486
614.4225, 757.6948
614.9047, 750.6034
615.3868, 745.3915
615.8689, 742.0247
616.3510, 740.9521
616.8331, 743.6312
617.3152, 746.9247
617.7974, 745.4653
618.2795, 740.2339
618.7616, 734.9991
619.2437, 730.7803
619.7258, 728.1492
620.2079, 729.1306
620.6901, 733.6999
621.1722, 734.7195
621.6543, 725.9457
622.1364, 715.4337
622.6185, 708.1582
623.1006, 703.5296
623.5828, 704.4012
624.0649, 714.6374
624.5470, 726.8285
625.0291, 731.9016
625.5112, 728.8115
625.9933, 723.7115
626.4755, 716.6706
626.9576, 709.6857
627.4397, 708.2054
627.9218, 711.4458
628.4039, 713.4249
628.8860, 708.4204
629.3682, 701.9094
629.8503, 702.5320
630.3324, 709.3710
630.8145, 715.3873
631.2966, 715.1712
631.7787, 713.5166
632.2609, 714.2057
632.7430, 718.7764
633.2251, 721.5046
633.7072, 722.8342
634.1893, 720.8246
634.6714, 712.7972
635.1536, 691.7893
635.6357, 681.1639
636.1178, 686.9652
636.5999, 699.4135
637.0820, 698.7593
637.5641, 684.3254
638.0463, 673.5218
638.5284, 672.7143
639.0105, 678.2795
639.4926, 685.3682
639.9747, 693.2376
640.4568, 697.4700
640.9390, 691.5829
641.4211, 683.3655
641.9032, 681.3346
642.3853, 686.0783
642.8674, 688.0119
643.3495, 679.6433
643.8317, 669.5807
644.3138, 663.7916
644.7959, 665.4347
645.2780, 666.8207
645.7601, 668.4617
646.2422, 669.3995
646.7244, 667.5403
647.2065, 661.5995
647.6886, 660.3963
648.1707, 667.5751
648.6528, 677.2921
649.1349, 676.8295
649.6171, 667.4111
650.0992, 657.7631
650.5813, 649.8029
651.0634, 645.1705
651.5455, 648.5040
652.0276, 658.1597
652.5098, 665.1455
652.9919, 661.8799
653.4740, 656.6229
653.9561, 655.4961
654.4382, 660.5187
654.9203, 660.7479
655.4025, 649.2499
655.8846, 637.1157
656.3667, 632.1304
656.8488, 637.0416
657.3309, 640.9485
657.8130, 643.4609
658.2952, 644.9555
658.7773, 646.0456
659.2594, 646.6860
659.7415, 645.9820
660.2236, 642.9340
660.7057, 639.7150
661.1879, 640.0281
661.6700, 642.8022
662.1521, 645.0544
662.6342, 644.7740
663.1163, 643.9975
663.5984, 643.9020
664.0806, 644.4552
664.5627, 645.0914
665.0448, 647.3577
665.5269, 648.0545
666.0090, 645.1138
666.4911, 637.6791
666.9733, 633.1292
667.4554, 631.6984
667.9375, 632.6895
668.4196, 637.0042
668.9017, 644.4335
669.3839, 647.1688
669.8660, 643.6469
670.3481, 639.4810
670.8302, 643.0247
671.3123, 650.7029
671.7944, 654.4349
672.2766, 649.0959
672.7587, 643.3933
673.2408, 643.2965
673.7229, 646.8736
674.2050, 650.3265
674.6871, 654.8966
675.1693, 656.6906
675.6514, 652.2545
676.1335, 643.4910
676.6156, 640.7150
677.0977, 646.0549
677.5798, 652.5793
678.0620, 657.6505
678.5441, 661.3367
679.0262, 663.2632
679.5083, 663.2965
679.9904, 664.0322
680.4725, 669.0660
680.9547, 675.7595
681.4368, 679.1473
681.9189, 678.3509
682.4010, 676.9300
682.8831, 678.7961
683.3652, 680.4976
683.8474, 678.0820
684.3295, 663.8866
684.8116, 656.3451
685.2937, 662.1702
685.7758, 674.2740
686.2579, 684.6147
686.7401, 695.1176
687.2222, 697.6832
687.7043, 687.8342
688.1864, 672.0328
688.6685, 666.3506
689.1506, 670.2693
689.6328, 675.3847
690.1149, 676.4924
690.5970, 677.5902
691.0791, 688.4283
691.5612, 706.2861
692.0433, 717.1093
692.5255, 705.6652
693.0076, 691.1857
693.4897, 686.1904
693.9718, 692.4340
694.4539, 698.4891
694.9360, 703.6464
695.4182, 707.4107
695.9003, 709.1653
696.3824, 708.0894
696.8645, 708.4585
697.3466, 710.5184
697.8287, 713.3794
698.3109, 716.8356
698.7930, 720.4902
699.2751, 721.2755
699.7572, 717.4280
700.2393, 715.1418
700.7214, 725.2343
701.2036, 740.4285
701.6857, 748.4908
702.1678, 738.5310
702.6499, 728.3344
703.1320, 724.8844
703.6141, 726.0556
704.0963, 726.2560
704.5784, 720.5138
705.0605, 720.9743
705.5426, 732.7486
706.0247, 752.5670
706.5068, 765.7933
706.9890, 772.1802
707.4711, 774.7224
707.9532, 773.1302
708.4353, 769.1976
708.9174, 767.1585
709.3995, 766.9938
709.8817, 768.7148
710.3638, 772.5851
710.8459, 778.1775
711.3280, 785.9312
711.8101, 796.4064
712.2922, 804.6522
712.7744, 807.8653
713.2565, 809.4418
713.7386, 811.7017
714.2207, 814.7977
714.7028, 818.2577
715.1849, 822.2676
715.6671, 826.3776
716.1492, 829.8333
716.6313, 832.7564
717.1134, 837.1700
717.5955, 843.6522
718.0776, 850.8252
718.5598, 857.8094
719.0419, 864.0735
719.5240, 868.4858
720.0061, 868.4749
720.4882, 869.2297
720.9703, 875.2777
721.4525, 883.7040
721.9346, 887.8900
722.4167, 883.7690
722.8988, 879.3212
723.3809, 874.4118
723.8630, 870.4255
724.3452, 873.5568
724.8273, 884.4172
725.3094, 897.9297
725.7915, 913.7238
726.2736, 929.6653
726.7557, 939.5861
727.2379, 944.0033
727.7200, 946.9969
728.2021, 951.9743
728.6842, 956.0969
729.1663, 955.1070
729.6484, 948.4195
730.1306, 946.9782
730.6127, 958.9254
731.0948, 972.8820
731.5769, 982.3687
732.0590, 985.9583
732.5411, 991.4516
733.0233, 999.2445
733.5054, 1008.053
733.9875, 1017.111
734.4696, 1026.319
734.9517, 1034.623
735.4338, 1041.930
735.9160, 1048.481
736.3981, 1054.291
736.8802, 1059.573
737.3623, 1064.417
737.8444, 1067.711
738.3266, 1072.818
738.8087, 1083.247
739.2908, 1095.581
739.7729, 1104.391
740.2551, 1104.927
740.7372, 1110.666
741.2193, 1125.284
741.7014, 1144.115
742.1835, 1156.645
742.6656, 1162.740
743.1478, 1170.007
743.6299, 1180.750
744.1120, 1194.246
744.5941, 1213.134
745.0762, 1234.306
745.5583, 1248.713
746.0405, 1243.716
746.5226, 1238.127
747.0047, 1244.142
747.4868, 1259.583
747.9689, 1270.354
748.4510, 1267.630
748.9332, 1269.206
749.4153, 1282.052
749.8974, 1304.982
750.3795, 1324.554
750.8616, 1340.439
751.3438, 1355.016
751.8259, 1368.867
752.3080, 1382.611
752.7901, 1397.560
753.2722, 1413.782
753.7543, 1432.736
754.2365, 1458.143
754.7186, 1484.805
755.2007, 1507.667
755.6828, 1525.447
756.1649, 1544.996
756.6470, 1568.775
757.1292, 1593.772
757.6113, 1617.936
758.0934, 1640.349
758.5755, 1666.901
759.0576, 1699.187
759.5397, 1731.102
760.0219, 1753.960
760.5040, 1771.314
760.9861, 1793.182
761.4682, 1820.643
761.9503, 1854.151
762.4324, 1897.594
762.9146, 1946.079
763.3967, 1993.745
763.8788, 2034.460
764.3609, 2081.882
764.8430, 2140.666
765.3251, 2205.534
765.8073, 2271.860
766.2894, 2339.342
766.7715, 2408.141
767.2536, 2476.874
767.7357, 2548.645
768.2178, 2630.984
768.7000, 2721.859
769.1821, 2810.310
769.6642, 2890.749
770.1463, 2972.167
770.6284, 3060.026
771.1105, 3154.749
771.5927, 3257.151
772.0748, 3374.568
772.5569, 3491.931
773.0390, 3603.386
773.5211, 3712.122
774.0032, 3825.778
774.4854, 3945.919
774.9675, 4066.005
775.4496, 4187.601
775.9317, 4304.816
776.4138, 4399.608
776.8959, 4474.442
777.3781, 4547.219
777.8602, 4632.968
778.3423, 4715.757
778.8244, 4781.492
779.3065, 4832.922
779.7886, 4882.289
780.2708, 4945.880
780.7529, 4993.938
781.2350, 5014.419
781.7171, 5010.275
782.1992, 5010.982
782.6813, 5020.211
783.1635, 5019.424
783.6456, 4990.241
784.1277, 4945.129
784.6098, 4928.281
785.0919, 4937.101
785.5740, 4944.923
786.0562, 4939.947
786.5383, 4922.644
787.0204, 4887.833
787.5025, 4835.423
787.9846, 4791.532
788.4667, 4766.719
788.9489, 4748.058
789.4310, 4731.952
789.9131, 4719.008
790.3952, 4695.084
790.8773, 4655.398
791.3594, 4627.948
791.8416, 4637.453
792.3237, 4675.073
792.8058, 4717.088
793.2879, 4762.758
793.7700, 4819.494
794.2521, 4891.152
794.7343, 4977.086
795.2164, 5078.567
795.6985, 5201.066
796.1806, 5319.515
796.6627, 5423.524
797.1448, 5532.357
797.6270, 5656.820
798.1091, 5797.544
798.5912, 5944.855
799.0733, 6097.179
799.5554, 6272.353
800.0375, 6488.884
800.5197, 6737.916
801.0018, 6997.932
801.4839, 7260.692
801.9660, 7570.747
802.4481, 7937.815
802.9302, 8374.702
803.4124, 8890.171
803.8945, 9479.626
804.3766, 10170.74
804.8587, 10959.98
805.3408, 11854.95
805.8229, 12866.83
806.3051, 13995.49
806.7872, 15216.58
807.2693, 16535.33
807.7514, 17929.72
808.2335, 19395.50
808.7156, 20933.34
809.1978, 22551.04
809.6799, 24263.73
810.1620, 26010.37
810.6441, 27765.68
811.1262, 29550.04
811.6083, 31365.10
812.0905, 33225.90
812.5726, 35122.24
813.0547, 37071.94
813.5368, 38985.64
814.0189, 40822.09
814.5010, 42545.66
814.9832, 43986.91
815.4653, 45139.87
815.9474, 45852.42
816.4295, 46088.59
816.9116, 45767.10
817.3937, 44757.60
817.8759, 42862.39
818.3580, 40613.30
818.8401, 37977.42
819.3222, 35143.73
819.8043, 32208.59
820.2864, 29105.84
820.7686, 26179.44
821.2507, 23466.43
821.7328, 20988.29
822.2149, 18830.13
822.6970, 16967.92
823.1791, 15313.67
823.6613, 13873.39
824.1434, 12610.66
824.6255, 11558.59
825.1076, 10658.91
825.5897, 9864.384
826.0718, 9182.556
826.5540, 8577.734
827.0361, 8043.969
827.5182, 7582.138
828.0003, 7200.054
828.4824, 6899.849
828.9645, 6599.003
829.4467, 6282.717
829.9288, 5983.801
830.4109, 5742.222
830.8930, 5542.772
831.3751, 5359.639
831.8572, 5188.104
832.3394, 5032.405
832.8215, 4898.372
833.3036, 4777.734
833.7857, 4657.942
834.2678, 4535.032
834.7499, 4430.045
835.2321, 4347.962
835.7142, 4277.099
836.1963, 4200.396
836.6784, 4121.813
837.1605, 4061.425
837.6426, 4027.528
838.1248, 3993.926
838.6069, 3931.357
839.0890, 3862.279
839.5711, 3813.096
840.0532, 3803.185
840.5353, 3787.260
841.0175, 3754.344
841.4996, 3722.669
841.9817, 3715.771
842.4638, 3735.162
842.9459, 3737.558
843.4280, 3716.441
843.9102, 3690.880
844.3923, 3680.210
844.8744, 3679.643
845.3565, 3685.109
845.8386, 3701.460
846.3207, 3702.257
846.8029, 3662.790
847.2850, 3611.900
847.7671, 3575.041
848.2492, 3558.005
848.7313, 3541.947
849.2134, 3529.784
849.6956, 3511.392
850.1777, 3471.793
850.6598, 3417.059
851.1419, 3369.484
851.6240, 3332.278
852.1061, 3294.567
852.5883, 3251.121
853.0704, 3200.995
853.5525, 3141.645
854.0346, 3070.180
854.5167, 2998.327
854.9988, 2921.210
855.4810, 2851.039
855.9631, 2798.179
856.4452, 2762.757
856.9273, 2722.149
857.4094, 2675.133
857.8915, 2634.071
858.3737, 2617.904
858.8558, 2610.619
859.3379, 2590.233
859.8200, 2553.349
860.3021, 2519.089
860.7842, 2497.579
861.2664, 2478.939
861.7485, 2457.643
862.2306, 2432.971
862.7127, 2410.559
863.1948, 2389.598
863.6769, 2373.676
864.1591, 2368.848
864.6412, 2370.004
865.1233, 2362.772
865.6054, 2347.538
866.0875, 2336.090
866.5696, 2344.838
867.0518, 2351.644
867.5339, 2339.025
868.0160, 2304.582
868.4981, 2281.021
868.9802, 2272.291
869.4623, 2265.995
869.9445, 2254.762
870.4266, 2241.391
870.9087, 2241.393
871.3908, 2253.539
871.8729, 2264.731
872.3550, 2268.046
872.8372, 2266.281
873.3193, 2258.855
873.8014, 2247.370
874.2835, 2240.368
874.7656, 2245.325
875.2477, 2247.819
875.7299, 2240.023
876.2120, 2227.960
876.6941, 2241.035
877.1762, 2279.117
877.6583, 2306.484
878.1404, 2300.165
878.6226, 2282.406
879.1047, 2280.476
879.5869, 2290.887
880.0690, 2304.570
880.5511, 2328.748
881.0332, 2343.260
881.5153, 2334.424
881.9974, 2314.670
882.4796, 2308.270
882.9617, 2316.288
883.4438, 2333.052
883.9259, 2360.026
884.4080, 2389.095
884.8901, 2406.108
885.3723, 2415.087
885.8544, 2425.168
886.3365, 2437.480
886.8186, 2454.650
887.3007, 2480.926
887.7828, 2511.383
888.2650, 2538.991
888.7471, 2562.002
889.2292, 2585.610
889.7113, 2609.973
890.1934, 2635.743
890.6755, 2664.748
891.1577, 2696.073
891.6398, 2725.948
892.1219, 2751.496
892.6040, 2785.619
893.0861, 2843.961
893.5682, 2910.708
894.0504, 2970.612
894.5325, 3016.774
895.0146, 3067.547
895.4967, 3122.784
895.9788, 3182.695
896.4609, 3240.990
896.9431, 3301.667
897.4252, 3392.548
897.9073, 3515.435
898.3894, 3647.737
898.8715, 3773.324
899.3536, 3902.786
899.8358, 4044.295
900.3179, 4196.865
900.8000, 4371.954
901.2821, 4563.996
901.7642, 4783.130
902.2463, 5034.844
902.7285, 5316.345
903.2106, 5633.706
903.6927, 5986.942
904.1748, 6399.901
904.6569, 6893.480
905.1390, 7454.791
905.6212, 8061.197
906.1033, 8716.572
906.5854, 9477.228
907.0675, 10373.62
907.5496, 11358.59
908.0317, 12422.37
908.5139, 13559.46
908.9960, 14779.20
909.4781, 16077.16
909.9602, 17448.10
910.4423, 18879.77
910.9244, 20373.45
911.4066, 21938.06
911.8887, 23552.21
912.3708, 25200.87
912.8529, 26890.20
913.3350, 28586.34
913.8171, 30284.70
914.2993, 31970.52
914.7814, 33657.75
915.2635, 35364.66
915.7456, 36856.34
916.2277, 38123.70
916.7098, 39067.59
917.1920, 39615.30
917.6741, 39739.89
918.1562, 39375.34
918.6383, 38473.10
919.1204, 37221.09
919.6025, 35520.26
920.0847, 33600.27
920.5668, 31579.43
921.0489, 29424.80
921.5310, 27325.14
922.0131, 25279.00
922.4952, 23361.98
922.9774, 21626.73
923.4595, 20071.51
923.9416, 18702.16
924.4237, 17521.57
924.9058, 16480.16
925.3879, 15532.72
925.8701, 14744.21
926.3522, 14130.84
926.8343, 13682.80
927.3164, 13339.11
927.7985, 13097.25
928.2806, 12965.62
928.7628, 12966.11
929.2449, 13063.78
929.7270, 13210.24
930.2091, 13408.61
930.6912, 13671.87
931.1733, 13985.58
931.6555, 14386.71
932.1376, 14919.48
932.6197, 15530.25
933.1018, 16130.36
933.5839, 16717.61
934.0660, 17345.90
934.5482, 18030.48
935.0303, 18760.28
935.5124, 19558.13
935.9945, 20395.21
936.4766, 21210.07
936.9587, 21992.16
937.4409, 22777.12
937.9230, 23629.53
938.4051, 24457.56
938.8872, 25190.09
939.3693, 25824.06
939.8514, 26427.76
940.3336, 27003.15
940.8157, 27496.18
941.2978, 27880.76
941.7799, 28147.86
942.2620, 28288.59
942.7441, 28302.30
943.2263, 28189.19
943.7084, 27939.98
944.1905, 27564.72
944.6726, 27066.08
945.1547, 26451.36
945.6368, 25764.84
946.1190, 25000.44
946.6011, 24167.69
947.0832, 23237.48
947.5653, 22275.37
948.0474, 21354.57
948.5295, 20459.99
949.0117, 19556.62
949.4938, 18594.22
949.9759, 17672.28
950.4580, 16812.65
950.9401, 15993.26
951.4222, 15184.11
951.9044, 14380.83
952.3865, 13646.35
952.8686, 12993.91
953.3507, 12396.45
953.8328, 11831.68
954.3149, 11301.58
954.7971, 10805.84
955.2792, 10355.46
955.7613, 9935.644
956.2434, 9542.499
956.7255, 9179.217
957.2076, 8848.709
957.6898, 8549.701
958.1719, 8282.825
958.6540, 8045.745
959.1361, 7823.880
959.6182, 7600.353
960.1003, 7389.652
960.5825, 7204.921
961.0646, 7043.926
961.5467, 6890.776
962.0288, 6736.668
962.5109, 6600.318
962.9930, 6489.283
963.4752, 6399.334
963.9573, 6330.115
964.4394, 6278.122
964.9215, 6215.880
965.4036, 6124.544
965.8857, 6039.790
966.3679, 5991.198
966.8500, 5965.958
967.3321, 5947.491
967.8142, 5937.545
968.2963, 5925.452
968.7784, 5906.938
969.2606, 5895.023
969.7427, 5909.900
970.2248, 5942.764
970.7069, 5960.394
971.1890, 5960.373
971.6711, 5958.349
972.1533, 5963.516
972.6354, 5970.946
973.1175, 5976.187
973.5996, 5979.352
974.0817, 5989.715
974.5638, 6009.100
975.0460, 6029.938
975.5281, 6053.756
976.0102, 6072.932
976.4923, 6069.015
976.9744, 6046.749
977.4565, 6020.079
977.9387, 5989.557
978.4208, 5962.136
978.9029, 5950.414
979.3850, 5938.209
979.8671, 5899.359
980.3492, 5827.180
980.8314, 5769.156
981.3135, 5731.514
981.7956, 5703.124
982.2777, 5678.745
982.7598, 5652.025
983.2419, 5612.558
983.7241, 5557.614
984.2062, 5500.325
984.6883, 5439.138
985.1704, 5381.958
985.6525, 5330.614
986.1346, 5285.618
986.6168, 5258.081
987.0989, 5247.197
987.5810, 5227.771
988.0631, 5172.070
988.5452, 5112.174
989.0273, 5083.710
989.5095, 5075.266
989.9916, 5057.407
990.4737, 5006.035
990.9558, 4974.783
991.4379, 4974.547
991.9200, 4990.673
992.4022, 5002.392
992.8843, 5010.831
993.3664, 5021.294
993.8485, 5034.699
994.3306, 5049.868
994.8127, 5068.948
995.2949, 5087.445
995.7770, 5095.620
996.2591, 5087.103
996.7412, 5116.897
997.2233, 5193.517
997.7054, 5276.365
998.1876, 5341.296
998.6697, 5394.738
999.1518, 5453.172
999.6339, 5514.406
1000.116, 5570.428
1000.598, 5612.622
1001.080, 5655.271
1001.562, 5699.110
1002.044, 5748.705
1002.527, 5817.408
1003.009, 5906.387
1003.491, 5991.834
1003.973, 6069.720
1004.455, 6135.507
1004.937, 6178.484
1005.419, 6207.683
1005.901, 6229.718
1006.384, 6239.250
1006.866, 6271.769
1007.348, 6347.964
1007.830, 6420.578
1008.312, 6458.180
1008.794, 6468.473
1009.276, 6503.668
1009.758, 6559.702
1010.240, 6604.016
1010.723, 6612.843
1011.205, 6608.658
1011.687, 6599.466
1012.169, 6588.595
1012.651, 6585.318
1013.133, 6596.212
1013.615, 6595.376
1014.097, 6577.971
1014.580, 6550.211
1015.062, 6521.023
1015.544, 6488.101
1016.026, 6443.834
1016.508, 6384.137
1016.990, 6330.865
1017.472, 6303.572
1017.954, 6275.294
1018.436, 6232.500
1018.919, 6175.571
1019.401, 6098.931
1019.883, 6002.511
1020.365, 5912.258
1020.847, 5850.691
1021.329, 5796.142
1021.811, 5727.026
1022.293, 5648.207
1022.776, 5570.291
1023.258, 5501.076
1023.740, 5422.026
1024.222, 5327.250
1024.704, 5228.548
1025.186, 5142.856
1025.668, 5067.307
1026.150, 4996.307
1026.632, 4929.037
1027.115, 4861.003
1027.597, 4782.088
1028.079, 4707.940
1028.561, 4649.259
1029.043, 4605.354
1029.525, 4567.976
1030.007, 4539.559
1030.489, 4502.512
1030.972, 4445.681
1031.454, 4379.385
1031.936, 4310.661
1032.418, 4243.533
1032.900, 4187.614
1033.382, 4151.531
1033.864, 4118.942
1034.346, 4090.563
1034.828, 4061.478
1035.311, 4025.760
1035.793, 3984.211
1036.275, 3943.846
1036.757, 3904.893
1037.239, 3867.669
1037.721, 3831.245
1038.203, 3797.452
1038.685, 3770.329
1039.167, 3748.741
1039.650, 3720.820
1040.132, 3686.064
1040.614, 3646.983
1041.096, 3601.984
1041.578, 3558.735
1042.060, 3535.949
1042.542, 3523.495
1043.024, 3501.156
1043.507, 3441.804
1043.989, 3428.484
1044.471, 3408.381
1044.953, 3381.845
1045.435, 3329.642
1045.917, 3310.592
1046.399, 3278.250
1046.881, 3245.372
1047.364, 3230.921
1047.846, 3182.459
1048.328, 3167.773
1048.810, 3139.601
1049.292, 3117.609
1049.774, 3079.883
1050.256, 3045.397
1050.738, 3015.792
1051.220, 2994.770
1051.703, 2975.499
1052.185, 2942.956
1052.667, 2907.794
1053.149, 2892.960
1053.631, 2910.740
1054.113, 2911.026
1054.595, 2865.979
1055.077, 2816.750
1055.559, 2783.522
1056.042, 2764.248
1056.524, 2744.135
1057.006, 2723.182
1057.488, 2701.360
1057.970, 2675.195
1058.452, 2651.737
1058.934, 2636.426
1059.416, 2626.396
1059.899, 2616.216
1060.381, 2605.596
1060.863, 2594.520
1061.345, 2582.350
1061.827, 2572.330
1062.309, 2573.497
1062.791, 2575.967
1063.273, 2560.469
1063.755, 2526.043
1064.238, 2502.451
1064.720, 2507.872
1065.202, 2512.145
1065.684, 2506.243
1066.166, 2493.539
1066.648, 2482.431
1067.130, 2472.981
1067.612, 2464.988
1068.094, 2459.760
1068.577, 2452.656
1069.059, 2436.049
1069.541, 2419.489
1070.023, 2412.886
1070.505, 2418.766
1070.987, 2419.565
1071.469, 2414.839
1071.951, 2409.531
1072.434, 2404.328
1072.916, 2402.370
1073.398, 2414.501
1073.880, 2433.834
1074.362, 2436.041
1074.844, 2396.261
1075.326, 2373.242
1075.808, 2378.467
1076.291, 2394.998
1076.773, 2404.199
1077.255, 2404.848
1077.737, 2387.305
1078.219, 2348.988
1078.701, 2322.620
1079.183, 2338.061
1079.665, 2357.081
1080.147, 2360.573
1080.630, 2350.837
1081.112, 2340.791
1081.594, 2330.452
1082.076, 2320.004
1082.558, 2307.922
1083.040, 2298.823
1083.522, 2300.125
1084.004, 2305.451
1084.486, 2306.226
1084.969, 2300.954
1085.451, 2291.596
1085.933, 2275.924
1086.415, 2264.855
1086.897, 2274.908
1087.379, 2291.092
1087.861, 2282.463
1088.343, 2254.794
1088.826, 2234.683
1089.308, 2241.383
1089.790, 2243.854
1090.272, 2236.006
1090.754, 2222.150
1091.236, 2207.671
1091.718, 2192.918
1092.200, 2179.925
1092.682, 2169.281
1093.165, 2157.843
1093.647, 2143.414
1094.129, 2127.772
1094.611, 2111.697
1095.093, 2095.290
1095.575, 2077.804
1096.057, 2059.005
1096.539, 2045.926
1097.022, 2045.700
1097.504, 2043.763
1097.986, 2018.579
1098.468, 1985.109
1098.950, 1965.275
1099.432, 1970.348
1099.914, 1966.864
1100.396, 1953.544
1100.879, 1936.106
1101.361, 1916.777
1101.843, 1897.094
1102.325, 1878.782
1102.807, 1862.250
1103.289, 1849.229
1103.771, 1848.732
1104.253, 1839.456
1104.735, 1814.348
1105.218, 1783.630
1105.700, 1760.180
1106.182, 1743.554
1106.664, 1734.576
1107.146, 1733.338
1107.628, 1730.694
1108.110, 1718.255
1108.592, 1705.525
1109.074, 1698.350
1109.557, 1695.310
1110.039, 1692.838
1110.521, 1691.011
1111.003, 1679.334
1111.485, 1650.525
1111.967, 1624.287
1112.449, 1627.675
1112.931, 1639.403
1113.414, 1633.301
1113.896, 1600.533
1114.378, 1586.721
1114.860, 1597.016
1115.342, 1603.481
1115.824, 1584.040
1116.306, 1556.632
1116.788, 1553.448
1117.271, 1564.325
1117.753, 1566.519
1118.235, 1542.116
1118.717, 1524.993
1119.199, 1518.945
1119.681, 1517.189
1120.163, 1513.548
1120.645, 1508.719
1121.127, 1505.402
1121.609, 1503.341
1122.092, 1499.367
1122.574, 1485.631
1123.056, 1477.928
1123.538, 1485.043
1124.020, 1498.002
1124.502, 1497.155
1124.984, 1484.465
1125.466, 1476.958
1125.949, 1478.199
1126.431, 1481.169
1126.913, 1480.712
1127.395, 1480.457
1127.877, 1483.827
1128.359, 1490.157
1128.841, 1494.305
1129.323, 1496.298
1129.806, 1495.015
1130.288, 1487.869
1130.770, 1482.002
1131.252, 1485.285
1131.734, 1493.977
1132.216, 1503.565
1132.698, 1514.077
1133.180, 1524.106
1133.662, 1534.542
1134.145, 1540.376
1134.627, 1531.586
1135.109, 1520.828
1135.591, 1533.419
1136.073, 1560.090
1136.555, 1577.034
1137.037, 1568.883
1137.519, 1562.595
1138.001, 1558.073
1138.484, 1559.288
1138.966, 1575.601
1139.448, 1599.523
1139.930, 1609.366
1140.412, 1606.194
1140.894, 1609.105
1141.376, 1635.139
1141.858, 1656.484
1142.341, 1664.031
1142.823, 1665.221
1143.305, 1676.236
1143.787, 1693.591
1144.269, 1700.973
1144.751, 1695.037
1145.233, 1686.166
1145.715, 1673.260
1146.198, 1666.755
1146.680, 1676.472
1147.162, 1696.388
1147.644, 1696.712
1148.126, 1678.515
1148.608, 1655.911
1149.090, 1630.314
1149.572, 1608.996
1150.054, 1602.979
1150.536, 1599.920
1151.019, 1586.449
1151.501, 1561.143
1151.983, 1544.809
1152.465, 1537.821
1152.947, 1528.823
1153.429, 1511.043
1153.911, 1489.251
1154.393, 1466.371
1154.876, 1443.327
1155.358, 1421.665
1155.840, 1401.325
1156.322, 1383.632
1156.804, 1369.240
1157.286, 1354.044
1157.768, 1332.706
1158.250, 1310.084
1158.733, 1292.132
1159.215, 1278.362
1159.697, 1266.090
1160.179, 1258.087
1160.661, 1243.596
1161.143, 1219.302
1161.625, 1194.043
1162.107, 1176.613
1162.589, 1165.477
1163.072, 1161.196
1163.554, 1162.854
1164.036, 1158.002
1164.518, 1138.131
1165.000, 1120.595
1165.482, 1108.995
1165.964, 1102.492
1166.446, 1102.595
1166.928, 1106.040
1167.411, 1105.377
1167.893, 1098.853
1168.375, 1090.859
1168.857, 1082.274
1169.339, 1072.888
1169.821, 1062.086
1170.303, 1050.911
1170.785, 1042.277
1171.268, 1035.810
1171.750, 1030.094
1172.232, 1025.011
1172.714, 1019.946
1173.196, 1015.509
1173.678, 1010.109
1174.160, 1001.971
1174.642, 991.9313
1175.125, 986.6178
1175.607, 985.3651
1176.089, 984.7822
1176.571, 983.5300
1177.053, 982.2027
1177.535, 982.9473
1178.017, 982.2065
1178.499, 975.0245
1178.981, 961.4978
1179.464, 957.3082
1179.946, 961.7580
1180.428, 961.9616
1180.910, 941.8367
1181.392, 924.0192
1181.874, 923.5217
1182.356, 931.4841
1182.838, 934.4727
1183.320, 932.3289
1183.803, 931.5295
1184.285, 932.7039
1184.767, 930.2757
1185.249, 913.2314
1185.731, 897.6085
1186.213, 897.0558
1186.695, 906.6084
1187.177, 912.7250
1187.660, 915.4533
1188.142, 913.4507
1188.624, 906.1770
1189.106, 896.9245
1189.588, 882.6449
1190.070, 872.5244
1190.552, 879.7011
1191.034, 900.1515
1191.516, 902.1797
1191.999, 883.2045
1192.481, 871.3624
1192.963, 875.5236
1193.445, 881.8329
1193.927, 875.6856
1194.409, 865.2050
1194.891, 857.8799
1195.373, 854.3006
1195.855, 854.9320
1196.338, 860.4421
1196.820, 864.5473
1197.302, 865.1758
1197.784, 862.5742
1198.266, 853.6832
1198.748, 843.4525
1199.230, 839.3116
1199.712, 843.8693
1200.195, 841.2045
1200.677, 830.1461
1201.159, 820.0073
1201.641, 815.6779
1202.123, 814.9688
1202.605, 816.7601
1203.087, 820.0045
1203.569, 823.2915
1204.052, 827.6990
1204.534, 828.3055
1205.016, 824.8212
1205.498, 819.2919
1205.980, 810.7971
1206.462, 802.8437
1206.944, 802.5325
1207.426, 805.3673
1207.908, 799.4523
1208.391, 775.1537
1208.873, 769.7500
1209.355, 788.2304
1209.837, 806.8157
1210.319, 800.2147
1210.801, 786.5572
1211.283, 788.9214
1211.765, 802.3212
1212.247, 806.5853
1212.730, 797.4112
1213.212, 788.0147
1213.694, 779.1480
1214.176, 773.1941
1214.658, 776.4440
1215.140, 780.8286
1215.622, 774.5905
1216.104, 759.8654
1216.587, 753.3167
1217.069, 759.7880
1217.551, 759.9633
1218.033, 749.4950
1218.515, 737.3583
1218.997, 730.4651
1219.479, 729.5118
1219.961, 740.3111
1220.443, 761.0768
1220.926, 764.7571
1221.408, 744.5079
1221.890, 732.0923
1222.372, 736.6534
1222.854, 745.1806
1223.336, 740.7772
1223.818, 732.4490
1224.300, 730.7398
1224.782, 737.2498
1225.265, 744.0801
1225.747, 752.2946
1226.229, 754.8445
1226.711, 747.9588
1227.193, 738.9984
1227.675, 738.8914
1228.157, 740.6066
1228.639, 733.7280
1229.122, 715.7587
1229.604, 709.0289
1230.086, 714.9303
1230.568, 722.5861
1231.050, 727.9673
1231.532, 732.9820
1232.014, 689.9069
1232.496, 703.8923
1232.979, 711.0846
1233.461, 711.8550
1233.943, 686.9575
1234.425, 695.2048
1234.907, 690.1694
1235.389, 684.5891
1235.871, 697.5018
1236.353, 676.3373
1236.835, 688.9568
1237.318, 688.0871
1237.800, 693.3926
1238.282, 685.3333
1238.764, 681.4017
1239.246, 690.8398
1239.728, 692.8749
1240.210, 683.2770
1240.692, 688.9749
1241.175, 667.3404
1241.657, 669.6912
1242.139, 682.3885
1242.621, 673.4626
1243.103, 679.4048
1243.585, 679.6846
1244.067, 654.2295
1244.549, 673.5298
1245.031, 673.4746
1245.514, 653.5429
1245.996, 671.3097
1246.478, 654.1208
1246.960, 649.4092
1247.442, 654.0869
1247.924, 648.9766
1248.406, 659.2985
1248.888, 654.7534
1249.370, 648.8796
1249.853, 648.7996
1250.335, 632.2966
1250.817, 646.2677
1251.299, 639.4225
1251.781, 642.9244
1252.263, 648.7722
1252.745, 636.6608
1253.227, 643.5620
1253.710, 620.9766
1254.192, 623.0640
1254.674, 622.4954
1255.156, 637.6951
1255.638, 615.2564
1256.120, 616.6585
1256.602, 628.2117
1257.084, 625.5615
1257.567, 628.8466
1258.049, 614.5540
1258.531, 616.7772
1259.013, 614.4482
1259.495, 627.8502
1259.977, 628.8329
1260.459, 614.8387
1260.941, 600.9075
1261.423, 615.4420
1261.906, 602.9934
1262.388, 605.1035
1262.870, 592.1806
1263.352, 592.2372
1263.834, 592.0884
1264.316, 598.5927
1264.798, 584.9220
1265.280, 597.4216
1265.762, 594.7957
1266.245, 596.6219
1266.727, 597.9555
1267.209, 578.9919
1267.691, 576.6671
1268.173, 598.1517
1268.655, 583.3260
1269.137, 575.8292
1269.619, 585.4004
1270.102, 592.9016
1270.584, 592.3676
1271.066, 577.8934
1271.548, 563.5789
1272.030, 570.6089
1272.512, 585.8383
1272.994, 594.8366
1273.476, 596.1611
1273.958, 594.7632
1274.441, 590.5048
1274.923, 584.7296
1275.405, 576.9852
1275.887, 571.3876
1276.369, 574.2313
1276.851, 579.7228
1277.333, 582.3762
1277.815, 582.4199
1278.297, 583.8183
1278.780, 586.7403
1279.262, 586.5291
1279.744, 581.4758
1280.226, 577.1772
1280.708, 580.2814
1281.190, 583.8413
1281.672, 582.1348
1282.154, 576.8642
1282.637, 573.9862
1283.119, 573.3663
1283.601, 573.9233
1284.083, 575.5253
1284.565, 577.4959
1285.047, 582.9609
1285.529, 584.1295
1286.011, 574.9750
1286.494, 561.0216
1286.976, 558.8784
1287.458, 565.5619
1287.940, 571.8363
1288.422, 576.0895
1288.904, 577.4798
1289.386, 572.0642
1289.868, 568.7600
1290.350, 571.1191
1290.833, 576.3306
1291.315, 580.5906
1291.797, 582.9099
1292.279, 580.2271
1292.761, 571.0821
1293.243, 565.4610
1293.725, 565.6826
1294.207, 565.8951
1294.689, 563.9829
1295.172, 561.6170
1295.654, 559.6727
1296.136, 559.6443
1296.618, 565.6064
1297.100, 578.9500
1297.582, 581.2191
1298.064, 570.2449
1298.546, 562.3514
1299.029, 563.0725
1299.511, 567.1554
1299.993, 570.5450
1300.475, 573.5035
1300.957, 576.4060
1301.439, 579.1364
1301.921, 580.6472
1302.403, 580.9886
1302.885, 581.7004
1303.368, 583.5361
1303.850, 584.4077
1304.332, 580.6892
1304.814, 577.8645
1305.296, 579.8940
1305.778, 584.9999
1306.260, 586.9292
1306.742, 586.3124
1307.224, 585.9583
1307.707, 586.8678
1308.189, 586.1578
1308.671, 578.8932
1309.153, 575.4412
1309.635, 581.7667
1310.117, 591.2788
1310.599, 587.4034
1311.081, 576.8537
1311.564, 574.3351
1312.046, 584.1938
1312.528, 588.6002
1313.010, 584.4655
1313.492, 579.0766
1313.974, 574.1914
1314.456, 570.8943
##END=



