##NAMES=Pyrope
##RRUFFID=R100153
##IDEAL CHEMISTRY=Mg_3_Al_2_(SiO_4_)_3_
##LOCALITY=Sri Lanka
##OWNER=Pinch
##SOURCE=William W. Pinch
##DESCRIPTION=Light purplish-red gemstones. X-ray diffraction and Raman spectra were collected from the gemstone on the left.
##STATUS=The identification of this mineral has been confirmed only by single crystal X-ray diffraction.
##URL=rruff.info/R100153
131.5330, 11.29959
132.0151, 11.79212
132.4972, 12.13345
132.9794, 12.32319
133.4615, 12.57152
133.9436, 13.08678
134.4257, 13.84598
134.9078, 14.46705
135.3899, 14.88824
135.8721, 15.15310
136.3542, 15.35285
136.8363, 15.45881
137.3184, 15.62837
137.8005, 15.92731
138.2826, 16.33154
138.7648, 17.09391
139.2469, 18.34691
139.7290, 20.02467
140.2111, 21.49510
140.6932, 22.62314
141.1753, 23.81899
141.6575, 25.54400
142.1396, 28.09852
142.6217, 30.40419
143.1038, 32.16689
143.5859, 33.36927
144.0681, 34.70383
144.5502, 36.25304
145.0323, 37.87108
145.5144, 39.45131
145.9965, 41.15879
146.4786, 42.54713
146.9608, 43.36674
147.4429, 43.40682
147.9250, 43.83295
148.4071, 44.66314
148.8892, 45.87440
149.3713, 47.42876
149.8535, 50.07344
150.3356, 52.34145
150.8177, 53.65490
151.2998, 53.02795
151.7819, 53.58123
152.2640, 56.16054
152.7462, 59.84198
153.2283, 62.92707
153.7104, 65.04772
154.1925, 66.78014
154.6746, 68.25340
155.1567, 69.14745
155.6389, 70.33318
156.1210, 72.31030
156.6031, 74.68648
157.0852, 76.51822
157.5673, 77.15372
158.0495, 77.52094
158.5316, 78.09258
159.0137, 79.15255
159.4958, 80.12451
159.9779, 81.01602
160.4600, 81.74367
160.9422, 82.03515
161.4243, 81.27876
161.9064, 80.35385
162.3885, 79.87122
162.8706, 80.40178
163.3527, 80.89333
163.8349, 80.58691
164.3170, 79.72749
164.7991, 79.48600
165.2812, 81.04205
165.7633, 83.19305
166.2454, 84.84164
166.7276, 85.07312
167.2097, 85.23775
167.6918, 86.43851
168.1739, 88.50180
168.6560, 90.07650
169.1381, 89.68027
169.6203, 88.50916
170.1024, 87.44767
170.5845, 87.58575
171.0666, 88.48833
171.5487, 89.99425
172.0309, 92.02579
172.5130, 93.46247
172.9951, 93.03798
173.4772, 91.59988
173.9593, 90.46164
174.4414, 90.13853
174.9236, 90.35123
175.4057, 91.05618
175.8878, 92.26304
176.3699, 93.20676
176.8520, 93.02497
177.3341, 92.10861
177.8163, 91.30295
178.2984, 91.26580
178.7805, 91.45345
179.2626, 90.92781
179.7447, 89.63255
180.2268, 88.24543
180.7090, 87.52627
181.1911, 87.29951
181.6732, 87.03830
182.1553, 86.27535
182.6374, 85.34158
183.1195, 85.08402
183.6017, 85.61094
184.0838, 86.27101
184.5659, 86.16721
185.0480, 85.46133
185.5301, 84.97154
186.0123, 85.11609
186.4944, 85.78205
186.9765, 86.72110
187.4586, 88.00890
187.9407, 89.28112
188.4228, 89.87107
188.9050, 89.85044
189.3871, 90.01759
189.8692, 90.88258
190.3513, 92.30882
190.8334, 93.61796
191.3155, 94.72372
191.7977, 95.82879
192.2798, 97.32871
192.7619, 99.22286
193.2440, 101.0721
193.7261, 102.6513
194.2082, 103.9763
194.6904, 105.2566
195.1725, 106.4499
195.6546, 107.7070
196.1367, 109.2578
196.6188, 111.1145
197.1009, 113.1658
197.5831, 115.3321
198.0652, 117.6318
198.5473, 120.2516
199.0294, 123.3890
199.5115, 126.5879
199.9937, 128.6981
200.4758, 129.4989
200.9579, 130.4477
201.4400, 132.4529
201.9221, 135.6021
202.4042, 138.4928
202.8864, 140.9095
203.3685, 143.1599
203.8506, 146.2505
204.3327, 150.4974
204.8148, 154.1922
205.2969, 156.1288
205.7791, 156.0065
206.2612, 156.3727
206.7433, 157.5313
207.2254, 159.1389
207.7075, 160.3839
208.1896, 161.2994
208.6718, 161.7706
209.1539, 161.7750
209.6360, 161.3491
210.1181, 160.2690
210.6002, 158.4018
211.0823, 155.9485
211.5645, 153.4856
212.0466, 151.0932
212.5287, 148.4836
213.0108, 145.4623
213.4929, 141.9069
213.9750, 138.3622
214.4572, 134.8249
214.9393, 131.3379
215.4214, 127.9291
215.9035, 124.6103
216.3856, 121.3116
216.8678, 118.0478
217.3499, 114.7431
217.8320, 111.6027
218.3141, 108.7915
218.7962, 106.1225
219.2783, 102.9033
219.7605, 98.66829
220.2426, 94.77319
220.7247, 92.06638
221.2068, 91.00908
221.6889, 89.84984
222.1710, 88.56786
222.6532, 87.12931
223.1353, 85.40882
223.6174, 83.12666
224.0995, 81.00123
224.5816, 79.44267
225.0637, 78.70398
225.5459, 77.84382
226.0280, 76.77155
226.5101, 75.57020
226.9922, 74.48385
227.4743, 73.34307
227.9564, 72.56430
228.4386, 72.44909
228.9207, 73.48451
229.4028, 73.99427
229.8849, 73.82030
230.3670, 73.13973
230.8492, 72.40149
231.3313, 71.49059
231.8134, 70.70574
232.2955, 70.18082
232.7776, 69.99390
233.2597, 69.90983
233.7419, 69.93726
234.2240, 70.06448
234.7061, 70.29562
235.1882, 70.81394
235.6703, 71.16159
236.1524, 71.13046
236.6346, 70.58315
237.1167, 69.92605
237.5988, 68.91007
238.0809, 67.86739
238.5630, 67.63726
239.0451, 68.71716
239.5273, 69.86514
240.0094, 70.58408
240.4915, 70.74593
240.9736, 70.81527
241.4557, 70.84432
241.9378, 70.75745
242.4200, 70.32410
242.9021, 69.10583
243.3842, 68.21808
243.8663, 68.17933
244.3484, 69.40943
244.8306, 70.21670
245.3127, 70.41917
245.7948, 70.28973
246.2769, 70.36934
246.7590, 70.94141
247.2411, 71.23734
247.7233, 70.89462
248.2054, 69.63825
248.6875, 68.79090
249.1696, 68.53954
249.6517, 68.57930
250.1338, 68.36860
250.6160, 67.59247
251.0981, 67.14586
251.5802, 67.48356
252.0623, 68.90949
252.5444, 69.46973
253.0265, 68.59942
253.5087, 67.32377
253.9908, 67.24954
254.4729, 69.17604
254.9550, 70.66874
255.4371, 70.88049
255.9192, 69.59134
256.4014, 68.83558
256.8835, 68.84041
257.3656, 69.15381
257.8477, 69.20702
258.3298, 68.84745
258.8120, 68.56827
259.2941, 68.49184
259.7762, 68.62659
260.2583, 68.83005
260.7404, 69.12781
261.2225, 69.46278
261.7047, 69.83166
262.1868, 70.35784
262.6689, 70.57500
263.1510, 70.28014
263.6331, 69.49506
264.1152, 68.94690
264.5974, 68.67332
265.0795, 68.58530
265.5616, 68.64150
266.0437, 68.90945
266.5258, 69.09309
267.0079, 69.08532
267.4901, 68.92750
267.9722, 69.04490
268.4543, 69.60796
268.9364, 70.11199
269.4185, 70.03983
269.9006, 69.18867
270.3828, 68.69231
270.8649, 68.89820
271.3470, 69.57153
271.8291, 69.43610
272.3112, 68.12463
272.7933, 66.95927
273.2755, 67.21079
273.7576, 69.21765
274.2397, 70.17439
274.7218, 69.35570
275.2039, 67.49771
275.6860, 66.92861
276.1682, 67.88538
276.6503, 69.21866
277.1324, 70.31569
277.6145, 71.17171
278.0966, 71.73589
278.5787, 71.96085
279.0609, 71.94901
279.5430, 71.91433
280.0251, 71.86428
280.5072, 71.75880
280.9893, 71.53358
281.4715, 71.19239
281.9536, 70.94128
282.4357, 70.77200
282.9178, 70.72684
283.3999, 70.98063
283.8820, 71.55675
284.3642, 71.98849
284.8463, 71.88485
285.3284, 71.32151
285.8105, 71.25142
286.2926, 71.75403
286.7747, 72.49944
287.2569, 73.13692
287.7390, 73.66063
288.2211, 73.93742
288.7032, 73.76477
289.1853, 73.27670
289.6674, 73.02676
290.1496, 73.00654
290.6317, 73.26157
291.1138, 74.07233
291.5959, 75.33134
292.0780, 76.24977
292.5602, 76.45117
293.0423, 76.19136
293.5244, 76.02273
294.0065, 75.94121
294.4886, 76.09825
294.9707, 76.87086
295.4529, 78.05611
295.9350, 78.86689
296.4171, 78.91399
296.8992, 78.66310
297.3813, 78.95943
297.8634, 79.76499
298.3456, 80.68354
298.8277, 81.22849
299.3098, 81.66476
299.7919, 82.68933
300.2740, 84.71994
300.7561, 86.89064
301.2383, 87.72092
301.7204, 87.52241
302.2025, 87.65862
302.6846, 89.63403
303.1667, 92.30717
303.6488, 93.81327
304.1310, 93.54433
304.6131, 93.06092
305.0952, 93.92256
305.5773, 95.81175
306.0594, 97.86201
306.5415, 99.70305
307.0237, 101.4403
307.5058, 103.2068
307.9879, 105.0044
308.4700, 106.8265
308.9521, 108.5629
309.4343, 110.3372
309.9164, 112.4009
310.3985, 114.9988
310.8806, 117.8557
311.3627, 120.8781
311.8448, 124.0900
312.3270, 127.1092
312.8091, 129.7378
313.2912, 132.0429
313.7733, 134.1032
314.2554, 135.4678
314.7375, 137.0087
315.2197, 139.6774
315.7018, 143.2685
316.1839, 145.8554
316.6660, 145.8717
317.1481, 144.8853
317.6302, 144.2074
318.1124, 144.9442
318.5945, 145.0525
319.0766, 143.4423
319.5587, 140.5552
320.0408, 137.9083
320.5229, 135.7333
321.0051, 134.0987
321.4872, 133.1038
321.9693, 133.1340
322.4514, 133.1255
322.9335, 132.7405
323.4156, 132.1839
323.8978, 131.8504
324.3799, 131.5218
324.8620, 131.6755
325.3441, 132.5109
325.8262, 134.1315
326.3083, 136.1269
326.7905, 138.7059
327.2726, 141.5763
327.7547, 144.3427
328.2368, 146.5200
328.7189, 149.1069
329.2010, 152.3487
329.6832, 156.2552
330.1653, 160.3920
330.6474, 165.1715
331.1295, 169.8795
331.6116, 173.8852
332.0938, 175.9901
332.5759, 179.3303
333.0580, 184.4752
333.5401, 191.2775
334.0222, 198.3779
334.5043, 206.3711
334.9865, 213.9256
335.4686, 219.9533
335.9507, 223.1352
336.4328, 228.5719
336.9149, 237.3163
337.3970, 248.2076
337.8792, 257.7731
338.3613, 265.7779
338.8434, 273.5128
339.3255, 281.5522
339.8076, 289.9383
340.2898, 298.5368
340.7719, 307.3783
341.2540, 316.5121
341.7361, 326.1855
342.2182, 336.2183
342.7003, 346.9573
343.1825, 358.5749
343.6646, 371.0256
344.1467, 383.0859
344.6288, 394.7206
345.1109, 406.6579
345.5930, 419.9381
346.0752, 434.3327
346.5573, 449.1590
347.0394, 464.2635
347.5215, 479.7863
348.0036, 496.7814
348.4857, 515.1437
348.9679, 533.5082
349.4500, 551.2754
349.9321, 568.4477
350.4142, 585.0327
350.8963, 601.2356
351.3784, 616.5556
351.8606, 630.6454
352.3427, 643.1963
352.8248, 653.3316
353.3069, 660.8637
353.7890, 665.4115
354.2711, 666.6563
354.7533, 664.6108
355.2354, 659.0912
355.7175, 649.9415
356.1996, 637.2255
356.6817, 621.0499
357.1638, 599.3460
357.6460, 575.7510
358.1281, 552.5321
358.6102, 529.7953
359.0923, 506.9065
359.5744, 483.0922
360.0565, 459.3773
360.5387, 436.7452
361.0208, 415.4667
361.5029, 395.2365
361.9850, 375.9228
362.4671, 357.6220
362.9492, 340.9154
363.4314, 326.6230
363.9135, 313.5277
364.3956, 300.8599
364.8777, 288.0100
365.3598, 276.6921
365.8419, 267.7057
366.3241, 260.3580
366.8062, 253.6816
367.2883, 248.0475
367.7704, 242.5810
368.2526, 236.8273
368.7347, 230.5129
369.2168, 225.4048
369.6989, 222.4744
370.1810, 220.1370
370.6631, 217.0370
371.1453, 212.4166
371.6274, 208.1787
372.1095, 204.8645
372.5916, 202.2000
373.0737, 198.3891
373.5558, 192.6426
374.0380, 186.8732
374.5201, 182.1832
375.0022, 179.0889
375.4843, 175.5211
375.9664, 171.3857
376.4485, 166.7726
376.9307, 161.6228
377.4128, 155.8350
377.8949, 150.1210
378.3770, 144.8125
378.8591, 139.9153
379.3412, 135.0880
379.8234, 130.3599
380.3055, 125.7415
380.7876, 121.2424
381.2697, 116.8424
381.7518, 112.8983
382.2339, 109.6420
382.7161, 106.8016
383.1982, 103.7021
383.6803, 100.3758
384.1624, 96.97279
384.6445, 93.38200
385.1266, 89.83438
385.6088, 87.01115
386.0909, 85.17343
386.5730, 83.59481
387.0551, 81.36744
387.5372, 78.72623
388.0193, 76.30102
388.5015, 74.63613
388.9836, 73.26514
389.4657, 71.59995
389.9478, 69.59376
390.4299, 67.81441
390.9120, 67.00404
391.3942, 66.53092
391.8763, 65.62315
392.3584, 63.46345
392.8405, 61.33088
393.3226, 59.84740
393.8047, 58.94207
394.2869, 58.29054
394.7690, 58.12858
395.2511, 57.93470
395.7332, 57.35344
396.2154, 56.11500
396.6975, 54.94274
397.1796, 53.98214
397.6617, 53.17307
398.1438, 52.41786
398.6259, 51.72620
399.1081, 51.05622
399.5902, 50.41837
400.0723, 49.82770
400.5544, 49.14557
401.0365, 48.17204
401.5186, 47.25209
402.0008, 46.69379
402.4829, 46.69279
402.9650, 46.66972
403.4471, 46.52670
403.9292, 46.31364
404.4113, 46.29504
404.8935, 46.62238
405.3756, 46.79775
405.8577, 46.46778
406.3398, 45.53236
406.8219, 44.88769
407.3040, 44.59979
407.7862, 44.49494
408.2683, 44.37562
408.7504, 44.24659
409.2325, 43.94539
409.7146, 43.20667
410.1967, 42.30515
410.6789, 42.33467
411.1610, 43.33397
411.6431, 44.26777
412.1252, 44.06506
412.6073, 43.07123
413.0894, 42.25436
413.5716, 41.82745
414.0537, 41.61881
414.5358, 41.48288
415.0179, 41.40914
415.5000, 41.35927
415.9821, 41.50920
416.4643, 41.56580
416.9464, 41.06270
417.4285, 39.92184
417.9106, 38.96566
418.3927, 38.91148
418.8748, 39.27986
419.3570, 39.50263
419.8391, 39.17973
420.3212, 38.87700
420.8033, 38.92594
421.2854, 39.23338
421.7675, 39.36005
422.2497, 38.96363
422.7318, 38.50782
423.2139, 38.26477
423.6960, 38.42981
424.1781, 38.44806
424.6602, 38.20041
425.1424, 37.78849
425.6245, 37.34742
426.1066, 36.57117
426.5887, 36.17089
427.0709, 36.44417
427.5530, 37.39016
428.0351, 38.00871
428.5172, 38.17559
428.9993, 38.19283
429.4814, 38.25275
429.9636, 38.34101
430.4457, 38.57357
430.9278, 39.09291
431.4099, 39.62969
431.8920, 39.44900
432.3741, 38.43603
432.8563, 37.58645
433.3384, 37.42330
433.8205, 37.84714
434.3026, 38.25774
434.7847, 38.68052
435.2668, 38.91201
435.7490, 38.58153
436.2311, 37.85122
436.7132, 37.28988
437.1953, 36.99798
437.6774, 37.01157
438.1595, 37.62990
438.6417, 38.68303
439.1238, 39.46701
439.6059, 39.51655
440.0880, 39.10271
440.5701, 38.36445
441.0522, 37.23546
441.5344, 36.35763
442.0165, 36.24085
442.4986, 36.56948
442.9807, 36.95964
443.4628, 37.61298
443.9449, 37.98277
444.4271, 37.60790
444.9092, 36.65276
445.3913, 36.05309
445.8734, 36.35870
446.3555, 36.84319
446.8376, 37.14357
447.3198, 37.09830
447.8019, 37.13469
448.2840, 37.22149
448.7661, 37.40981
449.2482, 37.80168
449.7303, 38.62351
450.2125, 39.27412
450.6946, 39.72657
451.1767, 39.95237
451.6588, 39.31612
452.1409, 37.28371
452.6230, 35.61467
453.1052, 35.88268
453.5873, 38.28452
454.0694, 39.99392
454.5515, 40.69049
455.0337, 40.82272
455.5158, 41.10125
455.9979, 41.50895
456.4800, 41.74892
456.9621, 41.46917
457.4442, 41.00187
457.9264, 41.25148
458.4085, 42.19109
458.8906, 43.15374
459.3727, 43.60004
459.8548, 43.70655
460.3369, 43.70554
460.8191, 43.56814
461.3012, 43.52626
461.7833, 43.76240
462.2654, 44.23179
462.7475, 44.83854
463.2296, 45.84419
463.7118, 46.73443
464.1939, 47.08508
464.6760, 46.86627
465.1581, 46.88576
465.6402, 47.58457
466.1223, 48.49693
466.6045, 49.28745
467.0866, 49.57433
467.5687, 50.15100
468.0508, 51.21543
468.5329, 52.58468
469.0150, 53.87218
469.4972, 54.99889
469.9793, 56.14375
470.4614, 57.40034
470.9435, 58.78712
471.4256, 59.90362
471.9077, 60.69763
472.3899, 61.32770
472.8720, 61.69905
473.3541, 61.72337
473.8362, 62.80464
474.3183, 65.44991
474.8004, 68.75822
475.2826, 70.78880
475.7647, 71.63999
476.2468, 72.70944
476.7289, 74.98271
477.2110, 77.93258
477.6931, 80.28175
478.1753, 82.03146
478.6574, 83.77562
479.1395, 85.92457
479.6216, 88.40178
480.1037, 91.14281
480.5858, 94.31702
481.0680, 97.42297
481.5501, 100.0689
482.0322, 102.4042
482.5143, 104.7147
482.9964, 108.0139
483.4786, 110.5397
483.9607, 111.1736
484.4428, 109.7197
484.9249, 108.2954
485.4070, 107.6124
485.8892, 106.9185
486.3713, 105.6645
486.8534, 103.4210
487.3355, 101.2464
487.8176, 98.97439
488.2997, 96.85347
488.7819, 95.44580
489.2640, 95.07413
489.7461, 94.64971
490.2282, 93.62846
490.7103, 92.08983
491.1924, 91.60416
491.6746, 92.26582
492.1567, 93.56628
492.6388, 95.21957
493.1209, 97.20358
493.6030, 99.06696
494.0851, 100.6977
494.5673, 102.4061
495.0494, 104.4674
495.5315, 106.9438
496.0136, 109.9792
496.4957, 113.9513
496.9778, 118.3497
497.4600, 122.6805
497.9421, 126.9609
498.4242, 131.5306
498.9063, 136.3947
499.3884, 141.7800
499.8705, 148.0975
500.3527, 155.7915
500.8348, 163.3844
501.3169, 170.3658
501.7990, 176.7926
502.2811, 182.7924
502.7632, 188.4373
503.2454, 193.5140
503.7275, 198.4723
504.2096, 203.1399
504.6917, 205.7507
505.1738, 206.3787
505.6559, 204.8515
506.1381, 200.8268
506.6202, 193.8003
507.1023, 186.3026
507.5844, 178.3695
508.0665, 169.9305
508.5486, 160.7574
509.0308, 150.7836
509.5129, 141.2737
509.9950, 132.4330
510.4771, 124.2910
510.9592, 116.5810
511.4413, 109.4049
511.9235, 103.3940
512.4056, 99.68269
512.8877, 97.12634
513.3698, 93.77329
513.8519, 89.40580
514.3340, 85.41226
514.8162, 83.11116
515.2983, 81.65657
515.7804, 80.00540
516.2625, 77.20063
516.7446, 74.96780
517.2267, 74.58257
517.7089, 75.31259
518.1910, 75.36304
518.6731, 73.39826
519.1552, 71.58719
519.6373, 70.81423
520.1194, 71.18893
520.6016, 71.36253
521.0837, 71.33324
521.5658, 71.10330
522.0479, 70.58659
522.5300, 69.60360
523.0121, 69.04635
523.4943, 69.10570
523.9764, 69.43848
524.4585, 69.45280
524.9406, 69.14491
525.4227, 68.67590
525.9048, 67.88691
526.3870, 67.08463
526.8691, 67.26792
527.3513, 68.36544
527.8334, 69.28403
528.3155, 68.91041
528.7976, 67.99251
529.2797, 67.61682
529.7618, 67.95096
530.2440, 68.59951
530.7261, 69.58336
531.2082, 70.62002
531.6903, 71.33019
532.1724, 71.26395
532.6545, 71.20762
533.1367, 71.10612
533.6188, 71.15629
534.1009, 72.04736
534.5830, 75.28152
535.0651, 78.00636
535.5472, 79.00249
536.0294, 77.90411
536.5115, 77.79655
536.9936, 78.93034
537.4757, 80.70403
537.9578, 82.66482
538.4399, 84.83819
538.9221, 87.14954
539.4042, 89.62826
539.8863, 92.22472
540.3684, 94.75410
540.8505, 97.25375
541.3326, 100.1883
541.8148, 103.9439
542.2969, 108.1162
542.7790, 111.9643
543.2611, 115.5386
543.7432, 119.3608
544.2253, 123.9547
544.7075, 128.8854
545.1896, 133.6654
545.6717, 138.1716
546.1538, 142.8547
546.6359, 147.5730
547.1180, 152.7462
547.6002, 158.7628
548.0823, 166.6247
548.5644, 174.2981
549.0465, 181.0649
549.5286, 187.4045
550.0107, 194.7239
550.4929, 203.6540
550.9750, 212.5940
551.4571, 220.8364
551.9392, 228.4077
552.4213, 237.1241
552.9034, 247.1725
553.3856, 257.9065
553.8677, 269.2176
554.3498, 280.9876
554.8319, 291.7326
555.3140, 301.2253
555.7961, 310.0026
556.2783, 319.0096
556.7604, 327.8351
557.2425, 335.2341
557.7246, 341.0846
558.2067, 344.9793
558.6888, 346.7496
559.1710, 346.2783
559.6531, 343.0539
560.1352, 336.2049
560.6173, 327.0359
561.0994, 316.1458
561.5815, 303.4578
562.0637, 289.8999
562.5458, 275.4914
563.0279, 260.3799
563.5100, 244.4332
563.9921, 226.2288
564.4742, 209.5776
564.9564, 194.6577
565.4385, 181.2790
565.9206, 169.3455
566.4027, 159.1118
566.8848, 149.5383
567.3669, 140.4678
567.8491, 131.8523
568.3312, 123.6899
568.8133, 116.0254
569.2954, 109.2230
569.7775, 103.9486
570.2596, 99.63419
570.7418, 95.30066
571.2239, 90.83757
571.7060, 86.84738
572.1881, 84.07756
572.6702, 81.89876
573.1523, 79.57615
573.6345, 76.84501
574.1166, 74.14573
574.5987, 71.55340
575.0808, 69.14516
575.5629, 67.00474
576.0450, 64.96097
576.5272, 63.48084
577.0093, 62.93235
577.4914, 63.12836
577.9735, 62.75867
578.4556, 61.54243
578.9377, 60.34756
579.4199, 59.61496
579.9020, 59.36325
580.3841, 58.99572
580.8662, 58.44893
581.3483, 58.12779
581.8304, 58.77653
582.3126, 60.03996
582.7947, 60.51093
583.2768, 59.64727
583.7589, 58.79431
584.2410, 59.66605
584.7231, 61.57798
585.2053, 63.17539
585.6874, 63.96657
586.1696, 64.21418
586.6517, 63.73330
587.1338, 62.72451
587.6159, 62.06188
588.0980, 62.27472
588.5801, 62.60990
589.0623, 62.83940
589.5444, 63.01581
590.0265, 62.71869
590.5086, 61.85994
590.9907, 60.64247
591.4728, 59.14339
591.9550, 57.31584
592.4371, 55.57979
592.9192, 53.96069
593.4013, 52.49783
593.8834, 51.28939
594.3655, 50.31383
594.8477, 49.42961
595.3298, 48.59975
595.8119, 47.84362
596.2940, 47.36808
596.7761, 47.03408
597.2582, 46.36039
597.7404, 44.55696
598.2225, 42.73536
598.7046, 41.69848
599.1867, 41.49358
599.6688, 41.48161
600.1509, 41.71020
600.6331, 41.89443
601.1152, 41.83215
601.5973, 41.36379
602.0794, 41.02898
602.5615, 40.95098
603.0436, 40.89109
603.5258, 40.50988
604.0079, 39.69759
604.4900, 39.16284
604.9721, 39.03536
605.4542, 39.22449
605.9363, 39.67993
606.4185, 40.35867
606.9006, 40.91490
607.3827, 41.24968
607.8648, 41.32534
608.3469, 40.96072
608.8290, 40.22105
609.3112, 39.49274
609.7933, 38.80270
610.2754, 38.34648
610.7575, 38.39429
611.2396, 39.06359
611.7217, 39.49918
612.2039, 39.28340
612.6860, 38.85298
613.1681, 38.53220
613.6502, 38.33964
614.1323, 38.27568
614.6144, 38.53523
615.0966, 38.75320
615.5787, 38.19535
616.0608, 36.64338
616.5429, 35.79967
617.0250, 36.27021
617.5071, 37.43798
617.9893, 37.74562
618.4714, 37.33351
618.9535, 37.27592
619.4356, 38.60633
619.9177, 40.35416
620.3998, 41.13050
620.8820, 41.03584
621.3641, 41.10997
621.8462, 42.16929
622.3283, 43.46353
622.8104, 44.35434
623.2925, 44.57085
623.7747, 45.18523
624.2568, 46.72187
624.7389, 48.52768
625.2210, 50.03594
625.7031, 50.86837
626.1852, 52.30376
626.6674, 54.65552
627.1495, 57.33320
627.6316, 59.23695
628.1137, 60.32564
628.5958, 61.62354
629.0779, 63.35790
629.5601, 65.54836
630.0422, 68.68453
630.5243, 72.46720
631.0064, 75.61196
631.4885, 76.36562
631.9706, 76.85059
632.4528, 79.35706
632.9349, 83.75346
633.4170, 87.99372
633.8991, 90.84483
634.3812, 93.51324
634.8633, 96.92645
635.3455, 101.6839
635.8276, 105.3753
636.3097, 107.2532
636.7918, 108.6892
637.2739, 110.9871
637.7560, 114.5692
638.2382, 117.2485
638.7203, 118.8254
639.2024, 119.4465
639.6845, 119.2413
640.1666, 118.2349
640.6487, 116.7113
641.1309, 114.8276
641.6130, 112.3271
642.0951, 108.6800
642.5772, 104.1239
643.0594, 99.48044
643.5415, 95.00497
644.0236, 90.64409
644.5057, 86.34357
644.9879, 82.08287
645.4700, 77.87352
645.9521, 73.20865
646.4342, 69.03108
646.9163, 65.87357
647.3984, 63.94650
647.8806, 61.32304
648.3627, 57.48357
648.8448, 53.88232
649.3269, 51.88899
649.8090, 51.50499
650.2911, 50.66816
650.7733, 49.16189
651.2554, 47.40578
651.7375, 45.70677
652.2196, 44.13673
652.7017, 42.86434
653.1838, 41.98542
653.6660, 41.31840
654.1481, 40.80788
654.6302, 40.39943
655.1123, 39.99001
655.5944, 39.73021
656.0765, 39.27168
656.5587, 38.42846
657.0408, 37.27358
657.5229, 36.09606
658.0050, 34.63899
658.4871, 33.66201
658.9692, 33.67342
659.4514, 34.52174
659.9335, 34.35515
660.4156, 33.05373
660.8977, 31.73822
661.3798, 31.24155
661.8619, 31.35656
662.3441, 31.65248
662.8262, 32.11581
663.3083, 32.32978
663.7904, 31.76814
664.2725, 30.87256
664.7546, 30.14176
665.2368, 29.75650
665.7189, 29.31704
666.2010, 28.57621
666.6831, 27.75802
667.1652, 27.11824
667.6473, 26.65091
668.1295, 26.40166
668.6116, 26.51019
669.0937, 26.73504
669.5758, 26.46434
670.0579, 25.59852
670.5400, 25.24271
671.0222, 25.96862
671.5043, 27.13399
671.9864, 27.32219
672.4685, 26.69862
672.9506, 26.08293
673.4327, 25.89456
673.9149, 25.94872
674.3970, 26.19125
674.8791, 26.57629
675.3612, 26.81186
675.8433, 26.92634
676.3254, 26.74306
676.8076, 26.00004
677.2897, 24.51873
677.7718, 23.63886
678.2539, 23.59518
678.7360, 23.83727
679.2181, 24.04572
679.7003, 24.22143
680.1824, 24.39337
680.6645, 24.61086
681.1466, 24.61473
681.6287, 23.67587
682.1108, 22.29150
682.5930, 22.08131
683.0751, 23.72348
683.5572, 25.32667
684.0393, 24.99202
684.5214, 23.69750
685.0035, 22.84451
685.4857, 23.40569
685.9678, 23.84842
686.4499, 23.62989
686.9320, 23.05500
687.4141, 22.85577
687.8962, 23.53724
688.3784, 23.55814
688.8605, 22.16888
689.3426, 20.04905
689.8247, 19.83635
690.3068, 21.60795
690.7889, 23.17737
691.2711, 23.27325
691.7532, 22.54992
692.2353, 22.29390
692.7174, 22.43825
693.1995, 22.54752
693.6816, 22.12625
694.1638, 21.73918
694.6459, 21.98428
695.1280, 22.94091
695.6101, 23.48135
696.0922, 22.93137
696.5743, 22.21897
697.0565, 21.87161
697.5386, 22.02688
698.0207, 21.93594
698.5028, 21.51750
698.9849, 21.02582
699.4670, 20.54567
699.9492, 20.12609
700.4313, 20.44969
700.9135, 21.71976
701.3956, 23.01893
701.8777, 23.32265
702.3598, 22.97524
702.8419, 22.54531
703.3240, 22.15030
703.8062, 21.77615
704.2883, 21.11198
704.7704, 20.55352
705.2525, 20.69048
705.7346, 22.72379
706.2167, 24.01113
706.6989, 23.93866
707.1810, 23.13290
707.6631, 23.12811
708.1452, 24.13783
708.6273, 24.62865
709.1094, 23.91093
709.5916, 22.61365
710.0737, 22.21856
710.5558, 22.59101
711.0379, 23.01587
711.5200, 23.11603
712.0021, 23.09386
712.4843, 23.08971
712.9664, 23.11415
713.4485, 23.20506
713.9306, 23.45112
714.4127, 23.69788
714.8948, 23.94290
715.3770, 24.19431
715.8591, 24.03335
716.3412, 23.14346
716.8233, 22.46712
717.3054, 22.74615
717.7875, 23.92280
718.2697, 24.33071
718.7518, 23.92444
719.2339, 23.41548
719.7160, 23.51813
720.1981, 23.88397
720.6802, 24.04377
721.1624, 23.96057
721.6445, 23.40903
722.1266, 21.27550
722.6087, 19.19484
723.0908, 18.70652
723.5729, 21.17384
724.0551, 22.94940
724.5372, 23.61682
725.0193, 23.76762
725.5014, 23.94264
725.9835, 24.14387
726.4656, 24.40982
726.9478, 24.82595
727.4299, 25.09440
727.9120, 24.36812
728.3941, 23.09672
728.8762, 22.89831
729.3583, 24.75577
729.8405, 26.64978
730.3226, 26.80019
730.8047, 25.86647
731.2868, 24.93549
731.7689, 24.32644
732.2510, 23.76236
732.7332, 22.84531
733.2153, 22.00316
733.6974, 22.30474
734.1795, 24.41687
734.6616, 25.78520
735.1437, 25.53558
735.6259, 24.35021
736.1080, 23.96414
736.5901, 24.30995
737.0722, 24.79285
737.5543, 25.17437
738.0364, 25.50873
738.5186, 25.93567
739.0007, 26.38437
739.4828, 26.61711
739.9649, 26.42214
740.4470, 26.09220
740.9291, 25.60495
741.4113, 25.01491
741.8934, 24.90764
742.3755, 25.60461
742.8576, 26.20167
743.3397, 26.27279
743.8218, 25.90143
744.3040, 25.79537
744.7861, 25.96135
745.2682, 26.15881
745.7503, 26.22076
746.2324, 26.21089
746.7145, 26.25930
747.1967, 26.36094
747.6788, 26.36524
748.1609, 25.98358
748.6430, 25.63398
749.1251, 25.64688
749.6072, 26.16078
750.0894, 26.44166
750.5715, 26.24295
751.0536, 26.09946
751.5357, 26.42376
752.0178, 27.28159
752.4999, 27.85241
752.9821, 28.13894
753.4642, 28.14011
753.9463, 27.63101
754.4284, 26.88643
754.9105, 26.48003
755.3926, 26.50106
755.8748, 26.65002
756.3569, 26.79331
756.8390, 26.93988
757.3211, 27.10459
757.8032, 27.31504
758.2853, 27.47860
758.7675, 27.55078
759.2496, 27.61428
759.7318, 27.77709
760.2139, 28.07152
760.6960, 28.20654
761.1781, 28.15131
761.6602, 27.95817
762.1423, 27.52961
762.6245, 27.02600
763.1066, 26.87211
763.5887, 27.23413
764.0708, 27.70368
764.5529, 28.08938
765.0350, 28.38073
765.5172, 28.56505
765.9993, 28.54086
766.4814, 28.53783
766.9635, 28.55274
767.4456, 28.60650
767.9277, 28.82766
768.4099, 29.31838
768.8920, 29.18889
769.3741, 28.09460
769.8562, 26.83972
770.3383, 26.65012
770.8204, 27.25289
771.3026, 27.94322
771.7847, 28.61685
772.2668, 29.10377
772.7489, 29.22457
773.2310, 29.10071
773.7131, 28.92251
774.1953, 28.51250
774.6774, 28.36457
775.1595, 28.79340
775.6416, 29.35177
776.1237, 29.00866
776.6058, 27.55898
777.0880, 26.88914
777.5701, 27.72076
778.0522, 29.04828
778.5343, 28.95633
779.0164, 27.93476
779.4985, 27.42867
779.9807, 28.57855
780.4628, 29.74157
780.9449, 29.77204
781.4270, 29.10434
781.9091, 28.64643
782.3912, 28.79278
782.8734, 28.89470
783.3555, 28.85883
783.8376, 28.72724
784.3197, 28.53943
784.8018, 28.26816
785.2839, 28.29443
785.7661, 28.87716
786.2482, 29.61261
786.7303, 29.69381
787.2124, 29.35030
787.6945, 29.23787
788.1766, 30.01633
788.6588, 30.74517
789.1409, 30.95614
789.6230, 30.75081
790.1051, 30.40906
790.5872, 29.67509
791.0693, 29.28083
791.5515, 29.50764
792.0336, 30.09914
792.5157, 30.25002
792.9978, 29.95771
793.4799, 29.79048
793.9620, 29.97481
794.4442, 30.37739
794.9263, 30.97720
795.4084, 31.64689
795.8905, 32.04058
796.3726, 31.72239
796.8547, 31.38909
797.3369, 31.32982
797.8190, 31.49236
798.3011, 31.65655
798.7832, 31.79826
799.2653, 31.97391
799.7474, 32.16692
800.2296, 32.42419
800.7117, 32.99002
801.1938, 33.82017
801.6759, 34.42985
802.1580, 34.54800
802.6401, 34.41853
803.1223, 34.17980
803.6044, 33.91128
804.0865, 33.82224
804.5686, 34.11972
805.0507, 34.46365
805.5328, 34.75436
806.0150, 35.01339
806.4971, 35.28577
806.9792, 35.53875
807.4613, 35.92347
807.9434, 36.52850
808.4255, 37.23912
808.9077, 37.92706
809.3898, 38.53211
809.8719, 38.76848
810.3540, 38.11457
810.8361, 37.46264
811.3182, 37.62972
811.8004, 38.33244
812.2825, 38.90192
812.7646, 38.95869
813.2467, 39.13079
813.7288, 39.61765
814.2109, 40.26226
814.6931, 40.69659
815.1752, 40.93177
815.6573, 40.81468
816.1394, 40.08065
816.6215, 39.33289
817.1037, 39.84066
817.5858, 41.16468
818.0679, 42.15657
818.5500, 41.93272
819.0322, 41.69471
819.5143, 42.23886
819.9964, 43.14949
820.4785, 43.50597
820.9606, 42.71527
821.4427, 42.42540
821.9249, 43.04962
822.4070, 44.13029
822.8891, 44.82055
823.3712, 45.12286
823.8533, 44.97636
824.3354, 44.11905
824.8176, 43.33183
825.2997, 43.56694
825.7818, 44.48281
826.2639, 45.48784
826.7460, 46.91130
827.2281, 47.77290
827.7103, 47.22499
828.1924, 46.29445
828.6745, 46.42360
829.1566, 47.93491
829.6387, 49.24744
830.1208, 50.17027
830.6030, 50.70787
831.0851, 50.42957
831.5672, 49.75221
832.0493, 49.95289
832.5314, 51.70802
833.0135, 53.50148
833.4957, 54.14510
833.9778, 54.28665
834.4599, 54.69574
834.9420, 55.73079
835.4241, 56.73652
835.9063, 57.71173
836.3884, 58.65629
836.8705, 59.52224
837.3526, 60.31509
837.8347, 61.20928
838.3168, 62.23617
838.7990, 63.37923
839.2811, 64.73516
839.7632, 66.16749
840.2453, 67.41482
840.7274, 68.28682
841.2095, 69.50399
841.6917, 71.46589
842.1738, 73.77056
842.6559, 76.11892
843.1380, 78.50230
843.6201, 80.97771
844.1022, 83.57457
844.5844, 86.16126
845.0665, 88.42063
845.5486, 90.60184
846.0307, 93.35493
846.5128, 96.75441
846.9949, 100.5225
847.4771, 104.9050
847.9592, 109.2734
848.4413, 113.0075
848.9234, 115.8192
849.4055, 119.2430
849.8876, 123.2687
850.3698, 127.9385
850.8519, 133.4165
851.3340, 139.6386
851.8161, 145.3609
852.2982, 150.5886
852.7803, 156.1808
853.2625, 163.0794
853.7446, 170.4438
854.2267, 177.6397
854.7088, 184.6252
855.1909, 191.4675
855.6730, 197.7929
856.1552, 204.2954
856.6373, 211.1644
857.1194, 218.3984
857.6015, 226.2883
858.0836, 235.0004
858.5657, 243.6196
859.0479, 251.8545
859.5300, 259.7558
860.0121, 267.3329
860.4942, 274.5870
860.9763, 281.4555
861.4584, 288.3127
861.9406, 294.1879
862.4227, 298.4964
862.9048, 301.3459
863.3869, 303.3727
863.8690, 304.8875
864.3511, 304.7953
864.8333, 302.6818
865.3154, 299.0128
865.7975, 294.4757
866.2796, 289.1294
866.7617, 283.2101
867.2438, 276.8120
867.7260, 269.7496
868.2081, 261.2661
868.6902, 252.1416
869.1723, 243.4450
869.6544, 235.2329
870.1365, 227.5989
870.6187, 220.6664
871.1008, 214.1908
871.5829, 207.9463
872.0650, 201.9404
872.5471, 196.2978
873.0292, 191.0433
873.5114, 186.1328
873.9935, 181.4040
874.4756, 177.0464
874.9577, 173.3211
875.4399, 170.2832
875.9220, 167.7384
876.4041, 165.9331
876.8862, 164.3960
877.3683, 162.7644
877.8505, 160.9174
878.3326, 159.8704
878.8147, 159.6875
879.2968, 159.8340
879.7789, 159.8354
880.2610, 159.8708
880.7432, 160.1872
881.2253, 160.8077
881.7074, 161.7997
882.1895, 163.1995
882.6716, 164.9826
883.1537, 167.3181
883.6359, 170.1428
884.1180, 172.4957
884.6001, 174.2014
885.0822, 176.2311
885.5643, 179.1645
886.0464, 182.6811
886.5286, 185.9777
887.0107, 189.1518
887.4928, 192.6305
887.9749, 196.5265
888.4570, 200.7951
888.9391, 205.4352
889.4213, 210.4303
889.9034, 215.7331
890.3855, 221.3392
890.8676, 227.1046
891.3497, 233.0329
891.8318, 239.0726
892.3140, 245.2483
892.7961, 251.6321
893.2782, 258.5590
893.7603, 266.1418
894.2424, 274.1137
894.7245, 282.2216
895.2067, 290.5094
895.6888, 299.1410
896.1709, 308.3193
896.6530, 317.4371
897.1351, 326.3297
897.6172, 335.3077
898.0994, 344.3488
898.5815, 353.5825
899.0636, 363.6065
899.5457, 374.3150
900.0278, 386.4109
900.5099, 401.3340
900.9921, 417.4099
901.4742, 433.1621
901.9563, 448.0877
902.4384, 464.3872
902.9205, 481.4080
903.4026, 500.4851
903.8848, 522.2717
904.3669, 546.6332
904.8490, 574.3857
905.3311, 605.3891
905.8132, 638.4135
906.2953, 672.7601
906.7775, 709.1341
907.2596, 748.7120
907.7417, 791.2106
908.2238, 836.5071
908.7059, 884.1537
909.1880, 934.8688
909.6702, 989.0012
910.1523, 1046.033
910.6344, 1104.383
911.1165, 1164.098
911.5986, 1227.559
912.0807, 1295.767
912.5629, 1367.100
913.0450, 1440.618
913.5271, 1515.449
914.0092, 1591.582
914.4913, 1667.454
914.9734, 1744.945
915.4556, 1826.658
915.9377, 1907.919
916.4198, 1985.637
916.9019, 2060.054
917.3840, 2127.767
917.8661, 2189.283
918.3483, 2239.376
918.8304, 2274.424
919.3125, 2295.578
919.7946, 2305.214
920.2767, 2303.492
920.7589, 2285.093
921.2410, 2245.880
921.7231, 2190.936
922.2052, 2120.186
922.6873, 2034.765
923.1694, 1943.360
923.6516, 1846.613
924.1337, 1746.455
924.6158, 1641.548
925.0979, 1535.605
925.5800, 1432.320
926.0621, 1333.207
926.5443, 1240.685
927.0264, 1156.842
927.5085, 1078.629
927.9906, 1004.713
928.4727, 934.9335
928.9548, 869.5973
929.4370, 808.9140
929.9191, 753.3730
930.4012, 703.7870
930.8833, 658.6889
931.3654, 617.0990
931.8475, 579.0519
932.3297, 543.9227
932.8118, 511.9468
933.2939, 482.5528
933.7761, 456.3370
934.2582, 431.9228
934.7403, 408.9278
935.2224, 387.1689
935.7045, 366.9370
936.1866, 348.0739
936.6688, 330.6827
937.1509, 315.1352
937.6330, 300.8295
938.1151, 287.3567
938.5972, 274.5128
939.0793, 262.0338
939.5615, 248.9837
940.0436, 237.1880
940.5257, 227.5059
941.0078, 219.1911
941.4899, 210.7191
941.9720, 202.0941
942.4542, 193.3106
942.9363, 183.8811
943.4184, 175.2559
943.9005, 169.5064
944.3826, 165.3600
944.8647, 160.8657
945.3469, 155.1552
945.8290, 149.9656
946.3111, 145.6240
946.7932, 141.5757
947.2753, 137.2305
947.7574, 132.5887
948.2396, 128.8546
948.7217, 126.0557
949.2038, 123.4753
949.6859, 120.5803
950.1680, 117.6355
950.6501, 114.9515
951.1323, 112.5177
951.6144, 109.7919
952.0965, 106.2766
952.5786, 103.2726
953.0607, 101.3345
953.5428, 100.0754
954.0250, 98.38229
954.5071, 96.30480
954.9892, 94.09825
955.4713, 91.69337
955.9534, 89.51803
956.4355, 87.96736
956.9177, 86.83205
957.3998, 85.81339
957.8819, 85.20006
958.3640, 83.97250
958.8461, 81.78777
959.3282, 79.62907
959.8104, 78.82203
960.2925, 78.93168
960.7746, 78.46170
961.2567, 77.28918
961.7388, 76.03781
962.2209, 74.87777
962.7031, 73.95762
963.1852, 73.54491
963.6673, 73.59698
964.1494, 73.28850
964.6315, 72.61130
965.1136, 71.53649
965.5958, 69.70977
966.0779, 67.85940
966.5600, 67.90692
967.0421, 69.17626
967.5242, 69.81938
968.0063, 68.68771
968.4885, 67.39782
968.9706, 66.41213
969.4527, 65.67337
969.9348, 65.14690
970.4169, 64.93266
970.8990, 64.34554
971.3812, 63.25463
971.8633, 62.31923
972.3454, 62.52160
972.8275, 63.15245
973.3096, 63.02068
973.7917, 62.03358
974.2739, 61.37410
974.7560, 61.68766
975.2381, 62.18536
975.7202, 62.64766
976.2023, 63.03955
976.6844, 63.14724
977.1666, 62.97532
977.6487, 62.80223
978.1308, 62.70985
978.6129, 62.71778
979.0950, 63.04795
979.5771, 63.43812
980.0593, 63.46058
980.5414, 62.42183
981.0235, 61.89537
981.5056, 62.13711
981.9877, 62.61268
982.4698, 62.77740
982.9520, 62.68661
983.4341, 62.73315
983.9162, 62.93862
984.3983, 63.03245
984.8804, 62.69025
985.3625, 62.27047
985.8447, 62.03532
986.3268, 61.99331
986.8089, 61.98008
987.2910, 62.10688
987.7731, 61.91467
988.2552, 61.12997
988.7374, 60.10942
989.2195, 59.65897
989.7016, 59.57454
990.1837, 59.32719
990.6658, 58.66731
991.1479, 57.96326
991.6301, 57.26272
992.1122, 56.66420
992.5944, 56.31372
993.0765, 56.32876
993.5586, 55.84090
994.0407, 54.75012
994.5228, 53.89165
995.0049, 54.53633
995.4871, 55.46775
995.9692, 54.68090
996.4513, 52.42719
996.9334, 50.96175
997.4155, 51.85824
997.8976, 52.57874
998.3798, 52.52670
998.8619, 51.91805
999.3440, 51.01567
999.8261, 49.90793
1000.308, 49.59877
1000.790, 50.62331
1001.272, 51.57594
1001.755, 50.88227
1002.237, 49.71605
1002.719, 49.42180
1003.201, 50.60704
1003.683, 51.20773
1004.165, 51.07286
1004.647, 50.74774
1005.129, 50.56973
1005.612, 50.48213
1006.094, 50.25854
1006.576, 49.95044
1007.058, 49.78917
1007.540, 50.04909
1008.022, 50.31074
1008.504, 50.38818
1008.986, 50.36266
1009.468, 50.31788
1009.951, 50.21642
1010.433, 50.45463
1010.915, 51.14761
1011.397, 51.94378
1011.879, 52.46410
1012.361, 52.83681
1012.843, 53.23467
1013.325, 53.69454
1013.807, 54.03381
1014.290, 54.09171
1014.772, 54.23053
1015.254, 54.70097
1015.736, 55.34751
1016.218, 55.34128
1016.700, 54.84169
1017.182, 54.78185
1017.664, 55.91106
1018.147, 57.18135
1018.629, 58.08348
1019.111, 58.63504
1019.593, 58.82087
1020.075, 58.34526
1020.557, 58.53851
1021.039, 59.61463
1021.521, 60.72869
1022.003, 60.74172
1022.486, 60.38074
1022.968, 61.06151
1023.450, 62.77570
1023.932, 64.43971
1024.414, 65.69921
1024.896, 66.73685
1025.378, 67.52338
1025.860, 68.18774
1026.343, 69.11602
1026.825, 70.27977
1027.307, 71.50297
1027.789, 72.74902
1028.271, 73.99748
1028.753, 75.43547
1029.235, 76.75695
1029.717, 77.42969
1030.199, 76.87188
1030.682, 77.71724
1031.164, 80.34329
1031.646, 83.34322
1032.128, 86.08121
1032.610, 88.49959
1033.092, 90.27720
1033.574, 91.55504
1034.056, 92.79184
1034.539, 93.98164
1035.021, 95.41994
1035.503, 97.17036
1035.985, 99.23320
1036.467, 101.8053
1036.949, 104.8875
1037.431, 107.4846
1037.913, 109.4044
1038.396, 111.5500
1038.878, 115.1144
1039.360, 119.0334
1039.842, 122.4222
1040.324, 125.1684
1040.806, 127.4845
1041.288, 129.0015
1041.770, 131.1567
1042.252, 134.7746
1042.734, 138.8670
1043.217, 141.0225
1043.699, 142.0578
1044.181, 144.2485
1044.663, 148.9393
1045.145, 153.3728
1045.627, 156.6944
1046.109, 159.1695
1046.591, 160.7311
1047.074, 161.3163
1047.556, 162.8246
1048.038, 165.2720
1048.520, 167.4895
1049.002, 168.6690
1049.484, 169.2883
1049.966, 169.9070
1050.448, 170.2976
1050.931, 169.7516
1051.413, 167.9540
1051.895, 165.8578
1052.377, 163.5097
1052.859, 161.0228
1053.341, 158.5504
1053.823, 155.9801
1054.305, 153.0910
1054.787, 149.8573
1055.270, 146.1492
1055.752, 141.5854
1056.234, 136.8526
1056.716, 132.3616
1057.198, 127.9557
1057.680, 122.9606
1058.162, 117.4263
1058.644, 112.1739
1059.126, 107.5872
1059.609, 103.0184
1060.091, 97.84455
1060.573, 92.51237
1061.055, 87.48876
1061.537, 82.62292
1062.019, 78.96423
1062.501, 76.81693
1062.983, 74.75100
1063.466, 71.67398
1063.948, 68.16480
1064.430, 65.11113
1064.912, 62.51068
1065.394, 60.34778
1065.876, 58.90831
1066.358, 57.58433
1066.840, 56.36793
1067.323, 55.09340
1067.805, 53.48640
1068.287, 51.59521
1068.769, 49.77516
1069.251, 48.05023
1069.733, 46.71728
1070.215, 46.25165
1070.697, 46.01687
1071.179, 45.71140
1071.661, 45.29274
1072.144, 44.59762
1072.626, 43.57154
1073.108, 42.72340
1073.590, 42.27966
1074.072, 41.79501
1074.554, 40.46854
1075.036, 38.88752
1075.518, 37.90078
1076.001, 37.85054
1076.483, 37.46887
1076.965, 36.44198
1077.447, 35.54186
1077.929, 35.21968
1078.411, 35.28617
1078.893, 35.30371
1079.375, 35.24253
1079.858, 34.99847
1080.340, 34.28203
1080.822, 33.72217
1081.304, 33.72970
1081.786, 33.84492
1082.268, 33.66845
1082.750, 33.19783
1083.232, 32.57073
1083.714, 31.78961
1084.197, 31.16678
1084.679, 31.09100
1085.161, 31.10523
1085.643, 30.74272
1086.125, 30.19313
1086.607, 30.13445
1087.089, 30.83683
1087.571, 31.04848
1088.054, 30.48080
1088.536, 29.78778
1089.018, 29.80113
1089.500, 30.15102
1089.982, 30.35045
1090.464, 30.34358
1090.946, 30.15072
1091.428, 29.79297
1091.911, 29.19079
1092.393, 28.14222
1092.875, 27.01861
1093.357, 26.87134
1093.839, 27.41037
1094.321, 27.68359
1094.803, 27.30057
1095.285, 27.04087
1095.767, 27.57546
1096.250, 28.07566
1096.732, 27.86462
1097.214, 28.13896
1097.696, 28.32536
1098.178, 27.81524
1098.660, 28.29387
1099.142, 27.60542
1099.624, 26.68132
1100.106, 26.19185
1100.589, 25.94419
1101.071, 25.60407
1101.553, 25.02808
1102.035, 24.79562
1102.517, 24.95678
1102.999, 25.23287
1103.481, 25.52603
1103.963, 25.70606
1104.446, 25.41304
1104.928, 24.81135
1105.410, 24.60978
1105.892, 25.51537
1106.374, 25.84253
1106.856, 25.18705
1107.338, 24.23262
1107.820, 23.79635
1108.302, 23.80677
1108.785, 24.20538
1109.267, 24.97968
1109.749, 25.54553
1110.231, 25.51525
1110.713, 25.38426
1111.195, 25.34840
1111.677, 25.34088
1112.159, 25.17703
1112.641, 24.86889
1113.124, 24.46679
1113.606, 23.94687
1114.088, 23.47984
1114.570, 23.15206
1115.052, 22.95014
1115.534, 22.89777
1116.016, 22.98225
1116.498, 22.95342
1116.981, 22.80189
1117.463, 22.84877
1117.945, 23.42134
1118.427, 23.95317
1118.909, 23.82442
1119.391, 23.31833
1119.873, 22.82836
1120.355, 22.42728
1120.838, 21.87368
1121.320, 21.03855
1121.802, 20.60669
1122.284, 21.55933
1122.766, 22.88659
1123.248, 22.91094
1123.730, 22.04317
1124.212, 21.41535
1124.694, 21.60749
1125.177, 21.67454
1125.659, 21.46447
1126.141, 21.28677
1126.623, 21.55541
1127.105, 22.09443
1127.587, 22.55255
1128.069, 22.87129
1128.551, 22.79268
1129.033, 21.58212
1129.516, 20.76179
1129.998, 20.86152
1130.480, 21.42882
1130.962, 21.77297
1131.444, 21.90905
1131.926, 21.94206
1132.408, 21.88926
1132.890, 21.66577
1133.373, 20.81187
1133.855, 20.18895
1134.337, 20.34632
1134.819, 21.09134
1135.301, 22.00534
1135.783, 23.05275
1136.265, 23.23309
1136.747, 22.05248
1137.229, 20.90663
1137.712, 21.13296
1138.194, 21.82520
1138.676, 22.21133
1139.158, 22.26398
1139.640, 22.16943
1140.122, 21.90769
1140.604, 21.67599
1141.086, 21.52223
1141.569, 21.48950
1142.051, 21.74024
1142.533, 22.08447
1143.015, 22.27175
1143.497, 22.25240
1143.979, 22.06727
1144.461, 21.65413
1144.943, 21.32621
1145.426, 21.31021
1145.908, 21.47160
1146.390, 21.72284
1146.872, 21.96527
1147.354, 21.99418
1147.836, 21.31518
1148.318, 21.16455
1148.800, 21.78019
1149.282, 22.43145
1149.765, 22.49911
1150.247, 22.15206
1150.729, 21.60108
1151.211, 20.94962
1151.693, 20.57138
1152.175, 20.77343
1152.657, 21.05259
1153.139, 21.32941
1153.621, 21.63566
1154.104, 22.14825
1154.586, 22.71215
1155.068, 22.68009
1155.550, 22.07258
1156.032, 21.57803
1156.514, 21.61328
1156.996, 21.71994
1157.478, 21.73197
1157.961, 21.73422
1158.443, 21.90181
1158.925, 22.20389
1159.407, 22.42904
1159.889, 22.54021
1160.371, 22.79330
1160.853, 23.54705
1161.335, 24.27120
1161.818, 24.73846
1162.300, 24.96007
1162.782, 24.87082
1163.264, 24.50490
1163.746, 24.31967
1164.228, 24.45792
1164.710, 24.51520
1165.192, 24.11012
1165.674, 23.58012
1166.156, 23.01005
1166.639, 22.50194
1167.121, 22.95434
1167.603, 24.35777
1168.085, 25.34281
1168.567, 25.31964
1169.049, 25.22964
1169.531, 26.22912
1170.013, 27.32315
1170.496, 27.26859
1170.978, 26.02559
1171.460, 25.87773
1171.942, 26.88499
1172.424, 27.88856
1172.906, 28.44430
1173.388, 28.64784
1173.870, 28.47958
1174.353, 28.06540
1174.835, 27.46875
1175.317, 26.55062
1175.799, 26.38229
1176.281, 27.04818
1176.763, 27.78904
1177.245, 28.32204
1177.727, 28.55950
1178.209, 28.20100
1178.692, 27.54966
1179.174, 27.09760
1179.656, 26.78678
1180.138, 27.12846
1180.620, 28.29989
1181.102, 29.22609
1181.584, 28.86868
1182.066, 28.02719
1182.548, 27.54840
1183.031, 27.41409
1183.513, 27.59908
1183.995, 28.39394
1184.477, 28.77267
1184.959, 28.62445
1185.441, 28.33847
1185.923, 28.24817
1186.405, 28.23603
1186.888, 28.12291
1187.370, 27.94243
1187.852, 27.82360
1188.334, 27.67247
1188.816, 27.91897
1189.298, 28.76148
1189.780, 29.46498
1190.262, 29.03537
1190.745, 28.11044
1191.227, 27.59872
1191.709, 27.50579
1192.191, 27.55873
1192.673, 27.78302
1193.155, 28.00856
1193.637, 28.25373
1194.119, 28.38298
1194.601, 28.20367
1195.084, 27.81923
1195.566, 27.23132
1196.048, 26.50792
1196.530, 26.32551
1197.012, 27.19713
1197.494, 27.80236
1197.976, 27.84063
1198.458, 27.64989
1198.941, 27.77321
1199.423, 27.96561
1199.905, 27.62155
1200.387, 26.70807
1200.869, 26.46706
1201.351, 27.61982
1201.833, 28.44016
1202.315, 28.44363
1202.797, 28.06008
1203.280, 27.87073
1203.762, 27.82872
1204.244, 27.93603
1204.726, 28.21122
1205.208, 28.14031
1205.690, 27.39552
1206.172, 26.79139
1206.654, 26.52829
1207.136, 26.59857
1207.619, 27.28686
1208.101, 28.18063
1208.583, 28.50924
1209.065, 28.06445
1209.547, 27.63180
1210.029, 27.30006
1210.511, 27.02371
1210.993, 26.69346
1211.476, 26.55475
1211.958, 27.44612
1212.440, 28.71528
1212.922, 29.09287
1213.404, 28.14371
1213.886, 27.30118
1214.368, 26.73256
1214.850, 26.26858
1215.333, 25.76511
1215.815, 25.43705
1216.297, 25.96000
1216.779, 26.85259
1217.261, 27.18311
1217.743, 26.54017
1218.225, 26.22098
1218.707, 26.45875
1219.189, 26.68773
1219.672, 26.66187
1220.154, 26.44892
1220.636, 26.01193
1221.118, 25.53212
1221.600, 25.31916
1222.082, 25.44782
1222.564, 26.00909
1223.046, 27.32017
1223.528, 28.09640
1224.011, 27.50889
1224.493, 26.18829
1224.975, 24.66020
1225.457, 23.36134
1225.939, 23.13424
1226.421, 24.84522
1226.903, 25.76189
1227.385, 25.69533
1227.868, 25.41883
1228.350, 25.24917
1228.832, 25.24509
1229.314, 25.78049
1229.796, 26.44872
1230.278, 26.48466
1230.760, 25.32850
1231.242, 24.80258
1231.724, 25.03510
1232.207, 25.26481
1232.689, 24.87462
1233.171, 24.41133
1233.653, 24.72866
1234.135, 25.41445
1234.617, 25.75123
1235.099, 25.50620
1235.581, 25.45424
1236.063, 25.64057
1236.546, 25.71125
1237.028, 25.39646
1237.510, 24.91053
1237.992, 24.21261
1238.474, 23.59922
1238.956, 23.65473
1239.438, 24.61223
1239.920, 25.28234
1240.403, 25.65753
1240.885, 25.70959
1241.367, 25.09136
1241.849, 24.47570
1242.331, 24.56792
1242.813, 24.98977
1243.295, 25.16261
1243.777, 25.01418
1244.260, 24.90150
1244.742, 24.82269
1245.224, 24.91568
1245.706, 25.65628
1246.188, 26.17661
1246.670, 25.64555
1247.152, 24.66855
1247.634, 24.05013
1248.116, 23.78610
1248.599, 23.88974
1249.081, 24.34145
1249.563, 24.88216
1250.045, 25.46130
1250.527, 25.96162
1251.009, 26.57187
1251.491, 26.86389
1251.973, 26.06171
1252.455, 24.26562
1252.938, 24.26586
1253.420, 25.85252
1253.902, 27.15833
1254.384, 26.94856
1254.866, 26.53559
1255.348, 26.17858
1255.830, 26.04717
1256.313, 26.53292
1256.795, 27.44155
1257.277, 27.32528
1257.759, 26.40146
1258.241, 25.82620
1258.723, 26.35151
1259.205, 27.02002
1259.687, 27.88075
1260.169, 28.43921
1260.651, 27.94451
1261.134, 26.85980
1261.616, 26.83162
1262.098, 27.56682
1262.580, 27.99113
1263.062, 27.20973
1263.544, 26.88879
1264.026, 27.31458
1264.508, 27.86846
1264.991, 27.97878
1265.473, 27.88863
1265.955, 28.16399
1266.437, 28.62783
1266.919, 28.79876
1267.401, 28.31106
1267.883, 27.92626
1268.365, 27.61213
1268.848, 27.56724
1269.330, 28.36386
1269.812, 29.18932
1270.294, 28.77091
1270.776, 27.62179
1271.258, 26.86609
1271.740, 26.55308
1272.222, 26.89564
1272.704, 27.98856
1273.187, 28.86691
1273.669, 28.65940
1274.151, 28.14675
1274.633, 27.95487
1275.115, 27.93720
1275.597, 27.82540
1276.079, 27.57534
1276.561, 27.48898
1277.043, 27.56788
1277.526, 27.81532
1278.008, 28.52233
1278.490, 29.06458
1278.972, 28.88665
1279.454, 28.48355
1279.936, 28.39034
1280.418, 28.59224
1280.900, 28.57736
1281.383, 28.37384
1281.865, 28.16659
1282.347, 28.10433
1282.829, 27.95996
1283.311, 27.48231
1283.793, 27.10565
1284.275, 27.26037
1284.757, 27.78110
1285.240, 27.93147
1285.722, 27.83541
1286.204, 27.91401
1286.686, 28.87907
1287.168, 28.88279
1287.650, 27.22972
1288.132, 25.85099
1288.614, 26.49435
1289.096, 28.01819
1289.578, 27.91794
1290.061, 26.92101
1290.543, 26.55360
1291.025, 27.68418
1291.507, 28.18707
1291.989, 27.91620
1292.471, 27.70978
1292.953, 28.21047
1293.435, 28.81471
1293.918, 28.95233
1294.400, 28.64937
1294.882, 27.70099
1295.364, 25.92997
1295.846, 25.62419
1296.328, 26.81160
1296.810, 27.87365
1297.292, 27.96527
1297.775, 27.82524
1298.257, 27.99405
1298.739, 28.21561
1299.221, 28.26080
1299.703, 28.13917
1300.185, 27.88745
1300.667, 27.53957
1301.149, 27.33129
1301.631, 27.50464
1302.114, 27.42276
1302.596, 26.89577
##END=



