##NAMES=Pyrobelonite
##RRUFFID=R080057
##IDEAL CHEMISTRY=Pb^2+^Mn^2+^V^5+^O_4_(OH)
##LOCALITY=Ty Coch Manganese mine, Glamorgan County, Wales, United Kingdom
##OWNER=RRUFF
##SOURCE=Michael Scott
##DESCRIPTION=Fiery-red grains on light-pink calcite vein
##STATUS=The identification of this mineral has been confirmed by single-crystal X-ray diffraction.
##URL=rruff.info/R080057
92.35352, 821.0276
92.83563, 810.1316
93.31775, 807.0696
93.79987, 822.3506
94.28198, 837.3190
94.76410, 848.0529
95.24622, 855.9576
95.72833, 863.1118
96.21045, 870.7399
96.69257, 878.6277
97.17468, 887.4568
97.65680, 897.4749
98.13892, 909.0580
98.62103, 922.6171
99.10315, 937.1683
99.58527, 951.9653
100.0674, 968.6526
100.5495, 990.4531
101.0316, 1010.993
101.5137, 1033.309
101.9958, 1053.350
102.4780, 1066.185
102.9601, 1068.955
103.4422, 1062.284
103.9243, 1036.003
104.4064, 986.0909
104.8885, 926.5771
105.3707, 859.2179
105.8528, 785.8277
106.3349, 713.0173
106.8170, 646.3363
107.2991, 586.2065
107.7813, 534.7828
108.2634, 493.9066
108.7455, 461.0551
109.2276, 433.6661
109.7097, 411.8461
110.1918, 393.7960
110.6740, 377.8814
111.1561, 363.7847
111.6382, 350.7590
112.1203, 338.9454
112.6024, 328.1473
113.0845, 316.9706
113.5666, 304.7090
114.0488, 292.3052
114.5309, 280.2743
115.0130, 268.6589
115.4951, 257.5446
115.9772, 246.8549
116.4593, 236.3651
116.9415, 227.0322
117.4236, 218.9685
117.9057, 211.9312
118.3878, 205.8454
118.8699, 200.7048
119.3520, 196.3287
119.8342, 192.3057
120.3163, 188.3567
120.7984, 185.1779
121.2805, 183.0345
121.7626, 181.6247
122.2447, 180.5787
122.7269, 179.6797
123.2090, 178.9571
123.6911, 178.7293
124.1732, 178.9078
124.6553, 179.5073
125.1374, 180.6250
125.6196, 182.2051
126.1017, 184.0318
126.5838, 185.9317
127.0659, 187.9667
127.5480, 190.3151
128.0302, 192.9382
128.5123, 195.8885
128.9944, 199.3068
129.4765, 203.2892
129.9586, 207.3292
130.4407, 210.8787
130.9229, 214.2038
131.4050, 217.8364
131.8871, 221.9618
132.3692, 226.5634
132.8513, 231.5631
133.3334, 237.2176
133.8155, 242.9908
134.2977, 248.5685
134.7798, 254.0152
135.2619, 259.5125
135.7440, 265.2426
136.2261, 271.2701
136.7082, 277.1385
137.1904, 282.6043
137.6725, 288.1244
138.1546, 293.9224
138.6367, 299.9954
139.1188, 306.0867
139.6009, 311.8374
140.0831, 317.0675
140.5652, 322.4281
141.0473, 327.9023
141.5294, 333.4774
142.0115, 338.9525
142.4936, 344.3140
142.9758, 349.9167
143.4579, 356.3796
143.9400, 364.5291
144.4221, 372.1137
144.9042, 378.7784
145.3863, 384.8485
145.8685, 390.7464
146.3506, 396.6304
146.8327, 402.3593
147.3148, 407.6434
147.7969, 412.6695
148.2790, 417.0298
148.7612, 420.5805
149.2433, 423.3364
149.7254, 425.2682
150.2075, 426.1925
150.6896, 426.3212
151.1717, 426.2968
151.6539, 426.2901
152.1360, 425.7303
152.6181, 423.9146
153.1002, 420.7227
153.5823, 417.4636
154.0644, 415.2176
154.5466, 412.8863
155.0287, 409.7071
155.5108, 405.5887
155.9929, 400.1752
156.4750, 392.7382
156.9571, 382.7023
157.4393, 371.7548
157.9214, 360.1006
158.4035, 347.9798
158.8856, 335.5266
159.3677, 322.7349
159.8498, 309.8463
160.3320, 297.7627
160.8141, 286.5266
161.2962, 276.1436
161.7783, 266.5816
162.2604, 257.8221
162.7425, 249.9182
163.2247, 242.8865
163.7068, 236.6802
164.1889, 231.1319
164.6710, 226.3377
165.1531, 222.0423
165.6352, 218.2431
166.1174, 214.8965
166.5995, 212.0338
167.0816, 209.6866
167.5637, 207.8781
168.0458, 206.1969
168.5279, 204.2672
169.0101, 202.7584
169.4922, 202.2522
169.9743, 202.6698
170.4564, 203.2068
170.9385, 203.1263
171.4206, 202.5287
171.9028, 202.5156
172.3849, 203.4222
172.8670, 204.7775
173.3491, 206.1755
173.8312, 207.5938
174.3133, 209.0377
174.7955, 210.4226
175.2776, 211.8297
175.7597, 213.5130
176.2418, 215.8546
176.7239, 218.4667
177.2060, 220.5912
177.6882, 222.1511
178.1703, 223.2916
178.6524, 224.4538
179.1345, 225.3554
179.6166, 225.3143
180.0987, 223.9884
180.5809, 221.4020
181.0630, 217.7046
181.5451, 212.3391
182.0272, 206.3592
182.5093, 200.0350
182.9914, 193.4971
183.4736, 186.9585
183.9557, 180.4722
184.4378, 174.0142
184.9199, 168.3704
185.4020, 164.0889
185.8841, 160.2189
186.3663, 156.5821
186.8484, 153.1399
187.3305, 149.9132
187.8126, 146.8628
188.2947, 143.9194
188.7768, 141.6490
189.2590, 140.6591
189.7411, 139.7269
190.2232, 138.2370
190.7053, 136.2317
191.1874, 134.1747
191.6695, 132.5765
192.1517, 131.6106
192.6338, 130.3954
193.1159, 128.6714
193.5980, 126.9331
194.0801, 125.5353
194.5622, 124.5047
195.0444, 123.5608
195.5265, 122.3938
196.0086, 120.9159
196.4907, 119.5506
196.9728, 118.2101
197.4549, 117.0245
197.9371, 116.1867
198.4192, 115.7336
198.9013, 115.3716
199.3834, 114.7688
199.8655, 113.9206
200.3476, 113.0431
200.8298, 111.9569
201.3119, 110.9295
201.7940, 110.3980
202.2761, 110.5039
202.7582, 110.8143
203.2403, 110.9131
203.7225, 110.8395
204.2046, 110.6939
204.6867, 110.4679
205.1688, 110.1964
205.6509, 109.9358
206.1330, 109.6395
206.6152, 109.4640
207.0973, 109.6586
207.5794, 110.1025
208.0615, 110.3758
208.5436, 110.0700
209.0257, 109.3421
209.5079, 108.9901
209.9900, 109.3627
210.4721, 109.7168
210.9542, 109.5419
211.4363, 108.9852
211.9184, 108.4818
212.4006, 108.4053
212.8827, 108.7303
213.3648, 108.9040
213.8469, 108.7596
214.3290, 108.6246
214.8111, 108.6333
215.2933, 108.7619
215.7754, 108.9307
216.2575, 109.0952
216.7396, 109.2589
217.2217, 109.3354
217.7038, 109.1621
218.1859, 109.0455
218.6681, 109.1527
219.1502, 109.4120
219.6323, 109.6102
220.1144, 109.5265
220.5965, 109.1111
221.0786, 108.9753
221.5608, 109.2505
222.0429, 109.6628
222.5250, 110.2472
223.0071, 110.9103
223.4892, 111.4398
223.9713, 111.6309
224.4535, 111.4311
224.9356, 111.3986
225.4177, 111.5615
225.8998, 111.8268
226.3819, 112.1973
226.8640, 112.6449
227.3462, 113.1041
227.8283, 113.5175
228.3104, 113.8800
228.7925, 114.2741
229.2746, 114.6099
229.7567, 115.0475
230.2389, 115.7291
230.7210, 116.6120
231.2031, 117.5017
231.6852, 118.2617
232.1673, 118.8776
232.6494, 119.3640
233.1316, 119.4434
233.6137, 119.6363
234.0958, 120.3228
234.5779, 121.4536
235.0600, 122.6569
235.5421, 123.7100
236.0243, 124.5943
236.5064, 125.3631
236.9885, 125.8979
237.4706, 126.4109
237.9527, 127.0532
238.4348, 127.8186
238.9170, 128.5937
239.3991, 129.2951
239.8812, 129.9595
240.3633, 130.7036
240.8454, 131.6693
241.3275, 132.6012
241.8097, 133.1915
242.2918, 133.4588
242.7739, 133.9038
243.2560, 134.9504
243.7381, 136.3077
244.2202, 137.3831
244.7024, 137.9833
245.1845, 138.4818
245.6666, 139.2608
246.1487, 140.3260
246.6308, 141.2990
247.1129, 141.8340
247.5951, 142.2738
248.0772, 143.0747
248.5593, 144.4015
249.0414, 145.8332
249.5235, 146.9136
250.0056, 147.6138
250.4878, 148.3681
250.9699, 149.4203
251.4520, 150.5370
251.9341, 151.4712
252.4162, 152.1657
252.8983, 152.8382
253.3805, 153.7752
253.8626, 155.0244
254.3447, 156.1149
254.8268, 156.7093
255.3089, 157.2353
255.7910, 158.0708
256.2732, 159.2558
256.7553, 160.3435
257.2374, 160.6832
257.7195, 160.1048
258.2016, 159.9771
258.6837, 160.9803
259.1659, 162.1808
259.6480, 163.1599
260.1301, 163.8617
260.6122, 164.4237
261.0943, 164.9674
261.5764, 165.4880
262.0586, 166.0082
262.5407, 166.4559
263.0228, 166.9707
263.5049, 167.5794
263.9870, 168.3061
264.4691, 169.1924
264.9513, 170.3060
265.4334, 171.6805
265.9155, 173.0798
266.3976, 174.4712
266.8797, 175.9228
267.3618, 177.4654
267.8440, 179.0901
268.3261, 180.7611
268.8082, 182.4345
269.2903, 184.1068
269.7724, 185.8756
270.2545, 187.6775
270.7367, 189.6494
271.2188, 191.8953
271.7009, 194.3525
272.1830, 196.8722
272.6651, 199.3486
273.1472, 201.7881
273.6294, 204.4086
274.1115, 207.1852
274.5936, 210.1930
275.0757, 213.3496
275.5578, 216.7576
276.0399, 220.5856
276.5221, 224.9510
277.0042, 229.8033
277.4863, 234.7648
277.9684, 239.5276
278.4505, 244.8009
278.9326, 250.6695
279.4148, 257.1395
279.8969, 264.2976
280.3790, 272.2342
280.8611, 280.7492
281.3432, 289.2191
281.8253, 297.1743
282.3075, 305.7543
282.7896, 315.4388
283.2717, 325.5948
283.7538, 335.5595
284.2359, 345.0603
284.7180, 354.3195
285.2002, 363.7089
285.6823, 373.3698
286.1644, 382.9726
286.6465, 392.4450
287.1286, 401.8974
287.6107, 411.3034
288.0929, 420.7151
288.5750, 430.3698
289.0571, 440.7517
289.5392, 452.2094
290.0213, 463.5535
290.5034, 474.2149
290.9856, 485.0891
291.4677, 496.7341
291.9498, 509.1941
292.4319, 522.3644
292.9140, 535.9896
293.3961, 550.1078
293.8783, 564.6387
294.3604, 579.3657
294.8425, 594.6124
295.3246, 610.4459
295.8067, 626.8637
296.2888, 643.8403
296.7710, 661.4674
297.2531, 679.6786
297.7352, 697.6036
298.2173, 715.1238
298.6994, 732.4622
299.1815, 750.3273
299.6637, 768.1302
300.1458, 784.6373
300.6279, 799.1709
301.1100, 811.6813
301.5921, 822.2854
302.0742, 832.2480
302.5564, 839.3063
303.0385, 842.2790
303.5206, 841.9551
304.0027, 839.6599
304.4848, 835.9867
304.9669, 830.9562
305.4491, 824.4432
305.9312, 814.7458
306.4133, 805.9417
306.8954, 798.1812
307.3775, 791.7446
307.8596, 787.0040
308.3418, 784.0924
308.8239, 782.8292
309.3060, 782.9055
309.7881, 783.9812
310.2702, 787.4954
310.7523, 793.7941
311.2345, 802.4022
311.7166, 812.9579
312.1987, 825.3219
312.6808, 839.5272
313.1629, 855.7989
313.6451, 874.5954
314.1272, 893.5305
314.6093, 912.2922
315.0914, 931.2348
315.5735, 950.8536
316.0556, 971.0326
316.5378, 991.2217
317.0199, 1011.341
317.5020, 1031.281
317.9841, 1049.732
318.4662, 1066.304
318.9483, 1081.997
319.4305, 1097.689
319.9126, 1112.960
320.3947, 1126.603
320.8768, 1137.755
321.3589, 1146.864
321.8410, 1156.187
322.3232, 1164.904
322.8053, 1174.826
323.2874, 1186.847
323.7695, 1200.224
324.2516, 1213.723
324.7337, 1226.725
325.2159, 1239.828
325.6980, 1254.255
326.1801, 1270.810
326.6622, 1287.220
327.1443, 1303.599
327.6264, 1319.673
328.1086, 1335.271
328.5907, 1350.292
329.0728, 1364.694
329.5549, 1378.558
330.0370, 1392.365
330.5191, 1403.502
331.0013, 1412.573
331.4834, 1418.637
331.9655, 1421.320
332.4476, 1420.463
332.9297, 1415.857
333.4118, 1407.417
333.8940, 1395.102
334.3761, 1377.041
334.8582, 1353.362
335.3403, 1325.192
335.8224, 1291.708
336.3045, 1254.050
336.7867, 1213.893
337.2688, 1172.370
337.7509, 1129.448
338.2330, 1085.252
338.7151, 1037.986
339.1972, 991.6165
339.6793, 945.8828
340.1614, 901.4865
340.6436, 859.1324
341.1257, 818.7088
341.6078, 780.6462
342.0899, 745.4808
342.5720, 714.1866
343.0541, 684.6924
343.5363, 656.6240
344.0184, 630.3811
344.5005, 606.3770
344.9826, 584.5942
345.4647, 564.5399
345.9468, 545.7018
346.4290, 527.9421
346.9111, 511.8945
347.3932, 498.0024
347.8753, 485.0902
348.3574, 472.7275
348.8395, 460.8932
349.3217, 449.6656
349.8038, 439.1391
350.2859, 429.2915
350.7680, 420.3944
351.2501, 412.9729
351.7322, 405.8809
352.2144, 399.1119
352.6965, 392.5209
353.1786, 385.9416
353.6607, 379.2934
354.1428, 372.7509
354.6249, 366.6720
355.1071, 361.1933
355.5892, 356.0729
356.0713, 351.7335
356.5534, 347.4503
357.0355, 342.6122
357.5176, 337.1383
357.9998, 331.4226
358.4819, 325.9021
358.9640, 320.5387
359.4461, 315.5360
359.9282, 310.6269
360.4103, 306.2427
360.8925, 302.6945
361.3746, 299.8511
361.8567, 297.3850
362.3388, 295.0181
362.8209, 292.7974
363.3030, 291.1530
363.7852, 290.0564
364.2673, 289.6826
364.7494, 290.2339
365.2315, 291.4215
365.7136, 292.8876
366.1957, 294.4703
366.6779, 296.3098
367.1600, 298.6786
367.6421, 301.6207
368.1242, 305.0011
368.6063, 309.0333
369.0884, 313.2912
369.5706, 317.5743
370.0527, 321.8202
370.5348, 325.8997
371.0169, 329.7860
371.4990, 333.4785
371.9811, 336.6264
372.4633, 338.8773
372.9454, 340.9014
373.4275, 343.3832
373.9096, 345.9161
374.3917, 347.6061
374.8738, 347.9887
375.3560, 347.1032
375.8381, 345.0333
376.3202, 341.6947
376.8023, 337.2949
377.2844, 332.0196
377.7665, 325.7737
378.2487, 318.2018
378.7308, 309.0127
379.2129, 299.1724
379.6950, 289.6972
380.1771, 280.5941
380.6592, 271.6567
381.1414, 262.4950
381.6235, 253.7977
382.1056, 246.0219
382.5877, 239.1662
383.0698, 233.1220
383.5519, 227.9087
384.0341, 223.4118
384.5162, 219.2773
384.9983, 215.4327
385.4804, 212.0252
385.9625, 209.2396
386.4446, 206.9592
386.9268, 205.1313
387.4089, 204.0121
387.8910, 203.1204
388.3731, 201.9415
388.8552, 200.4879
389.3373, 199.0119
389.8195, 197.5332
390.3016, 196.1843
390.7837, 195.2586
391.2658, 195.0114
391.7479, 194.4448
392.2300, 192.9927
392.7122, 190.8832
393.1943, 188.5544
393.6764, 186.0731
394.1585, 183.5421
394.6406, 181.0422
395.1227, 178.5759
395.6049, 176.1218
396.0870, 173.6570
396.5691, 171.2286
397.0512, 168.8439
397.5333, 166.5149
398.0154, 164.2981
398.4976, 162.1395
398.9797, 160.1436
399.4618, 158.8765
399.9439, 158.3006
400.4260, 158.3472
400.9081, 159.2682
401.3903, 160.7339
401.8724, 162.1524
402.3545, 163.3015
402.8366, 164.5567
403.3187, 166.5327
403.8008, 169.4108
404.2830, 172.7561
404.7651, 176.6790
405.2472, 180.9626
405.7293, 185.5160
406.2114, 190.2762
406.6935, 195.1613
407.1757, 200.0781
407.6578, 205.0066
408.1399, 210.4030
408.6220, 216.6940
409.1041, 222.9583
409.5862, 228.9630
410.0684, 234.8415
410.5505, 240.7553
411.0326, 246.7378
411.5147, 253.0362
411.9968, 260.3005
412.4789, 269.1256
412.9611, 277.5393
413.4432, 285.2345
413.9253, 292.7611
414.4074, 300.2939
414.8895, 307.9641
415.3716, 315.9225
415.8538, 324.3350
416.3359, 333.1857
416.8180, 342.2518
417.3001, 351.8507
417.7822, 361.2009
418.2643, 369.8267
418.7465, 378.1329
419.2286, 386.7545
419.7107, 396.0441
420.1928, 405.3888
420.6749, 413.9348
421.1570, 421.6251
421.6392, 428.9806
422.1213, 436.4723
422.6034, 443.2832
423.0855, 448.9008
423.5676, 453.3257
424.0497, 456.4515
424.5319, 458.3463
425.0140, 458.9004
425.4961, 457.6530
425.9782, 454.3647
426.4603, 450.0382
426.9424, 445.6022
427.4246, 440.5896
427.9067, 433.8340
428.3888, 424.4836
428.8709, 414.2041
429.3530, 404.1320
429.8351, 394.2498
430.3173, 384.5311
430.7994, 375.1402
431.2815, 365.7289
431.7636, 355.5266
432.2457, 344.5392
432.7278, 333.5373
433.2100, 322.5663
433.6921, 311.7725
434.1742, 301.5229
434.6563, 291.7826
435.1384, 282.0243
435.6205, 271.8006
436.1027, 261.1921
436.5848, 251.1164
437.0669, 241.3543
437.5490, 232.2515
438.0311, 223.9556
438.5132, 216.3713
438.9954, 209.4535
439.4775, 203.1890
439.9596, 197.3032
440.4417, 191.3642
440.9238, 185.1976
441.4059, 179.3953
441.8881, 173.9107
442.3702, 168.7494
442.8523, 163.8837
443.3344, 159.3679
443.8165, 155.3026
444.2986, 151.8269
444.7808, 148.8546
445.2629, 145.9168
445.7450, 143.1237
446.2271, 140.1783
446.7092, 136.8417
447.1913, 133.4473
447.6735, 130.2396
448.1556, 127.3088
448.6377, 124.7468
449.1198, 122.7718
449.6019, 121.4294
450.0840, 119.9567
450.5662, 118.2713
451.0483, 116.4596
451.5304, 114.4436
452.0125, 112.3531
452.4946, 110.4842
452.9767, 109.0372
453.4589, 107.8091
453.9410, 106.4652
454.4231, 104.9992
454.9052, 103.5753
455.3873, 102.2212
455.8694, 100.9810
456.3516, 99.92781
456.8337, 99.10143
457.3158, 98.23249
457.7979, 97.11479
458.2800, 95.89863
458.7621, 94.88383
459.2443, 94.12821
459.7264, 93.36652
460.2085, 92.34975
460.6906, 91.11363
461.1727, 90.03586
461.6548, 89.21488
462.1370, 88.45430
462.6191, 87.62993
463.1012, 86.80489
463.5833, 86.16366
464.0654, 85.77905
464.5475, 85.43945
465.0297, 84.76926
465.5118, 83.55020
465.9939, 82.54079
466.4760, 81.76409
466.9581, 81.15836
467.4402, 80.83566
467.9224, 80.66854
468.4045, 80.33801
468.8866, 79.60755
469.3687, 78.56982
469.8508, 77.64097
470.3329, 76.83745
470.8151, 76.12461
471.2972, 75.53586
471.7793, 74.99755
472.2614, 74.45134
472.7435, 73.88611
473.2256, 73.31540
473.7078, 72.70493
474.1899, 72.05795
474.6720, 71.64149
475.1541, 71.64518
475.6362, 71.58112
476.1183, 71.19591
476.6005, 70.60511
477.0826, 69.96020
477.5647, 69.26570
478.0468, 68.62993
478.5289, 68.22548
479.0110, 68.02360
479.4932, 67.69627
479.9753, 67.06823
480.4574, 66.43407
480.9395, 66.24432
481.4216, 66.44501
481.9037, 66.42638
482.3859, 65.83526
482.8680, 65.09240
483.3501, 64.56583
483.8322, 64.26140
484.3143, 64.07666
484.7964, 63.96782
485.2786, 63.92461
485.7607, 63.92944
486.2428, 64.13634
486.7249, 64.12370
487.2070, 63.67365
487.6891, 63.08286
488.1713, 62.62561
488.6534, 62.33413
489.1355, 62.09414
489.6176, 61.81005
490.0997, 61.48037
490.5818, 61.12006
491.0640, 60.64697
491.5461, 60.23996
492.0282, 59.91970
492.5103, 59.68477
492.9924, 59.57210
493.4745, 59.58209
493.9567, 59.60194
494.4388, 59.47557
494.9209, 59.18900
495.4030, 58.91845
495.8851, 58.65212
496.3672, 58.43208
496.8494, 58.32115
497.3315, 58.26188
497.8136, 58.11512
498.2957, 57.74156
498.7778, 57.40916
499.2599, 57.61367
499.7421, 58.31146
500.2242, 58.61588
500.7063, 58.12390
501.1884, 57.34605
501.6705, 56.87527
502.1526, 56.68938
502.6348, 56.63892
503.1169, 56.88860
503.5990, 57.11175
504.0811, 56.87548
504.5632, 56.26231
505.0453, 55.81832
505.5274, 55.86732
506.0096, 56.23958
506.4917, 56.44031
506.9738, 56.46037
507.4559, 56.32256
507.9380, 55.81988
508.4201, 55.30312
508.9023, 55.11039
509.3844, 55.22526
509.8665, 55.36692
510.3486, 55.30065
510.8307, 55.05703
511.3128, 54.90898
511.7950, 54.94170
512.2771, 54.94714
512.7592, 54.85957
513.2413, 54.74907
513.7234, 54.70124
514.2056, 54.72435
514.6877, 54.72207
515.1698, 54.53223
515.6519, 54.19560
516.1340, 54.10716
516.6161, 54.41230
517.0983, 54.68462
517.5804, 54.57722
518.0625, 54.31333
518.5446, 54.23257
519.0267, 54.47430
519.5089, 54.72848
519.9910, 54.77692
520.4731, 54.66132
520.9552, 54.48310
521.4373, 54.25687
521.9194, 54.00492
522.4016, 53.72986
522.8837, 53.43296
523.3658, 53.21893
523.8479, 53.05663
524.3300, 53.00824
524.8121, 53.20022
525.2943, 53.50341
525.7764, 53.66647
526.2585, 53.60142
526.7406, 53.48962
527.2227, 53.65202
527.7048, 54.27319
528.1870, 54.50011
528.6691, 53.94584
529.1512, 53.41621
529.6333, 53.27175
530.1154, 53.36375
530.5975, 53.39807
531.0797, 53.23528
531.5618, 52.96045
532.0439, 52.69691
532.5260, 52.44001
533.0081, 52.22622
533.4902, 51.99337
533.9724, 51.89221
534.4545, 52.13882
534.9366, 52.61968
535.4187, 52.90565
535.9008, 52.71280
536.3829, 52.34407
536.8651, 52.11206
537.3472, 52.00350
537.8293, 51.94525
538.3114, 51.91356
538.7935, 51.91299
539.2756, 51.96846
539.7578, 52.10537
540.2399, 52.16767
540.7220, 52.08934
541.2041, 51.97686
541.6862, 51.89585
542.1683, 51.84248
542.6505, 51.79606
543.1326, 51.74727
543.6147, 51.68431
544.0968, 51.57468
544.5789, 51.38823
545.0610, 51.21673
545.5432, 51.06480
546.0253, 50.92487
546.5074, 50.77832
546.9895, 50.64019
547.4716, 50.55248
547.9537, 50.55244
548.4359, 50.60058
548.9180, 50.59333
549.4001, 50.51093
549.8822, 50.52163
550.3643, 50.78455
550.8464, 51.04463
551.3286, 51.01723
551.8107, 50.72680
552.2928, 50.47848
552.7749, 50.44283
553.2570, 50.46842
553.7391, 50.39294
554.2213, 50.22361
554.7034, 50.02068
555.1855, 49.79349
555.6676, 49.59082
556.1497, 49.52697
556.6318, 49.73733
557.1140, 49.76464
557.5961, 49.37671
558.0782, 48.99887
558.5603, 48.93978
559.0424, 49.12866
559.5245, 49.32540
560.0067, 49.39379
560.4888, 49.38670
560.9709, 49.44598
561.4530, 49.61931
561.9351, 49.72377
562.4172, 49.77708
562.8994, 49.71833
563.3815, 49.39837
563.8636, 48.92067
564.3457, 48.60386
564.8278, 48.67749
565.3099, 48.91869
565.7921, 49.01019
566.2742, 48.95637
566.7563, 48.84587
567.2384, 48.68102
567.7205, 48.51049
568.2026, 48.40492
568.6848, 48.36182
569.1669, 48.31799
569.6490, 48.20386
570.1311, 48.14040
570.6132, 48.29413
571.0953, 48.56098
571.5775, 48.65438
572.0596, 48.44705
572.5417, 48.13110
573.0238, 48.06142
573.5059, 48.38089
573.9880, 48.50632
574.4702, 48.13677
574.9523, 47.89562
575.4344, 48.19700
575.9165, 48.76476
576.3986, 49.09198
576.8807, 48.94901
577.3629, 48.58839
577.8450, 48.34365
578.3271, 48.21370
578.8092, 48.08910
579.2913, 47.91846
579.7734, 47.81452
580.2556, 47.92450
580.7377, 48.16866
581.2198, 48.36073
581.7019, 48.53444
582.1840, 48.55857
582.6661, 48.15374
583.1483, 47.57996
583.6304, 47.26582
584.1125, 47.32282
584.5946, 47.95382
585.0767, 49.58914
585.5588, 52.31030
586.0409, 53.54203
586.5230, 52.21827
587.0051, 50.80732
587.4872, 49.63639
587.9694, 48.75662
588.4515, 48.22577
588.9336, 48.03362
589.4157, 48.05974
589.8978, 48.26839
590.3799, 48.61847
590.8621, 48.70726
591.3442, 48.40310
591.8263, 48.15906
592.3084, 48.18951
592.7905, 48.38021
593.2726, 48.65629
593.7548, 49.03351
594.2369, 49.30877
594.7190, 49.36773
595.2011, 49.26966
595.6832, 49.03397
596.1653, 48.68893
596.6475, 48.40766
597.1296, 48.29537
597.6117, 48.32043
598.0938, 48.39430
598.5759, 48.55122
599.0580, 48.70626
599.5402, 48.88600
600.0223, 49.04082
600.5044, 49.10731
600.9865, 49.12014
601.4686, 49.16982
601.9507, 49.30874
602.4329, 49.51546
602.9150, 49.78168
603.3971, 50.14178
603.8792, 50.33038
604.3613, 50.18762
604.8434, 49.99620
605.3256, 49.92603
605.8077, 49.97297
606.2898, 50.12867
606.7719, 50.46264
607.2540, 50.82221
607.7361, 51.17401
608.2183, 51.45347
608.7004, 51.41463
609.1825, 50.98182
609.6646, 50.51780
610.1467, 50.41790
610.6288, 50.69750
611.1110, 50.98425
611.5931, 51.42636
612.0752, 51.69474
612.5573, 51.56072
613.0394, 51.30001
613.5215, 51.23368
614.0037, 51.40615
614.4858, 51.59130
614.9679, 51.56489
615.4500, 51.36734
615.9321, 51.23439
616.4142, 51.18719
616.8964, 51.12854
617.3785, 50.95618
617.8606, 50.79979
618.3427, 50.83990
618.8248, 51.09576
619.3069, 51.31283
619.7891, 51.41130
620.2712, 51.41835
620.7533, 51.31326
621.2354, 51.13195
621.7175, 50.98716
622.1996, 50.92619
622.6818, 50.96552
623.1639, 51.16130
623.6460, 51.64620
624.1281, 51.89759
624.6102, 51.65955
625.0923, 51.48381
625.5745, 51.67710
626.0566, 52.05200
626.5387, 52.27980
627.0208, 52.23698
627.5029, 52.12938
627.9850, 52.19578
628.4672, 52.41476
628.9493, 52.64958
629.4314, 52.90561
629.9135, 53.11834
630.3956, 53.21534
630.8777, 53.24822
631.3599, 53.35876
631.8420, 53.56800
632.3241, 53.80787
632.8062, 54.11814
633.2883, 54.40792
633.7704, 54.53368
634.2526, 54.53191
634.7347, 54.60419
635.2168, 54.88875
635.6989, 55.29963
636.1810, 55.56858
636.6631, 55.57485
637.1453, 55.74356
637.6274, 56.23716
638.1095, 56.78847
638.5916, 57.32920
639.0737, 57.82500
639.5558, 58.21135
640.0380, 58.42723
640.5201, 58.60936
641.0022, 58.82291
641.4843, 59.11367
641.9664, 59.73161
642.4485, 60.76991
642.9307, 61.72007
643.4128, 62.07843
643.8949, 61.94063
644.3770, 62.18193
644.8591, 63.07902
645.3412, 63.93020
645.8234, 64.58379
646.3055, 65.17423
646.7876, 65.77103
647.2697, 66.41332
647.7518, 67.18956
648.2339, 68.20549
648.7161, 69.31042
649.1982, 70.03487
649.6803, 70.27149
650.1624, 70.81603
650.6445, 72.00342
651.1266, 73.34640
651.6088, 74.43367
652.0909, 75.31849
652.5730, 76.18316
653.0551, 77.00497
653.5372, 77.89162
654.0193, 78.92940
654.5015, 80.07368
654.9836, 81.22579
655.4657, 82.37228
655.9478, 83.64558
656.4299, 85.19345
656.9120, 86.97314
657.3942, 88.57444
657.8763, 90.08516
658.3584, 91.23702
658.8405, 91.70271
659.3226, 92.06498
659.8047, 92.79768
660.2869, 93.85351
660.7690, 94.82725
661.2511, 95.44301
661.7332, 95.92677
662.2153, 96.59821
662.6974, 97.42170
663.1796, 98.19164
663.6617, 98.83442
664.1438, 99.50471
664.6259, 100.4010
665.1080, 101.5251
665.5901, 102.4511
666.0723, 102.8382
666.5544, 103.4809
667.0365, 104.7258
667.5186, 106.2171
668.0007, 107.5976
668.4828, 108.8308
668.9650, 110.1119
669.4471, 111.6366
669.9292, 113.2765
670.4113, 114.6067
670.8934, 115.5817
671.3755, 116.6629
671.8577, 118.0162
672.3398, 119.4424
672.8219, 120.7050
673.3040, 121.8471
673.7861, 123.0608
674.2682, 124.4835
674.7504, 125.8636
675.2325, 127.0036
675.7146, 128.0499
676.1967, 129.1946
676.6788, 130.4766
677.1609, 131.8683
677.6431, 133.3802
678.1252, 134.9416
678.6073, 136.1348
679.0894, 136.7752
679.5715, 137.4822
680.0536, 138.4362
680.5358, 139.4519
681.0179, 140.4048
681.5000, 141.3073
681.9821, 142.2558
682.4642, 143.2657
682.9464, 144.3534
683.4285, 145.4820
683.9106, 146.7133
684.3927, 148.3133
684.8748, 150.3162
685.3569, 152.2176
685.8391, 153.5100
686.3212, 154.3148
686.8033, 155.6633
687.2854, 158.0134
687.7675, 160.1830
688.2496, 162.0644
688.7318, 163.7358
689.2139, 165.0690
689.6960, 166.2168
690.1781, 167.6222
690.6602, 169.5555
691.1423, 171.7189
691.6245, 173.7475
692.1066, 175.6907
692.5887, 177.8989
693.0708, 180.4978
693.5529, 182.7697
694.0350, 184.1021
694.5172, 184.6241
694.9993, 185.1833
695.4814, 185.8511
695.9635, 186.4557
696.4456, 187.1987
696.9277, 187.6972
697.4099, 187.6549
697.8920, 187.1326
698.3741, 186.3401
698.8562, 185.3493
699.3383, 184.2558
699.8204, 183.3082
700.3026, 182.4326
700.7847, 180.9742
701.2668, 178.7200
701.7489, 176.4538
702.2310, 174.7527
702.7131, 173.4642
703.1953, 171.9867
703.6774, 170.1114
704.1595, 168.4736
704.6416, 167.3663
705.1237, 166.3399
705.6058, 164.9882
706.0880, 163.4659
706.5701, 162.1749
707.0522, 161.3181
707.5343, 160.6800
708.0164, 159.8920
708.4985, 158.9877
708.9807, 158.5107
709.4628, 158.5734
709.9449, 158.7861
710.4270, 158.8752
710.9091, 159.0175
711.3912, 159.6144
711.8734, 160.7964
712.3555, 161.9020
712.8376, 162.6738
713.3197, 163.4552
713.8018, 164.3745
714.2839, 165.5052
714.7661, 166.9755
715.2482, 168.8275
715.7303, 170.9010
716.2124, 172.9571
716.6945, 175.0235
717.1766, 177.5675
717.6588, 180.6902
718.1409, 183.9136
718.6230, 186.8542
719.1051, 189.9578
719.5872, 193.8010
720.0693, 198.4023
720.5515, 203.2416
721.0336, 207.9777
721.5157, 213.1658
721.9978, 219.1911
722.4799, 225.8477
722.9620, 232.7593
723.4442, 239.8659
723.9263, 247.3408
724.4084, 255.3166
724.8905, 263.9108
725.3726, 273.5845
725.8547, 283.9498
726.3369, 297.1080
726.8190, 316.1633
727.3011, 335.3019
727.7832, 347.7348
728.2653, 355.1313
728.7474, 365.1579
729.2296, 379.2081
729.7117, 396.1354
730.1938, 416.2369
730.6759, 438.4539
731.1580, 461.4204
731.6401, 485.1935
732.1223, 510.7723
732.6044, 538.8336
733.0865, 569.3290
733.5686, 601.8815
734.0507, 636.2491
734.5328, 674.5702
735.0150, 718.0123
735.4971, 763.9478
735.9792, 810.4567
736.4613, 858.1740
736.9434, 909.2279
737.4255, 964.0046
737.9077, 1021.335
738.3898, 1082.038
738.8719, 1144.266
739.3540, 1207.252
739.8361, 1270.776
740.3182, 1335.137
740.8004, 1400.751
741.2825, 1467.268
741.7646, 1533.909
742.2467, 1600.908
742.7288, 1670.379
743.2109, 1742.614
743.6931, 1816.534
744.1752, 1891.580
744.6573, 1968.264
745.1394, 2047.423
745.6215, 2129.273
746.1036, 2209.755
746.5858, 2286.219
747.0679, 2362.621
747.5500, 2441.793
748.0321, 2521.546
748.5142, 2600.793
748.9963, 2678.410
749.4785, 2750.189
749.9606, 2813.197
750.4427, 2867.524
750.9248, 2913.844
751.4069, 2952.586
751.8890, 2979.191
752.3712, 2993.610
752.8533, 2993.827
753.3354, 2978.511
753.8175, 2946.925
754.2996, 2898.648
754.7817, 2830.066
755.2639, 2749.603
755.7460, 2656.136
756.2281, 2554.233
756.7102, 2444.729
757.1923, 2329.856
757.6744, 2213.640
758.1566, 2097.432
758.6387, 1982.692
759.1208, 1871.638
759.6029, 1763.722
760.0850, 1661.278
760.5671, 1563.873
761.0493, 1473.072
761.5314, 1389.557
762.0135, 1312.498
762.4956, 1240.983
762.9777, 1175.639
763.4598, 1114.234
763.9420, 1056.371
764.4241, 1003.148
764.9062, 956.0735
765.3883, 913.6473
765.8704, 874.1794
766.3525, 837.3237
766.8347, 803.2521
767.3168, 772.5936
767.7989, 744.7284
768.2810, 718.1632
768.7631, 692.9596
769.2452, 670.2122
769.7274, 650.1573
770.2095, 631.7271
770.6916, 613.9433
771.1737, 596.8730
771.6558, 581.6750
772.1379, 569.0641
772.6201, 557.2605
773.1022, 546.3091
773.5843, 536.0494
774.0664, 526.4941
774.5485, 517.4866
775.0306, 508.7503
775.5128, 500.1495
775.9949, 491.9809
776.4770, 484.7769
776.9591, 478.0352
777.4412, 471.2075
777.9233, 464.1096
778.4055, 456.0073
778.8876, 446.4657
779.3697, 436.4077
779.8518, 427.3293
780.3339, 419.5098
780.8160, 410.5147
781.2982, 399.8506
781.7803, 388.8750
782.2624, 377.7313
782.7445, 366.5985
783.2266, 355.5215
783.7087, 344.5895
784.1909, 334.2361
784.6730, 324.8235
785.1551, 315.7948
785.6372, 306.7289
786.1193, 297.8341
786.6014, 289.2780
787.0836, 281.1946
787.5657, 273.9192
788.0478, 267.7679
788.5299, 262.3787
789.0120, 256.9171
789.4941, 251.3502
789.9763, 246.0885
790.4584, 241.1181
790.9405, 236.5740
791.4226, 232.6511
791.9047, 229.1793
792.3868, 225.8014
792.8690, 222.4870
793.3511, 219.3682
793.8332, 216.4120
794.3153, 213.6974
794.7974, 211.3932
795.2795, 209.2825
795.7617, 206.9414
796.2438, 204.3636
796.7259, 202.1624
797.2080, 201.0663
797.6901, 200.4952
798.1722, 199.2164
798.6544, 197.3099
799.1365, 195.4225
799.6186, 193.6637
800.1007, 192.1457
800.5828, 190.9558
801.0649, 190.0912
801.5471, 189.5702
802.0292, 189.7465
802.5113, 189.6622
802.9934, 189.1047
803.4755, 188.5022
803.9576, 187.9043
804.4398, 187.4563
804.9219, 187.4177
805.4040, 187.8672
805.8861, 188.4683
806.3682, 189.1674
806.8503, 189.7997
807.3325, 190.0185
807.8146, 190.0059
808.2967, 190.3200
808.7788, 191.1258
809.2609, 192.1183
809.7430, 192.9993
810.2252, 193.7850
810.7073, 194.5361
811.1894, 195.1618
811.6715, 196.1485
812.1536, 197.9203
812.6357, 199.6220
813.1179, 200.3064
813.6000, 200.3975
814.0821, 201.1902
814.5642, 202.8762
815.0463, 205.0017
815.5284, 207.7750
816.0106, 210.6516
816.4927, 213.1693
816.9748, 215.5260
817.4569, 218.1424
817.9390, 221.1552
818.4211, 224.3559
818.9033, 227.4156
819.3854, 230.5455
819.8675, 234.4306
820.3496, 238.9892
820.8317, 243.3727
821.3138, 247.2978
821.7960, 251.1699
822.2781, 255.3060
822.7602, 259.7564
823.2423, 265.0265
823.7244, 271.6657
824.2065, 278.0669
824.6887, 283.7536
825.1708, 289.5301
825.6529, 295.7655
826.1350, 302.3761
826.6171, 309.2086
827.0992, 316.2482
827.5814, 323.4927
828.0635, 331.0939
828.5456, 338.7697
829.0277, 345.9512
829.5098, 353.0938
829.9919, 361.1881
830.4741, 370.5335
830.9562, 380.6461
831.4383, 391.3305
831.9204, 402.2479
832.4025, 412.2159
832.8846, 421.1743
833.3668, 430.1738
833.8489, 439.5493
834.3310, 448.7188
834.8131, 457.2361
835.2952, 465.1904
835.7773, 472.8843
836.2595, 480.5841
836.7416, 487.5131
837.2237, 493.2675
837.7058, 498.6208
838.1879, 503.5556
838.6700, 508.5168
839.1522, 514.2136
839.6343, 520.7499
840.1164, 527.3811
840.5985, 532.7826
841.0806, 538.8012
841.5627, 547.7883
842.0449, 558.8626
842.5270, 569.6317
843.0091, 579.8065
843.4912, 591.7773
843.9733, 607.4789
844.4554, 625.8250
844.9376, 644.1609
845.4197, 662.4000
845.9018, 680.8187
846.3839, 699.3784
846.8660, 717.9795
847.3481, 736.1736
847.8303, 754.4174
848.3124, 773.6428
848.7945, 793.8075
849.2766, 814.8491
849.7587, 835.9410
850.2408, 858.8450
850.7230, 884.9650
851.2051, 912.5710
851.6872, 940.2902
852.1693, 967.8928
852.6514, 995.7316
853.1335, 1024.031
853.6157, 1052.526
854.0978, 1081.747
854.5799, 1110.677
855.0620, 1137.949
855.5441, 1163.096
856.0262, 1186.212
856.5084, 1207.294
856.9905, 1223.722
857.4726, 1231.763
857.9547, 1231.401
858.4368, 1221.742
858.9189, 1203.315
859.4011, 1173.410
859.8832, 1129.649
860.3653, 1076.185
860.8474, 1015.192
861.3295, 947.3974
861.8116, 878.6783
862.2938, 806.5308
862.7759, 737.3630
863.2580, 670.9500
863.7401, 609.1539
864.2222, 552.6984
864.7043, 501.5866
865.1865, 455.9572
865.6686, 415.6999
866.1507, 380.0015
866.6328, 348.7887
867.1149, 321.4333
867.5970, 297.8824
868.0792, 277.5512
868.5613, 259.5594
869.0434, 243.6218
869.5255, 229.4096
870.0076, 216.7420
870.4897, 205.4238
870.9719, 194.8558
871.4540, 185.0364
871.9361, 176.4756
872.4182, 169.4500
872.9003, 162.9379
873.3824, 156.3805
873.8646, 150.0818
874.3467, 144.5842
874.8288, 140.0880
875.3109, 135.5106
875.7930, 130.3098
876.2751, 125.7489
876.7573, 122.3533
877.2394, 119.5138
877.7215, 116.8568
878.2036, 114.2906
878.6857, 111.6284
879.1678, 108.7592
879.6500, 105.9715
880.1321, 103.3983
880.6142, 101.0198
881.0963, 98.77832
881.5784, 96.70054
882.0605, 94.87230
882.5427, 93.31360
883.0248, 91.90784
883.5069, 90.56548
883.9890, 89.26441
884.4711, 87.96350
884.9532, 86.65930
885.4354, 85.32692
885.9175, 83.95225
886.3996, 82.60265
886.8817, 81.33574
887.3638, 80.14123
887.8459, 79.00971
888.3281, 77.94875
888.8102, 76.90928
889.2923, 75.74934
889.7744, 74.81184
890.2565, 74.41833
890.7386, 74.16076
891.2208, 73.63232
891.7029, 72.83662
892.1850, 72.01610
892.6671, 71.10859
893.1492, 70.33190
893.6313, 69.84351
894.1135, 69.45302
894.5956, 69.04562
895.0777, 68.57739
895.5598, 67.95003
896.0419, 67.12305
896.5240, 66.38364
897.0062, 66.05514
897.4883, 65.94172
897.9704, 65.71860
898.4525, 65.42147
898.9346, 65.21064
899.4167, 65.12267
899.8989, 65.04540
900.3810, 64.88805
900.8631, 64.66756
901.3452, 64.41914
901.8273, 64.13750
902.3094, 63.87565
902.7916, 63.62615
903.2737, 63.45343
903.7558, 63.47129
904.2379, 63.46909
904.7200, 63.07136
905.2021, 62.20768
905.6843, 61.63543
906.1664, 61.67553
906.6485, 61.55639
907.1306, 61.08923
907.6127, 60.50216
908.0948, 59.95145
908.5770, 59.40749
909.0591, 58.73532
909.5412, 57.83821
910.0233, 57.12001
910.5054, 56.85969
910.9875, 56.75090
911.4697, 56.61638
911.9518, 56.44040
912.4339, 56.24147
912.9160, 56.01050
913.3981, 55.66323
913.8802, 55.07806
914.3624, 54.49876
914.8445, 54.33130
915.3265, 54.43984
915.8087, 54.44978
916.2908, 54.32892
916.7729, 54.17635
917.2550, 54.03416
917.7371, 53.94122
918.2192, 53.98988
918.7014, 54.14822
919.1835, 53.99958
919.6656, 53.46294
920.1477, 53.05624
920.6298, 52.93594
921.1119, 52.84174
921.5941, 52.54221
922.0762, 52.14050
922.5583, 51.97870
923.0404, 52.29318
923.5225, 52.24645
924.0046, 51.62782
924.4868, 50.92854
924.9689, 50.08686
925.4510, 49.38356
925.9331, 49.28022
926.4152, 49.64463
926.8973, 49.60893
927.3795, 48.63629
927.8616, 47.74749
928.3437, 47.51086
928.8258, 47.43884
929.3079, 47.10145
929.7900, 46.59425
930.2722, 46.16351
930.7543, 45.88475
931.2364, 45.68334
931.7185, 45.58635
932.2006, 45.45399
932.6827, 44.93859
933.1649, 44.26868
933.6470, 44.13297
934.1291, 44.52643
934.6112, 44.70751
935.0933, 44.24481
935.5754, 43.47875
936.0576, 42.86486
936.5397, 42.41621
937.0218, 42.36126
937.5039, 42.73577
937.9860, 42.90913
938.4681, 42.68212
938.9503, 42.27406
939.4324, 41.83106
939.9145, 41.40493
940.3966, 41.23555
940.8787, 41.49463
941.3608, 41.53534
941.8430, 41.24014
942.3251, 40.89429
942.8072, 40.55159
943.2893, 40.25532
943.7714, 40.05703
944.2535, 39.95431
944.7357, 39.89985
945.2178, 40.00297
945.6999, 39.99402
946.1820, 39.73094
946.6641, 39.42624
947.1462, 39.22735
947.6284, 39.08437
948.1105, 38.89139
948.5926, 38.62699
949.0747, 38.36586
949.5568, 38.15447
950.0389, 37.94957
950.5211, 37.66412
951.0032, 37.39919
951.4853, 37.33355
951.9674, 37.42459
952.4495, 37.46933
952.9316, 37.37184
953.4138, 37.22500
953.8959, 37.13575
954.3780, 37.06218
954.8601, 36.89223
955.3422, 36.66236
955.8243, 36.52611
956.3065, 36.51349
956.7886, 36.52161
957.2707, 36.47507
957.7528, 36.38990
958.2349, 36.28595
958.7170, 36.16642
959.1992, 36.11910
959.6813, 36.16164
960.1634, 36.09957
960.6455, 35.83637
961.1276, 35.54017
961.6097, 35.38686
962.0919, 35.36558
962.5740, 35.42532
963.0561, 35.62351
963.5382, 35.73211
964.0203, 35.74251
964.5024, 35.64294
964.9846, 35.33863
965.4667, 34.98826
965.9488, 34.85196
966.4309, 34.95145
966.9130, 34.93079
967.3951, 34.61471
967.8773, 34.42804
968.3594, 34.52536
968.8415, 34.67478
969.3236, 34.76727
969.8057, 34.79916
970.2878, 34.78005
970.7700, 34.71110
971.2521, 34.59563
971.7342, 34.37301
972.2163, 34.17785
972.6984, 34.06078
973.1805, 34.02060
973.6627, 34.09528
974.1448, 34.23950
974.6269, 34.35691
975.1090, 34.41896
975.5911, 34.37416
976.0732, 34.10366
976.5554, 33.77822
977.0375, 33.56223
977.5196, 33.43913
978.0017, 33.34489
978.4838, 33.28880
978.9659, 33.39766
979.4481, 33.77350
979.9302, 34.14217
980.4123, 34.08725
980.8944, 33.78113
981.3765, 33.64045
981.8586, 33.64929
982.3408, 33.64778
982.8229, 33.59330
983.3050, 33.55968
983.7871, 33.62109
984.2692, 33.69294
984.7513, 33.51086
985.2335, 33.10775
985.7156, 33.00498
986.1977, 33.24597
986.6798, 33.49456
987.1619, 33.63486
987.6440, 33.70966
988.1262, 33.77034
988.6083, 33.79803
989.0904, 33.65841
989.5725, 33.26317
990.0546, 33.13407
990.5367, 33.40712
991.0189, 33.68504
991.5010, 33.82436
991.9831, 33.84179
992.4652, 33.70825
992.9473, 33.43722
993.4294, 33.39505
993.9116, 33.75192
994.3937, 34.03051
994.8758, 34.23750
995.3579, 34.31134
995.8400, 34.09669
996.3221, 33.80172
996.8043, 33.73130
997.2864, 33.89800
997.7685, 34.01665
998.2506, 34.06494
998.7327, 34.06108
999.2148, 33.96256
999.6970, 33.85970
1000.179, 33.78011
1000.661, 33.74825
1001.143, 33.81268
1001.625, 33.98091
1002.108, 34.14708
1002.590, 34.33101
1003.072, 34.43551
1003.554, 34.37537
1004.036, 34.24899
1004.518, 34.08914
1005.000, 33.95173
1005.482, 33.93504
1005.964, 34.06604
1006.447, 34.24561
1006.929, 34.46758
1007.411, 34.66027
1007.893, 34.75657
1008.375, 34.79766
1008.857, 34.83979
1009.339, 34.87952
1009.821, 34.87315
1010.304, 34.80460
1010.786, 34.74634
1011.268, 34.77208
1011.750, 34.83312
1012.232, 34.90351
1012.714, 34.94802
1013.196, 34.82204
1013.678, 34.58141
1014.160, 34.55939
1014.643, 34.91747
1015.125, 35.30781
1015.607, 35.28635
1016.089, 35.02903
1016.571, 34.89381
1017.053, 34.86724
1017.535, 34.91028
1018.017, 35.01155
1018.500, 35.16182
1018.982, 35.35913
1019.464, 35.55244
1019.946, 35.66369
1020.428, 35.70973
1020.910, 35.77250
1021.392, 35.84496
1021.874, 35.82232
1022.356, 35.68541
1022.839, 35.63268
1023.321, 35.80200
1023.803, 36.05294
1024.285, 36.13337
1024.767, 36.05860
1025.249, 36.01170
1025.731, 35.98834
1026.213, 36.10448
1026.696, 36.41349
1027.178, 36.66729
1027.660, 36.69362
1028.142, 36.57638
1028.624, 36.46374
1029.106, 36.35131
1029.588, 36.38695
1030.070, 36.63527
1030.552, 36.70488
1031.035, 36.43298
1031.517, 36.20339
1031.999, 36.30516
1032.481, 36.59582
1032.963, 36.77085
1033.445, 36.82356
1033.927, 36.80735
1034.409, 36.67096
1034.891, 36.60207
1035.374, 36.66528
1035.856, 36.76281
1036.338, 36.84082
1036.820, 36.89803
1037.302, 36.93690
1037.784, 36.96949
1038.266, 36.90839
1038.748, 36.63826
1039.231, 36.48832
1039.713, 36.60993
1040.195, 36.75905
1040.677, 36.74492
1041.159, 36.65519
1041.641, 36.70272
1042.123, 36.95066
1042.605, 37.03631
1043.088, 36.74186
1043.570, 36.59556
1044.052, 36.83887
1044.534, 37.09467
1045.016, 37.13832
1045.498, 37.02714
1045.980, 36.82612
1046.462, 36.48568
1046.944, 36.39867
1047.427, 36.87783
1047.909, 37.21220
1048.391, 37.15790
1048.873, 37.01160
1049.355, 36.94533
1049.837, 36.93054
1050.319, 36.88896
1050.801, 36.80671
1051.283, 36.79113
1051.766, 36.99681
1052.248, 37.07890
1052.730, 36.79627
1053.212, 36.51565
1053.694, 36.52068
1054.176, 36.68109
1054.658, 36.74265
1055.140, 36.67401
1055.623, 36.66322
1056.105, 36.82883
1056.587, 36.95371
1057.069, 36.96417
1057.551, 36.92023
1058.033, 36.77377
1058.515, 36.64415
1058.997, 36.78120
1059.479, 37.19234
1059.962, 37.42850
1060.444, 37.14171
1060.926, 36.96043
1061.408, 37.23058
1061.890, 37.54280
1062.372, 37.55023
1062.854, 37.44224
1063.336, 37.55254
1063.818, 37.89677
1064.301, 38.16655
1064.783, 38.18513
1065.265, 38.24240
1065.747, 38.47855
1066.229, 38.76274
1066.711, 39.06370
1067.193, 39.31930
1067.675, 39.35978
1068.158, 39.24535
1068.640, 39.38626
1069.122, 39.95846
1069.604, 40.72014
1070.086, 41.69435
1070.568, 42.68962
1071.050, 43.55678
1071.532, 44.36752
1072.015, 45.20202
1072.497, 46.07800
1072.979, 46.97382
1073.461, 47.87439
1073.943, 48.83556
1074.425, 49.91062
1074.907, 51.02348
1075.389, 52.21772
1075.871, 53.34362
1076.354, 54.13884
1076.836, 54.70623
1077.318, 55.47282
1077.800, 56.62383
1078.282, 57.65350
1078.764, 58.17638
1079.246, 58.68559
1079.728, 59.59069
1080.210, 60.55773
1080.693, 61.27104
1081.175, 61.72173
1081.657, 61.96970
1082.139, 62.02198
1082.621, 62.03992
1083.103, 62.10608
1083.585, 62.14584
1084.067, 62.22067
1084.549, 62.16221
1085.032, 61.91727
1085.514, 61.37788
1085.996, 60.25566
1086.478, 58.50583
1086.960, 56.84140
1087.442, 55.67947
1087.924, 54.52795
1088.406, 53.21387
1088.889, 51.76638
1089.371, 50.10819
1089.853, 48.37734
1090.335, 46.72608
1090.817, 45.20927
1091.299, 43.96120
1091.781, 43.21462
1092.263, 42.43372
1092.745, 41.29317
1093.228, 40.15889
1093.710, 39.24969
1094.192, 38.53013
1094.674, 37.93434
1095.156, 37.46568
1095.638, 37.19992
1096.120, 37.22550
1096.602, 37.28425
1097.084, 37.35173
1097.567, 37.35196
1098.049, 37.23343
1098.531, 37.03296
1099.013, 36.72852
1099.495, 36.38130
1099.977, 36.17578
1100.459, 36.18821
1100.941, 36.17854
1101.424, 36.00731
1101.906, 35.89417
1102.388, 36.01004
1102.870, 36.14955
1103.352, 36.11558
1103.834, 35.97536
1104.316, 35.91303
1104.798, 35.96624
1105.281, 35.93859
1105.763, 35.63780
1106.245, 35.46466
1106.727, 35.64656
1107.209, 35.86600
1107.691, 35.96674
1108.173, 35.94830
1108.655, 35.77602
1109.137, 35.45803
1109.620, 35.25404
1110.102, 35.23979
1110.584, 35.27630
1111.066, 35.38829
1111.548, 35.49879
1112.030, 35.58781
1112.512, 35.64761
1112.994, 35.66037
1113.476, 35.63435
1113.959, 35.61875
1114.441, 35.60529
1114.923, 35.62317
1115.405, 35.75587
1115.887, 35.80678
1116.369, 35.63708
1116.851, 35.45552
1117.333, 35.43985
1117.816, 35.53178
1118.298, 35.58809
1118.780, 35.61937
1119.262, 35.55738
1119.744, 35.31724
1120.226, 35.14835
1120.708, 35.10990
1121.190, 35.09862
1121.672, 34.84607
1122.155, 34.79012
1122.637, 35.57489
1123.119, 37.19770
1123.601, 40.11461
1124.083, 46.06927
1124.565, 47.55517
1125.047, 42.09822
1125.529, 36.94843
1126.011, 35.07634
1126.494, 34.89652
1126.976, 34.90708
1127.458, 35.02539
1127.940, 34.84577
1128.422, 34.27272
1128.904, 34.07905
1129.386, 34.37603
1129.868, 34.49108
1130.351, 34.19705
1130.833, 33.86015
1131.315, 33.75089
1131.797, 33.78322
1132.279, 33.80190
1132.761, 33.80343
1133.243, 33.73539
1133.725, 33.59752
1134.208, 33.34950
1134.690, 32.97696
1135.172, 32.79959
1135.654, 32.99924
1136.136, 33.20709
1136.618, 32.92707
1137.100, 32.36002
1137.582, 32.17585
1138.064, 32.29152
1138.547, 32.21105
1139.029, 31.92754
1139.511, 31.73820
1139.993, 31.73693
1140.475, 31.82441
1140.957, 31.94493
1141.439, 32.00526
1141.921, 31.77830
1142.403, 31.41062
1142.886, 31.23854
1143.368, 31.23901
1143.850, 31.38211
1144.332, 31.59917
1144.814, 31.59701
1145.296, 31.22732
1145.778, 30.87907
1146.260, 31.02605
1146.743, 31.33320
1147.225, 31.39380
1147.707, 31.29897
1148.189, 31.14574
1148.671, 30.98077
1149.153, 30.87261
1149.635, 30.83541
1150.117, 30.81432
1150.599, 30.77758
1151.082, 30.74548
1151.564, 30.73712
1152.046, 30.73665
1152.528, 30.71868
1153.010, 30.70520
1153.492, 30.79537
1153.974, 30.92679
1154.456, 30.81613
1154.938, 30.30850
1155.421, 29.91898
1155.903, 29.86669
1156.385, 29.97775
1156.867, 30.31947
1157.349, 30.64632
1157.831, 30.73903
1158.313, 30.67328
1158.795, 30.61677
1159.278, 30.58908
1159.760, 30.51536
1160.242, 30.31804
1160.724, 30.17529
1161.206, 30.09226
1161.688, 30.09373
1162.170, 30.26719
1162.652, 30.46939
1163.135, 30.54599
1163.617, 30.52758
1164.099, 30.53863
1164.581, 30.58806
1165.063, 30.64264
1165.545, 30.75308
1166.027, 30.74112
1166.509, 30.51580
1166.991, 30.27325
1167.474, 30.12067
1167.956, 30.04670
1168.438, 30.04678
1168.920, 30.10961
1169.402, 30.08558
1169.884, 29.95148
1170.366, 29.99678
1170.848, 30.27902
1171.330, 30.37792
1171.813, 30.12534
1172.295, 29.80904
1172.777, 29.67160
1173.259, 29.68423
1173.741, 29.87454
1174.223, 30.16259
1174.705, 30.08704
1175.187, 29.71026
1175.670, 29.40255
1176.152, 29.23943
1176.634, 29.23593
1177.116, 29.39527
1177.598, 29.50040
1178.080, 29.25947
1178.562, 28.93215
1179.044, 28.98174
1179.526, 29.19044
1180.009, 29.14259
1180.491, 28.91653
1180.973, 28.75936
1181.455, 28.74068
1181.937, 28.89288
1182.419, 29.29949
1182.901, 29.56744
1183.383, 29.26748
1183.865, 28.87164
1184.348, 28.75586
1184.830, 28.76047
1185.312, 28.67859
1185.794, 28.55204
1186.276, 28.53552
1186.758, 28.65853
1187.240, 28.78147
1187.722, 28.89584
1188.205, 28.95478
1188.687, 28.96711
1189.169, 28.89533
1189.651, 28.64479
1190.133, 28.35778
1190.615, 28.18149
1191.097, 28.10475
1191.579, 28.05588
1192.062, 28.05022
1192.544, 28.01838
1193.026, 27.97296
1193.508, 27.86771
1193.990, 27.66160
1194.472, 27.46584
1194.954, 27.33901
1195.436, 27.26271
1195.918, 27.22805
1196.401, 27.21360
1196.883, 27.06002
1197.365, 26.75389
1197.847, 26.72556
1198.329, 27.00840
1198.811, 27.03593
1199.293, 26.65031
1199.775, 26.35363
1200.257, 26.49194
1200.740, 26.80423
1201.222, 26.95880
1201.704, 26.96002
1202.186, 26.72960
1202.668, 26.38076
1203.150, 26.28082
1203.632, 26.37609
1204.114, 26.29583
1204.597, 25.95981
1205.079, 25.70451
1205.561, 25.79226
1206.043, 25.88516
1206.525, 25.59457
1207.007, 25.25516
1207.489, 25.22040
1207.971, 25.32603
1208.453, 25.35563
1208.936, 25.30676
1209.418, 25.24687
1209.900, 25.19147
1210.382, 25.16610
1210.864, 25.20202
1211.346, 25.23566
1211.828, 25.32615
1212.310, 25.32007
1212.792, 25.05525
1213.275, 24.71309
1213.757, 24.45756
1214.239, 24.29582
1214.721, 24.26033
1215.203, 24.38064
1215.685, 24.49348
1216.167, 24.61777
1216.649, 24.67471
1217.132, 24.64092
1217.614, 24.57811
1218.096, 24.53121
1218.578, 24.41098
1219.060, 24.08427
1219.542, 23.64554
1220.024, 23.39138
1220.506, 23.31112
1220.989, 23.33674
1221.471, 23.44453
1221.953, 23.45892
1222.435, 23.35767
1222.917, 23.29012
1223.399, 23.33367
1223.881, 23.38827
1224.363, 23.32658
1224.845, 23.24887
1225.328, 23.36047
1225.810, 23.49524
1226.292, 23.29474
1226.774, 22.96589
1227.256, 23.03088
1227.738, 23.45981
1228.220, 23.69877
1228.702, 23.53525
1229.184, 23.22243
1229.667, 22.69820
1230.149, 22.28402
1230.631, 22.17507
1231.113, 22.18215
1231.595, 22.18987
1232.077, 22.20398
1232.559, 22.26679
1233.041, 22.36786
1233.524, 22.37965
1234.006, 22.21620
1234.488, 22.19124
1234.970, 22.36148
1235.452, 22.53560
1235.934, 22.69726
1236.416, 22.76977
1236.898, 22.70277
1237.380, 22.52815
1237.863, 22.26117
1238.345, 21.96178
1238.827, 21.89944
1239.309, 22.04334
1239.791, 22.21550
1240.273, 22.37708
1240.755, 22.32260
1241.237, 22.04604
1241.719, 21.87870
1242.202, 22.00736
1242.684, 22.18454
1243.166, 22.09910
1243.648, 21.99005
1244.130, 22.20357
1244.612, 22.49527
1245.094, 22.59428
1245.576, 22.51569
1246.059, 22.27538
1246.541, 21.93181
1247.023, 21.68446
1247.505, 21.57876
1247.987, 21.62460
1248.469, 22.03954
1248.951, 22.30631
1249.433, 22.16058
1249.916, 21.92479
1250.398, 21.76754
1250.880, 21.65636
1251.362, 21.54336
1251.844, 21.43918
1252.326, 21.40734
1252.808, 21.46483
1253.290, 21.50128
1253.772, 21.51328
1254.255, 21.53666
1254.737, 21.58233
1255.219, 21.56624
1255.701, 21.44156
1256.183, 21.30296
1256.665, 21.24675
1257.147, 21.26876
1257.629, 21.45452
1258.111, 21.66282
1258.594, 21.48133
1259.076, 21.09703
1259.558, 21.00593
1260.040, 21.21269
1260.522, 21.40744
1261.004, 21.47816
1261.486, 21.47639
1261.968, 21.35496
1262.451, 21.27512
1262.933, 21.37124
1263.415, 21.47281
1263.897, 21.49904
1264.379, 21.44591
1264.861, 21.23780
1265.343, 20.96293
1265.825, 20.92543
1266.307, 21.17388
1266.790, 21.23468
1267.272, 21.00304
1267.754, 20.91838
1268.236, 21.07851
1268.718, 21.15113
1269.200, 20.99321
1269.682, 20.85421
1270.164, 20.95496
1270.646, 21.14713
1271.129, 21.13636
1271.611, 21.00698
1272.093, 21.05815
1272.575, 21.21853
1273.057, 21.28970
1273.539, 21.26620
1274.021, 21.17894
1274.503, 21.06321
1274.986, 21.06758
1275.468, 21.31543
1275.950, 21.47137
1276.432, 21.18323
1276.914, 20.90751
1277.396, 20.95508
1277.878, 21.10760
1278.360, 21.26070
1278.843, 21.34174
1279.325, 21.19568
1279.807, 20.86086
1280.289, 20.70814
1280.771, 20.79740
1281.253, 20.86649
1281.735, 20.91457
1282.217, 20.95124
1282.699, 20.98255
1283.182, 20.97626
1283.664, 20.91444
1284.146, 20.81620
1284.628, 20.68688
1285.110, 20.57571
1285.592, 20.57211
1286.074, 20.67871
##END=



