##NAMES=Pyrrhotite
##RRUFFID=R060440
##IDEAL CHEMISTRY=Fe^2+^_5_Fe^3+^_2_S^2-^_8_
##LOCALITY=Dal 'Negorsk, Primorskiy Kray, far eastern Russia
##OWNER=RRUFF
##SOURCE=Michael Scott
##DESCRIPTION=Bronze-yellow metallic tabular hexagonal prisms
##STATUS=The identification of this mineral has been confirmed by X-ray diffraction and chemical analysis
##URL=rruff.info/R060440
##MEASURED CHEMISTRY=Fe_7.1_S_8.0_
160.5123, 30.85309
160.9945, 31.28355
161.4766, 31.47849
161.9587, 31.25642
162.4408, 31.04673
162.9229, 30.86907
163.4050, 30.69768
163.8871, 30.48935
164.3693, 30.22887
164.8514, 29.96838
165.3335, 29.83909
165.8156, 29.90666
166.2977, 30.01420
166.7798, 30.13468
167.2620, 30.28820
167.7441, 30.53767
168.2262, 30.93774
168.7083, 31.38652
169.1904, 31.61074
169.6725, 31.72893
170.1547, 31.51695
170.6368, 30.53380
171.1189, 29.05311
171.6010, 28.06116
172.0831, 28.18437
172.5652, 28.94870
173.0474, 29.28649
173.5295, 29.03331
174.0116, 28.67023
174.4937, 28.57181
174.9758, 28.73699
175.4579, 28.88688
175.9401, 28.83259
176.4222, 28.73800
176.9043, 28.81796
177.3864, 29.18008
177.8685, 29.55964
178.3506, 29.56567
178.8328, 29.07149
179.3149, 28.65658
179.7970, 28.61972
180.2791, 28.70201
180.7612, 28.69119
181.2433, 28.50820
181.7255, 28.20478
182.2076, 27.86354
182.6897, 27.37486
183.1718, 27.06743
183.6539, 27.07590
184.1360, 27.23569
184.6181, 27.40020
185.1003, 27.50268
185.5824, 27.53889
186.0645, 27.49160
186.5466, 27.29201
187.0287, 27.08307
187.5108, 26.85618
187.9930, 26.63925
188.4751, 26.47483
188.9572, 26.39079
189.4393, 26.36603
189.9214, 26.28216
190.4035, 25.81178
190.8857, 25.64491
191.3678, 26.25581
191.8499, 27.23479
192.3320, 27.82598
192.8141, 27.51918
193.2962, 26.48116
193.7784, 26.01941
194.2605, 26.54884
194.7426, 27.06096
195.2247, 27.19317
195.7068, 27.02607
196.1889, 26.81364
196.6711, 26.69596
197.1532, 26.66343
197.6353, 26.64163
198.1174, 26.65039
198.5995, 26.65059
199.0816, 26.59721
199.5638, 26.50219
200.0459, 26.45921
200.5280, 26.58790
201.0101, 26.78321
201.4922, 26.73695
201.9743, 26.07787
202.4565, 25.53763
202.9386, 25.99406
203.4207, 27.48517
203.9028, 28.64436
204.3849, 28.44729
204.8670, 27.53674
205.3492, 26.80105
205.8313, 26.38688
206.3134, 26.21676
206.7955, 26.24155
207.2776, 26.49324
207.7597, 26.79241
208.2419, 27.22753
208.7240, 27.60548
209.2061, 27.70095
209.6882, 27.40999
210.1703, 26.87321
210.6524, 26.26677
211.1346, 25.47935
211.6167, 24.93419
212.0988, 24.88259
212.5809, 25.05828
213.0630, 25.20521
213.5451, 25.21133
214.0273, 25.17844
214.5094, 25.38484
214.9915, 26.12852
215.4736, 26.55219
215.9557, 26.21402
216.4378, 25.65201
216.9200, 25.47853
217.4021, 25.98194
217.8842, 26.82016
218.3663, 27.00226
218.8484, 25.89799
219.3305, 25.01254
219.8127, 24.50459
220.2948, 24.28787
220.7769, 24.32620
221.2590, 24.60360
221.7411, 25.00935
222.2232, 25.21255
222.7054, 24.89511
223.1875, 24.75015
223.6696, 25.03079
224.1517, 25.42958
224.6338, 25.56054
225.1159, 25.25075
225.5980, 24.66064
226.0802, 24.25383
226.5623, 24.15765
227.0444, 24.10369
227.5265, 24.05696
228.0086, 24.04737
228.4907, 24.13637
228.9729, 24.35469
229.4550, 24.63830
229.9371, 24.80968
230.4192, 24.69842
230.9013, 24.74414
231.3834, 25.15250
231.8656, 25.72801
232.3477, 26.21187
232.8298, 26.51805
233.3119, 26.63882
233.7940, 26.47029
234.2761, 25.80757
234.7583, 25.40835
235.2404, 25.69141
235.7225, 26.32712
236.2046, 26.72746
236.6867, 26.67230
237.1688, 26.38391
237.6510, 26.24895
238.1331, 26.29036
238.6152, 26.30025
239.0973, 26.24059
239.5794, 26.09857
240.0615, 25.77730
240.5437, 25.13505
241.0258, 24.55174
241.5079, 24.63460
241.9900, 25.36970
242.4721, 26.03089
242.9542, 26.31280
243.4364, 26.29297
243.9185, 26.13602
244.4006, 25.80654
244.8827, 25.46938
245.3648, 25.25359
245.8469, 25.15290
246.3290, 25.19837
246.8112, 25.49511
247.2933, 25.95746
247.7754, 26.37424
248.2575, 26.83784
248.7396, 27.02345
249.2217, 26.48009
249.7039, 25.42489
250.1860, 24.60797
250.6681, 24.62085
251.1502, 25.22723
251.6323, 25.53961
252.1144, 25.41556
252.5966, 25.15006
253.0787, 24.89057
253.5608, 24.64122
254.0429, 24.40764
254.5250, 24.18292
255.0071, 23.97713
255.4893, 23.82363
255.9714, 23.70871
256.4535, 23.68081
256.9356, 23.86186
257.4177, 24.11589
257.8998, 24.20661
258.3820, 23.94981
258.8641, 23.46171
259.3462, 23.14875
259.8283, 23.05298
260.3104, 23.08502
260.7925, 23.36395
261.2747, 23.68899
261.7568, 23.74824
262.2389, 23.32581
262.7210, 22.65603
263.2031, 22.46007
263.6852, 23.10493
264.1674, 23.60823
264.6495, 23.64441
265.1316, 23.48126
265.6137, 23.40958
266.0958, 23.55861
266.5779, 23.82417
267.0601, 23.93889
267.5422, 23.72893
268.0243, 23.68851
268.5064, 24.05887
268.9885, 24.51315
269.4706, 24.77870
269.9528, 24.75758
270.4349, 24.51042
270.9170, 24.07569
271.3991, 23.07244
271.8812, 22.68105
272.3633, 23.47776
272.8455, 24.49103
273.3276, 24.92030
273.8097, 24.60066
274.2918, 23.99764
274.7739, 23.87290
275.2560, 24.70893
275.7382, 24.97383
276.2202, 24.23908
276.7024, 23.37857
277.1845, 22.92703
277.6666, 22.95997
278.1487, 23.23197
278.6308, 23.47187
279.1129, 23.71142
279.5951, 23.79396
280.0772, 23.64451
280.5593, 23.43438
281.0414, 23.17854
281.5235, 22.92565
282.0056, 22.80294
282.4878, 22.97366
282.9699, 23.52703
283.4520, 23.71420
283.9341, 23.20345
284.4162, 22.70565
284.8983, 22.51395
285.3805, 22.58354
285.8626, 22.73739
286.3447, 22.85754
286.8268, 22.94183
287.3089, 22.85449
287.7910, 22.39823
288.2732, 21.99697
288.7553, 21.65066
289.2374, 21.45614
289.7195, 21.67234
290.2016, 22.51339
290.6837, 23.76773
291.1659, 24.24006
291.6480, 22.96548
292.1301, 22.03908
292.6122, 21.87213
293.0943, 22.23923
293.5764, 22.93664
294.0586, 23.89386
294.5407, 24.87161
295.0228, 25.22158
295.5049, 23.96516
295.9870, 23.26435
296.4691, 23.60897
296.9513, 24.36739
297.4334, 24.83410
297.9155, 24.78592
298.3976, 24.55494
298.8797, 24.71079
299.3618, 25.62793
299.8440, 26.23535
300.3261, 26.26575
300.8082, 26.15699
301.2903, 26.25973
301.7724, 26.63874
302.2545, 27.15162
302.7367, 27.66153
303.2188, 28.21592
303.7009, 28.51775
304.1830, 28.35179
304.6651, 28.13445
305.1472, 28.15554
305.6294, 28.39913
306.1115, 28.62088
306.5936, 28.56927
307.0757, 28.21243
307.5578, 28.32225
308.0399, 29.48154
308.5221, 30.44740
309.0042, 30.48158
309.4863, 29.85356
309.9684, 29.33967
310.4505, 29.46232
310.9326, 30.10106
311.4148, 30.40682
311.8969, 29.92921
312.3790, 29.69172
312.8611, 30.19385
313.3432, 31.04985
313.8253, 31.59122
314.3075, 31.49381
314.7896, 31.03576
315.2717, 30.93157
315.7538, 31.44919
316.2359, 31.93786
316.7180, 32.32869
317.2001, 32.67488
317.6823, 33.03905
318.1644, 33.44007
318.6465, 33.84435
319.1286, 34.21593
319.6107, 34.60921
320.0928, 34.79233
320.5750, 34.53658
321.0571, 34.23458
321.5392, 34.24800
322.0213, 34.58338
322.5034, 34.92607
322.9855, 34.95184
323.4677, 34.60424
323.9498, 34.31845
324.4319, 34.00831
324.9140, 33.82528
325.3961, 33.97925
325.8782, 34.35051
326.3604, 34.57111
326.8425, 34.35493
327.3246, 33.75674
327.8067, 33.39789
328.2888, 33.68316
328.7709, 33.71709
329.2531, 32.98405
329.7352, 31.90022
330.2173, 31.18332
330.6994, 31.18718
331.1815, 31.64242
331.6636, 31.82178
332.1458, 31.60403
332.6279, 31.23354
333.1100, 30.47521
333.5921, 29.68847
334.0742, 29.31120
334.5563, 29.44234
335.0385, 29.71686
335.5206, 29.60129
336.0027, 28.92310
336.4848, 28.25884
336.9669, 27.46185
337.4490, 26.78273
337.9312, 26.47889
338.4133, 26.49708
338.8954, 26.50014
339.3775, 26.13472
339.8596, 25.33497
340.3417, 24.99740
340.8239, 25.80931
341.3060, 26.31169
341.7881, 25.71128
342.2702, 24.41390
342.7523, 23.29132
343.2344, 22.89235
343.7166, 23.07409
344.1987, 23.14745
344.6808, 23.04850
345.1629, 22.90105
345.6450, 22.66176
346.1271, 22.40149
346.6093, 22.17744
347.0914, 22.01552
347.5735, 21.93637
348.0556, 22.00425
348.5377, 22.42110
349.0198, 22.61062
349.5020, 22.33893
349.9841, 22.04544
350.4662, 22.05691
350.9483, 22.38790
351.4304, 22.81375
351.9125, 23.08484
352.3947, 23.16386
352.8768, 23.33542
353.3589, 23.67467
353.8410, 24.03002
354.3231, 24.42058
354.8052, 24.78429
355.2874, 24.99413
355.7695, 24.93686
356.2516, 24.67977
356.7337, 24.62240
357.2158, 25.05547
357.6979, 25.28830
358.1800, 25.04706
358.6621, 24.61975
359.1443, 24.28443
359.6264, 24.14756
360.1085, 24.21197
360.5906, 24.56717
361.0727, 25.47981
361.5548, 25.97208
362.0370, 25.47931
362.5191, 24.91748
363.0012, 24.90493
363.4833, 25.46066
363.9654, 26.13408
364.4475, 26.50533
364.9297, 26.56464
365.4118, 26.47391
365.8939, 26.03126
366.3760, 25.65834
366.8581, 25.54154
367.3402, 25.61742
367.8224, 25.76307
368.3045, 25.95802
368.7866, 26.13137
369.2687, 26.01448
369.7508, 25.40207
370.2329, 24.95971
370.7151, 25.22174
371.1972, 25.60435
371.6793, 25.41176
372.1614, 24.38014
372.6435, 23.25088
373.1256, 23.02676
373.6078, 23.77763
374.0899, 24.43960
374.5720, 24.95333
375.0541, 25.13707
375.5362, 24.71259
376.0183, 23.74850
376.5005, 22.85504
376.9826, 22.37546
377.4647, 22.27823
377.9468, 22.56293
378.4289, 23.51428
378.9110, 24.20923
379.3932, 23.79742
379.8753, 22.71774
380.3574, 21.76789
380.8395, 21.24276
381.3216, 20.91117
381.8037, 20.43818
382.2859, 19.81494
382.7680, 19.45005
383.2501, 19.74358
383.7322, 20.25380
384.2143, 20.21112
384.6964, 19.41338
385.1786, 18.73207
385.6607, 18.82516
386.1428, 19.42205
386.6249, 19.83533
387.1070, 19.92863
387.5891, 19.73830
388.0713, 19.04047
388.5534, 17.89540
389.0355, 17.30523
389.5176, 17.84782
389.9997, 18.80388
390.4818, 19.59678
390.9640, 20.16980
391.4461, 20.38819
391.9282, 20.09115
392.4103, 19.35409
392.8924, 18.67160
393.3745, 17.91916
393.8567, 17.34835
394.3388, 17.09036
394.8209, 17.08091
395.3030, 17.27067
395.7851, 17.67346
396.2672, 18.07251
396.7494, 18.04421
397.2315, 17.26728
397.7136, 16.83735
398.1957, 17.07825
398.6778, 17.49436
399.1599, 17.67459
399.6420, 17.58685
400.1241, 17.43522
400.6063, 17.39283
401.0884, 17.46154
401.5705, 17.58153
402.0526, 17.76284
402.5347, 17.97608
403.0168, 18.33713
403.4990, 18.69959
403.9811, 18.80806
404.4632, 18.53745
404.9453, 18.02545
405.4274, 17.59328
405.9095, 17.21170
406.3917, 16.98104
406.8738, 16.96766
407.3559, 17.04197
407.8380, 17.15434
408.3201, 17.27307
408.8022, 17.33464
409.2844, 17.24076
409.7665, 16.97086
410.2486, 16.88771
410.7307, 17.13369
411.2128, 17.42553
411.6949, 17.92797
412.1771, 18.37015
412.6592, 18.24197
413.1413, 17.19725
413.6234, 15.77070
414.1055, 15.13190
414.5876, 15.46912
415.0698, 16.02206
415.5519, 17.06454
416.0340, 17.95483
416.5161, 18.09836
416.9982, 17.47175
417.4803, 16.77290
417.9625, 16.67885
418.4446, 17.07851
418.9267, 17.15812
419.4088, 16.67697
419.8909, 16.21045
420.3730, 16.22072
420.8552, 16.50788
421.3373, 16.67027
421.8194, 16.53655
422.3015, 16.25938
422.7836, 16.02351
423.2657, 15.82792
423.7479, 15.52571
424.2300, 14.86380
424.7121, 14.25311
425.1942, 14.40916
425.6763, 15.51555
426.1584, 16.41986
426.6406, 16.48607
427.1227, 16.07105
427.6048, 15.70850
428.0869, 15.47350
428.5690, 15.44533
429.0511, 15.77715
429.5333, 16.46621
430.0154, 16.91651
430.4975, 17.09800
430.9796, 17.06694
431.4617, 16.76241
431.9438, 16.26638
432.4260, 15.74119
432.9081, 15.24718
433.3902, 14.84297
433.8723, 14.68842
434.3544, 15.12177
434.8365, 15.23854
435.3187, 14.61988
435.8008, 13.93218
436.2829, 13.81863
436.7650, 14.28528
437.2471, 14.81318
437.7292, 14.90193
438.2114, 14.53662
438.6935, 14.33834
439.1756, 14.41850
439.6577, 14.54549
440.1398, 14.79779
440.6219, 15.02498
441.1040, 14.96135
441.5862, 14.49786
442.0683, 13.92224
442.5504, 13.78939
443.0325, 14.25142
443.5146, 14.69025
443.9967, 15.17483
444.4789, 15.52061
444.9610, 15.51180
445.4431, 15.23995
445.9252, 15.05614
446.4073, 15.34952
446.8894, 15.91082
447.3716, 15.81928
447.8537, 14.72221
448.3358, 13.85516
448.8179, 14.05601
449.3000, 14.64373
449.7821, 14.86558
450.2643, 14.50496
450.7464, 14.07200
451.2285, 14.03004
451.7106, 14.30678
452.1927, 14.56232
452.6748, 14.76070
453.1570, 14.85734
453.6391, 14.70963
454.1212, 14.38175
454.6033, 14.18899
455.0854, 14.39679
455.5675, 14.62850
456.0497, 14.39580
456.5318, 13.80096
457.0139, 13.52167
457.4960, 13.98376
457.9781, 14.88388
458.4602, 15.39110
458.9424, 15.36929
459.4245, 15.32171
459.9066, 15.32962
460.3887, 15.35579
460.8708, 15.33967
461.3529, 15.28358
461.8351, 15.28689
462.3172, 15.48100
462.7993, 15.88130
463.2814, 15.93850
463.7635, 15.34839
464.2456, 14.79012
464.7278, 14.31205
465.2099, 14.00504
465.6920, 14.06236
466.1741, 14.54446
466.6562, 15.14461
467.1383, 15.33006
467.6205, 14.96907
468.1026, 14.60384
468.5847, 14.04191
469.0668, 13.67057
469.5489, 13.84822
470.0310, 14.38490
470.5132, 14.74993
470.9953, 14.54342
471.4774, 14.02000
471.9595, 13.87724
472.4416, 14.23838
472.9237, 14.52158
473.4059, 14.45703
473.8880, 14.25686
474.3701, 14.06469
474.8522, 13.89219
475.3343, 13.83885
475.8164, 14.08783
476.2986, 14.49359
476.7807, 14.65698
477.2628, 14.49067
477.7449, 14.32274
478.2270, 14.50517
478.7091, 14.89443
479.1913, 14.89725
479.6734, 13.91502
480.1555, 13.17354
480.6376, 13.66022
481.1197, 14.80851
481.6018, 15.34654
482.0839, 14.83410
482.5660, 13.94586
483.0482, 13.62926
483.5303, 14.10493
484.0124, 14.38744
484.4945, 14.33804
484.9766, 14.23824
485.4587, 14.17450
485.9409, 14.18529
486.4230, 14.38939
486.9051, 14.88121
487.3872, 15.44019
487.8693, 15.37060
488.3514, 14.11018
488.8336, 13.27769
489.3157, 13.12629
489.7978, 13.26099
490.2799, 13.52652
490.7620, 13.84908
491.2441, 14.10836
491.7263, 14.15812
492.2084, 14.06686
492.6905, 14.21907
493.1726, 14.78970
493.6547, 15.18104
494.1368, 14.93884
494.6190, 14.49262
495.1011, 14.26316
495.5832, 14.33285
496.0653, 14.54091
496.5474, 14.89928
497.0295, 15.30484
497.5117, 15.40717
497.9938, 15.11124
498.4759, 14.69061
498.9580, 14.31970
499.4401, 14.00388
499.9222, 13.75714
500.4044, 13.51147
500.8865, 13.40466
501.3686, 13.70254
501.8507, 14.16545
502.3328, 14.15427
502.8149, 13.42666
503.2971, 12.69586
503.7792, 13.08236
504.2613, 15.19251
504.7434, 16.20109
505.2255, 15.29633
505.7076, 14.21939
506.1898, 13.76904
506.6719, 13.78916
507.1540, 13.85989
507.6361, 13.76789
508.1182, 13.52683
508.6003, 13.10176
509.0825, 12.26966
509.5646, 11.85402
510.0467, 12.22991
510.5288, 12.78931
511.0109, 13.32246
511.4930, 13.76645
511.9752, 14.03252
512.4573, 14.01266
512.9394, 13.81092
513.4215, 13.65711
513.9036, 13.55454
514.3857, 13.46828
514.8679, 13.31750
515.3500, 13.23381
515.8321, 13.47584
516.3142, 14.11405
516.7963, 14.46923
517.2784, 13.88574
517.7606, 13.01709
518.2427, 12.89745
518.7248, 13.57902
519.2069, 14.23761
519.6890, 14.33503
520.1711, 13.96260
520.6533, 13.56023
521.1354, 12.71770
521.6175, 12.38284
522.0996, 13.25553
522.5817, 14.39687
523.0638, 14.76390
523.5460, 14.25635
524.0281, 13.58456
524.5102, 13.44878
524.9923, 13.82833
525.4744, 13.96595
525.9565, 13.58400
526.4387, 13.31769
526.9208, 13.40836
527.4029, 13.61253
527.8850, 13.66219
528.3671, 13.49361
528.8492, 13.26645
529.3314, 13.06755
529.8135, 12.91919
530.2956, 13.11882
530.7777, 13.90995
531.2598, 14.57597
531.7419, 14.52819
532.2241, 14.09021
532.7062, 13.74108
533.1883, 13.52838
533.6704, 13.49688
534.1525, 13.89328
534.6346, 14.47307
535.1168, 14.55828
535.5989, 13.95486
536.0810, 13.30778
536.5631, 13.36059
537.0452, 14.15666
537.5273, 14.31036
538.0095, 13.04505
538.4916, 12.06420
538.9737, 12.20364
539.4558, 12.95269
539.9379, 13.56656
540.4200, 13.79202
540.9022, 13.80508
541.3843, 13.84101
541.8664, 13.91534
542.3485, 13.92370
542.8306, 13.77525
543.3127, 13.65851
543.7948, 13.66524
544.2769, 13.73210
544.7590, 13.75303
545.2411, 13.68335
545.7233, 13.60093
546.2054, 13.59138
546.6875, 13.65390
547.1696, 13.79399
547.6517, 14.06099
548.1339, 14.31262
548.6160, 14.48725
549.0981, 14.55960
549.5802, 14.40550
550.0623, 13.63669
550.5444, 13.02409
551.0266, 13.26992
551.5087, 14.02906
551.9908, 14.46837
552.4729, 14.32700
552.9550, 14.02327
553.4371, 14.12291
553.9193, 14.77574
554.4014, 14.89400
554.8835, 13.86004
555.3656, 13.05427
555.8477, 13.18397
556.3298, 13.78944
556.8120, 14.17104
557.2941, 14.07439
557.7762, 13.74667
558.2583, 13.48078
558.7404, 13.25920
559.2225, 13.28289
559.7047, 13.87133
560.1868, 14.28641
560.6689, 14.04023
561.1510, 13.44641
561.6331, 13.02173
562.1152, 12.91858
562.5974, 13.03031
563.0795, 13.28581
563.5616, 13.67794
564.0437, 14.32313
564.5258, 15.37395
565.0079, 16.05644
565.4901, 15.42816
565.9722, 13.57751
566.4543, 12.54252
566.9364, 12.93435
567.4185, 13.43384
567.9006, 13.58713
568.3828, 13.52514
568.8649, 13.37490
569.3470, 13.19969
569.8291, 13.16804
570.3112, 13.54607
570.7933, 14.38485
571.2755, 14.72457
571.7576, 14.14484
572.2397, 13.57451
572.7218, 13.21622
573.2039, 12.99253
573.6860, 12.77743
574.1682, 12.54309
574.6503, 12.44840
575.1324, 12.78751
575.6145, 13.42215
576.0966, 13.67144
576.5787, 13.38850
577.0609, 13.13718
577.5430, 13.29245
578.0251, 13.71191
578.5072, 14.05220
578.9893, 14.34464
579.4714, 14.47197
579.9536, 14.24664
580.4357, 13.90609
580.9178, 13.77764
581.3999, 13.87522
581.8820, 13.93958
582.3641, 13.75320
582.8463, 13.38319
583.3284, 13.22612
583.8105, 13.56061
584.2926, 13.70338
584.7747, 13.52675
585.2568, 13.20929
585.7390, 12.77931
586.2211, 12.31587
586.7032, 12.03016
587.1853, 12.08952
587.6674, 12.42167
588.1495, 12.89305
588.6317, 13.55036
589.1138, 14.06763
589.5959, 14.38164
590.0780, 14.46019
590.5601, 14.21826
591.0422, 13.66212
591.5244, 13.16522
592.0065, 12.72801
592.4886, 12.48750
592.9707, 12.73942
593.4528, 13.32493
593.9349, 13.70084
594.4171, 13.61780
594.8992, 13.28014
595.3813, 13.03601
595.8634, 12.90643
596.3455, 12.81238
596.8276, 12.84477
597.3098, 12.81296
597.7919, 12.46794
598.2740, 12.04716
598.7561, 12.01174
599.2382, 12.56577
599.7203, 13.25281
600.2025, 13.39993
600.6846, 13.02616
601.1667, 12.83352
601.6488, 12.94796
602.1309, 13.13746
602.6130, 13.36681
603.0952, 13.54167
603.5773, 13.39275
604.0594, 12.58734
604.5415, 12.02186
605.0236, 12.39212
605.5057, 13.19981
605.9879, 13.69398
606.4700, 13.75426
606.9521, 13.62186
607.4342, 13.46187
607.9163, 13.29602
608.3984, 13.29725
608.8806, 13.78303
609.3627, 13.99110
609.8448, 13.53327
610.3269, 13.02538
610.8090, 13.04591
611.2911, 13.53110
611.7733, 13.92354
612.2554, 13.78930
612.7375, 13.34502
613.2196, 13.09966
613.7017, 13.07151
614.1838, 13.00999
614.6660, 12.70580
615.1481, 12.50205
615.6302, 12.96280
616.1123, 14.03141
616.5944, 14.76550
617.0765, 14.83697
617.5587, 14.64527
618.0408, 14.38815
618.5229, 14.08209
619.0050, 13.66872
619.4871, 13.13498
619.9692, 12.71480
620.4514, 12.76036
620.9335, 13.35271
621.4156, 13.79533
621.8977, 14.03079
622.3798, 14.17357
622.8619, 14.19603
623.3441, 14.17000
623.8262, 14.18966
624.3083, 14.27472
624.7904, 14.32654
625.2725, 14.24536
625.7546, 14.06851
626.2367, 13.91282
626.7188, 13.79111
627.2009, 13.58089
627.6830, 13.13360
628.1652, 12.62346
628.6473, 12.48797
629.1294, 12.83545
629.6115, 13.12785
630.0936, 13.32437
630.5757, 13.40905
631.0579, 13.30801
631.5400, 13.08716
632.0221, 12.89014
632.5042, 12.78870
632.9863, 12.77995
633.4684, 12.86788
633.9506, 13.06538
634.4327, 13.31590
634.9148, 13.82049
635.3969, 14.10618
635.8790, 13.83201
636.3611, 13.23347
636.8433, 12.67391
637.3254, 12.18479
637.8075, 11.94444
638.2896, 12.24596
638.7717, 12.84210
639.2538, 13.26611
639.7360, 13.45259
640.2181, 13.55801
640.7002, 13.69963
641.1823, 13.84089
641.6644, 13.83161
642.1465, 13.48620
642.6287, 13.24339
643.1108, 13.14278
643.5929, 13.11610
644.0750, 13.09099
644.5571, 13.09877
645.0392, 13.27151
645.5214, 13.72963
646.0035, 14.22790
646.4856, 14.28380
646.9677, 13.89959
647.4498, 13.64954
647.9319, 13.69269
648.4141, 13.76495
648.8962, 13.62202
649.3783, 13.32451
649.8604, 13.09939
650.3425, 12.81674
650.8246, 12.80930
651.3068, 13.53285
651.7889, 14.43457
652.2710, 14.80311
652.7531, 14.57625
653.2352, 14.13469
653.7173, 13.74881
654.1995, 13.43110
654.6816, 13.24243
655.1637, 13.23542
655.6458, 13.23306
656.1279, 13.15353
656.6100, 13.11943
657.0922, 13.22151
657.5743, 13.43434
658.0564, 13.67743
658.5385, 14.03753
659.0206, 14.25222
659.5027, 13.81064
659.9849, 13.02553
660.4670, 12.90971
660.9491, 13.71526
661.4312, 14.60760
661.9133, 14.80282
662.3954, 14.36227
662.8776, 14.16052
663.3597, 14.47863
663.8418, 14.66924
664.3239, 14.58746
664.8060, 14.41831
665.2881, 14.26514
665.7703, 14.16507
666.2524, 14.17530
666.7345, 14.38511
667.2166, 14.64502
667.6987, 14.61003
668.1808, 14.29258
668.6630, 14.19533
669.1451, 14.51707
669.6272, 14.89293
670.1093, 14.93216
670.5914, 14.66959
671.0735, 14.57696
671.5557, 14.81476
672.0378, 15.03523
672.5199, 15.25167
673.0020, 15.31987
673.4841, 14.92778
673.9662, 14.15529
674.4484, 13.53889
674.9305, 13.51442
675.4126, 13.91904
675.8947, 14.24330
676.3768, 14.50259
676.8589, 14.59103
677.3411, 14.25823
677.8232, 14.01020
678.3053, 14.45671
678.7874, 15.35332
679.2695, 15.77955
679.7516, 15.10984
680.2338, 14.44709
680.7159, 14.66529
681.1980, 15.22405
681.6801, 15.12278
682.1622, 14.27688
682.6443, 13.56858
683.1265, 13.77094
683.6086, 14.64531
684.0907, 15.01055
684.5728, 14.61561
685.0549, 14.25927
685.5370, 13.84618
686.0192, 13.68197
686.5013, 14.22986
686.9834, 15.18715
687.4655, 15.65637
687.9476, 15.04988
688.4297, 14.31045
688.9119, 14.42248
689.3940, 15.01404
689.8761, 15.15641
690.3582, 14.69645
690.8403, 14.21267
691.3224, 14.15678
691.8046, 14.43909
692.2867, 14.63895
692.7688, 14.79964
693.2509, 14.79849
693.7330, 14.41685
694.2151, 14.08142
694.6973, 14.06702
695.1794, 14.30513
695.6615, 14.62746
696.1436, 15.02312
696.6257, 15.26469
697.1078, 14.98277
697.5900, 14.33113
698.0721, 13.79436
698.5542, 13.43325
699.0363, 13.35726
699.5184, 13.72781
700.0005, 14.37961
700.4827, 14.72695
700.9648, 14.56127
701.4469, 14.41973
701.9290, 14.23489
702.4111, 14.14526
702.8932, 14.31357
703.3754, 14.62609
703.8575, 14.84279
704.3396, 14.85888
704.8217, 14.81987
705.3038, 15.00273
705.7859, 15.30448
706.2681, 15.07736
706.7502, 14.15477
707.2323, 13.57584
707.7144, 14.10052
708.1965, 15.18335
708.6786, 15.51741
709.1607, 14.76217
709.6428, 14.30167
710.1249, 14.48796
710.6071, 14.72925
711.0892, 14.69921
711.5713, 14.48778
712.0534, 14.24123
712.5355, 14.01841
713.0176, 13.91020
713.4998, 14.05505
713.9819, 14.41130
714.4640, 14.80713
714.9461, 15.27515
715.4282, 15.53017
715.9103, 15.36155
716.3925, 15.01452
716.8746, 14.89042
717.3567, 15.02779
717.8388, 15.02685
718.3209, 14.59136
718.8030, 14.29855
719.2852, 14.53608
719.7673, 15.02941
720.2494, 15.45369
720.7315, 15.70380
721.2136, 15.75557
721.6957, 15.51085
722.1779, 15.08488
722.6600, 14.88777
723.1421, 14.92963
723.6242, 15.12998
724.1063, 15.57637
724.5884, 15.99971
725.0706, 16.06976
725.5527, 15.81462
726.0348, 15.61570
726.5169, 15.67000
726.9990, 15.56459
727.4811, 14.94951
727.9633, 14.23839
728.4454, 13.79250
728.9275, 13.70003
729.4096, 14.03444
729.8917, 14.94497
730.3738, 16.05183
730.8560, 16.51630
731.3381, 16.32121
731.8202, 16.02554
732.3023, 15.68067
732.7844, 15.33277
733.2665, 14.97311
733.7487, 14.64301
734.2308, 14.47981
734.7129, 14.53610
735.1950, 14.65828
735.6771, 14.93282
736.1592, 15.16378
736.6414, 15.14437
737.1235, 14.95639
737.6056, 14.80356
738.0877, 14.77514
738.5698, 14.87516
739.0519, 15.23221
739.5341, 15.78311
740.0162, 15.89121
740.4983, 15.43184
740.9804, 14.96096
741.4625, 14.70638
741.9446, 14.63719
742.4268, 14.72766
742.9089, 15.00489
743.3910, 15.27983
743.8731, 15.68005
744.3552, 15.92032
744.8373, 15.66334
745.3195, 15.24993
745.8016, 15.20738
746.2837, 15.62297
746.7658, 16.09099
747.2479, 16.28547
747.7300, 16.24692
748.2122, 15.98199
748.6943, 15.48360
749.1764, 15.27759
749.6585, 15.59633
750.1406, 16.03218
750.6227, 16.17900
751.1049, 16.04202
751.5870, 15.90523
752.0691, 15.64336
752.5512, 15.54941
753.0333, 15.79972
753.5154, 16.14033
753.9976, 16.39152
754.4797, 16.53725
754.9618, 16.64273
755.4439, 16.76582
755.9260, 16.77350
756.4081, 16.36004
756.8903, 15.66249
757.3724, 15.25855
757.8545, 15.22307
758.3366, 15.41018
758.8187, 15.80642
759.3008, 16.26392
759.7830, 16.40907
760.2651, 16.11399
760.7472, 15.79981
761.2293, 15.05038
761.7114, 14.74503
762.1935, 15.72103
762.6757, 17.13144
763.1578, 17.84117
763.6399, 17.59760
764.1220, 17.00619
764.6041, 16.21908
765.0862, 15.50808
765.5684, 15.46619
766.0505, 15.93109
766.5326, 16.00233
767.0147, 15.36647
767.4968, 14.72567
767.9789, 14.91602
768.4611, 15.88812
768.9432, 16.42208
769.4253, 16.20161
769.9074, 16.08456
770.3895, 16.38657
770.8716, 16.66676
771.3538, 16.60447
771.8359, 16.26672
772.3180, 15.87189
772.8001, 15.29820
773.2822, 15.07614
773.7643, 16.02375
774.2465, 17.31947
774.7286, 17.58072
775.2107, 16.87914
775.6928, 16.40537
776.1749, 16.85061
776.6570, 17.62239
777.1392, 17.39850
777.6213, 15.91306
778.1034, 15.44939
778.5855, 16.61862
779.0676, 17.65294
779.5497, 17.55462
780.0319, 17.03388
780.5140, 17.08794
780.9961, 17.79426
781.4782, 18.17435
781.9603, 17.71197
782.4424, 17.15903
782.9246, 16.96839
783.4067, 16.95529
783.8888, 16.80601
784.3709, 16.48118
784.8530, 16.18362
785.3351, 16.06173
785.8173, 16.09936
786.2994, 16.35088
786.7815, 16.81631
787.2636, 16.94246
787.7457, 16.49951
788.2278, 16.15491
788.7100, 16.56893
789.1921, 17.45061
789.6742, 17.61046
790.1563, 16.46690
790.6384, 15.70690
791.1205, 15.65343
791.6026, 15.76914
792.0847, 15.78947
792.5668, 15.75704
793.0490, 15.79042
793.5311, 15.92342
794.0132, 16.07343
794.4953, 16.13223
794.9774, 16.18301
795.4595, 16.49489
795.9417, 16.98242
796.4238, 17.08998
796.9059, 16.62216
797.3880, 15.93045
797.8701, 15.36241
798.3522, 14.92296
798.8344, 14.74593
799.3165, 14.97147
799.7986, 15.18806
800.2807, 15.32135
800.7628, 15.43621
801.2449, 15.56229
801.7271, 15.69955
802.2092, 15.86385
802.6913, 16.13504
803.1734, 16.24214
803.6555, 15.78366
804.1376, 15.27756
804.6198, 15.44380
805.1019, 16.07008
805.5840, 16.36802
806.0661, 16.00256
806.5482, 15.49218
807.0303, 15.59849
807.5125, 16.23241
807.9946, 16.55437
808.4767, 16.55022
808.9588, 16.28691
809.4409, 15.66354
809.9230, 14.98289
810.4052, 14.50037
810.8873, 14.22860
811.3694, 14.45368
811.8515, 16.00056
812.3336, 16.91629
812.8157, 16.31791
813.2979, 15.35721
813.7800, 14.80369
814.2621, 14.70614
814.7442, 14.94624
815.2263, 15.53484
815.7084, 16.12544
816.1906, 16.44689
816.6727, 16.49909
817.1548, 16.12729
817.6369, 15.41149
818.1190, 14.95437
818.6011, 15.03769
819.0833, 15.34758
819.5654, 15.41222
820.0475, 15.21455
820.5296, 15.30759
821.0117, 15.96174
821.4938, 16.34703
821.9760, 15.94647
822.4581, 15.46001
822.9402, 15.58551
823.4223, 16.16384
823.9044, 16.41776
824.3865, 15.94646
824.8687, 15.51644
825.3508, 15.36299
825.8329, 15.43185
826.3150, 15.90692
826.7971, 16.54302
827.2792, 16.64176
827.7614, 15.88605
828.2435, 15.02849
828.7256, 15.07930
829.2077, 15.80044
829.6898, 16.38370
830.1719, 16.80254
830.6541, 16.72584
831.1362, 15.90297
831.6183, 15.01338
832.1004, 14.91228
832.5825, 15.58503
833.0646, 15.94929
833.5468, 15.78537
834.0289, 15.64649
834.5110, 15.61762
834.9931, 15.61472
835.4752, 15.50057
835.9573, 15.37929
836.4395, 15.56328
836.9216, 16.27266
837.4037, 16.81513
837.8858, 16.70311
838.3679, 16.33894
838.8500, 16.06656
839.3322, 15.91396
839.8143, 15.89119
840.2964, 15.98839
840.7785, 16.07110
841.2606, 15.97587
841.7427, 15.75165
842.2249, 15.55414
842.7070, 15.37752
843.1891, 15.44051
843.6712, 15.89894
844.1533, 16.25304
844.6354, 15.97141
845.1176, 15.24463
845.5997, 15.01718
846.0818, 15.74885
846.5639, 16.25699
847.0460, 16.48402
847.5281, 16.55991
848.0103, 16.46860
848.4924, 16.29970
848.9745, 16.16772
849.4566, 16.09527
849.9387, 16.06101
850.4208, 16.07530
850.9030, 16.10334
851.3851, 16.17045
851.8672, 16.20955
852.3493, 16.06331
852.8314, 15.72699
853.3135, 15.34532
853.7957, 15.00436
854.2778, 14.77390
854.7599, 14.90786
855.2420, 15.39454
855.7241, 15.59754
856.2062, 15.39667
856.6884, 15.18176
857.1705, 15.18527
857.6526, 15.26682
858.1347, 15.12255
858.6168, 14.61435
859.0989, 14.51299
859.5811, 15.47756
860.0632, 15.98718
860.5453, 15.24022
861.0274, 14.24153
861.5095, 13.92272
861.9916, 14.21352
862.4738, 14.44609
862.9559, 14.34684
863.4380, 14.21636
863.9201, 14.25864
864.4022, 14.37023
864.8843, 14.39132
865.3665, 14.36310
865.8486, 14.49835
866.3307, 14.87864
866.8128, 15.22940
867.2949, 15.17982
867.7770, 14.81346
868.2592, 14.42322
868.7413, 14.00621
869.2234, 13.89213
869.7055, 14.21992
870.1876, 14.68267
870.6697, 15.02743
871.1519, 15.25033
871.6340, 15.31858
872.1161, 15.15128
872.5981, 14.98419
873.0803, 14.76033
873.5624, 14.61214
874.0445, 14.69098
874.5266, 14.83595
875.0087, 14.77200
875.4908, 14.44824
875.9730, 14.25277
876.4551, 14.50446
876.9372, 14.72175
877.4193, 14.49595
877.9014, 14.11708
878.3835, 14.03472
878.8657, 14.23498
879.3478, 14.31034
879.8299, 13.97111
880.3120, 13.59125
880.7941, 13.75336
881.2762, 14.29600
881.7584, 14.80786
882.2405, 15.22590
882.7226, 15.18935
883.2047, 14.50022
883.6868, 13.57157
884.1689, 12.95739
884.6511, 12.64843
885.1332, 12.36612
885.6153, 12.00080
886.0974, 11.98867
886.5795, 12.64657
887.0616, 13.38242
887.5438, 13.81389
888.0259, 13.96747
888.5080, 13.88855
888.9901, 13.34058
889.4722, 13.13220
889.9543, 13.98888
890.4365, 14.54771
890.9186, 13.73652
891.4007, 12.37557
891.8828, 11.54818
892.3649, 11.42435
892.8470, 11.60182
893.3292, 11.98049
893.8113, 12.40328
894.2934, 12.83375
894.7755, 13.15372
895.2576, 13.08014
895.7397, 12.65320
896.2219, 12.19257
896.7040, 11.86659
897.1861, 11.60253
897.6682, 11.20490
898.1503, 10.73715
898.6324, 10.80701
899.1146, 11.46238
899.5967, 11.91239
900.0788, 11.86174
900.5609, 11.75623
901.0430, 12.11307
901.5251, 11.84744
902.0073, 11.54842
902.4894, 11.61046
902.9715, 10.84712
903.4536, 10.73796
903.9357, 10.87757
904.4178, 11.33509
904.9000, 11.80579
905.3821, 11.78153
905.8642, 11.19195
906.3463, 10.79409
906.8284, 10.86796
907.3105, 11.05397
907.7927, 11.29945
908.2748, 11.49496
908.7569, 11.47861
909.2390, 11.31035
909.7211, 11.22536
910.2032, 11.34658
910.6854, 11.46128
911.1675, 11.35033
911.6496, 11.11930
912.1317, 10.83039
912.6138, 10.57641
913.0959, 10.70914
913.5781, 11.30371
914.0602, 11.90736
914.5423, 12.09186
915.0244, 11.97899
915.5065, 11.95432
915.9886, 12.01941
916.4708, 11.90709
916.9529, 11.53538
917.4350, 11.25800
917.9171, 11.29086
918.3992, 11.48899
918.8813, 11.60540
919.3635, 11.63516
919.8456, 11.62887
920.3277, 11.61288
920.8098, 11.51704
921.2919, 11.11513
921.7740, 10.81976
922.2562, 11.12028
922.7383, 11.75629
923.2204, 11.89192
923.7025, 11.11771
924.1846, 10.65445
924.6667, 11.12705
925.1489, 11.65330
925.6310, 11.77900
926.1131, 11.58526
926.5952, 11.06510
927.0773, 10.32768
927.5594, 9.902479
928.0416, 10.26488
928.5237, 10.75183
929.0058, 10.68618
929.4879, 10.38780
929.9700, 10.38155
930.4521, 10.64490
930.9343, 10.87922
931.4164, 10.95766
931.8985, 10.97259
932.3806, 10.98970
932.8627, 11.04494
933.3448, 11.38480
933.8270, 11.95213
934.3091, 12.00813
934.7912, 11.36480
935.2733, 10.75112
935.7554, 10.72266
936.2375, 10.97195
936.7197, 10.66789
937.2018, 9.602331
937.6839, 9.246353
938.1660, 9.953329
938.6481, 10.45212
939.1302, 10.11214
939.6124, 9.672407
940.0945, 10.02206
940.5766, 11.03441
941.0587, 11.51272
941.5408, 11.08762
942.0229, 10.71795
942.5051, 10.41719
942.9872, 10.21431
943.4693, 10.05722
943.9514, 10.04075
944.4335, 10.42264
944.9156, 11.20184
945.3978, 11.67655
945.8799, 11.39468
946.3620, 11.01293
946.8441, 10.80283
947.3262, 10.70730
947.8083, 10.65187
948.2905, 10.65779
948.7726, 10.85754
949.2547, 11.30382
949.7368, 11.63711
950.2189, 11.50301
950.7010, 11.12496
951.1832, 10.66650
951.6653, 10.23953
952.1474, 10.13622
952.6295, 10.37208
953.1116, 10.69817
953.5938, 10.96931
954.0759, 11.14990
954.5580, 11.13343
955.0400, 10.96591
955.5222, 10.90686
956.0043, 10.96216
956.4864, 10.98860
956.9685, 10.93701
957.4506, 10.87532
957.9327, 10.88545
958.4149, 10.92157
958.8970, 10.74225
959.3791, 10.25168
959.8612, 10.04690
960.3433, 10.25546
960.8254, 10.53355
961.3076, 10.80525
961.7897, 10.95809
962.2718, 10.75678
962.7539, 10.18771
963.2360, 10.00231
963.7181, 10.73208
964.2003, 11.02177
964.6824, 10.27404
965.1645, 9.571406
965.6466, 9.502979
966.1287, 9.852130
966.6108, 10.33704
967.0930, 10.98205
967.5751, 11.23048
968.0572, 10.59148
968.5393, 10.00608
969.0214, 9.800733
969.5035, 9.849710
969.9857, 10.18854
970.4678, 10.65117
970.9499, 10.86306
971.4320, 10.68395
971.9141, 10.43147
972.3962, 10.25146
972.8784, 10.11620
973.3605, 9.911588
973.8426, 9.780636
974.3247, 10.07130
974.8068, 10.70155
975.2889, 11.13651
975.7711, 11.06040
976.2532, 10.80274
976.7353, 10.71879
977.2174, 10.71279
977.6995, 10.56900
978.1816, 10.33897
978.6638, 10.31154
979.1459, 10.52587
979.6280, 10.54001
980.1101, 9.933860
980.5922, 9.115173
981.0743, 8.954350
981.5565, 9.365307
982.0386, 9.891689
982.5207, 10.49098
983.0028, 11.00570
983.4849, 11.38638
983.9670, 11.50222
984.4492, 11.14231
984.9313, 10.46113
985.4134, 10.22897
985.8955, 10.51834
986.3776, 10.73497
986.8597, 10.84193
987.3419, 10.78349
987.8240, 10.49802
988.3061, 10.08821
988.7882, 9.653296
989.2703, 9.196381
989.7524, 9.086194
990.2346, 9.614495
990.7167, 9.808866
991.1988, 9.086637
991.6809, 8.682601
992.1630, 9.720001
992.6451, 11.29588
993.1273, 11.67790
993.6094, 10.64391
994.0915, 10.05530
994.5736, 10.18333
995.0557, 10.41349
995.5378, 10.78657
996.0200, 11.07577
996.5021, 11.11240
996.9842, 10.96223
997.4663, 10.71318
997.9484, 10.33676
998.4305, 10.17045
998.9127, 10.54158
999.3948, 10.83640
999.8769, 10.70001
1000.359, 10.44293
1000.841, 10.36593
1001.323, 10.42367
1001.805, 10.41258
1002.287, 10.26273
1002.770, 10.13536
1003.252, 10.09935
1003.734, 10.13011
1004.216, 10.24445
1004.698, 10.39342
1005.180, 10.59051
1005.662, 10.76420
1006.144, 10.68325
1006.627, 10.21558
1007.109, 9.719330
1007.591, 9.547747
1008.073, 9.460927
1008.555, 9.054132
1009.037, 8.560564
1009.519, 8.491669
1010.001, 8.875066
1010.483, 9.360729
1010.966, 9.760845
1011.448, 10.08884
1011.930, 10.42651
1012.412, 10.66912
1012.894, 10.50416
1013.376, 10.06355
1013.858, 9.772097
1014.340, 9.734359
1014.823, 9.894023
1015.305, 10.23602
1015.787, 10.61621
1016.269, 10.87725
1016.751, 10.96967
1017.233, 10.52699
1017.715, 9.647229
1018.197, 9.150180
1018.679, 9.266191
1019.162, 9.722567
1019.644, 10.35589
1020.126, 10.97147
1020.608, 11.06174
1021.090, 10.67159
1021.572, 10.42385
1022.054, 10.34649
1022.536, 10.25892
1023.018, 10.08394
1023.501, 10.09593
1023.983, 10.62067
1024.465, 11.36865
1024.947, 11.33427
1025.429, 10.42570
1025.911, 9.834180
1026.393, 9.629567
1026.875, 9.615574
1027.358, 9.797376
1027.840, 9.898687
1028.322, 9.591076
1028.804, 9.031796
1029.286, 8.916657
1029.768, 9.400173
1030.250, 9.679708
1030.732, 9.690735
1031.214, 9.618896
1031.697, 9.494731
1032.179, 9.365797
1032.661, 9.242365
1033.143, 9.161340
1033.625, 9.342809
1034.107, 10.02857
1034.589, 10.34909
1035.071, 10.06801
1035.553, 9.847259
1036.036, 10.02878
1036.518, 10.23515
1037.000, 9.965595
1037.482, 9.362345
1037.964, 9.274852
1038.446, 10.09735
1038.928, 10.66271
1039.410, 10.90775
1039.893, 10.97771
1040.375, 10.82733
1040.857, 10.59554
1041.339, 10.31884
1041.821, 10.05341
1042.303, 10.13910
1042.785, 11.01914
1043.267, 11.39616
1043.750, 10.73329
1044.232, 10.16338
1044.714, 10.13045
1045.196, 10.33479
1045.678, 10.55438
1046.160, 10.75697
1046.642, 10.86022
1047.124, 10.83888
1047.606, 10.75789
1048.089, 10.42234
1048.571, 10.27742
1049.053, 10.78746
1049.535, 11.34776
1050.017, 11.23771
1050.499, 10.63146
1050.981, 10.36367
1051.463, 10.70288
1051.945, 11.01233
1052.428, 11.36445
1052.910, 11.41016
1053.392, 10.57542
1053.874, 9.684649
1054.356, 9.797427
1054.838, 10.58936
1055.320, 10.67266
1055.802, 9.419221
1056.285, 8.673850
1056.767, 9.378360
1057.249, 10.20433
1057.731, 10.60565
1058.213, 10.73615
1058.695, 10.64128
1059.177, 10.45305
1059.659, 10.51540
1060.141, 10.98448
1060.624, 11.33514
1061.106, 11.49847
1061.588, 11.36317
1062.070, 10.55929
1062.552, 9.680717
1063.034, 9.296151
1063.516, 9.350628
1063.998, 9.620294
1064.480, 10.11168
1064.963, 10.33057
1065.445, 9.870914
1065.927, 9.346976
1066.409, 8.959538
1066.891, 8.760458
1067.373, 8.884307
1067.855, 9.208758
1068.337, 9.477532
1068.820, 9.630904
1069.302, 9.694916
1069.784, 9.637652
1070.266, 9.547119
1070.748, 9.348506
1071.230, 9.242563
1071.712, 9.531068
1072.194, 10.02034
1072.677, 10.28636
1073.159, 10.23833
1073.641, 10.14083
1074.123, 10.22341
1074.605, 10.13718
1075.087, 9.357381
1075.569, 8.649812
1076.051, 8.881328
1076.533, 9.606928
1077.016, 9.914503
1077.498, 9.660603
1077.980, 9.431842
1078.462, 9.450761
1078.944, 9.583594
1079.426, 9.857172
1079.908, 10.12932
1080.390, 10.30434
1080.872, 10.38971
1081.354, 10.44307
1081.837, 10.45097
1082.319, 10.24989
1082.801, 9.554882
1083.283, 9.077636
1083.765, 9.454479
1084.247, 9.854690
1084.729, 9.478213
1085.211, 8.863330
1085.694, 8.865955
1086.176, 9.438634
1086.658, 9.792009
1087.140, 9.608047
1087.622, 9.347653
1088.104, 9.096720
1088.586, 8.950833
1089.068, 9.015383
1089.551, 9.187139
1090.033, 9.381032
1090.515, 9.568366
1090.997, 9.713843
1091.479, 9.819499
1091.961, 9.833914
1092.443, 9.717968
1092.925, 9.530509
1093.407, 9.061202
1093.890, 8.735459
1094.372, 9.277248
1094.854, 10.23588
1095.336, 10.32793
1095.818, 9.161653
1096.300, 8.447857
1096.782, 9.129931
1097.264, 9.831670
1097.746, 10.16934
1098.229, 10.16810
1098.711, 9.639316
1099.193, 8.884687
1099.675, 8.378521
1100.157, 8.189709
1100.639, 8.289808
1101.121, 8.946520
1101.603, 9.499240
1102.086, 9.825910
1102.568, 9.938028
1103.050, 9.755935
1103.532, 9.414004
1104.014, 9.038861
1104.496, 8.659772
1104.978, 8.419409
1105.460, 8.388037
1105.943, 8.420040
1106.425, 8.537169
1106.907, 8.659209
1107.389, 8.747028
1107.871, 8.825174
1108.353, 8.961404
1108.835, 9.119069
1109.317, 9.127117
1109.799, 8.945527
1110.281, 8.681970
1110.764, 8.085590
1111.246, 7.752543
1111.728, 8.167833
1112.210, 8.618817
1112.692, 8.422671
1113.174, 7.856706
1113.656, 7.667613
1114.138, 7.970273
1114.621, 8.129144
1115.103, 8.005162
1115.585, 7.966676
1116.067, 8.147718
1116.549, 8.328413
1117.031, 8.406061
1117.513, 8.381817
1117.995, 8.170722
1118.478, 7.765251
1118.960, 7.914876
1119.442, 9.077437
1119.924, 9.682931
1120.406, 9.370580
1120.888, 8.942965
1121.370, 8.642865
1121.852, 8.557958
1122.334, 8.882010
1122.817, 9.487277
1123.299, 9.635493
1123.781, 9.173209
1124.263, 8.882634
1124.745, 8.784774
1125.227, 8.887799
1125.709, 9.279235
1126.191, 9.583599
1126.673, 9.441936
1127.156, 9.079024
1127.638, 9.061555
1128.120, 9.403423
1128.602, 9.662280
1129.084, 9.832565
1129.566, 9.978576
1130.048, 10.12431
1130.530, 10.08052
1131.013, 9.682719
1131.495, 9.370275
1131.977, 9.989480
1132.459, 11.15038
1132.941, 10.51922
1133.423, 8.305524
1133.905, 7.764848
1134.387, 9.165746
1134.870, 10.14005
1135.352, 9.754030
1135.834, 8.932268
1136.316, 8.491473
1136.798, 8.395188
1137.280, 8.736060
1137.762, 9.333284
1138.244, 9.427096
1138.726, 9.130908
1139.208, 9.196390
1139.691, 9.766511
1140.173, 10.43474
1140.655, 10.98457
1141.137, 11.20810
1141.619, 10.59632
1142.101, 9.648178
1142.583, 9.258595
1143.065, 9.241495
1143.548, 9.193796
1144.030, 9.052151
1144.512, 8.857954
1144.994, 8.630270
1145.476, 8.419947
1145.958, 8.234035
1146.440, 8.127234
1146.922, 8.067285
1147.405, 8.185978
1147.887, 8.931171
1148.369, 9.886812
1148.851, 10.10359
1149.333, 9.517940
1149.815, 9.030982
1150.297, 9.100704
1150.779, 9.251029
1151.261, 9.277399
1151.744, 9.199785
1152.226, 8.877552
1152.708, 8.572122
1153.190, 8.603098
1153.672, 8.926988
1154.154, 9.372175
1154.636, 9.958954
1155.118, 10.26090
1155.600, 10.04940
1156.083, 9.675764
1156.565, 8.823510
1157.047, 8.297766
1157.529, 9.138284
1158.011, 10.42778
1158.493, 10.48033
1158.975, 9.249636
1159.457, 8.735147
1159.940, 9.850233
1160.422, 10.37759
1160.904, 9.780106
1161.386, 9.276057
1161.868, 9.408400
1162.350, 9.640570
1162.832, 9.450167
1163.314, 8.993228
1163.796, 8.743876
1164.279, 8.702890
1164.761, 8.927816
1165.243, 9.592245
1165.725, 9.857578
1166.207, 9.427111
1166.689, 9.078105
1167.171, 9.318258
1167.653, 9.684730
1168.135, 9.477088
1168.618, 8.830142
1169.100, 8.507495
1169.582, 8.506265
1170.064, 8.539454
1170.546, 8.583753
1171.028, 8.745174
1171.510, 9.058905
1171.992, 9.234011
1172.474, 9.010776
1172.957, 8.645145
1173.439, 8.595631
1173.921, 8.759034
1174.403, 8.829012
1174.885, 8.838015
1175.367, 8.939235
1175.849, 9.130146
1176.331, 9.214890
1176.814, 9.119364
1177.296, 9.188021
1177.778, 10.00107
1178.260, 10.76308
1178.742, 10.35951
1179.224, 9.475265
1179.706, 8.889494
1180.188, 8.639654
1180.671, 8.726099
1181.153, 9.063475
1181.635, 9.294847
1182.117, 9.198007
1182.599, 9.219374
1183.081, 9.857448
1183.563, 10.38043
1184.045, 10.16401
1184.527, 9.753494
1185.010, 9.733974
1185.492, 9.957046
1185.974, 9.996433
1186.456, 9.789609
1186.938, 9.474802
1187.420, 8.768224
1187.902, 8.421368
1188.384, 8.900676
1188.866, 9.334226
1189.349, 9.230369
1189.831, 9.013486
1190.313, 9.132998
1190.795, 9.504049
1191.277, 9.810102
1191.759, 10.08850
1192.241, 10.10500
1192.723, 9.770312
1193.206, 9.469557
1193.688, 9.250792
1194.170, 9.234724
1194.652, 9.551287
1195.134, 9.871664
1195.616, 9.655094
1196.098, 9.121914
1196.580, 9.421613
1197.063, 9.062702
1197.545, 10.31598
1198.027, 9.196618
1198.509, 8.866017
1198.991, 9.777803
1199.473, 10.64481
1199.955, 10.57110
1200.437, 10.10932
1200.919, 9.869800
1201.401, 9.808126
1201.884, 9.996600
1202.366, 10.22696
1202.848, 9.986932
1203.330, 9.420167
1203.812, 9.067195
1204.294, 9.095630
1204.776, 9.391425
1205.258, 10.10729
1205.741, 10.63768
1206.223, 10.37689
1206.705, 10.01181
1207.187, 10.04371
1207.669, 10.30223
1208.151, 10.61714
1208.633, 10.92908
1209.115, 11.16472
1209.598, 11.32342
1210.080, 11.33458
1210.562, 11.29426
1211.044, 10.94623
1211.526, 9.625077
1212.008, 8.765028
1212.490, 9.330759
1212.972, 10.37905
1213.454, 10.87326
1213.937, 10.87434
1214.419, 10.62335
1214.901, 10.01469
1215.383, 9.693240
1215.865, 9.684558
1216.347, 9.853221
1216.829, 10.19168
1217.311, 10.52752
1217.793, 10.77580
1218.276, 10.84691
1218.758, 10.58793
1219.240, 10.10409
1219.722, 9.565961
1220.204, 9.076632
1220.686, 9.228248
1221.168, 9.797496
1221.650, 9.609848
1222.133, 8.562469
1222.615, 7.961769
1223.097, 8.593858
1223.579, 9.364509
1224.061, 9.129230
1224.543, 8.721416
1225.025, 9.025578
1225.507, 9.564216
1225.990, 9.762279
1226.472, 9.724228
1226.954, 9.773434
1227.436, 9.954599
1227.918, 10.08287
1228.400, 9.980707
1228.882, 10.08604
1229.364, 10.90145
1229.846, 11.41791
1230.328, 11.04315
1230.811, 10.41977
1231.293, 9.945041
1231.775, 9.618748
1232.257, 9.457369
1232.739, 9.460118
1233.221, 9.517571
1233.703, 9.655976
1234.185, 9.721145
1234.668, 9.796550
1235.150, 9.713682
1235.632, 9.896497
1236.114, 9.898291
1236.596, 9.868461
1237.078, 8.915967
1237.560, 9.758998
1238.042, 9.358373
1238.525, 9.355504
1239.007, 9.745981
1239.489, 9.340784
1239.971, 9.861416
1240.453, 10.43843
1240.935, 10.77186
1241.417, 10.89735
1241.899, 10.81650
1242.381, 10.60881
1242.864, 10.10455
1243.346, 9.754930
1243.828, 10.19443
1244.310, 10.78530
1244.792, 10.69113
1245.274, 10.19119
1245.756, 10.10710
1246.238, 10.55227
1246.720, 10.64731
1247.203, 9.797823
1247.685, 9.341558
1248.167, 9.596466
1248.649, 9.926789
1249.131, 10.26709
1249.613, 10.39253
1250.095, 9.998799
1250.577, 9.479504
1251.059, 9.690890
1251.542, 10.53042
1252.024, 10.65709
1252.506, 10.07830
1252.988, 9.863937
1253.470, 10.09717
1253.952, 10.42692
1254.434, 10.72142
1254.916, 10.76876
1255.399, 10.39045
1255.881, 9.953512
1256.363, 9.962750
1256.845, 10.15808
1257.327, 10.10379
1257.809, 10.02133
1258.291, 10.43270
1258.773, 11.04741
1259.255, 11.18408
1259.738, 10.73012
1260.220, 9.958955
1260.702, 8.648706
1261.184, 7.921584
1261.666, 8.543019
1262.148, 9.266436
1262.630, 9.604308
1263.112, 9.872342
1263.594, 10.44976
1264.077, 10.36981
1264.559, 10.88969
1265.041, 10.25323
1265.523, 9.826999
1266.005, 9.626303
1266.487, 9.563427
1266.969, 9.642141
1267.451, 9.811278
1267.934, 10.06065
1268.416, 10.35964
1268.898, 10.70046
1269.380, 10.95095
1269.862, 10.96150
1270.344, 10.77373
1270.826, 10.30269
1271.308, 9.784979
1271.791, 9.699723
1272.273, 9.920911
1272.755, 10.28479
1273.237, 10.61626
1273.719, 10.37616
1274.201, 9.323497
1274.683, 8.701382
1275.165, 9.440870
1275.647, 10.17196
1276.130, 10.55174
1276.612, 10.57945
1277.094, 9.854905
1277.576, 9.127799
1278.058, 9.355341
1278.540, 10.12029
1279.022, 10.17120
1279.504, 10.62211
1279.986, 11.13967
1280.469, 11.05876
1280.951, 11.28751
1281.433, 11.59808
1281.915, 11.21470
1282.397, 10.93375
1282.879, 10.74848
1283.361, 10.66220
1283.843, 10.61644
1284.326, 10.54242
1284.808, 10.43905
##END=



