##NAMES=Pyrrhotite
##RRUFFID=R061127
##IDEAL CHEMISTRY=Fe^2+^_5_Fe^3+^_2_S^2-^_8_
##LOCALITY=Morro Velho Gold mine, Nova Umha, Minas Gerais, Brazil
##OWNER=RRUFF
##SOURCE=Michael Scott
##DESCRIPTION=Brass colored, prismatic crystals associated with quartz and dolomite
##STATUS=The identification of this mineral has been confirmed by single-crystal X-ray diffraction.
##URL=rruff.info/R061127
196.1889, 44.41396
196.6711, 43.99983
197.1532, 43.36906
197.6353, 43.16248
198.1174, 44.00781
198.5995, 44.66370
199.0816, 44.07932
199.5638, 42.47401
200.0459, 41.36197
200.5280, 41.83765
201.0101, 43.43903
201.4922, 44.61205
201.9743, 45.29456
202.4565, 45.55297
202.9386, 45.37551
203.4207, 44.75649
203.9028, 43.90716
204.3849, 42.56006
204.8670, 41.19250
205.3492, 40.57557
205.8313, 41.18012
206.3134, 42.15311
206.7955, 42.34624
207.2776, 41.56162
207.7597, 40.91920
208.2419, 40.85975
208.7240, 41.23175
209.2061, 42.18381
209.6882, 44.10182
210.1703, 45.92669
210.6524, 45.37884
211.1346, 41.10742
211.6167, 37.99133
212.0988, 38.48779
212.5809, 40.36238
213.0630, 41.37130
213.5451, 40.49720
214.0273, 38.81350
214.5094, 38.95682
214.9915, 42.54953
215.4736, 45.02547
215.9557, 45.00503
216.4378, 43.85388
216.9200, 42.86914
217.4021, 42.62725
217.8842, 42.88137
218.3663, 42.92528
218.8484, 42.33681
219.3305, 42.17543
219.8127, 42.93728
220.2948, 44.00007
220.7769, 44.85383
221.2590, 45.26763
221.7411, 45.12063
222.2232, 44.01466
222.7054, 39.76543
223.1875, 37.22945
223.6696, 37.91849
224.1517, 40.01692
224.6338, 41.38839
225.1159, 41.08119
225.5980, 39.73075
226.0802, 39.17768
226.5623, 40.46062
227.0444, 41.32586
227.5265, 41.26001
228.0086, 40.78718
228.4907, 40.72194
228.9729, 41.44500
229.4550, 42.41848
229.9371, 42.14915
230.4192, 39.41944
230.9013, 37.42078
231.3834, 37.04867
231.8656, 37.61397
232.3477, 38.17916
232.8298, 38.41721
233.3119, 38.38116
233.7940, 38.15646
234.2761, 37.79533
234.7583, 37.19964
235.2404, 35.88057
235.7225, 34.37902
236.2046, 33.66300
236.6867, 34.10894
237.1688, 35.31346
237.6510, 36.77252
238.1331, 38.58243
238.6152, 40.08533
239.0973, 40.97808
239.5794, 41.41372
240.0615, 41.81720
240.5437, 42.47828
241.0258, 42.74441
241.5079, 41.25457
241.9900, 37.98504
242.4721, 35.61535
242.9542, 35.82430
243.4364, 37.79042
243.9185, 39.48670
244.4006, 40.60685
244.8827, 41.19786
245.3648, 41.36148
245.8469, 41.12347
246.3290, 40.42166
246.8112, 38.50257
247.2933, 36.02922
247.7754, 35.25568
248.2575, 37.38012
248.7396, 39.71208
249.2217, 40.11054
249.7039, 38.97857
250.1860, 37.58654
250.6681, 36.22638
251.1502, 35.08253
251.6323, 34.99415
252.1144, 36.71619
252.5966, 38.32544
253.0787, 38.76704
253.5608, 38.27462
254.0429, 37.30786
254.5250, 35.57894
255.0071, 33.54911
255.4893, 33.19182
255.9714, 35.57336
256.4535, 37.97896
256.9356, 39.37795
257.4177, 39.96189
257.8998, 40.02252
258.3820, 39.65477
258.8641, 38.90293
259.3462, 37.78014
259.8283, 35.54652
260.3104, 34.24257
260.7925, 35.09517
261.2747, 36.93977
261.7568, 38.20435
262.2389, 38.03210
262.7210, 36.95252
263.2031, 36.62494
263.6852, 37.98871
264.1674, 38.44576
264.6495, 36.47290
265.1316, 33.80200
265.6137, 32.30191
266.0958, 32.79580
266.5779, 34.65499
267.0601, 36.49450
267.5422, 38.53046
268.0243, 40.09774
268.5064, 41.59692
268.9885, 42.43591
269.4706, 41.65560
269.9528, 38.98794
270.4349, 35.69868
270.9170, 34.28996
271.3991, 35.85920
271.8812, 37.25732
272.3633, 38.42744
272.8455, 39.26762
273.3276, 39.69531
273.8097, 39.69470
274.2918, 39.30481
274.7739, 38.49146
275.2560, 36.79000
275.7382, 35.67963
276.2202, 35.24944
276.7024, 35.20131
277.1845, 35.45630
277.6666, 35.94383
278.1487, 36.53032
278.6308, 37.14472
279.1129, 38.06403
279.5951, 37.97303
280.0772, 35.76181
280.5593, 33.67496
281.0414, 32.82048
281.5235, 33.23957
282.0056, 34.49904
282.4878, 36.39217
282.9699, 39.26001
283.4520, 40.21804
283.9341, 37.25897
284.4162, 34.62545
284.8983, 34.42630
285.3805, 36.08477
285.8626, 37.71474
286.3447, 37.84517
286.8268, 36.50472
287.3089, 35.40795
287.7910, 34.26936
288.2732, 33.64799
288.7553, 34.02311
289.2374, 35.02664
289.7195, 35.96105
290.2016, 36.39234
290.6837, 36.44165
291.1659, 36.80421
291.6480, 38.45045
292.1301, 39.27269
292.6122, 38.16201
293.0943, 36.20854
293.5764, 34.95308
294.0586, 35.10627
294.5407, 36.23928
295.0228, 37.19540
295.5049, 38.42520
295.9870, 38.87761
296.4691, 37.66277
296.9513, 36.01855
297.4334, 35.47132
297.9155, 36.48031
298.3976, 38.02216
298.8797, 38.33669
299.3618, 36.24559
299.8440, 35.11773
300.3261, 35.73457
300.8082, 36.80906
301.2903, 37.25496
301.7724, 36.89339
302.2545, 36.33928
302.7367, 36.33636
303.2188, 37.10725
303.7009, 37.58151
304.1830, 37.96920
304.6651, 37.93317
305.1472, 36.89301
305.6294, 35.06226
306.1115, 33.45343
306.5936, 32.96081
307.0757, 33.65351
307.5578, 34.32272
308.0399, 35.12757
308.5221, 35.76264
309.0042, 36.12128
309.4863, 36.20354
309.9684, 35.99327
310.4505, 35.44917
310.9326, 34.62841
311.4148, 33.94631
311.8969, 33.71255
312.3790, 33.23877
312.8611, 31.71297
313.3432, 29.95585
313.8253, 29.52983
314.3075, 31.24136
314.7896, 34.06135
315.2717, 35.32209
315.7538, 33.30302
316.2359, 32.21153
316.7180, 33.46682
317.2001, 35.33099
317.6823, 35.68961
318.1644, 33.96585
318.6465, 31.45884
319.1286, 30.06908
319.6107, 30.19344
320.0928, 30.72705
320.5750, 32.61064
321.0571, 34.25193
321.5392, 33.95775
322.0213, 31.78893
322.5034, 29.64052
322.9855, 29.55441
323.4677, 31.98961
323.9498, 33.08132
324.4319, 31.02442
324.9140, 29.50211
325.3961, 31.42772
325.8782, 35.69712
326.3604, 38.57517
326.8425, 37.17693
327.3246, 32.03481
327.8067, 29.21408
328.2888, 29.82746
328.7709, 31.11903
329.2531, 33.38836
329.7352, 35.70833
330.2173, 36.43950
330.6994, 34.73602
331.1815, 31.56879
331.6636, 29.54865
332.1458, 29.58501
332.6279, 29.72898
333.1100, 30.04051
333.5921, 30.37712
334.0742, 30.92605
334.5563, 31.63988
335.0385, 31.65032
335.5206, 29.41279
336.0027, 22.82770
336.4848, 19.60299
336.9669, 22.34484
337.4490, 25.98773
337.9312, 26.88167
338.4133, 25.13657
338.8954, 23.56976
339.3775, 25.03954
339.8596, 29.99168
340.3417, 32.36462
340.8239, 30.99253
341.3060, 28.65697
341.7881, 25.18362
342.2702, 21.53119
342.7523, 19.51525
343.2344, 20.37038
343.7166, 23.45151
344.1987, 25.61604
344.6808, 26.51643
345.1629, 26.77394
345.6450, 25.75431
346.1271, 24.38690
346.6093, 23.85766
347.0914, 24.56717
347.5735, 25.73029
348.0556, 25.75931
348.5377, 23.41167
349.0198, 22.19915
349.5020, 23.15920
349.9841, 24.32446
350.4662, 24.21467
350.9483, 22.77485
351.4304, 21.02864
351.9125, 20.00588
352.3947, 19.70883
352.8768, 20.14837
353.3589, 22.21701
353.8410, 24.12706
354.3231, 25.06453
354.8052, 25.35164
355.2874, 25.82062
355.7695, 27.10460
356.2516, 28.95487
356.7337, 29.97924
357.2158, 29.89847
357.6979, 29.26252
358.1800, 27.50472
358.6621, 25.56845
359.1443, 24.65397
359.6264, 25.21021
360.1085, 26.35011
360.5906, 26.38235
361.0727, 24.72780
361.5548, 23.47224
362.0370, 23.09465
362.5191, 22.94924
363.0012, 22.66632
363.4833, 22.20317
363.9654, 21.72995
364.4475, 21.44869
364.9297, 21.37821
365.4118, 21.16683
365.8939, 20.51120
366.3760, 20.05815
366.8581, 20.17940
367.3402, 20.68401
367.8224, 21.15685
368.3045, 21.30386
368.7866, 21.29166
369.2687, 21.61017
369.7508, 22.30143
370.2329, 23.25272
370.7151, 25.14854
371.1972, 26.92867
371.6793, 27.26713
372.1614, 25.63224
372.6435, 23.62116
373.1256, 23.48120
373.6078, 25.39408
374.0899, 26.54385
374.5720, 25.94700
375.0541, 24.70220
375.5362, 23.41155
376.0183, 22.15165
376.5005, 21.22655
376.9826, 20.79094
377.4647, 20.84138
377.9468, 21.58367
378.4289, 23.56729
378.9110, 25.03637
379.3932, 24.33764
379.8753, 22.34492
380.3574, 20.63422
380.8395, 19.61322
381.3216, 19.16281
381.8037, 19.45658
382.2859, 20.52088
382.7680, 21.01388
383.2501, 19.74982
383.7322, 17.98594
384.2143, 17.77758
384.6964, 19.54463
385.1786, 21.51564
385.6607, 22.94170
386.1428, 23.79757
386.6249, 23.85753
387.1070, 22.85975
387.5891, 21.64457
388.0713, 21.21106
388.5534, 21.48188
389.0355, 21.88125
389.5176, 22.64641
389.9997, 23.26865
390.4818, 23.10495
390.9640, 22.16562
391.4461, 21.10220
391.9282, 20.21888
392.4103, 19.61147
392.8924, 19.61964
393.3745, 21.56213
393.8567, 22.63355
394.3388, 20.82060
394.8209, 17.45999
395.3030, 15.15601
395.7851, 14.88048
396.2672, 15.93268
396.7494, 17.20312
397.2315, 19.09054
397.7136, 20.16809
398.1957, 19.58597
398.6778, 18.70726
399.1599, 18.70793
399.6420, 19.65435
400.1241, 20.91157
400.6063, 22.01478
401.0884, 22.98858
401.5705, 23.01479
402.0526, 21.05373
402.5347, 19.43496
403.0168, 19.29126
403.4990, 19.87530
403.9811, 19.67491
404.4632, 17.93958
404.9453, 15.72447
405.4274, 15.73287
405.9095, 20.02235
406.3917, 23.10253
406.8738, 24.87926
407.3559, 25.47924
407.8380, 24.41314
408.3201, 21.99418
408.8022, 19.64114
409.2844, 18.83572
409.7665, 19.69211
410.2486, 20.35666
410.7307, 20.67841
411.2128, 20.95653
411.6949, 21.49858
412.1771, 22.01093
412.6592, 21.96773
413.1413, 21.04619
413.6234, 19.64738
414.1055, 18.61959
414.5876, 18.03598
415.0698, 17.59156
415.5519, 17.06124
416.0340, 16.75481
416.5161, 17.12219
416.9982, 18.14857
417.4803, 18.99844
417.9625, 18.74337
418.4446, 17.58389
418.9267, 17.00664
419.4088, 17.55802
419.8909, 17.88169
420.3730, 16.34817
420.8552, 14.00517
421.3373, 13.11018
421.8194, 14.99301
422.3015, 18.04383
422.7836, 20.95416
423.2657, 23.69662
423.7479, 24.49820
424.2300, 21.30668
424.7121, 16.98841
425.1942, 16.32116
425.6763, 20.06463
426.1584, 23.40757
426.6406, 23.96430
427.1227, 22.87924
427.6048, 22.12716
428.0869, 22.06763
428.5690, 21.81884
429.0511, 20.39273
429.5333, 17.79903
430.0154, 16.00602
430.4975, 14.96490
430.9796, 14.77689
431.4617, 16.07205
431.9438, 18.29343
432.4260, 20.15017
432.9081, 21.06420
433.3902, 21.11119
433.8723, 20.39169
434.3544, 17.95659
434.8365, 16.33877
435.3187, 15.58480
435.8008, 15.69994
436.2829, 17.20608
436.7650, 19.84327
437.2471, 22.29313
437.7292, 23.29060
438.2114, 22.80264
438.6935, 22.30391
439.1756, 21.86378
439.6577, 21.33261
440.1398, 20.54103
440.6219, 19.68224
441.1040, 19.02700
441.5862, 18.69096
442.0683, 18.55140
442.5504, 18.31927
443.0325, 17.78343
443.5146, 17.81027
443.9967, 19.11402
444.4789, 20.46331
444.9610, 21.41737
445.4431, 21.86752
445.9252, 21.70738
446.4073, 20.67039
446.8894, 18.98409
447.3716, 17.34100
447.8537, 15.35073
448.3358, 14.39802
448.8179, 16.06311
449.3000, 18.66485
449.7821, 20.38162
450.2643, 20.71943
450.7464, 20.73995
451.2285, 21.51426
451.7106, 22.82238
452.1927, 23.51036
452.6748, 23.26386
453.1570, 22.52297
453.6391, 21.82352
454.1212, 21.07942
454.6033, 19.62544
455.0854, 16.01599
455.5675, 12.59337
456.0497, 11.80187
456.5318, 13.32965
457.0139, 15.09046
457.4960, 16.16838
457.9781, 16.62753
458.4602, 16.51141
458.9424, 15.32367
459.4245, 14.68309
459.9066, 15.45665
460.3887, 16.58673
460.8708, 16.87965
461.3529, 16.22395
461.8351, 15.39870
462.3172, 15.07503
462.7993, 15.25282
463.2814, 16.04876
463.7635, 18.81803
464.2456, 20.61306
464.7278, 20.04284
465.2099, 18.27551
465.6920, 16.98679
466.1741, 16.81260
466.6562, 17.05895
467.1383, 16.38578
467.6205, 14.13633
468.1026, 13.00956
468.5847, 14.20465
469.0668, 15.54975
469.5489, 15.72301
470.0310, 15.19838
470.5132, 15.53086
470.9953, 18.16804
471.4774, 21.82735
471.9595, 23.07863
472.4416, 21.43403
472.9237, 19.17134
473.4059, 15.79917
473.8880, 12.98069
474.3701, 12.73599
474.8522, 15.37958
475.3343, 17.97518
475.8164, 18.60409
476.2986, 17.77417
476.7807, 16.42586
477.2628, 14.45172
477.7449, 13.15047
478.2270, 13.93664
478.7091, 16.28425
479.1913, 17.83539
479.6734, 18.04980
480.1555, 17.91624
480.6376, 17.96648
481.1197, 18.03223
481.6018, 17.50930
482.0839, 16.13511
482.5660, 14.96683
483.0482, 15.67759
483.5303, 19.19518
484.0124, 21.14637
484.4945, 20.08857
484.9766, 18.91736
485.4587, 19.55138
485.9409, 21.34448
486.4230, 22.49027
486.9051, 21.96021
487.3872, 20.23337
487.8693, 18.62886
488.3514, 16.81783
488.8336, 15.77583
489.3157, 15.70968
489.7978, 16.19304
490.2799, 17.46627
490.7620, 19.17605
491.2441, 20.07914
491.7263, 18.59215
492.2084, 15.50385
492.6905, 15.06723
493.1726, 18.80638
493.6547, 21.52506
494.1368, 19.74971
494.6190, 16.51595
495.1011, 15.01905
495.5832, 16.00369
496.0653, 17.18843
496.5474, 16.51046
497.0295, 14.65407
497.5117, 13.81684
497.9938, 14.49568
498.4759, 15.44336
498.9580, 15.49068
499.4401, 14.89605
499.9222, 15.03951
500.4044, 16.67080
500.8865, 18.36859
501.3686, 19.75393
501.8507, 20.63776
502.3328, 20.40844
502.8149, 18.81559
503.2971, 16.87524
503.7792, 16.05279
504.2613, 16.72342
504.7434, 17.21115
505.2255, 17.41030
505.7076, 17.55246
506.1898, 17.90619
506.6719, 18.27139
507.1540, 18.08396
507.6361, 17.00566
508.1182, 15.66754
508.6003, 15.72847
509.0825, 18.05943
509.5646, 19.44858
510.0467, 19.18335
510.5288, 18.24408
511.0109, 16.65229
511.4930, 14.75238
511.9752, 13.44474
512.4573, 13.29019
512.9394, 14.10485
513.4215, 15.84139
513.9036, 18.79525
514.3857, 20.79355
514.8679, 20.44711
515.3500, 19.10633
515.8321, 18.67691
516.3142, 19.33838
516.7963, 19.58693
517.2784, 18.42187
517.7606, 16.62774
518.2427, 15.00072
518.7248, 13.67377
519.2069, 13.30629
519.6890, 14.50017
520.1711, 16.95474
520.6533, 19.14881
521.1354, 22.04310
521.6175, 23.49022
522.0996, 22.13559
522.5817, 19.74127
523.0638, 17.98577
523.5460, 17.17764
524.0281, 16.68835
524.5102, 15.82009
524.9923, 14.61513
525.4744, 14.74815
525.9565, 18.35224
526.4387, 20.46415
526.9208, 18.68585
527.4029, 15.73539
527.8850, 14.61150
528.3671, 16.02197
528.8492, 18.11893
529.3314, 19.03343
529.8135, 18.87794
530.2956, 18.80566
530.7777, 19.03602
531.2598, 19.02234
531.7419, 18.26139
532.2241, 17.06726
532.7062, 15.81370
533.1883, 14.27062
533.6704, 13.29271
534.1525, 13.86104
534.6346, 15.38849
535.1168, 16.55668
535.5989, 17.07624
536.0810, 17.10667
536.5631, 16.67974
537.0452, 15.76562
537.5273, 15.30283
538.0095, 15.71522
538.4916, 16.06131
538.9737, 15.86671
539.4558, 15.42917
539.9379, 15.09270
540.4200, 15.00086
540.9022, 15.33853
541.3843, 16.54032
541.8664, 18.92904
542.3485, 20.35299
542.8306, 20.17425
543.3127, 19.65316
543.7948, 19.02566
544.2769, 18.35237
544.7590, 17.60106
545.2411, 16.71028
545.7233, 16.07372
546.2054, 16.27110
546.6875, 17.25757
547.1696, 18.44699
547.6517, 19.99980
548.1339, 21.26444
548.6160, 21.38748
549.0981, 20.74782
549.5802, 20.38984
550.0623, 20.69858
550.5444, 21.13446
551.0266, 21.78830
551.5087, 22.27293
551.9908, 21.40119
552.4729, 18.76021
552.9550, 15.74177
553.4371, 13.96902
553.9193, 13.46838
554.4014, 14.21352
554.8835, 17.80673
555.3656, 20.69042
555.8477, 20.90232
556.3298, 19.81843
556.8120, 19.77814
557.2941, 21.58133
557.7762, 23.60046
558.2583, 23.34087
558.7404, 20.49946
559.2225, 17.88541
559.7047, 15.18396
560.1868, 13.30514
560.6689, 12.55392
561.1510, 12.82155
561.6331, 14.29913
562.1152, 17.76958
562.5974, 20.38621
563.0795, 18.21161
563.5616, 12.80534
564.0437, 10.16326
564.5258, 11.84478
565.0079, 14.63445
565.4901, 15.63601
565.9722, 14.92940
566.4543, 14.91241
566.9364, 16.63895
567.4185, 17.84812
567.9006, 17.60824
568.3828, 16.35558
568.8649, 14.10795
569.3470, 11.12925
569.8291, 9.124853
570.3112, 10.45195
570.7933, 15.41133
571.2755, 18.33850
571.7576, 17.84566
572.2397, 16.96456
572.7218, 16.02370
573.2039, 15.29195
573.6860, 15.07338
574.1682, 15.43597
574.6503, 16.10068
575.1324, 16.84607
575.6145, 17.67721
576.0966, 18.80615
576.5787, 20.49080
577.0609, 21.47582
577.5430, 20.61383
578.0251, 18.60060
578.5072, 17.18186
578.9893, 16.58947
579.4714, 16.14525
579.9536, 15.44551
580.4357, 14.82899
580.9178, 14.83673
581.3999, 15.45493
581.8820, 16.08010
582.3641, 16.22057
582.8463, 16.00553
583.3284, 16.21909
583.8105, 17.78902
584.2926, 18.41052
584.7747, 17.12092
585.2568, 15.47247
585.7390, 14.61418
586.2211, 14.58720
586.7032, 14.78397
587.1853, 14.75657
587.6674, 14.65394
588.1495, 14.89104
588.6317, 15.49912
589.1138, 16.29015
589.5959, 17.42890
590.0780, 18.51085
590.5601, 19.15613
591.0422, 19.37298
591.5244, 19.07309
592.0065, 17.47586
592.4886, 15.93879
592.9707, 16.05038
593.4528, 17.36316
593.9349, 18.30992
594.4171, 18.21976
594.8992, 17.24548
595.3813, 15.44054
595.8634, 11.79475
596.3455, 10.39908
596.8276, 13.44731
597.3098, 16.11578
597.7919, 16.17009
598.2740, 14.51205
598.7561, 12.50279
599.2382, 10.62964
599.7203, 9.778143
600.2025, 12.23230
600.6846, 17.83398
601.1667, 19.89593
601.6488, 16.19876
602.1309, 12.02908
602.6130, 11.29620
603.0952, 12.63714
603.5773, 13.38990
604.0594, 12.78259
604.5415, 12.37698
605.0236, 13.21038
605.5057, 14.66133
605.9879, 15.86264
606.4700, 16.64626
606.9521, 17.07668
607.4342, 17.15588
607.9163, 16.94137
608.3984, 16.88125
608.8806, 17.44223
609.3627, 17.49300
609.8448, 16.60199
610.3269, 15.43565
610.8090, 14.26261
611.2911, 13.26992
611.7733, 12.89186
612.2554, 13.72408
612.7375, 15.10850
613.2196, 15.46454
613.7017, 14.71375
614.1838, 13.67803
614.6660, 12.17974
615.1481, 11.00525
615.6302, 11.38886
616.1123, 13.20313
616.5944, 14.52941
617.0765, 14.85608
617.5587, 14.69155
618.0408, 13.95990
618.5229, 13.05098
619.0050, 12.86299
619.4871, 13.69693
619.9692, 14.89602
620.4514, 15.57610
620.9335, 15.66701
621.4156, 15.79867
621.8977, 16.36825
622.3798, 16.48480
622.8619, 15.47698
623.3441, 14.12308
623.8262, 13.29117
624.3083, 13.19073
624.7904, 13.48831
625.2725, 14.24528
625.7546, 15.14990
626.2367, 15.11096
626.7188, 13.96932
627.2009, 13.20697
627.6830, 13.90636
628.1652, 15.22107
628.6473, 15.01173
629.1294, 12.67274
629.6115, 11.05358
630.0936, 10.69768
630.5757, 11.08119
631.0579, 12.25348
631.5400, 13.82699
632.0221, 14.91080
632.5042, 15.03290
632.9863, 14.77831
633.4684, 15.39138
633.9506, 17.21064
634.4327, 18.23127
634.9148, 18.20511
635.3969, 17.50440
635.8790, 15.85161
636.3611, 13.83869
636.8433, 12.39407
637.3254, 11.64002
637.8075, 11.85769
638.2896, 14.22248
638.7717, 17.43148
639.2538, 18.73124
639.7360, 17.78848
640.2181, 16.53375
640.7002, 16.31988
641.1823, 16.86975
641.6644, 17.05359
642.1465, 16.66912
642.6287, 16.16950
643.1108, 15.33026
643.5929, 14.57575
644.0750, 14.08944
644.5571, 13.93598
645.0392, 14.22878
645.5214, 15.09695
646.0035, 16.21541
646.4856, 17.16577
646.9677, 17.94654
647.4498, 18.07800
647.9319, 17.19156
648.4141, 16.23709
648.8962, 16.35641
649.3783, 17.09492
649.8604, 16.66043
650.3425, 13.03163
650.8246, 10.77528
651.3068, 13.32755
651.7889, 17.38639
652.2710, 18.84916
652.7531, 17.27474
653.2352, 14.48472
653.7173, 11.67523
654.1995, 9.166297
654.6816, 8.508152
655.1637, 10.76719
655.6458, 12.32789
656.1279, 11.36693
656.6100, 10.61842
657.0922, 12.27799
657.5743, 15.59762
658.0564, 17.82926
658.5385, 17.54922
659.0206, 16.30436
659.5027, 15.16379
659.9849, 14.24989
660.4670, 14.00208
660.9491, 14.53764
661.4312, 15.33539
661.9133, 16.00600
662.3954, 16.52626
662.8776, 16.55760
663.3597, 15.59730
663.8418, 14.80090
664.3239, 14.24350
664.8060, 13.91357
665.2881, 13.96708
665.7703, 14.26885
666.2524, 14.31826
666.7345, 13.63914
667.2166, 12.76925
667.6987, 12.90636
668.1808, 14.01125
668.6630, 14.49814
669.1451, 13.73243
669.6272, 12.89716
670.1093, 13.38394
670.5914, 15.02036
671.0735, 15.63148
671.5557, 13.78386
672.0378, 12.62181
672.5199, 13.93728
673.0020, 16.00045
673.4841, 16.72026
673.9662, 16.01242
674.4484, 15.43196
674.9305, 16.29962
675.4126, 18.00623
675.8947, 18.39009
676.3768, 17.09187
676.8589, 16.06028
677.3411, 15.75385
677.8232, 15.75103
678.3053, 15.91558
678.7874, 16.12156
679.2695, 15.86618
679.7516, 14.45678
680.2338, 13.29088
680.7159, 13.59713
681.1980, 14.52365
681.6801, 14.73887
682.1622, 14.02415
682.6443, 12.77310
683.1265, 11.11972
683.6086, 9.432083
684.0907, 9.713290
684.5728, 13.44849
685.0549, 15.89662
685.5370, 15.19880
686.0192, 14.11671
686.5013, 14.16638
686.9834, 15.13891
687.4655, 16.21531
687.9476, 17.23452
688.4297, 17.99850
688.9119, 18.36841
689.3940, 18.34204
689.8761, 17.76811
690.3582, 16.63587
690.8403, 15.55346
691.3224, 15.04315
691.8046, 14.91797
692.2867, 14.24542
692.7688, 12.21027
693.2509, 10.95291
693.7330, 11.31569
694.2151, 11.73275
694.6973, 10.77477
695.1794, 9.142467
695.6615, 8.782731
696.1436, 10.81770
696.6257, 13.38593
697.1078, 14.57318
697.5900, 14.59497
698.0721, 14.00128
698.5542, 12.81209
699.0363, 11.87401
699.5184, 11.79285
700.0005, 12.37443
700.4827, 12.95302
700.9648, 13.69458
701.4469, 14.14618
701.9290, 14.05470
702.4111, 13.90444
702.8932, 14.17649
703.3754, 14.57748
703.8575, 14.34137
704.3396, 13.10444
704.8217, 11.84036
705.3038, 11.85720
705.7859, 12.90392
706.2681, 13.89734
706.7502, 14.81024
707.2323, 15.20233
707.7144, 14.68319
708.1965, 13.60638
708.6786, 12.73536
709.1607, 12.00165
709.6428, 11.65448
710.1249, 12.02654
710.6071, 12.47233
711.0892, 12.39094
711.5713, 12.19991
712.0534, 12.85296
712.5355, 14.61801
713.0176, 16.30337
713.4998, 16.35136
713.9819, 15.10015
714.4640, 14.45533
714.9461, 14.55451
715.4282, 14.49413
715.9103, 13.73278
716.3925, 12.79924
716.8746, 12.54701
717.3567, 13.03518
717.8388, 13.55945
718.3209, 14.69081
718.8030, 15.15779
719.2852, 13.56805
719.7673, 11.30910
720.2494, 10.23071
720.7315, 10.75557
721.2136, 12.20347
721.6957, 14.53707
722.1779, 17.03023
722.6600, 16.40310
723.1421, 12.11926
723.6242, 9.550033
724.1063, 11.00975
724.5884, 13.47731
725.0706, 13.57135
725.5527, 11.50515
726.0348, 10.20221
726.5169, 10.46179
726.9990, 10.70511
727.4811, 10.00958
727.9633, 9.279329
728.4454, 9.773275
728.9275, 11.34130
729.4096, 12.64244
729.8917, 12.72223
730.3738, 12.07987
730.8560, 11.69220
731.3381, 11.56117
731.8202, 11.62866
732.3023, 11.80278
732.7844, 12.41125
733.2665, 14.14992
733.7487, 16.48881
734.2308, 17.43764
734.7129, 16.16781
735.1950, 15.08411
735.6771, 14.37377
736.1592, 14.27318
736.6414, 15.75653
737.1235, 17.92863
737.6056, 18.44362
738.0877, 16.20093
738.5698, 13.31433
739.0519, 12.95181
739.5341, 14.78839
740.0162, 15.93696
740.4983, 16.25106
740.9804, 15.81017
741.4625, 14.19995
741.9446, 12.24424
742.4268, 11.59857
742.9089, 12.54474
743.3910, 13.18303
743.8731, 12.88319
744.3552, 12.76043
744.8373, 14.05060
745.3195, 15.54084
745.8016, 14.92902
746.2837, 12.03854
746.7658, 9.802030
747.2479, 11.49950
747.7300, 15.43682
748.2122, 16.73161
748.6943, 15.34152
749.1764, 14.18296
749.6585, 14.07169
750.1406, 14.46611
750.6227, 14.92649
751.1049, 15.44131
751.5870, 15.72737
752.0691, 15.50048
752.5512, 15.44676
753.0333, 16.20776
753.5154, 16.78203
753.9976, 15.96827
754.4797, 14.17817
754.9618, 12.90203
755.4439, 12.94381
755.9260, 13.64579
756.4081, 14.41158
756.8903, 15.12714
757.3724, 15.23532
757.8545, 14.64622
758.3366, 13.82262
758.8187, 12.95196
759.3008, 12.17172
759.7830, 11.88184
760.2651, 12.64490
760.7472, 12.54546
761.2293, 10.18726
761.7114, 8.582210
762.1935, 9.776026
762.6757, 12.07169
763.1578, 12.91235
763.6399, 11.78250
764.1220, 10.89900
764.6041, 12.35237
765.0862, 14.72293
765.5684, 16.04241
766.0505, 16.33575
766.5326, 15.65235
767.0147, 13.94725
767.4968, 12.36649
767.9789, 12.28778
768.4611, 13.62358
768.9432, 14.31580
769.4253, 14.24603
769.9074, 13.71973
770.3895, 12.07211
770.8716, 10.62318
771.3538, 10.48023
771.8359, 11.31036
772.3180, 11.85427
772.8001, 11.29352
773.2822, 11.21808
773.7643, 13.72641
774.2465, 16.87945
774.7286, 17.18775
775.2107, 14.97373
775.6928, 14.04021
776.1749, 16.67930
776.6570, 20.15036
777.1392, 18.23368
777.6213, 9.583607
778.1034, 5.612045
778.5855, 8.740352
779.0676, 12.01387
779.5497, 11.89686
780.0319, 10.58330
780.5140, 11.31214
780.9961, 14.38296
781.4782, 15.81528
781.9603, 12.65705
782.4424, 9.727529
782.9246, 10.32071
783.4067, 12.68985
783.8888, 14.18316
784.3709, 14.32727
784.8530, 14.40553
785.3351, 15.68077
785.8173, 14.53059
786.2994, 16.21305
786.7815, 12.66916
787.2636, 10.00159
787.7457, 8.723207
788.2278, 8.845343
788.7100, 11.01657
789.1921, 14.46884
789.6742, 16.04607
790.1563, 14.24208
790.6384, 13.43320
791.1205, 15.20597
791.6026, 16.66327
792.0847, 15.72807
792.5668, 13.51755
793.0490, 12.07138
793.5311, 11.98185
794.0132, 12.08251
794.4953, 10.98830
794.9774, 9.659559
795.4595, 10.26555
795.9417, 12.42859
796.4238, 13.61534
796.9059, 12.95652
797.3880, 11.74362
797.8701, 11.32351
798.3522, 11.67696
798.8344, 12.57806
799.3165, 14.79237
799.7986, 16.08449
800.2807, 15.59262
800.7628, 14.51542
801.2449, 12.94275
801.7271, 11.36353
802.2092, 11.13787
802.6913, 13.19118
803.1734, 15.08430
803.6555, 15.66089
804.1376, 15.37164
804.6198, 14.06471
805.1019, 12.35194
805.5840, 12.05165
806.0661, 13.91419
806.5482, 15.92727
807.0303, 14.81413
807.5125, 11.10316
807.9946, 10.20913
808.4767, 12.68611
808.9588, 14.86436
809.4409, 15.50526
809.9230, 15.39820
810.4052, 15.45919
810.8873, 14.96038
811.3694, 15.19002
811.8515, 13.28531
812.3336, 11.66820
812.8157, 10.31937
813.2979, 9.679278
813.7800, 10.81612
814.2621, 12.93320
814.7442, 13.70219
815.2263, 11.82618
815.7084, 10.04441
816.1906, 12.08671
816.6727, 15.78837
817.1548, 16.17531
817.6369, 13.39504
818.1190, 11.19793
818.6011, 11.27207
819.0833, 12.41352
819.5654, 12.92789
820.0475, 12.79105
820.5296, 12.69890
821.0117, 12.55999
821.4938, 12.66488
821.9760, 13.55351
822.4581, 14.30229
822.9402, 13.64585
823.4223, 12.05581
823.9044, 11.82326
824.3865, 15.02011
824.8687, 17.14823
825.3508, 15.36299
825.8329, 12.55686
826.3150, 11.37551
826.7971, 11.73099
827.2792, 12.55954
827.7614, 13.39906
828.2435, 14.21959
828.7256, 15.33569
829.2077, 16.40817
829.6898, 15.63359
830.1719, 12.98369
830.6541, 11.45510
831.1362, 12.35038
831.6183, 14.09353
832.1004, 14.88805
832.5825, 14.74212
833.0646, 14.38768
833.5468, 13.76192
834.0289, 13.02197
834.5110, 11.51703
834.9931, 10.53748
835.4752, 11.50038
835.9573, 13.56719
836.4395, 14.47359
836.9216, 13.23325
837.4037, 12.19259
837.8858, 13.05212
838.3679, 14.36806
838.8500, 14.56210
839.3322, 13.92213
839.8143, 13.34607
840.2964, 13.17875
840.7785, 13.48306
841.2606, 14.70821
841.7427, 16.31580
842.2249, 15.68816
842.7070, 12.69211
843.1891, 10.80952
843.6712, 11.03290
844.1533, 12.17957
844.6354, 13.66318
845.1176, 15.15627
845.5997, 14.99076
846.0818, 10.90181
846.5639, 8.768953
847.0460, 9.629357
847.5281, 11.24678
848.0103, 13.49013
848.4924, 15.42258
848.9745, 15.38104
849.4566, 13.04486
849.9387, 11.19905
850.4208, 11.92289
850.9030, 13.18319
851.3851, 13.06905
851.8672, 12.12931
852.3493, 11.38423
852.8314, 11.08682
853.3135, 11.19671
853.7957, 11.79223
854.2778, 12.44008
854.7599, 11.79028
855.2420, 9.891574
855.7241, 9.421247
856.2062, 10.86749
856.6884, 12.81052
857.1705, 14.81040
857.6526, 16.40579
858.1347, 16.61024
858.6168, 14.98210
859.0989, 13.95483
859.5811, 14.23744
860.0632, 14.18857
860.5453, 12.89126
861.0274, 11.51894
861.5095, 11.46407
861.9916, 12.39707
862.4738, 12.42539
862.9559, 9.974152
863.4380, 8.239953
863.9201, 10.18446
864.4022, 13.39097
864.8843, 15.47142
865.3665, 16.04978
865.8486, 14.33018
866.3307, 10.09567
866.8128, 6.402273
867.2949, 7.921294
867.7770, 13.17051
868.2592, 15.36617
868.7413, 14.45676
869.2234, 13.77256
869.7055, 14.35622
870.1876, 14.84769
870.6697, 13.85099
871.1519, 11.70994
871.6340, 10.32100
872.1161, 9.404758
872.5981, 9.782184
873.0803, 13.86313
873.5624, 16.66802
874.0445, 14.67898
874.5266, 10.80440
875.0087, 9.297688
875.4908, 10.79793
875.9730, 12.66150
876.4551, 14.40609
876.9372, 15.78518
877.4193, 16.55265
877.9014, 16.91077
878.3835, 17.23175
878.8657, 17.46179
879.3478, 17.11703
879.8299, 15.84215
880.3120, 14.12662
880.7941, 12.25901
881.2762, 10.53565
881.7584, 10.18323
882.2405, 11.17783
882.7226, 11.98427
883.2047, 11.87284
883.6868, 11.71862
884.1689, 12.88151
884.6511, 15.28529
885.1332, 16.36517
885.6153, 15.95792
886.0974, 14.53876
886.5795, 10.99980
887.0616, 8.022680
887.5438, 7.966043
888.0259, 10.06167
888.5080, 12.07385
888.9901, 14.32162
889.4722, 15.58897
889.9543, 15.06583
890.4365, 14.22189
890.9186, 13.56506
891.4007, 13.19761
891.8828, 13.27450
892.3649, 13.75882
892.8470, 14.28107
893.3292, 14.90396
893.8113, 15.13414
894.2934, 14.20355
894.7755, 12.67759
895.2576, 11.28650
895.7397, 10.27936
896.2219, 10.17644
896.7040, 11.27301
897.1861, 12.81175
897.6682, 13.69395
898.1503, 13.99032
898.6324, 14.28779
899.1146, 14.59311
899.5967, 14.77839
900.0788, 14.74761
900.5609, 14.80697
901.0430, 15.30954
901.5251, 16.15502
902.0073, 16.76908
902.4894, 17.58630
902.9715, 17.25150
903.4536, 14.08336
903.9357, 11.64365
904.4178, 12.17313
904.9000, 14.01176
905.3821, 14.93381
905.8642, 14.72768
906.3463, 14.32790
906.8284, 14.03469
907.3105, 13.50142
907.7927, 12.40022
908.2748, 11.10576
908.7569, 9.856359
909.2390, 8.784490
909.7211, 8.025732
910.2032, 7.606592
910.6854, 7.748762
911.1675, 9.209837
911.6496, 11.05575
912.1317, 11.51871
912.6138, 10.94949
913.0959, 10.82040
913.5781, 11.57446
914.0602, 12.71226
914.5423, 13.81831
915.0244, 14.88260
915.5065, 16.12306
915.9886, 17.55031
916.4708, 17.62825
916.9529, 15.95483
917.4350, 14.00679
917.9171, 12.37482
918.3992, 11.31535
918.8813, 11.32294
919.3635, 12.50917
919.8456, 14.01151
920.3277, 17.15752
920.8098, 18.43384
921.2919, 14.98927
921.7740, 11.32279
922.2562, 10.97285
922.7383, 12.92583
923.2204, 14.02235
923.7025, 13.60311
924.1846, 13.08492
924.6667, 12.74350
925.1489, 12.47543
925.6310, 11.90884
926.1131, 11.54341
926.5952, 12.51554
927.0773, 14.65136
927.5594, 15.83497
928.0416, 14.40362
928.5237, 12.38347
929.0058, 11.54927
929.4879, 11.36733
929.9700, 11.08241
930.4521, 10.61494
930.9343, 10.00412
931.4164, 9.280811
931.8985, 8.739072
932.3806, 8.721185
932.8627, 9.163186
933.3448, 9.945746
933.8270, 11.03691
934.3091, 12.16215
934.7912, 13.27203
935.2733, 14.15829
935.7554, 14.69512
936.2375, 14.84693
936.7197, 14.42122
937.2018, 13.23106
937.6839, 12.52955
938.1660, 12.37337
938.6481, 12.61614
939.1302, 13.67502
939.6124, 14.53448
940.0945, 13.95386
940.5766, 12.11986
941.0587, 10.78106
941.5408, 9.499692
942.0229, 9.351836
942.5051, 11.38527
942.9872, 13.46660
943.4693, 15.02471
943.9514, 15.75803
944.4335, 15.00311
944.9156, 12.75999
945.3978, 10.78918
945.8799, 9.491276
946.3620, 8.846749
946.8441, 9.009501
947.3262, 9.707847
947.8083, 10.96475
948.2905, 12.46883
948.7726, 13.59418
949.2547, 14.10990
949.7368, 14.32530
950.2189, 14.71002
950.7010, 14.79212
951.1832, 13.56092
951.6653, 11.58803
952.1474, 10.26644
952.6295, 9.813096
953.1116, 9.516794
953.5938, 8.859536
954.0759, 8.534164
954.5580, 10.38185
955.0400, 10.03501
955.5222, 14.22640
956.0043, 11.87934
956.4864, 11.07906
956.9685, 13.41474
957.4506, 16.27826
957.9327, 17.20970
958.4149, 16.46685
958.8970, 14.75556
959.3791, 11.50185
959.8612, 10.33747
960.3433, 12.24112
960.8254, 14.35533
961.3076, 15.71270
961.7897, 16.16610
962.2718, 15.26703
962.7539, 12.97947
963.2360, 11.36894
963.7181, 10.98923
964.2003, 10.44143
964.6824, 8.832545
965.1645, 7.835584
965.6466, 8.594665
966.1287, 10.45176
966.6108, 12.57201
967.0930, 15.02445
967.5751, 16.21848
968.0572, 14.66474
968.5393, 13.24894
969.0214, 13.00224
969.5035, 13.48292
969.9857, 14.73433
970.4678, 16.26888
970.9499, 17.15074
971.4320, 17.12657
971.9141, 16.10384
972.3962, 12.45860
972.8784, 9.308448
973.3605, 10.09058
973.8426, 12.91404
974.3247, 14.99548
974.8068, 15.82976
975.2889, 15.97467
975.7711, 15.69819
976.2532, 15.01724
976.7353, 13.72402
977.2174, 12.15586
977.6995, 10.61713
978.1816, 9.354963
978.6638, 9.270993
979.1459, 10.51833
979.6280, 12.17868
980.1101, 13.60136
980.5922, 14.66626
981.0743, 14.90734
981.5565, 14.48914
982.0386, 14.47206
982.5207, 14.91945
983.0028, 15.45140
983.4849, 15.99396
983.9670, 15.69840
984.4492, 13.30797
984.9313, 9.605145
985.4134, 8.544442
985.8955, 10.54811
986.3776, 11.99877
986.8597, 12.36371
987.3419, 12.91148
987.8240, 14.48879
988.3061, 16.10647
988.7882, 16.21097
989.2703, 14.81386
989.7524, 14.28431
990.2346, 15.23421
990.7167, 15.71198
991.1988, 15.60774
991.6809, 14.76620
992.1630, 11.99351
992.6451, 8.993897
993.1273, 9.310198
993.6094, 13.61816
994.0915, 16.24733
994.5736, 16.12922
995.0557, 15.72309
995.5378, 15.43738
996.0200, 15.05135
996.5021, 14.17091
996.9842, 13.14974
997.4663, 12.88033
997.9484, 13.67718
998.4305, 13.73090
998.9127, 11.56049
999.3948, 9.847295
999.8769, 9.772518
1000.359, 10.65548
1000.841, 12.46887
1001.323, 14.56806
1001.805, 15.48552
1002.287, 14.66493
1002.770, 13.69380
1003.252, 13.28125
1003.734, 13.12249
1004.216, 13.14637
1004.698, 13.19189
1005.180, 12.98302
1005.662, 12.59581
1006.144, 12.44612
1006.627, 12.76438
1007.109, 12.95607
1007.591, 12.06008
1008.073, 11.16123
1008.555, 11.81059
1009.037, 13.34074
1009.519, 14.77715
1010.001, 15.66109
1010.483, 14.93661
1010.966, 11.73950
1011.448, 8.585443
1011.930, 8.913437
1012.412, 11.17812
1012.894, 12.42132
1013.376, 12.84827
1013.858, 13.74060
1014.340, 15.27697
1014.823, 16.26816
1015.305, 15.84202
1015.787, 14.65580
1016.269, 13.41993
1016.751, 12.36791
1017.233, 12.73016
1017.715, 14.32382
1018.197, 15.41339
1018.679, 15.51272
1019.162, 15.33596
1019.644, 15.45752
1020.126, 15.71860
1020.608, 15.81213
1021.090, 15.73024
1021.572, 15.23866
1022.054, 14.30850
1022.536, 13.74948
1023.018, 13.84018
1023.501, 14.24150
1023.983, 14.74603
1024.465, 15.14498
1024.947, 14.53253
1025.429, 12.72935
1025.911, 12.28359
1026.393, 13.60741
1026.875, 14.45833
1027.358, 13.89021
1027.840, 13.23328
1028.322, 13.96307
1028.804, 13.32839
1029.286, 12.85573
1029.768, 13.04399
1030.250, 11.50368
1030.732, 11.27019
1031.214, 10.59442
1031.697, 8.404400
1032.179, 6.304907
1032.661, 5.756398
1033.143, 6.708059
1033.625, 9.158605
1034.107, 14.78687
1034.589, 17.59126
1035.071, 16.25924
1035.553, 14.34675
1036.036, 12.46624
1036.518, 11.26157
1037.000, 11.85800
1037.482, 13.79246
1037.964, 14.30328
1038.446, 12.10349
1038.928, 11.01952
1039.410, 12.05957
1039.893, 12.84960
1040.375, 11.95335
1040.857, 10.97397
1041.339, 12.24775
1041.821, 15.03795
1042.303, 15.14574
1042.785, 9.618481
1043.267, 7.035251
1043.750, 10.36627
1044.232, 13.42187
1044.714, 13.86320
1045.196, 13.17430
1045.678, 12.51672
1046.160, 12.00027
1046.642, 11.80660
1047.124, 11.91894
1047.606, 12.42979
1048.089, 14.14763
1048.571, 15.29050
1049.053, 14.76708
1049.535, 13.63411
1050.017, 12.56176
1050.499, 11.80091
1050.981, 12.10638
1051.463, 14.28656
1051.945, 15.66140
1052.428, 15.39490
1052.910, 14.53789
1053.392, 13.03842
1053.874, 11.58797
1054.356, 10.89287
1054.838, 10.83437
1055.320, 10.89655
1055.802, 11.08778
1056.285, 11.00148
1056.767, 9.862411
1057.249, 9.215316
1057.731, 10.30068
1058.213, 11.86061
1058.695, 12.66741
1059.177, 12.81365
1059.659, 12.93566
1060.141, 13.17833
1060.624, 13.40995
1061.106, 13.61457
1061.588, 13.76199
1062.070, 14.01804
1062.552, 14.06511
1063.034, 13.12070
1063.516, 11.77165
1063.998, 11.74893
1064.480, 13.68048
1064.963, 15.20859
1065.445, 15.48427
1065.927, 15.01924
1066.409, 13.15336
1066.891, 11.44279
1067.373, 11.71127
1067.855, 13.30682
1068.337, 14.51998
1068.820, 14.94576
1069.302, 14.91043
1069.784, 13.90455
1070.266, 13.27836
1070.748, 14.53761
1071.230, 15.80328
1071.712, 14.90061
1072.194, 12.75355
1072.677, 11.52935
1073.159, 11.70034
1073.641, 12.19527
1074.123, 12.71141
1074.605, 13.23268
1075.087, 14.52658
1075.569, 15.11513
1076.051, 12.50679
1076.533, 8.709545
1077.016, 7.596290
1077.498, 9.738105
1077.980, 12.31928
1078.462, 14.70755
1078.944, 16.48743
1079.426, 18.05140
1079.908, 18.36846
1080.390, 15.46678
1080.872, 11.32472
1081.354, 8.971996
1081.837, 8.779984
1082.319, 9.189121
1082.801, 9.654047
1083.283, 10.52903
1083.765, 13.17372
1084.247, 15.04482
1084.729, 12.88973
1085.211, 9.650408
1085.694, 9.909347
1086.176, 13.36217
1086.658, 15.60948
1087.140, 14.91941
1087.622, 13.70504
1088.104, 12.08821
1088.586, 11.26776
1089.068, 12.73455
1089.551, 14.90139
1090.033, 16.27213
1090.515, 16.59884
1090.997, 15.60050
1091.479, 12.74541
1091.961, 10.66042
1092.443, 10.16245
1092.925, 10.88854
1093.407, 14.18228
1093.890, 17.35406
1094.372, 17.50509
1094.854, 15.44234
1095.336, 13.48640
1095.818, 12.07068
1096.300, 11.19491
1096.782, 11.12692
1097.264, 11.24573
1097.746, 11.40440
1098.229, 11.55953
1098.711, 12.02083
1099.193, 12.32142
1099.675, 11.21298
1100.157, 8.532732
1100.639, 7.243645
1101.121, 9.505331
1101.603, 11.21251
1102.086, 10.58375
1102.568, 9.799173
1103.050, 10.50087
1103.532, 11.72005
1104.014, 12.21993
1104.496, 11.87406
1104.978, 10.61694
1105.460, 6.681351
1105.943, 4.796178
1106.425, 7.426748
1106.907, 10.15473
1107.389, 10.95038
1107.871, 10.91527
1108.353, 11.13465
1108.835, 11.61588
1109.317, 12.25143
1109.799, 13.84898
1110.281, 13.57071
1110.764, 8.464941
1111.246, 5.115481
1111.728, 7.052030
1112.210, 9.908910
1112.692, 10.05663
1113.174, 8.532138
1113.656, 8.188379
1114.138, 9.501310
1114.621, 9.831058
1115.103, 8.568701
1115.585, 7.243830
1116.067, 4.592108
1116.549, 4.038288
1117.031, 9.547527
1117.513, 16.81661
1117.995, 18.38232
1118.478, 14.15217
1118.960, 12.44238
1119.442, 15.05103
1119.924, 15.75607
1120.406, 12.68643
1120.888, 10.51162
1121.370, 11.71251
1121.852, 13.99524
1122.334, 14.88462
1122.817, 14.50685
1123.299, 13.27855
1123.781, 10.47463
1124.263, 10.10735
1124.745, 13.11993
1125.227, 15.52203
1125.709, 16.12390
1126.191, 15.62442
1126.673, 14.40143
1127.156, 12.82741
1127.638, 11.67524
1128.120, 10.92281
1128.602, 11.68142
1129.084, 14.17853
1129.566, 15.81877
1130.048, 16.06693
1130.530, 15.42543
1131.013, 14.06394
1131.495, 12.59742
1131.977, 11.91447
1132.459, 11.93621
1132.941, 12.39740
1133.423, 13.26142
1133.905, 14.19899
1134.387, 15.11765
1134.870, 14.65280
1135.352, 12.26655
1135.834, 10.28935
1136.316, 11.17063
1136.798, 10.17369
1137.280, 13.17441
1137.762, 11.52081
1138.244, 12.03267
1138.726, 14.23106
1139.208, 14.80241
1139.691, 13.11668
1140.173, 11.06743
1140.655, 9.752184
1141.137, 9.299259
1141.619, 10.54639
1142.101, 12.30397
1142.583, 12.00816
1143.065, 10.68764
1143.548, 11.13928
1144.030, 13.03726
1144.512, 13.37645
1144.994, 11.10219
1145.476, 9.342502
1145.958, 11.66660
1146.440, 14.28514
1146.922, 12.60688
1147.405, 9.555815
1147.887, 8.843577
1148.369, 9.771501
1148.851, 10.32521
1149.333, 10.11505
1149.815, 9.771811
1150.297, 9.192638
1150.779, 9.633089
1151.261, 13.35193
1151.744, 16.68933
1152.226, 17.10959
1152.708, 15.49952
1153.190, 11.74543
1153.672, 7.230484
1154.154, 5.778882
1154.636, 8.788926
1155.118, 10.89543
1155.600, 9.518156
1156.083, 8.361936
1156.565, 8.332039
1157.047, 9.345383
1157.529, 12.65495
1158.011, 16.27555
1158.493, 16.63460
1158.975, 13.64307
1159.457, 11.72404
1159.940, 11.74302
1160.422, 11.86335
1160.904, 12.24000
1161.386, 12.38587
1161.868, 11.91297
1162.350, 11.40488
1162.832, 11.37970
1163.314, 11.73871
1163.796, 12.18478
1164.279, 12.71739
1164.761, 13.38979
1165.243, 14.36073
1165.725, 14.91445
1166.207, 14.92179
1166.689, 14.35034
1167.171, 12.94501
1167.653, 11.70703
1168.135, 12.29696
1168.618, 11.42874
1169.100, 11.46061
1169.582, 11.86467
1170.064, 11.40733
1170.546, 12.90975
1171.028, 12.76065
1171.510, 9.760956
1171.992, 7.942483
1172.474, 10.80995
1172.957, 15.41069
1173.439, 16.58990
1173.921, 15.36310
1174.403, 14.53025
1174.885, 14.01453
1175.367, 13.40596
1175.849, 12.58540
1176.331, 11.01933
1176.814, 8.559011
1177.296, 7.535698
1177.778, 11.12818
1178.260, 15.71112
1178.742, 17.12408
1179.224, 16.89025
1179.706, 16.98601
1180.188, 17.16752
1180.671, 16.45290
1181.153, 14.80208
1181.635, 12.94735
1182.117, 10.89588
1182.599, 9.814065
1183.081, 10.94368
1183.563, 12.51870
1184.045, 13.63233
1184.527, 14.48477
1185.010, 15.43403
1185.492, 16.29313
1185.974, 16.68881
1186.456, 16.58912
1186.938, 15.66881
1187.420, 11.97706
1187.902, 10.35321
1188.384, 13.28424
1188.866, 16.33204
1189.349, 17.97783
1189.831, 18.44004
1190.313, 17.65435
1190.795, 15.90395
1191.277, 14.20323
1191.759, 12.30920
1192.241, 11.72228
1192.723, 12.97431
1193.206, 13.61587
1193.688, 13.03006
1194.170, 12.15699
1194.652, 11.44016
1195.134, 11.14844
1195.616, 11.85317
1196.098, 13.11760
1196.580, 12.55013
1197.063, 13.67510
1197.545, 11.17481
1198.027, 14.45913
1198.509, 16.42418
1198.991, 15.97081
1199.473, 14.36243
1199.955, 12.31401
1200.437, 10.81857
1200.919, 11.58307
1201.401, 13.47930
1201.884, 15.06837
1202.366, 16.02333
1202.848, 15.13149
1203.330, 13.15358
1203.812, 12.83745
1204.294, 14.76477
1204.776, 15.84128
1205.258, 13.48540
1205.741, 11.34249
1206.223, 12.28509
1206.705, 13.76000
1207.187, 13.56478
1207.669, 12.91913
1208.151, 13.70474
1208.633, 15.47759
1209.115, 16.20772
1209.598, 15.26654
1210.080, 14.99607
1210.562, 16.53465
1211.044, 17.60853
1211.526, 17.98736
1212.008, 17.49825
1212.490, 15.41219
1212.972, 13.10013
1213.454, 12.29072
1213.937, 12.63445
1214.419, 12.27866
1214.901, 10.76841
1215.383, 11.33378
1215.865, 14.69527
1216.347, 15.31759
1216.829, 11.57883
1217.311, 8.338419
1217.793, 8.439749
1218.276, 10.36750
1218.758, 12.36081
1219.240, 14.26474
1219.722, 15.90411
1220.204, 17.04844
1220.686, 16.54434
1221.168, 14.72373
1221.650, 12.86066
1222.133, 11.42832
1222.615, 11.09997
1223.097, 12.39844
1223.579, 13.52138
1224.061, 12.17299
1224.543, 10.57252
1225.025, 11.12734
1225.507, 12.48139
1225.990, 13.13311
1226.472, 13.19944
1226.954, 13.03979
1227.436, 12.83357
1227.918, 13.37631
1228.400, 15.52902
1228.882, 17.09453
1229.364, 18.17033
1229.846, 17.77610
1230.328, 13.67337
1230.811, 9.855218
1231.293, 10.03141
1231.775, 12.02445
1232.257, 11.52397
1232.739, 8.560694
1233.221, 7.787517
1233.703, 9.760181
1234.185, 11.58345
1234.668, 13.15758
1235.150, 13.77068
1235.632, 13.09194
1236.114, 12.26054
1236.596, 12.18329
1237.078, 12.37041
1237.560, 11.70290
1238.042, 10.70034
1238.525, 11.53547
1239.007, 11.20243
1239.489, 11.34718
1239.971, 12.34395
1240.453, 12.22396
1240.935, 13.83124
1241.417, 15.24493
1241.899, 15.35709
1242.381, 14.65389
1242.864, 12.84654
1243.346, 11.12970
1243.828, 9.873316
1244.310, 9.769130
1244.792, 12.60635
1245.274, 16.80907
1245.756, 18.96062
1246.238, 18.55812
1246.720, 17.46026
1247.203, 15.29588
1247.685, 13.53770
1248.167, 12.06545
1248.649, 11.39726
1249.131, 12.06538
1249.613, 12.96333
1250.095, 13.17188
1250.577, 13.19543
1251.059, 14.14430
1251.542, 15.87854
1252.024, 16.62406
1252.506, 16.39008
1252.988, 16.59146
1253.470, 17.23023
1253.952, 15.13516
1254.434, 9.635639
1254.916, 5.991748
1255.399, 8.104443
1255.881, 11.90666
1256.363, 12.14949
1256.845, 11.08867
1257.327, 11.74494
1257.809, 13.46346
1258.291, 15.83382
1258.773, 18.11963
1259.255, 19.00202
1259.738, 18.34429
1260.220, 17.18515
1260.702, 15.58697
1261.184, 14.37333
1261.666, 14.28005
1262.148, 13.98043
1262.630, 12.39539
1263.112, 11.01236
1263.594, 11.16666
1264.077, 11.94120
1264.559, 11.74896
1265.041, 10.88113
1265.523, 12.25230
1266.005, 16.72019
1266.487, 17.92490
1266.969, 15.27289
1267.451, 13.28658
1267.934, 13.02226
1268.416, 14.15678
1268.898, 16.61995
1269.380, 18.37278
1269.862, 16.52612
1270.344, 13.24691
1270.826, 12.48607
1271.308, 13.17221
1271.791, 13.46283
1272.273, 13.45276
1272.755, 13.53932
1273.237, 13.88086
1273.719, 14.69624
1274.201, 16.08100
1274.683, 17.61529
1275.165, 20.00106
1275.647, 21.23968
1276.130, 20.35904
1276.612, 18.39019
1277.094, 14.41420
1277.576, 10.96891
1278.058, 11.18684
1278.540, 13.79786
1279.022, 15.42901
1279.504, 16.09363
1279.986, 15.32015
1280.469, 12.73746
1280.951, 11.46898
1281.433, 11.96202
1281.915, 12.31691
1282.397, 11.84276
1282.879, 11.85150
1283.361, 13.49795
1283.843, 15.33400
1284.326, 15.64123
1284.808, 14.41259
##END=



