##NAMES=Pyrrhotite
##RRUFFID=R060440
##IDEAL CHEMISTRY=Fe^2+^_5_Fe^3+^_2_S^2-^_8_
##LOCALITY=Dal 'Negorsk, Primorskiy Kray, far eastern Russia
##OWNER=RRUFF
##SOURCE=Michael Scott
##DESCRIPTION=Bronze-yellow metallic tabular hexagonal prisms
##STATUS=The identification of this mineral has been confirmed by X-ray diffraction and chemical analysis
##URL=rruff.info/R060440
##MEASURED CHEMISTRY=Fe_7.1_S_8.0_
180.7090, 33.79003
181.1911, 32.38688
181.6732, 31.12185
182.1553, 30.26416
182.6374, 29.75758
183.1195, 29.60840
183.6017, 29.86729
184.0838, 30.16792
184.5659, 29.90955
185.0480, 29.23529
185.5301, 28.86677
186.0123, 29.54458
186.4944, 30.83722
186.9765, 31.25700
187.4586, 30.62913
187.9407, 29.61867
188.4228, 29.15064
188.9050, 29.17892
189.3871, 29.21514
189.8692, 28.74853
190.3513, 27.98651
190.8334, 28.21967
191.3155, 29.78766
191.7977, 31.62714
192.2798, 31.71770
192.7619, 30.06561
193.2440, 28.74787
193.7261, 29.16521
194.2082, 31.12965
194.6904, 32.48188
195.1725, 33.10416
195.6546, 33.11290
196.1367, 32.42933
196.6188, 30.97436
197.1009, 29.81826
197.5831, 29.71140
198.0652, 30.64598
198.5473, 31.35574
199.0294, 31.81844
199.5115, 31.96210
199.9937, 31.51184
200.4758, 30.38893
200.9579, 29.22238
201.4400, 28.12529
201.9221, 27.02500
202.4042, 27.17260
202.8864, 29.13455
203.3685, 31.88007
203.8506, 32.82346
204.3327, 31.60719
204.8148, 30.02659
205.2969, 28.98457
205.7791, 28.52061
206.2612, 28.28152
206.7433, 28.21299
207.2254, 28.37965
207.7075, 29.15522
208.1896, 30.89328
208.6718, 32.21920
209.1539, 32.24201
209.6360, 30.67574
210.1181, 29.24659
210.6002, 27.98129
211.0823, 26.94139
211.5645, 26.33469
212.0466, 26.24533
212.5287, 26.38632
213.0108, 26.59796
213.4929, 26.84943
213.9750, 27.33716
214.4572, 28.24667
214.9393, 29.32847
215.4214, 29.78420
215.9035, 29.31820
216.3856, 28.82966
216.8678, 28.92426
217.3499, 29.97128
217.8320, 30.36709
218.3141, 29.86362
218.7962, 28.71235
219.2783, 27.63657
219.7605, 26.53847
220.2426, 25.70789
220.7247, 25.35139
221.2068, 25.63377
221.6889, 25.88945
222.1710, 25.94777
222.6532, 25.99475
223.1353, 26.77060
223.6174, 28.99145
224.0995, 30.76090
224.5816, 30.97290
225.0637, 28.80751
225.5459, 27.16903
226.0280, 26.19682
226.5101, 25.79183
226.9922, 25.72159
227.4743, 26.13324
227.9564, 26.64509
228.4386, 27.09517
228.9207, 27.48874
229.4028, 27.76872
229.8849, 27.81805
230.3670, 27.78147
230.8492, 28.15145
231.3313, 29.37315
231.8134, 30.32367
232.2955, 30.42533
232.7776, 29.19764
233.2597, 28.19584
233.7419, 27.26307
234.2240, 26.60582
234.7061, 26.92840
235.1882, 29.03931
235.6703, 30.89785
236.1524, 31.58321
236.6346, 30.50169
237.1167, 29.56168
237.5988, 28.65040
238.0809, 27.91258
238.5630, 27.80511
239.0451, 29.04567
239.5273, 29.83172
240.0094, 29.22320
240.4915, 26.20837
240.9736, 24.47606
241.4557, 24.47090
241.9378, 25.53360
242.4200, 26.31361
242.9021, 26.69669
243.3842, 26.98724
243.8663, 27.31526
244.3484, 27.75648
244.8306, 27.99453
245.3127, 27.92722
245.7948, 27.70938
246.2769, 27.60785
246.7590, 27.58644
247.2411, 27.75110
247.7233, 28.26776
248.2054, 29.42870
248.6875, 29.78420
249.1696, 28.88196
249.6517, 27.47715
250.1338, 26.83854
250.6160, 27.36840
251.0981, 27.94404
251.5802, 28.22754
252.0623, 28.18312
252.5444, 28.01426
253.0265, 27.57902
253.5087, 27.13718
253.9908, 27.14733
254.4729, 27.99708
254.9550, 28.49846
255.4371, 28.13674
255.9192, 26.72385
256.4014, 26.06031
256.8835, 26.49644
257.3656, 27.33521
257.8477, 27.70169
258.3298, 27.33072
258.8120, 27.09437
259.2941, 27.30384
259.7762, 28.00970
260.2583, 28.27656
260.7404, 27.96452
261.2225, 27.38956
261.7047, 26.79479
262.1868, 26.00166
262.6689, 25.67557
263.1510, 26.09550
263.6331, 27.23066
264.1152, 28.14359
264.5974, 28.90731
265.0795, 29.32314
265.5616, 29.03547
266.0437, 27.69841
266.5258, 26.79648
267.0079, 26.66173
267.4901, 27.21995
267.9722, 27.87699
268.4543, 28.73960
268.9364, 29.50331
269.4185, 29.96139
269.9006, 30.13589
270.3828, 29.82656
270.8649, 28.65922
271.3470, 27.01136
271.8291, 26.88034
272.3112, 28.79145
272.7933, 30.84015
273.2755, 31.41976
273.7576, 30.23014
274.2397, 29.77598
274.7218, 30.71093
275.2039, 32.36106
275.6860, 32.50322
276.1682, 30.80762
276.6503, 28.85073
277.1324, 27.45220
277.6145, 26.60983
278.0966, 26.60378
278.5787, 27.71124
279.0609, 29.36110
279.5430, 30.39587
280.0251, 30.79593
280.5072, 30.66751
280.9893, 29.71398
281.4715, 27.95104
281.9536, 27.13900
282.4357, 27.56464
282.9178, 28.54720
283.3999, 28.91211
283.8820, 28.62738
284.3642, 28.29531
284.8463, 28.10107
285.3284, 28.06003
285.8105, 28.52387
286.2926, 29.67645
286.7747, 30.75094
287.2569, 30.41508
287.7390, 28.72914
288.2211, 27.29993
288.7032, 26.71309
289.1853, 26.90641
289.6674, 27.93667
290.1496, 29.98816
290.6317, 31.71904
291.1138, 31.04398
291.5959, 28.35946
292.0780, 26.46066
292.5602, 26.50248
293.0423, 27.84604
293.5244, 29.15726
294.0065, 30.45104
294.4886, 31.18896
294.9707, 30.27701
295.4529, 28.26214
295.9350, 27.24545
296.4171, 28.31517
296.8992, 30.14993
297.3813, 30.06718
297.8634, 28.24121
298.3456, 26.63002
298.8277, 27.17529
299.3098, 29.02084
299.7919, 30.27957
300.2740, 30.45484
300.7561, 30.06669
301.2383, 29.46613
301.7204, 28.76005
302.2025, 28.48346
302.6846, 29.56504
303.1667, 31.11673
303.6488, 31.68662
304.1310, 30.81899
304.6131, 29.67298
305.0952, 29.48893
305.5773, 29.96765
306.0594, 30.29957
306.5415, 29.48757
307.0237, 28.59417
307.5058, 29.01026
307.9879, 31.06022
308.4700, 33.04484
308.9521, 33.54480
309.4343, 33.10672
309.9164, 32.71475
310.3985, 32.81013
310.8806, 33.09840
311.3627, 33.27282
311.8448, 33.31712
312.3270, 33.65868
312.8091, 35.07586
313.2912, 36.76907
313.7733, 37.79385
314.2554, 36.83633
314.7375, 35.97202
315.2197, 36.46985
315.7018, 38.18676
316.1839, 39.82443
316.6660, 40.73743
317.1481, 41.35978
317.6302, 42.01964
318.1124, 42.59223
318.5945, 43.47100
319.0766, 45.11397
319.5587, 47.24986
320.0408, 48.96320
320.5229, 49.52657
321.0051, 49.89750
321.4872, 50.64275
321.9693, 52.13328
322.4514, 53.44872
322.9335, 54.29283
323.4156, 54.84616
323.8978, 55.45662
324.3799, 55.90540
324.8620, 56.66274
325.3441, 58.13877
325.8262, 60.91066
326.3083, 62.61605
326.7905, 62.39203
327.2726, 61.22726
327.7547, 60.34430
328.2368, 60.05456
328.7189, 59.76179
329.2010, 59.25258
329.6832, 58.47193
330.1653, 58.13288
330.6474, 58.44769
331.1295, 59.05138
331.6116, 59.66785
332.0938, 60.37026
332.5759, 60.95035
333.0580, 61.17933
333.5401, 61.18168
334.0222, 61.93203
334.5043, 63.89620
334.9865, 65.97315
335.4686, 67.46626
335.9507, 68.05326
336.4328, 68.90187
336.9149, 69.95365
337.3970, 71.38221
337.8792, 73.82139
338.3613, 77.82777
338.8434, 81.37432
339.3255, 83.37978
339.8076, 83.59502
340.2898, 84.44094
340.7719, 86.38818
341.2540, 88.17696
341.7361, 87.74991
342.2182, 84.93095
342.7003, 81.66833
343.1825, 78.61292
343.6646, 75.68391
344.1467, 72.43993
344.6288, 68.76965
345.1109, 65.20364
345.5930, 62.28233
346.0752, 59.98725
346.5573, 57.71726
347.0394, 55.17405
347.5215, 52.68163
348.0036, 51.00904
348.4857, 50.15004
348.9679, 49.49627
349.4500, 48.46272
349.9321, 47.26300
350.4142, 46.54680
350.8963, 46.47272
351.3784, 46.74061
351.8606, 47.16021
352.3427, 47.64862
352.8248, 47.90399
353.3069, 47.34930
353.7890, 46.61439
354.2711, 46.70010
354.7533, 47.76684
355.2354, 48.87030
355.7175, 48.97442
356.1996, 48.57837
356.6817, 48.55265
357.1638, 49.80243
357.6460, 51.16817
358.1281, 51.55370
358.6102, 51.04345
359.0923, 50.84137
359.5744, 51.51876
360.0565, 52.88586
360.5387, 54.82717
361.0208, 58.21028
361.5029, 61.04372
361.9850, 61.92442
362.4671, 61.44771
362.9492, 61.42766
363.4314, 62.62432
363.9135, 64.35216
364.3956, 66.30417
364.8777, 68.60233
365.3598, 70.74363
365.8419, 72.61491
366.3241, 74.26960
366.8062, 75.77345
367.2883, 76.56616
367.7704, 77.75780
368.2526, 79.76488
368.7347, 82.76530
369.2168, 85.62732
369.6989, 87.76082
370.1810, 90.10915
370.6631, 93.57401
371.1453, 99.84323
371.6274, 104.6542
372.1095, 106.6588
372.5916, 106.5192
373.0737, 108.7038
373.5558, 114.4984
374.0380, 120.7312
374.5201, 125.8806
375.0022, 129.9543
375.4843, 132.7610
375.9664, 134.2592
376.4485, 134.5139
376.9307, 133.6636
377.4128, 131.7187
377.8949, 128.6569
378.3770, 124.4502
378.8591, 119.1330
379.3412, 112.5657
379.8234, 104.5273
380.3055, 96.21228
380.7876, 89.04204
381.2697, 82.92203
381.7518, 77.21174
382.2339, 71.52745
382.7161, 66.31728
383.1982, 62.89655
383.6803, 61.24134
384.1624, 59.80787
384.6445, 56.99025
385.1266, 53.55157
385.6088, 51.61238
386.0909, 51.82634
386.5730, 52.54150
387.0551, 51.99303
387.5372, 50.40911
388.0193, 48.41789
388.5015, 45.48079
388.9836, 42.78045
389.4657, 41.88459
389.9478, 42.92297
390.4299, 44.14685
390.9120, 44.65999
391.3942, 44.57550
391.8763, 44.01751
392.3584, 42.66014
392.8405, 41.19489
393.3226, 39.94452
393.8047, 38.87922
394.2869, 37.86249
394.7690, 36.76802
395.2511, 35.75554
395.7332, 34.91638
396.2154, 34.25325
396.6975, 33.79039
397.1796, 33.66731
397.6617, 33.72319
398.1438, 33.68235
398.6259, 33.42716
399.1081, 33.15002
399.5902, 32.93232
400.0723, 32.80479
400.5544, 32.50683
401.0365, 31.66080
401.5186, 30.92391
402.0008, 30.90749
402.4829, 32.23244
402.9650, 33.09253
403.4471, 33.19373
403.9292, 32.68093
404.4113, 32.18694
404.8935, 31.80072
405.3756, 31.22570
405.8577, 30.10376
406.3398, 28.26214
406.8219, 27.32344
407.3040, 27.50153
407.7862, 28.20678
408.2683, 28.67339
408.7504, 28.90087
409.2325, 28.91141
409.7146, 28.54315
410.1967, 28.00314
410.6789, 28.09229
411.1610, 28.83503
411.6431, 29.57829
412.1252, 29.86942
412.6073, 29.71994
413.0894, 28.99932
413.5716, 27.41717
414.0537, 25.88032
414.5358, 25.51286
415.0179, 26.14016
415.5000, 27.18259
415.9821, 29.03344
416.4643, 30.74639
416.9464, 30.99761
417.4285, 29.58334
417.9106, 28.39028
418.3927, 29.02357
418.8748, 30.44107
419.3570, 31.39432
419.8391, 30.98986
420.3212, 30.50667
420.8033, 30.55441
421.2854, 31.01184
421.7675, 31.30192
422.2497, 31.10188
422.7318, 30.79891
423.2139, 30.61505
423.6960, 30.69588
424.1781, 30.63346
424.6602, 29.89482
425.1424, 29.12206
425.6245, 29.29911
426.1066, 31.57714
426.5887, 33.33553
427.0709, 33.88546
427.5530, 33.22780
428.0351, 32.68092
428.5172, 32.11612
428.9993, 31.83083
429.4814, 32.18901
429.9636, 33.50833
430.4457, 34.23729
430.9278, 34.20070
431.4099, 33.55476
431.8920, 32.49328
432.3741, 30.93494
432.8563, 29.52006
433.3384, 28.55262
433.8205, 27.98511
434.3026, 27.64462
434.7847, 27.58153
435.2668, 27.33884
435.7490, 26.00420
436.2311, 24.00164
436.7132, 22.99345
437.1953, 23.84710
437.6774, 25.27968
438.1595, 25.55094
438.6417, 24.86779
439.1238, 24.08608
439.6059, 23.40960
440.0880, 23.05664
440.5701, 23.49590
441.0522, 24.93433
441.5344, 26.04815
442.0165, 25.63795
442.4986, 24.54523
442.9807, 23.80140
443.4628, 23.95177
443.9449, 24.31356
444.4271, 24.83045
444.9092, 25.41665
445.3913, 25.61847
445.8734, 24.79301
446.3555, 23.95753
446.8376, 23.69819
447.3198, 24.70872
447.8019, 24.97312
448.2840, 23.70425
448.7661, 21.98450
449.2482, 21.38616
449.7303, 22.74521
450.2125, 23.80081
450.6946, 23.93583
451.1767, 23.23989
451.6588, 23.10282
452.1409, 23.74779
452.6230, 24.43113
453.1052, 24.64924
453.5873, 24.38863
454.0694, 23.76330
454.5515, 22.62905
455.0337, 21.45363
455.5158, 21.18684
455.9979, 21.76240
456.4800, 22.22560
456.9621, 21.90670
457.4442, 21.27210
457.9264, 21.60678
458.4085, 22.87170
458.8906, 24.08289
459.3727, 24.29901
459.8548, 23.96183
460.3369, 23.76592
460.8191, 23.88223
461.3012, 24.11630
461.7833, 24.30638
462.2654, 24.49856
462.7475, 24.78718
463.2296, 25.72077
463.7118, 26.34888
464.1939, 25.91452
464.6760, 24.35613
465.1581, 23.06047
465.6402, 22.29674
466.1223, 22.05802
466.6045, 22.35696
467.0866, 24.18378
467.5687, 25.31963
468.0508, 25.43749
468.5329, 24.81244
469.0150, 23.96060
469.4972, 22.29261
469.9793, 21.33112
470.4614, 21.88685
470.9435, 24.09227
471.4256, 25.00000
471.9077, 24.13992
472.3899, 22.92159
472.8720, 22.70377
473.3541, 23.59600
473.8362, 24.13902
474.3183, 24.07799
474.8004, 23.66222
475.2826, 23.29028
475.7647, 22.96899
476.2468, 22.79779
476.7289, 23.09274
477.2110, 23.52169
477.6931, 23.12530
478.1753, 21.90073
478.6574, 20.86402
479.1395, 21.30568
479.6216, 22.34381
480.1037, 22.52485
480.5858, 20.80078
481.0680, 19.41342
481.5501, 20.64685
482.0322, 23.32012
482.5143, 24.95904
482.9964, 23.61398
483.4786, 21.86293
483.9607, 21.00696
484.4428, 21.21766
484.9249, 21.11136
485.4070, 19.72189
485.8892, 18.36478
486.3713, 18.00471
486.8534, 19.55919
487.3355, 20.78323
487.8176, 21.72190
488.2997, 22.26565
488.7819, 22.09035
489.2640, 20.80366
489.7461, 19.67994
490.2282, 19.14886
490.7103, 19.17712
491.1924, 19.29470
491.6746, 19.51962
492.1567, 19.76138
492.6388, 19.84024
493.1209, 19.80839
493.6030, 20.24378
494.0851, 21.42386
494.5673, 22.54933
495.0494, 22.07881
495.5315, 20.45780
496.0136, 19.31105
496.4957, 19.79145
496.9778, 20.90003
497.4600, 21.66122
497.9421, 22.06717
498.4242, 22.17349
498.9063, 21.76278
499.3884, 21.21277
499.8705, 20.88744
500.3527, 21.02017
500.8348, 20.97863
501.3169, 20.22204
501.7990, 19.24491
502.2811, 18.74196
502.7632, 19.57196
503.2454, 20.10162
503.7275, 19.50046
504.2096, 17.97519
504.6917, 17.98027
505.1738, 20.88091
505.6559, 23.45798
506.1381, 23.70968
506.6202, 20.73269
507.1023, 19.24365
507.5844, 19.69128
508.0665, 20.81826
508.5486, 20.93335
509.0308, 20.01390
509.5129, 18.92817
509.9950, 17.70840
510.4771, 16.64565
510.9592, 16.40907
511.4413, 16.95986
511.9235, 17.89029
512.4056, 19.45853
512.8877, 21.04830
513.3698, 21.65562
513.8519, 21.16272
514.3340, 20.35949
514.8162, 19.52233
515.2983, 18.81633
515.7804, 18.44514
516.2625, 18.59730
516.7446, 18.93231
517.2267, 19.62626
517.7089, 20.41296
518.1910, 20.62548
518.6731, 19.09110
519.1552, 17.92768
519.6373, 18.20939
520.1194, 20.16267
520.6016, 21.11410
521.0837, 20.57680
521.5658, 19.57265
522.0479, 18.71176
522.5300, 17.86298
523.0121, 17.75706
523.4943, 18.70663
523.9764, 20.06483
524.4585, 20.63645
524.9406, 20.39719
525.4227, 20.10196
525.9048, 20.13819
526.3870, 20.24544
526.8691, 19.46438
527.3513, 17.87607
527.8334, 16.73713
528.3155, 17.60743
528.7976, 19.24295
529.2797, 19.69372
529.7618, 18.55972
530.2440, 17.27266
530.7261, 16.60367
531.2082, 16.46174
531.6903, 16.74140
532.1724, 18.03726
532.6545, 19.08350
533.1367, 19.33719
533.6188, 18.99363
534.1009, 18.76780
534.5830, 18.72462
535.0651, 18.86190
535.5472, 19.30988
536.0294, 20.19772
536.5115, 20.41789
536.9936, 19.58484
537.4757, 18.62321
537.9578, 18.46189
538.4399, 19.33026
538.9221, 19.37916
539.4042, 18.08990
539.8863, 16.48019
540.3684, 16.68202
540.8505, 18.52090
541.3326, 19.89314
541.8148, 19.64425
542.2969, 18.58157
542.7790, 18.07407
543.2611, 18.08013
543.7432, 18.24036
544.2253, 18.32594
544.7075, 18.43440
545.1896, 18.72880
545.6717, 19.29094
546.1538, 19.69535
546.6359, 19.62683
547.1180, 19.33746
547.6002, 19.09533
548.0823, 18.81480
548.5644, 18.75636
549.0465, 19.07203
549.5286, 19.64913
550.0107, 20.20525
550.4929, 21.09260
550.9750, 21.39757
551.4571, 20.52454
551.9392, 18.46001
552.4213, 17.66890
552.9034, 18.44169
553.3856, 19.55647
553.8677, 19.97824
554.3498, 19.77908
554.8319, 19.96660
555.3140, 20.78732
555.7961, 21.46473
556.2783, 20.49039
556.7604, 18.49974
557.2425, 17.34267
557.7246, 18.30008
558.2067, 19.75940
558.6888, 20.28924
559.1710, 20.02637
559.6531, 19.41198
560.1352, 17.95084
560.6173, 16.76744
561.0994, 16.74692
561.5815, 18.12161
562.0637, 19.16446
562.5458, 19.45784
563.0279, 19.34539
563.5100, 19.06314
563.9921, 18.27615
564.4742, 17.89728
564.9564, 17.90139
565.4385, 18.35250
565.9206, 19.73489
566.4027, 22.46788
566.8848, 23.85802
567.3669, 22.62390
567.8491, 19.75689
568.3312, 18.52383
568.8133, 18.87695
569.2954, 19.50921
569.7775, 19.68849
570.2596, 19.54591
570.7418, 19.15556
571.2239, 18.50183
571.7060, 18.17464
572.1881, 19.20443
572.6702, 20.54479
573.1523, 20.97885
573.6345, 19.68765
574.1166, 18.38721
574.5987, 17.69310
575.0808, 17.41315
575.5629, 17.21947
576.0450, 16.97422
576.5272, 16.92486
577.0093, 17.19224
577.4914, 17.71929
577.9735, 18.11548
578.4556, 18.26308
578.9377, 18.51996
579.4199, 19.20378
579.9020, 20.32266
580.3841, 20.87079
580.8662, 20.80331
581.3483, 20.41110
581.8304, 19.77655
582.3126, 19.02941
582.7947, 18.68934
583.2768, 18.96408
583.7589, 19.32589
584.2410, 19.05831
584.7231, 18.47712
585.2053, 18.20743
585.6874, 19.11545
586.1696, 19.84586
586.6517, 19.51893
587.1338, 18.33953
587.6159, 17.24686
588.0980, 16.24144
588.5801, 15.58948
589.0623, 15.42435
589.5444, 15.75781
590.0265, 16.46584
590.5086, 17.84076
590.9907, 19.21621
591.4728, 20.19650
591.9550, 20.84657
592.4371, 20.45803
592.9192, 18.68223
593.4013, 16.57424
593.8834, 15.67270
594.3655, 15.85169
594.8477, 16.36911
595.3298, 17.17637
595.8119, 17.95629
596.2940, 18.18533
596.7761, 17.99590
597.2582, 17.83989
597.7404, 18.06392
598.2225, 18.32266
598.7046, 18.42634
599.1867, 18.35837
599.6688, 18.05717
600.1509, 16.91539
600.6331, 15.95775
601.1152, 15.93904
601.5973, 17.55825
602.0794, 18.46740
602.5615, 18.35476
603.0436, 17.82253
603.5258, 17.51558
604.0079, 17.45603
604.4900, 17.55645
604.9721, 17.92234
605.4542, 18.26730
605.9363, 17.67412
606.4185, 16.30773
606.9006, 15.61309
607.3827, 16.83230
607.8648, 18.74817
608.3469, 19.54015
608.8290, 19.36587
609.3112, 19.06734
609.7933, 19.09677
610.2754, 19.22927
610.7575, 19.36078
611.2396, 19.50700
611.7217, 19.39240
612.2039, 18.40682
612.6860, 17.46727
613.1681, 17.30979
613.6502, 18.74215
614.1323, 19.55905
614.6144, 19.54390
615.0966, 19.07128
615.5787, 18.66215
616.0608, 18.33897
616.5429, 17.90030
617.0250, 17.16306
617.5071, 16.43898
617.9893, 16.62867
618.4714, 17.61959
618.9535, 18.51650
619.4356, 18.81995
619.9177, 18.79634
620.3998, 18.74860
620.8820, 18.68162
621.3641, 18.58677
621.8462, 18.28276
622.3283, 18.06918
622.8104, 18.21178
623.2925, 18.84379
623.7747, 19.41810
624.2568, 19.97048
624.7389, 20.33649
625.2210, 20.35468
625.7031, 19.78441
626.1852, 19.40484
626.6674, 19.32168
627.1495, 19.37599
627.6316, 19.30027
628.1137, 19.08822
628.5958, 18.90975
629.0779, 18.84471
629.5601, 18.80621
630.0422, 18.56930
630.5243, 18.18458
631.0064, 17.88067
631.4885, 17.88656
631.9706, 17.96373
632.4528, 17.89079
632.9349, 17.66950
633.4170, 17.40509
633.8991, 17.03419
634.3812, 16.71754
634.8633, 16.51287
635.3455, 16.36136
635.8276, 16.59263
636.3097, 17.68706
636.7918, 18.72500
637.2739, 18.86106
637.7560, 17.84401
638.2382, 16.88781
638.7203, 16.03070
639.2024, 15.38652
639.6845, 15.17943
640.1666, 15.37345
640.6487, 15.68508
641.1309, 16.07343
641.6130, 16.47850
642.0951, 16.83817
642.5772, 17.14488
643.0594, 17.36159
643.5415, 17.51234
644.0236, 17.53456
644.5057, 17.28844
644.9879, 16.81713
645.4700, 16.52525
645.9521, 16.64260
646.4342, 16.83407
646.9163, 16.88304
647.3984, 16.70198
647.8806, 17.07041
648.3627, 18.32506
648.8448, 19.50592
649.3269, 19.73727
649.8090, 19.01810
650.2911, 18.48278
650.7733, 18.23809
651.2554, 18.06171
651.7375, 17.59619
652.2196, 16.99085
652.7017, 16.59440
653.1838, 16.47754
653.6660, 16.64919
654.1481, 17.37031
654.6302, 18.34203
655.1123, 19.04615
655.5944, 19.29330
656.0765, 19.25546
656.5587, 18.80963
657.0408, 18.07382
657.5229, 17.58403
658.0050, 17.46213
658.4871, 17.39070
658.9692, 17.23449
659.4514, 17.01652
659.9335, 16.95436
660.4156, 17.03202
660.8977, 17.38661
661.3798, 18.58440
661.8619, 20.08929
662.3441, 20.16247
662.8262, 18.66379
663.3083, 17.33957
663.7904, 18.05569
664.2725, 19.46794
664.7546, 19.98287
665.2368, 18.82340
665.7189, 18.01378
666.2010, 18.75588
666.6831, 19.96334
667.1652, 20.36143
667.6473, 19.25506
668.1295, 18.40901
668.6116, 17.91673
669.0937, 17.76322
669.5758, 18.02396
670.0579, 18.75585
670.5400, 19.35525
671.0222, 19.61502
671.5043, 19.66666
671.9864, 19.81885
672.4685, 20.03071
672.9506, 20.10067
673.4327, 19.74318
673.9149, 19.31850
674.3970, 19.11466
674.8791, 19.13159
675.3612, 19.30923
675.8433, 20.15960
676.3254, 20.71433
676.8076, 20.23577
677.2897, 18.41591
677.7718, 17.41508
678.2539, 17.60033
678.7360, 18.10543
679.2181, 18.39422
679.7003, 18.44888
680.1824, 18.34924
680.6645, 17.99907
681.1466, 17.91312
681.6287, 19.20885
682.1108, 21.22593
682.5930, 21.89233
683.0751, 20.44482
683.5572, 18.83967
684.0393, 19.11472
684.5214, 20.16327
685.0035, 20.40229
685.4857, 17.87788
685.9678, 16.16093
686.4499, 16.79440
686.9320, 18.77462
687.4141, 19.86315
687.8962, 19.66988
688.3784, 19.25901
688.8605, 18.68477
689.3426, 18.12983
689.8247, 18.41139
690.3068, 19.57121
690.7889, 20.51093
691.2711, 20.54343
691.7532, 20.06953
692.2353, 19.94593
692.7174, 20.09722
693.1995, 20.04223
693.6816, 19.10221
694.1638, 18.12924
694.6459, 17.88552
695.1280, 18.46078
695.6101, 18.86169
696.0922, 18.75324
696.5743, 18.47443
697.0565, 18.14563
697.5386, 17.64838
698.0207, 17.64292
698.5028, 18.28317
698.9849, 19.08934
699.4670, 19.73549
699.9492, 20.19770
700.4313, 20.15884
700.9135, 19.53254
701.3956, 18.68569
701.8777, 17.74660
702.3598, 16.92348
702.8419, 16.63816
703.3240, 17.30881
703.8062, 17.91565
704.2883, 17.68049
704.7704, 17.12436
705.2525, 17.01172
705.7346, 17.96567
706.2167, 18.74133
706.6989, 19.23068
707.1810, 19.46723
707.6631, 19.42273
708.1452, 19.00260
708.6273, 18.94538
709.1094, 19.77722
709.5916, 20.81168
710.0737, 19.89190
710.5558, 17.49228
711.0379, 16.02486
711.5200, 17.99178
712.0021, 20.56009
712.4843, 21.07461
712.9664, 19.85251
713.4485, 18.75616
713.9306, 18.57359
714.4127, 18.59477
714.8948, 18.50857
715.3770, 18.30259
715.8591, 18.19951
716.3412, 18.17042
716.8233, 18.30071
717.3054, 18.70649
717.7875, 19.37484
718.2697, 19.92922
718.7518, 20.38392
719.2339, 20.59572
719.7160, 20.22876
720.1981, 19.61845
720.6802, 19.39140
721.1624, 19.67306
721.6445, 19.76896
722.1266, 18.74714
722.6087, 17.66662
723.0908, 17.53706
723.5729, 19.35091
724.0551, 20.37669
724.5372, 20.06874
725.0193, 19.32900
725.5014, 19.14005
725.9835, 19.66580
726.4656, 19.59843
726.9478, 18.56716
727.4299, 17.54309
727.9120, 18.27077
728.3941, 20.19428
728.8762, 21.49434
729.3583, 21.49800
729.8405, 21.09426
730.3226, 21.13247
730.8047, 21.24187
731.2868, 20.81184
731.7689, 18.72153
732.2510, 17.16266
732.7332, 16.70105
733.2153, 17.07255
733.6974, 17.94475
734.1795, 19.67454
734.6616, 20.90538
735.1437, 21.24338
735.6259, 20.91300
736.1080, 20.29111
736.5901, 19.43003
737.0722, 18.79666
737.5543, 18.77984
738.0364, 18.98052
738.5186, 18.96194
739.0007, 18.76478
739.4828, 18.53482
739.9649, 18.23762
740.4470, 18.01474
740.9291, 17.92637
741.4113, 17.97709
741.8934, 18.12519
742.3755, 18.39157
742.8576, 18.73346
743.3397, 19.25741
743.8218, 19.88201
744.3040, 19.83056
744.7861, 19.08974
745.2682, 18.23769
745.7503, 17.49936
746.2324, 16.97095
746.7145, 16.83004
747.1967, 17.07123
747.6788, 17.58762
748.1609, 18.92624
748.6430, 20.05387
749.1251, 20.07670
749.6072, 18.54863
750.0894, 17.92759
750.5715, 18.79957
751.0536, 19.91601
751.5357, 20.57797
752.0178, 20.78992
752.4999, 20.36570
752.9821, 19.18596
753.4642, 18.14249
753.9463, 18.40643
754.4284, 19.34515
754.9105, 19.57365
755.3926, 18.84249
755.8748, 18.19154
756.3569, 18.29641
756.8390, 18.77872
757.3211, 19.32646
757.8032, 19.96108
758.2853, 20.50301
758.7675, 21.12994
759.2496, 21.48227
759.7318, 21.15519
760.2139, 20.05741
760.6960, 18.89925
761.1781, 17.63507
761.6602, 16.70912
762.1423, 16.80654
762.6245, 17.65252
763.1066, 18.68336
763.5887, 19.91861
764.0708, 20.81579
764.5529, 20.87764
765.0350, 20.42353
765.5172, 19.83080
765.9993, 18.23302
766.4814, 17.86643
766.9635, 19.60257
767.4456, 22.00609
767.9277, 23.29195
768.4099, 23.42047
768.8920, 22.52605
769.3741, 20.25724
769.8562, 17.89719
770.3383, 17.66821
770.8204, 18.86587
771.3026, 19.51876
771.7847, 18.62258
772.2668, 17.76388
772.7489, 18.33819
773.2310, 19.57305
773.7131, 20.24836
774.1953, 19.32981
774.6774, 18.87171
775.1595, 19.43148
775.6416, 20.36240
776.1237, 20.38116
776.6058, 19.35018
777.0880, 18.39466
777.5701, 17.64439
778.0522, 17.36250
778.5343, 18.58204
779.0164, 20.69345
779.4985, 21.89141
779.9807, 20.57207
780.4628, 19.17538
780.9449, 19.67928
781.4270, 21.12852
781.9091, 21.54162
782.3912, 18.72297
782.8734, 17.19346
783.3555, 18.18256
783.8376, 20.55823
784.3197, 21.30605
784.8018, 20.25781
785.2839, 19.75311
785.7661, 20.83799
786.2482, 22.38642
786.7303, 22.27307
787.2124, 21.02840
787.6945, 20.16066
788.1766, 21.08296
788.6588, 21.84138
789.1409, 21.10149
789.6230, 19.41799
790.1051, 18.37895
790.5872, 18.48042
791.0693, 18.71043
791.5515, 18.91404
792.0336, 19.09686
792.5157, 19.20072
792.9978, 19.22423
793.4799, 19.54273
793.9620, 20.65217
794.4442, 21.71599
794.9263, 21.12770
795.4084, 19.45342
795.8905, 18.26682
796.3726, 18.96388
796.8547, 19.57373
797.3369, 18.98141
797.8190, 17.60961
798.3011, 16.97406
798.7832, 17.36966
799.2653, 17.96677
799.7474, 18.63254
800.2296, 19.31960
800.7117, 20.04300
801.1938, 20.75548
801.6759, 20.91898
802.1580, 20.02551
802.6401, 18.77742
803.1223, 17.78899
803.6044, 17.09256
804.0865, 16.78397
804.5686, 17.22418
805.0507, 17.68917
805.5328, 17.90316
806.0150, 17.97677
806.4971, 18.20516
806.9792, 18.61795
807.4613, 19.14539
807.9434, 19.95681
808.4255, 20.66411
808.9077, 20.00911
809.3898, 18.34019
809.8719, 17.24150
810.3540, 17.92884
810.8361, 18.90709
811.3182, 18.90386
811.8004, 18.29264
812.2825, 17.96002
812.7646, 18.41598
813.2467, 18.84308
813.7288, 19.24369
814.2109, 19.45889
814.6931, 18.97930
815.1752, 17.71797
815.6573, 16.41867
816.1394, 14.98252
816.6215, 14.10791
817.1037, 15.78401
817.5858, 18.99555
818.0679, 21.10547
818.5500, 20.29530
819.0322, 18.87140
819.5143, 17.38018
819.9964, 16.15401
820.4785, 16.03727
820.9606, 17.98312
821.4427, 19.24783
821.9249, 19.29989
822.4070, 18.58397
822.8891, 17.77247
823.3712, 16.91781
823.8533, 16.69219
824.3354, 17.55876
824.8176, 18.54126
825.2997, 18.33945
825.7818, 17.51576
826.2639, 17.03778
826.7460, 17.62391
827.2281, 18.10662
827.7103, 18.10779
828.1924, 17.91726
828.6745, 17.94473
829.1566, 18.29381
829.6387, 18.41828
830.1208, 18.18404
830.6030, 17.82563
831.0851, 17.62815
831.5672, 17.60196
832.0493, 17.85744
832.5314, 18.61336
833.0135, 19.14209
833.4957, 18.57379
833.9778, 17.65225
834.4599, 17.24326
834.9420, 17.88679
835.4241, 18.61430
835.9063, 19.74481
836.3884, 20.57007
836.8705, 19.94279
837.3526, 17.91865
837.8347, 16.56466
838.3168, 16.16214
838.7990, 16.22228
839.2811, 16.41405
839.7632, 16.65768
840.2453, 16.85598
840.7274, 17.00967
841.2095, 17.05159
841.6917, 16.62037
842.1738, 16.31964
842.6559, 16.69958
843.1380, 18.14144
843.6201, 18.82670
844.1022, 18.59785
844.5844, 18.15468
845.0665, 18.22461
845.5486, 18.59129
846.0307, 18.60993
846.5128, 18.21613
846.9949, 17.82541
847.4771, 17.74370
847.9592, 17.75644
848.4413, 17.70411
848.9234, 17.55738
849.4055, 17.40945
849.8876, 17.30627
850.3698, 17.13070
850.8519, 16.63182
851.3340, 15.88913
851.8161, 16.19082
852.2982, 17.52867
852.7803, 18.79210
853.2625, 19.15319
853.7446, 19.02581
854.2267, 18.73135
854.7088, 18.32048
855.1909, 18.06819
855.6730, 18.25339
856.1552, 18.41851
856.6373, 18.35298
857.1194, 18.10017
857.6015, 18.08021
858.0836, 18.35047
858.5657, 18.41252
859.0479, 17.89941
859.5300, 17.11739
860.0121, 16.54342
860.4942, 16.19873
860.9763, 16.17282
861.4584, 16.98614
861.9406, 17.64262
862.4227, 17.48770
862.9048, 16.78069
863.3869, 16.51257
863.8690, 16.96716
864.3511, 17.08298
864.8333, 16.37835
865.3154, 15.49504
865.7975, 16.27156
866.2796, 18.19611
866.7617, 18.95970
867.2438, 17.07635
867.7260, 14.94349
868.2081, 14.28226
868.6902, 14.58818
869.1723, 15.04467
869.6544, 15.76781
870.1365, 16.24999
870.6187, 16.42785
871.1008, 16.39796
871.5829, 16.17666
872.0650, 15.78727
872.5471, 15.79763
873.0292, 16.38056
873.5114, 16.91686
873.9935, 16.61154
874.4756, 15.95182
874.9577, 15.52939
875.4399, 15.44485
875.9220, 15.64547
876.4041, 16.58579
876.8862, 17.41163
877.3683, 17.44107
877.8505, 16.46527
878.3326, 16.23796
878.8147, 16.85969
879.2968, 17.49355
879.7789, 17.21353
880.2610, 16.54775
880.7432, 16.44610
881.2253, 16.94537
881.7074, 17.30383
882.1895, 16.86736
882.6716, 16.47433
883.1537, 16.73155
883.6359, 17.58415
884.1180, 17.88989
884.6001, 17.55666
885.0822, 17.06593
885.5643, 16.54867
886.0464, 16.09081
886.5286, 15.92019
887.0107, 16.00152
887.4928, 16.19096
887.9749, 16.39256
888.4570, 16.69815
888.9391, 17.40707
889.4213, 18.26045
889.9034, 18.44304
890.3855, 17.71776
890.8676, 16.82599
891.3497, 15.81083
891.8318, 14.84989
892.3140, 14.17636
892.7961, 13.80711
893.2782, 13.83343
893.7603, 14.35898
894.2424, 15.10755
894.7245, 16.29229
895.2067, 17.39279
895.6888, 17.75799
896.1709, 16.28483
896.6530, 15.80235
897.1351, 16.89274
897.6172, 18.06667
898.0994, 17.47511
898.5815, 15.42085
899.0636, 14.11871
899.5457, 13.80613
900.0278, 13.92487
900.5099, 14.17441
900.9921, 14.54019
901.4742, 15.20420
901.9563, 16.31103
902.4384, 16.49463
902.9205, 14.95357
903.4026, 13.46459
903.8848, 12.92611
904.3669, 13.21107
904.8490, 13.11096
905.3311, 12.65127
905.8132, 12.48867
906.2953, 13.39623
906.7775, 14.50537
907.2596, 14.86245
907.7417, 14.66772
908.2238, 14.66916
908.7059, 15.75219
909.1880, 16.14400
909.6702, 15.15197
910.1523, 13.46237
910.6344, 12.68216
911.1165, 12.79945
911.5986, 13.36689
912.0807, 14.52186
912.5629, 15.42871
913.0450, 14.70078
913.5271, 13.24508
914.0092, 12.41622
914.4913, 12.91247
914.9734, 13.50974
915.4556, 14.18004
915.9377, 14.72548
916.4198, 14.91995
916.9019, 14.74033
917.3840, 14.65068
917.8661, 14.69252
918.3483, 14.64894
918.8304, 14.24432
919.3125, 13.68445
919.7946, 13.03578
920.2767, 12.30836
920.7589, 12.27504
921.2410, 14.06342
921.7231, 15.66557
922.2052, 16.25425
922.6873, 15.94019
923.1694, 15.64568
923.6516, 15.37250
924.1337, 15.13309
924.6158, 14.90510
925.0979, 14.73967
925.5800, 14.80227
926.0621, 14.98135
926.5443, 14.99868
927.0264, 14.38830
927.5085, 14.09607
927.9906, 14.55797
928.4727, 15.25501
928.9548, 15.16130
929.4370, 14.22937
929.9191, 14.01202
930.4012, 14.94756
930.8833, 15.91990
931.3654, 15.32994
931.8475, 14.14622
932.3297, 13.79214
932.8118, 14.86656
933.2939, 15.58619
933.7761, 15.49030
934.2582, 14.95055
934.7403, 13.90877
935.2224, 12.32004
935.7045, 12.21917
936.1866, 13.66152
936.6688, 15.01493
937.1509, 14.87602
937.6330, 14.20597
938.1151, 14.07038
938.5972, 14.40905
939.0793, 14.74219
939.5615, 14.96605
940.0436, 15.11272
940.5257, 15.12774
941.0078, 15.10671
941.4899, 15.45031
941.9720, 16.12923
942.4542, 16.28640
942.9363, 15.49557
943.4184, 14.54529
943.9005, 14.47943
944.3826, 14.72503
944.8647, 14.42252
945.3469, 12.68804
945.8290, 11.75744
946.3111, 12.19403
946.7932, 12.94546
947.2753, 12.94736
947.7574, 12.27170
948.2396, 12.66425
948.7217, 14.19285
949.2038, 15.45603
949.6859, 15.09004
950.1680, 14.17025
950.6501, 13.56548
951.1323, 13.32689
951.6144, 13.22173
952.0965, 13.14497
952.5786, 13.32728
953.0607, 13.94954
953.5428, 14.80588
954.0250, 15.31329
954.5071, 15.49274
954.9892, 15.44477
955.4713, 15.07265
955.9534, 14.71646
956.4355, 14.73067
956.9177, 14.88504
957.3998, 14.82844
957.8819, 14.20824
958.3640, 14.04405
958.8461, 14.60741
959.3282, 15.12082
959.8104, 14.43741
960.2925, 13.01569
960.7746, 12.53660
961.2567, 13.13314
961.7388, 13.89802
962.2209, 14.46488
962.7031, 14.81775
963.1852, 14.81749
963.6673, 14.49872
964.1494, 14.50329
964.6315, 14.94755
965.1136, 15.31305
965.5958, 15.39454
966.0779, 15.28674
966.5600, 15.20897
967.0421, 15.10727
967.5242, 14.82346
968.0063, 13.93666
968.4885, 13.35071
968.9706, 13.63718
969.4527, 14.28461
969.9348, 14.71385
970.4169, 14.93543
970.8990, 14.77964
971.3812, 14.16283
971.8633, 13.59216
972.3454, 13.80673
972.8275, 14.28230
973.3096, 14.12743
973.7917, 13.27387
974.2739, 12.64775
974.7560, 12.54437
975.2381, 12.81142
975.7202, 13.61580
976.2023, 14.72735
976.6844, 14.84604
977.1666, 13.98640
977.6487, 13.24934
978.1308, 13.00398
978.6129, 13.20338
979.0950, 14.29666
979.5771, 15.66671
980.0593, 16.30892
980.5414, 15.38375
981.0235, 14.51642
981.5056, 13.65948
981.9877, 13.03512
982.4698, 12.87521
982.9520, 13.14481
983.4341, 13.81316
983.9162, 14.86678
984.3983, 15.55306
984.8804, 14.84574
985.3625, 13.97235
985.8447, 13.97548
986.3268, 14.83442
986.8089, 15.07339
987.2910, 14.38142
987.7731, 13.97896
988.2552, 14.44579
988.7374, 15.17779
989.2195, 14.81670
989.7016, 13.71268
990.1837, 12.73012
990.6658, 11.98085
991.1479, 11.74979
991.6301, 12.46171
992.1122, 13.56536
992.5944, 14.63960
993.0765, 15.81267
993.5586, 15.97087
994.0407, 14.97656
994.5228, 13.98733
995.0049, 14.08821
995.4871, 14.67674
995.9692, 15.15747
996.4513, 15.43967
996.9334, 15.19721
997.4155, 13.58299
997.8976, 12.35555
998.3798, 11.95386
998.8619, 12.18371
999.3440, 12.87941
999.8261, 13.92546
1000.308, 13.97902
1000.790, 12.24943
1001.272, 10.94217
1001.755, 12.77547
1002.237, 15.52265
1002.719, 16.69413
1003.201, 15.36575
1003.683, 14.36473
1004.165, 13.61104
1004.647, 13.36574
1005.129, 14.18661
1005.612, 15.55961
1006.094, 15.93396
1006.576, 15.46318
1007.058, 14.88956
1007.540, 14.39278
1008.022, 14.09384
1008.504, 14.17848
1008.986, 14.43875
1009.468, 14.50490
1009.951, 14.33880
1010.433, 14.31891
1010.915, 14.54001
1011.397, 14.74068
1011.879, 14.50253
1012.361, 14.13696
1012.843, 14.05107
1013.325, 14.33803
1013.807, 14.61375
1014.290, 14.75694
1014.772, 14.97030
1015.254, 15.44485
1015.736, 16.02749
1016.218, 16.05961
1016.700, 15.60303
1017.182, 15.02190
1017.664, 14.59673
1018.147, 13.93652
1018.629, 12.15735
1019.111, 10.24786
1019.593, 9.750743
1020.075, 11.19189
1020.557, 12.58632
1021.039, 13.91899
1021.521, 14.94082
1022.003, 15.34502
1022.486, 15.30468
1022.968, 15.06472
1023.450, 14.65564
1023.932, 14.18538
1024.414, 13.29213
1024.896, 12.85529
1025.378, 13.33329
1025.860, 14.35336
1026.343, 14.88727
1026.825, 14.94673
1027.307, 14.73967
1027.789, 14.20376
1028.271, 13.79959
1028.753, 14.00782
1029.235, 14.53689
1029.717, 15.12323
1030.199, 15.86758
1030.682, 16.12959
1031.164, 15.80212
1031.646, 15.29331
1032.128, 14.70550
1032.610, 14.17276
1033.092, 14.03035
1033.574, 14.25243
1034.056, 14.75008
1034.539, 16.18101
1035.021, 17.01689
1035.503, 16.35295
1035.985, 15.11763
1036.467, 14.51471
1036.949, 14.56384
1037.431, 14.71526
1037.913, 14.94052
1038.396, 14.93144
1038.878, 14.08267
1039.360, 13.10575
1039.842, 12.74731
1040.324, 13.06935
1040.806, 13.14096
1041.288, 12.76693
1041.770, 12.50084
1042.252, 12.59476
1042.734, 12.79275
1043.217, 12.28049
1043.699, 11.45435
1044.181, 11.46157
1044.663, 13.19159
1045.145, 14.49938
1045.627, 14.15174
1046.109, 13.38585
1046.591, 13.13167
1047.074, 13.41833
1047.556, 13.31114
1048.038, 12.80703
1048.520, 12.68897
1049.002, 14.00625
1049.484, 15.46293
1049.966, 15.90662
1050.448, 15.58009
1050.931, 15.19385
1051.413, 14.72515
1051.895, 14.41910
1052.377, 14.26072
1052.859, 14.37463
1053.341, 15.33168
1053.823, 16.57240
1054.305, 16.64613
1054.787, 15.38268
1055.270, 14.36055
1055.752, 14.42714
1056.234, 14.76406
1056.716, 15.15721
1057.198, 15.49463
1057.680, 15.21649
1058.162, 14.36592
1058.644, 13.55926
1059.126, 12.85451
1059.609, 12.61830
1060.091, 13.79336
1060.573, 15.28025
1061.055, 15.64034
1061.537, 14.17794
1062.019, 14.06512
1062.501, 15.67666
1062.983, 17.26360
1063.466, 17.73704
1063.948, 17.37407
1064.430, 16.25771
1064.912, 14.72064
1065.394, 13.75743
1065.876, 14.79957
1066.358, 14.93764
1066.840, 12.92992
1067.323, 10.73754
1067.805, 11.20467
1068.287, 13.86570
1068.769, 15.30567
1069.251, 15.25638
1069.733, 14.92900
1070.215, 14.95454
1070.697, 15.17741
1071.179, 15.63603
1071.661, 16.22105
1072.144, 16.54405
1072.626, 16.63577
1073.108, 16.13709
1073.590, 14.77668
1074.072, 13.34921
1074.554, 12.75785
1075.036, 12.77346
1075.518, 13.22752
1076.001, 14.28922
1076.483, 14.81541
1076.965, 14.61768
1077.447, 14.10567
1077.929, 13.27691
1078.411, 12.41255
1078.893, 12.45707
1079.375, 13.18779
1079.858, 13.89107
1080.340, 14.49569
1080.822, 14.71840
1081.304, 14.09852
1081.786, 13.31486
1082.268, 12.95046
1082.750, 13.01189
1083.232, 13.38332
1083.714, 14.05800
1084.197, 14.50895
1084.679, 14.07815
1085.161, 13.53948
1085.643, 13.64685
1086.125, 14.12611
1086.607, 13.94867
1087.089, 12.71939
1087.571, 12.24979
1088.054, 12.93169
1088.536, 13.94513
1089.018, 14.49163
1089.500, 14.66922
1089.982, 14.46677
1090.464, 13.88076
1090.946, 13.66135
1091.428, 14.21155
1091.911, 14.71700
1092.393, 14.90120
1092.875, 14.91110
1093.357, 15.21333
1093.839, 15.64210
1094.321, 15.61717
1094.803, 14.79483
1095.285, 14.09989
1095.767, 14.15775
1096.250, 14.32842
1096.732, 14.12752
1097.214, 13.59148
1097.696, 13.53947
1098.178, 13.94139
1098.660, 14.17328
1099.142, 13.72391
1099.624, 13.21027
1100.106, 13.11849
1100.589, 13.26439
1101.071, 13.33502
1101.553, 13.21761
1102.035, 13.41227
1102.517, 14.00211
1102.999, 14.49048
1103.481, 14.33708
1103.963, 13.91369
1104.446, 13.72361
1104.928, 13.71386
1105.410, 13.57812
1105.892, 12.90973
1106.374, 12.77917
1106.856, 13.59825
1107.338, 14.47861
1107.820, 13.83071
1108.302, 12.39197
1108.785, 12.08607
1109.267, 13.13176
1109.749, 14.02268
1110.231, 14.16416
1110.713, 13.93194
1111.195, 13.32301
1111.677, 12.55302
1112.159, 12.22216
1112.641, 12.28540
1113.124, 12.45792
1113.606, 12.65763
1114.088, 13.00803
1114.570, 13.86080
1115.052, 14.67980
1115.534, 15.07978
1116.016, 15.06425
1116.498, 14.49090
1116.981, 13.32802
1117.463, 12.44858
1117.945, 12.30326
1118.427, 12.49255
1118.909, 12.77621
1119.391, 13.07358
1119.873, 13.25908
1120.355, 13.27370
1120.838, 13.36246
1121.320, 13.58288
1121.802, 13.62861
1122.284, 13.20589
1122.766, 12.52994
1123.248, 11.67878
1123.730, 10.84377
1124.212, 10.52221
1124.694, 11.61332
1125.177, 12.04296
1125.659, 11.40099
1126.141, 10.59948
1126.623, 10.69856
1127.105, 11.37370
1127.587, 11.77992
1128.069, 11.90097
1128.551, 11.98653
1129.033, 12.26219
1129.516, 12.34849
1129.998, 12.05221
1130.480, 11.61983
1130.962, 11.33518
1131.444, 11.25866
1131.926, 11.92410
1132.408, 13.45474
1132.890, 14.54769
1133.373, 14.11161
1133.855, 13.24392
1134.337, 12.29057
1134.819, 11.47236
1135.301, 11.80083
1135.783, 13.22185
1136.265, 14.26798
1136.747, 14.55373
1137.229, 14.40339
1137.712, 13.67442
1138.194, 12.94497
1138.676, 12.88541
1139.158, 12.57894
1139.640, 12.34988
1140.122, 12.80036
1140.604, 12.45195
1141.086, 13.03008
1141.569, 13.86633
1142.051, 14.21107
1142.533, 14.35166
1143.015, 14.74424
1143.497, 15.68529
1143.979, 15.94928
1144.461, 15.35266
1144.943, 14.81061
1145.426, 15.26044
1145.908, 15.79222
1146.390, 14.17818
1146.872, 11.64525
1147.354, 10.74940
1147.836, 14.51657
1148.318, 16.29319
1148.800, 15.37123
1149.282, 13.75032
1149.765, 12.92379
1150.247, 12.71123
1150.729, 12.85687
1151.211, 13.27011
1151.693, 13.62117
1152.175, 13.56854
1152.657, 13.75978
1153.139, 14.33640
1153.621, 15.11549
1154.104, 16.25398
1154.586, 17.38959
1155.068, 16.97376
1155.550, 15.06310
1156.032, 13.42128
1156.514, 13.06512
1156.996, 12.93230
1157.478, 12.64282
1157.961, 12.37335
1158.443, 12.60267
1158.925, 13.18265
1159.407, 13.17356
1159.889, 12.42831
1160.371, 11.75150
1160.853, 11.36719
1161.335, 11.50541
1161.818, 12.66816
1162.300, 14.26240
1162.782, 14.35159
1163.264, 13.08006
1163.746, 12.23973
1164.228, 12.25329
1164.710, 12.52360
1165.192, 12.85436
1165.674, 13.06500
1166.156, 12.87862
1166.639, 12.42148
1167.121, 12.55005
1167.603, 13.26145
1168.085, 14.08457
1168.567, 15.03816
1169.049, 15.56981
1169.531, 14.83893
1170.013, 13.69676
1170.496, 12.81181
1170.978, 12.18904
1171.460, 12.99836
1171.942, 15.37491
1172.424, 16.73802
1172.906, 15.36683
1173.388, 13.50039
1173.870, 13.54287
1174.353, 14.36990
1174.835, 14.38048
1175.317, 13.19986
1175.799, 13.01233
1176.281, 13.97968
1176.763, 14.61942
1177.245, 13.76246
1177.727, 12.51329
1178.209, 11.89135
1178.692, 11.83457
1179.174, 12.33141
1179.656, 13.80158
1180.138, 14.56353
1180.620, 14.54589
1181.102, 14.21523
1181.584, 13.75030
1182.066, 13.28572
1182.548, 12.97683
1183.031, 12.80662
1183.513, 12.73802
1183.995, 12.80272
1184.477, 12.91388
1184.959, 13.12239
1185.441, 13.16619
1185.923, 12.51885
1186.405, 11.76600
1186.888, 11.83786
1187.370, 12.53671
1187.852, 13.10228
1188.334, 13.44837
1188.816, 13.48667
1189.298, 13.10553
1189.780, 12.75809
1190.262, 13.08376
1190.745, 13.64624
1191.227, 13.62473
1191.709, 14.04117
1192.191, 14.54119
1192.673, 14.45462
1193.155, 15.21227
1193.637, 15.22939
1194.119, 14.67376
1194.601, 13.14441
1195.084, 11.48140
1195.566, 11.31098
1196.048, 12.58080
1196.530, 13.37753
1197.012, 12.93176
1197.494, 12.84569
1197.976, 13.53719
1198.458, 14.41633
1198.941, 14.60040
1199.423, 14.41641
1199.905, 14.43705
1200.387, 14.71667
1200.869, 14.86421
1201.351, 14.86751
1201.833, 14.56504
1202.315, 13.76565
1202.797, 12.95209
1203.280, 13.14946
1203.762, 13.78747
1204.244, 13.71086
1204.726, 12.69586
1205.208, 12.31699
1205.690, 13.17162
1206.172, 14.00023
1206.654, 14.49879
1207.136, 14.66380
1207.619, 14.27420
1208.101, 13.63482
1208.583, 13.23074
1209.065, 13.13195
1209.547, 13.48588
1210.029, 14.75984
1210.511, 15.41900
1210.993, 14.63531
1211.476, 13.39476
1211.958, 13.87776
1212.440, 15.08356
1212.922, 14.93288
1213.404, 12.51953
1213.886, 11.61399
1214.368, 13.21380
1214.850, 14.80447
1215.333, 15.37428
1215.815, 15.29289
1216.297, 15.01747
1216.779, 14.66060
1217.261, 14.46995
1217.743, 14.14207
1218.225, 14.38398
1218.707, 13.54640
1219.189, 12.82649
1219.672, 12.45820
1220.154, 12.53880
1220.636, 13.77011
1221.118, 15.40668
1221.600, 16.01444
1222.082, 14.72452
1222.564, 14.12746
1223.046, 14.53527
1223.528, 15.03674
1224.011, 15.11098
1224.493, 15.05782
1224.975, 15.52106
1225.457, 16.18304
1225.939, 16.51549
1226.421, 16.40509
1226.903, 15.67785
1227.385, 13.95151
1227.868, 13.03261
1228.350, 14.60561
1228.832, 16.80492
1229.314, 16.53793
1229.796, 14.93476
1230.278, 13.91355
1230.760, 14.06362
1231.242, 14.13278
1231.724, 14.06569
1232.207, 14.18830
1232.689, 14.86810
1233.171, 15.65743
1233.653, 16.12192
1234.135, 16.24509
1234.617, 15.95998
1235.099, 15.14801
1235.581, 14.22131
1236.063, 13.08902
1236.546, 12.54091
1237.028, 13.87714
1237.510, 15.20323
1237.992, 13.77456
1238.474, 11.25275
1238.956, 10.62360
1239.438, 12.75060
1239.920, 13.36355
1240.403, 12.32678
1240.885, 11.53169
1241.367, 12.66799
1241.849, 14.06331
1242.331, 14.10169
1242.813, 13.53131
1243.295, 13.53477
1243.777, 14.33973
1244.260, 14.40276
1244.742, 13.72394
1245.224, 13.48394
1245.706, 15.25558
1246.188, 16.80864
1246.670, 16.35904
1247.152, 14.91017
1247.634, 13.82840
1248.116, 13.09770
1248.599, 12.84225
1249.081, 13.03915
1249.563, 13.35534
1250.045, 13.80977
1250.527, 14.07530
1251.009, 13.69443
1251.491, 13.24549
1251.973, 13.45466
1252.455, 14.27079
1252.938, 14.06526
1253.420, 13.04797
1253.902, 12.95738
1254.384, 16.50558
1254.866, 18.85781
1255.348, 17.13117
1255.830, 14.62690
1256.313, 14.41920
1256.795, 16.06311
1257.277, 16.90375
1257.759, 16.98084
1258.241, 16.65919
1258.723, 15.71707
1259.205, 14.92594
1259.687, 14.26221
1260.169, 14.03193
1260.651, 14.94936
1261.134, 16.43020
1261.616, 16.38739
1262.098, 15.19973
1262.580, 14.25349
1263.062, 14.48986
1263.544, 14.27822
1264.026, 13.23306
1264.508, 12.29931
1264.991, 12.30315
1265.473, 12.94552
1265.955, 14.03890
1266.437, 15.25976
1266.919, 15.76049
1267.401, 14.46884
1267.883, 14.14500
1268.365, 15.08445
1268.848, 15.99812
1269.330, 15.70485
1269.812, 14.96262
1270.294, 14.65317
1270.776, 14.66757
1271.258, 14.79452
1271.740, 15.13817
1272.222, 15.07733
1272.704, 14.54843
1273.187, 14.13063
1273.669, 14.34710
1274.151, 14.72793
1274.633, 14.74119
1275.115, 14.71080
1275.597, 15.27822
1276.079, 16.67412
1276.561, 16.99809
1277.043, 16.26328
1277.526, 15.13058
1278.008, 13.39822
1278.490, 12.09283
1278.972, 11.98389
1279.454, 12.54105
1279.936, 13.32368
1280.418, 14.30537
1280.900, 15.13282
1281.383, 15.76414
1281.865, 15.95904
1282.347, 15.38486
1282.829, 14.64044
1283.311, 13.65008
1283.793, 12.88369
1284.275, 12.80379
1284.757, 13.24077
1285.240, 13.49283
1285.722, 13.63642
1286.204, 13.91562
1286.686, 14.51324
1287.168, 15.15472
1287.650, 16.04026
1288.132, 16.42225
1288.614, 15.28449
1289.096, 13.65234
1289.578, 13.89108
1290.061, 15.20455
1290.543, 15.97017
1291.025, 15.64437
1291.507, 14.91534
1291.989, 13.60303
1292.471, 12.74116
1292.953, 13.10431
1293.435, 13.98976
1293.918, 15.12616
1294.400, 15.96191
1294.882, 15.35190
1295.364, 13.00029
1295.846, 12.37863
1296.328, 13.52198
1296.810, 14.32168
1297.292, 13.29666
1297.775, 12.48407
1298.257, 13.98509
1298.739, 16.01127
1299.221, 16.88331
1299.703, 16.70527
1300.185, 16.41855
1300.667, 16.02611
1301.149, 15.50180
1301.631, 14.69587
1302.114, 14.14672
1302.596, 14.06098
##END=



