##NAMES=Qilianshanite
##RRUFFID=R100019
##IDEAL CHEMISTRY=NaH_4_(CO_3_)(BO_3_)&#183;2H_2_O
##LOCALITY=Lewis Cliff Ice Tongue, Antarctica
##OWNER=RRUFF
##SOURCE=Dave Bish
##DESCRIPTION=Colorless to white granular massive with excellent bladed cleavage on individual crystalline grains
##STATUS=The identification of this mineral has been confirmed by single-crystal X-ray diffraction.
##URL=rruff.info/R100019
89.60352, 34.19018
90.08563, 34.48947
90.56775, 34.58745
91.04987, 34.54700
91.53198, 34.24372
92.01410, 33.10643
92.49622, 31.19824
92.97833, 29.80963
93.46045, 30.71078
93.94257, 33.25438
94.42468, 35.20965
94.90680, 35.45288
95.38892, 34.50629
95.87103, 34.00929
96.35315, 34.02612
96.83527, 34.25068
97.31738, 34.42650
97.79950, 34.56165
98.28162, 34.33191
98.76373, 33.20969
99.24585, 31.14104
99.72797, 30.29257
100.2101, 31.10946
100.6922, 32.78653
101.1743, 33.33220
101.6564, 32.37760
102.1385, 31.30755
102.6207, 31.10798
103.1028, 32.35672
103.5849, 32.56263
104.0670, 30.87222
104.5491, 27.71423
105.0313, 26.57046
105.5134, 28.98244
105.9955, 31.80078
106.4776, 32.47996
106.9597, 28.76508
107.4418, 26.10526
107.9240, 25.65146
108.4061, 27.74168
108.8882, 29.40984
109.3703, 30.67237
109.8524, 31.50669
110.3345, 31.87579
110.8167, 31.24460
111.2988, 30.63842
111.7809, 30.39663
112.2630, 30.79660
112.7451, 30.78854
113.2272, 29.52135
113.7094, 27.84168
114.1915, 27.13604
114.6736, 28.69236
115.1557, 30.62460
115.6378, 31.99881
116.1199, 32.37576
116.6021, 32.70951
117.0842, 33.48654
117.5663, 34.52019
118.0484, 35.24978
118.5305, 34.83953
119.0126, 34.30985
119.4948, 34.46078
119.9769, 35.21521
120.4590, 37.02212
120.9411, 41.02538
121.4232, 46.88332
121.9053, 51.90709
122.3875, 54.51483
122.8696, 55.20838
123.3517, 54.68460
123.8338, 52.05167
124.3159, 48.90601
124.7980, 46.51917
125.2802, 44.84861
125.7623, 44.80684
126.2444, 47.90558
126.7265, 53.39817
127.2086, 59.29413
127.6907, 64.09694
128.1729, 68.75030
128.6550, 75.58806
129.1371, 85.18028
129.6192, 95.25709
130.1013, 101.9947
130.5834, 105.8955
131.0656, 111.5004
131.5477, 122.0570
132.0298, 136.7547
132.5119, 151.6889
132.9940, 166.8193
133.4761, 181.5997
133.9583, 195.5910
134.4404, 208.7751
134.9225, 221.4263
135.4046, 233.4914
135.8867, 245.0179
136.3688, 256.3810
136.8510, 267.8487
137.3331, 279.0550
137.8152, 289.3688
138.2973, 298.6866
138.7794, 307.4662
139.2615, 315.8080
139.7437, 323.1494
140.2258, 332.1262
140.7079, 343.4909
141.1900, 357.1266
141.6721, 371.2594
142.1542, 385.7335
142.6364, 400.8161
143.1185, 416.6791
143.6006, 432.7673
144.0827, 450.5538
144.5648, 470.8938
145.0469, 494.9563
145.5291, 516.3140
146.0112, 535.3366
146.4933, 551.7301
146.9754, 565.2985
147.4575, 574.3900
147.9396, 582.4609
148.4218, 590.4529
148.9039, 598.3058
149.3860, 606.0975
149.8681, 613.9488
150.3502, 621.6266
150.8323, 628.6998
151.3145, 635.8837
151.7966, 641.8024
152.2787, 645.7994
152.7608, 644.9909
153.2429, 646.6757
153.7250, 652.4686
154.2072, 661.2372
154.6893, 669.8085
155.1714, 674.8388
155.6535, 676.1165
156.1356, 678.0645
156.6177, 681.2297
157.0999, 685.3743
157.5820, 691.3375
158.0641, 698.5374
158.5462, 704.5162
159.0283, 707.3582
159.5104, 709.5720
159.9926, 712.7911
160.4747, 718.4420
160.9568, 724.0975
161.4389, 728.8817
161.9210, 732.8518
162.4031, 736.9943
162.8853, 742.5807
163.3674, 748.0891
163.8495, 752.1259
164.3316, 753.0748
164.8137, 753.4337
165.2958, 754.5116
165.7780, 756.3050
166.2601, 757.8445
166.7422, 758.3901
167.2243, 758.4461
167.7064, 758.6482
168.1885, 759.4435
168.6707, 760.3279
169.1528, 760.9215
169.6349, 761.1979
170.1170, 761.4255
170.5991, 761.4400
171.0812, 761.5627
171.5634, 762.3447
172.0455, 764.6416
172.5276, 767.3986
173.0097, 769.4129
173.4918, 770.4854
173.9739, 771.6733
174.4561, 774.2781
174.9382, 777.7635
175.4203, 780.8491
175.9024, 782.2803
176.3845, 783.0970
176.8666, 784.7596
177.3488, 787.5280
177.8309, 790.7389
178.3130, 793.7865
178.7951, 796.7194
179.2772, 799.5925
179.7593, 802.2744
180.2415, 804.9553
180.7236, 808.1497
181.2057, 812.0677
181.6878, 816.1547
182.1699, 819.9734
182.6520, 823.4195
183.1342, 826.2704
183.6163, 827.5572
184.0984, 828.0187
184.5805, 830.0017
185.0626, 834.3808
185.5447, 839.5475
186.0269, 842.9572
186.5090, 844.6237
186.9911, 845.4158
187.4732, 844.9157
187.9553, 843.7001
188.4374, 845.0088
188.9196, 850.5031
189.4017, 857.5926
189.8838, 860.1485
190.3659, 858.0189
190.8480, 855.0405
191.3301, 854.5397
191.8123, 856.1962
192.2944, 856.6737
192.7765, 854.9711
193.2586, 851.9083
193.7407, 849.7806
194.2228, 848.5991
194.7050, 848.2735
195.1871, 849.2077
195.6692, 851.3857
196.1513, 852.7214
196.6334, 852.3466
197.1155, 850.9109
197.5977, 851.0269
198.0798, 852.8674
198.5619, 855.5604
199.0440, 858.4670
199.5261, 861.6248
200.0082, 864.5679
200.4904, 867.3504
200.9725, 869.8610
201.4546, 871.4541
201.9367, 872.0558
202.4188, 871.9310
202.9009, 871.0427
203.3831, 869.1844
203.8652, 868.0172
204.3473, 868.5189
204.8294, 870.3650
205.3115, 869.5596
205.7936, 865.4293
206.2758, 860.0980
206.7579, 856.0892
207.2400, 854.0160
207.7221, 850.6917
208.2042, 844.9057
208.6863, 836.7094
209.1685, 829.4792
209.6506, 823.0579
210.1327, 817.7778
210.6148, 814.4694
211.0969, 813.9919
211.5790, 812.6594
212.0612, 809.1932
212.5433, 803.5651
213.0254, 798.7535
213.5075, 794.7131
213.9896, 791.5172
214.4717, 789.4764
214.9538, 789.0109
215.4360, 788.4708
215.9181, 787.3615
216.4002, 785.6397
216.8823, 784.0517
217.3644, 782.4838
217.8465, 781.1652
218.3287, 780.4823
218.8108, 780.8405
219.2929, 780.8754
219.7750, 780.0428
220.2571, 778.1608
220.7392, 777.1404
221.2214, 777.4628
221.7035, 778.1606
222.1856, 777.9211
222.6677, 776.2779
223.1498, 774.6877
223.6319, 773.5707
224.1141, 772.9612
224.5962, 772.4453
225.0783, 772.0634
225.5604, 771.7410
226.0425, 771.3461
226.5246, 770.7482
227.0068, 770.3426
227.4889, 770.3429
227.9710, 770.8712
228.4531, 770.9847
228.9352, 770.6906
229.4173, 769.9730
229.8995, 768.6631
230.3816, 765.9952
230.8637, 764.1135
231.3458, 763.8680
231.8279, 765.6318
232.3100, 766.6047
232.7922, 766.6774
233.2743, 766.0616
233.7564, 764.8351
234.2385, 762.1494
234.7206, 760.4004
235.2027, 760.5048
235.6849, 762.8648
236.1670, 764.4799
236.6491, 765.2104
237.1312, 765.3190
237.6133, 764.9984
238.0954, 763.5826
238.5776, 762.9171
239.0597, 763.7512
239.5418, 766.4143
240.0239, 768.1673
240.5060, 768.7034
240.9881, 768.5852
241.4703, 768.4905
241.9524, 768.4591
242.4345, 768.3781
242.9166, 768.1552
243.3987, 767.7296
243.8808, 767.6133
244.3630, 767.6628
244.8451, 768.1472
245.3272, 769.6053
245.8093, 773.1933
246.2914, 775.6023
246.7735, 775.5765
247.2557, 772.7131
247.7378, 771.6700
248.2199, 773.3648
248.7020, 775.9564
249.1841, 777.3182
249.6662, 776.5896
250.1484, 776.2944
250.6305, 777.1592
251.1126, 779.2600
251.5947, 780.7817
252.0768, 781.4935
252.5589, 781.8322
253.0411, 782.2698
253.5232, 782.9642
254.0053, 783.3837
254.4874, 783.3436
254.9695, 782.8358
255.4516, 782.4675
255.9338, 782.2221
256.4159, 782.1577
256.8980, 782.4229
257.3801, 783.3253
257.8622, 783.8564
258.3444, 783.7498
258.8265, 783.0453
259.3086, 782.4660
259.7907, 782.0517
260.2728, 781.7477
260.7549, 781.4515
261.2371, 780.9958
261.7192, 781.0508
262.2013, 781.9187
262.6834, 783.4902
263.1655, 784.5320
263.6476, 784.8561
264.1298, 784.9617
264.6119, 785.2297
265.0940, 785.6735
265.5761, 786.2084
266.0582, 786.8853
266.5403, 787.6359
267.0225, 787.9763
267.5046, 787.5701
267.9867, 787.4335
268.4688, 788.5520
268.9509, 791.4005
269.4330, 793.4866
269.9152, 794.4079
270.3973, 794.3756
270.8794, 794.0746
271.3615, 793.3539
271.8436, 792.7847
272.3257, 792.7929
272.8079, 793.4471
273.2900, 794.3225
273.7721, 795.6257
274.2542, 796.9924
274.7363, 797.0303
275.2184, 795.2990
275.7006, 793.9926
276.1827, 794.8594
276.6648, 798.1505
277.1469, 800.4959
277.6290, 801.4575
278.1111, 801.5884
278.5933, 802.2298
279.0754, 803.5387
279.5575, 804.4420
280.0396, 804.0989
280.5217, 802.4977
281.0038, 801.2559
281.4860, 800.3668
281.9681, 799.9659
282.4502, 800.6324
282.9323, 802.4576
283.4144, 803.9054
283.8965, 803.4879
284.3787, 801.5124
284.8608, 802.1171
285.3429, 805.9826
285.8250, 810.7263
286.3071, 812.6489
286.7892, 811.8128
287.2714, 810.9261
287.7535, 811.7328
288.2356, 813.6940
288.7177, 813.1912
289.1998, 809.7982
289.6819, 806.2362
290.1641, 806.3300
290.6462, 809.6229
291.1283, 812.4120
291.6104, 812.8416
292.0925, 811.7930
292.5746, 811.9266
293.0568, 813.3207
293.5389, 814.8956
294.0210, 815.2091
294.5031, 814.6516
294.9852, 814.8195
295.4673, 816.7025
295.9495, 819.3410
296.4316, 820.7887
296.9137, 821.0635
297.3958, 820.9786
297.8779, 820.7719
298.3600, 820.7059
298.8422, 821.5079
299.3243, 823.7117
299.8064, 826.4850
300.2885, 828.8881
300.7706, 830.8942
301.2527, 832.3867
301.7349, 833.0396
302.2170, 833.1525
302.6991, 833.2135
303.1812, 833.3391
303.6633, 833.4227
304.1454, 832.8378
304.6276, 831.9562
305.1097, 832.1118
305.5918, 835.7025
306.0739, 840.1676
306.5560, 842.1667
307.0381, 840.6798
307.5203, 838.2890
308.0024, 836.3558
308.4845, 835.1020
308.9666, 835.0485
309.4487, 837.9199
309.9308, 841.2551
310.4130, 842.4049
310.8951, 840.6188
311.3772, 839.5633
311.8593, 842.9267
312.3414, 848.3453
312.8235, 852.1154
313.3057, 851.6732
313.7878, 849.9626
314.2699, 848.2743
314.7520, 846.6518
315.2341, 846.1731
315.7162, 847.9677
316.1984, 850.9855
316.6805, 854.0233
317.1626, 858.1691
317.6447, 860.9337
318.1268, 860.1990
318.6089, 856.2468
319.0911, 853.8871
319.5732, 856.4393
320.0553, 860.3134
320.5374, 862.7200
321.0195, 861.5690
321.5016, 860.5311
321.9838, 860.3301
322.4659, 860.8959
322.9480, 861.8546
323.4301, 862.9905
323.9122, 864.6127
324.3943, 866.9424
324.8765, 871.2517
325.3586, 874.4702
325.8407, 875.8172
326.3228, 875.8450
326.8049, 875.9717
327.2870, 876.2641
327.7692, 876.6588
328.2513, 877.0241
328.7334, 876.8632
329.2155, 877.8214
329.6976, 880.8032
330.1797, 884.6119
330.6619, 887.3500
331.1440, 888.5712
331.6261, 889.3361
332.1082, 889.7402
332.5903, 889.6412
333.0724, 890.1155
333.5546, 891.1272
334.0367, 892.7565
334.5188, 895.2848
335.0009, 899.5576
335.4830, 902.8107
335.9651, 904.1501
336.4473, 903.7828
336.9294, 904.3099
337.4115, 906.1432
337.8936, 908.0638
338.3757, 908.7707
338.8578, 907.7773
339.3399, 908.1771
339.8221, 910.6275
340.3042, 914.6432
340.7863, 918.9171
341.2684, 923.7841
341.7505, 927.6113
342.2326, 928.6515
342.7148, 926.9336
343.1969, 927.3387
343.6790, 930.7607
344.1611, 935.3066
344.6432, 937.1116
345.1253, 936.2078
345.6075, 936.1312
346.0896, 939.2611
346.5717, 944.7714
347.0538, 948.8933
347.5359, 951.4305
348.0180, 953.5426
348.5002, 956.6511
348.9823, 960.5300
349.4644, 964.2692
349.9465, 967.5424
350.4286, 970.4697
350.9107, 973.4521
351.3929, 976.4733
351.8750, 978.9884
352.3571, 980.3456
352.8392, 980.9485
353.3213, 981.5020
353.8034, 982.1943
354.2856, 982.9552
354.7677, 983.9391
355.2498, 985.0182
355.7319, 985.6680
356.2140, 984.7809
356.6961, 983.6727
357.1783, 983.9168
357.6604, 986.3203
358.1425, 988.4062
358.6246, 988.0609
359.1067, 986.2967
359.5888, 985.0998
360.0710, 985.8693
360.5531, 987.0155
361.0352, 987.5321
361.5173, 987.2342
361.9994, 987.1323
362.4815, 988.1796
362.9637, 989.4095
363.4458, 989.7870
363.9279, 988.5996
364.4100, 986.9724
364.8921, 984.7874
365.3742, 982.1549
365.8564, 980.6190
366.3385, 981.5974
366.8206, 982.9935
367.3027, 983.5477
367.7848, 982.6801
368.2669, 981.5443
368.7491, 979.8958
369.2312, 978.0164
369.7133, 976.7654
370.1954, 976.6811
370.6775, 976.6660
371.1596, 976.2443
371.6418, 975.0514
372.1239, 974.5622
372.6060, 975.0208
373.0881, 976.0314
373.5702, 977.1646
374.0523, 978.7864
374.5345, 979.6516
375.0166, 979.1544
375.4987, 977.3086
375.9808, 976.1195
376.4629, 975.5432
376.9450, 975.6238
377.4272, 976.5934
377.9093, 978.5579
378.3914, 980.2938
378.8735, 981.6163
379.3556, 982.5419
379.8377, 983.2714
380.3199, 983.8284
380.8020, 983.7792
381.2841, 982.3361
381.7662, 979.8621
382.2483, 978.4346
382.7304, 978.3495
383.2126, 978.9794
383.6947, 979.6819
384.1768, 980.4308
384.6589, 981.0414
385.1410, 981.5793
385.6231, 981.9034
386.1053, 981.3541
386.5874, 979.8956
387.0695, 979.1373
387.5516, 980.6925
388.0337, 983.8431
388.5158, 987.3995
388.9980, 991.7490
389.4801, 995.5574
389.9622, 997.8496
390.4443, 998.6522
390.9264, 998.1017
391.4085, 994.5281
391.8907, 990.6215
392.3728, 988.7285
392.8549, 989.9584
393.3370, 991.4559
393.8191, 991.6316
394.3012, 991.3233
394.7834, 991.9460
395.2655, 994.9822
395.7476, 998.0701
396.2297, 1000.370
396.7118, 1001.792
397.1939, 1002.670
397.6761, 1002.898
398.1582, 1002.679
398.6403, 1002.185
399.1224, 999.9050
399.6045, 999.1561
400.0866, 1001.172
400.5688, 1005.338
401.0509, 1007.877
401.5330, 1007.907
402.0151, 1007.452
402.4972, 1007.352
402.9793, 1007.361
403.4615, 1008.603
403.9436, 1011.860
404.4257, 1015.674
404.9078, 1017.282
405.3899, 1016.157
405.8720, 1014.823
406.3542, 1013.817
406.8363, 1013.192
407.3184, 1013.982
407.8005, 1016.421
408.2826, 1019.236
408.7647, 1021.013
409.2469, 1021.851
409.7290, 1023.343
410.2111, 1026.155
410.6932, 1029.329
411.1753, 1030.702
411.6574, 1030.448
412.1396, 1030.329
412.6217, 1031.841
413.1038, 1034.196
413.5859, 1035.928
414.0680, 1036.885
414.5501, 1037.416
415.0323, 1037.275
415.5144, 1036.996
415.9965, 1037.618
416.4786, 1040.907
416.9607, 1044.274
417.4428, 1045.226
417.9250, 1044.018
418.4071, 1043.334
418.8892, 1045.128
419.3713, 1047.769
419.8534, 1049.839
420.3355, 1050.625
420.8177, 1051.506
421.2998, 1053.676
421.7819, 1056.263
422.2640, 1057.422
422.7461, 1054.322
423.2282, 1051.910
423.7104, 1052.365
424.1925, 1056.769
424.6746, 1060.109
425.1567, 1061.593
425.6388, 1062.331
426.1209, 1063.311
426.6031, 1064.827
427.0852, 1066.059
427.5673, 1066.737
428.0494, 1066.993
428.5315, 1067.548
429.0136, 1068.304
429.4958, 1069.468
429.9779, 1071.246
430.4600, 1073.736
430.9421, 1076.152
431.4242, 1078.618
431.9063, 1080.707
432.3885, 1081.517
432.8706, 1081.032
433.3527, 1080.501
433.8348, 1080.179
434.3169, 1080.204
434.7990, 1081.417
435.2812, 1083.837
435.7633, 1085.805
436.2454, 1085.052
436.7275, 1082.825
437.2096, 1082.201
437.6917, 1084.261
438.1739, 1086.898
438.6560, 1087.745
439.1381, 1087.350
439.6202, 1087.150
440.1023, 1087.634
440.5844, 1088.790
441.0666, 1091.174
441.5487, 1094.870
442.0308, 1097.522
442.5129, 1096.767
442.9950, 1094.925
443.4771, 1094.213
443.9593, 1096.450
444.4414, 1098.563
444.9235, 1099.704
445.4056, 1100.070
445.8877, 1100.423
446.3698, 1100.062
446.8520, 1100.373
447.3341, 1102.056
447.8162, 1105.598
448.2983, 1108.910
448.7804, 1112.071
449.2625, 1114.901
449.7447, 1117.215
450.2268, 1119.233
450.7089, 1120.140
451.1910, 1119.188
451.6731, 1116.981
452.1552, 1117.121
452.6374, 1120.301
453.1195, 1123.331
453.6016, 1124.001
454.0837, 1122.391
454.5658, 1120.625
455.0479, 1118.576
455.5301, 1117.266
456.0122, 1118.443
456.4943, 1121.849
456.9764, 1125.834
457.4585, 1130.797
457.9406, 1135.410
458.4228, 1136.824
458.9049, 1135.336
459.3870, 1134.009
459.8691, 1135.174
460.3512, 1137.739
460.8333, 1140.469
461.3155, 1143.328
461.7976, 1145.789
462.2797, 1147.426
462.7618, 1148.449
463.2439, 1149.193
463.7260, 1149.491
464.2082, 1149.806
464.6903, 1150.183
465.1724, 1150.633
465.6545, 1151.689
466.1366, 1154.880
466.6187, 1157.802
467.1009, 1158.865
467.5830, 1154.945
468.0651, 1153.339
468.5472, 1155.162
469.0293, 1158.994
469.5114, 1162.050
469.9936, 1164.200
470.4757, 1165.778
470.9578, 1166.821
471.4399, 1167.329
471.9220, 1167.449
472.4041, 1166.941
472.8863, 1166.732
473.3684, 1167.707
473.8505, 1169.840
474.3326, 1172.504
474.8147, 1175.836
475.2968, 1179.205
475.7790, 1181.492
476.2611, 1182.794
476.7432, 1183.727
477.2253, 1184.089
477.7074, 1184.488
478.1895, 1186.042
478.6717, 1188.766
479.1538, 1191.781
479.6359, 1194.672
480.1180, 1197.389
480.6001, 1199.854
481.0822, 1201.947
481.5644, 1204.009
482.0465, 1206.621
482.5286, 1209.335
483.0107, 1211.165
483.4928, 1209.636
483.9749, 1209.101
484.4571, 1212.032
484.9392, 1219.197
485.4213, 1224.733
485.9034, 1226.850
486.3855, 1227.967
486.8676, 1229.680
487.3498, 1232.219
487.8319, 1234.887
488.3140, 1237.557
488.7961, 1240.327
489.2782, 1243.557
489.7603, 1247.427
490.2425, 1251.027
490.7246, 1254.034
491.2067, 1256.464
491.6888, 1258.029
492.1709, 1258.577
492.6530, 1259.208
493.1352, 1261.255
493.6173, 1264.357
494.0994, 1266.961
494.5815, 1268.794
495.0636, 1270.016
495.5457, 1270.465
496.0279, 1270.404
496.5100, 1270.583
496.9921, 1271.061
497.4742, 1272.163
497.9563, 1274.434
498.4384, 1277.849
498.9206, 1281.230
499.4027, 1284.902
499.8848, 1287.754
500.3669, 1288.801
500.8490, 1286.298
501.3311, 1284.491
501.8133, 1284.333
502.2954, 1285.446
502.7775, 1287.121
503.2596, 1291.219
503.7417, 1293.685
504.2238, 1292.935
504.7060, 1289.054
505.1881, 1286.906
505.6702, 1287.300
506.1523, 1288.111
506.6344, 1287.816
507.1165, 1286.207
507.5987, 1285.025
508.0808, 1284.485
508.5629, 1284.221
509.0450, 1283.448
509.5271, 1282.259
510.0092, 1281.875
510.4914, 1283.376
510.9735, 1285.569
511.4556, 1285.860
511.9377, 1284.431
512.4199, 1282.771
512.9020, 1281.510
513.3841, 1280.780
513.8662, 1281.080
514.3483, 1282.809
514.8304, 1283.869
515.3126, 1281.803
515.7947, 1278.656
516.2768, 1277.005
516.7589, 1278.743
517.2410, 1280.895
517.7231, 1282.680
518.2053, 1284.139
518.6874, 1285.582
519.1695, 1287.517
519.6516, 1288.967
520.1337, 1289.313
520.6158, 1288.029
521.0980, 1288.180
521.5801, 1290.467
522.0622, 1293.326
522.5443, 1295.089
523.0264, 1295.500
523.5085, 1296.482
523.9907, 1298.518
524.4728, 1301.073
524.9549, 1302.812
525.4370, 1303.793
525.9191, 1305.175
526.4012, 1308.340
526.8834, 1312.168
527.3655, 1313.879
527.8476, 1313.493
528.3297, 1312.866
528.8118, 1312.841
529.2939, 1313.644
529.7761, 1315.612
530.2582, 1318.932
530.7403, 1323.100
531.2224, 1329.146
531.7045, 1335.577
532.1866, 1339.933
532.6688, 1339.201
533.1509, 1338.675
533.6330, 1340.144
534.1151, 1343.551
534.5972, 1346.678
535.0793, 1349.467
535.5615, 1351.936
536.0436, 1354.267
536.5257, 1356.953
537.0078, 1357.521
537.4899, 1354.967
537.9720, 1351.934
538.4542, 1352.252
538.9363, 1356.185
539.4184, 1359.308
539.9005, 1360.509
540.3826, 1360.467
540.8647, 1360.213
541.3469, 1359.827
541.8290, 1359.842
542.3111, 1360.857
542.7932, 1362.346
543.2753, 1363.426
543.7574, 1364.066
544.2396, 1364.919
544.7217, 1366.960
545.2038, 1369.147
545.6859, 1370.397
546.1680, 1370.162
546.6501, 1369.477
547.1323, 1368.001
547.6144, 1366.404
548.0965, 1365.830
548.5786, 1366.727
549.0607, 1368.406
549.5428, 1371.561
550.0250, 1375.846
550.5071, 1377.254
550.9892, 1374.266
551.4713, 1371.170
551.9534, 1370.561
552.4355, 1372.799
552.9177, 1373.822
553.3998, 1373.455
553.8819, 1372.365
554.3640, 1371.007
554.8461, 1369.500
555.3282, 1368.434
555.8104, 1367.815
556.2925, 1367.964
556.7746, 1370.032
557.2567, 1373.376
557.7388, 1375.995
558.2209, 1376.252
558.7031, 1375.779
559.1852, 1375.658
559.6673, 1375.944
560.1494, 1376.605
560.6315, 1377.630
561.1136, 1379.032
561.5958, 1380.845
562.0779, 1383.274
562.5600, 1385.787
563.0421, 1388.736
563.5242, 1391.541
564.0063, 1393.359
564.4885, 1393.598
564.9706, 1394.177
565.4527, 1395.547
565.9348, 1397.412
566.4169, 1398.783
566.8990, 1399.579
567.3812, 1400.371
567.8633, 1401.542
568.3454, 1402.945
568.8275, 1403.957
569.3096, 1404.552
569.7917, 1405.399
570.2739, 1407.672
570.7560, 1410.398
571.2381, 1411.867
571.7202, 1411.243
572.2023, 1410.879
572.6844, 1412.867
573.1666, 1415.951
573.6487, 1418.272
574.1308, 1418.848
574.6129, 1419.007
575.0950, 1418.582
575.5771, 1417.859
576.0593, 1418.559
576.5414, 1422.286
577.0235, 1425.417
577.5056, 1426.164
577.9877, 1424.065
578.4698, 1424.259
578.9520, 1427.441
579.4341, 1431.158
579.9162, 1432.982
580.3983, 1433.051
580.8804, 1433.716
581.3625, 1435.398
581.8447, 1437.428
582.3268, 1438.852
582.8089, 1439.859
583.2910, 1441.047
583.7731, 1442.739
584.2552, 1444.641
584.7373, 1446.309
585.2194, 1447.922
585.7015, 1450.136
586.1837, 1453.964
586.6658, 1457.864
587.1479, 1461.296
587.6300, 1464.283
588.1121, 1466.074
588.5942, 1465.258
589.0764, 1464.170
589.5585, 1464.312
590.0406, 1466.156
590.5227, 1468.111
591.0048, 1470.143
591.4869, 1472.253
591.9691, 1474.577
592.4512, 1477.131
592.9333, 1479.177
593.4154, 1480.085
593.8975, 1480.825
594.3796, 1484.204
594.8618, 1489.682
595.3439, 1494.123
595.8260, 1494.789
596.3081, 1493.952
596.7902, 1493.907
597.2723, 1494.760
597.7545, 1496.252
598.2366, 1498.309
598.7187, 1500.877
599.2008, 1504.092
599.6829, 1508.734
600.1650, 1512.332
600.6472, 1514.193
601.1293, 1514.930
601.6114, 1515.054
602.0935, 1513.879
602.5756, 1513.571
603.0577, 1514.660
603.5399, 1516.678
604.0220, 1518.599
604.5041, 1520.471
604.9862, 1521.692
605.4683, 1521.416
605.9504, 1520.442
606.4326, 1521.361
606.9147, 1524.045
607.3968, 1526.906
607.8789, 1528.946
608.3610, 1530.391
608.8431, 1531.376
609.3253, 1531.859
609.8074, 1532.302
610.2895, 1533.019
610.7716, 1533.773
611.2537, 1534.353
611.7358, 1534.607
612.2180, 1534.820
612.7001, 1535.156
613.1822, 1535.460
613.6643, 1535.296
614.1464, 1533.924
614.6285, 1533.890
615.1107, 1536.300
615.5928, 1540.424
616.0749, 1543.228
616.5570, 1544.680
617.0391, 1545.290
617.5212, 1544.722
618.0034, 1543.584
618.4855, 1543.532
618.9676, 1544.575
619.4497, 1546.107
619.9318, 1548.337
620.4139, 1550.445
620.8961, 1551.055
621.3782, 1549.054
621.8603, 1548.466
622.3424, 1552.754
622.8245, 1558.707
623.3066, 1562.641
623.7888, 1561.943
624.2709, 1561.679
624.7530, 1562.135
625.2351, 1563.357
625.7172, 1565.668
626.1993, 1569.616
626.6815, 1572.944
627.1636, 1574.864
627.6457, 1575.623
628.1278, 1576.048
628.6099, 1576.133
629.0920, 1576.473
629.5742, 1577.596
630.0563, 1579.196
630.5384, 1580.813
631.0205, 1582.427
631.5026, 1583.913
631.9847, 1585.379
632.4669, 1586.598
632.9490, 1587.321
633.4311, 1587.283
633.9132, 1587.311
634.3953, 1587.204
634.8774, 1587.483
635.3596, 1588.863
635.8417, 1592.657
636.3238, 1595.247
636.8059, 1595.727
637.2880, 1595.027
637.7701, 1595.461
638.2523, 1597.156
638.7344, 1599.026
639.2165, 1600.827
639.6986, 1602.446
640.1807, 1603.358
640.6628, 1603.643
641.1450, 1604.058
641.6271, 1605.728
642.1092, 1607.448
642.5913, 1607.501
643.0734, 1605.767
643.5555, 1604.404
644.0377, 1604.139
644.5198, 1604.885
645.0019, 1606.799
645.4840, 1611.156
645.9661, 1613.944
646.4482, 1614.257
646.9304, 1613.489
647.4125, 1613.026
647.8946, 1612.884
648.3767, 1612.832
648.8588, 1612.479
649.3409, 1612.706
649.8231, 1616.134
650.3052, 1622.372
650.7873, 1626.975
651.2694, 1627.457
651.7515, 1626.217
652.2336, 1626.619
652.7158, 1628.349
653.1979, 1630.292
653.6800, 1632.425
654.1621, 1634.084
654.6442, 1634.327
655.1263, 1633.131
655.6085, 1633.204
656.0906, 1636.644
656.5727, 1640.237
657.0548, 1642.184
657.5369, 1641.808
658.0190, 1642.660
658.5012, 1645.039
658.9833, 1648.086
659.4654, 1651.565
659.9475, 1655.385
660.4296, 1656.758
660.9117, 1654.741
661.3939, 1652.272
661.8760, 1653.400
662.3581, 1656.930
662.8402, 1660.129
663.3223, 1662.302
663.8044, 1663.544
664.2866, 1663.011
664.7687, 1661.656
665.2508, 1661.496
665.7329, 1664.513
666.2150, 1667.374
666.6971, 1669.127
667.1793, 1669.920
667.6614, 1670.220
668.1435, 1669.409
668.6256, 1669.449
669.1077, 1671.562
669.5898, 1675.470
670.0720, 1678.162
670.5541, 1679.607
671.0362, 1680.123
671.5183, 1678.287
672.0004, 1676.046
672.4825, 1678.321
672.9647, 1685.801
673.4468, 1693.194
673.9289, 1696.614
674.4110, 1698.127
674.8931, 1699.756
675.3752, 1702.049
675.8574, 1704.232
676.3395, 1706.419
676.8216, 1708.248
677.3037, 1709.235
677.7858, 1708.891
678.2679, 1708.692
678.7501, 1708.265
679.2322, 1708.676
679.7143, 1712.838
680.1964, 1720.650
680.6785, 1727.825
681.1606, 1732.748
681.6428, 1736.304
682.1249, 1739.270
682.6070, 1741.941
683.0891, 1745.279
683.5712, 1750.603
684.0533, 1756.112
684.5355, 1760.666
685.0176, 1764.261
685.4997, 1767.806
685.9818, 1771.235
686.4639, 1774.853
686.9460, 1779.006
687.4282, 1783.847
687.9103, 1787.781
688.3924, 1791.106
688.8745, 1792.952
689.3566, 1792.344
689.8387, 1789.438
690.3209, 1786.225
690.8030, 1782.823
691.2851, 1779.117
691.7672, 1774.915
692.2493, 1770.452
692.7314, 1766.088
693.2136, 1761.844
693.6957, 1757.980
694.1778, 1754.529
694.6599, 1751.660
695.1420, 1749.569
695.6241, 1748.730
696.1063, 1748.167
696.5884, 1747.286
697.0705, 1746.848
697.5526, 1748.714
698.0347, 1753.730
698.5168, 1757.613
698.9990, 1759.383
699.4811, 1759.253
699.9632, 1756.732
700.4453, 1752.299
700.9274, 1749.068
701.4095, 1749.769
701.8917, 1751.672
702.3738, 1751.742
702.8559, 1750.351
703.3380, 1749.229
703.8201, 1749.334
704.3022, 1749.741
704.7844, 1749.752
705.2665, 1749.292
705.7486, 1750.227
706.2307, 1753.482
706.7128, 1756.846
707.1949, 1759.074
707.6771, 1760.121
708.1592, 1761.460
708.6413, 1763.118
709.1234, 1764.808
709.6055, 1765.965
710.0876, 1766.978
710.5698, 1768.783
711.0519, 1771.479
711.5340, 1774.805
712.0161, 1780.009
712.4982, 1785.011
712.9803, 1787.479
713.4625, 1785.137
713.9446, 1783.567
714.4267, 1784.409
714.9088, 1786.164
715.3909, 1787.417
715.8730, 1788.115
716.3552, 1788.324
716.8373, 1787.725
717.3194, 1787.225
717.8015, 1789.021
718.2836, 1792.727
718.7657, 1794.982
719.2479, 1794.204
719.7300, 1792.559
720.2121, 1792.476
720.6942, 1793.496
721.1763, 1794.563
721.6584, 1794.623
722.1406, 1795.269
722.6227, 1797.865
723.1048, 1801.712
723.5869, 1804.001
724.0690, 1803.286
724.5511, 1803.124
725.0333, 1804.781
725.5154, 1807.814
725.9975, 1809.385
726.4796, 1809.314
726.9617, 1810.208
727.4438, 1814.547
727.9260, 1820.565
728.4081, 1824.352
728.8902, 1826.107
729.3723, 1827.533
729.8544, 1829.964
730.3365, 1832.245
730.8187, 1833.209
731.3008, 1832.618
731.7829, 1832.801
732.2650, 1834.942
732.7471, 1837.202
733.2292, 1838.694
733.7114, 1839.244
734.1935, 1839.837
734.6756, 1840.377
735.1577, 1841.271
735.6398, 1843.047
736.1219, 1845.517
736.6041, 1848.187
737.0862, 1851.109
737.5683, 1853.363
738.0504, 1853.090
738.5325, 1852.232
739.0146, 1853.342
739.4968, 1858.289
739.9789, 1861.631
740.4610, 1860.140
740.9431, 1857.276
741.4252, 1856.523
741.9073, 1858.643
742.3895, 1861.083
742.8716, 1864.040
743.3537, 1866.651
743.8358, 1866.972
744.3179, 1865.416
744.8000, 1865.661
745.2822, 1868.962
745.7643, 1873.221
746.2464, 1876.767
746.7285, 1879.451
747.2106, 1880.957
747.6927, 1879.835
748.1749, 1879.122
748.6570, 1880.063
749.1391, 1882.105
749.6212, 1884.087
750.1033, 1886.219
750.5854, 1887.817
751.0676, 1888.611
751.5497, 1888.892
752.0318, 1889.231
752.5139, 1889.635
752.9960, 1890.410
753.4781, 1891.741
753.9603, 1893.427
754.4424, 1895.074
754.9245, 1896.834
755.4066, 1899.095
755.8887, 1903.472
756.3708, 1907.033
756.8530, 1907.537
757.3351, 1905.729
757.8172, 1905.804
758.2993, 1909.163
758.7814, 1912.462
759.2635, 1914.839
759.7457, 1916.342
760.2278, 1917.144
760.7099, 1917.186
761.1920, 1917.432
761.6741, 1918.570
762.1563, 1920.171
762.6384, 1921.413
763.1205, 1922.388
763.6026, 1923.663
764.0847, 1925.953
764.5668, 1928.295
765.0490, 1930.072
765.5311, 1931.287
766.0132, 1932.524
766.4953, 1934.048
766.9774, 1935.314
767.4595, 1935.854
767.9417, 1935.754
768.4238, 1936.950
768.9059, 1939.526
769.3880, 1942.236
769.8701, 1943.924
770.3522, 1945.224
770.8344, 1947.652
771.3165, 1951.149
771.7986, 1953.805
772.2807, 1953.684
772.7628, 1952.903
773.2449, 1952.941
773.7271, 1954.123
774.2092, 1954.715
774.6913, 1953.694
775.1734, 1953.397
775.6555, 1955.983
776.1376, 1961.753
776.6198, 1963.582
777.1019, 1961.137
777.5840, 1958.523
778.0661, 1959.909
778.5482, 1963.340
779.0303, 1965.295
779.5125, 1965.364
779.9946, 1965.485
780.4767, 1966.003
780.9588, 1967.524
781.4409, 1970.810
781.9230, 1976.939
782.4052, 1981.634
782.8873, 1984.816
783.3694, 1986.558
783.8515, 1985.959
784.3336, 1982.975
784.8157, 1983.609
785.2979, 1988.482
785.7800, 1993.386
786.2621, 1993.627
786.7442, 1991.482
787.2263, 1990.282
787.7084, 1990.500
788.1906, 1992.044
788.6727, 1995.958
789.1548, 2000.507
789.6369, 2004.389
790.1190, 2007.623
790.6011, 2009.750
791.0833, 2010.081
791.5654, 2010.435
792.0475, 2013.218
792.5296, 2018.080
793.0117, 2020.117
793.4938, 2018.700
793.9760, 2016.403
794.4581, 2014.591
794.9402, 2013.890
795.4223, 2015.616
795.9044, 2020.777
796.3865, 2025.110
796.8687, 2026.849
797.3508, 2027.298
797.8329, 2027.504
798.3150, 2027.135
798.7971, 2027.479
799.2792, 2028.501
799.7614, 2030.416
800.2435, 2034.183
800.7256, 2039.262
801.2077, 2043.052
801.6898, 2045.260
802.1719, 2046.099
802.6541, 2043.864
803.1362, 2041.276
803.6183, 2041.430
804.1004, 2045.508
804.5825, 2050.487
805.0646, 2056.936
805.5468, 2063.160
806.0289, 2067.853
806.5110, 2070.693
806.9931, 2073.115
807.4752, 2074.968
807.9573, 2076.959
808.4395, 2080.486
808.9216, 2084.672
809.4037, 2086.808
809.8858, 2086.238
810.3679, 2086.058
810.8500, 2089.397
811.3322, 2093.578
811.8143, 2096.152
812.2964, 2096.169
812.7785, 2095.937
813.2606, 2095.227
813.7427, 2094.742
814.2249, 2095.344
814.7070, 2097.136
815.1891, 2097.687
815.6712, 2096.801
816.1533, 2095.454
816.6354, 2093.871
817.1176, 2092.752
817.5997, 2093.536
818.0818, 2096.727
818.5639, 2099.597
819.0460, 2100.176
819.5281, 2100.413
820.0103, 2102.012
820.4924, 2105.674
820.9745, 2107.752
821.4566, 2107.546
821.9387, 2107.207
822.4208, 2109.108
822.9030, 2112.608
823.3851, 2113.810
823.8672, 2112.474
824.3493, 2110.684
824.8314, 2109.718
825.3135, 2109.408
825.7957, 2109.845
826.2778, 2111.198
826.7599, 2112.067
827.2420, 2111.435
827.7241, 2110.968
828.2062, 2111.631
828.6884, 2113.571
829.1705, 2115.056
829.6526, 2115.980
830.1347, 2117.217
830.6168, 2120.453
831.0989, 2124.160
831.5811, 2124.564
832.0632, 2121.720
832.5453, 2119.622
833.0274, 2120.642
833.5095, 2123.143
833.9916, 2126.316
834.4738, 2130.134
834.9559, 2133.875
835.4380, 2137.505
835.9201, 2141.050
836.4022, 2144.851
836.8843, 2148.615
837.3665, 2149.938
837.8486, 2148.960
838.3307, 2148.224
838.8128, 2149.302
839.2949, 2151.540
839.7770, 2154.666
840.2592, 2158.534
840.7413, 2162.129
841.2234, 2165.002
841.7055, 2167.671
842.1876, 2170.033
842.6697, 2172.293
843.1519, 2176.124
843.6340, 2181.811
844.1161, 2186.841
844.5982, 2189.356
845.0803, 2190.980
845.5624, 2195.390
846.0446, 2201.816
846.5267, 2207.544
847.0088, 2210.212
847.4909, 2212.875
847.9730, 2217.552
848.4551, 2223.545
848.9373, 2228.015
849.4194, 2230.035
849.9015, 2232.569
850.3836, 2236.316
850.8657, 2241.000
851.3478, 2246.124
851.8300, 2251.634
852.3121, 2257.157
852.7942, 2262.510
853.2763, 2267.819
853.7584, 2273.738
854.2405, 2279.614
854.7227, 2284.315
855.2048, 2287.043
855.6869, 2289.028
856.1690, 2290.160
856.6511, 2290.863
857.1332, 2292.054
857.6154, 2293.831
858.0975, 2294.027
858.5796, 2291.701
859.0617, 2289.631
859.5438, 2292.340
860.0259, 2297.511
860.5081, 2301.180
860.9902, 2302.223
861.4723, 2301.879
861.9544, 2299.144
862.4365, 2296.070
862.9186, 2294.678
863.4008, 2295.305
863.8829, 2296.558
864.3650, 2298.406
864.8471, 2300.817
865.3292, 2303.863
865.8113, 2307.462
866.2935, 2311.432
866.7756, 2315.794
867.2577, 2320.480
867.7398, 2324.595
868.2219, 2329.694
868.7040, 2337.107
869.1862, 2347.440
869.6683, 2358.737
870.1504, 2370.927
870.6325, 2384.120
871.1146, 2398.420
871.5967, 2413.803
872.0789, 2429.179
872.5610, 2444.771
873.0431, 2461.422
873.5252, 2479.642
874.0073, 2499.298
874.4894, 2520.160
874.9716, 2542.402
875.4537, 2566.207
875.9358, 2591.290
876.4179, 2618.284
876.9000, 2648.338
877.3821, 2680.401
877.8643, 2710.771
878.3464, 2739.401
878.8285, 2761.928
879.3106, 2774.048
879.7927, 2780.657
880.2748, 2787.576
880.7570, 2794.108
881.2391, 2798.518
881.7212, 2804.347
882.2033, 2803.043
882.6854, 2795.439
883.1675, 2777.970
883.6497, 2740.381
884.1318, 2679.206
884.6139, 2618.271
885.0960, 2561.078
885.5781, 2508.704
886.0602, 2460.968
886.5424, 2419.338
887.0245, 2387.991
887.5066, 2370.125
887.9887, 2357.484
888.4708, 2349.674
888.9529, 2343.562
889.4351, 2335.601
889.9172, 2323.859
890.3993, 2315.906
890.8814, 2312.401
891.3635, 2311.097
891.8456, 2311.147
892.3278, 2311.530
892.8099, 2308.326
893.2920, 2301.187
893.7741, 2295.905
894.2562, 2298.709
894.7383, 2302.886
895.2205, 2303.349
895.7026, 2299.258
896.1847, 2297.003
896.6668, 2296.860
897.1489, 2298.110
897.6310, 2301.083
898.1132, 2305.054
898.5953, 2306.465
899.0774, 2305.767
899.5595, 2305.986
900.0416, 2310.374
900.5237, 2314.839
901.0059, 2315.776
901.4880, 2314.265
901.9701, 2314.847
902.4522, 2319.651
902.9343, 2323.313
903.4164, 2324.630
903.8986, 2324.345
904.3807, 2323.501
904.8628, 2322.341
905.3449, 2322.507
905.8270, 2324.806
906.3091, 2327.854
906.7913, 2331.171
907.2734, 2334.236
907.7555, 2336.366
908.2376, 2335.707
908.7197, 2337.047
909.2018, 2341.641
909.6840, 2346.771
910.1661, 2350.169
910.6482, 2351.831
911.1303, 2351.029
911.6124, 2347.509
912.0945, 2345.295
912.5767, 2350.155
913.0588, 2356.472
913.5409, 2358.033
914.0230, 2353.700
914.5051, 2351.313
914.9872, 2352.604
915.4694, 2355.235
915.9515, 2358.616
916.4336, 2362.535
916.9157, 2365.693
917.3978, 2368.039
917.8799, 2369.285
918.3621, 2367.326
918.8442, 2365.716
919.3263, 2369.163
919.8084, 2375.909
920.2905, 2380.957
920.7726, 2381.839
921.2548, 2382.317
921.7369, 2383.252
922.2190, 2383.956
922.7011, 2382.258
923.1832, 2378.398
923.6653, 2377.220
924.1475, 2380.388
924.6296, 2384.532
925.1117, 2386.505
925.5938, 2387.241
926.0759, 2387.900
926.5580, 2388.658
927.0402, 2389.512
927.5223, 2389.850
928.0044, 2391.024
928.4865, 2394.732
928.9686, 2400.915
929.4507, 2404.354
929.9329, 2404.922
930.4150, 2405.234
930.8971, 2407.319
931.3792, 2410.105
931.8613, 2412.957
932.3434, 2415.660
932.8256, 2417.238
933.3077, 2416.313
933.7898, 2415.580
934.2719, 2415.418
934.7540, 2416.100
935.2361, 2419.206
935.7183, 2424.563
936.2004, 2429.247
936.6825, 2432.298
937.1646, 2434.163
937.6467, 2434.884
938.1288, 2434.868
938.6110, 2434.748
939.0931, 2433.055
939.5752, 2433.974
940.0573, 2439.174
940.5394, 2445.101
941.0215, 2447.703
941.5037, 2447.256
941.9858, 2445.828
942.4679, 2443.508
942.9500, 2442.041
943.4321, 2442.891
943.9142, 2445.273
944.3964, 2448.926
944.8785, 2453.914
945.3606, 2458.207
945.8427, 2461.804
946.3248, 2464.332
946.8069, 2465.127
947.2891, 2464.810
947.7712, 2466.030
948.2533, 2468.623
948.7354, 2471.700
949.2175, 2475.594
949.6996, 2478.999
950.1818, 2480.280
950.6639, 2480.529
951.1460, 2482.249
951.6281, 2487.544
952.1102, 2490.321
952.5923, 2489.138
953.0745, 2486.903
953.5566, 2487.781
954.0387, 2490.995
954.5208, 2493.579
955.0029, 2494.955
955.4850, 2496.646
955.9672, 2501.128
956.4493, 2505.266
956.9314, 2505.957
957.4135, 2502.474
957.8956, 2501.302
958.3777, 2503.035
958.8599, 2505.344
959.3420, 2506.827
959.8241, 2508.037
960.3062, 2510.471
960.7883, 2513.940
961.2704, 2517.560
961.7526, 2521.821
962.2347, 2525.178
962.7168, 2525.950
963.1989, 2525.640
963.6810, 2527.396
964.1631, 2531.754
964.6453, 2535.653
965.1274, 2538.649
965.6095, 2540.918
966.0916, 2541.550
966.5737, 2541.976
967.0558, 2545.600
967.5380, 2554.016
968.0201, 2559.570
968.5022, 2557.266
968.9843, 2553.140
969.4664, 2550.268
969.9485, 2548.707
970.4307, 2548.813
970.9128, 2550.609
971.3949, 2553.941
971.8770, 2560.872
972.3591, 2567.730
972.8412, 2568.631
973.3234, 2565.736
973.8055, 2565.231
974.2876, 2571.954
974.7697, 2577.274
975.2518, 2579.100
975.7339, 2579.611
976.2161, 2582.465
976.6982, 2587.456
977.1803, 2592.018
977.6624, 2595.629
978.1445, 2599.038
978.6266, 2603.964
979.1088, 2608.358
979.5909, 2609.744
980.0730, 2606.973
980.5551, 2605.741
981.0372, 2606.053
981.5193, 2608.349
982.0015, 2613.991
982.4836, 2621.430
982.9657, 2624.680
983.4478, 2624.540
983.9299, 2624.750
984.4120, 2627.410
984.8942, 2630.716
985.3763, 2634.416
985.8584, 2637.917
986.3405, 2640.089
986.8226, 2640.440
987.3047, 2641.032
987.7869, 2642.017
988.2690, 2643.565
988.7511, 2646.987
989.2332, 2650.753
989.7153, 2651.317
990.1974, 2647.940
990.6796, 2646.272
991.1617, 2650.168
991.6438, 2654.902
992.1259, 2658.170
992.6080, 2660.172
993.0901, 2662.838
993.5723, 2666.176
994.0544, 2669.630
994.5365, 2672.624
995.0186, 2675.950
995.5007, 2681.302
995.9828, 2687.423
996.4650, 2692.155
996.9471, 2694.287
997.4292, 2695.327
997.9113, 2694.036
998.3934, 2693.537
998.8755, 2698.177
999.3577, 2706.960
999.8398, 2714.154
1000.322, 2719.435
1000.804, 2722.889
1001.286, 2722.364
1001.768, 2722.074
1002.250, 2725.726
1002.732, 2733.045
1003.215, 2738.034
1003.697, 2740.084
1004.179, 2742.046
1004.661, 2744.542
1005.143, 2747.977
1005.625, 2753.774
1006.107, 2760.972
1006.589, 2767.484
1007.072, 2771.719
1007.554, 2777.078
1008.036, 2785.564
1008.518, 2794.935
1009.000, 2803.921
1009.482, 2812.534
1009.964, 2820.174
1010.446, 2826.932
1010.928, 2832.048
1011.411, 2833.306
1011.893, 2834.056
1012.375, 2838.254
1012.857, 2845.034
1013.339, 2849.933
1013.821, 2851.636
1014.303, 2852.599
1014.785, 2853.313
1015.268, 2852.405
1015.750, 2851.665
1016.232, 2848.671
1016.714, 2845.356
1017.196, 2841.691
1017.678, 2838.973
1018.160, 2838.475
1018.642, 2838.893
1019.124, 2839.381
1019.607, 2839.940
1020.089, 2839.828
1020.571, 2838.762
1021.053, 2839.276
1021.535, 2842.996
1022.017, 2848.785
1022.499, 2855.964
1022.981, 2863.862
1023.464, 2870.977
1023.946, 2873.829
1024.428, 2880.234
1024.910, 2892.354
1025.392, 2906.416
1025.874, 2917.839
1026.356, 2926.980
1026.838, 2938.906
1027.320, 2953.985
1027.803, 2966.475
1028.285, 2972.160
1028.767, 2973.872
1029.249, 2972.300
1029.731, 2968.054
1030.213, 2964.663
1030.695, 2961.555
1031.177, 2962.010
1031.660, 2967.858
1032.142, 2975.951
1032.624, 2979.594
1033.106, 2982.289
1033.588, 2990.906
1034.070, 3009.277
1034.552, 3027.704
1035.034, 3043.459
1035.516, 3059.160
1035.999, 3077.531
1036.481, 3097.971
1036.963, 3114.069
1037.445, 3125.601
1037.927, 3133.163
1038.409, 3138.506
1038.891, 3138.418
1039.373, 3129.619
1039.855, 3113.589
1040.338, 3093.847
1040.820, 3068.431
1041.302, 3045.226
1041.784, 3024.937
1042.266, 3006.022
1042.748, 2985.772
1043.230, 2965.692
1043.712, 2947.843
1044.195, 2932.290
1044.677, 2920.896
1045.159, 2917.907
1045.641, 2914.993
1046.123, 2908.113
1046.605, 2899.622
1047.087, 2899.260
1047.569, 2905.928
1048.052, 2908.802
1048.534, 2902.625
1049.016, 2896.224
1049.498, 2898.403
1049.980, 2902.887
1050.462, 2901.828
1050.944, 2892.543
1051.426, 2887.463
1051.908, 2887.193
1052.391, 2888.513
1052.873, 2890.505
1053.355, 2892.047
1053.837, 2889.866
1054.319, 2885.401
1054.801, 2883.210
1055.283, 2887.154
1055.765, 2890.729
1056.247, 2892.802
1056.730, 2894.061
1057.212, 2895.136
1057.694, 2896.126
1058.176, 2898.427
1058.658, 2902.228
1059.140, 2904.225
1059.622, 2898.796
1060.104, 2893.537
1060.587, 2894.248
1061.069, 2900.128
1061.551, 2905.649
1062.033, 2911.053
1062.515, 2914.480
1062.997, 2914.738
1063.479, 2914.325
1063.961, 2916.932
1064.443, 2920.880
1064.926, 2923.559
1065.408, 2923.729
1065.890, 2924.955
1066.372, 2928.548
1066.854, 2931.472
1067.336, 2931.040
1067.818, 2928.715
1068.300, 2930.941
1068.782, 2936.694
1069.265, 2941.668
1069.747, 2942.905
1070.229, 2943.833
1070.711, 2945.776
1071.193, 2948.177
1071.675, 2950.469
1072.157, 2952.654
1072.639, 2954.641
1073.122, 2956.440
1073.604, 2957.532
1074.086, 2956.145
1074.568, 2954.894
1075.050, 2956.129
1075.532, 2959.775
1076.014, 2964.953
1076.496, 2973.355
1076.979, 2977.989
1077.461, 2976.283
1077.943, 2972.908
1078.425, 2975.277
1078.907, 2980.862
1079.389, 2984.702
1079.871, 2985.703
1080.353, 2987.300
1080.835, 2991.888
1081.318, 2995.868
1081.800, 2997.501
1082.282, 2997.420
1082.764, 2998.236
1083.246, 2999.725
1083.728, 3000.328
1084.210, 2998.204
1084.692, 2997.588
1085.174, 3003.828
1085.656, 3011.174
1086.139, 3013.062
1086.621, 3007.786
1087.103, 3008.183
1087.585, 3014.748
1088.067, 3021.595
1088.549, 3024.992
1089.031, 3026.471
1089.513, 3026.413
1089.996, 3025.900
1090.478, 3027.808
1090.960, 3034.695
1091.442, 3039.681
1091.924, 3041.783
1092.406, 3042.869
1092.888, 3044.634
1093.370, 3046.988
1093.853, 3049.848
1094.335, 3053.177
1094.817, 3056.903
1095.299, 3061.417
1095.781, 3065.800
1096.263, 3070.190
1096.745, 3073.958
1097.227, 3074.895
1097.709, 3073.723
1098.192, 3074.981
1098.674, 3079.924
1099.156, 3085.296
1099.638, 3089.523
1100.120, 3092.831
1100.602, 3095.161
1101.084, 3096.674
1101.566, 3098.757
1102.048, 3101.478
1102.531, 3103.326
1103.013, 3103.254
1103.495, 3102.862
1103.977, 3102.409
1104.459, 3103.365
1104.941, 3108.358
1105.423, 3120.421
1105.905, 3127.987
1106.388, 3130.103
1106.870, 3130.844
1107.352, 3132.371
1107.834, 3134.609
1108.316, 3137.472
1108.798, 3140.976
1109.280, 3145.170
1109.762, 3151.405
1110.245, 3156.403
1110.727, 3159.640
1111.209, 3161.920
1111.691, 3163.841
1112.173, 3165.517
1112.655, 3167.366
1113.137, 3169.427
1113.619, 3171.703
1114.101, 3175.082
1114.583, 3177.663
1115.066, 3178.362
1115.548, 3177.985
1116.030, 3177.862
1116.512, 3177.976
1116.994, 3177.939
1117.476, 3177.684
1117.958, 3177.381
1118.440, 3177.512
1118.923, 3177.332
1119.405, 3175.766
1119.887, 3173.201
1120.369, 3172.080
1120.851, 3172.449
1121.333, 3174.263
1121.815, 3178.280
1122.297, 3181.399
1122.780, 3178.996
1123.262, 3174.411
1123.744, 3171.838
1124.226, 3172.536
1124.708, 3171.111
1125.190, 3165.603
1125.672, 3164.351
1126.154, 3173.683
1126.636, 3186.435
1127.119, 3188.858
1127.601, 3185.257
1128.083, 3183.963
1128.565, 3188.860
1129.047, 3192.792
1129.529, 3195.242
1130.011, 3196.273
1130.493, 3194.795
1130.975, 3192.179
1131.458, 3193.362
1131.940, 3197.676
1132.422, 3202.592
1132.904, 3208.707
1133.386, 3212.867
1133.868, 3212.721
1134.350, 3212.135
1134.832, 3215.833
1135.315, 3223.069
1135.797, 3227.132
1136.279, 3227.946
1136.761, 3228.041
1137.243, 3227.930
1137.725, 3228.656
1138.207, 3231.672
1138.689, 3235.501
1139.172, 3237.371
1139.654, 3237.228
1140.136, 3238.537
1140.618, 3241.782
1141.100, 3244.829
1141.582, 3245.161
1142.064, 3245.344
1142.546, 3247.125
1143.028, 3250.523
1143.510, 3255.421
1143.993, 3262.162
1144.475, 3267.813
1144.957, 3271.754
1145.439, 3273.938
1145.921, 3272.553
1146.403, 3270.464
1146.885, 3270.840
1147.367, 3274.200
1147.850, 3277.217
1148.332, 3279.621
1148.814, 3282.710
1149.296, 3287.296
1149.778, 3291.909
1150.260, 3293.602
1150.742, 3294.342
1151.224, 3297.384
1151.707, 3304.090
1152.189, 3309.490
1152.671, 3313.275
1153.153, 3315.533
1153.635, 3315.491
1154.117, 3314.794
1154.599, 3317.404
1155.081, 3321.909
1155.563, 3325.122
1156.046, 3325.403
1156.528, 3326.286
1157.010, 3329.242
1157.492, 3331.186
1157.974, 3329.199
1158.456, 3325.018
1158.938, 3324.562
1159.420, 3326.952
1159.902, 3329.346
1160.385, 3330.890
1160.867, 3331.750
1161.349, 3330.531
1161.831, 3330.374
1162.313, 3334.823
1162.795, 3342.874
1163.277, 3349.420
1163.759, 3354.318
1164.242, 3357.295
1164.724, 3356.519
1165.206, 3355.756
1165.688, 3356.219
1166.170, 3357.398
1166.652, 3358.789
1167.134, 3360.429
1167.616, 3363.043
1168.099, 3366.528
1168.581, 3368.380
1169.063, 3364.084
1169.545, 3361.102
1170.027, 3364.257
1170.509, 3370.654
1170.991, 3376.938
1171.473, 3383.030
1171.955, 3384.182
1172.438, 3379.777
1172.920, 3376.668
1173.402, 3381.115
1173.884, 3387.284
1174.366, 3391.843
1174.848, 3395.089
1175.330, 3398.156
1175.812, 3401.073
1176.294, 3400.249
1176.777, 3394.465
1177.259, 3390.699
1177.741, 3397.280
1178.223, 3405.989
1178.705, 3410.560
1179.187, 3411.633
1179.669, 3413.003
1180.151, 3414.721
1180.634, 3416.445
1181.116, 3418.099
1181.598, 3419.835
1182.080, 3422.783
1182.562, 3425.141
1183.044, 3424.019
1183.526, 3426.582
1184.008, 3428.789
1184.490, 3428.078
1184.973, 3433.003
1185.455, 3432.536
1185.937, 3431.253
1186.419, 3434.586
1186.901, 3439.149
1187.383, 3441.121
1187.865, 3440.098
1188.347, 3438.909
1188.829, 3437.323
1189.312, 3437.741
1189.794, 3441.608
1190.276, 3446.776
1190.758, 3451.709
1191.240, 3456.009
1191.722, 3459.068
1192.204, 3460.582
1192.686, 3462.010
1193.169, 3463.317
1193.651, 3464.438
1194.133, 3465.177
1194.615, 3465.930
1195.097, 3466.161
1195.579, 3467.188
1196.061, 3471.528
1196.543, 3480.963
1197.026, 3487.073
1197.508, 3489.653
1197.990, 3490.284
1198.472, 3488.901
1198.954, 3487.198
1199.436, 3486.793
1199.918, 3487.706
1200.400, 3490.323
1200.882, 3495.965
1201.365, 3498.255
1201.847, 3496.200
1202.329, 3496.156
1202.811, 3504.615
1203.293, 3515.142
1203.775, 3520.896
1204.257, 3522.795
1204.739, 3522.308
1205.221, 3517.611
1205.704, 3516.310
1206.186, 3518.922
1206.668, 3522.151
1207.150, 3524.294
1207.632, 3525.218
1208.114, 3523.159
1208.596, 3520.105
1209.078, 3520.911
1209.561, 3527.826
1210.043, 3533.605
1210.525, 3538.294
1211.007, 3540.995
1211.489, 3538.347
1211.971, 3535.627
1212.453, 3540.879
1212.935, 3550.591
1213.417, 3554.635
1213.900, 3549.447
1214.382, 3548.484
1214.864, 3552.867
1215.346, 3558.632
1215.828, 3563.516
1216.310, 3567.229
1216.792, 3567.950
1217.274, 3567.368
1217.756, 3570.923
1218.239, 3580.967
1218.721, 3586.265
1219.203, 3585.597
1219.685, 3583.687
1220.167, 3584.411
1220.649, 3586.127
1221.131, 3587.522
1221.613, 3588.565
1222.096, 3589.125
1222.578, 3588.579
1223.060, 3590.767
1223.542, 3596.212
1224.024, 3602.981
1224.506, 3611.679
1224.988, 3618.909
1225.470, 3620.112
1225.953, 3617.352
1226.435, 3618.299
1226.917, 3623.771
1227.399, 3627.496
1227.881, 3628.698
1228.363, 3628.893
1228.845, 3628.109
1229.327, 3628.001
1229.809, 3629.975
1230.292, 3633.800
1230.774, 3639.129
1231.256, 3646.460
1231.738, 3649.547
1232.220, 3647.515
1232.702, 3644.268
1233.184, 3640.430
1233.666, 3639.031
1234.148, 3645.272
1234.631, 3643.115
1235.113, 3656.115
1235.595, 3648.791
1236.077, 3648.469
1236.559, 3657.368
1237.041, 3666.493
1237.523, 3668.789
1238.005, 3669.702
1238.488, 3672.918
1238.970, 3676.891
1239.452, 3677.204
1239.934, 3674.389
1240.416, 3677.648
1240.898, 3688.179
1241.380, 3696.938
1241.862, 3695.996
1242.344, 3693.832
1242.827, 3694.440
1243.309, 3696.685
1243.791, 3698.709
1244.273, 3700.447
1244.755, 3700.757
1245.237, 3699.541
1245.719, 3700.083
1246.201, 3706.849
1246.683, 3712.434
1247.166, 3713.524
1247.648, 3712.639
1248.130, 3714.488
1248.612, 3718.144
1249.094, 3720.211
1249.576, 3720.326
1250.058, 3720.956
1250.540, 3724.172
1251.023, 3726.623
1251.505, 3726.847
1251.987, 3726.853
1252.469, 3730.693
1252.951, 3736.576
1253.433, 3740.333
1253.915, 3741.550
1254.397, 3741.729
1254.880, 3739.552
1255.362, 3739.482
1255.844, 3742.934
1256.326, 3747.632
1256.808, 3750.784
1257.290, 3752.872
1257.772, 3754.259
1258.254, 3755.164
1258.736, 3757.457
1259.219, 3763.087
1259.701, 3765.134
1260.183, 3761.167
1260.665, 3757.599
1261.147, 3764.072
1261.629, 3774.000
1262.111, 3779.167
1262.593, 3779.538
1263.075, 3780.710
1263.558, 3783.118
1264.040, 3785.383
1264.522, 3787.153
1265.004, 3789.031
1265.486, 3791.806
1265.968, 3794.788
1266.450, 3796.442
1266.932, 3797.759
1267.415, 3803.882
1267.897, 3815.854
1268.379, 3819.887
1268.861, 3813.414
1269.343, 3807.584
1269.825, 3812.890
1270.307, 3820.509
1270.789, 3825.166
1271.271, 3827.352
1271.754, 3827.057
1272.236, 3824.571
1272.718, 3825.184
1273.200, 3829.438
1273.682, 3833.816
1274.164, 3836.713
1274.646, 3838.308
1275.128, 3837.671
1275.610, 3836.838
1276.093, 3839.628
1276.575, 3845.084
1277.057, 3849.699
1277.539, 3853.093
1278.021, 3855.517
1278.503, 3856.222
1278.985, 3856.944
1279.467, 3857.661
1279.950, 3859.298
1280.432, 3864.643
1280.914, 3871.259
1281.396, 3873.297
1281.878, 3871.139
1282.360, 3869.194
1282.842, 3868.389
1283.324, 3868.220
1283.807, 3868.365
1284.289, 3870.083
1284.771, 3875.870
1285.253, 3883.196
1285.735, 3889.231
1286.217, 3893.721
1286.699, 3896.300
1287.181, 3896.647
1287.663, 3896.255
1288.146, 3895.009
1288.628, 3895.159
1289.110, 3900.780
1289.592, 3906.534
1290.074, 3907.264
1290.556, 3904.885
1291.038, 3903.145
1291.520, 3901.782
1292.002, 3907.016
1292.485, 3918.819
1292.967, 3927.679
1293.449, 3922.983
1293.931, 3918.789
1294.413, 3924.403
1294.895, 3932.846
1295.377, 3936.781
1295.859, 3936.902
1296.342, 3937.814
1296.824, 3939.852
1297.306, 3943.652
1297.788, 3952.002
1298.270, 3958.128
1298.752, 3960.259
1299.234, 3961.109
1299.716, 3962.366
1300.198, 3964.384
1300.681, 3968.331
1301.163, 3974.018
1301.645, 3980.703
1302.127, 3986.741
##END=



