##NAMES=Quartz
##RRUFFID=R050125
##IDEAL CHEMISTRY=SiO_2_
##LOCALITY=Linopolis, Minas Gerais, Brazil
##OWNER=RRUFF
##SOURCE=Carlos and Paulo Vasconcelos
##DESCRIPTION=Pale pink group of single crystals, variety rose quartz
##STATUS=The identification of this mineral has been confirmed by X-ray diffraction and chemical analysis
##URL=rruff.info/R050125
##MEASURED CHEMISTRY=Si_1.00_O_2_
91.40820, 4.610394
91.89032, 4.296455
92.37244, 4.462873
92.85455, 5.031534
93.33667, 5.535451
93.81879, 5.608125
94.30090, 5.346088
94.78302, 5.020422
95.26514, 4.630818
95.74725, 4.263083
96.22937, 4.134580
96.71149, 4.258130
97.19360, 4.487513
97.67572, 4.736359
98.15784, 4.998945
98.63995, 5.173188
99.12207, 5.204664
99.60419, 5.110967
100.0863, 5.031227
100.5684, 4.941339
101.0505, 4.914184
101.5327, 5.087180
102.0148, 5.538564
102.4969, 5.921532
102.9790, 6.098055
103.4611, 6.014001
103.9432, 6.000521
104.4253, 6.015549
104.9075, 6.124954
105.3896, 6.450412
105.8717, 6.985844
106.3538, 7.750948
106.8359, 8.776007
107.3180, 10.13698
107.8002, 11.61014
108.2823, 13.20610
108.7644, 14.91273
109.2465, 16.75412
109.7286, 18.68610
110.2107, 20.76019
110.6929, 23.03483
111.1750, 25.37232
111.6571, 28.03559
112.1392, 31.28675
112.6213, 35.01716
113.1034, 38.48733
113.5856, 41.34436
114.0677, 44.07271
114.5498, 46.99322
115.0319, 50.29279
115.5140, 53.70702
115.9961, 57.15907
116.4783, 60.64615
116.9604, 64.13368
117.4425, 67.48249
117.9246, 70.90865
118.4067, 74.61891
118.8888, 79.10360
119.3710, 83.62185
119.8531, 87.42440
120.3352, 90.30672
120.8173, 93.94960
121.2994, 99.09803
121.7815, 105.7086
122.2637, 113.7425
122.7458, 122.8651
123.2279, 133.4694
123.7100, 145.6067
124.1921, 159.0275
124.6742, 175.0510
125.1564, 195.5769
125.6385, 219.9050
126.1206, 245.9320
126.6027, 275.5641
127.0848, 305.3680
127.5669, 330.1292
128.0491, 350.5239
128.5312, 362.6343
129.0133, 359.4151
129.4954, 341.6353
129.9775, 316.1467
130.4596, 283.3206
130.9418, 245.7699
131.4239, 212.4307
131.9060, 185.0826
132.3881, 162.7180
132.8702, 143.7023
133.3523, 127.9611
133.8345, 115.1363
134.3166, 105.4141
134.7987, 98.72136
135.2808, 93.39445
135.7629, 89.02761
136.2450, 85.64599
136.7272, 83.70124
137.2093, 83.46651
137.6914, 83.78287
138.1735, 83.30026
138.6556, 81.75644
139.1377, 80.82784
139.6199, 81.11709
140.1020, 82.61395
140.5841, 83.65032
141.0662, 83.99151
141.5483, 84.17131
142.0304, 84.92411
142.5126, 86.53236
142.9947, 88.01574
143.4768, 88.78136
143.9589, 88.54308
144.4410, 88.40121
144.9231, 88.40400
145.4053, 88.46879
145.8874, 88.49162
146.3695, 88.62880
146.8516, 88.51833
147.3337, 88.04888
147.8158, 87.13602
148.2980, 86.08836
148.7801, 84.83131
149.2622, 83.45212
149.7443, 82.15942
150.2264, 81.11999
150.7085, 79.99416
151.1907, 78.64394
151.6728, 76.57788
152.1549, 75.05331
152.6370, 74.49525
153.1191, 74.50188
153.6012, 74.09962
154.0834, 72.58610
154.5655, 71.13116
155.0476, 70.23755
155.5297, 70.60670
156.0118, 70.67648
156.4939, 69.84486
156.9761, 68.45600
157.4582, 67.69193
157.9403, 68.20757
158.4224, 69.15646
158.9045, 70.05138
159.3866, 70.70422
159.8688, 71.38590
160.3509, 72.04926
160.8330, 72.75056
161.3151, 73.75914
161.7972, 75.55374
162.2793, 77.49349
162.7615, 79.08715
163.2436, 79.84052
163.7257, 80.56609
164.2078, 81.55501
164.6899, 82.79918
165.1720, 84.25515
165.6541, 85.93639
166.1363, 87.80164
166.6184, 89.81017
167.1005, 92.20061
167.5826, 94.52924
168.0647, 96.45161
168.5468, 98.00111
169.0290, 99.62241
169.5111, 101.6207
169.9932, 103.8470
170.4753, 106.1148
170.9574, 108.1569
171.4395, 110.3060
171.9217, 112.9746
172.4038, 116.1613
172.8859, 119.3391
173.3680, 121.8934
173.8501, 124.1691
174.3322, 126.8223
174.8144, 130.2172
175.2965, 134.1173
175.7786, 138.1361
176.2607, 142.2950
176.7428, 146.7041
177.2249, 151.5494
177.7071, 156.7071
178.1892, 161.9963
178.6713, 167.3478
179.1534, 172.7741
179.6355, 178.2609
180.1176, 183.8372
180.5998, 189.6140
181.0819, 195.7548
181.5640, 202.2162
182.0461, 209.0942
182.5282, 216.4143
183.0103, 224.1238
183.4925, 232.1278
183.9746, 240.4158
184.4567, 248.8173
184.9388, 256.7289
185.4209, 264.4070
185.9030, 272.9296
186.3852, 283.2312
186.8673, 294.8549
187.3494, 306.7242
187.8315, 318.8647
188.3136, 330.8622
188.7957, 342.2537
189.2779, 353.0194
189.7600, 364.2896
190.2421, 376.6325
190.7242, 389.8686
191.2063, 403.4158
191.6884, 417.2532
192.1706, 431.2058
192.6527, 445.5470
193.1348, 460.2170
193.6169, 474.8058
194.0990, 489.0264
194.5811, 502.8839
195.0633, 517.6241
195.5454, 533.4612
196.0275, 549.8642
196.5096, 565.2167
196.9917, 579.5062
197.4738, 593.6968
197.9560, 608.3450
198.4381, 623.3938
198.9202, 638.4413
199.4023, 653.6918
199.8844, 668.5439
200.3665, 681.4836
200.8487, 692.4503
201.3308, 702.4268
201.8129, 712.0859
202.2950, 721.5332
202.7771, 729.3973
203.2592, 735.6568
203.7414, 740.3941
204.2235, 744.1123
204.7056, 747.0886
205.1877, 747.8488
205.6698, 745.2690
206.1519, 738.9302
206.6341, 731.9113
207.1162, 724.4336
207.5983, 716.2927
208.0804, 707.0714
208.5625, 696.8355
209.0446, 685.6050
209.5268, 673.4254
210.0089, 660.3250
210.4910, 646.0976
210.9731, 630.5106
211.4552, 613.8948
211.9373, 597.3144
212.4195, 581.0510
212.9016, 564.3198
213.3837, 546.6931
213.8658, 527.8561
214.3479, 508.9962
214.8300, 489.8092
215.3121, 470.6603
215.7943, 452.3716
216.2764, 435.1232
216.7585, 418.6534
217.2406, 402.6599
217.7227, 387.2138
218.2048, 372.5262
218.6870, 358.7096
219.1691, 345.6197
219.6512, 332.4569
220.1333, 318.5677
220.6154, 305.7281
221.0975, 294.5679
221.5797, 285.7136
222.0618, 277.0774
222.5439, 268.7526
223.0260, 260.6305
223.5081, 252.1879
223.9902, 243.2720
224.4724, 234.4041
224.9545, 225.8889
225.4366, 217.3626
225.9187, 209.9433
226.4008, 203.9655
226.8829, 198.8768
227.3651, 193.4143
227.8472, 187.1035
228.3293, 181.1039
228.8114, 175.9429
229.2935, 172.0066
229.7757, 167.7231
230.2578, 162.8804
230.7399, 157.8336
231.2220, 153.2066
231.7041, 149.1355
232.1862, 145.3130
232.6684, 141.6120
233.1505, 137.9580
233.6326, 134.6846
234.1147, 131.9595
234.5968, 129.5179
235.0789, 126.9280
235.5611, 124.0800
236.0432, 121.2757
236.5253, 118.5781
237.0074, 116.0491
237.4895, 113.5588
237.9716, 111.1286
238.4538, 108.7256
238.9359, 106.2490
239.4180, 103.3492
239.9001, 100.9120
240.3822, 99.33682
240.8643, 98.91233
241.3465, 98.03133
241.8286, 96.35741
242.3107, 94.46354
242.7928, 93.17537
243.2749, 92.71899
243.7570, 92.47977
244.2392, 92.32165
244.7213, 92.25387
245.2034, 92.21238
245.6855, 92.21966
246.1676, 92.23500
246.6497, 92.21182
247.1319, 92.16164
247.6140, 92.05386
248.0961, 91.86907
248.5782, 91.59731
249.0603, 91.33021
249.5424, 91.00074
250.0246, 90.73878
250.5067, 90.68465
250.9888, 90.87571
251.4709, 91.21042
251.9530, 91.73354
252.4351, 92.46680
252.9173, 92.94589
253.3994, 92.96487
253.8815, 92.96971
254.3636, 93.38848
254.8457, 94.28298
255.3278, 95.44355
255.8100, 96.87202
256.2921, 98.56957
256.7742, 100.2672
257.2563, 101.6889
257.7384, 103.4750
258.2205, 106.1412
258.7026, 109.8246
259.1848, 114.0887
259.6669, 118.8123
260.1490, 124.0552
260.6311, 130.0138
261.1132, 136.8683
261.5953, 144.1275
262.0775, 151.5871
262.5596, 159.8922
263.0417, 166.8392
263.5238, 172.8304
264.0059, 177.3098
264.4880, 177.7867
264.9702, 174.0366
265.4523, 166.6680
265.9344, 155.3442
266.4165, 138.5601
266.8986, 122.8695
267.3807, 108.4391
267.8629, 95.45822
268.3450, 84.42435
268.8271, 75.37888
269.3092, 67.89425
269.7913, 61.65979
270.2734, 56.80144
270.7556, 52.83865
271.2377, 49.89166
271.7198, 47.66898
272.2019, 45.45507
272.6840, 43.18512
273.1661, 41.14586
273.6483, 39.52789
274.1304, 38.38805
274.6125, 37.22356
275.0946, 35.98852
275.5767, 34.79091
276.0588, 33.83974
276.5410, 33.16756
277.0231, 32.57895
277.5052, 32.02814
277.9873, 31.51315
278.4694, 30.93484
278.9515, 30.24325
279.4337, 29.59310
279.9158, 29.26425
280.3979, 29.29407
280.8800, 29.26340
281.3621, 29.02241
281.8442, 28.58660
282.3264, 28.07557
282.8085, 27.46640
283.2906, 26.86354
283.7727, 26.42103
284.2548, 26.14138
284.7369, 25.79888
285.2191, 25.26503
285.7012, 24.62675
286.1833, 24.25869
286.6654, 24.19116
287.1475, 24.19023
287.6296, 24.08030
288.1118, 23.85852
288.5939, 23.46021
289.0760, 22.75999
289.5581, 21.95656
290.0402, 21.60074
290.5223, 21.70468
291.0045, 21.85394
291.4866, 21.66916
291.9687, 21.23154
292.4508, 20.94407
292.9329, 20.91928
293.4150, 21.01105
293.8972, 20.95411
294.3793, 20.76066
294.8614, 20.57040
295.3435, 20.50620
295.8256, 20.51974
296.3077, 20.47930
296.7899, 20.36821
297.2720, 20.20356
297.7541, 19.95837
298.2362, 19.66143
298.7183, 19.43756
299.2004, 19.43075
299.6826, 19.52896
300.1647, 19.51886
300.6468, 19.37679
301.1289, 19.17724
301.6110, 18.92927
302.0931, 18.67593
302.5753, 18.52413
303.0574, 18.66080
303.5395, 18.86889
304.0216, 18.81457
304.5037, 18.48466
304.9858, 18.16097
305.4680, 18.16356
305.9501, 18.32265
306.4322, 18.34481
306.9143, 17.96297
307.3964, 17.51637
307.8785, 17.32241
308.3607, 17.36459
308.8428, 17.47011
309.3249, 17.56859
309.8070, 17.65125
310.2891, 17.70426
310.7712, 17.69877
311.2534, 17.69541
311.7355, 17.73581
312.2176, 17.81372
312.6997, 17.90563
313.1818, 18.04600
313.6639, 18.16726
314.1461, 18.20412
314.6282, 18.10135
315.1103, 18.00316
315.5924, 17.98370
316.0745, 18.02074
316.5566, 18.06814
317.0388, 18.11180
317.5209, 18.15722
318.0030, 18.23352
318.4851, 18.37754
318.9672, 18.41275
319.4493, 18.14770
319.9315, 17.77401
320.4136, 17.54254
320.8957, 17.61895
321.3778, 17.76614
321.8599, 17.93818
322.3420, 18.14117
322.8242, 18.24409
323.3063, 18.09472
323.7884, 17.89323
324.2705, 17.81420
324.7526, 18.02661
325.2347, 18.21375
325.7169, 18.29939
326.1990, 18.29188
326.6811, 18.29188
327.1632, 18.28214
327.6453, 18.29818
328.1274, 18.35992
328.6096, 18.52404
329.0917, 18.66356
329.5738, 18.72656
330.0559, 18.75664
330.5380, 18.90259
331.0201, 19.28262
331.5023, 19.64953
331.9844, 19.88135
332.4665, 19.83675
332.9486, 20.00126
333.4307, 20.41977
333.9128, 21.02398
334.3950, 21.68718
334.8771, 22.39388
335.3592, 23.19708
335.8413, 24.08814
336.3234, 25.06023
336.8055, 26.23644
337.2877, 27.64647
337.7698, 29.20206
338.2519, 30.90799
338.7340, 32.86540
339.2161, 34.50792
339.6982, 35.62267
340.1803, 36.30722
340.6624, 37.06213
341.1446, 37.87687
341.6267, 38.82759
342.1088, 40.01272
342.5909, 41.42616
343.0730, 42.96309
343.5551, 44.62236
344.0373, 46.36451
344.5194, 48.02204
345.0015, 49.60110
345.4836, 51.26638
345.9657, 53.00227
346.4478, 54.87090
346.9300, 57.22448
347.4121, 60.13137
347.8942, 63.42145
348.3763, 66.68914
348.8584, 70.06187
349.3405, 74.35025
349.8227, 80.00923
350.3048, 86.81538
350.7869, 94.37064
351.2690, 102.6437
351.7511, 111.5807
352.2332, 121.2163
352.7154, 131.3962
353.1975, 141.9962
353.6796, 154.5039
354.1617, 165.8386
354.6438, 173.9344
355.1259, 178.3680
355.6081, 176.9046
356.0902, 165.7809
356.5723, 148.8723
357.0544, 129.8028
357.5365, 108.0638
358.0186, 87.75683
358.5008, 71.38623
358.9829, 58.57279
359.4650, 48.49625
359.9471, 41.90771
360.4292, 37.12468
360.9113, 33.21146
361.3935, 30.13558
361.8756, 27.74916
362.3577, 26.25084
362.8398, 25.32597
363.3219, 24.61679
363.8040, 24.18046
364.2862, 23.79305
364.7683, 23.30659
365.2504, 22.73689
365.7325, 22.43610
366.2146, 22.74340
366.6967, 23.16345
367.1789, 23.38853
367.6610, 23.00715
368.1431, 22.88024
368.6252, 23.26662
369.1073, 23.97845
369.5894, 24.41650
370.0716, 24.54159
370.5537, 24.43627
371.0358, 24.09792
371.5179, 23.43937
372.0000, 22.79520
372.4821, 22.07734
372.9643, 21.43971
373.4464, 21.08535
373.9285, 21.02504
374.4106, 21.24111
374.8927, 21.78983
375.3748, 22.66137
375.8570, 23.50211
376.3391, 24.33408
376.8212, 25.10310
377.3033, 25.73277
377.7854, 26.18541
378.2675, 26.77781
378.7497, 27.62472
379.2318, 28.57369
379.7139, 29.17588
380.1960, 29.38713
380.6781, 29.71383
381.1602, 30.58010
381.6424, 31.87378
382.1245, 32.80378
382.6066, 33.27039
383.0887, 33.67629
383.5708, 34.56805
384.0529, 35.86639
384.5351, 37.22721
385.0172, 38.37782
385.4993, 39.54858
385.9814, 41.16659
386.4635, 43.21423
386.9456, 45.62262
387.4278, 48.24448
387.9099, 51.17483
388.3920, 54.61221
388.8741, 58.61039
389.3562, 63.09266
389.8383, 67.83766
390.3205, 73.03890
390.8026, 79.11491
391.2847, 87.08918
391.7668, 95.48349
392.2489, 103.9087
392.7310, 112.7518
393.2132, 118.8772
393.6953, 121.3991
394.1774, 120.1088
394.6595, 114.6918
395.1416, 101.4007
395.6237, 87.48683
396.1059, 74.62279
396.5880, 62.97306
397.0701, 53.74176
397.5522, 48.07964
398.0343, 44.39755
398.5164, 41.80079
398.9986, 41.05413
399.4807, 40.30101
399.9628, 39.30384
400.4449, 38.27318
400.9270, 37.72898
401.4091, 38.17814
401.8913, 38.46977
402.3734, 38.28365
402.8555, 37.62145
403.3376, 36.38708
403.8197, 34.20746
404.3018, 31.89072
404.7840, 30.36281
405.2661, 29.84560
405.7482, 29.33226
406.2303, 28.59525
406.7124, 27.72230
407.1945, 27.02731
407.6767, 26.49976
408.1588, 26.20066
408.6409, 26.23812
409.1230, 26.59162
409.6051, 26.94110
410.0872, 27.25394
410.5694, 27.58576
411.0515, 28.08361
411.5336, 28.70892
412.0157, 29.20498
412.4978, 29.38180
412.9799, 29.37553
413.4621, 29.43974
413.9442, 29.57487
414.4263, 29.76751
414.9084, 30.09822
415.3905, 30.46019
415.8727, 30.66843
416.3548, 30.59486
416.8369, 30.48971
417.3190, 30.52678
417.8011, 30.69522
418.2832, 30.96932
418.7654, 31.44536
419.2475, 31.94503
419.7296, 32.30183
420.2117, 32.46424
420.6938, 32.72749
421.1759, 33.28523
421.6581, 33.97021
422.1402, 34.61274
422.6223, 35.12224
423.1044, 35.63150
423.5865, 36.19640
424.0686, 36.79917
424.5508, 37.32203
425.0329, 37.50548
425.5150, 37.80581
425.9971, 38.46178
426.4792, 39.78326
426.9613, 40.80387
427.4435, 41.34662
427.9256, 41.68037
428.4077, 42.22488
428.8898, 43.04205
429.3719, 43.94618
429.8540, 44.86207
430.3362, 45.80061
430.8183, 47.05323
431.3004, 48.69942
431.7825, 50.41345
432.2646, 51.88018
432.7467, 53.09238
433.2289, 54.44947
433.7110, 55.95843
434.1931, 57.67103
434.6752, 59.67312
435.1573, 61.96052
435.6394, 64.49224
436.1216, 67.15022
436.6037, 70.06654
437.0858, 73.63719
437.5679, 77.89881
438.0500, 82.19613
438.5321, 85.57117
439.0142, 88.65891
439.4963, 92.51826
439.9785, 97.44404
440.4606, 103.2914
440.9427, 109.9222
441.4248, 117.3464
441.9069, 125.5265
442.3890, 134.1775
442.8712, 143.7727
443.3533, 154.4391
443.8354, 166.0393
444.3175, 179.5845
444.7996, 195.1459
445.2817, 212.7817
445.7639, 232.6875
446.2460, 255.6357
446.7281, 280.1402
447.2102, 306.0026
447.6923, 333.2415
448.1744, 361.0400
448.6566, 389.4295
449.1387, 418.4679
449.6208, 448.3361
450.1029, 479.9340
450.5850, 509.9943
451.0671, 537.0925
451.5493, 563.7194
452.0314, 592.9697
452.5135, 624.3708
452.9956, 659.3693
453.4777, 698.1706
453.9598, 740.4840
454.4420, 785.8356
454.9241, 833.6656
455.4062, 886.1475
455.8883, 943.4670
456.3704, 1006.127
456.8525, 1075.706
457.3347, 1150.791
457.8168, 1233.941
458.2989, 1326.714
458.7810, 1429.341
459.2631, 1539.400
459.7452, 1659.391
460.2274, 1786.089
460.7095, 1917.767
461.1916, 2054.873
461.6737, 2186.994
462.1558, 2319.895
462.6379, 2440.235
463.1201, 2538.395
463.6022, 2619.234
464.0843, 2664.119
464.5664, 2667.434
465.0485, 2629.791
465.5306, 2552.162
466.0128, 2415.117
466.4949, 2257.776
466.9770, 2084.710
467.4591, 1895.709
467.9412, 1717.766
468.4233, 1546.743
468.9055, 1389.220
469.3876, 1247.025
469.8697, 1120.786
470.3518, 1009.227
470.8339, 912.8956
471.3160, 829.6765
471.7982, 755.3109
472.2803, 690.1368
472.7624, 632.3268
473.2445, 582.7380
473.7266, 540.4037
474.2087, 501.0779
474.6909, 464.8225
475.1730, 432.0038
475.6551, 403.9210
476.1372, 380.0430
476.6193, 358.2162
477.1014, 338.4363
477.5836, 320.3341
478.0657, 303.8033
478.5478, 288.6445
479.0299, 274.5913
479.5120, 261.5103
479.9941, 249.2620
480.4763, 237.7214
480.9584, 226.8892
481.4405, 217.2882
481.9226, 210.0152
482.4047, 203.6240
482.8868, 196.8600
483.3690, 189.1103
483.8511, 181.9031
484.3332, 176.0283
484.8153, 170.9240
485.2974, 165.5457
485.7795, 159.1009
486.2617, 153.1405
486.7438, 148.0064
487.2259, 143.6766
487.7080, 139.7877
488.1901, 136.5396
488.6722, 133.4304
489.1544, 130.1101
489.6365, 126.5430
490.1186, 122.9834
490.6007, 119.3316
491.0828, 115.8412
491.5649, 112.9122
492.0471, 110.5903
492.5292, 108.3244
493.0113, 105.9281
493.4934, 103.4979
493.9755, 101.2859
494.4576, 99.30041
494.9398, 97.32704
495.4219, 95.19897
495.9040, 92.98296
496.3861, 90.84550
496.8682, 88.75200
497.3503, 86.86044
497.8325, 85.43233
498.3146, 84.24894
498.7967, 82.94095
499.2788, 81.27306
499.7609, 79.55025
500.2430, 77.89316
500.7252, 76.30861
501.2073, 74.77563
501.6894, 73.31494
502.1715, 71.90673
502.6536, 70.51991
503.1357, 69.13649
503.6179, 67.84907
504.1000, 66.63194
504.5821, 65.52776
505.0642, 64.62683
505.5463, 64.17058
506.0284, 63.35250
506.5106, 61.88724
506.9927, 60.04270
507.4748, 58.70799
507.9569, 57.93561
508.4390, 57.41542
508.9211, 57.08567
509.4033, 56.91273
509.8854, 56.61910
510.3675, 56.19988
510.8496, 55.69970
511.3317, 55.14004
511.8138, 54.53144
512.2960, 53.90294
512.7781, 53.22123
513.2602, 52.58245
513.7423, 52.08743
514.2244, 51.71242
514.7065, 51.39916
515.1887, 51.22099
515.6708, 51.01453
516.1529, 50.60849
516.6350, 50.00802
517.1171, 49.54632
517.5992, 49.50127
518.0814, 49.53133
518.5635, 49.42082
519.0456, 49.14866
519.5277, 48.71582
520.0098, 47.90396
520.4919, 47.02761
520.9741, 46.60342
521.4562, 46.97497
521.9383, 47.09982
522.4204, 46.62990
522.9025, 45.70029
523.3846, 45.21651
523.8668, 45.26979
524.3489, 45.39712
524.8310, 45.26872
525.3131, 44.92797
525.7952, 44.77384
526.2773, 44.83847
526.7595, 44.99393
527.2416, 45.12816
527.7237, 45.23826
528.2058, 45.32130
528.6879, 45.38943
529.1700, 45.41077
529.6522, 45.31960
530.1343, 45.15144
530.6164, 45.00563
531.0985, 45.19563
531.5806, 45.21797
532.0627, 44.69048
532.5449, 43.56262
533.0270, 42.40178
533.5091, 41.29599
533.9912, 40.26063
534.4733, 39.32132
534.9554, 38.36804
535.4376, 37.66673
535.9197, 37.42779
536.4018, 37.34109
536.8839, 36.81182
537.3660, 35.57826
537.8481, 34.60633
538.3303, 34.22443
538.8124, 34.30820
539.2945, 34.17311
539.7766, 33.79933
540.2587, 33.37634
540.7408, 33.02066
541.2230, 32.71954
541.7051, 32.42184
542.1872, 32.11617
542.6693, 31.88060
543.1514, 31.85062
543.6335, 31.93614
544.1157, 31.97540
544.5978, 31.94967
545.0799, 31.81952
545.5620, 31.50850
546.0441, 31.06959
546.5262, 30.63368
547.0084, 30.24289
547.4905, 29.87308
547.9726, 29.49726
548.4547, 29.11195
548.9368, 28.77980
549.4189, 28.52407
549.9011, 28.30718
550.3832, 28.12002
550.8653, 28.02151
551.3474, 27.80752
551.8295, 27.45086
552.3116, 27.01020
552.7938, 26.55668
553.2759, 26.08552
553.7580, 25.64531
554.2401, 25.24162
554.7222, 24.88325
555.2043, 24.59792
555.6865, 24.38529
556.1686, 24.21343
556.6507, 24.06697
557.1328, 23.94885
557.6149, 23.90024
558.0970, 23.92455
558.5792, 23.86363
559.0613, 23.51991
559.5434, 23.07754
560.0255, 22.72481
560.5076, 22.55038
560.9897, 22.39608
561.4719, 22.16444
561.9540, 21.92923
562.4361, 21.81594
562.9182, 21.98682
563.4003, 22.11590
563.8824, 22.17128
564.3646, 22.14517
564.8467, 21.93833
565.3288, 21.39641
565.8109, 20.99235
566.2930, 21.06362
566.7751, 21.63742
567.2573, 21.89826
567.7394, 21.81767
568.2215, 21.56432
568.7036, 21.22516
569.1857, 20.84620
569.6678, 20.58891
570.1500, 20.49691
570.6321, 20.51904
571.1142, 20.66790
571.5963, 20.88736
572.0784, 21.05041
572.5605, 21.10626
573.0427, 21.08582
573.5248, 20.94860
574.0069, 20.72519
574.4890, 20.59680
574.9711, 20.71667
575.4532, 20.86924
575.9354, 20.95598
576.4175, 20.97004
576.8996, 20.92007
577.3817, 20.76266
577.8638, 20.58448
578.3459, 20.44212
578.8281, 20.31382
579.3102, 20.34678
579.7923, 20.62277
580.2744, 20.96846
580.7565, 21.02251
581.2386, 20.79976
581.7208, 20.56154
582.2029, 20.39119
582.6850, 20.27666
583.1671, 20.17875
583.6492, 20.10546
584.1313, 20.10450
584.6135, 20.31085
585.0956, 20.54026
585.5776, 20.58178
586.0598, 20.39232
586.5419, 20.26269
587.0240, 20.41717
587.5061, 20.62556
587.9882, 20.69638
588.4703, 20.49516
588.9525, 20.29650
589.4346, 20.04766
589.9167, 19.83601
590.3988, 19.82709
590.8809, 20.11828
591.3630, 20.36247
591.8452, 20.49088
592.3273, 20.50998
592.8094, 20.42373
593.2915, 20.22669
593.7736, 20.00772
594.2557, 19.76239
594.7379, 19.54060
595.2200, 19.52098
595.7021, 19.70629
596.1842, 19.86658
596.6663, 19.77091
597.1484, 19.56538
597.6306, 19.45445
598.1127, 19.55161
598.5948, 19.53222
599.0769, 19.05844
599.5590, 18.44618
600.0411, 18.09124
600.5233, 18.37149
601.0054, 18.57196
601.4875, 18.53300
601.9696, 18.33445
602.4517, 18.22357
602.9338, 18.24969
603.4160, 18.25342
603.8981, 18.16248
604.3802, 17.99108
604.8623, 17.90592
605.3444, 17.91795
605.8265, 17.92247
606.3087, 17.82008
606.7908, 17.64875
607.2729, 17.50586
607.7550, 17.39787
608.2371, 17.33390
608.7192, 17.36104
609.2014, 17.42342
609.6835, 17.44369
610.1656, 17.39008
610.6477, 17.30657
611.1298, 17.15961
611.6119, 17.00420
612.0941, 16.93567
612.5762, 17.05066
613.0583, 17.16985
613.5404, 17.28119
614.0225, 17.37206
614.5046, 17.36604
614.9868, 17.20771
615.4689, 17.08200
615.9510, 17.13593
616.4331, 17.34847
616.9152, 17.22911
617.3973, 16.74547
617.8795, 16.22292
618.3616, 15.90633
618.8437, 15.78189
619.3258, 15.88626
619.8079, 16.27632
620.2900, 16.61304
620.7722, 16.48436
621.2543, 16.15503
621.7364, 16.00291
622.2185, 16.35304
622.7006, 16.63989
623.1827, 16.64850
623.6649, 16.46148
624.1470, 16.27430
624.6291, 15.98007
625.1112, 15.85139
625.5933, 16.02273
626.0754, 16.43628
626.5576, 16.66321
627.0397, 16.68222
627.5218, 16.58386
628.0039, 16.33735
628.4860, 15.97897
628.9681, 15.87473
629.4503, 16.04249
629.9324, 16.22546
630.4145, 16.12989
630.8966, 15.91117
631.3787, 15.86450
631.8608, 16.08250
632.3430, 16.30146
632.8251, 16.35652
633.3072, 16.30499
633.7893, 16.21851
634.2714, 16.11167
634.7535, 15.97732
635.2357, 15.78790
635.7178, 15.57174
636.1999, 15.38478
636.6820, 15.18925
637.1641, 15.10136
637.6462, 15.18757
638.1284, 15.40586
638.6105, 15.51381
639.0926, 15.49728
639.5747, 15.50650
640.0568, 15.72631
640.5389, 16.03380
641.0211, 16.00174
641.5032, 15.63249
641.9853, 15.26023
642.4674, 15.11507
642.9495, 15.12498
643.4316, 15.26291
643.9138, 15.58551
644.3959, 15.76868
644.8780, 15.50555
645.3601, 15.11404
645.8422, 14.91263
646.3243, 15.13079
646.8065, 15.29476
647.2886, 15.40352
647.7707, 15.44413
648.2528, 15.37140
648.7349, 15.14762
649.2170, 14.97209
649.6992, 14.90476
650.1813, 14.90545
650.6634, 14.86382
651.1455, 14.78534
651.6276, 14.72418
652.1097, 14.74561
652.5919, 14.78136
653.0740, 14.72627
653.5561, 14.59053
654.0382, 14.46408
654.5203, 14.36421
655.0024, 14.31614
655.4846, 14.38567
655.9667, 14.64202
656.4488, 14.69676
656.9309, 14.29764
657.4130, 13.83660
657.8951, 13.56215
658.3773, 13.50566
658.8594, 13.57797
659.3415, 13.83696
659.8236, 14.11414
660.3057, 14.15402
660.7878, 13.97787
661.2700, 13.81486
661.7521, 13.70464
662.2342, 13.65606
662.7163, 13.74435
663.1984, 13.90585
663.6805, 13.98160
664.1627, 13.77623
664.6448, 13.57785
665.1269, 13.62140
665.6090, 13.82896
666.0911, 13.89966
666.5732, 13.46884
667.0554, 13.19564
667.5375, 13.38214
668.0196, 14.02032
668.5017, 14.36776
668.9838, 14.35073
669.4659, 14.22351
669.9481, 14.07696
670.4302, 13.92227
670.9123, 13.99111
671.3944, 14.30832
671.8765, 14.60327
672.3586, 14.51862
672.8408, 14.26319
673.3229, 14.22878
673.8050, 14.52226
674.2871, 14.83104
674.7692, 14.88255
675.2513, 14.86347
675.7335, 14.98213
676.2156, 15.46356
676.6977, 15.85747
677.1798, 16.04102
677.6619, 16.13233
678.1440, 16.30570
678.6262, 16.56928
679.1083, 16.89904
679.5904, 17.30516
680.0725, 17.76408
680.5546, 18.27350
681.0367, 18.82872
681.5189, 19.29336
682.0010, 19.52253
682.4831, 19.68202
682.9652, 20.09494
683.4473, 20.69220
683.9294, 21.18424
684.4116, 21.25362
684.8937, 21.28547
685.3758, 21.50182
685.8579, 21.91998
686.3400, 22.47257
686.8221, 23.23362
687.3043, 24.05100
687.7864, 24.85312
688.2685, 25.62709
688.7506, 26.45582
689.2327, 27.35236
689.7148, 28.29103
690.1970, 29.18830
690.6791, 30.08932
691.1612, 31.30384
691.6433, 32.90866
692.1254, 34.51454
692.6075, 35.74194
693.0897, 36.71260
693.5718, 37.65704
694.0539, 38.80921
694.5360, 39.62288
695.0181, 39.86155
695.5002, 39.61062
695.9824, 39.01146
696.4645, 37.99352
696.9466, 36.72941
697.4287, 35.14480
697.9108, 33.36399
698.3929, 31.71804
698.8751, 30.21799
699.3572, 28.64833
699.8393, 26.82224
700.3214, 24.95196
700.8035, 23.55298
701.2856, 22.58809
701.7678, 21.84125
702.2499, 21.33916
702.7320, 20.88866
703.2141, 20.25550
703.6962, 19.47116
704.1783, 18.82687
704.6605, 18.54535
705.1426, 18.33083
705.6247, 18.01204
706.1068, 17.55728
706.5889, 17.26392
707.0710, 17.18062
707.5532, 17.17885
708.0353, 17.24387
708.5174, 17.37592
708.9995, 17.17758
709.4816, 16.59363
709.9637, 16.02084
710.4459, 15.88954
710.9280, 16.02659
711.4101, 16.12626
711.8922, 16.13982
712.3743, 16.11053
712.8564, 16.09864
713.3386, 16.04333
713.8207, 15.87126
714.3028, 15.29726
714.7849, 15.01866
715.2670, 15.29040
715.7491, 15.73789
716.2313, 15.85979
716.7134, 15.56204
717.1955, 15.32996
717.6776, 15.25626
718.1597, 15.26032
718.6418, 15.15843
719.1240, 14.98745
719.6061, 14.93852
720.0882, 15.21040
720.5703, 15.47567
721.0524, 15.29923
721.5345, 14.85347
722.0167, 14.55251
722.4988, 14.71216
722.9809, 14.87986
723.4630, 14.89174
723.9451, 14.77026
724.4272, 14.64116
724.9094, 14.46741
725.3915, 14.36398
725.8736, 14.39872
726.3557, 14.53907
726.8378, 14.60216
727.3199, 14.58777
727.8021, 14.55487
728.2842, 14.50765
728.7663, 14.47973
729.2484, 14.57797
729.7305, 14.78438
730.2126, 14.89661
730.6948, 14.65420
731.1769, 14.38925
731.6590, 14.33533
732.1411, 14.54541
732.6232, 14.77223
733.1053, 15.11000
733.5875, 15.33154
734.0696, 15.24719
734.5517, 14.79136
735.0338, 14.54335
735.5159, 14.52226
735.9980, 14.61610
736.4802, 14.79665
736.9623, 15.00228
737.4444, 15.04509
737.9265, 14.88972
738.4086, 14.67733
738.8907, 14.47586
739.3729, 14.29402
739.8550, 14.13669
740.3371, 13.96507
740.8192, 13.89588
741.3013, 13.98721
741.7834, 14.16763
742.2656, 14.39907
742.7477, 14.73984
743.2298, 14.92084
743.7119, 14.89043
744.1940, 14.74085
744.6761, 14.55630
745.1583, 14.35814
745.6404, 14.27349
746.1225, 14.38953
746.6046, 14.50374
747.0867, 14.34817
747.5688, 14.06861
748.0510, 13.91571
748.5331, 14.13603
749.0152, 14.30516
749.4973, 14.25657
749.9794, 14.09283
750.4615, 14.02197
750.9437, 14.09096
751.4258, 14.13579
751.9079, 14.11302
752.3900, 14.05261
752.8721, 14.02378
753.3542, 14.02560
753.8364, 14.04516
754.3185, 14.07227
754.8006, 14.11908
755.2827, 14.24464
755.7648, 14.40655
756.2469, 14.47944
756.7291, 14.22232
757.2112, 14.05705
757.6933, 14.27760
758.1754, 14.78162
758.6575, 14.95005
759.1396, 14.56480
759.6218, 14.28589
760.1039, 14.40119
760.5860, 14.79098
761.0681, 14.87230
761.5502, 14.65400
762.0323, 14.47216
762.5145, 14.56235
762.9966, 14.77983
763.4787, 14.92681
763.9608, 15.01554
764.4429, 15.14171
764.9250, 15.41142
765.4072, 15.67675
765.8893, 15.86069
766.3714, 15.95786
766.8535, 16.02889
767.3356, 16.06643
767.8177, 16.08842
768.2999, 16.07003
768.7820, 16.02740
769.2641, 16.18529
769.7462, 16.54923
770.2283, 16.88114
770.7104, 16.99762
771.1926, 16.97844
771.6747, 16.87137
772.1568, 16.69038
772.6389, 16.64342
773.1210, 16.95893
773.6031, 17.33872
774.0853, 17.57642
774.5674, 17.61608
775.0495, 17.80573
775.5316, 18.22890
776.0137, 18.65846
776.4958, 18.94082
776.9780, 19.08380
777.4601, 19.23805
777.9422, 19.40384
778.4243, 19.62213
778.9064, 19.99922
779.3885, 20.41792
779.8707, 20.75954
780.3528, 21.01704
780.8349, 21.09033
781.3170, 20.73728
781.7991, 20.32300
782.2813, 20.08505
782.7633, 19.99921
783.2454, 20.21830
783.7275, 20.83902
784.2097, 21.56812
784.6918, 22.18658
785.1739, 22.69473
785.6560, 23.12232
786.1381, 23.46487
786.6202, 23.81938
787.1024, 24.24608
787.5845, 24.75313
788.0666, 25.32709
788.5487, 25.95456
789.0308, 26.73717
789.5129, 27.81185
789.9951, 28.99991
790.4772, 30.14042
790.9593, 31.18639
791.4414, 32.35761
791.9235, 33.69847
792.4056, 35.09754
792.8878, 36.45937
793.3699, 37.79461
793.8520, 39.25275
794.3341, 40.89728
794.8162, 42.35191
795.2983, 43.19413
795.7805, 43.75499
796.2626, 44.39794
796.7447, 45.17440
797.2268, 46.07621
797.7089, 47.27510
798.1910, 48.48865
798.6732, 49.42351
799.1553, 49.88096
799.6374, 50.91217
800.1195, 52.63700
800.6016, 54.61842
801.0837, 56.37977
801.5659, 58.03422
802.0480, 59.93795
802.5301, 62.11861
803.0122, 64.58267
803.4943, 67.91640
803.9764, 71.23593
804.4586, 73.73596
804.9407, 75.37157
805.4228, 75.87694
805.9049, 75.08682
806.3870, 73.41467
806.8691, 71.11616
807.3513, 68.18523
807.8334, 64.61568
808.3155, 60.30766
808.7976, 55.86874
809.2797, 51.85813
809.7618, 48.18321
810.2440, 44.66860
810.7261, 41.22374
811.2082, 38.22801
811.6903, 36.11428
812.1724, 34.40014
812.6545, 32.66420
813.1367, 30.61520
813.6188, 29.20019
814.1009, 28.70540
814.5830, 28.40392
815.0651, 27.57767
815.5472, 26.28131
816.0294, 25.35070
816.5115, 24.87021
816.9936, 24.52005
817.4757, 24.02065
817.9578, 23.47777
818.4399, 23.02654
818.9221, 22.70411
819.4042, 22.40510
819.8863, 22.11308
820.3684, 21.81845
820.8505, 21.49866
821.3326, 21.11910
821.8148, 20.87406
822.2969, 20.80107
822.7790, 20.74050
823.2611, 20.54478
823.7432, 20.24949
824.2253, 19.95179
824.7075, 19.65911
825.1896, 19.41373
825.6717, 19.25588
826.1538, 19.15199
826.6359, 19.09302
827.1180, 19.09601
827.6002, 19.02980
828.0823, 18.75109
828.5644, 18.56555
829.0465, 18.72429
829.5286, 19.24068
830.0107, 19.41531
830.4929, 19.22382
830.9750, 18.98699
831.4571, 18.98626
831.9392, 19.09183
832.4213, 19.10387
832.9034, 19.01288
833.3856, 18.91936
833.8677, 18.85607
834.3498, 18.81726
834.8319, 18.80499
835.3140, 18.81919
835.7961, 18.83651
836.2783, 18.86193
836.7604, 18.87643
837.2425, 18.86521
837.7246, 18.83422
838.2067, 18.83057
838.6888, 18.84552
839.1710, 18.79425
839.6531, 18.51542
840.1352, 18.22932
840.6173, 18.14297
841.0994, 18.24252
841.5815, 18.30900
842.0637, 18.21839
842.5458, 18.19304
843.0279, 18.33445
843.5100, 18.60310
843.9921, 18.77373
844.4742, 18.84645
844.9564, 18.78795
845.4385, 18.49172
845.9206, 18.11852
846.4027, 17.86991
846.8848, 17.74757
847.3669, 17.75677
847.8491, 18.06892
848.3312, 18.33725
848.8133, 18.36539
849.2954, 18.23762
849.7775, 18.25257
850.2596, 18.48980
850.7418, 18.61107
851.2239, 18.49513
851.7060, 18.23800
852.1881, 18.02557
852.6702, 17.85581
853.1523, 17.72864
853.6345, 17.62401
854.1166, 17.58361
854.5987, 17.74439
855.0808, 17.96972
855.5629, 17.99599
856.0450, 17.52874
856.5272, 17.22986
857.0093, 17.22531
857.4914, 17.36092
857.9735, 17.37625
858.4556, 17.27779
858.9377, 17.19637
859.4199, 17.17947
859.9020, 17.13429
860.3841, 16.88289
860.8662, 16.56416
861.3483, 16.39165
861.8304, 16.55405
862.3126, 16.62479
862.7947, 16.36687
863.2768, 16.06306
863.7589, 15.99168
864.2410, 16.21865
864.7231, 16.29535
865.2053, 16.16466
865.6874, 16.00738
866.1695, 16.06837
866.6516, 16.23356
867.1337, 16.25464
867.6158, 16.07683
868.0980, 15.90655
868.5801, 15.88510
869.0622, 15.88962
869.5443, 15.80091
870.0264, 15.56499
870.5085, 15.50383
870.9907, 15.68013
871.4728, 15.86937
871.9549, 15.87106
872.4370, 15.74605
872.9191, 15.77632
873.4012, 15.95589
873.8834, 16.08486
874.3655, 15.94860
874.8476, 15.76998
875.3297, 15.71732
875.8118, 15.79833
876.2939, 15.88019
876.7761, 15.96517
877.2582, 16.02483
877.7403, 16.03979
878.2224, 16.02162
878.7045, 16.02733
879.1866, 16.05571
879.6688, 16.09187
880.1509, 16.10465
880.6330, 16.14054
881.1151, 16.31178
881.5972, 16.54890
882.0793, 16.65081
882.5615, 16.35831
883.0436, 16.17930
883.5257, 16.27883
884.0078, 16.51980
884.4899, 16.56394
884.9720, 16.39585
885.4542, 16.34328
885.9363, 16.52963
886.4184, 16.77168
886.9005, 16.81359
887.3826, 16.74143
887.8647, 16.70556
888.3469, 16.77878
888.8290, 16.84638
889.3111, 16.86784
889.7932, 16.87014
890.2753, 16.86870
890.7574, 16.84539
891.2396, 16.93297
891.7217, 17.17545
892.2038, 17.38061
892.6859, 17.26212
893.1680, 16.97313
893.6501, 16.82834
894.1323, 16.87942
894.6144, 16.95620
895.0965, 17.00655
895.5786, 17.02428
896.0607, 16.99614
896.5428, 16.91628
897.0250, 16.85310
897.5071, 16.80499
897.9892, 16.77980
898.4713, 16.82812
898.9534, 16.89595
899.4355, 16.79304
899.9177, 16.54415
900.3998, 16.31195
900.8819, 16.20778
901.3640, 16.13811
901.8461, 16.06620
902.3282, 15.98629
902.8104, 15.87790
903.2925, 15.72549
903.7746, 15.57855
904.2567, 15.43524
904.7388, 15.32527
905.2209, 15.33712
905.7031, 15.44862
906.1852, 15.57220
906.6673, 15.69031
907.1494, 15.78840
907.6315, 15.89770
908.1136, 15.96896
908.5958, 15.91221
909.0779, 15.57617
909.5600, 15.38416
910.0421, 15.37940
910.5242, 15.49280
911.0063, 15.67045
911.4885, 15.89814
911.9706, 16.13070
912.4527, 16.37119
912.9348, 16.51021
913.4169, 16.34498
913.8990, 16.11254
914.3812, 16.02296
914.8633, 16.12552
915.3454, 16.31211
915.8275, 16.69100
916.3096, 16.95172
916.7917, 16.81567
917.2739, 16.37719
917.7560, 16.30816
918.2381, 16.58276
918.7202, 16.88729
919.2023, 17.16802
919.6844, 17.27030
920.1666, 16.89415
920.6487, 16.17339
921.1308, 15.82881
921.6129, 16.22576
922.0950, 16.55612
922.5771, 16.63662
923.0593, 16.53295
923.5414, 16.36271
924.0235, 16.14079
924.5056, 15.95780
924.9877, 15.84985
925.4698, 15.78177
925.9520, 15.77322
926.4341, 15.76797
926.9162, 15.68692
927.3983, 15.36626
927.8804, 15.21674
928.3625, 15.37874
928.8447, 15.51434
929.3268, 15.14619
929.8089, 14.37407
930.2910, 14.02358
930.7731, 14.17891
931.2552, 14.37237
931.7374, 14.17653
932.2195, 13.88908
932.7016, 13.77479
933.1837, 13.87484
933.6658, 13.96699
934.1479, 14.07363
934.6301, 14.09949
935.1122, 13.96845
935.5943, 13.73175
936.0764, 13.61072
936.5585, 13.59472
937.0406, 13.61123
937.5228, 13.65264
938.0049, 13.68270
938.4870, 13.67730
938.9691, 13.63981
939.4512, 13.57462
939.9333, 13.42973
940.4155, 13.35570
940.8976, 13.39541
941.3797, 13.47521
941.8618, 13.46882
942.3439, 13.39598
942.8260, 13.34274
943.3082, 13.31527
943.7903, 13.35898
944.2724, 13.63564
944.7545, 13.91885
945.2366, 13.98666
945.7188, 13.73464
946.2009, 13.51012
946.6830, 13.30391
947.1651, 13.14246
947.6472, 13.08553
948.1293, 13.09037
948.6115, 12.90743
949.0936, 12.57469
949.5757, 12.38384
950.0578, 12.72060
950.5399, 13.05526
951.0220, 12.99629
951.5042, 12.64782
951.9863, 12.51173
952.4684, 12.69544
952.9505, 12.81511
953.4326, 12.75890
953.9147, 12.64163
954.3969, 12.69144
954.8790, 12.84793
955.3611, 12.94537
955.8432, 12.92977
956.3253, 12.86575
956.8074, 12.77125
957.2896, 12.65250
957.7717, 12.50194
958.2538, 12.27867
958.7359, 12.19066
959.2180, 12.26575
959.7001, 12.36237
960.1823, 12.34369
960.6644, 12.27151
961.1465, 12.32609
961.6286, 12.48304
962.1107, 12.49806
962.5928, 12.08804
963.0750, 11.68305
963.5571, 11.43862
964.0392, 11.34536
964.5213, 11.42514
965.0034, 11.70864
965.4855, 11.87763
965.9677, 11.81246
966.4498, 11.64121
966.9319, 11.49870
967.4140, 11.39058
967.8961, 11.33656
968.3782, 11.40512
968.8604, 11.40607
969.3425, 11.25433
969.8246, 11.06712
970.3067, 10.92970
970.7888, 10.84329
971.2709, 10.80752
971.7531, 10.82477
972.2352, 10.84436
972.7173, 10.80867
973.1994, 10.76624
973.6815, 10.75939
974.1636, 10.79112
974.6458, 10.86610
975.1279, 11.06502
975.6100, 11.18664
976.0921, 11.16862
976.5742, 11.04144
977.0563, 10.83961
977.5385, 10.58664
978.0206, 10.44729
978.5027, 10.53121
978.9848, 10.63743
979.4669, 10.60824
979.9490, 10.51307
980.4311, 10.43741
980.9132, 10.37308
981.3953, 10.37755
981.8774, 10.47765
982.3596, 10.57900
982.8417, 10.60539
983.3238, 10.56364
983.8059, 10.41844
984.2880, 10.18629
984.7701, 10.07959
985.2523, 10.39860
985.7344, 10.70274
986.2165, 10.68076
986.6986, 10.83279
987.1807, 10.89845
987.6628, 10.70569
988.1450, 10.78841
988.6271, 10.42848
989.1092, 9.965765
989.5913, 9.915626
990.0734, 10.12656
990.5555, 10.33218
991.0377, 10.49642
991.5198, 10.55713
992.0019, 10.39060
992.4840, 10.21855
992.9661, 10.24116
993.4482, 10.46950
993.9304, 10.48412
994.4125, 10.27371
994.8946, 10.14371
995.3767, 10.49784
995.8588, 10.89163
996.3409, 10.83672
996.8231, 10.40178
997.3052, 10.12094
997.7873, 10.17100
998.2694, 10.18170
998.7515, 10.03445
999.2336, 9.855302
999.7158, 9.939114
1000.198, 10.21912
1000.680, 10.46508
1001.162, 10.63696
1001.644, 10.68773
1002.126, 10.45831
1002.608, 10.17775
1003.091, 10.05683
1003.573, 10.11541
1004.055, 10.25812
1004.537, 10.52054
1005.019, 10.70191
1005.501, 10.64122
1005.983, 10.42538
1006.465, 10.13151
1006.948, 9.804888
1007.430, 9.597003
1007.912, 9.557464
1008.394, 9.680024
1008.876, 10.07024
1009.358, 10.53191
1009.840, 10.71459
1010.322, 10.62389
1010.804, 10.41934
1011.287, 10.10031
1011.769, 9.825618
1012.251, 9.741619
1012.733, 9.779332
1013.215, 9.891582
1013.697, 10.09009
1014.179, 10.24634
1014.661, 10.35919
1015.143, 10.42186
1015.626, 10.41684
1016.108, 10.36535
1016.590, 10.32120
1017.072, 10.28609
1017.554, 10.26477
1018.036, 10.20807
1018.518, 10.22509
1019.000, 10.50591
1019.483, 10.81342
1019.965, 10.78160
1020.447, 10.30789
1020.929, 10.08929
1021.411, 10.19545
1021.893, 10.41171
1022.375, 10.60826
1022.857, 10.74870
1023.339, 10.75572
1023.822, 10.63067
1024.304, 10.54294
1024.786, 10.55711
1025.268, 10.58106
1025.750, 10.58470
1026.232, 10.58373
1026.714, 10.63678
1027.196, 10.72983
1027.679, 10.78380
1028.161, 10.74707
1028.643, 10.72606
1029.125, 10.82480
1029.607, 10.95584
1030.089, 11.02460
1030.571, 11.02064
1031.053, 10.96278
1031.536, 10.82393
1032.018, 10.75759
1032.500, 10.98944
1032.982, 11.30480
1033.464, 11.28958
1033.946, 11.02200
1034.428, 10.85580
1034.910, 11.05790
1035.392, 11.19415
1035.875, 11.11398
1036.357, 10.97261
1036.839, 11.09193
1037.321, 11.43155
1037.803, 11.57663
1038.285, 11.43021
1038.767, 11.32290
1039.249, 11.65557
1039.731, 12.03989
1040.214, 12.11837
1040.696, 11.84696
1041.178, 11.66004
1041.660, 11.56430
1042.142, 11.53262
1042.624, 11.55231
1043.106, 11.62930
1043.588, 11.88710
1044.071, 12.19929
1044.553, 12.27588
1045.035, 11.75253
1045.517, 11.38887
1045.999, 11.41389
1046.481, 11.55530
1046.963, 11.53396
1047.445, 11.37022
1047.927, 11.44758
1048.410, 11.77180
1048.892, 12.06509
1049.374, 12.05571
1049.856, 12.01140
1050.338, 12.12364
1050.820, 12.37326
1051.302, 12.61951
1051.784, 12.85578
1052.266, 13.11932
1052.749, 13.44423
1053.231, 13.72410
1053.713, 13.76540
1054.195, 13.67656
1054.677, 13.59710
1055.159, 13.51936
1055.641, 13.66157
1056.123, 14.20339
1056.606, 14.85196
1057.088, 15.54811
1057.570, 16.24337
1058.052, 16.55787
1058.534, 16.56074
1059.016, 16.70535
1059.498, 17.22394
1059.980, 17.91750
1060.463, 18.81522
1060.945, 19.74304
1061.427, 20.41840
1061.909, 20.66651
1062.391, 21.33745
1062.873, 22.52070
1063.355, 23.71263
1063.837, 24.37274
1064.319, 24.83687
1064.802, 25.68372
1065.284, 26.82101
1065.766, 27.57962
1066.248, 27.44121
1066.730, 27.36517
1067.212, 27.53782
1067.694, 27.83900
1068.176, 28.08186
1068.658, 28.26373
1069.141, 28.35724
1069.623, 28.35040
1070.105, 28.30974
1070.587, 28.53763
1071.069, 28.49360
1071.551, 27.68889
1072.033, 26.21262
1072.515, 25.20552
1072.998, 24.69901
1073.480, 24.16224
1073.962, 23.27534
1074.444, 22.40088
1074.926, 22.02805
1075.408, 21.90491
1075.890, 21.63403
1076.372, 20.84375
1076.854, 20.52795
1077.337, 20.79743
1077.819, 21.24315
1078.301, 21.52961
1078.783, 21.74087
1079.265, 22.10308
1079.747, 22.58370
1080.229, 22.99125
1080.711, 23.31445
1081.193, 23.44864
1081.676, 23.34604
1082.158, 23.08543
1082.640, 22.82475
1083.122, 22.54467
1083.604, 22.05092
1084.086, 21.31221
1084.568, 20.41344
1085.050, 19.22645
1085.532, 18.06441
1086.015, 17.17506
1086.497, 16.54206
1086.979, 15.98999
1087.461, 15.53171
1087.943, 15.06334
1088.425, 14.53237
1088.907, 14.01763
1089.389, 13.56476
1089.872, 13.21801
1090.354, 13.06868
1090.836, 13.25600
1091.318, 13.29158
1091.800, 13.10534
1092.282, 12.86479
1092.764, 12.63981
1093.246, 12.45000
1093.729, 12.39504
1094.211, 12.43491
1094.693, 12.42414
1095.175, 12.25541
1095.657, 12.08302
1096.139, 11.96991
1096.621, 11.85456
1097.103, 11.62505
1097.585, 11.29305
1098.068, 11.19039
1098.550, 11.33156
1099.032, 11.48540
1099.514, 11.58802
1099.996, 11.55227
1100.478, 11.18550
1100.960, 10.62614
1101.442, 10.38907
1101.924, 10.52575
1102.407, 10.69549
1102.889, 10.85501
1103.371, 10.94988
1103.853, 10.80635
1104.335, 10.63064
1104.817, 10.73122
1105.299, 11.19052
1105.781, 11.37495
1106.264, 11.13842
1106.746, 10.88101
1107.228, 10.73589
1107.710, 10.68036
1108.192, 10.74622
1108.674, 10.85062
1109.156, 10.78516
1109.638, 10.38329
1110.120, 10.07277
1110.603, 9.947738
1111.085, 9.964602
1111.567, 10.17579
1112.049, 10.52571
1112.531, 10.60184
1113.013, 10.43435
1113.495, 10.22452
1113.977, 10.03749
1114.459, 9.877532
1114.942, 9.694471
1115.424, 9.572473
1115.906, 9.637696
1116.388, 9.908886
1116.870, 10.18299
1117.352, 10.45269
1117.834, 10.65047
1118.316, 10.71558
1118.799, 10.69307
1119.281, 10.56151
1119.763, 10.36791
1120.245, 10.31767
1120.727, 10.49513
1121.209, 10.48306
1121.691, 10.15304
1122.173, 9.848255
1122.656, 10.10801
1123.138, 10.57107
1123.620, 10.73730
1124.102, 10.54066
1124.584, 10.34013
1125.066, 10.16103
1125.548, 10.02127
1126.030, 9.901093
1126.512, 9.860446
1126.995, 10.10245
1127.477, 10.50650
1127.959, 10.77344
1128.441, 10.78708
1128.923, 10.83653
1129.405, 11.13522
1129.887, 11.33644
1130.369, 11.18618
1130.851, 10.80587
1131.334, 10.82089
1131.816, 11.14954
1132.298, 11.40665
1132.780, 11.40481
1133.262, 11.33331
1133.744, 11.19903
1134.226, 11.09616
1134.708, 11.11377
1135.191, 11.25697
1135.673, 11.46334
1136.155, 11.73097
1136.637, 11.95646
1137.119, 12.01518
1137.601, 12.07082
1138.083, 12.24527
1138.565, 12.49878
1139.047, 12.73754
1139.530, 12.96666
1140.012, 13.15742
1140.494, 13.30295
1140.976, 13.43970
1141.458, 13.58521
1141.940, 13.74749
1142.422, 13.94952
1142.904, 14.17895
1143.386, 14.34322
1143.869, 14.33859
1144.351, 14.59723
1144.833, 15.24460
1145.315, 16.00809
1145.797, 16.50818
1146.279, 16.90977
1146.761, 17.45072
1147.243, 18.15958
1147.726, 18.89011
1148.208, 19.56655
1148.690, 20.36478
1149.172, 21.37943
1149.654, 22.49929
1150.136, 23.51256
1150.618, 24.45840
1151.100, 25.39558
1151.583, 26.29147
1152.065, 27.37029
1152.547, 28.73025
1153.029, 30.22504
1153.511, 31.81695
1153.993, 33.46548
1154.475, 35.02733
1154.957, 36.56625
1155.439, 38.29650
1155.922, 40.31134
1156.404, 42.48346
1156.886, 44.71069
1157.368, 47.18347
1157.850, 50.19634
1158.332, 53.65467
1158.814, 56.80539
1159.296, 59.59669
1159.778, 61.68763
1160.261, 62.76711
1160.743, 63.26180
1161.225, 63.48577
1161.707, 63.08616
1162.189, 61.65647
1162.671, 59.18632
1163.153, 55.91030
1163.635, 51.86371
1164.118, 47.80888
1164.600, 44.27457
1165.082, 40.92852
1165.564, 37.61558
1166.046, 34.37911
1166.528, 31.25061
1167.010, 28.16855
1167.492, 25.80332
1167.974, 24.22408
1168.457, 22.87133
1168.939, 21.13557
1169.421, 19.53935
1169.903, 18.58479
1170.385, 18.14611
1170.867, 17.55938
1171.349, 16.78636
1171.831, 16.05235
1172.313, 15.39068
1172.796, 14.86689
1173.278, 14.69799
1173.760, 14.60510
1174.242, 14.28916
1174.724, 13.74140
1175.206, 13.28233
1175.688, 12.92610
1176.170, 12.65122
1176.653, 12.46964
1177.135, 12.32372
1177.617, 12.13308
1178.099, 11.94331
1178.581, 11.82384
1179.063, 11.70173
1179.545, 11.59550
1180.027, 11.57787
1180.510, 11.49490
1180.992, 11.54167
1181.474, 11.63843
1181.956, 11.66753
1182.438, 11.66574
1182.920, 11.70377
1183.402, 11.83019
1183.884, 11.83701
1184.366, 11.68555
1184.849, 11.50651
1185.331, 11.34458
1185.813, 11.21353
1186.295, 11.19577
1186.777, 11.21298
1187.259, 11.10257
1187.741, 10.68514
1188.223, 10.47992
1188.705, 10.58514
1189.188, 10.72074
1189.670, 10.66700
1190.152, 10.54374
1190.634, 10.61490
1191.116, 10.82467
1191.598, 11.03930
1192.080, 11.29195
1192.562, 11.41014
1193.045, 11.34247
1193.527, 11.23914
1194.009, 11.23137
1194.491, 11.27520
1194.973, 11.25601
1195.455, 11.19587
1195.937, 11.17269
1196.419, 11.29727
1196.901, 11.32445
1197.384, 11.17698
1197.866, 11.02766
1198.348, 11.10720
1198.830, 11.29035
1199.312, 11.20307
1199.794, 10.90531
1200.276, 10.75376
1200.758, 11.05979
1201.240, 11.28185
1201.723, 11.33322
1202.205, 11.28672
1202.687, 11.19980
1203.169, 11.09194
1203.651, 10.98762
1204.133, 10.89907
1204.615, 10.89984
1205.097, 11.17705
1205.580, 11.30987
1206.062, 11.16063
1206.544, 10.93592
1207.026, 10.90049
1207.508, 11.03391
1207.990, 11.37340
1208.472, 11.90182
1208.954, 12.23838
1209.437, 12.12783
1209.919, 11.93955
1210.401, 11.71099
1210.883, 11.51337
1211.365, 11.46717
1211.847, 11.54343
1212.329, 11.67503
1212.811, 11.85243
1213.293, 12.08521
1213.776, 12.43065
1214.258, 12.77020
1214.740, 13.09891
1215.222, 13.37304
1215.704, 13.46109
1216.186, 13.44154
1216.668, 13.49904
1217.150, 13.67152
1217.632, 13.84485
1218.115, 13.93240
1218.597, 14.11728
1219.079, 14.52042
1219.561, 14.97269
1220.043, 15.04273
1220.525, 14.92460
1221.007, 15.06490
1221.489, 15.59203
1221.972, 16.15284
1222.454, 16.72426
1222.936, 17.21010
1223.418, 17.52986
1223.900, 17.81195
1224.382, 18.37780
1224.864, 19.10983
1225.346, 19.75858
1225.828, 20.24466
1226.311, 20.74502
1226.793, 21.30990
1227.275, 21.84376
1227.757, 22.33624
1228.239, 22.73023
1228.721, 22.74546
1229.203, 22.61192
1229.685, 22.85170
1230.167, 23.81793
1230.650, 24.36794
1231.132, 24.25703
1231.614, 24.14643
1232.096, 24.48280
1232.578, 24.90425
1233.060, 24.61237
1233.542, 23.90593
1234.024, 23.33528
1234.507, 22.98789
1234.989, 23.03321
1235.471, 23.74834
1235.953, 23.98395
1236.435, 22.77873
1236.917, 21.02059
1237.399, 20.21241
1237.881, 19.93365
1238.364, 19.42682
1238.846, 18.29590
1239.328, 17.54474
1239.810, 17.26366
1240.292, 17.02396
1240.774, 16.50420
1241.256, 15.93797
1241.738, 15.60182
1242.220, 15.45265
1242.703, 15.44641
1243.185, 15.75051
1243.667, 15.57518
1244.149, 14.82457
1244.631, 14.18129
1245.113, 14.26392
1245.595, 14.52769
1246.077, 14.34240
1246.559, 13.92784
1247.042, 13.68758
1247.524, 13.75415
1248.006, 13.54984
1248.488, 13.04801
1248.970, 12.61334
1249.452, 12.58223
1249.934, 12.62771
1250.416, 12.43559
1250.899, 12.15273
1251.381, 12.01778
1251.863, 12.06702
1252.345, 12.09840
1252.827, 12.11060
1253.309, 12.06209
1253.791, 11.84232
1254.273, 11.64149
1254.755, 11.66534
1255.238, 11.74008
1255.720, 11.58635
1256.202, 11.18621
1256.684, 11.06401
1257.166, 11.21049
1257.648, 11.28878
1258.130, 10.94572
1258.612, 10.64987
1259.094, 10.73257
1259.577, 10.92671
1260.059, 10.94499
1260.541, 10.80469
1261.023, 10.73835
1261.505, 10.74330
1261.987, 10.74766
1262.469, 10.71748
1262.951, 10.67318
1263.434, 10.62727
1263.916, 10.56408
1264.398, 10.45668
1264.880, 10.31656
1265.362, 10.14864
1265.844, 9.982359
1266.326, 9.966668
1266.808, 10.42743
1267.291, 10.65362
1267.773, 10.46074
1268.255, 10.14067
1268.737, 9.971334
1269.219, 9.902784
1269.701, 9.783220
1270.183, 9.641267
1270.665, 9.601215
1271.147, 9.820848
1271.630, 9.961145
1272.112, 9.981810
1272.594, 9.967419
1273.076, 10.01022
1273.558, 10.05974
1274.040, 10.00957
1274.522, 9.897844
1275.004, 9.862406
1275.486, 10.01368
1275.969, 9.968096
1276.451, 9.658647
1276.933, 9.400040
1277.415, 9.590881
1277.897, 9.864700
1278.379, 9.772319
1278.861, 9.467839
1279.343, 9.374205
1279.825, 9.584197
1280.308, 9.590257
1280.790, 9.358366
1281.272, 9.114826
1281.754, 8.945467
1282.236, 8.911556
1282.718, 9.195509
1283.200, 9.577632
1283.682, 9.685048
1284.165, 9.507449
1284.647, 9.419543
1285.129, 9.429927
1285.611, 9.423972
1286.093, 9.340274
1286.575, 9.209805
1287.057, 8.940055
1287.539, 8.724393
1288.021, 8.855834
1288.504, 9.245189
1288.986, 9.357957
1289.468, 9.215956
1289.950, 9.066118
1290.432, 9.026075
1290.914, 8.988912
1291.396, 8.916994
1291.878, 8.866557
1292.360, 8.931108
1292.843, 9.043521
1293.325, 9.003923
1293.807, 8.858235
1294.289, 8.780142
1294.771, 8.882501
1295.253, 8.975233
1295.735, 9.059418
1296.217, 9.104730
1296.700, 9.082936
1297.182, 9.008463
1297.664, 8.868278
1298.146, 8.695892
1298.628, 8.575105
1299.110, 8.524632
1299.592, 8.489475
1300.074, 8.470184
1300.557, 8.440369
1301.039, 8.310332
1301.521, 8.233130
1302.003, 8.431039
1302.485, 8.714365
1302.967, 8.820058
1303.449, 8.753407
##END=



