##NAMES=Quartz
##RRUFFID=R100134
##IDEAL CHEMISTRY=SiO_2_
##LOCALITY=Sri Lanka
##OWNER=RRUFF
##SOURCE=William W. Pinch
##DESCRIPTION=Transparent colorless cut gemstone
##STATUS=The identification of this mineral has been confirmed by single-crystal X-ray diffraction.
##URL=rruff.info/R100134
90.60547, 235.0713
91.08759, 236.0171
91.56970, 238.4447
92.05182, 239.2348
92.53394, 240.6610
93.01605, 240.4741
93.49817, 237.4767
93.98029, 232.5121
94.46240, 228.2490
94.94452, 225.4971
95.42664, 223.0202
95.90874, 220.1808
96.39086, 217.0185
96.87298, 213.9147
97.35509, 211.1036
97.83721, 208.2482
98.31933, 205.8254
98.80145, 204.1559
99.28356, 202.6423
99.76568, 200.6935
100.2478, 198.1370
100.7299, 195.4938
101.2120, 194.1124
101.6941, 195.1570
102.1763, 196.2287
102.6584, 197.3232
103.1405, 198.3470
103.6226, 199.1568
104.1047, 199.6508
104.5868, 199.8815
105.0690, 200.2014
105.5511, 200.3204
106.0332, 200.7336
106.5153, 201.9987
106.9974, 203.9808
107.4795, 205.5831
107.9617, 205.5300
108.4438, 204.4256
108.9259, 204.4269
109.4080, 206.5150
109.8901, 209.5949
110.3722, 212.1064
110.8544, 213.7758
111.3365, 215.4421
111.8186, 217.2966
112.3007, 219.5045
112.7828, 222.5245
113.2649, 226.8799
113.7471, 232.4875
114.2292, 237.9812
114.7113, 243.0538
115.1934, 248.3747
115.6755, 253.9598
116.1576, 259.9596
116.6397, 266.7079
117.1219, 274.3754
117.6040, 282.4813
118.0861, 293.3705
118.5682, 306.1623
119.0503, 321.6911
119.5324, 340.1931
120.0146, 361.7916
120.4967, 386.9001
120.9788, 415.9346
121.4609, 447.9633
121.9430, 486.8822
122.4251, 531.7083
122.9073, 583.8016
123.3894, 643.9847
123.8715, 712.7308
124.3536, 790.2492
124.8357, 879.2275
125.3178, 984.3114
125.8000, 1088.055
126.2821, 1197.516
126.7642, 1304.557
127.2463, 1377.465
127.7284, 1403.407
128.2105, 1379.162
128.6927, 1312.785
129.1748, 1191.313
129.6569, 1049.157
130.1390, 912.2927
130.6211, 778.7963
131.1032, 662.7247
131.5854, 574.7065
132.0675, 505.1303
132.5496, 448.8448
133.0317, 405.0141
133.5138, 371.7877
133.9959, 344.7959
134.4781, 325.9233
134.9602, 311.0049
135.4423, 299.2787
135.9244, 289.9398
136.4065, 282.0582
136.8886, 275.0019
137.3708, 268.8007
137.8529, 264.4702
138.3350, 263.7831
138.8171, 263.3071
139.2992, 262.2066
139.7813, 260.6591
140.2635, 259.2372
140.7456, 258.4136
141.2277, 258.2255
141.7098, 258.4792
142.1919, 259.8924
142.6740, 261.0699
143.1561, 261.2026
143.6383, 260.2621
144.1204, 258.7960
144.6025, 257.2652
145.0846, 255.6478
145.5667, 254.2477
146.0488, 253.4726
146.5310, 252.7471
147.0131, 251.4482
147.4952, 249.4360
147.9773, 247.0053
148.4594, 243.9759
148.9415, 240.4917
149.4237, 237.8881
149.9058, 237.7109
150.3879, 238.8756
150.8700, 238.1895
151.3521, 234.1976
151.8342, 229.4417
152.3164, 225.9454
152.7985, 223.6353
153.2806, 221.8486
153.7627, 220.2440
154.2448, 218.8214
154.7269, 217.3728
155.2091, 215.9166
155.6912, 214.3903
156.1733, 212.4897
156.6554, 210.2932
157.1375, 208.4594
157.6196, 207.9321
158.1018, 209.2661
158.5839, 210.3148
159.0660, 210.7793
159.5481, 211.0864
160.0302, 211.4639
160.5123, 211.9792
160.9945, 212.5826
161.4766, 213.1305
161.9587, 212.9801
162.4408, 213.8596
162.9229, 216.4482
163.4050, 219.6572
163.8871, 222.5247
164.3693, 224.6969
164.8514, 226.3869
165.3335, 228.0919
165.8156, 229.8274
166.2977, 231.5495
166.7798, 233.0891
167.2620, 234.6491
167.7441, 236.5491
168.2262, 238.9468
168.7083, 241.7245
169.1904, 244.6130
169.6725, 248.0255
170.1547, 250.8559
170.6368, 251.8028
171.1189, 251.5735
171.6010, 252.6908
172.0831, 256.6785
172.5652, 262.4938
173.0474, 267.7934
173.5295, 272.5017
174.0116, 276.8260
174.4937, 280.6117
174.9758, 283.8683
175.4579, 287.5880
175.9401, 292.4272
176.4222, 297.8964
176.9043, 303.4911
177.3864, 309.1972
177.8685, 314.8977
178.3506, 320.2515
178.8328, 324.9237
179.3149, 330.5414
179.7970, 338.0097
180.2791, 346.4748
180.7612, 355.3511
181.2433, 364.5328
181.7255, 373.8177
182.2076, 382.6648
182.6897, 390.2900
183.1718, 399.0060
183.6539, 409.5517
184.1360, 421.1011
184.6181, 432.6477
185.1003, 443.6760
185.5824, 454.6384
186.0645, 467.0188
186.5466, 481.6495
187.0287, 496.9633
187.5108, 512.6195
187.9930, 528.7444
188.4751, 545.4277
188.9572, 562.6096
189.4393, 580.4379
189.9214, 599.6669
190.4035, 620.4398
190.8857, 642.3865
191.3678, 665.7815
191.8499, 690.2018
192.3320, 715.1124
192.8141, 740.2334
193.2962, 765.5404
193.7784, 791.2517
194.2605, 816.4850
194.7426, 842.8666
195.2247, 871.6855
195.7068, 902.2874
196.1889, 932.9636
196.6711, 962.6544
197.1532, 991.5770
197.6353, 1020.971
198.1174, 1051.545
198.5995, 1082.011
199.0816, 1112.235
199.5638, 1142.142
200.0459, 1170.805
200.5280, 1197.751
201.0101, 1223.059
201.4922, 1247.159
201.9743, 1271.166
202.4565, 1293.010
202.9386, 1311.300
203.4207, 1326.098
203.9028, 1337.066
204.3849, 1342.667
204.8670, 1344.440
205.3492, 1344.622
205.8313, 1344.249
206.3134, 1341.567
206.7955, 1334.102
207.2776, 1321.333
207.7597, 1306.151
208.2419, 1289.413
208.7240, 1271.047
209.2061, 1250.601
209.6882, 1227.598
210.1703, 1203.104
210.6524, 1179.251
211.1346, 1157.281
211.6167, 1132.959
212.0988, 1104.951
212.5809, 1074.389
213.0630, 1041.291
213.5451, 1005.457
214.0273, 968.7317
214.5094, 935.6894
214.9915, 908.5295
215.4736, 881.2510
215.9557, 852.2288
216.4378, 822.6518
216.9200, 793.1227
217.4021, 764.0236
217.8842, 735.7785
218.3663, 710.0185
218.8484, 688.1617
219.3305, 667.1084
219.8127, 646.0687
220.2948, 625.6472
220.7769, 606.5607
221.2590, 589.1364
221.7411, 572.9710
222.2232, 556.8691
222.7054, 540.2044
223.1875, 524.4451
223.6696, 509.8849
224.1517, 496.1640
224.6338, 482.9144
225.1159, 469.9175
225.5980, 457.3466
226.0802, 445.7168
226.5623, 435.8896
227.0444, 426.0562
227.5265, 416.0034
228.0086, 405.8996
228.4907, 396.0546
228.9729, 386.5905
229.4550, 377.5038
229.9371, 368.9649
230.4192, 361.3789
230.9013, 353.6638
231.3834, 345.1327
231.8656, 336.5125
232.3477, 328.9888
232.8298, 323.0906
233.3119, 318.1849
233.7940, 312.8677
234.2761, 306.8678
234.7583, 301.2139
235.2404, 296.2822
235.7225, 291.8524
236.2046, 287.5432
236.6867, 283.2333
237.1688, 278.9259
237.6510, 274.4686
238.1331, 269.7759
238.6152, 265.4359
239.0973, 261.8452
239.5794, 258.7302
240.0615, 255.4758
240.5437, 251.7893
241.0258, 248.1591
241.5079, 245.1645
241.9900, 242.7394
242.4721, 240.8221
242.9542, 239.6949
243.4364, 239.0715
243.9185, 238.2298
244.4006, 237.0319
244.8827, 235.5772
245.3648, 233.9215
245.8469, 232.0928
246.3290, 230.2716
246.8112, 228.4926
247.2933, 226.7907
247.7754, 225.1861
248.2575, 223.5496
248.7396, 222.2802
249.2217, 221.8756
249.7039, 222.1035
250.1860, 222.1855
250.6681, 221.5172
251.1502, 220.3369
251.6323, 219.5564
252.1144, 219.4241
252.5966, 219.3658
253.0787, 218.7097
253.5608, 217.8342
254.0429, 217.5918
254.5250, 218.3749
255.0071, 220.1590
255.4893, 222.9416
255.9714, 227.0182
256.4535, 231.7101
256.9356, 236.1207
257.4177, 240.8711
257.8998, 246.9566
258.3820, 254.7295
258.8641, 264.2897
259.3462, 276.0215
259.8283, 290.1660
260.3104, 306.4021
260.7925, 323.7570
261.2747, 343.0349
261.7568, 365.7873
262.2389, 393.5971
262.7210, 424.1056
263.2031, 451.8579
263.6852, 481.5895
264.1674, 499.0525
264.6495, 502.6204
265.1316, 493.9731
265.6137, 472.9638
266.0958, 439.1347
266.5779, 397.1388
267.0601, 357.3098
267.5422, 318.0350
268.0243, 284.8264
268.5064, 258.8978
268.9885, 237.9078
269.4706, 220.3893
269.9528, 205.7370
270.4349, 193.5407
270.9170, 183.0328
271.3991, 174.2517
271.8812, 167.4870
272.3633, 163.4884
272.8455, 160.6474
273.3276, 157.8528
273.8097, 154.7923
274.2918, 151.7917
274.7739, 149.4059
275.2560, 148.0829
275.7382, 146.4236
276.2202, 144.0395
276.7024, 141.6745
277.1845, 139.8224
277.6666, 138.5244
278.1487, 137.4724
278.6308, 136.3181
279.1129, 135.0855
279.5951, 133.6545
280.0772, 131.4909
280.5593, 129.6076
281.0414, 128.7899
281.5235, 128.8685
282.0056, 128.9740
282.4878, 128.2401
282.9699, 126.5052
283.4520, 125.0580
283.9341, 123.8024
284.4162, 122.8655
284.8983, 122.4740
285.3805, 122.4727
285.8626, 122.4949
286.3447, 122.2655
286.8268, 121.7892
287.3089, 121.2203
287.7910, 120.5580
288.2732, 119.8172
288.7553, 118.8760
289.2374, 117.8676
289.7195, 117.0650
290.2016, 116.6497
290.6837, 116.5354
291.1659, 116.2286
291.6480, 115.5294
292.1301, 114.8737
292.6122, 114.3400
293.0943, 113.8889
293.5764, 113.5107
294.0586, 113.2062
294.5407, 112.8742
295.0228, 112.2360
295.5049, 110.4695
295.9870, 109.4171
296.4691, 109.6295
296.9513, 110.3792
297.4334, 110.9822
297.9155, 111.2022
298.3976, 111.0791
298.8797, 110.6422
299.3618, 109.4993
299.8440, 108.8025
300.3261, 108.9231
300.8082, 109.2515
301.2903, 109.2879
301.7724, 108.9442
302.2545, 108.4640
302.7367, 108.1260
303.2188, 107.9741
303.7009, 107.8167
304.1830, 107.5790
304.6651, 107.3935
305.1472, 107.5448
305.6294, 107.9159
306.1115, 107.8978
306.5936, 106.8286
307.0757, 104.6006
307.5578, 103.5928
308.0399, 104.9199
308.5221, 106.1316
309.0042, 105.8804
309.4863, 104.6019
309.9684, 103.5812
310.4505, 103.6669
310.9326, 104.6879
311.4148, 105.4600
311.8969, 105.9835
312.3790, 106.3102
312.8611, 106.4074
313.3432, 106.3223
313.8253, 106.0947
314.3075, 105.7324
314.7896, 105.3076
315.2717, 105.0050
315.7538, 104.9028
316.2359, 104.8115
316.7180, 104.7822
317.2001, 104.7284
317.6823, 104.5074
318.1644, 104.0842
318.6465, 103.6374
319.1286, 103.4669
319.6107, 103.8679
320.0928, 103.7919
320.5750, 102.5572
321.0571, 101.3252
321.5392, 101.1458
322.0213, 102.0460
322.5034, 103.1580
322.9855, 103.6167
323.4677, 103.3206
323.9498, 103.0328
324.4319, 102.6324
324.9140, 102.3461
325.3961, 102.5081
325.8782, 102.9233
326.3604, 102.9392
326.8425, 101.9923
327.3246, 100.2417
327.8067, 99.51143
328.2888, 101.0056
328.7709, 102.0069
329.2531, 101.2816
329.7352, 99.70338
330.2173, 98.78423
330.6994, 99.26591
331.1815, 100.6159
331.6636, 101.3993
332.1458, 100.7951
332.6279, 100.6263
333.1100, 101.3037
333.5921, 102.2634
334.0742, 103.0268
334.5563, 103.4351
335.0385, 103.5063
335.5206, 103.2114
336.0027, 102.2251
336.4848, 101.7352
336.9669, 101.9838
337.4490, 102.4734
337.9312, 102.7909
338.4133, 102.9789
338.8954, 103.4973
339.3775, 104.8938
339.8596, 107.3323
340.3417, 108.5895
340.8239, 107.2525
341.3060, 106.3583
341.7881, 107.3895
342.2702, 109.6740
342.7523, 111.6201
343.2344, 112.1731
343.7166, 111.7801
344.1987, 112.6185
344.6808, 115.8666
345.1629, 119.1137
345.6450, 121.9082
346.1271, 124.6784
346.6093, 127.7157
347.0914, 131.1442
347.5735, 135.3259
348.0556, 140.7702
348.5377, 146.9260
349.0198, 155.7170
349.5020, 166.1885
349.9841, 179.5203
350.4662, 196.4577
350.9483, 217.0149
351.4304, 240.8320
351.9125, 267.5046
352.3947, 297.0779
352.8768, 328.9726
353.3589, 369.2905
353.8410, 405.8008
354.3231, 439.6212
354.8052, 466.0741
355.2874, 476.9302
355.7695, 465.8301
356.2516, 435.1170
356.7337, 397.0408
357.2158, 342.1333
357.6979, 292.7354
358.1800, 251.6981
358.6621, 218.2212
359.1443, 192.2377
359.6264, 173.5394
360.1085, 160.2255
360.5906, 148.8647
361.0727, 139.3348
361.5548, 132.2425
362.0370, 129.2957
362.5191, 127.3798
363.0012, 124.6166
363.4833, 120.8343
363.9654, 117.1022
364.4475, 114.5564
364.9297, 113.2709
365.4118, 111.9233
365.8939, 110.4002
366.3760, 108.9418
366.8581, 107.5556
367.3402, 106.3103
367.8224, 105.3416
368.3045, 104.7801
368.7866, 104.5140
369.2687, 104.2140
369.7508, 103.8421
370.2329, 103.5249
370.7151, 103.2552
371.1972, 103.0787
371.6793, 103.1994
372.1614, 103.7468
372.6435, 104.0564
373.1256, 102.8684
373.6078, 99.99953
374.0899, 98.36374
374.5720, 99.65744
375.0541, 101.4468
375.5362, 101.9673
376.0183, 101.2388
376.5005, 100.1579
376.9826, 99.06741
377.4647, 98.06022
377.9468, 97.49691
378.4289, 97.48363
378.9110, 97.73557
379.3932, 98.31575
379.8753, 98.99995
380.3574, 99.32411
380.8395, 99.02843
381.3216, 98.41502
381.8037, 97.65271
382.2859, 96.72576
382.7680, 96.33656
383.2501, 97.06763
383.7322, 98.36337
384.2143, 99.31149
384.6964, 99.83447
385.1786, 100.2105
385.6607, 100.5339
386.1428, 100.8255
386.6249, 101.1223
387.1070, 101.4075
387.5891, 101.7702
388.0713, 102.3900
388.5534, 103.2392
389.0355, 103.9987
389.5176, 104.4691
389.9997, 104.9053
390.4818, 105.5516
390.9640, 106.4222
391.4461, 107.3904
391.9282, 108.2841
392.4103, 109.2330
392.8924, 110.8116
393.3745, 113.7395
393.8567, 116.4550
394.3388, 118.0420
394.8209, 119.0160
395.3030, 120.0770
395.7851, 121.3868
396.2672, 123.5908
396.7494, 127.9728
397.2315, 135.3457
397.7136, 143.0869
398.1957, 150.2286
398.6778, 158.3411
399.1599, 168.6671
399.6420, 181.3430
400.1241, 196.1560
400.6063, 213.3326
401.0884, 233.0921
401.5705, 249.7355
402.0526, 267.0413
402.5347, 277.6978
403.0168, 279.2427
403.4990, 272.6883
403.9811, 258.3864
404.4632, 236.4505
404.9453, 210.1694
405.4274, 187.3850
405.9095, 168.6020
406.3917, 153.1810
406.8738, 141.3317
407.3559, 132.2707
407.8380, 125.9777
408.3201, 122.0961
408.8022, 119.4560
409.2844, 116.8722
409.7665, 114.3105
410.2486, 112.5754
410.7307, 112.4459
411.2128, 112.3468
411.6949, 111.5822
412.1771, 110.5869
412.6592, 110.1795
413.1413, 110.8571
413.6234, 112.0179
414.1055, 112.3025
414.5876, 111.4012
415.0698, 110.5665
415.5519, 110.0252
416.0340, 109.7036
416.5161, 109.5466
416.9982, 109.5545
417.4803, 109.8155
417.9625, 110.6264
418.4446, 111.8547
418.9267, 112.5600
419.4088, 112.4749
419.8909, 112.2176
420.3730, 112.1503
420.8552, 112.2121
421.3373, 112.2696
421.8194, 112.1283
422.3015, 112.1168
422.7836, 112.8377
423.2657, 114.2761
423.7479, 115.3388
424.2300, 115.3689
424.7121, 114.9843
425.1942, 115.1708
425.6763, 116.0055
426.1584, 116.9733
426.6406, 117.8594
427.1227, 118.7365
427.6048, 119.7565
428.0869, 120.9629
428.5690, 122.1657
429.0511, 123.2015
429.5333, 124.0589
430.0154, 124.8240
430.4975, 125.2388
430.9796, 125.8060
431.4617, 126.8519
431.9438, 128.2739
432.4260, 129.7991
432.9081, 131.2891
433.3902, 132.8135
433.8723, 134.5459
434.3544, 136.7374
434.8365, 138.7107
435.3187, 139.9803
435.8008, 141.3311
436.2829, 143.4870
436.7650, 146.4666
437.2471, 149.7160
437.7292, 152.6833
438.2114, 155.3598
438.6935, 158.5641
439.1756, 162.5325
439.6577, 166.7925
440.1398, 171.2435
440.6219, 175.9189
441.1040, 180.6737
441.5862, 185.4331
442.0683, 190.7216
442.5504, 197.5582
443.0325, 206.4073
443.5146, 215.4590
443.9967, 223.7674
444.4789, 232.9012
444.9610, 243.7598
445.4431, 256.1832
445.9252, 269.5529
446.4073, 283.2865
446.8894, 297.5280
447.3716, 312.8405
447.8537, 329.2948
448.3358, 346.6257
448.8179, 364.7295
449.3000, 383.7309
449.7821, 403.5637
450.2643, 423.9029
450.7464, 446.6055
451.2285, 472.5355
451.7106, 501.9980
452.1927, 535.6702
452.6748, 573.1464
453.1570, 615.6330
453.6391, 664.0939
454.1212, 718.1525
454.6033, 779.9758
455.0854, 847.9817
455.5675, 925.1456
456.0497, 1012.590
456.5318, 1110.893
457.0139, 1224.325
457.4960, 1354.503
457.9781, 1502.153
458.4602, 1672.334
458.9424, 1867.779
459.4245, 2074.705
459.9066, 2284.089
460.3887, 2506.944
460.8708, 2762.951
461.3529, 3050.824
461.8351, 3344.310
462.3172, 3626.491
462.7993, 3897.246
463.2814, 4105.063
463.7635, 4271.830
464.2456, 4356.151
464.7278, 4337.642
465.2099, 4233.694
465.6920, 4059.241
466.1741, 3820.848
466.6562, 3540.089
467.1383, 3247.298
467.6205, 2928.973
468.1026, 2633.179
468.5847, 2360.005
469.0668, 2111.303
469.5489, 1891.386
470.0310, 1698.077
470.5132, 1528.620
470.9953, 1382.838
471.4774, 1257.887
471.9595, 1147.466
472.4416, 1052.666
472.9237, 968.8134
473.4059, 898.4726
473.8880, 836.9276
474.3701, 780.5076
474.8522, 729.1627
475.3343, 682.9883
475.8164, 643.4023
476.2986, 609.2616
476.7807, 577.2982
477.2628, 547.2408
477.7449, 519.6815
478.2270, 495.4550
478.7091, 474.3043
479.1913, 454.7499
479.6734, 437.1159
480.1555, 420.6582
480.6376, 405.0775
481.1197, 390.4043
481.6018, 376.6998
482.0839, 364.0002
482.5660, 352.0904
483.0482, 340.5546
483.5303, 329.2841
484.0124, 319.1670
484.4945, 310.8068
484.9766, 302.9779
485.4587, 294.6016
485.9409, 286.1855
486.4230, 279.3125
486.9051, 274.9590
487.3872, 271.9628
487.8693, 266.8003
488.3514, 257.1330
488.8336, 249.6631
489.3157, 246.3647
489.7978, 243.8929
490.2799, 240.0480
490.7620, 234.8034
491.2441, 229.4499
491.7263, 225.0032
492.2084, 221.3203
492.6905, 217.7095
493.1726, 214.1385
493.6547, 210.7406
494.1368, 207.5863
494.6190, 204.6531
495.1011, 201.9350
495.5832, 199.4341
496.0653, 197.1490
496.5474, 195.2942
497.0295, 193.6783
497.5117, 191.6405
497.9938, 188.9728
498.4759, 186.3218
498.9580, 184.0155
499.4401, 182.1447
499.9222, 181.0451
500.4044, 180.6448
500.8865, 181.1057
501.3686, 182.7290
501.8507, 185.2444
502.3328, 187.7957
502.8149, 190.0350
503.2971, 193.2485
503.7792, 199.1772
504.2613, 208.1285
504.7434, 219.4185
505.2255, 233.3629
505.7076, 249.0344
506.1898, 267.5237
506.6719, 287.2585
507.1540, 306.1326
507.6361, 323.2737
508.1182, 336.7338
508.6003, 342.1305
509.0825, 339.4562
509.5646, 328.6430
510.0467, 303.6368
510.5288, 275.6881
511.0109, 248.4212
511.4930, 223.1580
511.9752, 201.9917
512.4573, 186.7882
512.9394, 176.1914
513.4215, 167.2720
513.9036, 160.0467
514.3857, 154.2262
514.8679, 150.1185
515.3500, 147.1117
515.8321, 144.4395
516.3142, 142.1165
516.7963, 139.8592
517.2784, 137.4015
517.7606, 134.9944
518.2427, 133.0544
518.7248, 131.5971
519.2069, 130.1968
519.6890, 128.5335
520.1711, 126.7071
520.6533, 125.2834
521.1354, 124.2814
521.6175, 123.5698
522.0996, 123.5422
522.5817, 123.5610
523.0638, 122.9854
523.5460, 121.7226
524.0281, 120.0050
524.5102, 117.9315
524.9923, 115.5408
525.4744, 114.0762
525.9565, 114.3090
526.4387, 114.5212
526.9208, 114.4023
527.4029, 114.0713
527.8850, 113.7061
528.3671, 113.3414
528.8492, 112.7736
529.3314, 111.5699
529.8135, 109.8430
530.2956, 108.7593
530.7777, 108.6512
531.2598, 108.6390
531.7419, 107.9702
532.2241, 107.0801
532.7062, 106.7340
533.1883, 107.3198
533.6704, 107.9621
534.1525, 108.1586
534.6346, 107.9578
535.1168, 107.3856
535.5989, 106.4173
536.0810, 105.3889
536.5631, 104.6106
537.0452, 104.0930
537.5273, 103.7955
538.0095, 103.9235
538.4916, 104.0199
538.9737, 103.9516
539.4558, 103.7334
539.9379, 103.4232
540.4200, 103.0342
540.9022, 102.4788
541.3843, 101.5971
541.8664, 100.3076
542.3485, 99.14733
542.8306, 97.91286
543.3127, 97.06425
543.7948, 96.80924
544.2769, 97.01842
544.7590, 97.68366
545.2411, 98.90585
545.7233, 99.85273
546.2054, 99.13838
546.6875, 96.90563
547.1696, 95.36739
547.6517, 95.05788
548.1339, 95.11732
548.6160, 94.96642
549.0981, 94.62646
549.5802, 94.10007
550.0623, 93.11375
550.5444, 92.23432
551.0266, 91.91315
551.5087, 91.96516
551.9908, 91.98682
552.4729, 91.85915
552.9550, 91.62978
553.4371, 91.35967
553.9193, 91.05681
554.4014, 90.64754
554.8835, 90.18542
555.3656, 89.57736
555.8477, 88.43246
556.3298, 87.23341
556.8120, 86.91569
557.2941, 87.76814
557.7762, 88.75573
558.2583, 88.18272
558.7404, 85.77722
559.2225, 84.11607
559.7047, 83.48906
560.1868, 83.38330
560.6689, 83.79048
561.1510, 84.43317
561.6331, 84.84072
562.1152, 84.83625
562.5974, 84.66145
563.0795, 84.62746
563.5616, 84.62160
564.0437, 84.11681
564.5258, 82.89388
565.0079, 81.68571
565.4901, 81.16187
565.9722, 81.32191
566.4543, 81.53590
566.9364, 81.92016
567.4185, 82.22617
567.9006, 82.20057
568.3828, 82.10007
568.8649, 82.41465
569.3470, 83.21608
569.8291, 83.97152
570.3112, 84.04147
570.7933, 83.39016
571.2755, 82.68749
571.7576, 81.65073
572.2397, 80.93188
572.7218, 80.92737
573.2039, 81.18642
573.6860, 81.19544
574.1682, 80.82858
574.6503, 80.35046
575.1324, 79.82869
575.6145, 79.37172
576.0966, 79.64468
576.5787, 80.93763
577.0609, 81.93928
577.5430, 81.42394
578.0251, 80.19504
578.5072, 80.31023
578.9893, 82.71732
579.4714, 84.41966
579.9536, 83.60110
580.4357, 81.80420
580.9178, 80.91814
581.3999, 81.13705
581.8820, 81.63050
582.3641, 81.79774
582.8463, 81.67760
583.3284, 81.49003
583.8105, 81.03986
584.2926, 80.81494
584.7747, 81.17480
585.2568, 81.51755
585.7390, 81.29306
586.2211, 80.56036
586.7032, 79.82232
587.1853, 79.38885
587.6674, 79.24081
588.1495, 79.40970
588.6317, 79.96281
589.1138, 80.42235
589.5959, 80.65630
590.0780, 80.70328
590.5601, 80.65780
591.0422, 80.52077
591.5244, 80.13742
592.0065, 79.10381
592.4886, 78.08301
592.9707, 77.58760
593.4528, 77.62645
593.9349, 78.28233
594.4171, 79.65417
594.8992, 81.18100
595.3813, 81.86749
595.8634, 81.43913
596.3455, 80.95006
596.8276, 80.25249
597.3098, 79.65675
597.7919, 79.14266
598.2740, 78.85691
598.7561, 79.14681
599.2382, 80.18208
599.7203, 81.31422
600.2025, 81.73488
600.6846, 81.45261
601.1667, 80.60548
601.6488, 78.85117
602.1309, 77.25443
602.6130, 76.69954
603.0952, 76.80861
603.5773, 76.89589
604.0594, 76.92266
604.5415, 76.82637
605.0236, 76.44621
605.5057, 75.97225
605.9879, 75.81283
606.4700, 75.98563
606.9521, 75.93114
607.4342, 75.09370
607.9163, 73.65288
608.3984, 72.98119
608.8806, 73.83168
609.3627, 74.44398
609.8448, 74.51008
610.3269, 74.41071
610.8090, 74.53797
611.2911, 74.83007
611.7733, 74.81157
612.2554, 73.91721
612.7375, 72.70267
613.2196, 72.57424
613.7017, 73.63516
614.1838, 74.74394
614.6660, 75.78020
615.1481, 76.46223
615.6302, 76.43142
616.1123, 75.73431
616.5944, 74.69218
617.0765, 72.52554
617.5587, 70.83244
618.0408, 71.06271
618.5229, 72.54987
619.0050, 73.85112
619.4871, 74.45545
619.9692, 74.65844
620.4514, 74.85760
620.9335, 75.08622
621.4156, 75.05926
621.8977, 74.66121
622.3798, 74.12525
622.8619, 73.14855
623.3441, 72.24702
623.8262, 72.18239
624.3083, 73.10683
624.7904, 74.04138
625.2725, 74.19432
625.7546, 73.71661
626.2367, 72.81956
626.7188, 71.44071
627.2009, 70.52024
627.6830, 70.69604
628.1652, 71.51517
628.6473, 71.95927
629.1294, 71.96532
629.6115, 71.88960
630.0936, 71.65282
630.5757, 71.46318
631.0579, 71.52081
631.5400, 71.75381
632.0221, 71.96248
632.5042, 72.04587
632.9863, 72.03597
633.4684, 72.01020
633.9506, 72.00090
634.4327, 71.78696
634.9148, 71.03874
635.3969, 70.49881
635.8790, 70.61280
636.3611, 71.13787
636.8433, 71.74998
637.3254, 72.52404
637.8075, 72.86052
638.2896, 71.94102
638.7717, 70.38741
639.2538, 69.33535
639.7360, 68.95150
640.2181, 69.03851
640.7002, 69.53085
641.1823, 70.32021
641.6644, 70.97407
642.1465, 71.84837
642.6287, 72.04881
643.1108, 70.73133
643.5929, 69.45612
644.0750, 69.43687
644.5571, 70.38572
645.0392, 71.30614
645.5214, 71.71433
646.0035, 71.58244
646.4856, 70.45901
646.9677, 68.35231
647.4498, 67.44657
647.9319, 68.53105
648.4141, 70.04871
648.8962, 70.82604
649.3783, 70.99010
649.8604, 70.98425
650.3425, 70.71397
650.8246, 70.45164
651.3068, 70.48307
651.7889, 70.48723
652.2710, 69.86405
652.7531, 68.67735
653.2352, 67.73373
653.7173, 67.68391
654.1995, 68.34547
654.6816, 69.00706
655.1637, 69.78455
655.6458, 70.27829
656.1279, 70.45458
656.6100, 70.28638
657.0922, 69.43800
657.5743, 68.17818
658.0564, 67.41041
658.5385, 67.80543
659.0206, 68.36666
659.5027, 67.94846
659.9849, 66.93485
660.4670, 66.52674
660.9491, 67.01836
661.4312, 67.55514
661.9133, 67.28991
662.3954, 66.31203
662.8776, 65.90240
663.3597, 66.68752
663.8418, 67.22640
664.3239, 67.26195
664.8060, 67.09258
665.2881, 66.98996
665.7703, 66.93262
666.2524, 66.63811
666.7345, 65.70821
667.2166, 64.77176
667.6987, 65.25920
668.1808, 67.12060
668.6630, 68.51253
669.1451, 69.04031
669.6272, 68.86903
670.1093, 67.73325
670.5914, 65.80288
671.0735, 65.06853
671.5557, 66.52779
672.0378, 67.99953
672.5199, 69.04033
673.0020, 69.58086
673.4841, 69.32864
673.9662, 68.41899
674.4484, 67.56309
674.9305, 67.33764
675.4126, 67.52884
675.8947, 67.32212
676.3768, 66.51115
676.8589, 66.25338
677.3411, 67.20710
677.8232, 68.30772
678.3053, 68.53117
678.7874, 68.15714
679.2695, 68.22484
679.7516, 69.36536
680.2338, 70.50455
680.7159, 70.94766
681.1980, 71.00439
681.6801, 71.19497
682.1622, 71.58755
682.6443, 71.85665
683.1265, 71.69878
683.6086, 71.24209
684.0907, 71.08178
684.5728, 71.13982
685.0549, 71.66546
685.5370, 73.52952
686.0192, 75.12281
686.5013, 75.03566
686.9834, 73.88622
687.4655, 73.59444
687.9476, 75.27380
688.4297, 77.30608
688.9119, 78.04676
689.3940, 78.07875
689.8761, 78.82475
690.3582, 80.52886
690.8403, 82.38097
691.3224, 83.74007
691.8046, 84.75803
692.2867, 86.19120
692.7688, 88.37428
693.2509, 90.44936
693.7330, 92.14248
694.2151, 93.93407
694.6973, 96.31106
695.1794, 99.01625
695.6615, 101.4197
696.1436, 103.2716
696.6257, 104.6681
697.1078, 106.0105
697.5900, 107.0076
698.0721, 106.4683
698.5542, 104.1634
699.0363, 101.2628
699.5184, 98.50352
700.0005, 95.78132
700.4827, 92.74991
700.9648, 88.81479
701.4469, 85.57728
701.9290, 83.16765
702.4111, 81.35647
702.8932, 80.40508
703.3754, 79.87357
703.8575, 78.82955
704.3396, 76.85419
704.8217, 74.85669
705.3038, 74.18739
705.7859, 74.51968
706.2681, 74.17921
706.7502, 72.93706
707.2323, 71.72195
707.7144, 71.05526
708.1965, 70.73357
708.6786, 70.29765
709.1607, 69.72011
709.6428, 69.11613
710.1249, 68.19112
710.6071, 67.53871
711.0892, 67.73961
711.5713, 68.37254
712.0534, 68.74581
712.5355, 68.62244
713.0176, 68.20862
713.4998, 67.52538
713.9819, 66.70545
714.4640, 66.59329
714.9461, 67.33637
715.4282, 67.87362
715.9103, 67.63256
716.3925, 67.09447
716.8746, 67.09323
717.3567, 67.73608
717.8388, 67.92568
718.3209, 67.17741
718.8030, 66.38593
719.2852, 66.07860
719.7673, 65.93785
720.2494, 65.34541
720.7315, 64.25881
721.2136, 63.41466
721.6957, 63.55220
722.1779, 64.43790
722.6600, 65.34990
723.1421, 66.34293
723.6242, 66.87820
724.1063, 66.58733
724.5884, 66.12351
725.0706, 66.30772
725.5527, 67.06294
726.0348, 67.32066
726.5169, 66.53680
726.9990, 65.85000
727.4811, 65.74451
727.9633, 65.86180
728.4454, 65.79443
728.9275, 65.53597
729.4096, 65.36491
729.8917, 65.48798
730.3738, 65.77079
730.8560, 65.96567
731.3381, 66.07413
731.8202, 65.98859
732.3023, 65.61285
732.7844, 65.23062
733.2665, 65.04388
733.7487, 65.02123
734.2308, 65.01964
734.7129, 65.01240
735.1950, 65.07574
735.6771, 65.32082
736.1592, 65.56204
736.6414, 65.60918
737.1235, 65.53350
737.6056, 65.59692
738.0877, 65.92619
738.5698, 66.18047
739.0519, 65.64185
739.5341, 64.46785
740.0162, 64.24917
740.4983, 65.29559
740.9804, 66.17249
741.4625, 66.02354
741.9446, 65.42957
742.4268, 65.59768
742.9089, 66.80938
743.3910, 67.27660
743.8731, 66.10961
744.3552, 64.97392
744.8373, 64.64783
745.3195, 64.86401
745.8016, 65.28952
746.2837, 65.79362
746.7658, 66.24496
747.2479, 66.57188
747.7300, 66.73409
748.2122, 66.56622
748.6943, 66.06338
749.1764, 65.48590
749.6585, 64.82039
750.1406, 64.34145
750.6227, 64.42502
751.1049, 65.04716
751.5870, 65.33286
752.0691, 64.89489
752.5512, 64.67066
753.0333, 65.32397
753.5154, 65.86472
753.9976, 65.13243
754.4797, 63.50672
754.9618, 62.35382
755.4439, 62.36855
755.9260, 63.14426
756.4081, 64.60337
756.8903, 66.42355
757.3724, 67.01276
757.8545, 66.10726
758.3366, 65.30864
758.8187, 65.69272
759.3008, 66.72110
759.7830, 67.02646
760.2651, 66.15291
760.7472, 65.62968
761.2293, 65.56472
761.7114, 65.70464
762.1935, 66.22899
762.6757, 66.76648
763.1578, 66.76266
763.6399, 66.11208
764.1220, 65.40724
764.6041, 65.00264
765.0862, 64.84070
765.5684, 64.89499
766.0505, 65.12774
766.5326, 65.38142
767.0147, 65.60838
767.4968, 65.78414
767.9789, 65.82515
768.4611, 65.75761
768.9432, 66.24057
769.4253, 68.02389
769.9074, 69.06561
770.3895, 68.69499
770.8716, 67.83623
771.3538, 66.69561
771.8359, 65.56326
772.3180, 65.25596
772.8001, 66.46821
773.2822, 67.66670
773.7643, 67.57818
774.2465, 66.94201
774.7286, 66.96150
775.2107, 67.60027
775.6928, 67.87902
776.1749, 67.21371
776.6570, 66.24846
777.1392, 66.38285
777.6213, 67.86745
778.1034, 68.59367
778.5855, 68.20254
779.0676, 67.71311
779.5497, 67.46262
780.0319, 67.42037
780.5140, 67.52663
780.9961, 67.77427
781.4782, 68.27188
781.9603, 69.56123
782.4424, 70.55700
782.9246, 70.23318
783.4067, 69.39629
783.8888, 69.37667
784.3709, 70.31004
784.8530, 71.15341
785.3351, 70.98382
785.8173, 70.29565
786.2994, 70.45011
786.7815, 71.44893
787.2636, 72.00179
787.7457, 71.80494
788.2278, 71.31852
788.7100, 70.62229
789.1921, 69.97041
789.6742, 70.44576
790.1563, 73.03261
790.6384, 74.88792
791.1205, 75.43091
791.6026, 75.64165
792.0847, 76.02303
792.5668, 76.47248
793.0490, 76.55357
793.5311, 76.16090
794.0132, 76.28218
794.4953, 78.22246
794.9774, 80.97299
795.4595, 82.54954
795.9417, 83.16370
796.4238, 84.31470
796.9059, 86.52608
797.3880, 88.95882
797.8701, 90.65502
798.3522, 91.68611
798.8344, 93.06177
799.3165, 94.74898
799.7986, 96.85056
800.2807, 99.14304
800.7628, 102.0841
801.2449, 105.9781
801.7271, 110.7407
802.2092, 116.0844
802.6913, 121.9074
803.1734, 128.3583
803.6555, 135.3159
804.1376, 143.0213
804.6198, 151.8413
805.1019, 161.6101
805.5840, 172.2619
806.0661, 183.6732
806.5482, 194.9111
807.0303, 205.1655
807.5125, 214.2698
807.9946, 220.4018
808.4767, 223.5738
808.9588, 223.8675
809.4409, 221.3876
809.9230, 215.8963
810.4052, 206.5139
810.8873, 193.2011
811.3694, 180.0282
811.8515, 166.2129
812.3336, 153.6553
812.8157, 142.8367
813.2979, 133.3667
813.7800, 125.1955
814.2621, 118.1840
814.7442, 112.0960
815.2263, 106.8631
815.7084, 102.4408
816.1906, 99.19577
816.6727, 96.65625
817.1548, 93.69840
817.6369, 90.37479
818.1190, 87.69566
818.6011, 86.13321
819.0833, 85.17341
819.5654, 84.09353
820.0475, 82.88151
820.5296, 81.87326
821.0117, 81.26485
821.4938, 80.43473
821.9760, 78.95743
822.4581, 77.43295
822.9402, 76.24387
823.4223, 75.41716
823.9044, 75.07954
824.3865, 75.71968
824.8687, 76.15314
825.3508, 75.79578
825.8329, 75.11884
826.3150, 74.39294
826.7971, 73.77438
827.2792, 73.61905
827.7614, 74.09264
828.2435, 74.52486
828.7256, 73.88550
829.2077, 72.51538
829.6898, 71.60468
830.1719, 71.19096
830.6541, 71.67626
831.1362, 73.50479
831.6183, 75.16752
832.1004, 74.68087
832.5825, 72.09080
833.0646, 70.55712
833.5468, 70.61382
834.0289, 70.93822
834.5110, 71.80403
834.9931, 72.46902
835.4752, 72.27097
835.9573, 71.52351
836.4395, 71.07773
836.9216, 71.25059
837.4037, 71.39714
837.8858, 71.07107
838.3679, 70.63152
838.8500, 70.43993
839.3322, 70.45949
839.8143, 70.52023
840.2964, 70.56397
840.7785, 70.67245
841.2606, 71.01340
841.7427, 71.46071
842.2249, 71.49265
842.7070, 71.09853
843.1891, 70.45230
843.6712, 69.43334
844.1533, 68.74993
844.6354, 69.21892
845.1176, 70.49711
845.5997, 70.88249
846.0818, 69.40832
846.5639, 68.57042
847.0460, 68.45412
847.5281, 68.85392
848.0103, 70.37204
848.4924, 72.04130
848.9745, 72.21992
849.4566, 70.58961
849.9387, 69.20976
850.4208, 69.44344
850.9030, 70.12132
851.3851, 70.22369
851.8672, 69.95992
852.3493, 69.72974
852.8314, 69.63840
853.3135, 69.69019
853.7957, 69.92028
854.2778, 70.19746
854.7599, 70.26399
855.2420, 70.11900
855.7241, 69.54814
856.2062, 68.36337
856.6884, 67.61248
857.1705, 68.01890
857.6526, 68.99574
858.1347, 69.46752
858.6168, 69.31706
859.0989, 69.17870
859.5811, 69.14507
860.0632, 69.00340
860.5453, 68.57816
861.0274, 68.11999
861.5095, 67.90826
861.9916, 67.88589
862.4738, 67.73280
862.9559, 67.31457
863.4380, 66.78110
863.9201, 65.81727
864.4022, 65.06553
864.8843, 65.80882
865.3665, 67.51005
865.8486, 68.25211
866.3307, 67.24476
866.8128, 65.60350
867.2949, 64.51374
867.7770, 63.96144
868.2592, 64.06297
868.7413, 64.83173
869.2234, 65.28321
869.7055, 65.11866
870.1876, 64.65833
870.6697, 64.12437
871.1519, 63.57312
871.6340, 63.34454
872.1161, 63.67160
872.5981, 63.87297
873.0803, 63.76525
873.5624, 63.69305
874.0445, 63.96901
874.5266, 64.28905
875.0087, 64.06281
875.4908, 63.16636
875.9730, 62.74538
876.4551, 63.80265
876.9372, 64.78738
877.4193, 64.62566
877.9014, 63.87458
878.3835, 63.03379
878.8657, 62.37490
879.3478, 62.51791
879.8299, 64.05835
880.3120, 65.65858
880.7941, 65.05281
881.2762, 63.01665
881.7584, 62.08269
882.2405, 62.38893
882.7226, 63.04091
883.2047, 63.69059
883.6868, 64.14970
884.1689, 64.10746
884.6511, 63.58592
885.1332, 63.32984
885.6153, 63.48669
886.0974, 63.48202
886.5795, 63.00980
887.0616, 62.59619
887.5438, 62.77789
888.0259, 63.32456
888.5080, 63.51337
888.9901, 63.09481
889.4722, 62.87731
889.9543, 63.29831
890.4365, 63.59520
890.9186, 63.26104
891.4007, 62.61285
891.8828, 62.09278
892.3649, 61.76300
892.8470, 61.40598
893.3292, 60.68395
893.8113, 60.15388
894.2934, 60.39989
894.7755, 61.18892
895.2576, 62.47556
895.7397, 63.97294
896.2219, 64.54942
896.7040, 63.58447
897.1861, 62.12714
897.6682, 61.94480
898.1503, 62.78700
898.6324, 62.40884
899.1146, 60.69588
899.5967, 59.43666
900.0788, 59.20549
900.5609, 59.49150
901.0430, 59.86837
901.5251, 60.31046
902.0073, 60.70597
902.4894, 61.50731
902.9715, 61.31174
903.4536, 58.84216
903.9357, 56.77549
904.4178, 56.70172
904.9000, 57.51888
905.3821, 57.64342
905.8642, 56.90197
906.3463, 56.55268
906.8284, 57.11090
907.3105, 57.86726
907.7927, 58.79281
908.2748, 59.53783
908.7569, 59.61950
909.2390, 59.18856
909.7211, 58.83908
910.2032, 58.85049
910.6854, 58.90847
911.1675, 58.71248
911.6496, 58.38153
912.1317, 58.01348
912.6138, 57.68657
913.0959, 57.70027
913.5781, 58.11375
914.0602, 58.44429
914.5423, 58.13525
915.0244, 57.58184
915.5065, 58.33380
915.9886, 60.41162
916.4708, 60.97253
916.9529, 59.40272
917.4350, 57.73842
917.9171, 57.00935
918.3992, 56.98021
918.8813, 57.29062
919.3635, 58.00121
919.8456, 58.63158
920.3277, 59.48769
920.8098, 59.76043
921.2919, 58.60511
921.7740, 57.41446
922.2562, 57.20131
922.7383, 57.73738
923.2204, 58.34835
923.7025, 59.11934
924.1846, 59.53845
924.6667, 59.34327
925.1489, 58.90007
925.6310, 58.05037
926.1131, 57.29296
926.5952, 57.54901
927.0773, 58.74149
927.5594, 59.46948
928.0416, 58.72544
928.5237, 57.60340
929.0058, 56.96493
929.4879, 56.66896
929.9700, 56.52136
930.4521, 56.49240
930.9343, 56.71491
931.4164, 57.22295
931.8985, 57.45573
932.3806, 56.49297
932.8627, 54.83599
933.3448, 54.23424
933.8270, 54.58897
934.3091, 54.75195
934.7912, 54.46464
935.2733, 54.24276
935.7554, 54.48187
936.2375, 54.95822
936.7197, 55.15987
937.2018, 55.09289
937.6839, 54.63668
938.1660, 53.47722
938.6481, 52.73063
939.1302, 52.90169
939.6124, 53.45679
940.0945, 53.90462
940.5766, 54.25344
941.0587, 54.58945
941.5408, 54.97339
942.0229, 55.25256
942.5051, 55.65080
942.9872, 55.68831
943.4693, 54.69906
943.9514, 53.43330
944.4335, 52.99728
944.9156, 53.49561
945.3978, 53.94010
945.8799, 53.98554
946.3620, 53.90527
946.8441, 53.91599
947.3262, 53.81025
947.8083, 53.19221
948.2905, 52.29310
948.7726, 51.76783
949.2547, 51.86097
949.7368, 52.02580
950.2189, 51.79238
950.7010, 51.37643
951.1832, 50.90747
951.6653, 50.52730
952.1474, 50.66640
952.6295, 51.31730
953.1116, 51.94313
953.5938, 52.20408
954.0759, 52.23522
954.5580, 52.34292
955.0400, 52.43753
955.5222, 51.87205
956.0043, 50.64691
956.4864, 49.75182
956.9685, 49.50570
957.4506, 49.72149
957.9327, 50.30575
958.4149, 51.09444
958.8970, 51.26976
959.3791, 50.60611
959.8612, 50.50850
960.3433, 51.23600
960.8254, 52.15118
961.3076, 53.28387
961.7897, 54.03521
962.2718, 53.36687
962.7539, 51.23801
963.2360, 49.94418
963.7181, 50.16280
964.2003, 50.17949
964.6824, 49.49171
965.1645, 48.93591
965.6466, 49.25570
966.1287, 49.88189
966.6108, 49.76305
967.0930, 48.72603
967.5751, 47.81987
968.0572, 47.17101
968.5393, 46.80958
969.0214, 46.94502
969.5035, 47.21472
969.9857, 47.20559
970.4678, 47.05717
970.9499, 47.28504
971.4320, 48.12432
971.9141, 48.74931
972.3962, 48.52612
972.8784, 48.02827
973.3605, 47.66087
973.8426, 47.41148
974.3247, 47.24495
974.8068, 47.14004
975.2889, 47.01532
975.7711, 46.78481
976.2532, 46.75241
976.7353, 47.56801
977.2174, 48.65566
977.6995, 48.86415
978.1816, 48.37309
978.6638, 47.88390
979.1459, 47.63071
979.6280, 47.81237
980.1101, 48.69812
980.5922, 49.75521
981.0743, 49.76095
981.5565, 48.88980
982.0386, 48.20387
982.5207, 47.77686
983.0028, 47.22987
983.4849, 46.38208
983.9670, 45.75928
984.4492, 46.01186
984.9313, 46.90746
985.4134, 47.36367
985.8955, 47.34779
986.3776, 47.04004
986.8597, 46.30817
987.3419, 45.89244
987.8240, 46.30037
988.3061, 46.91692
988.7882, 46.78365
989.2703, 45.90787
989.7524, 45.66457
990.2346, 46.23635
990.7167, 47.08885
991.1988, 48.77001
991.6809, 49.84527
992.1630, 49.06283
992.6451, 47.39362
993.1273, 46.62004
993.6094, 46.90741
994.0915, 46.87809
994.5736, 45.79798
995.0557, 45.39668
995.5378, 46.79549
996.0200, 48.19769
996.5021, 48.30347
996.9842, 47.56964
997.4663, 46.93106
997.9484, 46.49650
998.4305, 46.27164
998.9127, 46.39516
999.3948, 46.55947
999.8769, 46.70416
1000.359, 46.77264
1000.841, 46.71765
1001.323, 46.54487
1001.805, 46.25436
1002.287, 45.82627
1002.770, 45.44036
1003.252, 44.94712
1003.734, 44.78674
1004.216, 45.62817
1004.698, 46.78407
1005.180, 47.30726
1005.662, 47.23642
1006.144, 47.23680
1006.627, 47.62453
1007.109, 47.91264
1007.591, 47.59392
1008.073, 47.04570
1008.555, 46.68451
1009.037, 46.44534
1009.519, 46.08326
1010.001, 45.63592
1010.483, 45.53681
1010.966, 46.09631
1011.448, 46.65374
1011.930, 46.14880
1012.412, 45.22404
1012.894, 45.25586
1013.376, 46.00453
1013.858, 46.57546
1014.340, 46.74623
1014.823, 46.62206
1015.305, 46.22521
1015.787, 45.86411
1016.269, 46.22434
1016.751, 47.04587
1017.233, 47.35983
1017.715, 47.15469
1018.197, 46.54037
1018.679, 45.56630
1019.162, 44.83715
1019.644, 44.88419
1020.126, 45.36664
1020.608, 45.54290
1021.090, 45.42876
1021.572, 45.14566
1022.054, 44.68500
1022.536, 44.65925
1023.018, 45.30155
1023.501, 46.11298
1023.983, 46.66945
1024.465, 47.01406
1024.947, 47.24321
1025.429, 47.33726
1025.911, 47.61203
1026.393, 48.18332
1026.875, 48.31549
1027.358, 47.63875
1027.840, 46.80823
1028.322, 46.44380
1028.804, 46.46461
1029.286, 46.57027
1029.768, 46.79307
1030.250, 46.94701
1030.732, 46.94990
1031.214, 47.17638
1031.697, 48.11214
1032.179, 48.64437
1032.661, 47.27238
1033.143, 44.60048
1033.625, 43.80884
1034.107, 46.02352
1034.589, 47.26304
1035.071, 47.05597
1035.553, 46.66782
1036.036, 46.44242
1036.518, 46.33113
1037.000, 46.32680
1037.482, 46.40082
1037.964, 46.37254
1038.446, 45.98650
1038.928, 46.01065
1039.410, 46.92558
1039.893, 47.59469
1040.375, 47.10045
1040.857, 46.62217
1041.339, 47.77895
1041.821, 50.09991
1042.303, 50.95910
1042.785, 49.41286
1043.267, 48.16506
1043.750, 47.31458
1044.232, 46.79021
1044.714, 46.76995
1045.196, 46.91180
1045.678, 46.77911
1046.160, 46.49468
1046.642, 46.71742
1047.124, 47.97895
1047.606, 48.67894
1048.089, 48.05392
1048.571, 47.51011
1049.053, 47.75812
1049.535, 48.23689
1050.017, 48.47418
1050.499, 48.43726
1050.981, 48.12802
1051.463, 47.35596
1051.945, 46.83339
1052.428, 46.86960
1052.910, 46.99356
1053.392, 46.96846
1053.874, 46.94834
1054.356, 47.17767
1054.838, 47.55804
1055.320, 47.69840
1055.802, 47.43136
1056.285, 47.23381
1056.767, 47.24456
1057.249, 47.35073
1057.731, 47.79738
1058.213, 48.07629
1058.695, 47.28916
1059.177, 45.92633
1059.659, 45.61790
1060.141, 47.00800
1060.624, 48.16542
1061.106, 48.26770
1061.588, 48.16045
1062.070, 48.29249
1062.552, 48.41286
1063.034, 48.01595
1063.516, 47.41463
1063.998, 47.59401
1064.480, 48.93175
1064.963, 49.90578
1065.445, 49.57048
1065.927, 49.13969
1066.409, 49.22756
1066.891, 49.53927
1067.373, 49.86406
1067.855, 50.13486
1068.337, 50.18992
1068.820, 49.96194
1069.302, 50.11810
1069.784, 51.28326
1070.266, 52.47969
1070.748, 53.30561
1071.230, 53.83613
1071.712, 53.93716
1072.194, 53.88377
1072.677, 54.19645
1073.159, 54.98602
1073.641, 55.95148
1074.123, 56.91319
1074.605, 58.08414
1075.087, 59.37299
1075.569, 61.09763
1076.051, 64.05978
1076.533, 67.46533
1077.016, 69.50943
1077.498, 70.05472
1077.980, 71.62167
1078.462, 75.77958
1078.944, 80.47019
1079.426, 85.18150
1079.908, 89.57835
1080.390, 93.90811
1080.872, 97.50204
1081.354, 99.28939
1081.837, 99.21318
1082.319, 98.25756
1082.801, 96.80812
1083.283, 94.51526
1083.765, 90.99915
1084.247, 86.81107
1084.729, 81.81786
1085.211, 76.73868
1085.694, 72.32681
1086.176, 68.71323
1086.658, 65.85023
1087.140, 63.91954
1087.622, 62.17131
1088.104, 60.33331
1088.586, 58.49971
1089.068, 56.56951
1089.551, 54.79619
1090.033, 53.59546
1090.515, 52.82255
1090.997, 51.87306
1091.479, 50.44757
1091.961, 49.45246
1092.443, 49.53655
1092.925, 49.76150
1093.407, 49.94655
1093.890, 49.78906
1094.372, 48.52398
1094.854, 46.79845
1095.336, 46.37930
1095.818, 47.81750
1096.300, 48.64140
1096.782, 47.33165
1097.264, 46.24010
1097.746, 46.46682
1098.229, 47.10278
1098.711, 47.79140
1099.193, 48.19448
1099.675, 47.55198
1100.157, 45.76517
1100.639, 44.73926
1101.121, 45.52467
1101.603, 46.30370
1102.086, 46.60545
1102.568, 46.73632
1103.050, 46.79969
1103.532, 46.86185
1104.014, 47.15724
1104.496, 47.61822
1104.978, 47.45261
1105.460, 45.86980
1105.943, 44.76394
1106.425, 44.37411
1106.907, 44.58026
1107.389, 46.07962
1107.871, 47.58590
1108.353, 47.62019
1108.835, 46.42308
1109.317, 45.27853
1109.799, 44.00859
1110.281, 43.46888
1110.764, 44.20321
1111.246, 45.03740
1111.728, 45.98475
1112.210, 46.59246
1112.692, 46.36989
1113.174, 45.56052
1113.656, 44.71247
1114.138, 43.70867
1114.621, 43.21589
1115.103, 43.52418
1115.585, 43.87699
1116.067, 44.21686
1116.549, 44.49315
1117.031, 44.66593
1117.513, 44.77097
1117.995, 44.94008
1118.478, 45.18071
1118.960, 44.77891
1119.442, 43.03318
1119.924, 42.40832
1120.406, 43.82351
1120.888, 44.85473
1121.370, 44.10108
1121.852, 43.08188
1122.334, 43.67314
1122.817, 45.49573
1123.299, 46.46372
1123.781, 46.41824
1124.263, 46.14201
1124.745, 45.56560
1125.227, 45.06898
1125.709, 44.75820
1126.191, 44.61881
1126.673, 44.71307
1127.156, 44.83126
1127.638, 44.27769
1128.120, 42.99119
1128.602, 43.21216
1129.084, 45.15588
1129.566, 46.37031
1130.048, 46.33525
1130.530, 45.73388
1131.013, 44.89381
1131.495, 44.03542
1131.977, 43.41252
1132.459, 43.09973
1132.941, 43.72591
1133.423, 45.18113
1133.905, 45.77938
1134.387, 45.36845
1134.870, 44.90257
1135.352, 44.75801
1135.834, 44.57180
1136.316, 43.90704
1136.798, 43.21369
1137.280, 43.66309
1137.762, 44.87147
1138.244, 45.45134
1138.726, 45.45275
1139.208, 45.48212
1139.691, 45.68666
1140.173, 45.77069
1140.655, 45.48141
1141.137, 45.63886
1141.619, 48.17154
1142.101, 51.26360
1142.583, 51.37174
1143.065, 49.55706
1143.548, 47.86266
1144.030, 46.79792
1144.512, 46.84227
1144.994, 48.12441
1145.476, 49.42951
1145.958, 49.60401
1146.440, 49.58699
1146.922, 50.51344
1147.405, 51.66385
1147.887, 51.81343
1148.369, 51.56269
1148.851, 52.44849
1149.333, 54.56650
1149.815, 56.35095
1150.297, 56.78868
1150.779, 57.52594
1151.261, 59.91828
1151.744, 62.53489
1152.226, 64.22433
1152.708, 65.61301
1153.190, 67.25784
1153.672, 69.37009
1154.154, 72.35641
1154.636, 76.45652
1155.118, 80.44338
1155.600, 84.23374
1156.083, 87.47196
1156.565, 89.57568
1157.047, 91.57470
1157.529, 95.14158
1158.011, 98.62007
1158.493, 99.13955
1158.975, 96.60805
1159.457, 93.73389
1159.940, 90.72958
1160.422, 87.27253
1160.904, 82.80330
1161.386, 78.66683
1161.868, 75.52311
1162.350, 72.66051
1162.832, 69.35361
1163.314, 65.86124
1163.796, 63.04560
1164.279, 61.05903
1164.761, 58.89282
1165.243, 56.40881
1165.725, 54.23993
1166.207, 52.46353
1166.689, 51.18818
1167.171, 50.56271
1167.653, 50.21397
1168.135, 49.62627
1168.618, 48.82257
1169.100, 47.86224
1169.582, 46.75381
1170.064, 45.92713
1170.546, 45.41630
1171.028, 44.87682
1171.510, 44.19445
1171.992, 43.86168
1172.474, 44.33814
1172.957, 45.06667
1173.439, 45.08126
1173.921, 44.56360
1174.403, 43.91699
1174.885, 43.23513
1175.367, 42.82366
1175.849, 42.67573
1176.331, 42.50258
1176.814, 42.17994
1177.296, 41.87302
1177.778, 41.65064
1178.260, 41.62344
1178.742, 42.04856
1179.224, 42.65339
1179.706, 43.15863
1180.188, 43.50765
1180.671, 43.68520
1181.153, 43.66684
1181.635, 43.34966
1182.117, 42.63966
1182.599, 41.80698
1183.081, 40.51026
1183.563, 39.71774
1184.045, 40.43237
1184.527, 41.60372
1185.010, 42.38822
1185.492, 42.72116
1185.974, 42.64368
1186.456, 42.14860
1186.938, 41.53680
1187.420, 40.26772
1187.902, 39.78292
1188.384, 40.73501
1188.866, 42.01487
1189.349, 43.72237
1189.831, 44.95079
1190.313, 44.38637
1190.795, 42.61291
1191.277, 42.02153
1191.759, 43.00747
1192.241, 43.41841
1192.723, 43.11627
1193.206, 42.64111
1193.688, 41.95939
1194.170, 41.77645
1194.652, 42.64918
1195.134, 43.67004
1195.616, 43.42490
1196.098, 42.36580
1196.580, 42.61377
1197.063, 43.99195
1197.545, 44.78269
1198.027, 44.85429
1198.509, 44.06985
1198.991, 42.51349
1199.473, 41.72083
1199.955, 42.86509
1200.437, 44.32037
1200.919, 43.65905
1201.401, 42.09117
1201.884, 41.69246
1202.366, 42.01838
1202.848, 42.31387
1203.330, 42.41176
1203.812, 42.06622
1204.294, 41.29683
1204.776, 41.01033
1205.258, 42.01437
1205.741, 43.08730
1206.223, 43.47318
1206.705, 43.59740
1207.187, 43.88447
1207.669, 44.03491
1208.151, 43.26849
1208.633, 42.05236
1209.115, 42.13050
1209.598, 44.18224
1210.080, 45.23824
1210.562, 43.59864
1211.044, 42.79639
1211.526, 44.40311
1212.008, 45.89531
1212.490, 45.94142
1212.972, 45.49199
1213.454, 45.80252
1213.937, 46.55339
1214.419, 45.93780
1214.901, 43.28638
1215.383, 42.98814
1215.865, 45.61255
1216.347, 46.98444
1216.829, 45.98262
1217.311, 45.33551
1217.793, 46.69232
1218.276, 48.71929
1218.758, 49.66906
1219.240, 49.86286
1219.722, 49.99818
1220.204, 50.20189
1220.686, 51.11182
1221.168, 52.53559
1221.650, 53.56354
1222.133, 54.02043
1222.615, 54.36530
1223.097, 54.85223
1223.579, 55.33626
1224.061, 55.43262
1224.543, 55.73338
1225.025, 56.82096
1225.507, 58.43399
1225.990, 60.62749
1226.472, 62.92587
1226.954, 64.47913
1227.436, 65.20235
1227.918, 65.92051
1228.400, 67.21251
1228.882, 67.77638
1229.364, 66.80123
1229.846, 65.70927
1230.328, 65.00906
1230.811, 64.43153
1231.293, 63.55648
1231.775, 62.79828
1232.257, 63.10895
1232.739, 64.47498
1233.221, 64.88464
1233.703, 64.18491
1234.185, 63.14178
1234.668, 61.73775
1235.150, 60.42232
1235.632, 59.34832
1236.114, 58.33653
1236.596, 57.26387
1237.078, 56.07308
1237.560, 54.46154
1238.042, 52.72093
1238.525, 52.11517
1239.007, 52.13166
1239.489, 50.70950
1239.971, 48.24595
1240.453, 47.21901
1240.935, 48.17558
1241.417, 49.06391
1241.899, 48.57500
1242.381, 47.79125
1242.864, 47.86928
1243.346, 47.68660
1243.828, 45.41544
1244.310, 43.09156
1244.792, 43.54972
1245.274, 45.66207
1245.756, 46.57755
1246.238, 45.87933
1246.720, 45.13403
1247.203, 44.27044
1247.685, 43.91188
1248.167, 44.71087
1248.649, 45.03465
1249.131, 43.99575
1249.613, 42.99340
1250.095, 43.20852
1250.577, 43.97692
1251.059, 43.93764
1251.542, 43.19477
1252.024, 43.08020
1252.506, 43.58782
1252.988, 43.84978
1253.470, 43.79094
1253.952, 43.61446
1254.434, 43.38652
1254.916, 42.97887
1255.399, 42.24578
1255.881, 41.80772
1256.363, 42.91468
1256.845, 44.38745
1257.327, 44.51927
1257.809, 43.84245
1258.291, 42.85277
1258.773, 41.90515
1259.255, 41.59764
1259.738, 41.95472
1260.220, 42.30920
1260.702, 42.56120
1261.184, 42.41184
1261.666, 41.14737
1262.148, 40.29180
1262.630, 40.78077
1263.112, 41.54301
1263.594, 41.92107
1264.077, 42.00826
1264.559, 41.92423
1265.041, 41.67377
1265.523, 41.21880
1266.005, 40.42149
1266.487, 40.32032
1266.969, 41.02198
1267.451, 41.69909
1267.934, 42.16028
1268.416, 42.43449
1268.898, 42.53300
1269.380, 42.60754
1269.862, 42.95519
1270.344, 43.19810
1270.826, 42.16013
1271.308, 40.80903
1271.791, 41.32469
1272.273, 42.87809
1272.755, 43.41679
1273.237, 42.89394
1273.719, 42.68193
1274.201, 43.26940
1274.683, 43.77819
1275.165, 43.87085
1275.647, 43.73374
1276.130, 43.40675
1276.612, 42.90612
1277.094, 41.97905
1277.576, 41.10869
1278.058, 40.91001
1278.540, 41.11975
1279.022, 40.96380
1279.504, 40.38511
1279.986, 40.33288
1280.469, 40.91779
1280.951, 41.25609
1281.433, 41.23993
1281.915, 40.98512
1282.397, 40.52948
1282.879, 40.21055
1283.361, 40.32502
1283.843, 40.51818
1284.326, 40.37046
1284.808, 39.87698
##END=



