##NAMES=Quartz
##RRUFFID=R040031
##IDEAL CHEMISTRY=SiO_2_
##LOCALITY=Spruce Claim, King County, Washington, USA
##OWNER=RRUFF
##SOURCE=Bob Downs
##DESCRIPTION=Colorless hexagonal prism
##STATUS=The identification of this mineral has been confirmed by X-ray diffraction and chemical analysis
##URL=rruff.info/R040031
##MEASURED CHEMISTRY=Si_1.00_O_2_
113.1730, 200.0811
113.6551, 209.4138
114.1373, 219.9703
114.6194, 230.7797
115.1015, 241.1838
115.5836, 250.7773
116.0657, 260.1132
116.5478, 269.0828
117.0300, 277.7660
117.5121, 286.7027
117.9942, 294.9904
118.4763, 303.8994
118.9584, 315.0174
119.4405, 328.9486
119.9227, 345.4678
120.4048, 363.9273
120.8869, 383.9688
121.3690, 407.6230
121.8511, 436.4055
122.3332, 469.7215
122.8154, 506.3188
123.2975, 542.8520
123.7796, 583.3085
124.2617, 633.4717
124.7438, 695.7286
125.2259, 762.7213
125.7081, 835.7106
126.1902, 910.1558
126.6723, 964.3698
127.1544, 995.2623
127.6365, 1002.378
128.1186, 976.4509
128.6008, 908.8278
129.0829, 817.7687
129.5650, 722.4937
130.0471, 623.5471
130.5292, 532.4377
131.0113, 457.9790
131.4935, 398.8480
131.9756, 350.6635
132.4577, 314.1256
132.9398, 286.9104
133.4219, 264.5284
133.9040, 246.8650
134.3862, 232.9931
134.8683, 222.6844
135.3504, 215.8061
135.8325, 210.6619
136.3146, 207.0337
136.7967, 204.8087
137.2789, 202.7096
137.7610, 200.5830
138.2431, 198.8670
138.7252, 198.3874
139.2073, 199.4449
139.6894, 200.2421
140.1716, 199.8786
140.6537, 198.0602
141.1358, 197.4105
141.6179, 198.3014
142.1000, 199.9654
142.5821, 200.9776
143.0643, 201.2429
143.5464, 201.1041
144.0285, 200.6185
144.5106, 199.5419
144.9927, 198.7954
145.4748, 198.6163
145.9570, 198.7296
146.4391, 198.3387
146.9212, 197.2198
147.4033, 195.8715
147.8854, 194.4981
148.3675, 193.0823
148.8497, 191.6755
149.3318, 190.2955
149.8139, 188.9398
150.2960, 187.5970
150.7781, 186.4374
151.2602, 185.1706
151.7424, 183.6517
152.2245, 181.4138
152.7066, 179.4525
153.1887, 177.7927
153.6708, 176.4538
154.1529, 175.5008
154.6351, 175.1490
155.1172, 175.0470
155.5993, 174.9572
156.0814, 174.8636
156.5635, 174.7672
157.0456, 174.5183
157.5278, 174.1223
158.0099, 174.1837
158.4920, 174.8883
158.9741, 176.0702
159.4562, 177.5816
159.9383, 179.6305
160.4205, 181.7841
160.9026, 183.7479
161.3847, 185.4718
161.8668, 187.7265
162.3489, 191.1825
162.8310, 195.1939
163.3132, 199.0075
163.7953, 201.7253
164.2774, 204.6780
164.7595, 208.8077
165.2416, 214.4024
165.7237, 219.6735
166.2059, 223.4490
166.6880, 226.4217
167.1701, 229.6460
167.6522, 233.5628
168.1343, 237.8920
168.6164, 242.4144
169.0985, 247.0939
169.5807, 252.1129
170.0628, 257.7256
170.5449, 263.7719
171.0270, 269.8951
171.5091, 275.9436
171.9912, 281.9776
172.4734, 287.9202
172.9555, 293.6249
173.4376, 299.8017
173.9197, 307.1863
174.4018, 315.5668
174.8839, 324.3253
175.3661, 332.4089
175.8482, 340.8060
176.3303, 350.8528
176.8124, 363.0241
177.2945, 376.3423
177.7766, 390.5347
178.2588, 405.3657
178.7409, 419.2374
179.2230, 429.8044
179.7051, 439.0737
180.1872, 450.6891
180.6693, 465.7008
181.1515, 482.6878
181.6336, 500.1688
182.1157, 518.0322
182.5978, 535.4108
183.0799, 551.0090
183.5620, 565.7756
184.0442, 581.9484
184.5263, 600.1754
185.0084, 619.9228
185.4905, 641.0126
185.9726, 663.3298
186.4547, 686.2108
186.9369, 708.8802
187.4190, 731.7264
187.9011, 755.2784
188.3832, 779.6826
188.8653, 805.1843
189.3474, 832.9460
189.8296, 863.2875
190.3117, 893.9998
190.7938, 923.6862
191.2759, 952.3544
191.7580, 979.4984
192.2401, 1004.011
192.7223, 1027.753
193.2044, 1057.235
193.6865, 1093.290
194.1686, 1130.820
194.6507, 1165.018
195.1328, 1196.007
195.6150, 1226.437
196.0971, 1256.605
196.5792, 1286.491
197.0613, 1315.911
197.5434, 1344.620
198.0255, 1373.605
198.5077, 1403.851
198.9898, 1435.631
199.4719, 1465.151
199.9540, 1491.864
200.4361, 1515.528
200.9182, 1534.893
201.4004, 1549.156
201.8825, 1561.236
202.3646, 1575.145
202.8467, 1591.563
203.3288, 1603.285
203.8109, 1608.431
204.2931, 1607.327
204.7752, 1602.458
205.2573, 1593.770
205.7394, 1581.499
206.2215, 1565.388
206.7036, 1545.194
207.1858, 1523.310
207.6679, 1500.443
208.1500, 1476.509
208.6321, 1450.220
209.1142, 1421.498
209.5963, 1390.573
210.0785, 1357.046
210.5606, 1320.332
211.0427, 1284.040
211.5248, 1249.014
212.0069, 1215.212
212.4890, 1180.769
212.9712, 1145.799
213.4533, 1109.872
213.9354, 1072.526
214.4175, 1032.434
214.8996, 993.9608
215.3817, 957.7527
215.8639, 924.1091
216.3460, 891.7845
216.8281, 860.9832
217.3102, 831.0798
217.7923, 801.4871
218.2744, 771.2146
218.7565, 743.1708
219.2387, 719.1622
219.7208, 699.0743
220.2029, 677.7025
220.6850, 654.2031
221.1671, 630.6350
221.6492, 609.8036
222.1314, 592.5141
222.6135, 575.6735
223.0956, 558.9974
223.5777, 542.2688
224.0598, 525.6456
224.5419, 508.5703
225.0241, 492.0570
225.5062, 476.9610
225.9883, 463.8226
226.4704, 451.1688
226.9525, 438.8640
227.4346, 426.7183
227.9168, 415.6125
228.3989, 405.9428
228.8810, 396.8900
229.3631, 387.7931
229.8452, 378.5037
230.3273, 369.2509
230.8095, 359.8946
231.2916, 350.3970
231.7737, 341.9415
232.2558, 335.0428
232.7379, 328.6523
233.2200, 321.7218
233.7022, 313.6556
234.1843, 306.2707
234.6664, 300.1899
235.1485, 295.4877
235.6306, 290.1845
236.1127, 283.6746
236.5949, 277.1115
237.0770, 271.5938
237.5591, 267.5820
238.0412, 263.7308
238.5233, 259.7789
239.0054, 255.7117
239.4876, 252.1234
239.9697, 249.1928
240.4518, 246.5149
240.9339, 243.6640
241.4160, 240.2273
241.8981, 237.4319
242.3803, 235.4654
242.8624, 234.3233
243.3445, 234.0641
243.8266, 235.3150
244.3087, 236.7350
244.7908, 237.1510
245.2730, 235.9509
245.7551, 235.0096
246.2372, 234.9203
246.7193, 235.5368
247.2014, 234.6698
247.6835, 231.1912
248.1657, 227.5944
248.6478, 225.9193
249.1299, 227.1363
249.6120, 228.1295
250.0941, 228.4712
250.5762, 228.2455
251.0584, 228.1467
251.5405, 228.3300
252.0226, 228.4386
252.5047, 228.1250
252.9868, 226.9403
253.4689, 226.3937
253.9511, 226.7054
254.4332, 227.7993
254.9153, 229.2247
255.3974, 231.0139
255.8795, 233.0879
256.3616, 235.2518
256.8438, 237.1180
257.3259, 240.1375
257.8080, 244.5977
258.2901, 250.2644
258.7722, 256.2698
259.2543, 262.1492
259.7365, 269.2029
260.2186, 278.4601
260.7007, 290.4043
261.1828, 302.9181
261.6649, 316.3660
262.1470, 330.1144
262.6292, 343.3641
263.1113, 357.7009
263.5934, 368.0721
264.0755, 372.3759
264.5576, 371.0489
265.0397, 361.6904
265.5219, 342.3129
266.0040, 316.1183
266.4861, 288.9916
266.9682, 259.9254
267.4503, 232.9431
267.9324, 210.5090
268.4146, 192.7498
268.8967, 177.4502
269.3788, 164.7616
269.8609, 154.3628
270.3430, 146.2247
270.8251, 140.8330
271.3073, 136.1109
271.7894, 131.1908
272.2715, 125.9333
272.7536, 121.9639
273.2357, 119.6044
273.7178, 118.1178
274.2000, 116.3128
274.6821, 114.0442
275.1642, 112.1713
275.6463, 111.2943
276.1284, 111.4170
276.6105, 110.3245
277.0927, 107.7094
277.5748, 104.5478
278.0569, 101.9869
278.5390, 100.0592
279.0211, 98.53632
279.5032, 97.44966
279.9854, 96.76348
280.4675, 96.03885
280.9496, 95.23552
281.4317, 94.53123
281.9138, 94.22891
282.3959, 94.35185
282.8781, 94.27000
283.3602, 93.83509
283.8423, 93.06604
284.3244, 91.88793
284.8065, 90.19720
285.2886, 88.70412
285.7708, 88.35909
286.2529, 89.07497
286.7350, 89.13856
287.2171, 87.95342
287.6992, 86.04826
288.1813, 84.99255
288.6635, 84.82057
289.1456, 84.73314
289.6277, 83.87261
290.1098, 82.41839
290.5919, 81.72160
291.0740, 82.25903
291.5562, 83.24459
292.0383, 82.99098
292.5204, 81.55308
293.0025, 80.13541
293.4846, 79.65082
293.9667, 79.84042
294.4489, 79.73871
294.9310, 79.13604
295.4131, 78.47120
295.8952, 78.64783
296.3773, 79.49629
296.8594, 79.93169
297.3416, 78.90043
297.8237, 77.05859
298.3058, 75.93382
298.7879, 75.67659
299.2700, 75.87275
299.7521, 76.30911
300.2343, 76.86191
300.7164, 77.11059
301.1985, 76.63591
301.6806, 75.80505
302.1627, 75.18107
302.6448, 74.78088
303.1270, 74.50523
303.6091, 74.23457
304.0912, 74.01845
304.5733, 73.94798
305.0554, 74.18456
305.5375, 74.51971
306.0197, 74.72408
306.5018, 74.80141
306.9839, 74.83486
307.4660, 74.85905
307.9481, 74.88329
308.4302, 74.92583
308.9124, 75.06117
309.3945, 75.14915
309.8766, 75.01675
310.3587, 74.70623
310.8408, 74.44550
311.3229, 74.44064
311.8051, 74.52289
312.2872, 74.51884
312.7693, 74.35437
313.2514, 74.15392
313.7335, 73.95872
314.2156, 73.77962
314.6978, 73.64526
315.1799, 73.60165
315.6620, 73.58652
316.1441, 73.58855
316.6262, 73.67287
317.1083, 73.58934
317.5905, 72.92696
318.0726, 72.05760
318.5547, 71.62253
319.0368, 72.29584
319.5189, 73.10784
320.0010, 73.64064
320.4832, 73.86702
320.9653, 73.76620
321.4474, 72.75309
321.9295, 71.60191
322.4116, 71.21868
322.8937, 73.10223
323.3759, 74.52516
323.8580, 74.39803
324.3401, 72.59637
324.8222, 71.23360
325.3043, 71.01060
325.7864, 71.12902
326.2686, 70.97321
326.7507, 69.61931
327.2328, 68.94498
327.7149, 69.69769
328.1970, 71.67920
328.6791, 72.76707
329.1613, 71.92074
329.6434, 70.96790
330.1255, 70.83939
330.6076, 72.35700
331.0897, 73.50072
331.5718, 73.95922
332.0540, 74.02895
332.5361, 74.55132
333.0182, 75.59525
333.5003, 77.00957
333.9824, 78.73673
334.4645, 80.82032
334.9467, 83.10439
335.4288, 85.48963
335.9109, 88.13412
336.3930, 91.35693
336.8751, 95.57967
337.3572, 99.46233
337.8394, 102.6357
338.3215, 105.0567
338.8036, 107.0796
339.2857, 108.4984
339.7678, 109.8843
340.2499, 111.8631
340.7320, 114.4225
341.2141, 117.4836
341.6963, 121.1950
342.1784, 125.3563
342.6605, 128.8140
343.1426, 131.3703
343.6247, 134.0129
344.1068, 137.5192
344.5890, 141.8174
345.0711, 146.4859
345.5532, 151.5395
346.0353, 156.7537
346.5174, 160.7237
346.9995, 163.5305
347.4817, 168.3067
347.9638, 177.2472
348.4459, 189.7554
348.9280, 203.6663
349.4101, 218.6978
349.8922, 235.3975
350.3744, 253.8801
350.8565, 274.2224
351.3386, 297.2720
351.8207, 324.3547
352.3028, 353.8273
352.7849, 385.2881
353.2671, 419.0690
353.7492, 448.8694
354.2313, 474.8740
354.7134, 492.4966
355.1955, 493.5195
355.6776, 470.4301
356.1598, 433.9307
356.6419, 388.1922
357.1240, 335.2463
357.6061, 286.0023
358.0882, 245.8396
358.5703, 213.0822
359.0525, 187.0621
359.5346, 168.9214
360.0167, 154.6836
360.4988, 143.1158
360.9809, 133.8540
361.4630, 126.2402
361.9452, 120.6852
362.4273, 116.1867
362.9094, 112.2060
363.3915, 108.6502
363.8736, 105.7451
364.3557, 103.9833
364.8379, 102.7960
365.3200, 101.5300
365.8021, 99.89269
366.2842, 98.29796
366.7663, 96.79998
367.2484, 95.39436
367.7306, 94.32719
368.2127, 94.04333
368.6948, 93.85284
369.1769, 93.29249
369.6590, 91.37270
370.1411, 90.30156
370.6233, 90.77160
371.1054, 92.25727
371.5875, 92.71227
372.0696, 91.28848
372.5517, 89.86137
373.0338, 89.26037
373.5160, 89.89816
373.9981, 90.13492
374.4802, 89.67933
374.9623, 89.05743
375.4444, 89.25535
375.9265, 90.72014
376.4087, 91.74039
376.8908, 91.60994
377.3729, 90.38479
377.8550, 89.86266
378.3371, 90.18534
378.8192, 90.84468
379.3014, 91.35741
379.7835, 91.71876
380.2656, 92.14063
380.7477, 92.67260
381.2298, 93.27831
381.7119, 93.77257
382.1941, 94.14176
382.6762, 94.81418
383.1583, 96.25694
383.6404, 98.27950
384.1225, 100.0907
384.6046, 101.6008
385.0868, 102.9341
385.5689, 104.0778
386.0510, 105.1386
386.5331, 106.5236
387.0152, 108.5185
387.4973, 110.9281
387.9795, 113.4995
388.4616, 116.2294
388.9437, 119.1471
389.4258, 121.9039
389.9079, 124.9669
390.3900, 129.0178
390.8722, 134.8530
391.3543, 141.0403
391.8364, 147.3254
392.3185, 153.2492
392.8006, 157.3388
393.2827, 159.0901
393.7649, 158.6124
394.2470, 155.5462
394.7291, 148.9047
395.2112, 142.3081
395.6933, 136.2199
396.1754, 131.1329
396.6576, 127.7863
397.1397, 126.9350
397.6218, 127.3007
398.1039, 128.5909
398.5860, 130.8075
399.0681, 133.6924
399.5503, 137.7363
400.0324, 142.1504
400.5145, 146.3527
400.9966, 151.2303
401.4787, 154.7355
401.9608, 157.0869
402.4430, 158.0095
402.9251, 156.3195
403.4072, 151.2845
403.8893, 144.7106
404.3714, 136.9801
404.8535, 127.2658
405.3357, 119.7210
405.8178, 114.8125
406.2999, 111.5522
406.7820, 108.6020
407.2641, 105.8901
407.7462, 103.9431
408.2284, 103.1821
408.7105, 103.3262
409.1926, 102.7450
409.6747, 101.3279
410.1568, 100.0054
410.6389, 99.61393
411.1211, 100.0428
411.6032, 100.6818
412.0853, 101.5019
412.5674, 102.3551
413.0495, 103.1155
413.5316, 103.7647
414.0138, 104.1894
414.4959, 103.9030
414.9780, 103.5128
415.4601, 104.1802
415.9422, 106.0427
416.4243, 107.7866
416.9065, 108.0181
417.3886, 107.5182
417.8707, 107.4430
418.3528, 108.4376
418.8349, 109.7510
419.3170, 111.0505
419.7992, 112.3229
420.2813, 113.4431
420.7634, 114.2774
421.2455, 115.0211
421.7276, 115.7942
422.2097, 116.6168
422.6919, 117.4832
423.1740, 118.4009
423.6561, 119.3620
424.1382, 120.3781
424.6203, 121.2349
425.1024, 122.3378
425.5846, 123.9060
426.0667, 125.9677
426.5488, 127.8421
427.0309, 129.4215
427.5130, 130.9296
427.9951, 132.5252
428.4773, 134.2492
428.9594, 135.9188
429.4415, 137.2597
429.9236, 138.6506
430.4057, 141.2608
430.8878, 145.4507
431.3700, 149.7136
431.8521, 153.3936
432.3342, 156.4924
432.8163, 159.4919
433.2984, 162.2867
433.7805, 165.3537
434.2627, 169.2603
434.7448, 173.9657
435.2269, 179.0282
435.7090, 184.3656
436.1911, 190.0631
436.6732, 196.0551
437.1554, 202.4204
437.6375, 209.6429
438.1196, 217.8522
438.6017, 227.1793
439.0838, 237.7752
439.5659, 249.6681
440.0480, 263.0004
440.5302, 278.1943
441.0123, 294.9839
441.4944, 312.9254
441.9765, 330.0439
442.4586, 349.7451
442.9407, 374.1336
443.4229, 402.9224
443.9050, 435.3065
444.3871, 470.0217
444.8692, 508.4324
445.3513, 551.5185
445.8334, 600.7036
446.3156, 652.4838
446.7977, 707.4775
447.2798, 764.1804
447.7619, 819.7402
448.2440, 871.6771
448.7261, 924.4803
449.2083, 978.0272
449.6904, 1032.413
450.1725, 1090.448
450.6546, 1152.486
451.1367, 1216.865
451.6188, 1281.206
452.1010, 1343.753
452.5831, 1413.730
453.0652, 1493.146
453.5473, 1580.462
454.0294, 1673.188
454.5115, 1771.218
454.9937, 1878.773
455.4758, 1998.768
455.9579, 2130.658
456.4400, 2272.081
456.9221, 2423.776
457.4042, 2588.976
457.8864, 2774.311
458.3685, 2976.629
458.8506, 3193.855
459.3327, 3426.841
459.8148, 3668.990
460.2969, 3918.282
460.7791, 4172.766
461.2612, 4418.111
461.7433, 4669.466
462.2254, 4894.831
462.7075, 5070.955
463.1896, 5199.345
463.6718, 5256.002
464.1539, 5228.475
464.6360, 5123.443
465.1181, 4947.034
465.6002, 4665.327
466.0823, 4351.559
466.5645, 4007.229
467.0466, 3642.252
467.5287, 3294.035
468.0108, 2955.596
468.4929, 2645.148
468.9750, 2369.237
469.4572, 2130.556
469.9393, 1919.154
470.4214, 1739.756
470.9035, 1585.143
471.3856, 1449.043
471.8677, 1333.437
472.3499, 1229.563
472.8320, 1134.376
473.3141, 1048.781
473.7962, 975.5817
474.2783, 915.5723
474.7604, 862.2670
475.2426, 812.4770
475.7247, 766.0978
476.2068, 724.2570
476.6889, 686.9636
477.1710, 652.8815
477.6531, 620.3011
478.1353, 589.7151
478.6174, 562.6100
479.0995, 540.3645
479.5816, 520.6875
480.0637, 501.4868
480.5458, 482.8587
481.0280, 465.5036
481.5101, 450.4987
481.9922, 436.4158
482.4743, 422.1544
482.9564, 407.3203
483.4385, 393.2798
483.9207, 380.7939
484.4028, 369.4230
484.8849, 358.7259
485.3670, 348.1876
485.8491, 338.9526
486.3312, 332.0588
486.8134, 326.9568
487.2955, 320.6790
487.7776, 312.3610
488.2597, 304.0985
488.7418, 296.6060
489.2239, 289.9153
489.7061, 284.2595
490.1882, 279.9377
490.6703, 276.2002
491.1524, 272.0853
491.6345, 267.4538
492.1166, 263.3086
492.5988, 259.8870
493.0809, 256.9114
493.5630, 253.7955
494.0451, 250.5120
494.5272, 247.1541
495.0093, 243.3438
495.4915, 239.5320
495.9736, 236.7876
496.4557, 235.1942
496.9378, 234.1418
497.4199, 233.6667
497.9020, 233.2645
498.3842, 232.0633
498.8663, 228.9090
499.3484, 226.1580
499.8305, 225.6526
500.3126, 226.7338
500.7947, 227.7213
501.2769, 227.0130
501.7590, 226.9308
502.2411, 228.6406
502.7232, 232.4060
503.2053, 236.7472
503.6874, 241.1570
504.1696, 246.2520
504.6517, 252.4819
505.1338, 260.7492
505.6159, 268.5996
506.0980, 276.1450
506.5801, 283.0294
507.0623, 288.7693
507.5444, 294.0143
508.0265, 296.2630
508.5086, 295.1989
508.9907, 290.5718
509.4728, 279.0128
509.9550, 259.9236
510.4371, 239.0663
510.9192, 220.4402
511.4013, 204.1767
511.8834, 191.4044
512.3655, 182.5622
512.8477, 175.9975
513.3298, 170.3179
513.8119, 165.4349
514.2940, 161.1366
514.7761, 157.0653
515.2582, 153.7489
515.7404, 152.0743
516.2225, 151.7774
516.7046, 150.9354
517.1867, 147.9588
517.6688, 144.6596
518.1509, 142.2154
518.6331, 141.0339
519.1152, 140.1034
519.5973, 139.8504
520.0794, 139.5391
520.5615, 138.2065
521.0436, 134.6155
521.5258, 131.9279
522.0079, 130.8786
522.4900, 131.1365
522.9721, 131.1610
523.4542, 130.9969
523.9363, 130.4712
524.4185, 129.2970
524.9006, 127.4774
525.3827, 126.2545
525.8648, 125.7214
526.3469, 125.2914
526.8290, 124.2487
527.3112, 122.7504
527.7933, 121.3418
528.2754, 120.0390
528.7575, 119.0698
529.2396, 118.9788
529.7217, 119.4767
530.2039, 119.7148
530.6860, 119.1231
531.1681, 118.2112
531.6502, 117.1605
532.1323, 115.9936
532.6144, 115.2230
533.0966, 115.3722
533.5787, 115.7718
534.0608, 115.9673
534.5429, 115.9544
535.0250, 115.6182
535.5071, 114.6544
535.9893, 113.4756
536.4714, 112.7187
536.9535, 112.6457
537.4356, 112.4841
537.9177, 112.0153
538.3998, 111.3116
538.8820, 110.8945
539.3641, 110.8436
539.8462, 110.7388
540.3283, 110.2846
540.8104, 109.5309
541.2925, 108.7094
541.7747, 107.7836
542.2568, 107.1261
542.7389, 107.4785
543.2210, 108.3982
543.7031, 108.8382
544.1852, 108.4357
544.6674, 107.5687
545.1495, 106.2562
545.6316, 104.7318
546.1137, 103.5791
546.5958, 103.2908
547.0779, 103.2492
547.5601, 103.2235
548.0422, 103.2004
548.5243, 102.9754
549.0064, 102.3992
549.4885, 101.6808
549.9706, 100.9520
550.4528, 100.2771
550.9349, 99.44556
551.4170, 98.23743
551.8991, 97.02807
552.3812, 96.41286
552.8633, 96.52502
553.3455, 96.69072
553.8276, 96.76035
554.3097, 96.76583
554.7918, 96.94940
555.2739, 97.30875
555.7560, 97.27428
556.2382, 96.15688
556.7203, 94.46107
557.2024, 93.33431
557.6845, 92.83945
558.1666, 92.50304
558.6487, 92.07573
559.1309, 91.52632
559.6130, 90.74257
560.0951, 89.33943
560.5772, 88.39071
561.0593, 88.93211
561.5414, 90.19662
562.0236, 90.82226
562.5057, 89.53557
562.9878, 88.56199
563.4699, 88.84843
563.9520, 90.21981
564.4341, 90.74934
564.9163, 90.04339
565.3984, 89.04072
565.8805, 88.02904
566.3626, 86.86504
566.8447, 86.73587
567.3268, 87.91432
567.8090, 89.35609
568.2911, 89.71768
568.7732, 89.14580
569.2553, 89.01441
569.7374, 89.81349
570.2195, 90.73747
570.7017, 90.53847
571.1838, 89.50038
571.6659, 88.53075
572.1480, 88.06924
572.6301, 87.86047
573.1122, 87.78557
573.5944, 87.81279
574.0765, 87.73102
574.5586, 87.25536
575.0407, 86.78452
575.5228, 86.55974
576.0049, 86.66651
576.4871, 86.87114
576.9692, 87.31377
577.4513, 87.74516
577.9334, 87.97004
578.4155, 88.08237
578.8976, 87.68116
579.3798, 86.43877
579.8619, 84.87633
580.3440, 84.32519
580.8261, 84.84024
581.3082, 85.67702
581.7903, 86.76660
582.2725, 87.88061
582.7546, 88.22951
583.2367, 87.86060
583.7188, 87.35274
584.2009, 86.71782
584.6830, 86.37502
585.1652, 87.25884
585.6473, 89.77522
586.1294, 91.54765
586.6115, 90.43764
587.0936, 88.20072
587.5757, 86.69521
588.0578, 87.02318
588.5399, 87.37412
589.0220, 87.42442
589.5042, 87.27753
589.9863, 87.16408
590.4684, 86.98615
590.9505, 87.01295
591.4326, 87.40708
591.9147, 88.10225
592.3969, 88.46407
592.8790, 88.42094
593.3611, 88.35453
593.8432, 88.70248
594.3253, 89.29921
594.8074, 89.17697
595.2896, 88.25468
595.7717, 87.05987
596.2538, 85.70537
596.7359, 84.52222
597.2180, 84.21017
597.7001, 85.31760
598.1823, 86.53915
598.6644, 87.30447
599.1465, 87.54012
599.6286, 87.11684
600.1107, 85.09789
600.5928, 83.34575
601.0750, 82.48325
601.5571, 82.45942
602.0392, 82.58418
602.5213, 83.13125
603.0034, 83.43554
603.4855, 83.09698
603.9677, 82.02957
604.4498, 81.59779
604.9319, 81.97780
605.4140, 82.43031
605.8961, 82.13777
606.3782, 81.23892
606.8604, 80.77615
607.3425, 80.97570
607.8246, 81.21645
608.3067, 80.61467
608.7888, 79.50031
609.2709, 78.57778
609.7531, 77.92513
610.2352, 77.75346
610.7173, 78.55070
611.1994, 79.96497
611.6815, 81.04192
612.1636, 81.61378
612.6458, 81.67576
613.1279, 80.91756
613.6100, 79.30769
614.0921, 78.50535
614.5742, 79.05909
615.0563, 79.68707
615.5385, 79.57410
616.0206, 78.48396
616.5027, 78.17875
616.9848, 78.89687
617.4669, 79.68282
617.9490, 79.19621
618.4312, 77.71751
618.9133, 76.72798
619.3954, 76.59647
619.8775, 76.83762
620.3596, 76.90424
620.8417, 76.89458
621.3239, 77.02461
621.8060, 77.63625
622.2881, 78.18453
622.7702, 78.32719
623.2523, 78.13264
623.7344, 77.89493
624.2166, 77.31590
624.6987, 77.06725
625.1808, 77.63339
625.6629, 79.11937
626.1450, 79.78701
626.6271, 79.29656
627.1093, 78.54579
627.5914, 78.17010
628.0735, 78.20362
628.5556, 78.08757
629.0377, 77.76884
629.5198, 77.40898
630.0020, 77.22157
630.4841, 77.15179
630.9662, 77.00061
631.4483, 76.64454
631.9304, 76.35242
632.4125, 76.56374
632.8947, 77.01901
633.3768, 77.19734
633.8589, 76.59692
634.3410, 75.96723
634.8231, 75.56831
635.3052, 75.39684
635.7874, 75.39211
636.2695, 75.79993
636.7516, 76.07520
637.2337, 75.86452
637.7158, 75.10890
638.1979, 75.39698
638.6801, 77.17732
639.1622, 78.72074
639.6443, 78.19514
640.1264, 75.93529
640.6085, 74.97005
641.0906, 75.65383
641.5728, 76.91911
642.0549, 78.04613
642.5370, 78.87601
643.0191, 79.06944
643.5012, 78.25081
643.9833, 77.34657
644.4655, 76.90099
644.9476, 76.77681
645.4297, 76.72127
645.9118, 76.82967
646.3939, 76.82587
646.8760, 76.65529
647.3582, 76.32195
647.8403, 75.78318
648.3224, 74.82177
648.8045, 74.07079
649.2866, 73.75127
649.7687, 73.84268
650.2509, 74.36239
650.7330, 75.38524
651.2151, 76.08455
651.6972, 75.46335
652.1793, 74.11304
652.6614, 73.52016
653.1436, 73.81499
653.6257, 74.31440
654.1078, 74.61587
654.5899, 74.77198
655.0720, 74.86565
655.5541, 75.02490
656.0363, 74.88431
656.5184, 73.96151
657.0005, 72.81868
657.4826, 72.19862
657.9647, 72.44353
658.4468, 72.68941
658.9290, 72.89545
659.4111, 73.00873
659.8932, 72.79695
660.3753, 72.19142
660.8574, 71.84994
661.3395, 72.11440
661.8217, 72.74116
662.3038, 73.30894
662.7859, 73.76758
663.2680, 73.77700
663.7501, 72.51845
664.2322, 71.09866
664.7144, 70.66045
665.1965, 71.23697
665.6786, 71.99310
666.1607, 72.97435
666.6428, 73.72623
667.1249, 73.92780
667.6071, 73.34243
668.0892, 72.71384
668.5713, 71.81049
669.0534, 71.11140
669.5355, 71.13258
670.0176, 71.99169
670.4998, 72.75976
670.9819, 73.35109
671.4640, 73.83287
671.9461, 74.50685
672.4282, 75.19416
672.9103, 75.12418
673.3925, 73.56075
673.8746, 71.99814
674.3567, 72.18559
674.8388, 73.51434
675.3209, 74.68602
675.8030, 75.13757
676.2852, 75.35122
676.7673, 75.39155
677.2494, 75.31374
677.7315, 75.41536
678.2136, 75.76587
678.6957, 76.21733
679.1779, 76.78606
679.6600, 77.46100
680.1421, 77.71312
680.6242, 77.44032
681.1063, 77.36074
681.5884, 78.13326
682.0706, 79.50183
682.5527, 80.65889
683.0348, 81.57740
683.5169, 82.29549
683.9990, 82.72409
684.4811, 83.05262
684.9633, 83.54774
685.4454, 84.37563
685.9275, 84.98609
686.4096, 84.82326
686.8917, 84.52927
687.3738, 84.84300
687.8560, 86.41451
688.3381, 87.42415
688.8202, 87.46611
689.3023, 87.19897
689.7844, 87.75325
690.2665, 89.18217
690.7487, 90.79527
691.2308, 92.50626
691.7129, 94.16315
692.1950, 95.52574
692.6771, 96.63735
693.1592, 97.68286
693.6414, 98.99407
694.1235, 100.0740
694.6056, 100.4003
695.0877, 100.1121
695.5698, 99.82137
696.0519, 100.3633
696.5341, 100.3140
697.0162, 98.78815
697.4983, 95.82915
697.9804, 93.58912
698.4625, 92.26459
698.9446, 91.25750
699.4268, 90.39541
699.9089, 89.64965
700.3910, 88.37753
700.8731, 86.54256
701.3552, 84.64505
701.8373, 82.85755
702.3195, 81.37964
702.8016, 80.78028
703.2837, 81.27199
703.7658, 81.56252
704.2479, 80.51738
704.7300, 79.06672
705.2122, 78.12456
705.6943, 78.47648
706.1764, 78.29500
706.6585, 76.87790
707.1406, 75.26632
707.6227, 74.79120
708.1049, 75.80225
708.5870, 76.52155
709.0691, 76.67632
709.5512, 76.44780
710.0333, 75.98157
710.5154, 75.35152
710.9976, 74.96799
711.4797, 75.05336
711.9618, 75.33808
712.4439, 75.73589
712.9260, 76.11539
713.4081, 76.16972
713.8903, 75.17052
714.3724, 74.43864
714.8545, 74.83431
715.3366, 76.08762
715.8187, 76.40996
716.3008, 75.30939
716.7830, 74.08424
717.2651, 72.94724
717.7472, 72.00476
718.2293, 72.50823
718.7114, 74.56657
719.1935, 76.25335
719.6757, 75.90824
720.1578, 74.49076
720.6399, 73.75657
721.1220, 73.74934
721.6041, 74.03793
722.0862, 74.72902
722.5684, 75.33199
723.0505, 75.41179
723.5326, 74.78633
724.0147, 74.28284
724.4968, 73.93896
724.9789, 73.82814
725.4611, 74.14574
725.9432, 75.23266
726.4253, 75.17966
726.9074, 73.59258
727.3895, 71.99779
727.8716, 72.50155
728.3538, 74.49331
728.8359, 75.35892
729.3180, 74.48870
729.8001, 73.32876
730.2822, 73.17690
730.7643, 73.55229
731.2465, 73.80631
731.7286, 73.54555
732.2107, 73.47480
732.6928, 74.15490
733.1749, 75.00568
733.6570, 75.08092
734.1392, 73.77509
734.6213, 73.10075
735.1034, 73.57550
735.5855, 74.53615
736.0676, 74.44396
736.5497, 73.39130
737.0319, 72.84370
737.5140, 73.53230
737.9961, 74.63273
738.4782, 75.13802
738.9603, 75.18319
739.4424, 75.11488
739.9246, 75.00959
740.4067, 74.90699
740.8888, 74.87614
741.3709, 74.87894
741.8530, 74.72230
742.3351, 74.24244
742.8173, 73.84496
743.2994, 73.63404
743.7815, 73.59591
744.2636, 73.69965
744.7457, 73.95764
745.2278, 74.18231
745.7100, 74.21520
746.1921, 74.15868
746.6742, 74.13924
747.1563, 74.17976
747.6384, 74.43089
748.1205, 75.65591
748.6027, 76.58602
749.0848, 75.92378
749.5669, 73.52345
750.0490, 72.27523
750.5311, 73.61619
751.0132, 74.95505
751.4954, 74.97080
751.9775, 73.51611
752.4596, 72.94763
752.9417, 73.39698
753.4238, 74.05956
753.9059, 74.38762
754.3881, 74.43531
754.8702, 74.25477
755.3523, 73.84576
755.8344, 73.56468
756.3165, 73.64397
756.7986, 73.99336
757.2808, 74.63835
757.7629, 75.78355
758.2450, 76.47701
758.7271, 76.19130
759.2092, 75.71709
759.6913, 75.63963
760.1735, 76.15065
760.6556, 76.19156
761.1377, 75.62280
761.6198, 74.94289
762.1019, 74.63280
762.5840, 74.65975
763.0662, 75.00523
763.5483, 75.72804
764.0304, 76.42255
764.5125, 76.76849
764.9946, 76.87401
765.4767, 76.86020
765.9589, 76.77158
766.4410, 76.52770
766.9231, 75.60133
767.4052, 74.83369
767.8873, 75.32190
768.3694, 77.60428
768.8516, 78.94501
769.3337, 78.88358
769.8158, 78.18872
770.2979, 77.96678
770.7800, 78.07554
771.2621, 77.94442
771.7443, 77.26819
772.2264, 76.69733
772.7085, 77.01454
773.1906, 77.72961
773.6727, 78.11131
774.1548, 77.28382
774.6370, 76.94363
775.1191, 77.69185
775.6012, 78.93929
776.0833, 79.75642
776.5654, 80.05043
777.0475, 80.35856
777.5297, 80.84811
778.0118, 81.28620
778.4939, 81.12414
778.9760, 80.51939
779.4581, 80.04564
779.9402, 79.83521
780.4224, 79.94582
780.9045, 80.65319
781.3866, 81.67921
781.8687, 82.49757
782.3508, 82.79447
782.8329, 83.07063
783.3151, 83.44942
783.7972, 83.85539
784.2793, 84.11242
784.7614, 84.19240
785.2435, 84.24406
785.7256, 84.24521
786.2077, 84.32752
786.6898, 84.67024
787.1719, 85.31144
787.6541, 86.36008
788.1362, 88.60416
788.6183, 90.57865
789.1004, 90.59001
789.5825, 89.56781
790.0646, 89.83675
790.5468, 93.44752
791.0289, 96.54115
791.5110, 98.14433
791.9931, 98.76454
792.4752, 99.82815
792.9573, 101.3641
793.4395, 103.1690
793.9216, 105.2450
794.4037, 107.5047
794.8858, 109.9009
795.3679, 112.3598
795.8500, 114.5372
796.3322, 115.6913
796.8143, 117.1080
797.2964, 119.8688
797.7785, 123.5503
798.2606, 126.5005
798.7427, 127.8278
799.2249, 129.5070
799.7070, 131.8891
800.1891, 134.9708
800.6712, 139.0087
801.1533, 144.0013
801.6354, 148.9695
802.1176, 152.9096
802.5997, 157.1729
803.0818, 164.4958
803.5639, 173.9243
804.0460, 182.5501
804.5281, 187.7587
805.0103, 193.1816
805.4924, 201.4892
805.9745, 211.5682
806.4566, 218.5570
806.9387, 221.3347
807.4208, 223.3869
807.9030, 226.2056
808.3851, 228.6050
808.8672, 226.7857
809.3493, 220.9830
809.8314, 213.3157
810.3135, 204.3861
810.7957, 194.5398
811.2778, 183.5139
811.7599, 171.8409
812.2420, 161.0125
812.7241, 151.1250
813.2062, 142.6759
813.6884, 136.2729
814.1705, 131.3470
814.6526, 126.2567
815.1347, 120.7671
815.6168, 115.9225
816.0989, 112.0703
816.5811, 108.9686
817.0632, 106.1213
817.5453, 103.5464
818.0274, 101.3671
818.5095, 99.77481
818.9916, 98.46970
819.4738, 97.23946
819.9559, 96.14355
820.4380, 95.36419
820.9201, 95.63512
821.4022, 95.26649
821.8843, 93.68217
822.3665, 91.43813
822.8486, 90.07234
823.3307, 89.62215
823.8128, 89.12287
824.2949, 88.10223
824.7770, 87.09566
825.2592, 87.21916
825.7413, 87.96662
826.2234, 88.13242
826.7055, 86.53828
827.1876, 85.00935
827.6697, 84.08688
828.1519, 83.75262
828.6340, 83.91311
829.1161, 84.88002
829.5982, 85.61455
830.0803, 85.96781
830.5624, 85.94099
831.0446, 85.23026
831.5267, 84.03925
832.0088, 83.45787
832.4909, 84.14118
832.9730, 85.01028
833.4551, 85.07441
833.9373, 84.67540
834.4194, 84.36485
834.9015, 84.26280
835.3836, 84.31099
835.8657, 84.65421
836.3478, 85.02676
836.8300, 84.86225
837.3121, 84.04132
837.7942, 84.00647
838.2763, 85.24477
838.7584, 86.62930
839.2405, 86.40856
839.7227, 85.22357
840.2048, 84.35968
840.6869, 84.18285
841.1690, 84.34578
841.6511, 84.98149
842.1332, 85.72289
842.6154, 86.12989
843.0975, 86.14903
843.5796, 85.87440
844.0617, 85.14180
844.5438, 84.43029
845.0259, 84.52408
845.5081, 85.21183
845.9902, 85.33168
846.4723, 84.61399
846.9544, 83.94561
847.4365, 84.29266
847.9186, 85.00537
848.4008, 85.38098
848.8829, 85.23359
849.3650, 84.90907
849.8471, 84.36704
850.3292, 83.76169
850.8113, 83.16792
851.2935, 82.56798
851.7756, 82.12386
852.2577, 81.82220
852.7398, 81.82784
853.2219, 82.80422
853.7040, 83.98009
854.1862, 83.84499
854.6683, 82.16637
855.1504, 80.93320
855.6325, 81.53623
856.1146, 82.51400
856.5967, 82.94199
857.0789, 82.75822
857.5610, 82.52206
858.0431, 82.27164
858.5252, 81.85488
859.0073, 80.84435
859.4894, 79.58971
859.9716, 79.64940
860.4537, 80.88665
860.9358, 81.78944
861.4179, 81.11526
861.9000, 79.99313
862.3821, 79.18749
862.8643, 78.72710
863.3464, 78.07201
863.8285, 76.68142
864.3106, 75.97699
864.7927, 76.78912
865.2748, 78.63262
865.7570, 79.16168
866.2391, 78.44326
866.7212, 77.54044
867.2033, 76.79088
867.6854, 76.29827
868.1675, 76.28574
868.6497, 76.61653
869.1318, 76.90052
869.6139, 76.92903
870.0960, 76.99580
870.5781, 77.21559
871.0602, 77.50410
871.5424, 77.61690
872.0245, 77.52400
872.5066, 77.57164
872.9887, 77.93298
873.4708, 78.32028
873.9529, 78.11592
874.4351, 77.62325
874.9172, 77.51855
875.3993, 78.33292
875.8814, 79.11313
876.3635, 79.75636
876.8456, 80.03382
877.3278, 79.53829
877.8099, 77.70475
878.2920, 76.95598
878.7741, 77.78124
879.2562, 79.04747
879.7383, 79.25389
880.2205, 78.74287
880.7026, 78.49686
881.1847, 78.72932
881.6668, 79.00229
882.1489, 78.95548
882.6310, 78.85732
883.1132, 78.93574
883.5953, 79.20857
884.0774, 79.76894
884.5595, 80.90868
885.0416, 81.78329
885.5237, 81.48600
886.0059, 80.26729
886.4880, 79.77348
886.9701, 80.03936
887.4522, 80.34343
887.9343, 79.94119
888.4164, 79.50740
888.8986, 79.67721
889.3807, 80.48383
889.8628, 81.30013
890.3449, 82.42433
890.8270, 82.95818
891.3091, 82.28065
891.7913, 80.74410
892.2734, 80.41275
892.7555, 81.23022
893.2376, 81.93155
893.7197, 81.62438
894.2018, 81.05521
894.6840, 80.99269
895.1661, 81.30643
895.6482, 81.63390
896.1303, 82.10226
896.6124, 82.26158
897.0945, 81.96194
897.5767, 81.34809
898.0588, 80.68989
898.5409, 79.97308
899.0230, 79.35361
899.5051, 78.83427
899.9872, 78.50049
900.4694, 78.59506
900.9515, 78.90559
901.4336, 79.04385
901.9157, 78.66393
902.3978, 78.58102
902.8799, 79.56178
903.3621, 80.54961
903.8442, 80.49210
904.3263, 79.09700
904.8084, 78.48415
905.2905, 78.85248
905.7726, 79.35300
906.2548, 78.95952
906.7369, 78.23006
907.2190, 78.15507
907.7011, 78.85140
908.1832, 79.53564
908.6653, 80.34335
909.1475, 80.56117
909.6296, 79.56371
910.1117, 77.39355
910.5938, 76.01977
911.0759, 75.49823
911.5580, 75.53893
912.0402, 76.24346
912.5223, 77.26842
913.0044, 77.99017
913.4865, 78.43112
913.9686, 78.63145
914.4507, 78.49121
914.9329, 78.24321
915.4150, 77.88399
915.8971, 77.50117
916.3792, 77.33290
916.8613, 77.45036
917.3434, 77.45257
917.8256, 77.15181
918.3077, 76.90977
918.7898, 77.51598
919.2719, 78.62243
919.7540, 79.42265
920.2361, 79.68608
920.7183, 79.60134
921.2004, 79.06374
921.6825, 78.33410
922.1646, 77.62465
922.6467, 76.74947
923.1288, 76.58369
923.6110, 77.32285
924.0931, 78.13075
924.5752, 78.14015
925.0573, 77.63699
925.5394, 77.19358
926.0215, 76.85599
926.5037, 76.62767
926.9858, 76.75549
927.4679, 76.77516
927.9500, 76.20002
928.4321, 75.10969
928.9142, 74.75824
929.3964, 75.38402
929.8785, 75.84735
930.3606, 75.57494
930.8427, 74.87403
931.3248, 74.27177
931.8069, 73.82070
932.2891, 73.69329
932.7712, 74.45689
933.2533, 75.01387
933.7354, 74.58801
934.2175, 73.74333
934.6996, 73.66536
935.1818, 74.75032
935.6639, 75.15098
936.1460, 74.46903
936.6281, 73.51701
937.1102, 73.50899
937.5923, 74.02045
938.0745, 74.08787
938.5566, 73.43854
939.0387, 72.81900
939.5208, 72.57571
940.0029, 72.53192
940.4850, 72.53346
940.9672, 72.54234
941.4493, 73.00346
941.9314, 74.09380
942.4135, 74.77248
942.8956, 73.83763
943.3777, 72.19484
943.8599, 71.79421
944.3420, 72.40816
944.8241, 72.74912
945.3062, 71.43877
945.7883, 70.55031
946.2704, 71.51765
946.7526, 73.47049
947.2347, 73.87685
947.7168, 72.41697
948.1989, 71.58817
948.6810, 72.20764
949.1631, 73.32696
949.6453, 73.65816
950.1274, 73.47119
950.6095, 73.26216
951.0916, 73.20284
951.5737, 73.04912
952.0558, 72.43718
952.5380, 71.92480
953.0201, 72.02911
953.5022, 72.86632
953.9843, 73.40582
954.4664, 73.61021
954.9485, 73.68616
955.4307, 74.07616
955.9128, 74.27831
956.3949, 73.21055
956.8770, 71.01012
957.3591, 69.74738
957.8412, 71.08862
958.3234, 72.37408
958.8055, 72.76086
959.2876, 72.47071
959.7697, 72.31004
960.2518, 72.27502
960.7339, 72.19592
961.2161, 71.99935
961.6982, 71.75300
962.1803, 71.37331
962.6624, 71.03822
963.1445, 71.02402
963.6266, 71.75008
964.1088, 72.30200
964.5909, 72.71837
965.0730, 72.84157
965.5551, 72.30104
966.0372, 71.21593
966.5193, 70.70243
967.0015, 70.84589
967.4836, 71.17909
967.9657, 71.45503
968.4478, 71.67615
968.9299, 71.91373
969.4120, 72.15813
969.8942, 71.98544
970.3763, 71.06722
970.8584, 70.44093
971.3405, 70.67654
971.8226, 71.28857
972.3047, 70.66637
972.7869, 69.16631
973.2690, 68.26591
973.7511, 69.03050
974.2332, 69.87942
974.7153, 69.73097
975.1974, 69.23313
975.6796, 69.39555
976.1617, 70.76354
976.6438, 71.20800
977.1259, 70.44113
977.6080, 69.40476
978.0901, 69.06963
978.5723, 69.18220
979.0544, 69.23262
979.5365, 69.17464
980.0186, 69.17504
980.5007, 69.40556
980.9828, 69.62508
981.4650, 69.74448
981.9471, 69.75708
982.4291, 69.51109
982.9113, 68.95300
983.3934, 68.78753
983.8755, 69.51758
984.3576, 70.44489
984.8397, 70.71370
985.3218, 70.48656
985.8040, 70.05050
986.2861, 68.98231
986.7682, 68.49641
987.2503, 69.06550
987.7324, 69.86882
988.2145, 69.96381
988.6967, 69.40430
989.1788, 69.32629
989.6609, 69.81710
990.1430, 70.29617
990.6251, 70.39124
991.1072, 70.20641
991.5894, 69.61581
992.0715, 68.67177
992.5536, 68.39415
993.0357, 69.23264
993.5178, 69.86082
993.9999, 69.74229
994.4821, 69.25367
994.9642, 69.40315
995.4463, 69.98091
995.9284, 70.27483
996.4105, 70.01955
996.8926, 69.44559
997.3748, 68.01288
997.8569, 66.71574
998.3390, 66.79915
998.8211, 69.05199
999.3032, 69.68987
999.7853, 68.37823
1000.267, 66.96079
1000.750, 67.37065
1001.232, 68.53148
1001.714, 68.53604
1002.196, 67.48440
1002.678, 66.91115
1003.160, 68.17213
1003.642, 69.09928
1004.124, 68.86733
1004.607, 67.94249
1005.089, 67.62351
1005.571, 67.88364
1006.053, 68.22969
1006.535, 68.56647
1007.017, 68.83161
1007.499, 68.91310
1007.981, 68.92248
1008.463, 68.97816
1008.946, 69.05568
1009.428, 69.39329
1009.910, 70.30143
1010.392, 70.83061
1010.874, 69.84776
1011.356, 67.97160
1011.838, 67.76532
1012.320, 68.94472
1012.802, 69.85820
1013.285, 69.35889
1013.767, 68.62335
1014.249, 68.13084
1014.731, 67.83370
1015.213, 67.60765
1015.695, 67.42580
1016.177, 67.52019
1016.659, 67.97489
1017.142, 68.52750
1017.624, 69.05087
1018.106, 69.37780
1018.588, 69.18837
1019.070, 68.33028
1019.552, 67.62060
1020.034, 67.07002
1020.516, 66.92134
1020.998, 67.43584
1021.481, 68.44804
1021.963, 69.08830
1022.445, 69.37981
1022.927, 69.44878
1023.409, 69.01227
1023.891, 68.77524
1024.373, 69.58978
1024.855, 70.79869
1025.338, 71.19958
1025.820, 70.41149
1026.302, 69.75219
1026.784, 69.27260
1027.266, 69.02426
1027.748, 69.15816
1028.230, 69.52571
1028.712, 69.81483
1029.194, 70.01262
1029.677, 70.39798
1030.159, 71.76633
1030.641, 72.51903
1031.123, 71.81699
1031.605, 70.19778
1032.087, 69.59348
1032.569, 69.94670
1033.051, 70.08005
1033.534, 69.49263
1034.016, 68.91141
1034.498, 69.11256
1034.980, 69.63545
1035.462, 69.88651
1035.944, 69.51549
1036.426, 69.79662
1036.908, 71.09239
1037.391, 72.03553
1037.873, 71.13248
1038.355, 69.28538
1038.837, 69.05892
1039.319, 70.09944
1039.801, 70.78229
1040.283, 69.82188
1040.765, 69.00676
1041.247, 69.02595
1041.729, 69.45769
1042.212, 69.66911
1042.694, 69.65639
1043.176, 69.49992
1043.658, 69.18324
1044.140, 68.91830
1044.622, 68.76978
1045.104, 68.84839
1045.586, 69.39028
1046.069, 70.46201
1046.551, 71.13795
1047.033, 71.30170
1047.515, 71.26730
1047.997, 71.05173
1048.479, 70.83109
1048.961, 71.22960
1049.443, 71.92493
1049.926, 72.05231
1050.408, 70.82870
1050.890, 69.85312
1051.372, 69.63070
1051.854, 69.94038
1052.336, 70.71040
1052.818, 71.97404
1053.300, 73.45660
1053.782, 75.16019
1054.265, 75.89951
1054.747, 73.52599
1055.229, 70.95144
1055.711, 70.98838
1056.193, 72.95860
1056.675, 74.05971
1057.157, 73.75883
1057.639, 73.49604
1058.121, 73.47993
1058.604, 73.60974
1059.086, 73.56469
1059.568, 73.61504
1060.050, 74.50420
1060.532, 76.44991
1061.014, 77.97142
1061.496, 78.22467
1061.978, 78.16233
1062.461, 78.08255
1062.943, 78.03677
1063.425, 78.31789
1063.907, 78.89988
1064.389, 79.47311
1064.871, 79.76189
1065.353, 80.29923
1065.835, 81.79029
1066.318, 83.61922
1066.800, 84.98299
1067.282, 85.60461
1067.764, 86.56017
1068.246, 87.85426
1068.728, 89.41817
1069.210, 91.35342
1069.692, 93.43999
1070.174, 95.30493
1070.656, 96.99963
1071.139, 98.79070
1071.621, 100.6272
1072.103, 102.7787
1072.585, 105.3640
1073.067, 108.1931
1073.549, 110.9692
1074.031, 113.7401
1074.513, 116.9373
1074.996, 120.5932
1075.478, 124.6218
1075.960, 128.8507
1076.442, 133.5022
1076.924, 138.6060
1077.406, 144.2393
1077.888, 150.8128
1078.370, 158.3941
1078.853, 165.6443
1079.335, 171.9834
1079.817, 177.9396
1080.299, 185.4367
1080.781, 192.4041
1081.263, 195.9492
1081.745, 194.6418
1082.227, 192.2108
1082.709, 189.0338
1083.192, 183.8485
1083.674, 175.1335
1084.156, 164.0149
1084.638, 152.3406
1085.120, 140.6596
1085.602, 130.5342
1086.084, 123.0031
1086.566, 116.5495
1087.048, 110.9381
1087.531, 105.9871
1088.013, 101.5999
1088.495, 97.72727
1088.977, 93.76994
1089.459, 89.67422
1089.941, 86.59377
1090.423, 86.41068
1090.905, 86.53625
1091.387, 84.97874
1091.870, 82.21243
1092.352, 80.45204
1092.834, 79.78391
1093.316, 79.53103
1093.798, 79.66736
1094.280, 79.72337
1094.762, 79.01827
1095.244, 77.97435
1095.727, 77.09898
1096.209, 76.50212
1096.691, 75.91679
1097.173, 75.25636
1097.655, 74.78236
1098.137, 74.69152
1098.619, 74.79123
1099.101, 74.69741
1099.583, 74.41759
1100.066, 73.95077
1100.548, 73.12188
1101.030, 72.41160
1101.512, 71.75208
1101.994, 71.46329
1102.476, 72.16593
1102.958, 73.71165
1103.440, 73.52727
1103.922, 71.77821
1104.405, 70.36223
1104.887, 70.83376
1105.369, 71.50352
1105.851, 71.29337
1106.333, 70.67751
1106.815, 70.65306
1107.297, 71.34779
1107.779, 71.70524
1108.262, 71.61871
1108.744, 71.25379
1109.226, 70.55552
1109.708, 69.80754
1110.190, 69.16946
1110.672, 68.70663
1111.154, 68.81892
1111.636, 69.82716
1112.119, 70.50557
1112.601, 70.54944
1113.083, 70.19673
1113.565, 69.66299
1114.047, 69.03517
1114.529, 68.43843
1115.011, 67.85918
1115.493, 67.51416
1115.975, 67.58363
1116.458, 67.67907
1116.940, 67.59338
1117.422, 67.44435
1117.904, 67.67324
1118.386, 68.17697
1118.868, 68.63829
1119.350, 69.07137
1119.832, 69.17643
1120.314, 68.48940
1120.797, 67.69987
1121.279, 67.36710
1121.761, 67.48398
1122.243, 67.29705
1122.725, 66.84226
1123.207, 66.67282
1123.689, 67.54778
1124.171, 68.37251
1124.654, 68.12047
1125.136, 67.46054
1125.618, 67.73389
1126.100, 69.33804
1126.582, 69.66603
1127.064, 68.43752
1127.546, 67.08723
1128.028, 66.93898
1128.510, 67.23433
1128.993, 67.14992
1129.475, 66.77214
1129.957, 66.80260
1130.439, 67.60139
1130.921, 67.86212
1131.403, 67.23518
1131.885, 66.41115
1132.367, 66.25385
1132.849, 66.50847
1133.332, 66.80065
1133.814, 67.08464
1134.296, 67.39840
1134.778, 67.65916
1135.260, 68.11736
1135.742, 68.94444
1136.224, 69.89378
1136.706, 70.51024
1137.189, 70.82690
1137.671, 70.92604
1138.153, 70.80985
1138.635, 70.56047
1139.117, 69.76902
1139.599, 69.35747
1140.081, 70.02849
1140.563, 71.41655
1141.046, 71.58228
1141.528, 70.79417
1142.010, 70.44908
1142.492, 71.31183
1142.974, 72.39031
1143.456, 73.40187
1143.938, 74.21596
1144.420, 74.62328
1144.902, 74.59452
1145.385, 75.15641
1145.867, 76.27556
1146.349, 77.30806
1146.831, 77.67488
1147.313, 77.99375
1147.795, 78.73438
1148.277, 79.67831
1148.759, 80.36324
1149.241, 80.58748
1149.724, 81.74019
1150.206, 83.95265
1150.688, 86.19835
1151.170, 87.58209
1151.652, 88.58885
1152.134, 89.24457
1152.616, 89.88984
1153.098, 91.78296
1153.581, 95.56221
1154.063, 98.44478
1154.545, 99.92892
1155.027, 101.0446
1155.509, 102.7177
1155.991, 104.7840
1156.473, 107.3096
1156.955, 110.2097
1157.438, 112.2285
1157.920, 112.9728
1158.402, 113.7065
1158.884, 114.8799
1159.366, 115.7782
1159.848, 115.1842
1160.330, 113.6211
1160.812, 112.0391
1161.294, 110.6497
1161.776, 108.4854
1162.259, 104.9672
1162.741, 101.3443
1163.223, 97.85571
1163.705, 94.72274
1164.187, 92.82420
1164.669, 91.62222
1165.151, 89.69044
1165.633, 86.32356
1166.116, 83.44417
1166.598, 81.65780
1167.080, 80.31550
1167.562, 79.17773
1168.044, 78.19826
1168.526, 77.26405
1169.008, 76.34808
1169.490, 75.33211
1169.973, 74.06595
1170.455, 72.89137
1170.937, 71.90623
1171.419, 71.09443
1171.901, 70.44720
1172.383, 69.97507
1172.865, 69.89796
1173.347, 70.10406
1173.829, 69.95253
1174.312, 68.41374
1174.794, 67.29953
1175.276, 67.70303
1175.758, 68.61283
1176.240, 69.13020
1176.722, 69.26043
1177.204, 69.39484
1177.686, 69.51266
1178.168, 69.25742
1178.651, 67.77356
1179.133, 66.55809
1179.615, 66.44209
1180.097, 67.05806
1180.579, 68.27275
1181.061, 70.09663
1181.543, 69.81116
1182.025, 67.22520
1182.508, 65.09556
1182.990, 66.06834
1183.472, 67.51950
1183.954, 67.77837
1184.436, 67.22598
1184.918, 66.68991
1185.400, 66.15453
1185.882, 66.07301
1186.365, 66.53032
1186.847, 67.10594
1187.329, 67.65086
1187.811, 68.01135
1188.293, 67.86475
1188.775, 67.42479
1189.257, 67.60263
1189.739, 68.48216
1190.221, 68.76988
1190.703, 68.13014
1191.186, 67.35522
1191.668, 67.16923
1192.150, 67.21313
1192.632, 67.23326
1193.114, 67.20009
1193.596, 67.05511
1194.078, 66.79945
1194.560, 66.34412
1195.043, 65.56072
1195.525, 64.96166
1196.007, 65.16763
1196.489, 65.75679
1196.971, 66.40778
1197.453, 67.08691
1197.935, 67.40749
1198.417, 67.32241
1198.900, 67.31966
1199.382, 67.66048
1199.864, 67.93148
1200.346, 67.60381
1200.828, 67.02007
1201.310, 66.57372
1201.792, 66.31470
1202.274, 65.91650
1202.756, 65.30816
1203.239, 65.21623
1203.721, 66.19523
1204.203, 67.42352
1204.685, 68.16289
1205.167, 68.51591
1205.649, 68.56105
1206.131, 68.26872
1206.613, 67.92334
1207.095, 67.49780
1207.578, 67.21796
1208.060, 67.27419
1208.542, 67.45032
1209.024, 67.45577
1209.506, 67.44613
1209.988, 67.71771
1210.470, 68.44241
1210.952, 68.77898
1211.435, 68.69163
1211.917, 68.53514
1212.399, 68.36030
1212.881, 68.39268
1213.363, 69.12926
1213.845, 70.15696
1214.327, 70.73208
1214.809, 70.80842
1215.292, 70.39297
1215.774, 69.41547
1216.256, 68.58233
1216.738, 68.39616
1217.220, 68.62277
1217.702, 69.26722
1218.184, 70.09340
1218.666, 70.61040
1219.148, 70.74219
1219.630, 70.73341
1220.113, 70.55885
1220.595, 70.58493
1221.077, 71.44540
1221.559, 72.31938
1222.041, 72.30711
1222.523, 71.76375
1223.005, 71.62132
1223.487, 72.00593
1223.970, 72.28105
1224.452, 72.38755
1224.934, 72.59495
1225.416, 73.13530
1225.898, 73.85966
1226.380, 75.02633
1226.862, 76.18961
1227.344, 76.08090
1227.827, 74.35652
1228.309, 73.74522
1228.791, 74.55309
1229.273, 75.47061
1229.755, 75.54226
1230.237, 75.16344
1230.719, 74.32520
1231.201, 73.33720
1231.683, 73.06223
1232.166, 73.58322
1232.648, 73.83861
1233.130, 73.69461
1233.612, 73.55951
1234.094, 73.94301
1234.576, 74.28819
1235.058, 74.16804
1235.540, 73.69109
1236.022, 73.09882
1236.505, 72.38711
1236.987, 71.56392
1237.469, 70.60134
1237.951, 70.02797
1238.433, 70.66554
1238.915, 71.42889
1239.397, 71.77038
1239.879, 71.65809
1240.362, 70.57628
1240.844, 68.67128
1241.326, 68.37584
1241.808, 70.17824
1242.290, 71.71368
1242.772, 71.06754
1243.254, 69.98449
1243.736, 69.23523
1244.219, 68.81449
1244.701, 68.79974
1245.183, 69.11462
1245.665, 69.30443
1246.147, 69.29655
1246.629, 69.00360
1247.111, 67.84392
1247.593, 67.02119
1248.075, 67.09644
1248.557, 67.75819
1249.040, 68.37902
1249.522, 68.96159
1250.004, 69.56860
1250.486, 70.23864
1250.968, 70.46939
1251.450, 69.46901
1251.932, 68.68284
1252.414, 68.69540
1252.897, 69.10953
1253.379, 69.07209
1253.861, 68.74828
1254.343, 68.57628
1254.825, 68.63770
1255.307, 68.71072
1255.789, 68.84188
1256.271, 68.75381
1256.754, 68.21907
1257.236, 67.65100
1257.718, 68.07813
1258.200, 68.94913
1258.682, 69.06743
1259.164, 68.15755
1259.646, 67.82803
1260.128, 68.56940
1260.610, 69.30560
1261.093, 69.80472
1261.575, 69.93401
1262.057, 69.18815
1262.539, 68.08911
1263.021, 67.37333
1263.503, 67.16855
1263.985, 67.15637
1264.467, 67.29459
1264.949, 67.77412
1265.432, 68.86903
1265.914, 69.69716
1266.396, 68.56313
1266.878, 66.89143
1267.360, 66.48418
1267.842, 67.53479
1268.324, 67.87134
1268.806, 67.37107
1269.289, 67.22557
1269.771, 67.91280
1270.253, 68.54485
1270.735, 67.96731
1271.217, 67.13578
1271.699, 67.04487
1272.181, 67.57484
1272.663, 67.99525
1273.146, 68.29736
1273.628, 68.05836
1274.110, 67.08047
1274.592, 65.93897
1275.074, 64.38988
1275.556, 63.52593
1276.038, 64.22076
1276.520, 66.04246
1277.002, 67.74194
1277.484, 69.18382
1277.967, 69.44360
1278.449, 68.07829
1278.931, 66.79025
1279.413, 66.32542
1279.895, 66.42021
1280.377, 67.25133
1280.859, 68.25734
1281.341, 67.64306
1281.823, 66.02574
1282.306, 65.22797
1282.788, 65.72707
1283.270, 66.37384
1283.752, 67.02281
1284.234, 67.45061
1284.716, 67.51971
1285.198, 67.43037
1285.680, 67.53613
1286.163, 67.75502
1286.645, 67.99064
1287.127, 68.24246
1287.609, 68.22086
1288.091, 67.84674
1288.573, 67.38297
1289.055, 66.85938
1289.537, 66.41206
1290.020, 66.32071
##END=



