##NAMES=Quartz
##RRUFFID=R060604
##IDEAL CHEMISTRY=SiO_2_
##LOCALITY=Piedras Parada, Veracruz, Mexico
##OWNER=RRUFF
##SOURCE=Michael Scott
##DESCRIPTION=Purple hexagonal prisms, variety amethyst
##STATUS=The identification of this mineral has been confirmed by X-ray diffraction and chemical analysis
##URL=rruff.info/R060604
##MEASURED CHEMISTRY=Si_1.00_O_2_
91.40820, 3.958539
91.89032, 3.775473
92.37244, 3.837772
92.85455, 4.115214
93.33667, 4.426744
93.81879, 4.721362
94.30090, 4.958956
94.78302, 5.008284
95.26514, 4.778684
95.74725, 4.395249
96.22937, 4.109877
96.71149, 3.925683
97.19360, 3.832383
97.67572, 3.874176
98.15784, 4.047270
98.63995, 4.147685
99.12207, 4.067260
99.60419, 3.842258
100.0863, 3.804332
100.5684, 3.990497
101.0505, 4.290805
101.5327, 4.573575
102.0148, 4.827972
102.4969, 5.095077
102.9790, 5.395958
103.4611, 5.736241
103.9432, 6.027737
104.4253, 6.103803
104.9075, 6.221248
105.3896, 6.875044
105.8717, 8.124598
106.3538, 9.841205
106.8359, 12.04208
107.3180, 14.99424
107.8002, 17.92691
108.2823, 20.71291
108.7644, 23.44921
109.2465, 26.61339
109.7286, 30.32608
110.2107, 34.33875
110.6929, 38.61360
111.1750, 42.99768
111.6571, 47.75749
112.1392, 53.04124
112.6213, 58.78979
113.1034, 64.68034
113.5856, 70.48640
114.0677, 76.59316
114.5498, 83.21968
115.0319, 91.03793
115.5140, 98.85139
115.9961, 106.2029
116.4783, 113.0899
116.9604, 119.9628
117.4425, 127.0474
117.9246, 134.2744
118.4067, 141.5044
118.8888, 149.0197
119.3710, 156.3567
119.8531, 162.7980
120.3352, 168.0907
120.8173, 174.3909
121.2994, 182.4938
121.7815, 192.4994
122.2637, 204.6369
122.7458, 217.8492
123.2279, 233.6802
123.7100, 253.5078
124.1921, 277.4732
124.6742, 305.4547
125.1564, 337.8813
125.6385, 374.3797
126.1206, 413.9429
126.6027, 462.0001
127.0848, 511.4637
127.5669, 551.1851
128.0491, 581.6877
128.5312, 597.4306
129.0133, 587.6217
129.4954, 553.6409
129.9775, 507.4412
130.4596, 450.2737
130.9418, 386.2692
131.4239, 329.2956
131.9060, 281.9635
132.3881, 242.9930
132.8702, 210.8803
133.3523, 185.5890
133.8345, 165.2336
134.3166, 148.8666
134.7987, 136.3743
135.2808, 126.4761
135.7629, 119.1117
136.2450, 113.9407
136.7272, 109.4677
137.2093, 105.6296
137.6914, 102.5876
138.1735, 100.6787
138.6556, 100.0976
139.1377, 99.70927
139.6199, 99.24765
140.1020, 98.71735
140.5841, 98.25075
141.0662, 97.77683
141.5483, 97.46810
142.0304, 97.58076
142.5126, 98.24782
142.9947, 99.00013
143.4768, 99.50879
143.9589, 99.65921
144.4410, 99.21935
144.9231, 97.79179
145.4053, 96.05190
145.8874, 95.07813
146.3695, 95.61491
146.8516, 95.86347
147.3337, 95.21961
147.8158, 93.22512
148.2980, 91.53102
148.7801, 90.19907
149.2622, 89.13847
149.7443, 88.20368
150.2264, 87.41068
150.7085, 86.70822
151.1907, 86.11295
151.6728, 85.85770
152.1549, 85.30515
152.6370, 84.22405
153.1191, 82.82287
153.6012, 81.64501
154.0834, 80.86311
154.5655, 80.20600
155.0476, 79.54798
155.5297, 78.86026
156.0118, 78.20613
156.4939, 77.48869
156.9761, 76.77958
157.4582, 76.35088
157.9403, 76.21670
158.4224, 76.39978
158.9045, 76.92525
159.3866, 78.10888
159.8688, 79.26241
160.3509, 80.17113
160.8330, 80.87934
161.3151, 81.58739
161.7972, 82.46886
162.2793, 83.32781
162.7615, 84.01121
163.2436, 84.08472
163.7257, 84.34737
164.2078, 85.28352
164.6899, 86.79897
165.1720, 88.23398
165.6541, 89.10802
166.1363, 89.80556
166.6184, 90.70574
167.1005, 92.22657
167.5826, 93.75719
168.0647, 94.82531
168.5468, 95.47217
169.0290, 96.25321
169.5111, 97.51057
169.9932, 99.10540
170.4753, 100.8629
170.9574, 102.8092
171.4395, 104.8077
171.9217, 106.7056
172.4038, 108.5039
172.8859, 110.4345
173.3680, 112.6482
173.8501, 115.1094
174.3322, 117.7973
174.8144, 120.8277
175.2965, 124.0467
175.7786, 127.1389
176.2607, 130.1181
176.7428, 133.2167
177.2249, 136.6238
177.7071, 140.2931
178.1892, 144.1980
178.6713, 148.1970
179.1534, 152.4591
179.6355, 157.4241
180.1176, 163.2126
180.5998, 169.1038
181.0819, 174.2637
181.5640, 178.8731
182.0461, 183.7864
182.5282, 189.3522
183.0103, 195.4657
183.4925, 201.8473
183.9746, 208.4355
184.4567, 215.3824
184.9388, 223.1032
185.4209, 231.5233
185.9030, 239.7191
186.3852, 246.9248
186.8673, 253.5191
187.3494, 261.1638
187.8315, 270.0235
188.3136, 279.5089
188.7957, 289.1741
189.2779, 298.9432
189.7600, 308.9588
190.2421, 319.2559
190.7242, 329.7596
191.2063, 340.3465
191.6884, 350.9677
192.1706, 361.6357
192.6527, 372.8648
193.1348, 384.6142
193.6169, 396.1779
194.0990, 407.2274
194.5811, 417.7510
195.0633, 428.3282
195.5454, 438.8571
196.0275, 449.6699
196.5096, 461.0990
196.9917, 473.2427
197.4738, 485.4481
197.9560, 497.5793
198.4381, 509.5947
198.9202, 521.0015
199.4023, 531.8359
199.8844, 541.9119
200.3665, 550.5311
200.8487, 557.6054
201.3308, 564.1332
201.8129, 570.9446
202.2950, 578.2038
202.7771, 583.6037
203.2592, 586.8649
203.7414, 588.5197
204.2235, 589.8637
204.7056, 591.1022
205.1877, 591.1812
205.6698, 589.6514
206.1519, 586.5275
206.6341, 581.4525
207.1162, 573.9785
207.5983, 564.9900
208.0804, 556.7658
208.5625, 549.9830
209.0446, 542.1381
209.5268, 531.7244
210.0089, 518.1467
210.4910, 504.8615
210.9731, 492.0696
211.4552, 479.4905
211.9373, 466.6610
212.4195, 453.6325
212.9016, 440.3849
213.3837, 426.9033
213.8658, 413.0713
214.3479, 399.2293
214.8300, 385.1450
215.3121, 371.0883
215.7943, 357.6655
216.2764, 345.0039
216.7585, 332.9256
217.2406, 321.2804
217.7227, 310.2782
218.2048, 299.3550
218.6870, 288.3410
219.1691, 277.5051
219.6512, 267.1552
220.1333, 257.0551
220.6154, 247.8143
221.0975, 239.6157
221.5797, 232.9006
222.0618, 226.1991
222.5439, 219.5098
223.0260, 212.8578
223.5081, 206.0139
223.9902, 198.6508
224.4724, 191.7560
224.9545, 185.9854
225.4366, 181.7098
225.9187, 177.2528
226.4008, 172.5233
226.8829, 167.6194
227.3651, 162.6655
227.8472, 157.3577
228.3293, 152.4095
228.8114, 148.1161
229.2935, 144.6415
229.7757, 141.3508
230.2578, 138.3175
230.7399, 135.4616
231.2220, 132.5951
231.7041, 129.7873
232.1862, 126.8783
232.6684, 123.7229
233.1505, 120.0730
233.6326, 116.9947
234.1147, 114.6729
234.5968, 112.8166
235.0789, 110.9726
235.5611, 109.2010
236.0432, 107.3518
236.5253, 105.3077
237.0074, 102.9929
237.4895, 100.8712
237.9716, 98.94388
238.4538, 97.20947
238.9359, 95.68562
239.4180, 94.43780
239.9001, 93.26815
240.3822, 92.10630
240.8643, 90.94411
241.3465, 89.86905
241.8286, 88.83508
242.3107, 87.91970
242.7928, 87.24377
243.2749, 86.88506
243.7570, 86.63114
244.2392, 86.43539
244.7213, 86.30113
245.2034, 86.20338
245.6855, 86.15401
246.1676, 86.13091
246.6497, 86.11533
247.1319, 86.14534
247.6140, 86.11691
248.0961, 86.00729
248.5782, 85.81483
249.0603, 85.55286
249.5424, 85.19367
250.0246, 84.79127
250.5067, 84.34814
250.9888, 83.64854
251.4709, 83.34639
251.9530, 83.70107
252.4351, 84.75950
252.9173, 85.54322
253.3994, 85.90212
253.8815, 86.17007
254.3636, 86.64445
254.8457, 87.28202
255.3278, 88.20286
255.8100, 89.43370
256.2921, 90.97945
256.7742, 92.76769
257.2563, 94.75941
257.7384, 97.03964
258.2205, 99.63960
258.7026, 102.5646
259.1848, 105.8354
259.6669, 109.3779
260.1490, 113.2517
260.6311, 117.7382
261.1132, 123.0108
261.5953, 128.6009
262.0775, 134.4186
262.5596, 141.2859
263.0417, 146.1936
263.5238, 149.1048
264.0059, 149.8253
264.4880, 147.3347
264.9702, 141.1686
265.4523, 132.6940
265.9344, 122.2267
266.4165, 108.6916
266.8986, 96.74728
267.3807, 86.70136
267.8629, 78.42524
268.3450, 71.48886
268.8271, 66.02415
269.3092, 61.39532
269.7913, 57.12182
270.2734, 53.14591
270.7556, 49.97361
271.2377, 47.69881
271.7198, 46.14869
272.2019, 45.00438
272.6840, 44.38806
273.1661, 43.75985
273.6483, 42.80142
274.1304, 41.44863
274.6125, 40.31644
275.0946, 39.43173
275.5767, 38.75468
276.0588, 38.28776
276.5410, 38.09116
277.0231, 37.79010
277.5052, 37.15146
277.9873, 36.16240
278.4694, 35.44697
278.9515, 35.05433
279.4337, 34.82917
279.9158, 34.54731
280.3979, 34.19666
280.8800, 33.92622
281.3621, 33.84716
281.8442, 33.92623
282.3264, 33.80869
282.8085, 33.44373
283.2906, 33.05983
283.7727, 32.98860
284.2548, 33.23493
284.7369, 33.34422
285.2191, 33.14093
285.7012, 32.70495
286.1833, 32.33409
286.6654, 32.02725
287.1475, 31.79195
287.6296, 31.70532
288.1118, 31.74266
288.5939, 31.63345
289.0760, 31.24544
289.5581, 30.72386
290.0402, 30.46358
290.5223, 30.47196
291.0045, 30.48483
291.4866, 30.18591
291.9687, 29.67563
292.4508, 29.48870
292.9329, 29.84780
293.4150, 30.37106
293.8972, 30.32468
294.3793, 29.75512
294.8614, 29.19876
295.3435, 29.07101
295.8256, 29.23819
296.3077, 29.34052
296.7899, 29.33265
297.2720, 29.25425
297.7541, 29.14069
298.2362, 28.99717
298.7183, 28.84386
299.2004, 28.71315
299.6826, 28.57622
300.1647, 28.35319
300.6468, 28.02452
301.1289, 27.70181
301.6110, 27.49953
302.0931, 27.39335
302.5753, 27.31379
303.0574, 27.27661
303.5395, 27.22785
304.0216, 27.06071
304.5037, 26.76842
304.9858, 26.51368
305.4680, 26.50126
305.9501, 26.61038
306.4322, 26.63262
306.9143, 26.39713
307.3964, 26.11247
307.8785, 25.93456
308.3607, 25.86652
308.8428, 25.92240
309.3249, 26.31152
309.8070, 26.75983
310.2891, 26.92739
310.7712, 26.54949
311.2534, 26.08540
311.7355, 25.88099
312.2176, 25.86678
312.6997, 25.79189
313.1818, 25.31491
313.6639, 24.83886
314.1461, 24.73782
314.6282, 25.28592
315.1103, 25.78623
315.5924, 25.81683
316.0745, 25.54866
316.5566, 25.33761
317.0388, 25.33954
317.5209, 25.43259
318.0030, 25.58187
318.4851, 25.82040
318.9672, 25.95873
319.4493, 25.85210
319.9315, 25.62939
320.4136, 25.45977
320.8957, 25.43841
321.3778, 25.43639
321.8599, 25.43618
322.3420, 25.44423
322.8242, 25.34991
323.3063, 24.94283
323.7884, 24.51291
324.2705, 24.31305
324.7526, 24.74006
325.2347, 25.02201
325.7169, 24.95535
326.1990, 24.56543
326.6811, 24.17484
327.1632, 23.71891
327.6453, 23.32732
328.1274, 23.07221
328.6096, 22.97422
329.0917, 22.98998
329.5738, 23.17491
330.0559, 23.47810
330.5380, 23.74745
331.0201, 24.07572
331.5023, 24.26877
331.9844, 24.21598
332.4665, 23.74985
332.9486, 23.43679
333.4307, 23.21555
333.9128, 23.18172
334.3950, 23.56123
334.8771, 24.66516
335.3592, 25.60508
335.8413, 26.08423
336.3234, 26.06753
336.8055, 25.93229
337.2877, 25.54108
337.7698, 25.22342
338.2519, 25.43653
338.7340, 26.36893
339.2161, 27.07533
339.6982, 27.26850
340.1803, 27.05498
340.6624, 27.11267
341.1446, 27.51317
341.6267, 27.95144
342.1088, 28.15491
342.5909, 28.10941
343.0730, 28.21271
343.5551, 28.55048
344.0373, 29.02637
344.5194, 29.37685
345.0015, 29.59491
345.4836, 29.90054
345.9657, 30.53104
346.4478, 31.40095
346.9300, 31.97157
347.4121, 32.14168
347.8942, 32.28257
348.3763, 32.88963
348.8584, 33.92291
349.3405, 35.15306
349.8227, 36.43950
350.3048, 37.86024
350.7869, 39.61214
351.2690, 41.69081
351.7511, 43.95395
352.2332, 46.26419
352.7154, 48.64183
353.1975, 51.17613
353.6796, 54.23955
354.1617, 57.11622
354.6438, 59.36018
355.1259, 60.85516
355.6081, 60.98463
356.0902, 58.69759
356.5723, 55.08720
357.0544, 51.30023
357.5365, 47.47659
358.0186, 43.82518
358.5008, 40.34029
358.9829, 37.14037
359.4650, 34.47937
359.9471, 32.60078
360.4292, 31.20676
360.9113, 30.17202
361.3935, 29.52334
361.8756, 29.00969
362.3577, 28.51331
362.8398, 28.10508
363.3219, 27.86548
363.8040, 28.04557
364.2862, 28.17512
364.7683, 28.02895
365.2504, 27.62455
365.7325, 27.36831
366.2146, 27.48595
366.6967, 27.68135
367.1789, 27.77058
367.6610, 27.49873
368.1431, 27.40001
368.6252, 27.65212
369.1073, 28.12359
369.5894, 28.39134
370.0716, 28.27646
370.5537, 28.14339
371.0358, 28.11116
371.5179, 28.19032
372.0000, 28.34308
372.4821, 28.60094
372.9643, 28.90863
373.4464, 29.20608
373.9285, 29.53447
374.4106, 29.74894
374.8927, 29.74889
375.3748, 29.55023
375.8570, 29.62451
376.3391, 30.05243
376.8212, 30.58439
377.3033, 31.00196
377.7854, 31.27501
378.2675, 31.65435
378.7497, 32.21625
379.2318, 32.86740
379.7139, 33.35980
380.1960, 33.67402
380.6781, 34.01245
381.1602, 34.46580
381.6424, 35.03456
382.1245, 35.70244
382.6066, 36.46216
383.0887, 37.37316
383.5708, 38.65091
384.0529, 40.20114
384.5351, 41.62400
385.0172, 42.63365
385.4993, 43.45429
385.9814, 44.53170
386.4635, 45.84729
386.9456, 47.20676
387.4278, 48.35905
387.9099, 49.45192
388.3920, 50.71978
388.8741, 52.15685
389.3562, 53.88849
389.8383, 56.14902
390.3205, 58.83457
390.8026, 61.59181
391.2847, 64.19286
391.7668, 66.81222
392.2489, 69.80640
392.7310, 73.37746
393.2132, 76.34453
393.6953, 77.87606
394.1774, 78.53282
394.6595, 78.99548
395.1416, 79.16723
395.6237, 79.46107
396.1059, 79.74971
396.5880, 80.09798
397.0701, 81.42411
397.5522, 84.12029
398.0343, 87.69841
398.5164, 91.88167
398.9986, 97.39804
399.4807, 102.5485
399.9628, 107.7491
400.4449, 112.5299
400.9270, 115.9336
401.4091, 119.2070
401.8913, 119.4332
402.3734, 115.1906
402.8555, 105.6919
403.3376, 95.97755
403.8197, 85.45123
404.3018, 75.40147
404.7840, 67.19741
405.2661, 60.97013
405.7482, 56.13776
406.2303, 52.76617
406.7124, 50.64297
407.1945, 48.77040
407.6767, 47.12897
408.1588, 45.83217
408.6409, 45.05257
409.1230, 44.76262
409.6051, 44.49604
410.0872, 44.22073
410.5694, 43.94218
411.0515, 43.66026
411.5336, 43.37931
412.0157, 43.13276
412.4978, 42.89981
412.9799, 42.72246
413.4621, 42.68917
413.9442, 42.79878
414.4263, 43.00005
414.9084, 43.34407
415.3905, 43.73228
415.8727, 44.01257
416.3548, 44.14208
416.8369, 44.15857
417.3190, 44.06448
417.8011, 43.88066
418.2832, 43.65936
418.7654, 43.21113
419.2475, 42.88517
419.7296, 43.03573
420.2117, 43.79978
420.6938, 44.38745
421.1759, 44.25101
421.6581, 43.87252
422.1402, 43.76158
422.6223, 44.35178
423.1044, 44.89183
423.5865, 45.10915
424.0686, 45.06027
424.5508, 45.21421
425.0329, 45.82832
425.5150, 46.47949
425.9971, 46.96851
426.4792, 47.16107
426.9613, 47.47099
427.4435, 47.94244
427.9256, 48.50589
428.4077, 49.02160
428.8898, 49.38159
429.3719, 49.95178
429.8540, 50.84027
430.3362, 52.03155
430.8183, 53.44566
431.3004, 55.15660
431.7825, 56.85607
432.2646, 58.18568
432.7467, 59.13768
433.2289, 60.40892
433.7110, 62.10506
434.1931, 64.09631
434.6752, 66.16581
435.1573, 68.31418
435.6394, 70.55267
436.1216, 72.74100
436.6037, 75.05893
437.0858, 77.91484
437.5679, 81.33337
438.0500, 85.00957
438.5321, 88.65112
439.0142, 92.37193
439.4963, 96.33773
439.9785, 100.4480
440.4606, 105.0481
440.9427, 110.0970
441.4248, 115.7815
441.9069, 122.6127
442.3890, 130.8645
442.8712, 140.3279
443.3533, 150.8806
443.8354, 162.5100
444.3175, 175.2842
444.7996, 188.4201
445.2817, 202.9079
445.7639, 219.8968
446.2460, 240.6649
446.7281, 262.8500
447.2102, 286.1403
447.6923, 310.5467
448.1744, 335.3736
448.6566, 361.7065
449.1387, 387.4081
449.6208, 411.4314
450.1029, 433.4818
450.5850, 455.0919
451.0671, 475.6460
451.5493, 496.1055
452.0314, 517.4532
452.5135, 539.1508
452.9956, 563.2454
453.4777, 589.9579
453.9598, 619.2504
454.4420, 651.5192
454.9241, 686.3837
455.4062, 725.2008
455.8883, 767.9264
456.3704, 814.9568
456.8525, 867.7418
457.3347, 925.3881
457.8168, 989.0678
458.2989, 1059.969
458.7810, 1137.625
459.2631, 1218.297
459.7452, 1301.423
460.2274, 1387.506
460.7095, 1478.305
461.1916, 1573.983
461.6737, 1666.252
462.1558, 1758.460
462.6379, 1841.708
463.1201, 1910.201
463.6022, 1969.188
464.0843, 1999.775
464.5664, 1992.506
465.0485, 1952.428
465.5306, 1887.589
466.0128, 1788.766
466.4949, 1676.552
466.9770, 1552.291
467.4591, 1415.735
467.9412, 1287.176
468.4233, 1164.332
468.9055, 1050.659
469.3876, 946.6133
469.8697, 851.7059
470.3518, 768.0540
470.8339, 696.2853
471.3160, 634.5290
471.7982, 579.1714
472.2803, 530.5720
472.7624, 486.7440
473.2445, 447.5924
473.7266, 412.8797
474.2087, 382.8408
474.6909, 357.7913
475.1730, 335.4311
475.6551, 314.0774
476.1372, 294.0067
476.6193, 276.5318
477.1014, 262.2916
477.5836, 249.8413
478.0657, 237.6114
478.5478, 225.7574
479.0299, 214.9522
479.5120, 205.7963
479.9941, 197.4767
480.4763, 189.2762
480.9584, 181.2049
481.4405, 173.8240
481.9226, 167.8341
482.4047, 162.4364
482.8868, 156.9012
483.3690, 150.7736
483.8511, 145.2856
484.3332, 141.0817
484.8153, 137.6986
485.2974, 134.2890
485.7795, 130.8129
486.2617, 127.2645
486.7438, 123.4644
487.2259, 119.4163
487.7080, 116.0530
488.1901, 113.5893
488.6722, 111.4934
489.1544, 109.4761
489.6365, 107.6204
490.1186, 105.5628
490.6007, 103.1941
491.0828, 100.7609
491.5649, 98.60302
492.0471, 96.74513
492.5292, 94.99934
493.0113, 93.35779
493.4934, 91.78175
493.9755, 90.04945
494.4576, 88.18945
494.9398, 86.52324
495.4219, 85.35824
495.9040, 84.54236
496.3861, 83.88477
496.8682, 83.37619
497.3503, 82.87487
497.8325, 82.17722
498.3146, 81.42366
498.7967, 80.81762
499.2788, 80.66261
499.7609, 80.47444
500.2430, 80.02016
500.7252, 79.33405
501.2073, 78.55489
501.6894, 77.43899
502.1715, 76.48246
502.6536, 76.00522
503.1357, 76.36417
503.6179, 76.26199
504.1000, 75.53088
504.5821, 74.41991
505.0642, 73.16373
505.5463, 71.76637
506.0284, 70.18094
506.5106, 68.23192
506.9927, 66.15578
507.4748, 64.84385
507.9569, 64.44840
508.4390, 64.07526
508.9211, 63.18792
509.4033, 61.87570
509.8854, 60.93919
510.3675, 60.41386
510.8496, 59.96410
511.3317, 59.23513
511.8138, 58.31535
512.2960, 57.44446
512.7781, 56.63232
513.2602, 55.94724
513.7423, 55.53468
514.2244, 55.30696
514.7065, 55.04990
515.1887, 54.63246
515.6708, 54.17229
516.1529, 53.76663
516.6350, 53.41383
517.1171, 53.00061
517.5992, 52.31254
518.0814, 51.67187
518.5635, 51.31627
519.0456, 51.64877
519.5277, 51.63869
520.0098, 50.93718
520.4919, 49.99790
520.9741, 49.51640
521.4562, 49.75233
521.9383, 49.93459
522.4204, 49.88579
522.9025, 49.63936
523.3846, 49.39675
523.8668, 49.15502
524.3489, 48.93380
524.8310, 48.68896
525.3131, 48.44524
525.7952, 48.47375
526.2773, 48.82153
526.7595, 49.22920
527.2416, 49.36244
527.7237, 49.31847
528.2058, 49.35146
528.6879, 49.56353
529.1700, 49.84410
529.6522, 50.14436
530.1343, 50.43250
530.6164, 50.62447
531.0985, 50.53674
531.5806, 50.44931
532.0627, 50.67155
532.5449, 51.26167
533.0270, 51.42223
533.5091, 50.77107
533.9912, 49.71078
534.4733, 48.52936
534.9554, 47.09725
535.4376, 45.72509
535.9197, 44.38682
536.4018, 43.12777
536.8839, 42.07494
537.3660, 41.26088
537.8481, 40.53760
538.3303, 39.84145
538.8124, 39.19952
539.2945, 38.76080
539.7766, 38.53904
540.2587, 38.40393
540.7408, 38.33675
541.2230, 38.29171
541.7051, 38.11097
542.1872, 37.78599
542.6693, 37.31361
543.1514, 36.43337
543.6335, 35.44191
544.1157, 34.90561
544.5978, 35.35490
545.0799, 35.80457
545.5620, 35.37437
546.0441, 34.40531
546.5262, 33.74015
547.0084, 34.00356
547.4905, 34.35733
547.9726, 34.47208
548.4547, 34.31647
548.9368, 34.04731
549.4189, 33.67978
549.9011, 33.20118
550.3832, 32.57622
550.8653, 31.65731
551.3474, 30.92962
551.8295, 30.40954
552.3116, 30.07767
552.7938, 29.99790
553.2759, 30.21569
553.7580, 30.22080
554.2401, 29.79059
554.7222, 29.13618
555.2043, 28.79958
555.6865, 28.76163
556.1686, 28.77751
556.6507, 28.70882
557.1328, 28.59612
557.6149, 28.49222
558.0970, 28.40028
558.5792, 28.32725
559.0613, 28.35106
559.5434, 28.36271
560.0255, 28.23040
560.5076, 27.78742
560.9897, 27.44972
561.4719, 27.43660
561.9540, 27.59751
562.4361, 27.68165
562.9182, 27.70871
563.4003, 27.58606
563.8824, 27.16395
564.3646, 26.52751
564.8467, 26.30712
565.3288, 26.69128
565.8109, 27.10129
566.2930, 27.19921
566.7751, 26.96670
567.2573, 26.94214
567.7394, 27.16218
568.2215, 27.41953
568.7036, 27.48782
569.1857, 27.40982
569.6678, 27.33838
570.1500, 27.29168
570.6321, 27.29663
571.1142, 27.41834
571.5963, 27.61596
572.0784, 27.79664
572.5605, 27.88583
573.0427, 27.97665
573.5248, 28.16498
574.0069, 28.42543
574.4890, 28.59900
574.9711, 28.48679
575.4532, 28.39449
575.9354, 28.48271
576.4175, 28.80642
576.8996, 29.14573
577.3817, 29.52105
577.8638, 29.88797
578.3459, 30.17940
578.8281, 30.32843
579.3102, 30.69515
579.7923, 31.40602
580.2744, 32.21978
580.7565, 32.57373
581.2386, 32.50041
581.7208, 32.58749
582.2029, 33.19444
582.6850, 34.00742
583.1671, 34.47355
583.6492, 34.63005
584.1313, 34.69769
584.6135, 34.83612
585.0956, 34.94049
585.5776, 34.90796
586.0598, 34.72204
586.5419, 34.46193
587.0240, 34.00109
587.5061, 33.57009
587.9882, 33.36440
588.4703, 33.69201
588.9525, 33.85677
589.4346, 33.73676
589.9167, 33.47959
590.3988, 33.30400
590.8809, 33.18323
591.3630, 33.23432
591.8452, 33.56707
592.3273, 34.06373
592.8094, 34.24960
593.2915, 34.10968
593.7736, 33.89173
594.2557, 33.67636
594.7379, 33.49864
595.2200, 33.49119
595.7021, 33.65596
596.1842, 33.80109
596.6663, 33.79939
597.1484, 33.67971
597.6306, 33.44713
598.1127, 33.05122
598.5948, 32.71638
599.0769, 32.58677
599.5590, 32.56591
600.0411, 32.53225
600.5233, 32.61935
601.0054, 32.50127
601.4875, 31.95860
601.9696, 31.17833
602.4517, 30.74587
602.9338, 30.82225
603.4160, 30.89252
603.8981, 30.77420
604.3802, 30.48468
604.8623, 30.20986
605.3444, 29.94955
605.8265, 29.68547
606.3087, 29.42255
606.7908, 29.14486
607.2729, 28.72297
607.7550, 28.10869
608.2371, 27.68305
608.7192, 28.05584
609.2014, 28.73848
609.6835, 29.03494
610.1656, 28.51804
610.6477, 27.96135
611.1298, 27.68076
611.6119, 27.58946
612.0941, 27.52535
612.5762, 27.40980
613.0583, 27.38207
613.5404, 27.59368
614.0225, 27.94691
614.5046, 27.84824
614.9868, 27.01927
615.4689, 26.38129
615.9510, 26.51604
616.4331, 27.36159
616.9152, 27.53718
617.3973, 26.98382
617.8795, 26.28683
618.3616, 25.97078
618.8437, 25.91452
619.3258, 25.84042
619.8079, 25.70837
620.2900, 25.55778
620.7722, 25.36613
621.2543, 25.19361
621.7364, 25.12996
622.2185, 25.32512
622.7006, 25.48056
623.1827, 25.51367
623.6649, 25.43645
624.1470, 25.27505
624.6291, 24.86298
625.1112, 24.57853
625.5933, 24.54872
626.0754, 24.73240
626.5576, 24.82932
627.0397, 24.82162
627.5218, 24.78469
628.0039, 24.73732
628.4860, 24.68711
628.9681, 24.74225
629.4503, 24.91511
629.9324, 25.02482
630.4145, 24.83075
630.8966, 24.48579
631.3787, 24.26049
631.8608, 24.22149
632.3430, 24.23238
632.8251, 24.22784
633.3072, 24.21133
633.7893, 24.18701
634.2714, 24.12218
634.7535, 24.08934
635.2357, 24.16101
635.7178, 24.26801
636.1999, 24.24270
636.6820, 23.97825
637.1641, 23.77996
637.6462, 23.74237
638.1284, 23.83390
638.6105, 23.91663
639.0926, 23.99860
639.5747, 23.99969
640.0568, 23.76880
640.5389, 23.42654
641.0211, 23.39259
641.5032, 23.66509
641.9853, 23.91764
642.4674, 23.77189
642.9495, 23.52975
643.4316, 23.58573
643.9138, 24.10950
644.3959, 24.49258
644.8780, 24.26241
645.3601, 23.86315
645.8422, 23.73709
646.3243, 24.33011
646.8065, 24.67823
647.2886, 24.66558
647.7707, 24.44274
648.2528, 24.25946
648.7349, 24.11387
649.2170, 24.02439
649.6992, 24.01064
650.1813, 24.04033
650.6634, 23.98995
651.1455, 23.87645
651.6276, 23.86633
652.1097, 24.19024
652.5919, 24.59390
653.0740, 24.70115
653.5561, 24.54399
654.0382, 24.42236
654.5203, 24.65440
655.0024, 24.86625
655.4846, 24.71632
655.9667, 24.02359
656.4488, 23.69348
656.9309, 24.26209
657.4130, 24.91122
657.8951, 25.05206
658.3773, 24.39293
658.8594, 24.11870
659.3415, 24.39208
659.8236, 24.82983
660.3057, 24.91349
660.7878, 24.66855
661.2700, 24.36765
661.7521, 24.04755
662.2342, 23.75307
662.7163, 23.54945
663.1984, 23.41741
663.6805, 23.30501
664.1627, 23.16694
664.6448, 23.06382
665.1269, 23.06661
665.6090, 23.14279
666.0911, 23.16805
666.5732, 23.06027
667.0554, 22.95015
667.5375, 22.87171
668.0196, 22.82504
668.5017, 22.83136
668.9838, 22.91980
669.4659, 22.99209
669.9481, 22.94617
670.4302, 22.79739
670.9123, 22.83740
671.3944, 23.08289
671.8765, 23.36228
672.3586, 23.54414
672.8408, 23.63871
673.3229, 23.64429
673.8050, 23.53967
674.2871, 23.44919
674.7692, 23.43213
675.2513, 23.48453
675.7335, 23.60456
676.2156, 23.87844
676.6977, 24.10548
677.1798, 24.23458
677.6619, 24.31374
678.1440, 24.40325
678.6262, 24.47069
679.1083, 24.63982
679.5904, 24.95062
680.0725, 25.36588
680.5546, 25.81612
681.0367, 26.30308
681.5189, 26.82165
682.0010, 27.41367
682.4831, 28.01122
682.9652, 28.50227
683.4473, 28.90100
683.9294, 29.31921
684.4116, 29.85417
684.8937, 30.39080
685.3758, 30.86882
685.8579, 31.27883
686.3400, 31.64357
686.8221, 31.80448
687.3043, 32.06504
687.7864, 32.58916
688.2685, 33.43011
688.7506, 34.20815
689.2327, 34.86230
689.7148, 35.63575
690.1970, 36.84214
690.6791, 38.41437
691.1612, 39.85650
691.6433, 41.08766
692.1254, 42.24620
692.6075, 43.53931
693.0897, 44.84163
693.5718, 45.94936
694.0539, 46.71112
694.5360, 47.44518
695.0181, 48.51207
695.5002, 49.58554
695.9824, 50.18120
696.4645, 50.22033
696.9466, 49.78188
697.4287, 48.80350
697.9108, 47.38132
698.3929, 45.71809
698.8751, 43.76313
699.3572, 41.71271
699.8393, 39.50116
700.3214, 37.31535
700.8035, 35.63860
701.2856, 34.42225
701.7678, 33.38409
702.2499, 32.45201
702.7320, 31.55628
703.2141, 30.55101
703.6962, 29.47293
704.1783, 28.63948
704.6605, 28.36403
705.1426, 28.19246
705.6247, 27.87802
706.1068, 27.38285
706.5889, 27.04757
707.0710, 26.91729
707.5532, 26.87360
708.0353, 26.90231
708.5174, 27.00364
708.9995, 26.82322
709.4816, 26.31570
709.9637, 25.80233
710.4459, 25.56429
710.9280, 25.54495
711.4101, 25.70442
711.8922, 26.09271
712.3743, 26.36796
712.8564, 26.28261
713.3386, 25.98346
713.8207, 25.61433
714.3028, 24.97999
714.7849, 24.62669
715.2670, 24.77651
715.7491, 25.09472
716.2313, 25.13305
716.7134, 24.80994
717.1955, 24.55124
717.6776, 24.44591
718.1597, 24.40222
718.6418, 24.19613
719.1240, 23.87994
719.6061, 23.71264
720.0882, 23.89578
720.5703, 24.14042
721.0524, 24.18542
721.5345, 24.06118
722.0167, 23.84088
722.4988, 23.31382
722.9809, 22.94357
723.4630, 23.04854
723.9451, 23.50187
724.4272, 23.63725
724.9094, 23.26376
725.3915, 22.94409
725.8736, 22.91132
726.3557, 23.09879
726.8378, 23.10939
727.3199, 22.94056
727.8021, 22.79284
728.2842, 22.80194
728.7663, 22.90876
729.2484, 23.10080
729.7305, 23.34979
730.2126, 23.40116
730.6948, 22.83898
731.1769, 22.23637
731.6590, 21.98578
732.1411, 22.16718
732.6232, 22.43529
733.1053, 22.88640
733.5875, 23.27239
734.0696, 23.42262
734.5517, 23.30299
735.0338, 23.20950
735.5159, 23.13834
735.9980, 23.10821
736.4802, 23.19982
736.9623, 23.34373
737.4444, 23.32589
737.9265, 23.10371
738.4086, 22.85540
738.8907, 22.65348
739.3729, 22.52922
739.8550, 22.52848
740.3371, 22.73129
740.8192, 22.91295
741.3013, 23.02028
741.7834, 23.09635
742.2656, 23.18398
742.7477, 23.29734
743.2298, 23.37835
743.7119, 23.43100
744.1940, 23.42707
744.6761, 23.27404
745.1583, 23.01011
745.6404, 22.82878
746.1225, 22.79639
746.6046, 22.82735
747.0867, 22.87937
747.5688, 22.93005
748.0510, 22.94059
748.5331, 22.93596
749.0152, 22.84654
749.4973, 22.53277
749.9794, 22.14724
750.4615, 22.00230
750.9437, 22.17751
751.4258, 22.41577
751.9079, 22.72247
752.3900, 23.00368
752.8721, 22.96899
753.3542, 22.65328
753.8364, 22.37600
754.3185, 22.27490
754.8006, 22.28058
755.2827, 22.41741
755.7648, 22.60611
756.2469, 22.61477
756.7291, 22.06711
757.2112, 21.60399
757.6933, 21.53809
758.1754, 21.80637
758.6575, 21.97925
759.1396, 21.98138
759.6218, 22.04933
760.1039, 22.35160
760.5860, 22.76993
761.0681, 22.68047
761.5502, 22.09921
762.0323, 21.59613
762.5145, 21.53186
762.9966, 21.71957
763.4787, 21.99267
763.9608, 22.31787
764.4429, 22.52673
764.9250, 22.39334
765.4072, 22.25267
765.8893, 22.31264
766.3714, 22.59191
766.8535, 22.74226
767.3356, 22.68785
767.8177, 22.63846
768.2999, 22.69085
768.7820, 22.83854
769.2641, 23.06278
769.7462, 23.36586
770.2283, 23.60647
770.7104, 23.61724
771.1926, 23.53233
771.6747, 23.50455
772.1568, 23.54778
772.6389, 23.71897
773.1210, 24.22899
773.6031, 24.73003
774.0853, 24.97381
774.5674, 24.88814
775.0495, 24.90065
775.5316, 24.98813
776.0137, 25.21588
776.4958, 25.70805
776.9780, 26.44420
777.4601, 26.91625
777.9422, 27.10390
778.4243, 27.29310
778.9064, 27.76368
779.3885, 28.36748
779.8707, 28.90651
780.3528, 29.35112
780.8349, 29.82578
781.3170, 30.34195
781.7991, 30.93438
782.2813, 31.65078
782.7633, 32.54575
783.2454, 33.34959
783.7275, 33.98709
784.2097, 34.64641
784.6918, 35.45360
785.1739, 36.40527
785.6560, 37.58735
786.1381, 39.02813
786.6202, 40.48725
787.1024, 41.69883
787.5845, 42.82817
788.0666, 44.04448
788.5487, 45.38018
789.0308, 46.83958
789.5129, 48.24392
789.9951, 49.92675
790.4772, 52.17952
790.9593, 55.33966
791.4414, 58.17175
791.9235, 60.74365
792.4056, 62.92494
792.8878, 64.55964
793.3699, 65.69599
793.8520, 66.59339
794.3341, 67.27419
794.8162, 67.85619
795.2983, 68.81953
795.7805, 69.56726
796.2626, 69.35904
796.7447, 67.79302
797.2268, 66.11548
797.7089, 64.63943
798.1910, 63.13306
798.6732, 61.41421
799.1553, 59.35395
799.6374, 57.41200
800.1195, 55.51488
800.6016, 54.00712
801.0837, 53.40892
801.5659, 53.49109
802.0480, 53.54860
802.5301, 53.48057
803.0122, 53.40238
803.4943, 53.41010
803.9764, 53.44344
804.4586, 53.47722
804.9407, 53.64530
805.4228, 53.45675
805.9049, 52.89623
806.3870, 51.97037
806.8691, 50.58192
807.3513, 48.67250
807.8334, 46.85932
808.3155, 45.18040
808.7976, 43.56018
809.2797, 41.88154
809.7618, 40.20722
810.2440, 38.67822
810.7261, 37.30739
811.2082, 36.08014
811.6903, 35.04991
812.1724, 34.11794
812.6545, 33.18824
813.1367, 32.11150
813.6188, 31.41291
814.1009, 31.27225
814.5830, 31.23005
815.0651, 30.85109
815.5472, 30.16376
816.0294, 29.56739
816.5115, 29.09274
816.9936, 28.71972
817.4757, 28.52941
817.9578, 28.38842
818.4399, 28.09918
818.9221, 27.59181
819.4042, 27.18419
819.8863, 27.06534
820.3684, 27.02467
820.8505, 26.90678
821.3326, 26.67441
821.8148, 26.52879
822.2969, 26.49492
822.7790, 26.46560
823.2611, 26.32253
823.7432, 26.10842
824.2253, 25.97374
824.7075, 25.93131
825.1896, 25.88674
825.6717, 25.73152
826.1538, 25.57148
826.6359, 25.52923
827.1180, 25.66650
827.6002, 25.63262
828.0823, 25.16040
828.5644, 24.80697
829.0465, 25.01629
829.5286, 25.81170
830.0107, 25.99984
830.4929, 25.53647
830.9750, 25.01376
831.4571, 24.94159
831.9392, 25.09527
832.4213, 25.16370
832.9034, 25.12514
833.3856, 25.01726
833.8677, 24.78415
834.3498, 24.55005
834.8319, 24.37432
835.3140, 24.25662
835.7961, 24.22232
836.2783, 24.28944
836.7604, 24.39198
837.2425, 24.53048
837.7246, 24.67401
838.2067, 24.67848
838.6888, 24.55350
839.1710, 24.39688
839.6531, 24.09092
840.1352, 23.92177
840.6173, 24.30261
841.0994, 25.15907
841.5815, 25.63020
842.0637, 25.26328
842.5458, 24.83287
843.0279, 24.54962
843.5100, 24.39689
843.9921, 24.27564
844.4742, 24.18668
844.9564, 24.13813
845.4385, 24.21094
845.9206, 24.27275
846.4027, 23.99466
846.8848, 23.50927
847.3669, 23.26984
847.8491, 23.70314
848.3312, 24.18984
848.8133, 24.57965
849.2954, 24.82880
849.7775, 24.75421
850.2596, 24.20158
850.7418, 23.82626
851.2239, 23.86029
851.7060, 24.12080
852.1881, 24.22461
852.6702, 24.19768
853.1523, 24.13311
853.6345, 23.97210
854.1166, 23.90750
854.5987, 24.20874
855.0808, 24.67388
855.5629, 24.92155
856.0450, 24.85282
856.5272, 24.56484
857.0093, 23.90171
857.4914, 23.19285
857.9735, 23.10901
858.4556, 23.61229
858.9377, 23.93753
859.4199, 23.88858
859.9020, 23.68996
860.3841, 23.50048
860.8662, 23.34885
861.3483, 23.28472
861.8304, 23.41013
862.3126, 23.46030
862.7947, 23.24190
863.2768, 23.00753
863.7589, 23.00922
864.2410, 23.30981
864.7231, 23.49709
865.2053, 23.53234
865.6874, 23.51265
866.1695, 23.53233
866.6516, 23.57721
867.1337, 23.66308
867.6158, 23.81679
868.0980, 23.79384
868.5801, 23.21991
869.0622, 22.59208
869.5443, 22.32711
870.0264, 22.51462
870.5085, 22.63941
870.9907, 22.67041
871.4728, 22.71788
871.9549, 22.91937
872.4370, 23.20848
872.9191, 23.26694
873.4012, 23.10417
873.8834, 22.97096
874.3655, 23.05033
874.8476, 23.21798
875.3297, 23.38428
875.8118, 23.54349
876.2939, 23.77004
876.7761, 24.25787
877.2582, 24.50157
877.7403, 24.23067
878.2224, 23.57220
878.7045, 23.10908
879.1866, 22.84054
879.6688, 22.79693
880.1509, 23.16820
880.6330, 23.63000
881.1151, 23.92697
881.5972, 24.05314
882.0793, 23.98917
882.5615, 23.39865
883.0436, 23.04031
883.5257, 23.17580
884.0078, 23.57329
884.4899, 23.67490
884.9720, 23.45858
885.4542, 23.38484
885.9363, 23.60956
886.4184, 23.93470
886.9005, 24.10953
887.3826, 24.19472
887.8647, 24.30005
888.3469, 24.52248
888.8290, 24.65856
889.3111, 24.58609
889.7932, 24.43154
890.2753, 24.31595
890.7574, 24.24592
891.2396, 24.18770
891.7217, 24.14336
892.2038, 24.09089
892.6859, 23.97251
893.1680, 23.83713
893.6501, 23.77503
894.1323, 23.79729
894.6144, 23.90144
895.0965, 24.16989
895.5786, 24.45539
896.0607, 24.67447
896.5428, 24.83582
897.0250, 24.83782
897.5071, 24.63786
897.9892, 24.42323
898.4713, 24.31227
898.9534, 24.27750
899.4355, 24.23888
899.9177, 24.19872
900.3998, 24.17328
900.8819, 24.13457
901.3640, 24.14880
901.8461, 24.32454
902.3282, 24.61116
902.8104, 24.70872
903.2925, 24.55640
903.7746, 24.33060
904.2567, 24.00082
904.7388, 23.71835
905.2209, 23.93874
905.7031, 24.54473
906.1852, 25.07001
906.6673, 25.38403
907.1494, 25.49935
907.6315, 25.24596
908.1136, 24.85653
908.5958, 24.70663
909.0779, 24.95215
909.5600, 25.22003
910.0421, 25.49426
910.5242, 25.77585
911.0063, 26.11758
911.4885, 26.48260
911.9706, 26.67926
912.4527, 26.67122
912.9348, 26.56487
913.4169, 26.38893
913.8990, 26.18791
914.3812, 25.97489
914.8633, 25.71448
915.3454, 25.66519
915.8275, 26.03464
916.3096, 26.26121
916.7917, 25.91320
917.2739, 25.10610
917.7560, 24.58429
918.2381, 24.34026
918.7202, 24.28204
919.2023, 24.61822
919.6844, 24.88986
920.1666, 24.63160
920.6487, 23.94887
921.1308, 23.44568
921.6129, 23.24671
922.0950, 23.16344
922.5771, 23.19874
923.0593, 23.28628
923.5414, 23.26999
924.0235, 23.15519
924.5056, 22.94626
924.9877, 22.54910
925.4698, 22.26385
925.9520, 22.57580
926.4341, 23.08283
926.9162, 23.21879
927.3983, 22.37329
927.8804, 21.90840
928.3625, 22.02023
928.8447, 22.25211
929.3268, 22.07145
929.8089, 21.54909
930.2910, 21.25139
930.7731, 21.23075
931.2552, 21.27226
931.7374, 21.22082
932.2195, 21.13962
932.7016, 21.07667
933.1837, 21.03745
933.6658, 21.02665
934.1479, 21.07734
934.6301, 21.09708
935.1122, 21.02931
935.5943, 20.90271
936.0764, 20.81850
936.5585, 20.78139
937.0406, 20.83080
937.5228, 21.13865
938.0049, 21.40095
938.4870, 21.34561
938.9691, 21.07545
939.4512, 20.83107
939.9333, 20.58286
940.4155, 20.47846
940.8976, 20.58276
941.3797, 20.76680
941.8618, 20.82431
942.3439, 20.77855
942.8260, 20.72839
943.3082, 20.67925
943.7903, 20.69647
944.2724, 20.91113
944.7545, 21.16379
945.2366, 21.31339
945.7188, 21.32548
946.2009, 21.25982
946.6830, 21.08027
947.1651, 20.90297
947.6472, 20.80593
948.1293, 20.77455
948.6115, 20.73822
949.0936, 20.70327
949.5757, 20.71597
950.0578, 20.86900
950.5399, 21.01661
951.0220, 21.05276
951.5042, 21.00441
951.9863, 20.99953
952.4684, 21.04840
952.9505, 21.13016
953.4326, 21.27126
953.9147, 21.39001
954.3969, 21.31203
954.8790, 21.09409
955.3611, 20.88153
955.8432, 20.69526
956.3253, 20.58017
956.8074, 20.62679
957.2896, 20.71490
957.7717, 20.73208
958.2538, 20.67326
958.7359, 20.51216
959.2180, 20.19813
959.7001, 19.99601
960.1823, 20.23129
960.6644, 20.69747
961.1465, 20.98527
961.6286, 21.08974
962.1107, 21.10267
962.5928, 21.02972
963.0750, 20.91045
963.5571, 20.70953
964.0392, 20.47715
964.5213, 20.43745
965.0034, 20.61883
965.4855, 20.72715
965.9677, 20.64713
966.4498, 20.51090
966.9319, 20.52678
967.4140, 20.61406
967.8961, 20.62927
968.3782, 20.50213
968.8604, 20.35276
969.3425, 20.13544
969.8246, 19.96919
970.3067, 19.96992
970.7888, 20.14328
971.2709, 20.31314
971.7531, 20.47426
972.2352, 20.60789
972.7173, 20.72371
973.1994, 20.78666
973.6815, 20.73429
974.1636, 20.57542
974.6458, 20.43207
975.1279, 20.26712
975.6100, 20.22538
976.0921, 20.42786
976.5742, 20.72186
977.0563, 20.63018
977.5385, 20.21215
978.0206, 19.82776
978.5027, 19.58780
978.9848, 19.44706
979.4669, 19.39356
979.9490, 19.40925
980.4311, 19.48197
980.9132, 19.69910
981.3953, 19.76970
981.8774, 19.66735
982.3596, 19.48653
982.8417, 19.27082
983.3238, 19.04893
983.8059, 18.87883
984.2880, 18.77047
984.7701, 18.81324
985.2523, 19.24713
985.7344, 19.66392
986.2165, 19.81568
986.6986, 19.75930
987.1807, 19.73604
987.6628, 19.76651
988.1450, 19.69568
988.6271, 19.43878
989.1092, 19.13886
989.5913, 19.02358
990.0734, 19.01602
990.5555, 18.97522
991.0377, 18.85216
991.5198, 18.70997
992.0019, 18.46262
992.4840, 18.29959
992.9661, 18.40457
993.4482, 18.78888
993.9304, 19.09690
994.4125, 19.32676
994.8946, 19.46089
995.3767, 19.43229
995.8588, 19.35070
996.3409, 19.28678
996.8231, 19.25441
997.3052, 19.31616
997.7873, 19.61818
998.2694, 19.75003
998.7515, 19.55306
999.2336, 19.22906
999.7158, 19.20938
1000.198, 19.42232
1000.680, 19.61877
1001.162, 19.74879
1001.644, 19.79350
1002.126, 19.66325
1002.608, 19.49156
1003.091, 19.39985
1003.573, 19.39822
1004.055, 19.44343
1004.537, 19.55554
1005.019, 19.62051
1005.501, 19.50625
1005.983, 19.32312
1006.465, 19.26469
1006.948, 19.30900
1007.430, 19.36368
1007.912, 19.31282
1008.394, 19.37462
1008.876, 19.66980
1009.358, 20.05495
1009.840, 20.30118
1010.322, 20.40856
1010.804, 20.33348
1011.287, 20.03223
1011.769, 19.76362
1012.251, 19.77454
1012.733, 19.94005
1013.215, 20.14595
1013.697, 20.38064
1014.179, 20.67315
1014.661, 21.15012
1015.143, 21.38677
1015.626, 20.99402
1016.108, 20.29880
1016.590, 20.39143
1017.072, 21.08332
1017.554, 21.67578
1018.036, 21.76864
1018.518, 21.78077
1019.000, 21.83828
1019.483, 21.93442
1019.965, 22.05187
1020.447, 22.18245
1020.929, 22.39542
1021.411, 22.70523
1021.893, 23.03729
1022.375, 23.33971
1022.857, 23.61046
1023.339, 23.80904
1023.822, 23.94062
1024.304, 24.18478
1024.786, 24.65216
1025.268, 25.14033
1025.750, 25.57194
1026.232, 25.99564
1026.714, 26.55380
1027.196, 27.22734
1027.679, 27.90755
1028.161, 28.51068
1028.643, 29.21513
1029.125, 30.20448
1029.607, 31.32456
1030.089, 32.40900
1030.571, 33.43195
1031.053, 34.47362
1031.536, 35.51963
1032.018, 36.69488
1032.500, 38.08315
1032.982, 39.66208
1033.464, 41.43712
1033.946, 43.36607
1034.428, 45.34386
1034.910, 47.33181
1035.392, 49.36663
1035.875, 51.38288
1036.357, 53.51239
1036.839, 55.97527
1037.321, 58.76117
1037.803, 61.57075
1038.285, 64.37186
1038.767, 67.26948
1039.249, 70.44435
1039.731, 73.67799
1040.214, 76.74767
1040.696, 80.11881
1041.178, 82.91200
1041.660, 86.84079
1042.142, 90.63758
1042.624, 94.09418
1043.106, 97.13384
1043.588, 99.97907
1044.071, 102.3742
1044.553, 103.7719
1045.035, 103.9650
1045.517, 103.1444
1045.999, 101.2218
1046.481, 98.49282
1046.963, 95.18354
1047.445, 91.29829
1047.927, 86.98190
1048.410, 82.21870
1048.892, 77.45346
1049.374, 72.82848
1049.856, 68.44048
1050.338, 64.30730
1050.820, 60.49336
1051.302, 57.37025
1051.784, 55.07005
1052.266, 52.99753
1052.749, 51.02229
1053.231, 49.26567
1053.713, 47.89547
1054.195, 46.86836
1054.677, 46.11586
1055.159, 45.67210
1055.641, 45.26559
1056.123, 44.65502
1056.606, 44.27620
1057.088, 44.41895
1057.570, 44.96095
1058.052, 45.24818
1058.534, 45.30072
1059.016, 45.24169
1059.498, 44.96486
1059.980, 44.81086
1060.463, 44.95585
1060.945, 45.37820
1061.427, 46.06247
1061.909, 47.08591
1062.391, 48.05526
1062.873, 48.96260
1063.355, 49.74854
1063.837, 50.34519
1064.319, 50.79599
1064.802, 51.28019
1065.284, 51.71980
1065.766, 51.64090
1066.248, 50.81023
1066.730, 49.51859
1067.212, 47.66616
1067.694, 45.54514
1068.176, 43.68766
1068.658, 42.03646
1069.141, 40.38490
1069.623, 38.65514
1070.105, 37.24842
1070.587, 36.74519
1071.069, 36.34561
1071.551, 35.45626
1072.033, 34.12914
1072.515, 33.01046
1072.998, 32.11956
1073.480, 31.36013
1073.962, 30.66915
1074.444, 30.14143
1074.926, 29.93445
1075.408, 29.94857
1075.890, 30.03361
1076.372, 30.09806
1076.854, 30.40965
1077.337, 31.08216
1077.819, 31.69472
1078.301, 31.77324
1078.783, 31.56891
1079.265, 31.67335
1079.747, 32.05577
1080.229, 32.47685
1080.711, 32.93515
1081.193, 33.29179
1081.676, 33.58101
1082.158, 33.70538
1082.640, 33.50876
1083.122, 32.99478
1083.604, 32.12667
1084.086, 30.87286
1084.568, 29.61856
1085.050, 28.73401
1085.532, 27.89361
1086.015, 26.71630
1086.497, 25.28221
1086.979, 24.46849
1087.461, 24.36564
1087.943, 24.29337
1088.425, 24.05982
1088.907, 23.68774
1089.389, 23.03794
1089.872, 22.33799
1090.354, 21.94320
1090.836, 22.07801
1091.318, 22.09238
1091.800, 21.89646
1092.282, 21.69455
1092.764, 21.64521
1093.246, 21.67400
1093.729, 21.50426
1094.211, 21.20179
1094.693, 21.01706
1095.175, 21.26644
1095.657, 21.37068
1096.139, 21.02431
1096.621, 20.58950
1097.103, 20.50508
1097.585, 20.74970
1098.068, 20.78340
1098.550, 20.58000
1099.032, 20.36580
1099.514, 20.29191
1099.996, 20.27294
1100.478, 20.29377
1100.960, 20.32054
1101.442, 20.19607
1101.924, 19.84338
1102.407, 19.84052
1102.889, 20.37066
1103.371, 20.95458
1103.853, 21.07725
1104.335, 20.93448
1104.817, 20.69032
1105.299, 20.34161
1105.781, 20.24433
1106.264, 20.52239
1106.746, 20.79504
1107.228, 20.93377
1107.710, 20.96412
1108.192, 20.84525
1108.674, 20.67596
1109.156, 20.69384
1109.638, 21.05243
1110.120, 21.39667
1110.603, 21.66017
1111.085, 21.85359
1111.567, 21.95083
1112.049, 21.97530
1112.531, 22.14112
1113.013, 22.41656
1113.495, 22.61217
1113.977, 22.60998
1114.459, 22.52731
1114.942, 22.24688
1115.424, 22.01911
1115.906, 22.21027
1116.388, 22.86887
1116.870, 23.42641
1117.352, 23.85393
1117.834, 24.18592
1118.316, 24.36890
1118.799, 24.53762
1119.281, 24.75615
1119.763, 25.05959
1120.245, 25.59012
1120.727, 26.49421
1121.209, 26.98050
1121.691, 26.78827
1122.173, 26.64981
1122.656, 27.66448
1123.138, 29.14077
1123.620, 30.19947
1124.102, 30.73349
1124.584, 30.94108
1125.066, 30.64993
1125.548, 30.51709
1126.030, 30.78165
1126.512, 31.27047
1126.995, 31.77123
1127.477, 32.20183
1127.959, 32.34222
1128.441, 32.08170
1128.923, 31.75845
1129.405, 31.54870
1129.887, 31.20544
1130.369, 30.54007
1130.851, 29.64712
1131.334, 28.91687
1131.816, 28.34415
1132.298, 27.87887
1132.780, 27.53269
1133.262, 27.23787
1133.744, 26.96614
1134.226, 26.72690
1134.708, 26.52631
1135.191, 26.36514
1135.673, 26.28141
1136.155, 26.26920
1136.637, 26.16649
1137.119, 25.66422
1137.601, 25.23883
1138.083, 25.30875
1138.565, 25.68043
1139.047, 25.92493
1139.530, 26.02291
1140.012, 26.08743
1140.494, 26.12306
1140.976, 26.15600
1141.458, 26.12425
1141.940, 26.16628
1142.422, 26.51815
1142.904, 27.10452
1143.386, 27.44914
1143.869, 27.41377
1144.351, 27.47714
1144.833, 27.70317
1145.315, 28.11729
1145.797, 28.77982
1146.279, 29.63312
1146.761, 30.75146
1147.243, 32.15252
1147.726, 32.89967
1148.208, 32.28095
1148.690, 32.30075
1149.172, 33.80722
1149.654, 35.90612
1150.136, 36.38247
1150.618, 36.26028
1151.100, 38.06219
1151.583, 43.10729
1152.065, 46.45252
1152.547, 45.67619
1153.029, 44.61900
1153.511, 44.92675
1153.993, 46.29708
1154.475, 47.91526
1154.957, 49.74573
1155.439, 51.67712
1155.922, 53.70797
1156.404, 55.74895
1156.886, 57.82319
1157.368, 59.87628
1157.850, 62.00855
1158.332, 64.15176
1158.814, 65.70195
1159.296, 66.65410
1159.778, 66.97219
1160.261, 66.68403
1160.743, 65.69327
1161.225, 63.73057
1161.707, 61.17633
1162.189, 58.37060
1162.671, 55.30860
1163.153, 52.05320
1163.635, 48.62495
1164.118, 45.52060
1164.600, 43.37376
1165.082, 41.38829
1165.564, 39.00989
1166.046, 36.50333
1166.528, 34.35310
1167.010, 32.55132
1167.492, 31.20041
1167.974, 30.31784
1168.457, 29.56646
1168.939, 28.60041
1169.421, 27.69539
1169.903, 27.17978
1170.385, 26.37335
1170.867, 25.64435
1171.349, 25.18967
1171.831, 24.33711
1172.313, 23.88770
1172.796, 23.60154
1173.278, 23.26490
1173.760, 22.96069
1174.242, 22.80970
1174.724, 22.80927
1175.206, 22.68732
1175.688, 22.41088
1176.170, 22.16094
1176.653, 21.99351
1177.135, 21.84693
1177.617, 21.61953
1178.099, 21.38410
1178.581, 21.23421
1179.063, 21.19074
1179.545, 21.18278
1180.027, 21.20967
1180.510, 21.25634
1180.992, 21.29974
1181.474, 21.39211
1181.956, 21.74117
1182.438, 22.14207
1182.920, 22.25367
1183.402, 21.92646
1183.884, 21.61191
1184.366, 21.28930
1184.849, 21.11076
1185.331, 21.23541
1185.813, 21.45096
1186.295, 21.34073
1186.777, 21.03501
1187.259, 20.77189
1187.741, 20.60639
1188.223, 20.51451
1188.705, 20.51602
1189.188, 20.53293
1189.670, 20.46562
1190.152, 20.41002
1190.634, 20.64011
1191.116, 21.04216
1191.598, 21.34328
1192.080, 21.52720
1192.562, 21.42844
1193.045, 20.87410
1193.527, 20.40708
1194.009, 20.64279
1194.491, 21.22812
1194.973, 21.27366
1195.455, 20.92588
1195.937, 20.70881
1196.419, 20.96894
1196.901, 21.13925
1197.384, 21.13837
1197.866, 21.07166
1198.348, 21.06423
1198.830, 21.06244
1199.312, 20.84787
1199.794, 20.48684
1200.276, 20.33044
1200.758, 20.83747
1201.240, 21.08025
1201.723, 20.83096
1202.205, 20.44429
1202.687, 20.41353
1203.169, 20.56355
1203.651, 20.37658
1204.133, 19.88006
1204.615, 19.60072
1205.097, 19.98460
1205.580, 20.26188
1206.062, 20.25482
1206.544, 20.13662
1207.026, 20.12932
1207.508, 20.21490
1207.990, 20.38199
1208.472, 20.62177
1208.954, 20.80072
1209.437, 20.92359
1209.919, 20.88147
1210.401, 20.58471
1210.883, 20.21020
1211.365, 20.04953
1211.847, 20.04457
1212.329, 20.06386
1212.811, 20.08970
1213.293, 20.10565
1213.776, 20.08905
1214.258, 20.08662
1214.740, 20.11445
1215.222, 20.15847
1215.704, 20.20111
1216.186, 20.23636
1216.668, 20.26092
1217.150, 20.27903
1217.632, 20.22138
1218.115, 19.93329
1218.597, 19.79303
1219.079, 20.01360
1219.561, 20.33153
1220.043, 20.08144
1220.525, 19.54399
1221.007, 19.37507
1221.489, 19.77639
1221.972, 20.12499
1222.454, 20.30195
1222.936, 20.37274
1223.418, 20.32254
1223.900, 20.23381
1224.382, 20.33676
1224.864, 20.52429
1225.346, 20.54218
1225.828, 20.25878
1226.311, 20.13621
1226.793, 20.33843
1227.275, 20.48856
1227.757, 20.38270
1228.239, 20.16023
1228.721, 20.06890
1229.203, 20.09348
1229.685, 20.22931
1230.167, 20.55573
1230.650, 20.70177
1231.132, 20.56137
1231.614, 20.44722
1232.096, 20.54773
1232.578, 20.74041
1233.060, 20.84759
1233.542, 20.85225
1234.024, 20.70074
1234.507, 20.26850
1234.989, 19.98269
1235.471, 19.88843
1235.953, 19.85481
1236.435, 19.83403
1236.917, 19.80249
1237.399, 19.75988
1237.881, 19.66572
1238.364, 19.42454
1238.846, 18.83206
1239.328, 18.57642
1239.810, 18.71266
1240.292, 18.98278
1240.774, 19.40112
1241.256, 19.69384
1241.738, 19.28605
1242.220, 18.55385
1242.703, 18.18296
1243.185, 18.38657
1243.667, 18.63385
1244.149, 18.94157
1244.631, 19.17929
1245.113, 19.25434
1245.595, 19.21633
1246.077, 18.99957
1246.559, 18.74790
1247.042, 18.75854
1247.524, 19.20569
1248.006, 19.24030
1248.488, 18.82833
1248.970, 18.43538
1249.452, 18.36336
1249.934, 18.44839
1250.416, 18.68203
1250.899, 18.92013
1251.381, 18.90658
1251.863, 18.55515
1252.345, 18.49201
1252.827, 18.72115
1253.309, 18.92021
1253.791, 18.82096
1254.273, 18.67726
1254.755, 18.67002
1255.238, 18.71553
1255.720, 18.69259
1256.202, 18.59796
1256.684, 18.48505
1257.166, 18.36233
1257.648, 18.33988
1258.130, 18.59986
1258.612, 18.84557
1259.094, 18.96341
1259.577, 18.95246
1260.059, 18.72756
1260.541, 18.32234
1261.023, 18.22272
1261.505, 18.40768
1261.987, 18.61349
1262.469, 18.74041
1262.951, 18.80644
1263.434, 18.84076
1263.916, 18.79631
1264.398, 18.54630
1264.880, 18.17020
1265.362, 18.08021
1265.844, 18.22914
1266.326, 18.30983
1266.808, 18.03597
1267.291, 17.91490
1267.773, 18.12264
1268.255, 18.33405
1268.737, 18.11702
1269.219, 17.69181
1269.701, 17.59684
1270.183, 17.80105
1270.665, 18.10535
1271.147, 18.71406
1271.630, 18.96079
1272.112, 18.71444
1272.594, 18.34349
1273.076, 18.12475
1273.558, 18.04467
1274.040, 18.16907
1274.522, 18.40801
1275.004, 18.47447
1275.486, 18.26225
1275.969, 18.00815
1276.451, 17.68759
1276.933, 17.54641
1277.415, 17.97273
1277.897, 18.53856
1278.379, 18.88223
1278.861, 18.97841
1279.343, 18.74906
1279.825, 18.05517
1280.308, 17.82900
1280.790, 18.13835
1281.272, 18.44825
1281.754, 18.24465
1282.236, 18.01442
1282.718, 18.15389
1283.200, 18.47616
1283.682, 18.69492
1284.165, 18.81380
1284.647, 18.68316
1285.129, 18.31661
1285.611, 18.01123
1286.093, 18.01892
1286.575, 18.04464
1287.057, 17.96309
1287.539, 17.82256
1288.021, 17.59878
1288.504, 17.34685
1288.986, 17.47825
1289.468, 17.92656
1289.950, 18.22566
1290.432, 18.00054
1290.914, 17.80836
1291.396, 17.72528
1291.878, 17.76387
1292.360, 18.05863
1292.843, 18.43976
1293.325, 18.40062
1293.807, 18.05833
1294.289, 17.85554
1294.771, 18.12243
1295.253, 18.22966
1295.735, 18.12587
1296.217, 17.94691
1296.700, 17.78020
1297.182, 17.62754
1297.664, 17.45934
1298.146, 17.31098
1298.628, 17.29431
1299.110, 17.49952
1299.592, 17.49664
1300.074, 17.24682
1300.557, 17.07290
1301.039, 17.30725
1301.521, 17.60451
1302.003, 17.68327
1302.485, 17.63525
1302.967, 17.62028
1303.449, 17.64856
##END=



