##NAMES=Quenselite
##RRUFFID=R100036
##IDEAL CHEMISTRY=Pb^2+^Mn^3+^O_2_(OH)
##LOCALITY=Langban, Filipstad, Varmland, Sweden
##OWNER=RRUFF
##SOURCE=William W Pinch
##DESCRIPTION=Tabular to rectangular blocky, black with a hint of red highlights
##STATUS=The identification of this mineral has been confirmed by single-crystal X-ray diffraction.
##URL=rruff.info/R100036
##MEASURED CHEMISTRY=Pb_1.02_Mn^3+^_0.98_O_2_(OH)
91.53320, 318.1738
92.01532, 327.3098
92.49744, 329.7740
92.97955, 326.7114
93.46167, 318.2967
93.94379, 309.7340
94.42590, 304.0926
94.90802, 299.6111
95.39014, 293.5618
95.87225, 285.6790
96.35437, 277.6610
96.83649, 269.9073
97.31860, 262.7013
97.80072, 256.4237
98.28284, 251.0978
98.76495, 246.3212
99.24707, 241.5052
99.72919, 237.1785
100.2113, 232.2519
100.6934, 225.9109
101.1755, 218.6795
101.6577, 211.6843
102.1398, 205.8130
102.6219, 201.1860
103.1040, 197.0673
103.5861, 193.3231
104.0682, 189.9607
104.5504, 187.7429
105.0325, 186.4853
105.5146, 184.4743
105.9967, 179.1886
106.4788, 169.4048
106.9609, 159.0860
107.4431, 147.4475
107.9252, 135.5840
108.4073, 124.9104
108.8894, 115.7828
109.3715, 108.2700
109.8536, 102.6196
110.3358, 98.87737
110.8179, 95.81153
111.3000, 92.69557
111.7821, 89.59475
112.2642, 87.20130
112.7463, 86.16020
113.2285, 85.78764
113.7106, 85.36506
114.1927, 84.72079
114.6748, 84.17473
115.1569, 84.46141
115.6390, 86.34057
116.1212, 87.02302
116.6033, 84.58692
117.0854, 81.13553
117.5675, 78.85484
118.0496, 78.95486
118.5317, 80.81513
119.0139, 81.43968
119.4960, 78.90691
119.9781, 77.11378
120.4602, 77.06918
120.9423, 78.25368
121.4244, 79.73153
121.9066, 80.82186
122.3887, 81.51714
122.8708, 81.88172
123.3529, 81.70996
123.8350, 81.47721
124.3171, 81.11395
124.7993, 80.75436
125.2814, 80.92188
125.7635, 82.16381
126.2456, 84.72639
126.7277, 87.74390
127.2098, 91.07138
127.6920, 94.90511
128.1741, 99.76586
128.6562, 105.9113
129.1383, 112.2130
129.6204, 117.5097
130.1025, 121.9727
130.5847, 125.1582
131.0668, 126.4180
131.5489, 126.1571
132.0310, 125.7303
132.5131, 125.2129
132.9952, 124.8375
133.4774, 124.7627
133.9595, 124.9917
134.4416, 125.4258
134.9237, 126.0025
135.4058, 126.7336
135.8879, 127.5517
136.3701, 128.3381
136.8522, 129.2789
137.3343, 130.5785
137.8164, 132.2818
138.2985, 134.1244
138.7806, 135.7215
139.2628, 137.2046
139.7449, 138.1159
140.2270, 138.1358
140.7091, 137.8073
141.1912, 137.6660
141.6733, 137.9525
142.1555, 138.4481
142.6376, 138.3953
143.1197, 137.5132
143.6018, 136.3401
144.0839, 134.8733
144.5660, 133.1501
145.0482, 131.1856
145.5303, 128.9644
146.0124, 126.5308
146.4945, 124.1746
146.9766, 121.7782
147.4587, 119.5557
147.9409, 117.8928
148.4230, 116.6114
148.9051, 114.9758
149.3872, 112.6007
149.8693, 109.3142
150.3514, 105.0745
150.8336, 99.07358
151.3157, 92.61497
151.7978, 86.64851
152.2799, 81.12962
152.7620, 76.33958
153.2441, 72.78967
153.7263, 70.10313
154.2084, 67.75103
154.6905, 65.51628
155.1726, 63.53012
155.6547, 62.13885
156.1368, 61.60175
156.6190, 61.23744
157.1011, 60.76077
157.5832, 60.16341
158.0653, 59.40031
158.5474, 58.28789
159.0295, 56.88470
159.5117, 55.98966
159.9938, 56.06484
160.4759, 56.23693
160.9580, 56.19614
161.4401, 55.98315
161.9222, 55.77412
162.4044, 55.75000
162.8865, 55.96651
163.3686, 56.03387
163.8507, 55.81862
164.3328, 55.58099
164.8149, 55.49523
165.2971, 55.53151
165.7792, 55.49553
166.2613, 55.13086
166.7434, 54.23409
167.2255, 53.60887
167.7076, 53.44118
168.1898, 53.37367
168.6719, 53.15619
169.1540, 52.73851
169.6361, 52.23835
170.1182, 51.80103
170.6003, 51.38849
171.0825, 51.18014
171.5646, 51.39464
172.0467, 51.73813
172.5288, 51.88585
173.0109, 51.74443
173.4930, 51.40581
173.9752, 50.94139
174.4573, 50.31604
174.9394, 49.80019
175.4215, 49.42090
175.9036, 49.20582
176.3857, 49.28811
176.8679, 49.86595
177.3500, 50.50285
177.8321, 50.56512
178.3142, 50.01002
178.7963, 49.46510
179.2784, 49.33696
179.7606, 49.57759
180.2427, 49.81371
180.7248, 49.98584
181.2069, 50.07814
181.6890, 50.02225
182.1711, 49.80438
182.6533, 49.65445
183.1354, 49.88661
183.6175, 50.57531
184.0996, 51.05606
184.5817, 50.87496
185.0638, 50.62018
185.5460, 50.72518
186.0281, 51.26835
186.5102, 51.83906
186.9923, 51.77455
187.4744, 50.71731
187.9565, 49.97764
188.4387, 49.82588
188.9208, 49.93575
189.4029, 50.12819
189.8850, 50.33844
190.3671, 50.55012
190.8492, 50.72056
191.3314, 50.71788
191.8135, 50.90547
192.2956, 51.40958
192.7777, 52.03432
193.2598, 52.60418
193.7419, 53.04972
194.2241, 53.43296
194.7062, 53.90322
195.1883, 54.74526
195.6704, 55.33529
196.1525, 55.45786
196.6346, 55.38508
197.1168, 55.39312
197.5989, 55.59596
198.0810, 56.00090
198.5631, 56.65569
199.0452, 57.84309
199.5273, 58.89157
200.0095, 59.60634
200.4916, 60.12447
200.9737, 60.66794
201.4558, 61.33605
201.9379, 62.09476
202.4200, 62.86912
202.9022, 63.67389
203.3843, 64.46024
203.8664, 65.22081
204.3485, 65.95245
204.8306, 66.62709
205.3127, 67.20133
205.7949, 67.74773
206.2770, 68.42583
206.7591, 69.30526
207.2412, 70.16108
207.7233, 70.84463
208.2054, 71.38179
208.6876, 71.89278
209.1697, 72.31583
209.6518, 72.83958
210.1339, 73.71906
210.6160, 75.04007
211.0981, 76.48650
211.5803, 77.85537
212.0624, 79.14462
212.5445, 80.32191
213.0266, 81.40163
213.5087, 82.31628
213.9908, 82.85998
214.4730, 82.90503
214.9551, 83.09477
215.4372, 84.29234
215.9193, 86.69661
216.4014, 88.89905
216.8836, 90.54031
217.3657, 91.80384
217.8478, 92.73867
218.3299, 93.34814
218.8120, 93.73650
219.2941, 93.98176
219.7763, 93.99821
220.2584, 94.15779
220.7405, 94.58062
221.2226, 95.12603
221.7047, 95.78327
222.1868, 96.53444
222.6690, 97.21284
223.1511, 97.53295
223.6332, 97.35569
224.1153, 97.11631
224.5974, 96.74845
225.0795, 96.41364
225.5617, 96.32668
226.0438, 96.51709
226.5259, 96.71471
227.0080, 96.39407
227.4901, 95.05283
227.9722, 94.11815
228.4544, 93.95889
228.9365, 93.96984
229.4186, 93.66450
229.9007, 92.91673
230.3828, 91.96486
230.8649, 91.22660
231.3471, 90.81992
231.8292, 90.45963
232.3113, 90.15545
232.7934, 89.88719
233.2755, 89.68700
233.7576, 89.54983
234.2398, 89.36939
234.7219, 88.99281
235.2040, 88.55739
235.6861, 87.57158
236.1682, 85.37054
236.6503, 82.98736
237.1325, 81.47966
237.6146, 81.10655
238.0967, 81.17854
238.5788, 80.66702
239.0609, 79.23082
239.5430, 77.96513
240.0252, 76.79719
240.5073, 75.87109
240.9894, 75.38287
241.4715, 75.37539
241.9536, 75.66819
242.4357, 76.10831
242.9179, 76.79827
243.4000, 77.13943
243.8821, 76.53710
244.3642, 75.80569
244.8463, 75.97645
245.3284, 77.28947
245.8106, 78.88124
246.2927, 79.60738
246.7748, 79.41345
247.2569, 79.77296
247.7390, 81.01938
248.2211, 82.88435
248.7033, 85.13728
249.1854, 87.77847
249.6675, 90.57885
250.1496, 93.31654
250.6317, 96.02953
251.1138, 98.87589
251.5960, 101.7105
252.0781, 104.7774
252.5602, 108.5748
253.0423, 113.2335
253.5244, 117.9956
254.0065, 122.0358
254.4887, 125.5948
254.9708, 129.3521
255.4529, 133.7144
255.9350, 138.2645
256.4171, 142.2739
256.8992, 145.5827
257.3813, 148.9854
257.8635, 153.6212
258.3456, 158.7121
258.8277, 162.8790
259.3098, 165.1004
259.7919, 166.5257
260.2740, 168.8201
260.7562, 172.1463
261.2383, 175.6270
261.7204, 178.9182
262.2025, 182.0356
262.6846, 185.0258
263.1667, 187.9953
263.6489, 190.7251
264.1310, 192.9290
264.6131, 194.5796
265.0952, 195.8190
265.5773, 196.4227
266.0594, 196.7477
266.5416, 197.1187
267.0237, 197.6490
267.5058, 198.1840
267.9879, 198.6456
268.4700, 199.1470
268.9521, 199.0435
269.4343, 197.7415
269.9164, 195.9201
270.3985, 194.0466
270.8806, 192.2391
271.3627, 190.3180
271.8448, 188.0860
272.3270, 185.5297
272.8091, 182.6757
273.2912, 179.4853
273.7733, 176.0000
274.2554, 172.0759
274.7375, 167.6898
275.2197, 163.2727
275.7018, 159.3282
276.1839, 155.9680
276.6660, 152.4473
277.1481, 148.6372
277.6302, 144.6578
278.1124, 140.5087
278.5945, 136.2153
279.0766, 131.9712
279.5587, 127.9870
280.0408, 124.2816
280.5229, 120.5756
281.0051, 116.4886
281.4872, 112.7602
281.9693, 109.6949
282.4514, 107.2841
282.9335, 105.3894
283.4156, 104.1728
283.8978, 103.6671
284.3799, 102.2622
284.8620, 98.93123
285.3441, 95.67990
285.8262, 93.07945
286.3083, 91.09505
286.7905, 89.55724
287.2726, 88.43902
287.7547, 87.68277
288.2368, 86.74186
288.7189, 85.28457
289.2010, 84.04337
289.6832, 83.34658
290.1653, 82.96341
290.6474, 82.50255
291.1295, 81.70661
291.6116, 80.73093
292.0938, 80.22251
292.5759, 80.41521
293.0580, 80.79721
293.5401, 81.42836
294.0222, 82.11217
294.5043, 82.60094
294.9865, 82.77817
295.4686, 82.79458
295.9507, 83.02517
296.4328, 83.61333
296.9149, 84.16950
297.3970, 84.34618
297.8792, 84.63417
298.3613, 85.55876
298.8434, 87.25172
299.3255, 89.27585
299.8076, 90.99696
300.2897, 92.62988
300.7719, 93.39045
301.2540, 92.32683
301.7361, 91.19001
302.2182, 91.18025
302.7003, 92.43552
303.1824, 94.18580
303.6646, 95.58192
304.1467, 96.61839
304.6288, 97.27309
305.1109, 97.44979
305.5930, 97.36152
306.0751, 96.89378
306.5573, 96.19064
307.0394, 95.64153
307.5215, 95.64564
308.0036, 96.25404
308.4857, 96.66924
308.9678, 96.82040
309.4500, 96.83684
309.9321, 96.83154
310.4142, 96.71380
310.8963, 96.26743
311.3784, 95.29490
311.8605, 93.88858
312.3427, 92.80408
312.8248, 92.47500
313.3069, 91.96127
313.7890, 91.01446
314.2711, 89.81068
314.7532, 88.56102
315.2354, 87.37328
315.7175, 86.23160
316.1996, 85.14503
316.6817, 84.43791
317.1638, 83.21716
317.6459, 81.06254
318.1281, 78.59077
318.6102, 76.35137
319.0923, 74.51800
319.5744, 72.90067
320.0565, 71.14626
320.5386, 69.02518
321.0208, 67.32648
321.5029, 66.39799
321.9850, 65.59658
322.4671, 64.49362
322.9492, 63.05620
323.4313, 61.56595
323.9135, 60.33634
324.3956, 59.44182
324.8777, 58.43472
325.3598, 57.06919
325.8419, 55.81553
326.3240, 54.93772
326.8062, 54.33769
327.2883, 53.68798
327.7704, 52.66985
328.2525, 51.33001
328.7346, 50.48220
329.2167, 50.81429
329.6989, 50.86810
330.1810, 49.99817
330.6631, 48.69411
331.1452, 47.75605
331.6273, 47.65969
332.1094, 48.05056
332.5916, 47.76784
333.0737, 46.21633
333.5558, 45.00480
334.0379, 44.35285
334.5200, 44.13432
335.0021, 44.37598
335.4843, 45.06440
335.9664, 45.85250
336.4485, 46.15634
336.9306, 45.81973
337.4127, 45.45839
337.8948, 44.93409
338.3770, 44.55017
338.8591, 44.68235
339.3412, 45.25552
339.8233, 45.69460
340.3055, 45.26392
340.7876, 43.83421
341.2697, 42.86047
341.7518, 42.60931
342.2339, 42.60476
342.7160, 42.81468
343.1982, 43.12884
343.6803, 43.31830
344.1624, 43.15031
344.6445, 42.74576
345.1266, 42.75438
345.6087, 43.50185
346.0909, 44.13820
346.5730, 44.39323
347.0551, 44.39382
347.5372, 44.21642
348.0193, 43.82347
348.5014, 43.50057
348.9836, 43.88488
349.4657, 45.25612
349.9478, 46.38788
350.4299, 46.55431
350.9120, 46.61134
351.3941, 47.24232
351.8763, 48.56432
352.3584, 50.06799
352.8405, 51.22949
353.3226, 52.04394
353.8047, 52.86312
354.2868, 53.81481
354.7690, 54.68546
355.2511, 55.28424
355.7332, 55.66972
356.2153, 56.08495
356.6974, 56.66643
357.1795, 57.40126
357.6617, 58.28408
358.1438, 59.42826
358.6259, 60.46973
359.1080, 61.24312
359.5901, 61.77830
360.0722, 62.07206
360.5544, 61.97754
361.0365, 61.80900
361.5186, 62.02437
362.0007, 62.65645
362.4828, 63.42445
362.9649, 64.37975
363.4471, 65.32047
363.9292, 66.00749
364.4113, 66.38422
364.8934, 66.65517
365.3755, 67.13209
365.8576, 67.70395
366.3398, 67.68152
366.8219, 66.64332
367.3040, 65.34672
367.7861, 64.52697
368.2682, 64.14906
368.7503, 64.03914
369.2325, 64.41783
369.7146, 64.93581
370.1967, 64.92677
370.6788, 64.26938
371.1609, 63.49424
371.6430, 63.10784
372.1252, 62.93391
372.6073, 62.39020
373.0894, 60.90003
373.5715, 59.41574
374.0536, 58.83322
374.5357, 59.01355
375.0179, 59.10902
375.5000, 58.69287
375.9821, 57.95551
376.4642, 57.36145
376.9463, 56.98330
377.4284, 56.56649
377.9106, 55.86709
378.3927, 55.10196
378.8748, 54.64325
379.3569, 54.59349
379.8390, 54.84272
380.3211, 55.34380
380.8033, 56.18374
381.2854, 56.72951
381.7675, 56.73066
382.2496, 56.56652
382.7317, 56.37837
383.2138, 56.24826
383.6960, 56.48909
384.1781, 57.41487
384.6602, 58.95905
385.1423, 60.16956
385.6244, 60.91705
386.1065, 61.54712
386.5887, 62.14631
387.0708, 62.70477
387.5529, 63.13362
388.0350, 63.38068
388.5171, 63.63958
388.9992, 64.34439
389.4814, 65.88744
389.9635, 67.30204
390.4456, 68.77431
390.9277, 70.00121
391.4098, 70.52670
391.8919, 70.41206
392.3741, 70.33800
392.8562, 71.07409
393.3383, 72.79257
393.8204, 74.01871
394.3025, 74.50208
394.7846, 74.79482
395.2668, 74.95639
395.7489, 75.07849
396.2310, 75.32989
396.7131, 75.83540
397.1952, 76.44302
397.6773, 76.59402
398.1595, 75.88654
398.6416, 75.37908
399.1237, 75.44727
399.6058, 75.60355
400.0879, 75.41870
400.5700, 74.80010
401.0522, 73.98035
401.5343, 73.19058
402.0164, 72.41977
402.4985, 71.77776
402.9806, 71.63235
403.4627, 71.25870
403.9449, 70.29182
404.4270, 68.83791
404.9091, 67.17939
405.3912, 65.35496
405.8733, 63.51683
406.3554, 62.29707
406.8376, 62.09631
407.3197, 61.48134
407.8018, 59.30825
408.2839, 56.70327
408.7660, 54.90812
409.2481, 54.30141
409.7303, 53.95840
410.2124, 52.87745
410.6945, 51.11557
411.1766, 49.51428
411.6587, 48.17401
412.1408, 47.15937
412.6230, 46.66806
413.1051, 46.61477
413.5872, 46.35051
414.0693, 45.28038
414.5514, 43.95067
415.0335, 43.38952
415.5157, 43.73164
415.9978, 43.95650
416.4799, 43.25255
416.9620, 41.94881
417.4441, 41.10729
417.9262, 40.97516
418.4084, 41.03102
418.8905, 41.07978
419.3726, 41.09269
419.8547, 40.93967
420.3368, 40.52673
420.8189, 40.09886
421.3011, 40.09100
421.7832, 40.60809
422.2653, 41.06958
422.7474, 41.35451
423.2295, 41.59999
423.7116, 41.96006
424.1938, 42.42390
424.6759, 42.81202
425.1580, 42.94369
425.6401, 42.85003
426.1222, 43.12917
426.6043, 44.42613
427.0865, 45.28871
427.5686, 44.96460
428.0507, 44.11326
428.5328, 43.69543
429.0149, 44.07303
429.4970, 44.83850
429.9792, 45.27480
430.4613, 45.19768
430.9434, 45.18522
431.4255, 45.18517
431.9076, 45.28037
432.3897, 45.66679
432.8719, 46.21998
433.3540, 46.56023
433.8361, 46.35314
434.3182, 45.68148
434.8003, 45.14082
435.2824, 44.82563
435.7646, 44.50574
436.2467, 43.98755
436.7288, 43.49969
437.2109, 43.34471
437.6930, 43.62069
438.1751, 44.01302
438.6573, 44.11569
439.1394, 43.90637
439.6215, 43.73018
440.1036, 43.81934
440.5857, 43.72653
441.0678, 42.98446
441.5500, 41.78131
442.0321, 40.83309
442.5142, 40.79684
442.9963, 41.12427
443.4784, 40.63380
443.9605, 39.17913
444.4427, 38.07225
444.9248, 38.28677
445.4069, 39.10327
445.8890, 39.24372
446.3711, 38.48305
446.8532, 37.53343
447.3354, 36.53645
447.8175, 35.66289
448.2996, 35.40699
448.7817, 35.95037
449.2638, 36.65411
449.7459, 36.80361
450.2281, 36.35585
450.7102, 36.07099
451.1923, 36.02842
451.6744, 36.10951
452.1565, 36.39558
452.6386, 36.76208
453.1208, 36.81141
453.6029, 36.29346
454.0850, 35.47142
454.5671, 35.07782
455.0492, 35.59585
455.5313, 35.89921
456.0135, 35.96251
456.4956, 35.81603
456.9777, 35.29230
457.4598, 34.49339
457.9419, 33.92306
458.4240, 34.13321
458.9062, 35.14030
459.3883, 35.72661
459.8704, 35.38858
460.3525, 35.18303
460.8346, 35.40815
461.3167, 35.86864
461.7989, 36.34175
462.2810, 36.74687
462.7631, 37.04796
463.2452, 37.09774
463.7273, 36.79795
464.2094, 36.84401
464.6916, 37.66755
465.1737, 38.53979
465.6558, 39.10044
466.1379, 39.35285
466.6200, 39.38572
467.1021, 39.00154
467.5843, 38.53792
468.0664, 38.79596
468.5485, 39.88944
469.0306, 40.88549
469.5127, 41.31388
469.9948, 41.42377
470.4770, 41.58603
470.9591, 41.79311
471.4412, 42.12920
471.9233, 42.72671
472.4054, 43.46077
472.8875, 44.05970
473.3697, 44.46474
473.8518, 44.92066
474.3339, 45.69657
474.8160, 46.78452
475.2981, 47.64641
475.7802, 47.88465
476.2624, 48.31562
476.7445, 49.43523
477.2266, 50.99102
477.7087, 52.48421
478.1908, 53.72709
478.6729, 54.85207
479.1551, 56.05885
479.6372, 57.16738
480.1193, 58.84289
480.6014, 61.39571
481.0835, 64.16273
481.5656, 66.71207
482.0478, 69.14236
482.5299, 71.78865
483.0120, 74.84132
483.4941, 78.32107
483.9762, 82.28907
484.4583, 87.14308
484.9405, 91.66570
485.4226, 95.01440
485.9047, 98.38937
486.3868, 102.7831
486.8689, 108.2876
487.3510, 114.1025
487.8332, 119.5513
488.3153, 124.7108
488.7974, 130.2398
489.2795, 136.4109
489.7616, 142.3109
490.2437, 147.4190
490.7259, 151.8858
491.2080, 155.8974
491.6901, 159.3542
492.1722, 162.5478
492.6543, 165.6513
493.1364, 168.6422
493.6186, 171.4541
494.1007, 174.0983
494.5828, 176.5464
495.0649, 178.7666
495.5470, 180.7424
496.0291, 182.5547
496.5113, 184.3168
496.9934, 185.8233
497.4755, 186.9860
497.9576, 187.7986
498.4397, 188.3335
498.9218, 188.6429
499.4040, 188.5205
499.8861, 187.4768
500.3682, 185.1514
500.8503, 182.5069
501.3324, 179.2703
501.8145, 175.9751
502.2967, 172.9890
502.7788, 170.2388
503.2609, 167.4456
503.7430, 164.4942
504.2251, 161.2319
504.7072, 156.9659
505.1894, 151.0996
505.6715, 145.5533
506.1536, 140.9005
506.6357, 136.6855
507.1178, 132.7847
507.5999, 129.1315
508.0821, 125.2362
508.5642, 120.2670
509.0463, 114.7946
509.5284, 110.5139
510.0105, 107.6434
510.4926, 105.4675
510.9748, 103.6178
511.4569, 102.1906
511.9390, 101.3567
512.4211, 101.3030
512.9032, 101.5354
513.3853, 101.8458
513.8674, 102.2734
514.3495, 102.6691
514.8317, 103.0086
515.3138, 104.0819
515.7959, 106.8640
516.2780, 111.5285
516.7601, 115.4479
517.2422, 117.6271
517.7244, 120.3179
518.2065, 124.3228
518.6886, 129.2975
519.1707, 134.7933
519.6528, 140.6163
520.1349, 146.6866
520.6171, 152.8357
521.0992, 159.0353
521.5813, 165.4349
522.0634, 172.2537
522.5455, 179.0660
523.0276, 185.5503
523.5098, 191.9527
523.9919, 198.7178
524.4740, 206.1379
524.9561, 213.8204
525.4382, 221.3886
525.9203, 228.8016
526.4025, 236.0017
526.8846, 243.0432
527.3667, 249.6882
527.8488, 256.0102
528.3309, 261.9236
528.8130, 266.8201
529.2952, 269.7512
529.7773, 272.1702
530.2594, 275.5605
530.7415, 279.7009
531.2236, 283.5752
531.7057, 286.8135
532.1879, 289.3182
532.6700, 290.8482
533.1521, 291.0024
533.6342, 291.0246
534.1163, 291.0429
534.5984, 290.8428
535.0806, 290.6072
535.5627, 290.0504
536.0448, 288.4885
536.5269, 285.4938
537.0090, 281.2648
537.4911, 276.3657
537.9733, 270.3908
538.4554, 264.5312
538.9375, 259.4356
539.4196, 254.0785
539.9017, 247.5353
540.3839, 240.0111
540.8660, 232.6730
541.3481, 226.6267
541.8302, 221.0643
542.3123, 214.0076
542.7944, 205.3050
543.2766, 196.5410
543.7587, 188.2296
544.2408, 180.3009
544.7229, 172.5806
545.2050, 165.0262
545.6871, 157.9773
546.1693, 151.9254
546.6514, 146.2426
547.1335, 139.9937
547.6156, 133.2957
548.0977, 127.1488
548.5798, 122.2386
549.0620, 118.2011
549.5441, 113.8496
550.0262, 108.4531
550.5083, 103.7388
550.9904, 100.0041
551.4725, 96.72813
551.9547, 93.60178
552.4368, 90.56577
552.9189, 87.60764
553.4010, 84.71397
553.8831, 81.92539
554.3652, 79.46007
554.8474, 77.38468
555.3295, 75.49511
555.8116, 73.92234
556.2937, 72.39345
556.7758, 70.72757
557.2579, 68.91898
557.7401, 67.04417
558.2222, 64.97542
558.7043, 62.94350
559.1864, 61.31432
559.6685, 60.10796
560.1506, 59.22403
560.6328, 58.73523
561.1149, 58.43481
561.5970, 57.84096
562.0791, 56.88076
562.5612, 55.93956
563.0433, 55.16471
563.5255, 54.38197
564.0076, 53.27851
564.4897, 51.98256
564.9718, 51.01992
565.4539, 50.75203
565.9360, 50.97832
566.4182, 51.03381
566.9003, 50.87708
567.3824, 50.61925
567.8645, 50.21986
568.3466, 49.77642
568.8287, 49.27527
569.3109, 48.77289
569.7930, 48.45476
570.2751, 48.53904
570.7572, 48.76790
571.2393, 48.55420
571.7214, 47.86363
572.2036, 47.12482
572.6857, 46.26069
573.1678, 45.65321
573.6499, 45.98844
574.1320, 47.23552
574.6141, 47.93749
575.0963, 47.24477
575.5784, 46.20443
576.0605, 45.67279
576.5426, 45.58321
577.0247, 45.62662
577.5068, 45.69107
577.9890, 45.63566
578.4711, 45.14928
578.9532, 43.87263
579.4353, 43.09351
579.9174, 43.10880
580.3995, 43.25719
580.8817, 43.31420
581.3638, 43.25190
581.8459, 43.06703
582.3280, 42.75134
582.8101, 42.36339
583.2922, 41.97945
583.7744, 41.59774
584.2565, 41.26563
584.7386, 41.02844
585.2207, 40.78122
585.7029, 40.47441
586.1850, 40.10173
586.6671, 39.62090
587.1492, 38.83010
587.6313, 38.18347
588.1135, 38.18440
588.5956, 38.56319
589.0777, 38.65662
589.5598, 38.29251
590.0419, 37.79809
590.5240, 37.51061
591.0062, 37.43940
591.4883, 37.38530
591.9704, 37.44461
592.4525, 37.40357
592.9346, 37.07900
593.4167, 36.69316
593.8989, 36.46344
594.3810, 36.45412
594.8631, 36.64914
595.3452, 37.13131
595.8273, 37.85311
596.3094, 38.30693
596.7916, 38.57035
597.2737, 38.39233
597.7558, 37.02563
598.2379, 35.47535
598.7200, 34.90106
599.2021, 35.50809
599.6843, 36.26263
600.1664, 36.70652
600.6485, 36.95198
601.1306, 37.17587
601.6127, 37.37814
602.0948, 37.38691
602.5770, 37.03619
603.0591, 36.54116
603.5412, 36.50474
604.0233, 37.35582
604.5054, 37.97679
604.9875, 38.18532
605.4697, 38.32990
605.9518, 38.62633
606.4339, 39.04840
606.9160, 39.45911
607.3981, 39.77518
607.8802, 40.06944
608.3624, 40.52425
608.8445, 41.17640
609.3266, 41.67621
609.8087, 41.84986
610.2908, 42.01371
610.7729, 42.43651
611.2551, 43.03944
611.7372, 43.59051
612.2193, 43.99476
612.7014, 44.37557
613.1835, 44.70287
613.6656, 45.08885
614.1478, 45.88627
614.6299, 47.17389
615.1120, 48.47182
615.5941, 49.29290
616.0762, 49.63580
616.5583, 49.90923
617.0405, 49.67176
617.5226, 49.92193
618.0047, 51.00097
618.4868, 52.53647
618.9689, 54.34135
619.4510, 56.27948
619.9332, 57.99292
620.4153, 59.10883
620.8974, 59.77808
621.3795, 60.52084
621.8616, 61.35717
622.3438, 62.16894
622.8259, 62.95341
623.3080, 63.65326
623.7901, 64.14088
624.2722, 64.39966
624.7543, 64.79430
625.2365, 65.78050
625.7186, 66.64395
626.2007, 66.41672
626.6828, 65.55892
627.1649, 65.54090
627.6470, 67.00166
628.1292, 68.91302
628.6113, 69.53957
629.0934, 68.43587
629.5755, 67.90928
630.0576, 68.77592
630.5397, 69.35706
631.0219, 69.11279
631.5040, 68.30485
631.9861, 67.21346
632.4682, 65.90553
632.9503, 64.70667
633.4324, 64.06259
633.9146, 63.76561
634.3967, 63.10187
634.8788, 61.97707
635.3609, 60.90234
635.8430, 60.25344
636.3251, 59.82036
636.8073, 58.97562
637.2894, 57.50594
637.7715, 56.19698
638.2536, 55.21164
638.7357, 54.38745
639.2178, 53.69337
639.7000, 53.05143
640.1821, 52.27477
640.6642, 51.24650
641.1463, 50.13141
641.6284, 49.35252
642.1105, 49.06962
642.5927, 48.24349
643.0748, 46.31582
643.5569, 44.43589
644.0390, 43.19624
644.5211, 42.45454
645.0032, 41.97620
645.4854, 41.83736
645.9675, 41.62513
646.4496, 40.98697
646.9317, 40.10559
647.4138, 39.28315
647.8959, 38.57067
648.3781, 37.97775
648.8602, 37.51795
649.3423, 37.18095
649.8244, 36.94209
650.3065, 37.02061
650.7886, 36.85982
651.2708, 36.22312
651.7529, 35.53925
652.2350, 35.03148
652.7171, 34.72649
653.1992, 34.63650
653.6813, 34.83947
654.1635, 35.07615
654.6456, 34.92175
655.1277, 34.40301
655.6098, 33.85566
656.0919, 33.34520
656.5740, 32.80665
657.0562, 32.13623
657.5383, 31.37579
658.0204, 30.80442
658.5025, 30.34587
658.9846, 30.17564
659.4667, 30.68206
659.9489, 31.29956
660.4310, 31.29419
660.9131, 30.70815
661.3952, 30.27656
661.8773, 30.60431
662.3594, 31.36275
662.8416, 31.36617
663.3237, 30.31465
663.8058, 29.62786
664.2879, 29.89599
664.7700, 30.24646
665.2521, 29.90506
665.7343, 29.10761
666.2164, 28.69333
666.6985, 29.23068
667.1806, 29.77041
667.6627, 29.50141
668.1448, 28.79583
668.6270, 28.38785
669.1091, 28.41366
669.5912, 28.50297
670.0733, 28.30889
670.5554, 27.90392
671.0375, 27.83459
671.5197, 28.51760
672.0018, 28.84579
672.4839, 28.33175
672.9660, 27.77265
673.4481, 27.83524
673.9302, 28.36133
674.4124, 28.65773
674.8945, 28.23606
675.3766, 27.65366
675.8587, 27.69374
676.3408, 28.21187
676.8229, 28.58418
677.3051, 28.69711
677.7872, 28.48709
678.2693, 27.78027
678.7514, 26.65258
679.2335, 25.99354
679.7156, 26.02766
680.1978, 26.17302
680.6799, 26.52690
681.1620, 26.82631
681.6441, 26.69203
682.1262, 26.26423
682.6083, 26.14546
683.0905, 26.81110
683.5726, 27.76622
684.0547, 28.07129
684.5368, 27.72631
685.0189, 27.18865
685.5010, 26.48173
685.9832, 25.73854
686.4653, 25.00052
686.9474, 24.31384
687.4295, 23.89009
687.9116, 23.72617
688.3937, 23.83713
688.8759, 24.54508
689.3580, 25.32011
689.8401, 25.65933
690.3222, 25.52235
690.8043, 24.99850
691.2864, 24.06076
691.7686, 23.09198
692.2507, 23.18657
692.7328, 24.58212
693.2149, 25.51261
693.6970, 25.56104
694.1791, 25.36268
694.6613, 25.34694
695.1434, 25.41487
695.6255, 25.30924
696.1076, 24.80654
696.5897, 24.50654
697.0718, 24.94757
697.5540, 25.58487
698.0361, 25.69392
698.5182, 25.29935
699.0003, 24.93112
699.4824, 24.92197
699.9645, 25.10330
700.4467, 25.03629
700.9288, 24.60936
701.4109, 24.35201
701.8930, 24.35561
702.3751, 24.46331
702.8572, 24.62186
703.3394, 24.81710
703.8215, 25.06413
704.3036, 25.41940
704.7857, 25.60070
705.2678, 25.27313
705.7499, 24.76679
706.2321, 24.61625
706.7142, 24.76991
707.1963, 24.66156
707.6784, 23.94893
708.1605, 23.10083
708.6426, 23.13841
709.1248, 24.47556
709.6069, 25.21427
710.0890, 24.90435
710.5711, 24.51016
711.0532, 24.18601
711.5353, 24.04977
712.0175, 24.36234
712.4996, 25.19963
712.9817, 25.87161
713.4638, 25.80480
713.9459, 25.40886
714.4280, 25.29519
714.9102, 25.41312
715.3923, 25.35312
715.8744, 24.93359
716.3565, 24.34377
716.8386, 23.83341
717.3207, 23.38726
717.8029, 23.14672
718.2850, 23.20758
718.7671, 23.36930
719.2492, 23.56027
719.7313, 23.84506
720.2134, 24.44359
720.6956, 25.30595
721.1777, 25.84289
721.6598, 25.46056
722.1419, 24.73233
722.6240, 24.29529
723.1061, 24.14610
723.5883, 24.32137
724.0704, 24.84826
724.5525, 25.48556
725.0346, 26.05135
725.5167, 26.53036
725.9988, 26.40932
726.4810, 24.87275
726.9631, 23.91588
727.4452, 24.01639
727.9273, 24.55407
728.4094, 25.26217
728.8915, 25.99810
729.3737, 26.47695
729.8558, 26.59053
730.3379, 26.35834
730.8200, 25.54552
731.3021, 24.42213
731.7842, 23.75005
732.2664, 23.66078
732.7485, 23.86332
733.2306, 24.18306
733.7127, 24.57387
734.1948, 24.84088
734.6769, 24.80017
735.1591, 24.97505
735.6412, 25.75631
736.1233, 26.36263
736.6054, 26.18483
737.0875, 25.59720
737.5696, 25.38467
738.0518, 25.86707
738.5339, 26.29535
739.0160, 25.84526
739.4981, 25.02307
739.9802, 24.81499
740.4623, 25.22915
740.9445, 25.69420
741.4266, 25.93734
741.9087, 26.02051
742.3908, 26.06269
742.8729, 26.09851
743.3550, 25.93975
743.8372, 25.33529
744.3193, 24.83640
744.8014, 24.53032
745.2835, 24.43800
745.7656, 24.62466
746.2477, 25.08443
746.7299, 25.61263
747.2120, 26.30807
747.6941, 26.85901
748.1762, 26.69587
748.6583, 26.07166
749.1404, 25.82698
749.6226, 26.19669
750.1047, 26.71735
750.5868, 26.93149
751.0689, 26.85624
751.5510, 26.67173
752.0331, 26.29679
752.5153, 25.97019
752.9974, 25.68546
753.4795, 25.49842
753.9616, 25.30344
754.4437, 25.22999
754.9258, 25.75549
755.4080, 27.55112
755.8901, 28.95471
756.3722, 28.31070
756.8543, 26.81207
757.3364, 26.31271
757.8185, 26.88105
758.3007, 27.51935
758.7828, 27.64330
759.2649, 27.37106
759.7470, 26.81415
760.2291, 25.74380
760.7112, 25.55312
761.1934, 26.94796
761.6755, 28.17367
762.1576, 28.36299
762.6397, 27.93868
763.1218, 27.25582
763.6039, 26.27467
764.0861, 25.67198
764.5682, 25.91069
765.0503, 26.40195
765.5324, 26.75632
766.0145, 26.99756
766.4966, 27.25009
766.9788, 27.53794
767.4609, 27.73343
767.9430, 27.68034
768.4251, 27.43494
768.9072, 27.30713
769.3893, 27.34252
769.8715, 27.25628
770.3536, 26.94657
770.8357, 26.53584
771.3178, 25.95067
771.7999, 25.31206
772.2820, 25.26862
772.7642, 26.44748
773.2463, 27.42707
773.7284, 27.83545
774.2105, 27.87761
774.6926, 27.54757
775.1747, 27.01691
775.6569, 26.67067
776.1390, 26.70884
776.6211, 26.92215
777.1032, 27.13881
777.5853, 27.30585
778.0674, 26.97907
778.5496, 26.04001
779.0317, 25.39279
779.5138, 25.53510
779.9959, 26.13397
780.4780, 26.62477
780.9601, 26.97867
781.4423, 27.33941
781.9244, 28.06899
782.4065, 28.37022
782.8886, 27.48044
783.3707, 26.34661
783.8528, 26.14944
784.3350, 26.89771
784.8171, 27.44791
785.2992, 26.86289
785.7813, 25.99251
786.2634, 25.98832
786.7455, 26.63385
787.2277, 27.30920
787.7098, 27.88078
788.1919, 28.18963
788.6740, 28.06274
789.1561, 27.64329
789.6382, 27.51025
790.1204, 28.02313
790.6025, 27.94409
791.0846, 26.42779
791.5667, 25.17749
792.0488, 25.13816
792.5309, 25.75844
793.0131, 26.18336
793.4952, 26.25849
793.9773, 26.24289
794.4594, 26.13258
794.9415, 26.08990
795.4236, 26.37601
795.9058, 26.83703
796.3879, 27.12137
796.8700, 27.11947
797.3521, 26.93200
797.8342, 26.62546
798.3163, 26.23767
798.7985, 25.93454
799.2806, 25.68741
799.7627, 25.69765
800.2448, 26.07923
800.7269, 26.62551
801.2090, 27.29523
801.6912, 28.00107
802.1733, 28.31543
802.6554, 27.92407
803.1375, 27.63967
803.6196, 27.77915
804.1017, 27.92350
804.5839, 27.72975
805.0660, 27.30808
805.5481, 26.91831
806.0302, 26.65482
806.5123, 26.49443
806.9944, 26.49133
807.4766, 26.55249
807.9587, 26.35967
808.4408, 25.94521
808.9229, 25.83633
809.4050, 26.26715
809.8871, 26.78972
810.3693, 26.81064
810.8514, 26.34015
811.3335, 26.41302
811.8156, 27.73134
812.2977, 28.41484
812.7798, 27.70642
813.2620, 26.73761
813.7441, 26.13267
814.2262, 25.88181
814.7083, 25.86993
815.1904, 26.19706
815.6725, 26.42936
816.1547, 26.07016
816.6368, 25.66246
817.1189, 26.03045
817.6010, 26.93329
818.0831, 27.42737
818.5652, 27.11786
819.0474, 26.55649
819.5295, 26.45373
820.0116, 26.76520
820.4937, 27.12716
820.9758, 27.57378
821.4579, 27.86472
821.9401, 27.91836
822.4222, 27.78973
822.9043, 27.42819
823.3864, 26.86108
823.8685, 26.69539
824.3506, 27.30777
824.8328, 27.77473
825.3149, 27.85124
825.7970, 27.83242
826.2791, 27.89578
826.7612, 28.04715
827.2433, 28.28865
827.7255, 28.65005
828.2076, 28.87932
828.6897, 28.67480
829.1718, 28.24511
829.6539, 27.86218
830.1360, 27.57037
830.6182, 27.47617
831.1003, 27.62141
831.5824, 27.92518
832.0645, 28.34255
832.5466, 28.83915
833.0287, 28.91648
833.5109, 28.42007
833.9930, 27.95162
834.4751, 27.51519
834.9572, 27.28667
835.4393, 27.61010
835.9214, 28.25982
836.4036, 28.57500
836.8857, 28.45032
837.3678, 28.10230
837.8499, 27.19795
838.3320, 26.44737
838.8141, 26.46898
839.2963, 26.99923
839.7784, 27.57098
840.2605, 28.01900
840.7426, 28.27911
841.2247, 28.30840
841.7068, 28.10698
842.1890, 27.47781
842.6711, 26.55230
843.1532, 26.13849
843.6353, 26.45485
844.1174, 27.03988
844.5995, 27.55634
845.0817, 27.92333
845.5638, 27.64722
846.0459, 26.21319
846.5280, 25.60285
847.0101, 26.52906
847.4922, 27.55876
847.9744, 28.09901
848.4565, 28.22516
848.9386, 27.92547
849.4207, 27.10371
849.9028, 26.56723
850.3849, 26.73792
850.8671, 27.03613
851.3492, 27.27653
851.8313, 27.35238
852.3134, 26.95770
852.7955, 26.19730
853.2776, 25.77677
853.7598, 26.27964
854.2419, 27.12692
854.7240, 27.50154
855.2061, 27.46109
855.6882, 27.16125
856.1703, 26.63027
856.6525, 26.06146
857.1346, 25.51772
857.6167, 25.18465
858.0988, 25.50607
858.5809, 26.65439
859.0630, 27.29581
859.5452, 27.21253
860.0273, 27.01002
860.5094, 26.90821
860.9915, 26.72658
861.4736, 26.11448
861.9557, 25.20770
862.4379, 24.82561
862.9200, 25.47101
863.4021, 26.15834
863.8842, 26.71163
864.3663, 27.02743
864.8484, 26.79105
865.3306, 26.27544
865.8127, 26.19608
866.2948, 26.82047
866.7769, 27.40634
867.2590, 27.03840
867.7411, 26.18345
868.2233, 25.87227
868.7054, 26.01835
869.1875, 26.02509
869.6696, 25.72015
870.1517, 25.29733
870.6339, 24.89685
871.1160, 24.58126
871.5981, 24.67367
872.0802, 25.30507
872.5623, 25.90220
873.0444, 26.57016
873.5266, 26.92638
874.0087, 26.58780
874.4908, 25.86815
874.9729, 25.31424
875.4550, 24.91761
875.9371, 24.73914
876.4193, 25.01580
876.9014, 25.24135
877.3835, 25.13819
877.8656, 24.92074
878.3477, 24.87734
878.8298, 24.96967
879.3120, 24.85219
879.7941, 24.21345
880.2762, 23.68225
880.7583, 24.16222
881.2404, 25.03573
881.7225, 25.17802
882.2047, 24.60869
882.6868, 23.83066
883.1689, 23.06351
883.6510, 22.54525
884.1331, 22.63715
884.6152, 23.25288
885.0974, 23.76499
885.5795, 24.17949
886.0616, 24.44421
886.5437, 24.57156
887.0258, 24.46012
887.5079, 23.86994
887.9901, 23.01221
888.4722, 22.74696
888.9543, 23.56217
889.4364, 24.04182
889.9185, 23.93229
890.4006, 23.78775
890.8828, 23.87224
891.3649, 24.01601
891.8470, 24.01660
892.3291, 23.84985
892.8112, 23.58399
893.2933, 23.12507
893.7755, 22.71269
894.2576, 22.61763
894.7397, 22.57920
895.2218, 22.09488
895.7039, 21.33208
896.1860, 21.00672
896.6682, 21.46909
897.1503, 22.28661
897.6324, 23.16144
898.1145, 23.92908
898.5966, 23.96577
899.0787, 23.33895
899.5609, 22.84319
900.0430, 22.73017
900.5251, 22.75744
901.0072, 22.70872
901.4893, 22.58363
901.9714, 22.36355
902.4536, 21.99971
902.9357, 21.71992
903.4178, 21.55644
903.8999, 21.45606
904.3820, 21.38987
904.8641, 21.37190
905.3463, 21.41796
905.8284, 21.52115
906.3105, 21.72943
906.7926, 22.37784
907.2747, 22.70628
907.7568, 22.32087
908.2390, 21.65358
908.7211, 20.96210
909.2032, 20.33685
909.6853, 19.86158
910.1674, 19.54447
910.6495, 19.47947
911.1317, 19.83388
911.6138, 20.39207
912.0959, 21.05517
912.5780, 21.68676
913.0601, 22.06852
913.5422, 22.12295
914.0244, 21.75502
914.5065, 20.70495
914.9886, 19.48390
915.4707, 19.34423
915.9528, 20.08742
916.4349, 20.41782
916.9171, 20.15634
917.3992, 19.84711
917.8813, 19.78867
918.3634, 19.82349
918.8455, 19.66048
919.3276, 19.27556
919.8098, 19.16029
920.2919, 19.51567
920.7740, 19.58984
921.2561, 18.83686
921.7382, 18.23142
922.2203, 18.92042
922.7025, 20.43130
923.1846, 20.88707
923.6667, 19.72901
924.1488, 18.74877
924.6309, 17.95960
925.1130, 17.55337
925.5952, 17.96716
926.0773, 18.59706
926.5594, 18.59868
927.0415, 17.98590
927.5236, 17.67909
928.0057, 18.47402
928.4879, 19.07477
928.9700, 18.23235
929.4521, 17.01591
929.9342, 16.64447
930.4163, 17.04846
930.8984, 17.78178
931.3806, 18.64484
931.8627, 19.26873
932.3448, 19.22598
932.8269, 18.72257
933.3090, 17.92595
933.7911, 17.01564
934.2733, 16.93957
934.7554, 17.83231
935.2375, 18.64277
935.7196, 18.63429
936.2017, 19.27197
936.6838, 18.52330
937.1660, 19.52279
937.6481, 19.82938
938.1302, 19.27164
938.6123, 18.76535
939.0944, 18.63264
939.5765, 18.61810
940.0587, 18.48544
940.5408, 18.24028
941.0229, 17.91902
941.5050, 17.30392
941.9871, 17.01227
942.4692, 17.46193
942.9514, 17.78292
943.4335, 17.42165
943.9156, 16.85770
944.3977, 16.75864
944.8798, 17.15306
945.3619, 17.40165
945.8441, 17.29282
946.3262, 17.11864
946.8083, 16.77946
947.2904, 16.59260
947.7725, 17.01696
948.2546, 17.76609
948.7368, 18.11535
949.2189, 17.83705
949.7010, 17.64246
950.1831, 18.33272
950.6652, 19.02763
951.1473, 18.68632
951.6295, 17.76594
952.1116, 16.93751
952.5937, 16.40891
953.0758, 16.47114
953.5579, 17.35523
954.0400, 18.31837
954.5222, 18.16223
955.0043, 17.31173
955.4864, 17.04479
955.9685, 17.33764
956.4506, 17.66761
956.9327, 17.87784
957.4149, 18.01574
957.8970, 18.13653
958.3791, 18.18931
958.8612, 17.96416
959.3433, 17.43058
959.8254, 17.07554
960.3076, 16.95074
960.7897, 16.96140
961.2718, 17.19651
961.7539, 17.24509
962.2360, 16.37820
962.7181, 14.68525
963.2003, 14.40614
963.6824, 16.76779
964.1645, 17.98906
964.6466, 16.79164
965.1287, 15.54403
965.6108, 15.73034
966.0930, 16.53863
966.5751, 16.73923
967.0572, 16.24195
967.5393, 15.86710
968.0214, 15.57911
968.5035, 15.58436
968.9857, 16.21275
969.4678, 16.90490
969.9499, 17.32675
970.4320, 17.45358
970.9141, 17.23069
971.3962, 16.58287
971.8784, 16.16500
972.3605, 16.51734
972.8426, 16.94439
973.3247, 16.99620
973.8068, 16.81966
974.2889, 16.52256
974.7711, 16.20075
975.2532, 16.08633
975.7353, 16.32479
976.2174, 16.52286
976.6995, 16.20197
977.1816, 15.71103
977.6638, 15.54552
978.1459, 15.62317
978.6280, 15.75505
979.1101, 15.85709
979.5922, 15.70757
980.0743, 15.07511
980.5565, 14.46229
981.0386, 14.90593
981.5207, 16.04837
982.0028, 16.54984
982.4849, 16.40421
982.9670, 16.34290
983.4492, 16.61393
983.9313, 16.70707
984.4134, 16.02867
984.8955, 15.00493
985.3776, 15.26428
985.8597, 16.87637
986.3419, 17.29928
986.8240, 16.12453
987.3061, 15.13944
987.7882, 15.15360
988.2703, 15.56488
988.7524, 15.67913
989.2346, 15.51106
989.7167, 15.13909
990.1988, 14.25600
990.6809, 14.16098
991.1630, 15.40280
991.6451, 16.64091
992.1273, 17.25332
992.6094, 17.44353
993.0915, 17.48766
993.5736, 17.38386
994.0557, 17.17977
994.5378, 16.76943
995.0200, 16.41641
995.5021, 15.97229
995.9842, 15.77401
996.4663, 16.23507
996.9484, 16.96138
997.4305, 17.36719
997.9127, 17.41413
998.3948, 17.04351
998.8769, 15.46288
999.3590, 14.50771
999.8411, 15.20591
1000.323, 16.30751
1000.805, 17.00829
1001.287, 17.30653
1001.770, 17.32975
1002.252, 17.09731
1002.734, 16.75665
1003.216, 16.06344
1003.698, 15.63851
1004.180, 16.20945
1004.662, 16.97128
1005.144, 16.94505
1005.627, 16.32291
1006.109, 15.83722
1006.591, 15.73411
1007.073, 15.95457
1007.555, 16.86842
1008.037, 17.69259
1008.519, 17.52488
1009.001, 16.81965
1009.483, 16.24162
1009.966, 15.88819
1010.448, 15.65266
1010.930, 15.49341
1011.412, 15.31481
1011.894, 14.89727
1012.376, 14.48547
1012.858, 14.52748
1013.340, 14.87570
1013.823, 15.15055
1014.305, 15.29088
1014.787, 15.42337
1015.269, 15.61996
1015.751, 15.83217
1016.233, 16.01532
1016.715, 16.15514
1017.197, 16.21372
1017.679, 16.19162
1018.162, 16.03779
1018.644, 15.76287
1019.126, 15.63468
1019.608, 15.84425
1020.090, 16.19968
1020.572, 16.36084
1021.054, 16.36018
1021.536, 16.48212
1022.018, 16.71777
1022.501, 16.73903
1022.983, 16.45693
1023.465, 16.06767
1023.947, 15.65462
1024.429, 15.44550
1024.911, 16.18834
1025.393, 17.92826
1025.875, 18.25229
1026.358, 16.96412
1026.840, 15.82493
1027.322, 15.23066
1027.804, 15.19688
1028.286, 15.84942
1028.768, 16.87049
1029.250, 17.45659
1029.732, 17.55543
1030.214, 17.59446
1030.697, 17.55778
1031.179, 17.49749
1031.661, 17.36724
1032.143, 17.38255
1032.625, 17.83966
1033.107, 18.45815
1033.589, 18.35453
1034.071, 17.20389
1034.553, 16.85954
1035.036, 17.86704
1035.518, 18.46426
1036.000, 17.92112
1036.482, 17.25287
1036.964, 17.30516
1037.446, 17.82535
1037.928, 18.06210
1038.410, 17.91186
1038.893, 17.83914
1039.375, 17.76027
1039.857, 17.90015
1040.339, 18.59892
1040.821, 19.23600
1041.303, 19.27825
1041.785, 18.90479
1042.267, 18.61621
1042.750, 18.44392
1043.232, 18.25218
1043.714, 17.98925
1044.196, 17.77591
1044.678, 17.59109
1045.160, 17.51051
1045.642, 17.72329
1046.124, 18.05652
1046.606, 18.07120
1047.089, 17.65398
1047.571, 17.29333
1048.053, 17.13999
1048.535, 16.91542
1049.017, 16.35477
1049.499, 15.86967
1049.981, 15.87372
1050.463, 16.16616
1050.945, 16.26270
1051.428, 16.06448
1051.910, 15.96911
1052.392, 16.20033
1052.874, 16.34521
1053.356, 16.27050
1053.838, 16.06294
1054.320, 15.77510
1054.802, 15.41331
1055.285, 14.82768
1055.767, 13.93013
1056.249, 13.73303
1056.731, 15.60786
1057.213, 16.75818
1057.695, 15.31086
1058.177, 13.56280
1058.659, 13.40054
1059.141, 14.21664
1059.624, 14.64985
1060.106, 14.46508
1060.588, 14.38348
1061.070, 14.77816
1061.552, 15.12522
1062.034, 15.20181
1062.516, 15.16744
1062.998, 15.15459
1063.480, 15.11788
1063.963, 14.86635
1064.445, 14.40298
1064.927, 14.25100
1065.409, 14.90793
1065.891, 15.49720
1066.373, 15.76727
1066.855, 15.72971
1067.337, 15.05602
1067.820, 14.25068
1068.302, 14.23923
1068.784, 15.03023
1069.266, 15.42640
1069.748, 14.61546
1070.230, 13.96347
1070.712, 14.28828
1071.194, 14.77703
1071.677, 14.90658
1072.159, 14.75321
1072.641, 14.29361
1073.123, 13.67431
1073.605, 13.62000
1074.087, 14.79755
1074.569, 15.59891
1075.051, 14.74597
1075.533, 13.81018
1076.016, 13.96028
1076.498, 14.68260
1076.980, 15.40711
1077.462, 15.97353
1077.944, 16.18037
1078.426, 15.85241
1078.908, 15.55200
1079.390, 15.61528
1079.873, 15.70874
1080.355, 15.60183
1080.837, 15.41131
1081.319, 15.18416
1081.801, 15.01672
1082.283, 15.21803
1082.765, 15.98519
1083.247, 16.41967
1083.729, 15.78307
1084.212, 15.09358
1084.694, 15.04928
1085.176, 15.16141
1085.658, 14.76656
1086.140, 14.12242
1086.622, 14.05041
1087.104, 14.77721
1087.586, 15.24161
1088.068, 14.72824
1088.551, 14.18880
1089.033, 14.05665
1089.515, 14.13804
1089.997, 14.28640
1090.479, 14.50253
1090.961, 14.94816
1091.443, 15.61352
1091.925, 15.84011
1092.408, 14.73432
1092.890, 14.02882
1093.372, 14.96035
1093.854, 15.98247
1094.336, 15.82089
1094.818, 15.09979
1095.300, 14.82079
1095.782, 15.06874
1096.265, 15.34502
1096.747, 15.63206
1097.229, 15.68280
1097.711, 15.13343
1098.193, 14.64305
1098.675, 14.79082
1099.157, 15.07438
1099.639, 14.65329
1100.121, 13.77093
1100.604, 13.74804
1101.086, 15.29305
1101.568, 16.35010
1102.050, 16.08733
1102.532, 15.59925
1103.014, 15.18011
1103.496, 14.90320
1103.978, 14.84593
1104.460, 14.96180
1104.943, 15.14959
1105.425, 15.41852
1105.907, 15.62007
1106.389, 15.85565
1106.871, 15.84485
1107.353, 15.02728
1107.835, 14.41865
1108.317, 15.06691
1108.800, 16.24616
1109.282, 16.62503
1109.764, 16.08111
1110.246, 15.67068
1110.728, 15.44235
1111.210, 15.42895
1111.692, 15.97794
1112.174, 16.34533
1112.656, 15.83853
1113.139, 15.17759
1113.621, 15.47034
1114.103, 16.57928
1114.585, 16.90320
1115.067, 15.69466
1115.549, 15.03363
1116.031, 15.33623
1116.513, 15.59317
1116.995, 15.32624
1117.478, 15.07595
1117.960, 15.49397
1118.442, 16.25860
1118.924, 16.24616
1119.406, 16.48664
1119.888, 16.96522
1120.370, 16.36762
1120.852, 17.36643
1121.335, 17.12702
1121.817, 16.52758
1122.299, 15.92350
1122.781, 15.56491
1123.263, 16.04441
1123.745, 17.39200
1124.227, 17.88745
1124.709, 17.18219
1125.192, 16.94047
1125.674, 17.62839
1126.156, 17.89669
1126.638, 16.89548
1127.120, 15.80240
1127.602, 16.15270
1128.084, 15.75630
1128.566, 15.62584
1129.048, 16.33426
1129.531, 15.87943
1130.013, 16.51482
1130.495, 17.17929
1130.977, 17.57942
1131.459, 17.63447
1131.941, 17.22178
1132.423, 16.59969
1132.905, 16.40852
1133.387, 16.59863
1133.870, 16.20155
1134.352, 15.25852
1134.834, 15.07674
1135.316, 15.89773
1135.798, 16.81752
1136.280, 17.36087
1136.762, 17.50591
1137.244, 17.09142
1137.727, 16.38388
1138.209, 16.18235
1138.691, 16.41061
1139.173, 16.84451
1139.655, 17.40116
1140.137, 17.83217
1140.619, 18.04145
1141.101, 17.93663
1141.583, 17.32835
1142.066, 16.75143
1142.548, 17.39433
1143.030, 18.47753
1143.512, 18.22327
1143.994, 17.05241
1144.476, 16.25008
1144.958, 16.05023
1145.440, 16.04037
1145.922, 16.00300
1146.405, 16.24704
1146.887, 17.47152
1147.369, 18.73978
1147.851, 18.85769
1148.333, 18.39953
1148.815, 18.12870
1149.297, 18.09505
1149.779, 18.19672
1150.262, 18.37291
1150.744, 18.34784
1151.226, 17.78312
1151.708, 17.27508
1152.190, 17.32848
1152.672, 17.48176
1153.154, 17.29843
1153.636, 16.98296
1154.119, 16.80155
1154.601, 16.81285
1155.083, 17.10570
1155.565, 17.87687
1156.047, 18.31248
1156.529, 17.80441
1157.011, 17.34479
1157.493, 17.51278
1157.975, 17.77427
1158.458, 17.54812
1158.940, 17.11416
1159.422, 17.12079
1159.904, 17.65107
1160.386, 18.16644
1160.868, 18.79525
1161.350, 19.13648
1161.832, 18.90568
1162.314, 18.70493
1162.797, 19.04125
1163.279, 19.24894
1163.761, 18.33562
1164.243, 18.55332
1164.725, 18.48737
1165.207, 17.88360
1165.689, 18.50882
1166.171, 17.83521
1166.654, 17.45870
1167.136, 17.88259
1167.618, 18.28051
1168.100, 18.05463
1168.582, 18.37853
1169.064, 17.73712
1169.546, 18.30643
1170.028, 18.34227
1170.510, 17.82712
1170.993, 17.57868
1171.475, 17.68883
1171.957, 17.58720
1172.439, 17.04539
1172.921, 16.61783
1173.403, 16.81292
1173.885, 17.41548
1174.367, 18.25290
1174.849, 19.08675
1175.332, 18.82622
1175.814, 17.79946
1176.296, 17.40343
1176.778, 17.79858
1177.260, 18.30793
1177.742, 18.60137
1178.224, 18.61105
1178.706, 18.06267
1179.189, 17.43627
1179.671, 17.42120
1180.153, 17.68388
1180.635, 17.76468
1181.117, 17.69369
1181.599, 17.66379
1182.081, 17.69318
1182.563, 17.59083
1183.046, 17.17821
1183.528, 16.92245
1184.010, 17.37719
1184.492, 17.76239
1184.974, 17.36479
1185.456, 16.77636
1185.938, 16.63756
1186.420, 16.83637
1186.902, 16.97871
1187.385, 16.99790
1187.867, 17.02945
1188.349, 17.13845
1188.831, 17.20363
1189.313, 17.14346
1189.795, 17.10546
1190.277, 17.23186
1190.759, 17.35140
1191.241, 17.20776
1191.724, 16.92432
1192.206, 17.07128
1192.688, 16.48157
1193.170, 17.76643
1193.652, 15.79727
1194.134, 14.64911
1194.616, 14.99731
1195.098, 15.69195
1195.581, 16.13960
1196.063, 16.45230
1196.545, 16.82231
1197.027, 17.15315
1197.509, 16.85772
1197.991, 17.04456
1198.473, 17.13533
1198.955, 16.73460
1199.438, 17.05045
1199.920, 16.59111
1200.402, 15.85054
1200.884, 15.12976
1201.366, 14.60543
1201.848, 14.51714
1202.330, 14.78200
1202.812, 15.47454
1203.294, 16.28962
1203.776, 16.55847
1204.259, 16.36733
1204.741, 16.14333
1205.223, 16.02568
1205.705, 15.98728
1206.187, 16.01940
1206.669, 16.10909
1207.151, 16.23155
1207.633, 16.42554
1208.116, 16.94329
1208.598, 17.37831
1209.080, 17.22296
1209.562, 16.59381
1210.044, 15.75418
1210.526, 14.68782
1211.008, 14.31096
1211.490, 15.55127
1211.973, 16.34893
1212.455, 16.01081
1212.937, 15.54256
1213.419, 15.26209
1213.901, 15.17534
1214.383, 15.29940
1214.865, 15.62512
1215.347, 16.21809
1215.829, 17.25627
1216.312, 17.24793
1216.794, 15.97419
1217.276, 14.63109
1217.758, 13.30816
1218.240, 12.79965
1218.722, 13.58415
1219.204, 14.69569
1219.686, 15.10056
1220.168, 14.93106
1220.651, 14.18956
1221.133, 13.20297
1221.615, 13.60867
1222.097, 15.04130
1222.579, 15.73177
1223.061, 15.44147
1223.543, 14.96713
1224.025, 14.69122
1224.508, 14.74083
1224.990, 15.48482
1225.472, 16.28731
1225.954, 16.51741
1226.436, 16.44452
1226.918, 16.35308
1227.400, 16.19825
1227.882, 15.74701
1228.365, 15.09181
1228.847, 14.73050
1229.329, 14.85763
1229.811, 15.04620
1230.293, 15.33572
1230.775, 15.44850
1231.257, 15.17188
1231.739, 14.82392
1232.221, 14.58084
1232.703, 14.40243
1233.186, 14.26426
1233.668, 14.14720
1234.150, 13.88020
1234.632, 13.88262
1235.114, 13.98111
1235.596, 13.87894
1236.078, 14.37254
1236.560, 14.53945
1237.043, 14.73814
1237.525, 15.21354
1238.007, 15.55091
1238.489, 15.13717
1238.971, 14.29283
1239.453, 13.81216
1239.935, 13.66779
1240.417, 13.86906
1240.900, 14.32521
1241.382, 14.85453
1241.864, 15.34152
1242.346, 15.43862
1242.828, 14.96213
1243.310, 14.47266
1243.792, 14.38131
1244.274, 14.49949
1244.756, 14.75402
1245.239, 15.06896
1245.721, 15.45521
1246.203, 15.80330
1246.685, 15.96068
1247.167, 15.92734
1247.649, 15.79576
1248.131, 15.56490
1248.613, 15.29213
1249.095, 14.64151
1249.578, 14.51016
1250.060, 15.57958
1250.542, 16.33855
1251.024, 15.90945
1251.506, 14.96101
1251.988, 14.18285
1252.470, 13.65172
1252.952, 13.79823
1253.435, 14.65086
1253.917, 14.91610
1254.399, 14.60396
1254.881, 14.60493
1255.363, 15.05609
1255.845, 15.43428
1256.327, 15.49520
1256.809, 15.36218
1257.292, 15.11373
1257.774, 14.82628
1258.256, 14.46865
1258.738, 14.24805
1259.220, 14.65278
1259.702, 15.30089
1260.184, 15.52291
1260.666, 15.34751
1261.148, 15.15277
1261.630, 15.04040
1262.113, 15.01050
1262.595, 15.16574
1263.077, 15.24819
1263.559, 15.21056
1264.041, 15.05232
1264.523, 14.60090
1265.005, 14.19333
1265.487, 14.13335
1265.970, 14.32746
1266.452, 14.62659
1266.934, 15.04072
1267.416, 14.85983
1267.898, 13.95089
1268.380, 13.53285
1268.862, 13.75434
1269.344, 13.78901
1269.827, 13.36406
1270.309, 13.09986
1270.791, 13.45385
1271.273, 14.13260
1271.755, 14.95041
1272.237, 15.64044
1272.719, 15.56468
1273.201, 15.08030
1273.683, 14.75161
1274.166, 14.59611
1274.648, 14.52518
1275.130, 14.49748
1275.612, 14.41365
1276.094, 14.17669
1276.576, 14.14815
1277.058, 14.88272
1277.540, 15.28214
1278.022, 14.45974
1278.505, 13.67345
1278.987, 14.05435
1279.469, 14.67554
1279.951, 14.31492
1280.433, 14.60178
1280.915, 14.54238
1281.397, 14.16739
1281.879, 14.22950
1282.362, 13.25628
1282.844, 12.82345
1283.326, 13.19038
1283.808, 13.75895
1284.290, 14.27297
1284.772, 14.55220
1285.254, 14.44542
1285.736, 13.95350
##END=



