##NAMES=Rajite
##RRUFFID=R060729
##IDEAL CHEMISTRY=Cu^2+^Te^4+^_2_O_5_
##LOCALITY=Lone Pine mine, Catron County, New Mexico, USA
##OWNER=RRUFF
##SOURCE=Bob Jenkins
##DESCRIPTION=Bundles of green to white bladed crystals
##STATUS=The identification of this mineral is confirmed by single-crystal X-ray diffraction and chemical analysis.
##URL=rruff.info/R060729
##MEASURED CHEMISTRY=(Cu_0.930_Fe^2+^_0.055_Cr_0.010_[box]_0.005_)_Î£=1_Te^4+^_2.00_O_5_
116.219, 11467.110
116.702, 12603.860
117.184, 13747.490
117.666, 15053.460
118.148, 16326.800
118.630, 17211.840
119.112, 17475.830
119.594, 17354.430
120.076, 16976.180
120.559, 16249.020
121.041, 15484.650
121.523, 14820.780
122.005, 14266.740
122.487, 13860.750
122.969, 13670.210
123.451, 13626.480
123.933, 13637.770
124.415, 13680.030
124.898, 13760.780
125.380, 13887.250
125.862, 14059.660
126.344, 14280.070
126.826, 14551.040
127.308, 14870.640
127.790, 15232.270
128.272, 15690.290
128.755, 16181.120
129.237, 16571.090
129.719, 16856.410
130.201, 17033.711
130.683, 17058.160
131.165, 16938.910
131.647, 16799.961
132.129, 16689.369
132.611, 16612.340
133.094, 16608.760
133.576, 16685.939
134.058, 16837.570
134.540, 17046.539
135.022, 17314.920
135.504, 17637.350
135.986, 18026.760
136.468, 18483.580
136.951, 18955.020
137.433, 19447.449
137.915, 19949.320
138.397, 20411.100
138.879, 20872.949
139.361, 21225.439
139.843, 21350.311
140.325, 21228.109
140.807, 20934.900
141.290, 20455.471
141.772, 19753.619
142.254, 19082.131
142.736, 18431.420
143.218, 17823.311
143.700, 17292.369
144.182, 16849.020
144.664, 16472.830
145.146, 16161.560
145.629, 15923.790
146.111, 15728.710
146.593, 15584.700
147.075, 15483.820
147.557, 15394.610
148.039, 15299.930
148.521, 15228.720
149.003, 15198.710
149.486, 15257.610
149.968, 15301.500
150.450, 15312.770
150.932, 15289.330
151.414, 15284.510
151.896, 15313.990
152.378, 15356.500
152.860, 15393.240
153.342, 15448.640
153.824, 15476.710
154.307, 15459.350
154.789, 15382.980
155.271, 15317.350
155.753, 15275.320
156.235, 15249.890
156.717, 15231.470
157.199, 15207.370
157.682, 15197.440
158.164, 15212.140
158.646, 15263.900
159.128, 15315.620
159.610, 15346.420
160.092, 15367.360
160.574, 15405.390
161.056, 15479.990
161.538, 15567.210
162.020, 15651.660
162.503, 15729.640
162.985, 15803.320
163.467, 15863.940
163.949, 15916.090
164.431, 15983.630
164.913, 16088.900
165.395, 16210.870
165.877, 16329.480
166.360, 16415.961
166.842, 16514.891
167.324, 16653.660
167.806, 16831.641
168.288, 17035.301
168.770, 17262.500
169.252, 17509.561
169.734, 17772.029
170.217, 18036.961
170.699, 18320.529
171.181, 18644.109
171.663, 19010.650
172.145, 19386.051
172.627, 19728.439
173.109, 20055.189
173.591, 20414.760
174.073, 20851.789
174.555, 21330.551
175.038, 21801.650
175.520, 22264.301
176.002, 22715.080
176.484, 23148.109
176.966, 23565.580
177.448, 23994.420
177.930, 24526.289
178.413, 25070.170
178.895, 25483.490
179.377, 25775.650
179.859, 25872.090
180.341, 25633.250
180.823, 25071.000
181.305, 24368.199
181.787, 23592.760
182.269, 22779.250
182.751, 21998.199
183.234, 21254.350
183.716, 20569.070
184.198, 20009.461
184.680, 19577.430
185.162, 19230.189
185.644, 18930.010
186.126, 18679.789
186.608, 18480.211
187.091, 18344.301
187.573, 18260.160
188.055, 18192.980
188.537, 18141.529
189.019, 18113.420
189.501, 18126.740
189.983, 18179.381
190.465, 18236.199
190.947, 18278.100
191.430, 18309.311
191.912, 18353.480
192.394, 18408.561
192.876, 18481.539
193.358, 18579.490
193.840, 18701.711
194.322, 18854.680
194.804, 19041.320
195.286, 19261.590
195.769, 19512.930
196.251, 19804.400
196.733, 20120.230
197.215, 20427.289
197.697, 20720.051
198.179, 21043.150
198.661, 21428.939
199.143, 21883.471
199.626, 22353.461
200.108, 22830.801
200.590, 23320.400
201.072, 23853.551
201.554, 24432.939
202.036, 25045.480
202.518, 25674.561
203.000, 26314.619
203.482, 27010.670
203.965, 27776.420
204.447, 28606.801
204.929, 29458.311
205.411, 30345.471
205.893, 31226.641
206.375, 32080.070
206.857, 32919.828
207.339, 33665.160
207.822, 34305.352
208.304, 34841.430
208.786, 35237.051
209.268, 35467.012
209.750, 35608.941
210.232, 35735.762
210.714, 35834.980
211.196, 35963.211
211.678, 36144.969
212.161, 36386.391
212.643, 36615.969
213.125, 36850.789
213.607, 37057.691
214.089, 37214.238
214.571, 37360.961
215.053, 37353.281
215.535, 37147.879
216.018, 36739.738
216.500, 36139.699
216.982, 35327.000
217.464, 34351.199
217.946, 33282.852
218.428, 32085.650
218.910, 30893.080
219.392, 29735.250
219.874, 28596.250
220.357, 27584.711
220.839, 26717.811
221.321, 25981.250
221.803, 25334.160
222.285, 24790.260
222.767, 24323.490
223.249, 23932.070
223.731, 23623.471
224.214, 23366.260
224.696, 23165.461
225.178, 23014.881
225.660, 22883.670
226.142, 22764.090
226.624, 22677.381
227.106, 22637.539
227.588, 22657.670
228.070, 22694.160
228.553, 22752.840
229.035, 22825.930
229.517, 22884.770
229.999, 22920.051
230.481, 22953.650
230.963, 23002.619
231.445, 23092.141
231.927, 23147.910
232.410, 23179.920
232.892, 23178.301
233.374, 23077.090
233.856, 22849.100
234.338, 22557.439
234.820, 22233.471
235.302, 21855.740
235.784, 21491.770
236.266, 21143.170
236.749, 20808.221
237.231, 20517.551
237.713, 20272.500
238.195, 20067.430
238.677, 19899.580
239.159, 19775.250
239.641, 19677.109
240.123, 19604.869
240.605, 19558.539
241.088, 19526.830
241.570, 19510.760
242.052, 19507.801
242.534, 19516.150
243.016, 19537.010
243.498, 19565.359
243.980, 19594.600
244.462, 19623.930
244.945, 19690.539
245.427, 19818.029
245.909, 19956.631
246.391, 20058.340
246.873, 20107.480
247.355, 20146.939
247.837, 20181.930
248.319, 20211.881
248.801, 20249.590
249.284, 20315.900
249.766, 20368.891
250.248, 20363.600
250.730, 20285.400
251.212, 20179.170
251.694, 20046.439
252.176, 19886.320
252.658, 19742.430
253.141, 19620.789
253.623, 19512.730
254.105, 19406.490
254.587, 19293.369
255.069, 19203.449
255.551, 19145.910
256.033, 19123.061
256.515, 19114.270
256.997, 19126.109
257.480, 19144.801
257.962, 19150.850
258.444, 19129.971
258.926, 19126.760
259.408, 19159.920
259.890, 19235.689
260.372, 19279.449
260.854, 19270.711
261.336, 19250.930
261.819, 19278.301
262.301, 19376.000
262.783, 19464.590
263.265, 19520.930
263.747, 19541.381
264.229, 19558.410
264.711, 19569.770
265.193, 19580.070
265.676, 19596.631
266.158, 19623.029
266.640, 19646.010
267.122, 19662.391
267.604, 19672.721
268.086, 19672.561
268.568, 19655.170
269.050, 19637.020
269.532, 19647.289
270.015, 19699.189
270.497, 19734.660
270.979, 19728.510
271.461, 19677.750
271.943, 19644.189
272.425, 19625.230
272.907, 19628.119
273.389, 19667.480
273.871, 19749.240
274.354, 19839.961
274.836, 19929.480
275.318, 20017.170
275.800, 20111.340
276.282, 20210.580
276.764, 20317.721
277.246, 20436.770
277.728, 20564.980
278.211, 20711.449
278.693, 20888.010
279.175, 21092.471
279.657, 21269.480
280.139, 21410.590
280.621, 21543.650
281.103, 21710.811
281.585, 21912.141
282.068, 22109.801
282.550, 22284.289
283.032, 22438.881
283.514, 22608.320
283.996, 22796.199
284.478, 22988.199
284.960, 23173.840
285.442, 23354.820
285.924, 23507.051
286.406, 23612.051
286.889, 23680.930
287.371, 23781.090
287.853, 23921.650
288.335, 24052.779
288.817, 24117.439
289.299, 24117.670
289.781, 24079.869
290.263, 24016.170
290.746, 23921.811
291.228, 23771.539
291.710, 23560.320
292.192, 23327.770
292.674, 23111.619
293.156, 22910.961
293.638, 22726.051
294.120, 22565.090
294.603, 22420.359
295.085, 22265.930
295.567, 22100.779
296.049, 21948.721
296.531, 21835.900
297.013, 21757.619
297.495, 21699.010
297.977, 21656.080
298.459, 21630.760
298.942, 21627.811
299.424, 21647.131
299.906, 21685.900
300.388, 21749.619
300.870, 21830.881
301.352, 21908.859
301.834, 21965.279
302.316, 22022.740
302.798, 22121.689
303.281, 22258.029
303.763, 22388.250
304.245, 22454.471
304.727, 22492.891
305.209, 22563.980
305.691, 22699.289
306.173, 22862.900
306.655, 23033.320
307.138, 23207.990
307.620, 23369.801
308.102, 23516.939
308.584, 23644.051
309.066, 23745.330
309.548, 23819.410
310.030, 23868.279
310.512, 23907.070
310.994, 23928.760
311.477, 23894.680
311.959, 23761.760
312.441, 23572.391
312.923, 23366.840
313.405, 23149.529
313.887, 22926.850
314.369, 22687.850
314.851, 22440.270
315.333, 22209.039
315.816, 21986.881
316.298, 21796.869
316.780, 21658.350
317.262, 21609.230
317.744, 21560.250
318.226, 21463.410
318.708, 21339.260
319.190, 21243.561
319.672, 21199.439
320.155, 21185.430
320.637, 21191.580
321.119, 21222.811
321.601, 21261.490
322.083, 21306.070
322.565, 21354.891
323.047, 21404.750
323.530, 21462.061
324.012, 21513.881
324.494, 21549.830
324.976, 21546.510
325.458, 21576.689
325.940, 21663.619
326.422, 21785.580
326.904, 21905.580
327.386, 21957.920
327.868, 22066.369
328.351, 22295.590
328.833, 22724.750
329.315, 23026.029
329.797, 23124.270
330.279, 23124.570
330.761, 23160.779
331.243, 23229.391
331.725, 23340.250
332.208, 23507.490
332.690, 23742.980
333.172, 23955.721
333.654, 24121.240
334.136, 24283.520
334.618, 24495.910
335.100, 24777.160
335.582, 25064.641
336.065, 25352.199
336.547, 25637.051
337.029, 25895.320
337.511, 26119.900
337.993, 26329.211
338.475, 26542.369
338.957, 26754.160
339.439, 26984.109
339.921, 27249.090
340.404, 27533.590
340.886, 27769.279
341.368, 27949.760
341.850, 28098.971
342.332, 28241.240
342.814, 28379.020
343.296, 28469.369
343.778, 28499.070
344.260, 28486.391
344.743, 28479.770
345.225, 28481.289
345.707, 28466.080
346.189, 28415.490
346.671, 28333.289
347.153, 28233.211
347.635, 28113.490
348.117, 27983.881
348.599, 27849.461
349.082, 27712.359
349.564, 27590.400
350.046, 27482.961
350.528, 27398.311
351.010, 27364.711
351.492, 27392.359
351.974, 27433.051
352.457, 27419.029
352.939, 27372.100
353.421, 27354.650
353.903, 27413.270
354.385, 27511.090
354.867, 27605.779
355.349, 27694.939
355.831, 27793.109
356.313, 27905.311
356.796, 28036.211
357.278, 28191.539
357.760, 28358.010
358.242, 28560.449
358.724, 28823.830
359.206, 29147.250
359.688, 29490.490
360.170, 29847.689
360.652, 30207.730
361.135, 30561.090
361.617, 30878.039
362.099, 31208.090
362.581, 31563.119
363.063, 31943.520
363.545, 32353.260
364.027, 32830.859
364.509, 33314.129
364.991, 33763.051
365.474, 34143.160
365.956, 34524.801
366.438, 34932.289
366.920, 35352.309
367.402, 35753.922
367.884, 36171.949
368.366, 36541.422
368.848, 36832.602
369.331, 37014.730
369.813, 37181.191
370.295, 37351.262
370.777, 37502.270
371.259, 37594.609
371.741, 37628.000
372.223, 37600.512
372.705, 37506.020
373.188, 37336.609
373.670, 37138.148
374.152, 36925.559
374.634, 36665.488
375.116, 36308.109
375.598, 35818.199
376.080, 35336.910
376.562, 34911.988
377.044, 34532.090
377.526, 34108.578
378.009, 33634.391
378.491, 33145.641
378.973, 32682.180
379.455, 32241.211
379.937, 31804.350
380.419, 31359.910
380.901, 30921.980
381.384, 30509.770
381.866, 30125.619
382.348, 29771.840
382.830, 29451.369
383.312, 29161.211
383.794, 28907.840
384.276, 28701.570
384.758, 28506.631
385.240, 28253.840
385.723, 27963.051
386.205, 27719.650
386.687, 27612.279
387.169, 27563.279
387.651, 27458.359
388.133, 27282.631
388.615, 27100.760
389.097, 26957.199
389.579, 26848.070
390.062, 26764.430
390.544, 26721.740
391.026, 26688.990
391.508, 26647.520
391.990, 26597.699
392.472, 26541.660
392.954, 26476.539
393.436, 26409.150
393.918, 26346.631
394.401, 26283.240
394.883, 26233.270
395.365, 26204.869
395.847, 26195.381
396.329, 26192.320
396.811, 26200.000
397.293, 26207.539
397.775, 26205.270
398.258, 26149.350
398.740, 26150.760
399.222, 26261.689
399.704, 26429.211
400.186, 26547.340
400.668, 26588.500
401.150, 26611.551
401.632, 26624.340
402.114, 26614.980
402.597, 26658.529
403.079, 26781.750
403.561, 26932.689
404.043, 27045.670
404.525, 27101.721
405.007, 27176.850
405.489, 27297.920
405.971, 27454.490
406.453, 27579.551
406.936, 27663.949
407.418, 27747.631
407.900, 27864.461
408.382, 28013.010
408.864, 28172.359
409.346, 28343.961
409.828, 28518.250
410.310, 28666.391
410.793, 28790.061
411.275, 28943.410
411.757, 29177.320
412.239, 29464.279
412.721, 29740.301
413.203, 30000.369
413.685, 30255.109
414.167, 30513.131
414.650, 30780.570
415.132, 31067.971
415.614, 31375.641
416.096, 31709.840
416.578, 32087.320
417.060, 32510.619
417.542, 32943.301
418.024, 33363.371
418.506, 33787.711
418.988, 34241.051
419.471, 34709.871
419.953, 35226.930
420.435, 35812.070
420.917, 36459.898
421.399, 37128.410
421.881, 37766.238
422.363, 38451.871
422.845, 39228.039
423.328, 40141.359
423.810, 41075.301
424.292, 41998.531
424.774, 42945.191
425.256, 43979.559
425.738, 45096.980
426.220, 46307.211
426.702, 47609.961
427.185, 49018.719
427.667, 50505.648
428.149, 52082.969
428.631, 53715.949
429.113, 55400.230
429.595, 57112.051
430.077, 58867.539
430.559, 60659.281
431.041, 62502.559
431.524, 64403.941
432.006, 66372.828
432.488, 68348.523
432.970, 70283.617
433.452, 72184.227
433.934, 74128.297
434.416, 76141.727
434.898, 78144.297
435.380, 80034.789
435.863, 81817.594
436.345, 83512.133
436.827, 85189.992
437.309, 86759.602
437.791, 88115.617
438.273, 89256.320
438.755, 90169.562
439.237, 90897.852
439.720, 91377.844
440.202, 91520.438
440.684, 91304.289
441.166, 90729.094
441.648, 89772.656
442.130, 88453.008
442.612, 86839.961
443.094, 84866.477
443.576, 82678.727
444.059, 80329.867
444.541, 77788.141
445.023, 75186.391
445.505, 72523.320
445.987, 69835.156
446.469, 67226.922
446.951, 64674.250
447.433, 62217.352
447.915, 59851.672
448.398, 57565.840
448.880, 55436.000
449.362, 53496.340
449.844, 51675.172
450.326, 49940.059
450.808, 48255.980
451.290, 46726.469
451.772, 45398.410
452.254, 44222.590
452.737, 43077.051
453.219, 41960.281
453.701, 40914.051
454.183, 39950.551
454.665, 39075.648
455.147, 38261.789
455.629, 37517.160
456.112, 36826.949
456.594, 36199.090
457.076, 35619.141
457.558, 35065.199
458.040, 34506.910
458.522, 33976.828
459.004, 33524.340
459.486, 33145.789
459.968, 32780.672
460.451, 32400.670
460.933, 32007.961
461.415, 31608.320
461.897, 31186.609
462.379, 30794.740
462.861, 30475.689
463.343, 30207.980
463.825, 29959.561
464.307, 29718.051
464.790, 29492.561
465.272, 29300.109
465.754, 29144.461
466.236, 28973.721
466.718, 28752.189
467.200, 28526.609
467.682, 28333.461
468.164, 28203.061
468.647, 28061.010
469.129, 27886.539
469.611, 27698.109
470.093, 27559.420
470.575, 27498.400
471.057, 27430.051
471.539, 27307.900
472.021, 27121.551
472.503, 26972.029
472.986, 26862.529
473.468, 26782.070
473.950, 26730.699
474.432, 26706.660
474.914, 26651.439
475.396, 26526.250
475.878, 26377.010
476.360, 26318.439
476.842, 26345.080
477.325, 26375.410
477.807, 26342.920
478.289, 26279.939
478.771, 26237.971
479.253, 26227.400
479.735, 26229.580
480.217, 26239.410
480.699, 26250.020
481.181, 26248.881
481.664, 26204.330
482.146, 26167.609
482.628, 26168.070
483.110, 26204.779
483.592, 26249.211
484.074, 26306.100
484.556, 26357.840
485.039, 26390.820
485.521, 26381.721
486.003, 26382.500
486.485, 26408.279
486.967, 26442.881
487.449, 26450.109
487.931, 26417.439
488.413, 26379.811
488.895, 26347.330
489.378, 26320.850
489.860, 26299.510
490.342, 26280.061
490.824, 26276.619
491.306, 26314.811
491.788, 26395.289
492.270, 26451.920
492.752, 26466.650
493.234, 26459.529
493.717, 26464.539
494.199, 26480.949
494.681, 26505.910
495.163, 26540.660
495.645, 26581.119
496.127, 26618.160
496.609, 26650.439
497.091, 26688.670
497.573, 26759.461
498.056, 26836.301
498.538, 26882.449
499.020, 26869.359
499.502, 26842.369
499.984, 26823.039
500.466, 26807.891
500.948, 26783.859
501.430, 26737.330
501.913, 26689.199
502.395, 26647.391
502.877, 26609.330
503.359, 26586.740
503.841, 26604.211
504.323, 26621.410
504.805, 26592.859
505.287, 26499.590
505.770, 26398.619
506.252, 26294.619
506.734, 26189.311
507.216, 26086.289
507.698, 25982.160
508.180, 25894.650
508.662, 25852.029
509.144, 25846.600
509.626, 25788.100
510.108, 25664.670
510.591, 25526.420
511.073, 25427.131
511.555, 25361.920
512.037, 25314.939
512.519, 25285.609
513.001, 25268.350
513.483, 25268.980
513.966, 25281.020
514.448, 25273.850
514.930, 25208.730
515.412, 25130.211
515.894, 25070.980
516.376, 25037.311
516.858, 25018.039
517.340, 25021.590
517.822, 25032.820
518.305, 25033.650
518.787, 25005.539
519.269, 24984.211
519.751, 24974.740
520.233, 24976.740
520.715, 24989.119
521.197, 25023.170
521.679, 25050.670
522.161, 25058.430
522.644, 25045.471
523.126, 25015.311
523.608, 24962.160
524.090, 24904.311
524.572, 24864.150
525.054, 24841.561
525.536, 24835.891
526.018, 24857.490
526.500, 24886.279
526.983, 24875.920
527.465, 24831.301
527.947, 24787.490
528.429, 24768.881
528.911, 24764.430
529.393, 24766.900
529.875, 24778.480
530.357, 24775.211
530.839, 24724.770
531.322, 24656.859
531.804, 24607.961
532.286, 24592.000
532.768, 24593.811
533.250, 24620.430
533.732, 24665.350
534.214, 24698.150
534.696, 24730.170
535.179, 24735.939
535.661, 24695.980
536.143, 24590.551
536.625, 24532.279
537.107, 24534.990
537.589, 24565.369
538.071, 24588.430
538.553, 24603.000
539.036, 24622.529
539.518, 24653.090
540.000, 24685.650
540.482, 24687.590
540.964, 24662.430
541.446, 24655.119
541.928, 24714.689
542.410, 24801.770
542.892, 24841.939
543.375, 24830.789
543.857, 24815.051
544.339, 24831.650
544.821, 24862.910
545.303, 24888.400
545.785, 24899.439
546.267, 24907.869
546.749, 24919.391
547.231, 24932.150
547.714, 24941.740
548.196, 24957.211
548.678, 24960.180
549.160, 24935.539
549.642, 24879.211
550.124, 24855.529
550.606, 24881.240
551.088, 24918.760
551.570, 24942.100
552.053, 24949.330
552.535, 24950.820
553.017, 24946.340
553.499, 24937.859
553.981, 24920.461
554.463, 24895.770
554.945, 24895.770
555.427, 24951.439
555.909, 25029.840
556.392, 25071.949
556.874, 25080.010
557.356, 25072.039
557.838, 25044.289
558.320, 25015.480
558.802, 25004.400
559.284, 25013.750
559.766, 25043.410
560.249, 25107.369
560.731, 25186.721
561.213, 25258.551
561.695, 25309.961
562.177, 25360.350
562.659, 25411.301
563.141, 25463.730
563.623, 25520.051
564.106, 25583.039
564.588, 25646.061
565.070, 25708.811
565.552, 25773.391
566.034, 25809.891
566.516, 25805.270
566.998, 25807.199
567.480, 25881.740
567.963, 26018.471
568.445, 26126.211
568.927, 26177.711
569.409, 26209.221
569.891, 26272.699
570.373, 26360.600
570.855, 26445.619
571.337, 26504.500
571.819, 26560.910
572.302, 26636.490
572.784, 26730.490
573.266, 26829.420
573.748, 26918.100
574.230, 27014.461
574.712, 27131.850
575.194, 27286.119
575.676, 27435.430
576.158, 27571.480
576.641, 27703.080
577.123, 27842.230
577.605, 27985.561
578.087, 28143.490
578.569, 28323.650
579.051, 28521.449
579.533, 28711.230
580.015, 28893.289
580.497, 29085.170
580.980, 29296.100
581.462, 29525.471
581.944, 29772.520
582.426, 30040.859
582.908, 30317.020
583.390, 30594.900
583.872, 30874.020
584.354, 31154.670
584.836, 31438.881
585.319, 31718.680
585.801, 31980.631
586.283, 32232.529
586.765, 32491.199
587.247, 32771.781
587.729, 33046.551
588.211, 33311.309
588.693, 33565.531
589.176, 33791.781
589.658, 33979.980
590.140, 34152.922
590.622, 34332.320
591.104, 34534.180
591.586, 34663.641
592.068, 34716.488
592.550, 34706.660
593.032, 34643.621
593.515, 34529.609
593.997, 34386.328
594.479, 34220.789
594.961, 34029.160
595.443, 33809.270
595.925, 33558.129
596.407, 33264.711
596.890, 32873.961
597.372, 32473.930
597.854, 32144.109
598.336, 31886.199
598.818, 31608.600
599.300, 31255.971
599.782, 30881.900
600.264, 30516.061
600.746, 30136.000
601.229, 29810.420
601.711, 29559.650
602.193, 29346.750
602.675, 29124.801
603.157, 28878.680
603.639, 28668.551
604.121, 28523.100
604.603, 28413.480
605.085, 28241.160
605.568, 28007.449
606.050, 27796.270
606.532, 27676.490
607.014, 27608.990
607.496, 27508.939
607.978, 27373.750
608.460, 27252.631
608.942, 27196.330
609.424, 27164.641
609.907, 27110.971
610.389, 27012.211
610.871, 26924.141
611.353, 26888.609
611.835, 26869.980
612.317, 26817.109
612.799, 26651.619
613.281, 26545.350
613.763, 26555.760
614.246, 26647.311
614.728, 26654.391
615.210, 26546.289
615.692, 26449.551
616.174, 26432.449
616.656, 26485.461
617.138, 26515.689
617.620, 26522.439
618.103, 26515.689
618.585, 26494.289
619.067, 26467.250
619.549, 26453.641
620.031, 26458.711
620.513, 26469.029
620.995, 26473.311
621.477, 26475.820
621.959, 26483.141
622.442, 26499.461
622.924, 26518.010
623.406, 26543.650
623.888, 26571.420
624.370, 26579.490
624.852, 26550.539
625.334, 26524.330
625.816, 26510.859
626.299, 26510.279
626.781, 26536.551
627.263, 26596.760
627.745, 26659.529
628.227, 26696.510
628.709, 26712.730
629.191, 26741.131
629.673, 26789.740
630.156, 26829.789
630.638, 26819.930
631.120, 26782.619
631.602, 26757.850
632.084, 26753.221
632.566, 26772.510
633.048, 26836.180
633.530, 26926.939
634.012, 26997.920
634.495, 27009.520
634.977, 27029.230
635.459, 27088.000
635.941, 27182.750
636.423, 27244.449
636.905, 27250.971
637.387, 27262.279
637.869, 27318.539
638.351, 27422.100
638.834, 27510.420
639.316, 27579.529
639.798, 27642.670
640.280, 27715.670
640.762, 27794.500
641.244, 27863.061
641.726, 27907.230
642.208, 27968.039
642.690, 28100.900
643.173, 28275.789
643.655, 28438.869
644.137, 28567.080
644.619, 28681.119
645.101, 28765.301
645.583, 28830.881
646.065, 28956.711
646.547, 29208.881
647.029, 29441.420
647.512, 29589.699
647.994, 29644.320
648.476, 29756.150
648.958, 29934.410
649.440, 30135.160
649.922, 30309.430
650.404, 30467.891
650.886, 30689.711
651.369, 30994.340
651.851, 31302.180
652.333, 31523.600
652.815, 31693.820
653.297, 31875.289
653.779, 32106.490
654.261, 32336.430
654.743, 32533.580
655.226, 32710.881
655.708, 32900.148
656.190, 33077.410
656.672, 33303.621
657.154, 33620.539
657.636, 34012.570
658.118, 34310.121
658.600, 34483.230
659.083, 34641.270
659.565, 34846.090
660.047, 35093.859
660.529, 35334.219
661.011, 35570.238
661.493, 35778.488
661.975, 35905.250
662.457, 36000.449
662.939, 36166.398
663.422, 36443.828
663.904, 36717.539
664.386, 36899.680
664.868, 37035.789
665.350, 37187.340
665.832, 37406.820
666.314, 37600.238
666.796, 37724.410
667.278, 37811.191
667.761, 37930.789
668.243, 38084.988
668.725, 38263.750
669.207, 38467.371
669.689, 38690.441
670.171, 38911.660
670.653, 39128.359
671.135, 39384.738
671.617, 39730.371
672.100, 40131.078
672.582, 40520.430
673.064, 40898.012
673.546, 41288.250
674.028, 41689.609
674.510, 42120.641
674.992, 42603.711
675.474, 43169.961
675.956, 43731.988
676.439, 44278.801
676.921, 44811.699
677.403, 45330.578
677.885, 45885.852
678.367, 46329.820
678.849, 46652.031
679.331, 46852.570
679.813, 46946.000
680.296, 46931.070
680.778, 46731.609
681.260, 46304.512
681.742, 45686.121
682.224, 44891.949
682.706, 43946.430
683.188, 42927.270
683.670, 41832.730
684.153, 40728.750
684.635, 39642.461
685.117, 38568.570
685.599, 37593.469
686.081, 36776.238
686.563, 36037.609
687.045, 35338.160
687.527, 34659.410
688.010, 34068.422
688.492, 33578.129
688.974, 33146.309
689.456, 32739.270
689.938, 32357.461
690.420, 32008.689
690.902, 31684.270
691.384, 31412.199
691.866, 31257.801
692.349, 31179.920
692.831, 31094.680
693.313, 30968.420
693.795, 30831.699
694.277, 30690.500
694.759, 30552.529
695.241, 30432.961
695.723, 30350.539
696.205, 30273.500
696.688, 30186.410
697.170, 30096.510
697.652, 30055.439
698.134, 30083.910
698.616, 30098.920
699.098, 30040.561
699.580, 29931.070
700.062, 29906.221
700.544, 29965.160
701.027, 30029.900
701.509, 30020.990
701.991, 29990.520
702.473, 30009.711
702.955, 30091.520
703.437, 30186.119
703.919, 30285.910
704.401, 30377.660
704.883, 30448.670
705.366, 30460.891
705.848, 30511.279
706.330, 30624.051
706.812, 30754.520
707.294, 30833.801
707.776, 30848.900
708.258, 30910.680
708.740, 31047.961
709.222, 31226.080
709.705, 31389.711
710.187, 31544.471
710.669, 31713.289
711.151, 31916.230
711.633, 32123.150
712.115, 32298.539
712.597, 32453.500
713.080, 32628.830
713.562, 32836.422
714.044, 33069.039
714.526, 33334.102
715.008, 33627.969
715.490, 33917.961
715.972, 34205.121
716.454, 34489.371
716.936, 34769.840
717.419, 35045.379
717.901, 35346.191
718.383, 35671.820
718.865, 35995.500
719.347, 36269.570
719.829, 36528.738
720.311, 36819.891
720.793, 37152.250
721.276, 37513.949
721.758, 37907.211
722.240, 38326.219
722.722, 38765.570
723.204, 39204.801
723.686, 39698.699
724.168, 40285.719
724.650, 40903.391
725.132, 41457.570
725.615, 41922.070
726.097, 42488.852
726.579, 43188.859
727.061, 43989.039
727.543, 44848.391
728.025, 45751.379
728.507, 46632.551
728.989, 47469.320
729.471, 48285.578
729.954, 49064.789
730.436, 49837.980
730.918, 50706.211
731.400, 51775.871
731.882, 52871.730
732.364, 53938.328
732.846, 54976.660
733.328, 55975.160
733.810, 56897.980
734.293, 57869.301
734.775, 58980.410
735.257, 60197.578
735.739, 61324.422
736.221, 62360.629
736.703, 63321.301
737.185, 64214.270
737.667, 65043.680
738.149, 65820.391
738.632, 66550.633
739.114, 67163.750
739.596, 67601.430
740.078, 67928.328
740.560, 68201.242
741.042, 68478.617
741.524, 68552.594
742.006, 68379.828
742.489, 68055.094
742.971, 67667.703
743.453, 67217.641
743.935, 66638.273
744.417, 65918.547
744.899, 65070.551
745.381, 64084.961
745.863, 62994.609
746.346, 61855.820
746.828, 60670.891
747.310, 59463.129
747.792, 58219.398
748.274, 56960.102
748.756, 55710.051
749.238, 54477.680
749.720, 53276.641
750.203, 52101.520
750.685, 50961.789
751.167, 49832.461
751.649, 48710.648
752.131, 47688.359
752.613, 46799.641
753.095, 46016.641
753.577, 45276.590
754.059, 44584.801
754.542, 43949.371
755.024, 43413.840
755.506, 42908.461
755.988, 42373.020
756.470, 41818.160
756.952, 41320.891
757.434, 40933.430
757.916, 40574.680
758.398, 40231.602
758.881, 39898.621
759.363, 39520.320
759.845, 39070.129
760.327, 38664.371
760.809, 38391.391
761.291, 38219.461
761.773, 38030.031
762.255, 37824.879
762.737, 37596.980
763.220, 37312.590
763.702, 37024.570
764.184, 36790.191
764.666, 36616.270
765.148, 36440.031
765.630, 36245.570
766.112, 36037.141
766.594, 35815.359
767.076, 35580.219
767.559, 35326.012
768.041, 35046.410
768.523, 34757.602
769.005, 34482.621
769.487, 34215.090
769.969, 33922.102
770.451, 33598.449
770.933, 33271.941
771.416, 32958.070
771.898, 32659.539
772.380, 32389.689
772.862, 32176.119
773.344, 31931.359
773.826, 31578.100
774.308, 31215.391
774.790, 30951.920
775.273, 30836.510
775.755, 30680.119
776.237, 30453.260
776.719, 30208.830
777.201, 30017.660
777.683, 29875.250
778.165, 29750.801
778.647, 29636.949
779.130, 29537.131
779.612, 29475.830
780.094, 29425.350
780.576, 29340.301
781.058, 29155.510
781.540, 28992.311
782.022, 28895.711
782.504, 28832.289
782.986, 28743.670
783.468, 28617.150
783.951, 28502.711
784.433, 28414.039
784.915, 28343.391
785.397, 28279.881
785.879, 28223.250
786.361, 28167.830
786.843, 28115.010
787.325, 28059.500
787.807, 27979.170
788.290, 27891.631
788.772, 27844.109
789.254, 27911.670
789.736, 27951.859
790.218, 27906.119
790.700, 27802.350
791.182, 27744.369
791.664, 27740.570
792.146, 27751.381
792.629, 27775.680
793.111, 27794.641
793.593, 27743.279
794.075, 27633.270
794.557, 27533.740
795.039, 27485.420
795.521, 27460.770
796.003, 27448.631
796.486, 27444.660
796.968, 27426.711
797.450, 27383.689
797.932, 27332.811
798.414, 27278.359
798.896, 27221.020
799.378, 27158.010
799.860, 27084.320
800.343, 27038.391
800.825, 27073.199
801.307, 27143.250
801.789, 27120.961
802.271, 27019.029
802.753, 26932.439
803.235, 26937.730
803.717, 26963.410
804.200, 26967.891
804.682, 26947.930
805.164, 26908.600
805.646, 26819.051
806.128, 26754.760
806.610, 26762.779
807.092, 26837.439
807.574, 26858.131
808.056, 26822.061
808.539, 26775.930
809.021, 26749.600
809.503, 26735.869
809.985, 26718.711
810.467, 26698.811
810.949, 26695.561
811.431, 26761.619
811.913, 26812.439
812.395, 26776.859
812.878, 26633.020
813.360, 26562.801
813.842, 26594.221
814.324, 26646.391
814.806, 26673.580
815.288, 26677.439
815.770, 26672.381
816.252, 26658.449
816.734, 26639.150
817.217, 26608.061
817.699, 26578.449
818.181, 26573.260
818.663, 26595.930
819.145, 26602.551
819.627, 26563.350
820.109, 26517.391
820.591, 26481.891
821.073, 26454.641
821.556, 26463.490
822.038, 26519.279
822.520, 26573.990
823.002, 26578.930
823.484, 26554.240
823.966, 26574.770
824.448, 26642.990
824.930, 26689.740
825.413, 26637.199
825.895, 26559.971
826.377, 26518.359
826.859, 26523.260
827.341, 26535.029
827.823, 26551.990
828.305, 26570.631
828.787, 26591.330
829.269, 26614.529
829.752, 26626.260
830.234, 26625.930
830.716, 26621.750
831.198, 26614.461
831.680, 26610.770
832.162, 26632.961
832.644, 26683.721
833.127, 26702.869
833.609, 26619.609
834.091, 26528.211
834.573, 26500.199
835.055, 26550.570
835.537, 26553.369
836.019, 26487.311
836.501, 26424.670
836.983, 26419.500
837.466, 26461.230
837.948, 26500.471
838.430, 26535.561
838.912, 26557.080
839.394, 26535.570
839.876, 26511.971
840.358, 26541.471
840.840, 26636.410
841.322, 26669.961
841.805, 26540.461
842.287, 26427.449
842.769, 26424.260
843.251, 26534.721
843.733, 26594.051
844.215, 26597.660
844.697, 26587.221
845.179, 26589.881
845.661, 26599.721
846.144, 26610.650
846.626, 26621.350
847.108, 26621.631
847.590, 26599.631
848.072, 26571.029
848.554, 26537.090
849.036, 26497.580
849.518, 26498.859
850.000, 26561.490
850.483, 26615.301
850.965, 26614.881
851.447, 26574.811
851.929, 26569.570
852.411, 26595.070
852.893, 26605.090
853.375, 26532.990
853.857, 26461.410
854.340, 26474.170
854.822, 26565.850
855.304, 26631.520
855.786, 26633.510
856.268, 26625.580
856.750, 26623.471
857.232, 26625.170
857.714, 26613.961
858.196, 26588.570
858.679, 26572.449
859.161, 26580.100
859.643, 26603.420
860.125, 26637.811
860.607, 26678.609
861.089, 26708.430
861.571, 26717.570
862.054, 26715.490
862.536, 26696.750
863.018, 26668.561
863.500, 26660.061
863.982, 26676.330
864.464, 26693.539
864.946, 26701.730
865.428, 26708.029
865.910, 26735.631
866.393, 26777.670
866.875, 26806.510
867.357, 26799.289
867.839, 26785.641
868.321, 26784.039
868.803, 26789.811
869.285, 26789.230
869.767, 26778.029
870.249, 26767.840
870.732, 26761.250
871.214, 26757.131
871.696, 26749.631
872.178, 26740.420
872.660, 26744.641
873.142, 26774.270
873.624, 26804.561
874.106, 26802.711
874.588, 26785.510
875.071, 26781.490
875.553, 26801.391
876.035, 26831.590
876.517, 26886.279
876.999, 26937.150
877.481, 26934.141
877.963, 26871.801
878.445, 26839.289
878.927, 26854.570
879.410, 26890.789
879.892, 26924.650
880.374, 26954.980
880.856, 26982.301
881.338, 27015.471
881.820, 27024.359
882.302, 26963.689
882.784, 26896.631
883.266, 26885.359
883.749, 26952.980
884.231, 26986.891
884.713, 26976.289
885.195, 26959.100
885.677, 26979.510
886.159, 27022.490
886.641, 27054.189
887.123, 27070.590
887.606, 27079.641
888.088, 27077.199
888.570, 27075.971
889.052, 27088.561
889.534, 27120.471
890.016, 27138.939
890.498, 27139.811
890.980, 27137.000
891.463, 27134.830
891.945, 27135.760
892.427, 27152.971
892.909, 27185.330
893.391, 27223.170
893.873, 27278.850
894.355, 27319.551
894.837, 27311.551
895.320, 27255.070
895.802, 27210.820
896.284, 27177.779
896.766, 27167.061
897.248, 27189.900
897.730, 27237.449
898.212, 27277.971
898.694, 27310.590
899.176, 27316.660
899.659, 27260.561
900.141, 27197.971
900.623, 27190.410
901.105, 27216.680
901.587, 27214.980
902.069, 27111.180
902.551, 27058.820
903.033, 27107.510
903.515, 27203.891
903.998, 27223.500
904.480, 27168.490
904.962, 27130.920
905.444, 27142.551
905.926, 27164.980
906.408, 27157.801
906.890, 27131.490
907.372, 27101.840
907.854, 27054.461
908.337, 27034.131
908.819, 27063.660
909.301, 27108.109
909.783, 27133.561
910.265, 27139.760
910.747, 27127.580
911.229, 27093.391
911.711, 27065.381
912.193, 27092.400
912.676, 27135.311
913.158, 27132.900
913.640, 27065.301
914.122, 27013.971
914.604, 27015.471
915.086, 27031.730
915.568, 27042.289
916.050, 27046.801
916.533, 27059.301
917.015, 27082.080
917.497, 27095.590
917.979, 27070.070
918.461, 27035.471
918.943, 27043.760
919.425, 27090.461
919.907, 27130.260
920.390, 27135.391
920.872, 27137.961
921.354, 27151.141
921.836, 27171.631
922.318, 27182.000
922.800, 27178.039
923.282, 27191.260
923.764, 27247.660
924.247, 27308.289
924.729, 27299.070
925.211, 27245.529
925.693, 27209.721
926.175, 27237.869
926.657, 27262.971
927.139, 27264.949
927.621, 27252.439
928.103, 27231.920
928.586, 27197.029
929.068, 27198.439
929.550, 27251.990
930.032, 27314.600
930.514, 27332.439
930.996, 27320.660
931.478, 27300.689
931.960, 27272.340
932.442, 27258.070
932.925, 27275.439
933.407, 27304.119
933.889, 27330.961
934.371, 27357.740
934.853, 27374.490
935.335, 27383.520
935.817, 27368.510
936.299, 27288.619
936.781, 27189.010
937.264, 27150.109
937.746, 27169.750
938.228, 27192.551
938.710, 27194.961
939.192, 27194.270
939.674, 27195.971
940.156, 27200.830
940.638, 27215.359
941.120, 27241.820
941.603, 27259.760
942.085, 27260.850
942.567, 27249.641
943.049, 27225.510
943.531, 27195.340
944.013, 27175.051
944.495, 27172.770
944.977, 27179.070
945.460, 27213.631
945.942, 27243.471
946.424, 27215.420
946.906, 27119.141
947.388, 27061.561
947.870, 27058.051
948.352, 27081.150
948.834, 27112.039
949.317, 27145.180
949.799, 27176.221
950.281, 27207.029
950.763, 27218.270
951.245, 27172.971
951.727, 27135.080
952.209, 27142.711
952.691, 27196.119
953.173, 27241.350
953.656, 27278.859
954.138, 27295.350
954.620, 27253.939
955.102, 27206.609
955.584, 27238.939
956.066, 27326.270
956.548, 27360.760
957.030, 27235.510
957.513, 27144.211
957.995, 27138.240
958.477, 27191.189
958.959, 27256.439
959.441, 27331.779
959.923, 27362.070
960.405, 27316.539
960.887, 27259.471
961.369, 27258.971
961.852, 27286.830
962.334, 27303.779
962.816, 27288.400
963.298, 27285.170
963.780, 27297.400
964.262, 27320.289
964.744, 27366.279
965.226, 27427.250
965.708, 27408.000
966.191, 27305.439
966.673, 27219.891
967.155, 27258.730
967.637, 27321.180
968.119, 27312.211
968.601, 27229.410
969.083, 27207.760
969.565, 27292.859
970.047, 27354.119
970.530, 27333.561
971.012, 27267.760
971.494, 27257.080
971.976, 27292.801
972.458, 27341.250
972.940, 27400.369
973.422, 27450.590
973.904, 27470.061
974.386, 27476.830
974.869, 27501.711
975.351, 27559.900
975.833, 27592.641
976.315, 27590.160
976.797, 27577.971
977.279, 27595.279
977.761, 27621.869
978.244, 27597.010
978.726, 27509.350
979.208, 27458.580
979.690, 27557.160
980.172, 27649.070
980.654, 27622.801
981.136, 27487.619
981.618, 27444.730
982.100, 27505.381
982.583, 27563.471
983.065, 27556.820
983.547, 27526.180
984.029, 27542.391
984.511, 27585.850
984.993, 27606.330
985.475, 27569.641
985.957, 27527.381
986.440, 27471.131
986.922, 27429.590
987.404, 27460.240
987.886, 27561.770
988.368, 27624.461
988.850, 27631.109
989.332, 27612.750
989.814, 27584.660
990.296, 27555.301
990.779, 27534.529
991.261, 27524.850
991.743, 27515.359
992.225, 27499.189
992.707, 27494.131
993.189, 27515.420
993.671, 27554.119
994.153, 27572.600
994.635, 27573.480
995.118, 27571.920
995.600, 27557.660
996.082, 27562.230
996.564, 27625.840
997.046, 27717.631
997.528, 27764.289
998.010, 27750.039
998.492, 27735.949
998.974, 27730.240
999.457, 27725.199
999.939, 27700.949
1000.421, 27672.580
1000.903, 27675.881
1001.385, 27722.750
1001.867, 27758.461
1002.349, 27741.779
1002.831, 27724.131
1003.314, 27740.971
1003.796, 27790.199
1004.278, 27798.461
1004.760, 27764.070
1005.242, 27741.330
1005.724, 27776.631
1006.206, 27827.830
1006.688, 27845.779
1007.170, 27841.160
1007.653, 27838.930
1008.135, 27871.080
1008.617, 27865.141
1009.099, 27790.010
1009.581, 27705.881
1010.063, 27714.990
1010.545, 27795.840
1011.027, 27831.170
1011.510, 27800.051
1011.992, 27764.949
1012.474, 27755.830
1012.956, 27772.029
1013.438, 27829.150
1013.920, 27931.311
1014.402, 27973.600
1014.884, 27944.680
1015.366, 27901.570
1015.849, 27859.961
1016.331, 27832.699
1016.813, 27866.730
1017.295, 27937.150
1017.777, 27973.689
1018.259, 27901.971
1018.741, 27853.381
1019.223, 27868.980
1019.706, 27916.180
1020.188, 27966.070
1020.670, 28019.600
1021.152, 28026.410
1021.634, 27977.289
1022.116, 27928.590
1022.598, 27938.820
1023.080, 27967.881
1023.562, 27972.199
1024.045, 27945.920
1024.527, 27944.330
1025.009, 27983.619
1025.491, 28018.900
1025.973, 28035.510
1026.455, 28035.100
1026.937, 28006.090
1027.419, 27962.020
1027.901, 27952.051
1028.384, 28022.109
1028.866, 28087.119
1029.348, 28108.109
1029.830, 28105.840
1030.312, 28100.340
1030.794, 28087.100
1031.276, 28109.670
1031.758, 28176.230
1032.240, 28232.721
1032.723, 28218.131
1033.205, 28176.561
1033.687, 28165.240
1034.169, 28182.180
1034.651, 28180.789
1035.133, 28123.211
1035.615, 28083.859
1036.097, 28081.480
1036.580, 28106.080
1037.062, 28141.020
1037.544, 28183.199
1038.026, 28224.490
1038.508, 28268.039
1038.990, 28290.189
1039.472, 28249.141
1039.954, 28196.910
1040.437, 28187.180
1040.919, 28233.010
1041.401, 28248.010
1041.883, 28229.260
1042.365, 28203.670
1042.847, 28190.439
1043.329, 28182.539
1043.811, 28173.061
1044.293, 28160.641
1044.776, 28139.869
1045.258, 28078.850
1045.740, 28053.250
1046.222, 28088.330
1046.704, 28147.801
1047.186, 28173.711
1047.668, 28170.461
1048.150, 28155.789
1048.632, 28127.811
1049.115, 28130.830
1049.597, 28253.609
1050.079, 28374.869
1050.561, 28376.301
1051.043, 28259.730
1051.525, 28228.680
1052.007, 28299.980
1052.489, 28354.090
1052.972, 28319.350
1053.454, 28262.029
1053.936, 28298.721
1054.418, 28385.570
1054.900, 28434.340
1055.382, 28381.750
1055.864, 28341.650
1056.346, 28330.699
1056.828, 28324.100
1057.311, 28286.869
1057.793, 28229.680
1058.275, 28228.119
1058.757, 28282.660
1059.239, 28333.391
1059.721, 28336.699
1060.203, 28331.471
1060.685, 28351.250
1061.167, 28382.779
1061.650, 28368.820
1062.132, 28299.740
1062.614, 28249.369
1063.096, 28233.660
1063.578, 28244.330
1064.060, 28298.270
1064.542, 28359.320
1065.024, 28371.311
1065.507, 28305.830
1065.989, 28268.400
1066.471, 28281.289
1066.953, 28298.500
1067.435, 28288.211
1067.917, 28264.840
1068.399, 28290.449
1068.881, 28353.029
1069.364, 28403.301
1069.846, 28414.260
1070.328, 28410.020
1070.810, 28380.900
1071.292, 28351.980
1071.774, 28360.279
1072.256, 28411.670
1072.738, 28430.939
1073.220, 28409.859
1073.703, 28389.609
1074.185, 28426.461
1074.667, 28465.240
1075.149, 28435.590
1075.631, 28343.820
1076.113, 28308.631
1076.595, 28369.189
1077.077, 28409.340
1077.559, 28397.230
1078.042, 28358.711
1078.524, 28327.830
1079.006, 28307.529
1079.488, 28304.660
1079.970, 28322.689
1080.452, 28352.529
1080.934, 28422.910
1081.416, 28470.320
1081.898, 28445.801
1082.381, 28361.561
1082.863, 28343.311
1083.345, 28384.490
1083.827, 28427.240
1084.309, 28429.990
1084.791, 28432.900
1085.273, 28461.580
1085.755, 28506.070
1086.238, 28554.580
1086.720, 28619.141
1087.202, 28628.100
1087.684, 28568.020
1088.166, 28509.539
1088.648, 28540.760
1089.130, 28601.490
1089.612, 28606.240
1090.094, 28559.230
1090.577, 28543.260
1091.059, 28599.320
1091.541, 28648.980
1092.023, 28679.311
1092.505, 28688.180
1092.987, 28648.070
1093.469, 28584.311
1093.951, 28575.590
1094.433, 28651.340
1094.916, 28711.400
1095.398, 28676.320
1095.880, 28644.141
1096.362, 28680.740
1096.844, 28773.869
1097.326, 28814.381
1097.808, 28805.270
1098.290, 28788.770
1098.773, 28782.699
1099.255, 28779.400
1099.737, 28778.471
1100.219, 28774.750
1100.701, 28757.641
1101.183, 28714.520
1101.665, 28705.949
1102.147, 28738.461
1102.630, 28774.359
1103.112, 28773.170
1103.594, 28763.350
1104.076, 28787.000
1104.558, 28837.109
1105.040, 28878.660
1105.522, 28919.820
1106.004, 28920.301
1106.486, 28860.090
1106.969, 28781.850
1107.451, 28746.750
1107.933, 28743.211
1108.415, 28743.770
1108.897, 28744.910
1109.379, 28751.279
1109.861, 28785.910
1110.343, 28802.789
1110.825, 28774.740
1111.308, 28718.471
1111.790, 28704.109
1112.272, 28724.721
1112.754, 28722.939
1113.236, 28663.410
1113.718, 28621.260
1114.200, 28659.770
1114.682, 28733.180
1115.165, 28802.811
1115.647, 28870.230
1116.129, 28901.449
1116.611, 28893.980
1117.093, 28876.801
1117.575, 28861.490
1118.057, 28849.740
1118.539, 28848.010
1119.021, 28850.660
1119.504, 28846.090
1119.986, 28835.881
1120.468, 28812.119
1120.950, 28771.199
1121.432, 28729.359
1121.914, 28687.740
1122.396, 28662.750
1122.878, 28696.369
1123.360, 28780.881
1123.843, 28852.881
1124.325, 28888.551
1124.807, 28912.090
1125.289, 28925.420
1125.771, 28931.330
1126.253, 28927.539
1126.735, 28919.660
1127.217, 28931.119
1127.700, 28967.029
1128.182, 28993.619
1128.664, 28959.039
1129.146, 28947.711
1129.628, 29012.551
1130.110, 29127.039
1130.592, 29182.580
1131.074, 29183.250
1131.557, 29165.580
1132.039, 29130.721
1132.521, 29109.760
1133.003, 29147.430
1133.485, 29193.320
1133.967, 29198.330
1134.449, 29160.250
1134.931, 29125.711
1135.413, 29095.529
1135.896, 29069.891
1136.378, 29037.400
1136.860, 29022.900
1137.342, 29077.391
1137.824, 29159.289
1138.306, 29188.869
1138.788, 29133.250
1139.270, 29091.939
1139.752, 29064.801
1140.235, 29059.539
1140.717, 29109.330
1141.199, 29167.551
1141.681, 29152.760
1142.163, 29082.561
1142.645, 29043.000
1143.127, 29083.080
1143.609, 29100.619
1144.092, 29075.740
1144.574, 29043.949
1145.056, 29073.320
1145.538, 29123.600
1146.020, 29087.529
1146.502, 28958.480
1146.984, 28879.070
1147.466, 28951.551
1147.948, 29018.539
1148.431, 29032.971
1148.913, 29021.359
1149.395, 29041.600
1149.877, 29084.820
1150.359, 29125.199
1150.841, 29158.801
1151.323, 29170.100
1151.805, 29098.600
1152.287, 29056.930
1152.770, 29121.471
1153.252, 29261.500
1153.734, 29320.789
1154.216, 29307.260
1154.698, 29283.080
1155.180, 29264.449
1155.662, 29256.381
1156.144, 29262.490
1156.626, 29282.400
1157.109, 29319.650
1157.591, 29376.539
1158.073, 29406.150
1158.555, 29409.400
1159.037, 29399.869
1159.519, 29376.609
1160.001, 29352.270
1160.483, 29340.520
1160.966, 29330.949
1161.448, 29303.881
1161.930, 29249.660
1162.412, 29225.980
1162.894, 29236.670
1163.376, 29252.461
1163.858, 29272.020
1164.340, 29268.619
1164.823, 29178.221
1165.305, 29045.881
1165.787, 29016.859
1166.269, 29139.721
1166.751, 29223.090
1167.233, 29245.061
1167.715, 29236.881
1168.197, 29215.789
1168.679, 29192.760
1169.161, 29177.961
1169.644, 29172.439
1170.126, 29181.900
1170.608, 29209.010
1171.090, 29238.990
1171.572, 29267.689
1172.054, 29297.240
1172.536, 29317.660
1173.018, 29345.949
1173.501, 29434.260
1173.983, 29596.801
1174.465, 29646.641
1174.947, 29498.461
1175.429, 29375.980
1175.911, 29353.221
1176.393, 29397.660
1176.875, 29485.381
1177.358, 29585.070
1177.840, 29626.369
1178.322, 29578.391
1178.804, 29542.500
1179.286, 29545.381
1179.768, 29548.369
1180.250, 29529.500
1180.732, 29501.260
1181.214, 29495.680
1181.697, 29508.029
1182.179, 29525.801
1182.661, 29539.449
1183.143, 29570.920
1183.625, 29643.000
1184.107, 29705.930
1184.589, 29726.811
1185.071, 29712.029
1185.553, 29669.580
1186.036, 29611.961
1186.518, 29586.881
1187.000, 29662.689
1187.482, 29707.660
1187.964, 29678.230
1188.446, 29627.369
1188.928, 29601.910
1189.410, 29596.010
1189.893, 29561.789
1190.375, 29506.600
1190.857, 29479.760
1191.339, 29541.381
1191.821, 29590.061
1192.303, 29582.100
1192.785, 29558.119
1193.267, 29574.230
1193.750, 29619.971
1194.232, 29612.850
1194.714, 29553.449
1195.196, 29516.471
1195.678, 29578.840
1196.160, 29631.090
1196.642, 29616.180
1197.124, 29575.369
1197.606, 29580.961
1198.089, 29624.670
1198.571, 29638.779
1199.053, 29616.311
1199.535, 29595.609
1200.017, 29596.100
1200.499, 29611.160
1200.981, 29647.520
1201.463, 29690.150
1201.945, 29696.199
1202.428, 29672.400
1202.910, 29671.461
1203.392, 29704.590
1203.874, 29735.910
1204.356, 29727.570
1204.838, 29727.350
1205.320, 29777.039
1205.802, 29849.439
1206.285, 29844.189
1206.767, 29772.189
1207.249, 29719.811
1207.731, 29706.689
1208.213, 29718.510
1208.695, 29769.891
1209.177, 29820.480
1209.659, 29849.279
1210.141, 29855.990
1210.624, 29821.961
1211.106, 29756.061
1211.588, 29729.699
1212.070, 29776.311
1212.552, 29831.859
1213.034, 29860.070
1213.516, 29877.730
1213.998, 29899.250
1214.480, 29921.881
1214.963, 29917.641
1215.445, 29891.029
1215.927, 29879.680
1216.409, 29913.289
1216.891, 29933.801
1217.373, 29882.230
1217.855, 29828.561
1218.337, 29834.910
1218.820, 29894.730
1219.302, 29902.939
1219.784, 29867.939
1220.266, 29852.730
1220.748, 29906.500
1221.230, 29951.801
1221.712, 29931.461
1222.194, 29900.150
1222.677, 29905.180
1223.159, 29943.910
1223.641, 29971.760
1224.123, 29989.869
1224.605, 30010.301
1225.087, 30048.430
1225.569, 30078.510
1226.051, 30086.350
1226.533, 30082.900
1227.016, 30078.131
1227.498, 30071.211
1227.980, 30038.150
1228.462, 29986.039
1228.944, 29965.100
1229.426, 30039.070
1229.908, 30104.061
1230.390, 30115.211
1230.872, 30106.350
1231.355, 30114.289
1231.837, 30133.859
1232.319, 30109.830
1232.801, 30050.750
1233.283, 30028.961
1233.765, 30133.180
1234.247, 30214.670
1234.729, 30210.539
1235.212, 30181.029
1235.694, 30201.641
1236.176, 30257.490
1236.658, 30273.471
1237.140, 30251.410
1237.622, 30238.670
1238.104, 30282.430
1238.586, 30305.150
1239.068, 30279.141
1239.551, 30239.770
1240.033, 30232.881
1240.515, 30251.699
1240.997, 30285.199
1241.479, 30328.131
1241.961, 30341.320
1242.443, 30259.471
1242.925, 30217.711
1243.407, 30253.961
1243.890, 30321.141
1244.372, 30358.711
1244.854, 30374.471
1245.336, 30381.369
1245.818, 30381.420
1246.300, 30387.490
1246.782, 30411.449
1247.264, 30426.449
1247.746, 30424.350
1248.229, 30417.580
1248.711, 30425.641
1249.193, 30440.811
1249.675, 30451.350
1250.157, 30456.510
1250.639, 30457.510
1251.121, 30468.900
1251.603, 30444.631
1252.086, 30363.350
1252.568, 30280.920
1253.050, 30283.930
1253.532, 30325.660
1254.014, 30341.051
1254.496, 30324.939
1254.978, 30307.699
1255.460, 30279.711
1255.943, 30288.311
1256.425, 30348.289
1256.907, 30425.340
1257.389, 30499.490
1257.871, 30554.199
1258.353, 30564.520
1258.835, 30529.240
1259.317, 30492.449
1259.799, 30453.689
1260.281, 30418.340
1260.764, 30385.119
1261.246, 30369.750
1261.728, 30420.680
1262.210, 30474.141
1262.692, 30463.750
1263.174, 30396.029
1263.656, 30325.961
1264.138, 30251.529
1264.621, 30230.920
1265.103, 30285.609
1265.585, 30353.631
1266.067, 30391.141
1266.549, 30410.779
1267.031, 30406.420
1267.513, 30392.600
1267.995, 30435.240
1268.478, 30527.881
1268.960, 30593.600
1269.442, 30609.119
1269.924, 30627.471
1270.406, 30705.660
1270.888, 30770.561
1271.370, 30775.480
1271.852, 30740.881
1272.334, 30730.170
1272.817, 30737.039
1273.299, 30727.561
1273.781, 30689.449
1274.263, 30677.750
1274.745, 30756.090
1275.227, 30824.619
1275.709, 30847.131
1276.191, 30836.881
1276.673, 30819.000
1277.156, 30794.631
1277.638, 30760.109
1278.120, 30712.990
1278.602, 30685.939
1279.084, 30690.770
1279.566, 30713.721
1280.048, 30759.760
1280.530, 30806.029
1281.013, 30805.900
1281.495, 30780.381
1281.977, 30761.980
1282.459, 30754.961
1282.941, 30762.539
1283.423, 30785.641
1283.905, 30817.510
1284.387, 30861.619
1284.870, 30898.279
1285.352, 30886.641
1285.834, 30861.189
1286.316, 30873.250
1286.798, 30927.930
1287.280, 30915.570
1287.762, 30821.740
1288.244, 30783.260
1288.726, 30851.189
1289.208, 30935.480
1289.691, 30962.600
1290.173, 30957.020
1290.655, 30926.699
1291.137, 30882.900
1291.619, 30873.850
1292.101, 30893.221
1292.583, 30906.221
1293.065, 30902.600
1293.548, 30906.170
##END=



