##NAMES=Ramdohrite
##RRUFFID=R100190
##IDEAL CHEMISTRY=Pb_5.9_Fe_0.1_Mn_0.1_In_0.1_Cd_0.2_Ag_2.8_Sb_10.8_S_24_
##LOCALITY=Potosi, Bolivia
##OWNER=RRUFF
##SOURCE=William W Pinch
##DESCRIPTION=Type sample. Unconsolidated steel-gray fragments associated with elongated zinkenite. This sample is primarily andorite VI mixed with andorite IV, as pointed out by Donnay and Donnay (1954).
##STATUS=The identification of this mineral has been confirmed only by single crystal X-ray diffraction.
##URL=rruff.info/R100190
175.4057, 146.9053
175.8878, 147.8750
176.3699, 149.2891
176.8520, 150.3736
177.3341, 151.1597
177.8163, 151.7141
178.2984, 151.8839
178.7805, 151.8960
179.2626, 152.0992
179.7447, 152.5027
180.2268, 152.9754
180.7090, 153.6444
181.1911, 154.3361
181.6732, 154.4842
182.1553, 153.1294
182.6374, 151.1467
183.1195, 150.7170
183.6017, 152.1063
184.0838, 153.7506
184.5659, 153.5821
185.0480, 151.9460
185.5301, 150.5778
186.0123, 150.5847
186.4944, 151.5329
186.9765, 151.9860
187.4586, 151.7903
187.9407, 151.4952
188.4228, 152.0624
188.9050, 153.3916
189.3871, 154.4593
189.8692, 154.5904
190.3513, 153.9612
190.8334, 153.3628
191.3155, 152.7562
191.7977, 152.3903
192.2798, 153.0115
192.7619, 154.6190
193.2440, 155.7306
193.7261, 155.0910
194.2082, 152.9257
194.6904, 151.9844
195.1725, 152.6681
195.6546, 154.1049
196.1367, 154.6504
196.6188, 154.2567
197.1009, 153.7110
197.5831, 153.3894
198.0652, 153.2871
198.5473, 153.2915
199.0294, 153.4023
199.5115, 153.6028
199.9937, 153.9482
200.4758, 154.4878
200.9579, 154.8332
201.4400, 154.5336
201.9221, 153.4894
202.4042, 153.3329
202.8864, 154.5604
203.3685, 156.3143
203.8506, 156.2600
204.3327, 153.9113
204.8148, 151.7314
205.2969, 151.2452
205.7791, 152.7273
206.2612, 153.9032
206.7433, 154.6538
207.2254, 155.0200
207.7075, 154.9993
208.1896, 154.4296
208.6718, 153.9460
209.1539, 153.9335
209.6360, 154.4899
210.1181, 155.0129
210.6002, 155.4453
211.0823, 155.8418
211.5645, 156.3878
212.0466, 157.1741
212.5287, 157.9099
213.0108, 158.4083
213.4929, 158.5925
213.9750, 158.8649
214.4572, 159.2659
214.9393, 159.7616
215.4214, 160.2302
215.9035, 160.5775
216.3856, 161.0929
216.8678, 161.9432
217.3499, 163.2235
217.8320, 164.5621
218.3141, 165.9902
218.7962, 167.4370
219.2783, 168.6933
219.7605, 169.7906
220.2426, 170.6102
220.7247, 171.0226
221.2068, 170.8468
221.6889, 170.7522
222.1710, 170.6880
222.6532, 170.7423
223.1353, 171.1810
223.6174, 172.0223
224.0995, 173.2307
224.5816, 174.9178
225.0637, 177.5785
225.5459, 179.4650
226.0280, 180.2398
226.5101, 180.2777
226.9922, 180.6897
227.4743, 181.6153
227.9564, 182.6984
228.4386, 183.7686
228.9207, 184.7043
229.4028, 185.8971
229.8849, 187.5456
230.3670, 189.4069
230.8492, 190.8220
231.3313, 191.5486
231.8134, 192.1744
232.2955, 192.9411
232.7776, 193.7593
233.2597, 194.9380
233.7419, 196.7016
234.2240, 198.7737
234.7061, 200.3547
235.1882, 201.1930
235.6703, 201.9302
236.1524, 202.8619
236.6346, 204.1378
237.1167, 205.2916
237.5988, 206.4765
238.0809, 207.4947
238.5630, 207.7586
239.0451, 206.4762
239.5273, 205.6252
240.0094, 206.1215
240.4915, 208.6503
240.9736, 210.7682
241.4557, 212.5546
241.9378, 213.9058
242.4200, 214.5473
242.9021, 214.1189
243.3842, 213.5403
243.8663, 213.1054
244.3484, 212.7535
244.8306, 212.7447
245.3127, 213.2221
245.7948, 213.9659
246.2769, 214.6006
246.7590, 215.1915
247.2411, 215.5523
247.7233, 215.5460
248.2054, 214.9992
248.6875, 214.7328
249.1696, 214.7589
249.6517, 215.0605
250.1338, 215.7250
250.6160, 217.2551
251.0981, 218.2305
251.5802, 217.9458
252.0623, 215.9467
252.5444, 215.1247
253.0265, 216.1125
253.5087, 217.7659
253.9908, 218.3708
254.4729, 217.3531
254.9550, 216.4629
255.4371, 216.1827
255.9192, 216.5650
256.4014, 217.2126
256.8835, 218.4365
257.3656, 219.6166
257.8477, 219.9046
258.3298, 218.7636
258.8120, 217.9549
259.2941, 218.1017
259.7762, 219.3037
260.2583, 219.6077
260.7404, 218.4291
261.2225, 217.0742
261.7047, 217.0286
262.1868, 218.8190
262.6689, 220.5545
263.1510, 221.9380
263.6331, 222.9536
264.1152, 223.3515
264.5974, 222.7840
265.0795, 222.1312
265.5616, 222.4151
266.0437, 224.1161
266.5258, 225.1589
267.0079, 224.9995
267.4901, 223.7941
267.9722, 222.8416
268.4543, 222.0237
268.9364, 221.6870
269.4185, 222.3935
269.9006, 224.5768
270.3828, 225.8918
270.8649, 225.8117
271.3470, 224.6142
271.8291, 223.5590
272.3112, 222.6049
272.7933, 221.8554
273.2755, 221.4116
273.7576, 221.2930
274.2397, 221.3258
274.7218, 221.5956
275.2039, 221.9378
275.6860, 221.9060
276.1682, 221.5239
276.6503, 220.6791
277.1324, 219.0126
277.6145, 216.4272
278.0966, 214.6674
278.5787, 214.1284
279.0609, 214.1947
279.5430, 213.3166
280.0251, 211.3066
280.5072, 209.5775
280.9893, 209.3113
281.4715, 210.5002
281.9536, 210.2522
282.4357, 207.9956
282.9178, 205.1397
283.3999, 204.3604
283.8820, 205.7735
284.3642, 207.1011
284.8463, 207.0135
285.3284, 205.6739
285.8105, 205.2050
286.2926, 205.8190
286.7747, 206.6283
287.2569, 206.2537
287.7390, 204.7404
288.2211, 203.3625
288.7032, 202.8156
289.1853, 202.8534
289.6674, 202.2593
290.1496, 200.9473
290.6317, 199.5648
291.1138, 199.0186
291.5959, 199.1626
292.0780, 198.9822
292.5602, 198.0570
293.0423, 196.6185
293.5244, 195.2284
294.0065, 193.8984
294.4886, 192.5291
294.9707, 190.9144
295.4529, 189.1442
295.9350, 187.5875
296.4171, 186.3823
296.8992, 185.3780
297.3813, 184.2653
297.8634, 183.0720
298.3456, 182.0644
298.8277, 181.4383
299.3098, 181.1555
299.7919, 181.2102
300.2740, 181.7545
300.7561, 182.3622
301.2383, 182.3818
301.7204, 181.9258
302.2025, 181.5011
302.6846, 181.1177
303.1667, 181.0527
303.6488, 181.9391
304.1310, 184.1725
304.6131, 186.4007
305.0952, 187.0362
305.5773, 186.5347
306.0594, 186.1300
306.5415, 186.3388
307.0237, 187.0379
307.5058, 188.1478
307.9879, 189.6780
308.4700, 191.4609
308.9521, 193.5831
309.4343, 195.8544
309.9164, 197.9869
310.3985, 199.8678
310.8806, 201.5742
311.3627, 203.0459
311.8448, 204.2897
312.3270, 205.7297
312.8091, 207.6817
313.2912, 209.9559
313.7733, 212.3285
314.2554, 215.1183
314.7375, 217.6437
315.2197, 219.1281
315.7018, 219.7702
316.1839, 221.1175
316.6660, 224.8301
317.1481, 229.0595
317.6302, 232.2359
318.1124, 233.3003
318.5945, 234.1458
319.0766, 235.5080
319.5587, 237.1891
320.0408, 238.5243
320.5229, 239.1974
321.0051, 239.5431
321.4872, 239.7427
321.9693, 239.8344
322.4514, 239.7566
322.9335, 239.8516
323.4156, 239.7436
323.8978, 238.7075
324.3799, 235.5956
324.8620, 232.4268
325.3441, 229.9756
325.8262, 228.6236
326.3083, 227.0319
326.7905, 225.0801
327.2726, 222.8337
327.7547, 220.4015
328.2368, 217.3661
328.7189, 214.5635
329.2010, 212.1227
329.6832, 210.0680
330.1653, 208.3409
330.6474, 207.1819
331.1295, 206.1797
331.6116, 204.9326
332.0938, 202.7878
332.5759, 201.4952
333.0580, 201.9125
333.5401, 203.6296
334.0222, 203.4136
334.5043, 200.1100
334.9865, 196.4644
335.4686, 194.1525
335.9507, 193.7439
336.4328, 193.1049
336.9149, 192.0369
337.3970, 190.6967
337.8792, 189.6145
338.3613, 188.9545
338.8434, 188.0533
339.3255, 186.6789
339.8076, 184.8494
340.2898, 182.3187
340.7719, 178.9888
341.2540, 175.0998
341.7361, 170.7940
342.2182, 166.1024
342.7003, 161.4105
343.1825, 156.9013
343.6646, 152.5211
344.1467, 148.1193
344.6288, 143.5943
345.1109, 139.3650
345.5930, 135.9478
346.0752, 133.2991
346.5573, 130.5250
347.0394, 127.3037
347.5215, 123.8944
348.0036, 120.7405
348.4857, 117.8556
348.9679, 115.2302
349.4500, 112.9316
349.9321, 110.8677
350.4142, 108.7933
350.8963, 106.6683
351.3784, 104.5026
351.8606, 102.1828
352.3427, 99.82169
352.8248, 97.78686
353.3069, 96.55912
353.7890, 95.70377
354.2711, 94.57382
354.7533, 93.09542
355.2354, 91.61776
355.7175, 90.44421
356.1996, 89.48988
356.6817, 88.60647
357.1638, 87.65394
357.6460, 86.80618
358.1281, 86.28018
358.6102, 86.04810
359.0923, 85.72523
359.5744, 85.09853
360.0565, 84.27678
360.5387, 83.33861
361.0208, 81.95731
361.5029, 80.89693
361.9850, 80.79139
362.4671, 81.33540
362.9492, 81.59237
363.4314, 81.19667
363.9135, 80.45683
364.3956, 79.43609
364.8777, 77.82446
365.3598, 76.69952
365.8419, 76.53445
366.3241, 76.93461
366.8062, 77.31288
367.2883, 77.75905
367.7704, 78.01006
368.2526, 77.93413
368.7347, 77.45818
369.2168, 77.06664
369.6989, 76.91668
370.1810, 76.76051
370.6631, 76.39231
371.1453, 75.73586
371.6274, 74.96304
372.1095, 73.93575
372.5916, 72.74725
373.0737, 72.09079
373.5558, 72.27193
374.0380, 72.52218
374.5201, 72.35549
375.0022, 71.54067
375.4843, 71.11564
375.9664, 71.25841
376.4485, 71.67989
376.9307, 71.81032
377.4128, 71.60617
377.8949, 71.28732
378.3770, 70.89697
378.8591, 70.44454
379.3412, 70.07488
379.8234, 69.77522
380.3055, 69.61362
380.7876, 69.76525
381.2697, 70.20779
381.7518, 70.51136
382.2339, 70.53171
382.7161, 70.36734
383.1982, 70.32909
383.6803, 70.40560
384.1624, 70.23830
384.6445, 69.17598
385.1266, 67.67637
385.6088, 66.96214
386.0909, 67.35445
386.5730, 68.12836
387.0551, 68.62092
387.5372, 68.83425
388.0193, 68.77710
388.5015, 67.95998
388.9836, 67.13579
389.4657, 67.38700
389.9478, 68.81007
390.4299, 69.95318
390.9120, 69.64646
391.3942, 68.54165
391.8763, 67.43851
392.3584, 66.32168
392.8405, 65.55260
393.3226, 65.47572
393.8047, 65.96551
394.2869, 66.44740
394.7690, 66.88454
395.2511, 67.11752
395.7332, 67.00359
396.2154, 66.30481
396.6975, 65.71500
397.1796, 65.35423
397.6617, 65.19346
398.1438, 65.18137
398.6259, 65.51606
399.1081, 65.79690
399.5902, 65.93675
400.0723, 65.94033
400.5544, 65.75231
401.0365, 65.12782
401.5186, 64.49094
402.0008, 64.20102
402.4829, 64.40578
402.9650, 64.69557
403.4471, 65.17706
403.9292, 65.70896
404.4113, 65.58967
404.8935, 64.49458
405.3756, 63.49379
405.8577, 63.27822
406.3398, 64.01814
406.8219, 64.21020
407.3040, 63.66607
407.7862, 62.90532
408.2683, 62.76167
408.7504, 63.25842
409.2325, 63.61803
409.7146, 63.53715
410.1967, 63.13044
410.6789, 62.66080
411.1610, 62.11680
411.6431, 61.81372
412.1252, 62.28960
412.6073, 63.24356
413.0894, 63.77818
413.5716, 63.61696
414.0537, 63.18462
414.5358, 62.97456
415.0179, 62.92281
415.5000, 62.81408
415.9821, 62.46836
416.4643, 62.04026
416.9464, 61.67396
417.4285, 61.38113
417.9106, 61.15572
418.3927, 60.87892
418.8748, 60.70355
419.3570, 60.81544
419.8391, 61.69810
420.3212, 62.47249
420.8033, 62.84903
421.2854, 62.83057
421.7675, 62.45428
422.2497, 61.15786
422.7318, 59.93592
423.2139, 59.39753
423.6960, 60.05442
424.1781, 60.42173
424.6602, 60.01789
425.1424, 59.32236
425.6245, 59.05627
426.1066, 59.83234
426.5887, 60.25460
427.0709, 59.78027
427.5530, 58.41012
428.0351, 57.94806
428.5172, 58.89520
428.9993, 60.05753
429.4814, 60.53733
429.9636, 60.12438
430.4457, 59.86651
430.9278, 59.94773
431.4099, 60.13114
431.8920, 59.79325
432.3741, 58.84450
432.8563, 58.04568
433.3384, 57.72889
433.8205, 57.86037
434.3026, 58.37431
434.7847, 59.34456
435.2668, 60.13359
435.7490, 59.84159
436.2311, 58.77179
436.7132, 58.02325
437.1953, 57.95742
437.6774, 58.23985
438.1595, 58.51635
438.6417, 58.77395
439.1238, 58.95856
439.6059, 59.04585
440.0880, 59.03992
440.5701, 58.95414
441.0522, 58.79497
441.5344, 58.51472
442.0165, 57.94395
442.4986, 57.28057
442.9807, 56.77009
443.4628, 56.41259
443.9449, 56.30190
444.4271, 56.62910
444.9092, 57.30288
445.3913, 57.81399
445.8734, 58.02712
446.3555, 58.04326
446.8376, 57.85601
447.3198, 57.14629
447.8019, 56.87975
448.2840, 57.37745
448.7661, 58.19823
449.2482, 58.75758
449.7303, 59.10502
450.2125, 59.06084
450.6946, 58.30982
451.1767, 56.96005
451.6588, 56.80381
452.1409, 58.32746
452.6230, 59.91314
453.1052, 60.31806
453.5873, 59.45211
454.0694, 58.62258
454.5515, 57.90766
455.0337, 57.31703
455.5158, 56.86869
455.9979, 56.56088
456.4800, 56.43978
456.9621, 56.77176
457.4442, 57.23010
457.9264, 56.82149
458.4085, 55.58562
458.8906, 54.53410
459.3727, 54.59863
459.8548, 55.37079
460.3369, 56.30822
460.8191, 57.53072
461.3012, 58.35186
461.7833, 57.83126
462.2654, 56.51577
462.7475, 55.54467
463.2296, 55.68249
463.7118, 56.06814
464.1939, 56.25182
464.6760, 56.20438
465.1581, 56.11229
465.6402, 55.80014
466.1223, 55.60397
466.6045, 55.76690
467.0866, 57.10268
467.5687, 57.82504
468.0508, 57.43964
468.5329, 56.41982
469.0150, 55.82035
469.4972, 55.92571
469.9793, 56.03392
470.4614, 55.95559
470.9435, 55.68908
471.4256, 55.21676
471.9077, 54.39363
472.3899, 53.65570
472.8720, 53.49339
473.3541, 53.97128
473.8362, 54.18304
474.3183, 53.88453
474.8004, 53.44957
475.2826, 53.66012
475.7647, 54.48080
476.2468, 55.41265
476.7289, 56.59509
477.2110, 57.63407
477.6931, 57.27671
478.1753, 55.52315
478.6574, 53.96259
479.1395, 54.42507
479.6216, 55.77192
480.1037, 56.23356
480.5858, 54.89069
481.0680, 53.44109
481.5501, 53.06538
482.0322, 53.43465
482.5143, 53.87132
482.9964, 54.31007
483.4786, 54.58448
483.9607, 54.50978
484.4428, 54.04227
484.9249, 53.78299
485.4070, 53.95203
485.8892, 54.30567
486.3713, 54.68300
486.8534, 55.21930
487.3355, 55.57571
487.8176, 55.82374
488.2997, 55.85997
488.7819, 55.35326
489.2640, 53.88963
489.7461, 52.82927
490.2282, 52.72897
490.7103, 53.52138
491.1924, 54.11267
491.6746, 54.52520
492.1567, 54.66069
492.6388, 54.25937
493.1209, 53.40022
493.6030, 52.84863
494.0851, 52.73881
494.5673, 52.85272
495.0494, 52.93041
495.5315, 52.97677
496.0136, 53.00703
496.4957, 53.03194
496.9778, 53.04311
497.4600, 52.94353
497.9421, 52.76508
498.4242, 52.79877
498.9063, 53.69843
499.3884, 54.61485
499.8705, 54.70457
500.3527, 53.37487
500.8348, 52.28207
501.3169, 52.24947
501.7990, 52.75389
502.2811, 53.06042
502.7632, 52.66803
503.2454, 52.46560
503.7275, 52.85369
504.2096, 53.73851
504.6917, 54.05931
505.1738, 53.48619
505.6559, 52.79620
506.1381, 52.33604
506.6202, 52.05371
507.1023, 52.33471
507.5844, 53.44801
508.0665, 54.64191
508.5486, 54.76243
509.0308, 53.78197
509.5129, 52.86832
509.9950, 52.30486
510.4771, 52.00557
510.9592, 51.81399
511.4413, 51.72662
511.9235, 51.70535
512.4056, 51.89088
512.8877, 52.06441
513.3698, 51.73121
513.8519, 50.80584
514.3340, 50.14589
514.8162, 50.75556
515.2983, 51.85277
515.7804, 52.48372
516.2625, 51.93880
516.7446, 51.42365
517.2267, 51.53896
517.7089, 52.04810
518.1910, 52.36892
518.6731, 52.23757
519.1552, 52.03113
519.6373, 51.86148
520.1194, 51.72929
520.6016, 51.63650
521.0837, 51.60191
521.5658, 51.58596
522.0479, 51.60113
522.5300, 51.73124
523.0121, 51.49162
523.4943, 50.60354
523.9764, 49.66223
524.4585, 50.02060
524.9406, 51.71080
525.4227, 52.94001
525.9048, 52.92284
526.3870, 52.06983
526.8691, 51.26114
527.3513, 50.50480
527.8334, 49.96031
528.3155, 49.76368
528.7976, 49.83578
529.2797, 50.09544
529.7618, 50.55592
530.2440, 51.05852
530.7261, 51.69765
531.2082, 52.24483
531.6903, 52.39671
532.1724, 51.58456
532.6545, 50.86323
533.1367, 50.51069
533.6188, 50.50608
534.1009, 50.75299
534.5830, 51.91835
535.0651, 52.66566
535.5472, 52.37951
536.0294, 50.83277
536.5115, 49.90420
536.9936, 49.84085
537.4757, 50.05043
537.9578, 50.02374
538.4399, 49.69765
538.9221, 49.53701
539.4042, 49.59938
539.8863, 49.82562
540.3684, 50.20111
540.8505, 50.70216
541.3326, 51.04751
541.8148, 51.14095
542.2969, 50.99818
542.7790, 50.46930
543.2611, 49.62437
543.7432, 49.00007
544.2253, 49.18314
544.7075, 49.65267
545.1896, 49.82359
545.6717, 49.54692
546.1538, 49.36986
546.6359, 49.74247
547.1180, 50.27852
547.6002, 50.56269
548.0823, 50.33849
548.5644, 50.03955
549.0465, 49.63966
549.5286, 49.21441
550.0107, 48.99002
550.4929, 49.09394
550.9750, 49.20300
551.4571, 49.17803
551.9392, 49.01752
552.4213, 49.14875
552.9034, 49.70805
553.3856, 50.13639
553.8677, 49.77943
554.3498, 48.73405
554.8319, 48.24341
555.3140, 48.51502
555.7961, 49.04699
556.2783, 49.22029
556.7604, 49.12499
557.2425, 49.00502
557.7246, 48.90082
558.2067, 48.86359
558.6888, 49.08202
559.1710, 49.44277
559.6531, 49.55400
560.1352, 48.77885
560.6173, 48.04935
561.0994, 48.10344
561.5815, 49.14099
562.0637, 49.67997
562.5458, 48.89898
563.0279, 47.86109
563.5100, 47.34527
563.9921, 47.73053
564.4742, 47.96955
564.9564, 47.96623
565.4385, 47.86227
565.9206, 47.95987
566.4027, 48.34848
566.8848, 48.45049
567.3669, 47.95895
567.8491, 47.13638
568.3312, 46.92326
568.8133, 47.29693
569.2954, 47.65446
569.7775, 47.45086
570.2596, 47.01091
570.7418, 47.02016
571.2239, 47.53413
571.7060, 47.98114
572.1881, 47.66404
572.6702, 47.15990
573.1523, 47.17931
573.6345, 48.38807
574.1166, 49.24816
574.5987, 48.80418
575.0808, 47.71406
575.5629, 47.06251
576.0450, 47.72694
576.5272, 48.05805
577.0093, 47.57123
577.4914, 46.42947
577.9735, 45.68931
578.4556, 45.43422
578.9377, 45.42413
579.4199, 45.64671
579.9020, 46.10866
580.3841, 46.22892
580.8662, 45.96566
581.3483, 45.59075
581.8304, 45.22942
582.3126, 44.96355
582.7947, 45.16945
583.2768, 46.05954
583.7589, 46.99919
584.2410, 47.27528
584.7231, 47.10689
585.2053, 46.92776
585.6874, 47.17876
586.1696, 47.22686
586.6517, 46.38733
587.1338, 44.94164
587.6159, 44.14347
588.0980, 44.97517
588.5801, 45.93627
589.0623, 46.37293
589.5444, 46.19699
590.0265, 46.04909
590.5086, 45.94244
590.9907, 45.84764
591.4728, 45.68964
591.9550, 45.41452
592.4371, 45.52468
592.9192, 46.20384
593.4013, 46.92834
593.8834, 46.88580
594.3655, 46.16590
594.8477, 45.29096
595.3298, 44.29713
595.8119, 43.41251
596.2940, 42.90470
596.7761, 42.76673
597.2582, 42.95842
597.7404, 43.74778
598.2225, 44.63673
598.7046, 45.35134
599.1867, 45.86554
599.6688, 46.09813
600.1509, 45.78067
600.6331, 45.35331
601.1152, 45.10542
601.5973, 45.18698
602.0794, 45.09512
602.5615, 44.68065
603.0436, 44.23654
603.5258, 44.21602
604.0079, 44.79301
604.4900, 44.78057
604.9721, 43.78010
605.4542, 42.40752
605.9363, 41.94698
606.4185, 42.32164
606.9006, 42.82070
607.3827, 43.21640
607.8648, 43.48607
608.3469, 43.58333
608.8290, 43.51398
609.3112, 43.30450
609.7933, 42.60993
610.2754, 42.03273
610.7575, 42.16344
611.2396, 43.17843
611.7217, 43.96209
612.2039, 44.27057
612.6860, 44.18081
613.1681, 43.70564
613.6502, 42.22913
614.1323, 41.50063
614.6144, 41.90889
615.0966, 42.75008
615.5787, 42.95379
616.0608, 42.39555
616.5429, 42.00334
617.0250, 42.05561
617.5071, 42.32891
617.9893, 42.22403
618.4714, 41.80738
618.9535, 41.59428
619.4356, 42.09061
619.9177, 42.81102
620.3998, 43.18798
620.8820, 43.22227
621.3641, 43.00780
621.8462, 42.31476
622.3283, 41.58293
622.8104, 41.13625
623.2925, 41.04735
623.7747, 41.09495
624.2568, 41.26026
624.7389, 41.53593
625.2210, 41.94891
625.7031, 42.71490
626.1852, 43.11482
626.6674, 42.98728
627.1495, 42.61535
627.6316, 42.51106
628.1137, 42.69238
628.5958, 42.68260
629.0779, 42.26937
629.5601, 41.67327
630.0422, 41.26730
630.5243, 41.05183
631.0064, 41.00989
631.4885, 41.43425
631.9706, 41.82421
632.4528, 41.52111
632.9349, 40.59337
633.4170, 39.95376
633.8991, 40.26361
634.3812, 40.78846
634.8633, 41.08074
635.3455, 40.99207
635.8276, 40.99242
636.3097, 41.12084
636.7918, 41.31711
637.2739, 41.58906
637.7560, 42.03837
638.2382, 42.07608
638.7203, 41.51216
639.2024, 40.79465
639.6845, 40.70895
640.1666, 41.16322
640.6487, 41.39454
641.1309, 41.07426
641.6130, 40.55979
642.0951, 40.28344
642.5772, 40.21572
643.0594, 40.28811
643.5415, 40.51841
644.0236, 40.83210
644.5057, 41.26479
644.9879, 41.78788
645.4700, 42.14466
645.9521, 42.40969
646.4342, 42.36356
646.9163, 41.80107
647.3984, 40.56441
647.8806, 39.89821
648.3627, 39.99332
648.8448, 40.29150
649.3269, 40.41597
649.8090, 40.36495
650.2911, 39.94563
650.7733, 39.03628
651.2554, 38.21804
651.7375, 38.33632
652.2196, 39.07488
652.7017, 39.65136
653.1838, 39.79156
653.6660, 39.81865
654.1481, 39.95974
654.6302, 40.16320
655.1123, 40.34033
655.5944, 40.47429
656.0765, 40.56057
656.5587, 40.64667
657.0408, 40.69378
657.5229, 40.48458
658.0050, 39.65778
658.4871, 39.21692
658.9692, 39.69276
659.4514, 40.95874
659.9335, 41.51803
660.4156, 41.29299
660.8977, 40.99120
661.3798, 41.27351
661.8619, 41.85456
662.3441, 41.94460
662.8262, 41.49163
663.3083, 40.82954
663.7904, 39.93550
664.2725, 39.11561
664.7546, 38.76599
665.2368, 39.16069
665.7189, 39.49184
666.2010, 39.34469
666.6831, 39.05946
667.1652, 39.04254
667.6473, 39.63870
668.1295, 39.94553
668.6116, 39.80251
669.0937, 39.41252
669.5758, 39.14613
670.0579, 39.00298
670.5400, 38.98157
671.0222, 39.12860
671.5043, 39.34551
671.9864, 39.40466
672.4685, 39.33770
672.9506, 39.30359
673.4327, 39.48753
673.9149, 39.67233
674.3970, 39.59852
674.8791, 39.30677
675.3612, 39.12026
675.8433, 39.27600
676.3254, 39.47678
676.8076, 39.55891
677.2897, 39.48771
677.7718, 39.48159
678.2539, 39.64815
678.7360, 39.73222
679.2181, 39.52374
679.7003, 38.99002
680.1824, 38.52427
680.6645, 38.13766
681.1466, 37.82877
681.6287, 37.45888
682.1108, 37.16323
682.5930, 37.44965
683.0751, 38.61412
683.5572, 39.69430
684.0393, 39.70833
684.5214, 39.17721
685.0035, 38.84917
685.4857, 39.61394
685.9678, 39.85538
686.4499, 38.56820
686.9320, 36.56060
687.4141, 35.64308
687.8962, 36.49274
688.3784, 37.15926
688.8605, 37.12890
689.3426, 36.65034
689.8247, 36.57152
690.3068, 36.90160
690.7889, 37.39001
691.2711, 38.11409
691.7532, 38.82492
692.2353, 38.92255
692.7174, 38.48032
693.1995, 37.96461
693.6816, 37.55080
694.1638, 37.25227
694.6459, 37.11329
695.1280, 37.14143
695.6101, 37.18153
696.0922, 37.13869
696.5743, 37.15052
697.0565, 37.35071
697.5386, 37.88841
698.0207, 37.91020
698.5028, 37.17692
698.9849, 36.43575
699.4670, 36.60083
699.9492, 37.54154
700.4313, 37.77730
700.9135, 37.04173
701.3956, 36.13939
701.8777, 36.00195
702.3598, 36.28270
702.8419, 36.35384
703.3240, 35.84788
703.8062, 35.50179
704.2883, 35.98286
704.7704, 36.77894
705.2525, 37.13423
705.7346, 36.36688
706.2167, 35.87449
706.6989, 35.89790
707.1810, 36.22753
707.6631, 36.40371
708.1452, 36.40434
708.6273, 36.36218
709.1094, 36.28565
709.5916, 36.22270
710.0737, 36.34510
710.5558, 36.60684
711.0379, 36.77409
711.5200, 36.65651
712.0021, 36.43648
712.4843, 36.20936
712.9664, 36.00091
713.4485, 35.92876
713.9306, 36.21338
714.4127, 36.48378
714.8948, 36.54880
715.3770, 36.40562
715.8591, 36.27124
716.3412, 36.11045
716.8233, 36.02828
717.3054, 36.13295
717.7875, 36.41341
718.2697, 36.54401
718.7518, 36.51897
719.2339, 36.44128
719.7160, 36.38503
720.1981, 36.34052
720.6802, 36.27517
721.1624, 36.17926
721.6445, 36.14090
722.1266, 36.20500
722.6087, 36.35459
723.0908, 36.61185
723.5729, 37.22298
724.0551, 37.40120
724.5372, 36.80840
725.0193, 36.05837
725.5014, 35.78876
725.9835, 36.07166
726.4656, 36.42052
726.9478, 36.82055
727.4299, 37.18969
727.9120, 37.47707
728.3941, 37.64433
728.8762, 37.52241
729.3583, 36.96382
729.8405, 36.32305
730.3226, 35.77145
730.8047, 35.36174
731.2868, 35.19712
731.7689, 35.51181
732.2510, 35.83220
732.7332, 36.12179
733.2153, 36.33374
733.6974, 36.34542
734.1795, 36.07481
734.6616, 35.82652
735.1437, 35.67982
735.6259, 35.60175
736.1080, 35.48887
736.5901, 35.35289
737.0722, 35.29846
737.5543, 35.41107
738.0364, 35.60389
738.5186, 35.86916
739.0007, 36.14588
739.4828, 36.22620
739.9649, 35.77982
740.4470, 35.34715
740.9291, 35.20279
741.4113, 35.33509
741.8934, 35.39440
742.3755, 35.41106
742.8576, 35.28378
743.3397, 34.82939
743.8218, 34.14989
744.3040, 34.23179
744.7861, 35.09381
745.2682, 35.94264
745.7503, 36.12449
746.2324, 35.99485
746.7145, 36.22807
747.1967, 36.80810
747.6788, 37.09655
748.1609, 36.42195
748.6430, 35.58029
749.1251, 35.07998
749.6072, 35.02526
750.0894, 35.04673
750.5715, 35.15477
751.0536, 35.29806
751.5357, 35.46156
752.0178, 35.65463
752.4999, 35.79445
752.9821, 35.89569
753.4642, 35.85524
753.9463, 35.36478
754.4284, 34.71135
754.9105, 34.53871
755.3926, 34.96795
755.8748, 35.44641
756.3569, 35.78172
756.8390, 35.90934
757.3211, 35.70632
757.8032, 34.77140
758.2853, 34.40449
758.7675, 35.00990
759.2496, 35.85240
759.7318, 36.27289
760.2139, 36.21661
760.6960, 36.12256
761.1781, 36.01847
761.6602, 35.90645
762.1423, 35.84600
762.6245, 35.77547
763.1066, 35.47692
763.5887, 34.78635
764.0708, 34.26958
764.5529, 34.55081
765.0350, 35.14020
765.5172, 35.45687
765.9993, 35.13289
766.4814, 34.84418
766.9635, 34.60048
767.4456, 34.43326
767.9277, 34.40398
768.4099, 34.53504
768.8920, 34.64280
769.3741, 34.68193
769.8562, 34.72853
770.3383, 34.95771
770.8204, 35.28752
771.3026, 35.49696
771.7847, 35.50938
772.2668, 35.39968
772.7489, 35.11819
773.2310, 34.77407
773.7131, 34.54204
774.1953, 34.52846
774.6774, 34.54252
775.1595, 34.56365
775.6416, 34.60049
776.1237, 34.75306
776.6058, 35.08702
777.0880, 34.93352
777.5701, 33.90038
778.0522, 32.73749
778.5343, 32.86683
779.0164, 33.93228
779.4985, 34.92043
779.9807, 35.57960
780.4628, 35.82894
780.9449, 35.25277
781.4270, 34.26800
781.9091, 33.73100
782.3912, 34.24322
782.8734, 34.68123
783.3555, 34.83886
783.8376, 34.85561
784.3197, 35.13027
784.8018, 35.70124
785.2839, 36.10008
785.7661, 36.17578
786.2482, 36.01240
786.7303, 35.71492
787.2124, 35.29139
787.6945, 34.75708
788.1766, 33.83284
788.6588, 33.08842
789.1409, 32.85600
789.6230, 33.02091
790.1051, 33.26453
790.5872, 33.76643
791.0693, 33.97854
791.5515, 33.61760
792.0336, 32.98698
792.5157, 33.04374
792.9978, 33.79129
793.4799, 34.56557
793.9620, 35.24894
794.4442, 35.68433
794.9263, 35.46371
795.4084, 34.79700
795.8905, 34.26853
796.3726, 34.28621
796.8547, 34.34393
797.3369, 34.24929
797.8190, 34.02280
798.3011, 33.74862
798.7832, 33.33065
799.2653, 33.05810
799.7474, 33.01709
800.2296, 33.15417
800.7117, 33.33086
801.1938, 33.54846
801.6759, 33.83496
802.1580, 34.33699
802.6401, 34.76861
803.1223, 34.61552
803.6044, 34.11732
804.0865, 33.90008
804.5686, 34.62877
805.0507, 35.19610
805.5328, 35.12972
806.0150, 34.65115
806.4971, 34.29700
806.9792, 34.04850
807.4613, 34.02164
807.9434, 34.37706
808.4255, 34.83207
808.9077, 34.62333
809.3898, 33.89587
809.8719, 33.30362
810.3540, 33.20199
810.8361, 33.27529
811.3182, 33.16711
811.8004, 33.04780
812.2825, 33.31734
812.7646, 34.81742
813.2467, 35.79389
813.7288, 35.78334
814.2109, 35.10806
814.6931, 34.47780
815.1752, 33.84987
815.6573, 33.67127
816.1394, 34.22919
816.6215, 35.03864
817.1037, 35.30849
817.5858, 35.16732
818.0679, 34.96009
818.5500, 34.81236
819.0322, 34.65448
819.5143, 34.47323
819.9964, 34.25698
820.4785, 33.96204
820.9606, 33.39902
821.4427, 33.12307
821.9249, 33.27957
822.4070, 33.70241
822.8891, 34.15202
823.3712, 34.60393
823.8533, 34.77766
824.3354, 34.55892
824.8176, 34.11012
825.2997, 33.37221
825.7818, 32.58655
826.2639, 32.18153
826.7460, 32.48079
827.2281, 32.95037
827.7103, 33.72544
828.1924, 34.49070
828.6745, 34.81004
829.1566, 34.59421
829.6387, 34.22175
830.1208, 33.65213
830.6030, 33.17111
831.0851, 33.32764
831.5672, 33.93601
832.0493, 34.56368
832.5314, 35.25107
833.0135, 35.49902
833.4957, 34.38629
833.9778, 32.88824
834.4599, 32.13554
834.9420, 33.43589
835.4241, 33.89055
835.9063, 33.02486
836.3884, 31.87659
836.8705, 31.86227
837.3526, 32.93648
837.8347, 33.28208
838.3168, 32.55006
838.7990, 31.79025
839.2811, 32.27305
839.7632, 33.34413
840.2453, 34.11479
840.7274, 34.37854
841.2095, 34.46011
841.6917, 34.30828
842.1738, 34.13009
842.6559, 34.11483
843.1380, 34.38049
843.6201, 34.31776
844.1022, 33.81449
844.5844, 33.36924
845.0665, 33.69954
845.5486, 34.43394
846.0307, 34.38830
846.5128, 33.43913
846.9949, 32.64227
847.4771, 32.91320
847.9592, 33.46910
848.4413, 33.65769
848.9234, 33.28244
849.4055, 33.28801
849.8876, 33.99159
850.3698, 34.60305
850.8519, 34.59716
851.3340, 34.03013
851.8161, 33.56667
852.2982, 33.20695
852.7803, 33.00692
853.2625, 33.12502
853.7446, 33.34697
854.2267, 33.42376
854.7088, 33.36094
855.1909, 33.36411
855.6730, 33.44358
856.1552, 33.67960
856.6373, 34.27004
857.1194, 35.09943
857.6015, 35.07749
858.0836, 34.05971
858.5657, 33.28768
859.0479, 33.47665
859.5300, 34.19363
860.0121, 34.76043
860.4942, 35.15243
860.9763, 35.26967
861.4584, 34.83268
861.9406, 34.34063
862.4227, 33.91243
862.9048, 33.61613
863.3869, 33.67410
863.8690, 34.33332
864.3511, 34.71090
864.8333, 34.51470
865.3154, 34.03614
865.7975, 33.96283
866.2796, 34.17440
866.7617, 34.11234
867.2438, 33.35105
867.7260, 32.64486
868.2081, 32.61091
868.6902, 32.99122
869.1723, 33.37595
869.6544, 34.01419
870.1365, 34.11953
870.6187, 33.29332
871.1008, 32.32693
871.5829, 32.48561
872.0650, 33.69835
872.5471, 34.48413
873.0292, 34.58122
873.5114, 34.42308
873.9935, 34.31882
874.4756, 34.28746
874.9577, 34.40035
875.4399, 34.78772
875.9220, 34.94038
876.4041, 34.49490
876.8862, 33.96949
877.3683, 33.68967
877.8505, 33.68710
878.3326, 33.72364
878.8147, 33.80129
879.2968, 33.89865
879.7789, 34.13360
880.2610, 34.31697
880.7432, 33.99051
881.2253, 33.15801
881.7074, 32.58816
882.1895, 32.93132
882.6716, 33.37503
883.1537, 33.45454
883.6359, 33.18808
884.1180, 33.01882
884.6001, 32.96713
885.0822, 32.92414
885.5643, 32.83472
886.0464, 32.71996
886.5286, 32.50250
887.0107, 32.26989
887.4928, 32.38509
887.9749, 33.55734
888.4570, 34.59725
888.9391, 34.77166
889.4213, 34.31627
889.9034, 34.05126
890.3855, 34.08428
890.8676, 34.10828
891.3497, 34.06034
891.8318, 33.97524
892.3140, 33.99746
892.7961, 34.05455
893.2782, 33.78216
893.7603, 32.82449
894.2424, 32.10165
894.7245, 32.64293
895.2067, 33.66962
895.6888, 34.22977
896.1709, 33.76884
896.6530, 33.47173
897.1351, 33.39533
897.6172, 33.39758
898.0994, 33.31830
898.5815, 33.17765
899.0636, 33.18624
899.5457, 33.37894
900.0278, 33.43749
900.5099, 32.88025
900.9921, 32.21359
901.4742, 31.89972
901.9563, 32.02521
902.4384, 32.28283
902.9205, 32.67143
903.4026, 33.11954
903.8848, 33.65186
904.3669, 34.23072
904.8490, 34.59396
905.3311, 34.73850
905.8132, 34.65763
906.2953, 34.10167
906.7775, 33.50640
907.2596, 33.34984
907.7417, 33.52987
908.2238, 33.66764
908.7059, 33.46648
909.1880, 33.48565
909.6702, 34.04158
910.1523, 34.76136
910.6344, 34.53638
911.1165, 33.39681
911.5986, 32.89515
912.0807, 33.71797
912.5629, 34.67886
913.0450, 34.32949
913.5271, 33.26159
914.0092, 32.30746
914.4913, 31.42689
914.9734, 31.24096
915.4556, 32.51165
915.9377, 33.85683
916.4198, 33.77860
916.9019, 32.13847
917.3840, 31.71862
917.8661, 32.77245
918.3483, 33.99493
918.8304, 34.28817
919.3125, 34.02882
919.7946, 33.61004
920.2767, 33.07540
920.7589, 32.51358
921.2410, 31.70392
921.7231, 31.14092
922.2052, 31.01072
922.6873, 31.29451
923.1694, 32.05125
923.6516, 33.30325
924.1337, 34.00997
924.6158, 33.25882
925.0979, 32.01319
925.5800, 31.34834
926.0621, 31.21982
926.5443, 31.51154
927.0264, 32.58182
927.5085, 33.59018
927.9906, 34.52057
928.4727, 35.20829
928.9548, 35.25792
929.4370, 34.64265
929.9191, 34.16997
930.4012, 33.97712
930.8833, 33.98449
931.3654, 34.30260
931.8475, 34.68127
932.3297, 34.74955
932.8118, 34.34007
933.2939, 33.96543
933.7761, 33.66836
934.2582, 33.51878
934.7403, 33.61467
935.2224, 33.96534
935.7045, 34.21751
936.1866, 34.37920
936.6688, 34.26458
937.1509, 33.34293
937.6330, 32.35104
938.1151, 32.25464
938.5972, 32.90737
939.0793, 33.45132
939.5615, 33.71176
940.0436, 33.71934
940.5257, 33.42351
941.0078, 32.92378
941.4899, 32.43630
941.9720, 31.96710
942.4542, 31.65951
942.9363, 31.50860
943.4184, 31.64012
943.9005, 32.51707
944.3826, 33.63111
944.8647, 34.27242
945.3469, 33.92744
945.8290, 33.76024
946.3111, 34.08901
946.7932, 34.34021
947.2753, 33.84100
947.7574, 32.64899
948.2396, 32.18042
948.7217, 32.48427
949.2038, 32.94077
949.6859, 33.12210
950.1680, 33.19780
950.6501, 33.26445
951.1323, 33.34046
951.6144, 33.60174
952.0965, 34.37412
952.5786, 34.79364
953.0607, 34.51134
953.5428, 33.75317
954.0250, 33.09788
954.5071, 32.55884
954.9892, 32.21563
955.4713, 32.10910
955.9534, 32.19676
956.4355, 32.70892
956.9177, 33.29931
957.3998, 33.45084
957.8819, 32.77498
958.3640, 32.28176
958.8461, 31.99809
959.3282, 31.88480
959.8104, 31.91975
960.2925, 32.09178
960.7746, 32.43447
961.2567, 32.94898
961.7388, 33.34028
962.2209, 33.37622
962.7031, 33.26431
963.1852, 33.12106
963.6673, 32.95432
964.1494, 32.72984
964.6315, 32.38440
965.1136, 32.22426
965.5958, 32.46470
966.0779, 32.85068
966.5600, 32.78099
967.0421, 32.41758
967.5242, 32.20256
968.0063, 32.34912
968.4885, 32.61678
968.9706, 33.16281
969.4527, 33.64231
969.9348, 33.58679
970.4169, 32.83499
970.8990, 32.33686
971.3812, 32.15639
971.8633, 32.17946
972.3454, 32.40769
972.8275, 32.71402
973.3096, 32.89076
973.7917, 32.92044
974.2739, 33.00039
974.7560, 33.29026
975.2381, 33.55155
975.7202, 33.76104
976.2023, 33.86734
976.6844, 33.46267
977.1666, 32.55416
977.6487, 32.02256
978.1308, 32.51680
978.6129, 33.08529
979.0950, 32.41953
979.5771, 31.22526
980.0593, 30.65683
980.5414, 31.60595
981.0235, 32.34297
981.5056, 32.77940
981.9877, 33.01994
982.4698, 33.23812
982.9520, 33.38214
983.4341, 32.94661
983.9162, 31.91054
984.3983, 31.12781
984.8804, 31.38738
985.3625, 31.98397
985.8447, 32.52002
986.3268, 32.94552
986.8089, 33.09560
987.2910, 32.91528
987.7731, 32.59595
988.2552, 32.13354
988.7374, 31.65613
989.2195, 31.39598
989.7016, 31.33972
990.1837, 31.48779
990.6658, 32.01344
991.1479, 32.39851
991.6301, 32.38635
992.1122, 32.14897
992.5944, 31.79973
993.0765, 31.25727
993.5586, 31.13229
994.0407, 31.47132
994.5228, 31.89925
995.0049, 32.17472
995.4871, 32.31601
995.9692, 32.25117
996.4513, 32.03382
996.9334, 32.01079
997.4155, 32.75745
997.8976, 33.09157
998.3798, 32.51663
998.8619, 31.51041
999.3440, 31.25196
999.8261, 31.67347
1000.308, 32.18107
1000.790, 32.70679
1001.272, 32.98562
1001.755, 32.45298
1002.237, 31.74954
1002.719, 31.66141
1003.201, 32.68856
1003.683, 32.88387
1004.165, 31.85303
1004.647, 30.98904
1005.129, 31.40640
1005.612, 32.64309
1006.094, 33.54871
1006.576, 34.08826
1007.058, 34.14039
1007.540, 33.02332
1008.022, 32.08669
1008.504, 32.07226
1008.986, 32.52118
1009.468, 32.65075
1009.951, 32.41181
1010.433, 32.23576
1010.915, 32.18307
1011.397, 32.22339
1011.879, 32.36547
1012.361, 32.55487
1012.843, 32.77306
1013.325, 33.04385
1013.807, 33.05718
1014.290, 32.46524
1014.772, 32.06808
1015.254, 32.35633
1015.736, 33.07552
1016.218, 33.00130
1016.700, 32.30540
1017.182, 32.00943
1017.664, 33.18078
1018.147, 34.09446
1018.629, 33.06511
1019.111, 31.31662
1019.593, 30.81270
1020.075, 32.28214
1020.557, 32.82669
1021.039, 32.11936
1021.521, 31.31071
1022.003, 31.70279
1022.486, 32.66188
1022.968, 33.13095
1023.450, 33.05546
1023.932, 32.63935
1024.414, 31.28055
1024.896, 30.42248
1025.378, 30.71455
1025.860, 31.71542
1026.343, 32.10023
1026.825, 31.92043
1027.307, 32.03473
1027.789, 32.79633
1028.271, 33.52415
1028.753, 33.63947
1029.235, 33.37006
1029.717, 32.86705
1030.199, 31.90366
1030.682, 31.75372
1031.164, 32.77281
1031.646, 33.60560
1032.128, 33.14782
1032.610, 31.98480
1033.092, 31.69454
1033.574, 32.06127
1034.056, 32.30213
1034.539, 31.79785
1035.021, 31.43901
1035.503, 31.70281
1035.985, 32.13060
1036.467, 32.00786
1036.949, 31.31138
1037.431, 31.05597
1037.913, 31.37550
1038.396, 31.92674
1038.878, 32.61443
1039.360, 33.23960
1039.842, 33.70440
1040.324, 33.97826
1040.806, 33.70296
1041.288, 32.59059
1041.770, 31.58610
1042.252, 30.94146
1042.734, 30.62312
1043.217, 30.65477
1043.699, 30.94062
1044.181, 31.24023
1044.663, 31.52557
1045.145, 31.71618
1045.627, 31.65133
1046.109, 31.59126
1046.591, 31.77137
1047.074, 32.20951
1047.556, 32.35587
1048.038, 32.21047
1048.520, 32.14871
1049.002, 32.59721
1049.484, 33.08004
1049.966, 33.14754
1050.448, 32.91555
1050.931, 32.71346
1051.413, 32.48286
1051.895, 32.56060
1052.377, 33.14806
1052.859, 33.64772
1053.341, 33.08266
1053.823, 31.94235
1054.305, 31.34036
1054.787, 31.40688
1055.270, 31.55477
1055.752, 31.61878
1056.234, 31.59686
1056.716, 31.44696
1057.198, 31.22714
1057.680, 31.17887
1058.162, 31.29315
1058.644, 31.43340
1059.126, 31.55762
1059.609, 31.68949
1060.091, 31.83199
1060.573, 32.00003
1061.055, 32.25511
1061.537, 32.71911
1062.019, 32.70929
1062.501, 32.05309
1062.983, 31.56089
1063.466, 32.07186
1063.948, 32.94387
1064.430, 32.83838
1064.912, 32.06040
1065.394, 31.52222
1065.876, 31.74750
1066.358, 32.03946
1066.840, 32.42220
1067.323, 32.64974
1067.805, 32.12658
1068.287, 31.06014
1068.769, 31.26342
1069.251, 32.86850
1069.733, 34.08667
1070.215, 33.19839
1070.697, 31.91928
1071.179, 31.27165
1071.661, 31.20975
1072.144, 31.52347
1072.626, 32.28331
1073.108, 32.94630
1073.590, 33.40622
1074.072, 33.60310
1074.554, 33.22423
1075.036, 32.64476
1075.518, 32.45841
1076.001, 32.97450
1076.483, 32.80053
1076.965, 31.31568
1077.447, 30.24904
1077.929, 30.72267
1078.411, 32.12550
1078.893, 32.76958
1079.375, 32.80868
1079.858, 32.73506
1080.340, 32.61808
1080.822, 32.60923
1081.304, 32.92781
1081.786, 33.25182
1082.268, 33.22478
1082.750, 32.83580
1083.232, 32.81875
1083.714, 33.18348
1084.197, 33.31654
1084.679, 32.45397
1085.161, 31.49147
1085.643, 30.99012
1086.125, 30.97094
1086.607, 31.42758
1087.089, 32.66673
1087.571, 33.18608
1088.054, 32.63801
1088.536, 31.81395
1089.018, 31.51447
1089.500, 31.60059
1089.982, 32.01629
1090.464, 32.75786
1090.946, 33.14021
1091.428, 32.90412
1091.911, 32.47966
1092.393, 31.88529
1092.875, 31.30269
1093.357, 31.26731
1093.839, 31.61676
1094.321, 31.78844
1094.803, 31.48324
1095.285, 31.45554
1095.767, 32.53203
1096.250, 33.57655
1096.732, 33.75428
1097.214, 33.12177
1097.696, 32.95919
1098.178, 33.23011
1098.660, 33.19155
1099.142, 32.02193
1099.624, 30.91822
1100.106, 30.92880
1100.589, 31.55347
1101.071, 31.99838
1101.553, 32.18288
1102.035, 32.34788
1102.517, 32.51768
1102.999, 32.56410
1103.481, 32.13008
1103.963, 31.67150
1104.446, 32.00889
1104.928, 32.91449
1105.410, 33.37624
1105.892, 32.96464
1106.374, 32.39303
1106.856, 31.64030
1107.338, 30.97046
1107.820, 30.80260
1108.302, 30.97708
1108.785, 31.07422
1109.267, 31.04692
1109.749, 31.17216
1110.231, 31.83441
1110.713, 32.35677
1111.195, 32.45386
1111.677, 32.27481
1112.159, 32.22681
1112.641, 32.28804
1113.124, 32.33438
1113.606, 32.35052
1114.088, 32.28015
1114.570, 32.07190
1115.052, 31.76594
1115.534, 31.24996
1116.016, 30.56495
1116.498, 30.82876
1116.981, 32.08706
1117.463, 32.91351
1117.945, 32.38451
1118.427, 31.63657
1118.909, 31.99482
1119.391, 31.61691
1119.873, 31.54449
1120.355, 31.91817
1120.838, 31.68106
1121.320, 32.43363
1121.802, 32.99151
1122.284, 32.19563
1122.766, 30.91071
1123.248, 30.34764
1123.730, 30.38431
1124.212, 30.66123
1124.694, 31.33323
1125.177, 31.87108
1125.659, 32.24487
1126.141, 32.46569
1126.623, 32.62735
1127.105, 32.62546
1127.587, 31.88276
1128.069, 30.54465
1128.551, 29.86334
1129.033, 31.00945
1129.516, 32.14669
1129.998, 32.87740
1130.480, 33.20197
1130.962, 32.97766
1131.444, 32.32264
1131.926, 31.78071
1132.408, 31.41909
1132.890, 31.38343
1133.373, 32.15977
1133.855, 32.89603
1134.337, 33.10640
1134.819, 32.90126
1135.301, 32.59467
1135.783, 32.19328
1136.265, 31.79633
1136.747, 31.41376
1137.229, 31.10368
1137.712, 30.64219
1138.194, 30.47172
1138.676, 31.32409
1139.158, 33.18308
1139.640, 33.78628
1140.122, 33.01497
1140.604, 32.14432
1141.086, 31.56719
1141.569, 31.34242
1142.051, 31.88993
1142.533, 32.64838
1143.015, 32.76384
1143.497, 31.72257
1143.979, 31.55227
1144.461, 32.52432
1144.943, 33.29110
1145.426, 32.75829
1145.908, 31.74024
1146.390, 31.47086
1146.872, 31.74143
1147.354, 32.11451
1147.836, 32.69682
1148.318, 32.99938
1148.800, 32.96760
1149.282, 32.76206
1149.765, 32.46323
1150.247, 32.11243
1150.729, 31.73389
1151.211, 31.37254
1151.693, 31.19390
1152.175, 31.32745
1152.657, 31.58706
1153.139, 32.00823
1153.621, 32.42877
1154.104, 32.58895
1154.586, 32.59338
1155.068, 32.85595
1155.550, 33.37259
1156.032, 33.76336
1156.514, 33.97172
1156.996, 33.82298
1157.478, 33.07338
1157.961, 32.16624
1158.443, 32.02645
1158.925, 32.48515
1159.407, 32.47348
1159.889, 31.82459
1160.371, 31.44287
1160.853, 32.34822
1161.335, 33.15973
1161.818, 33.04424
1162.300, 32.35660
1162.782, 32.09899
1163.264, 32.24836
1163.746, 32.55797
1164.228, 33.02359
1164.710, 33.33844
1165.192, 33.16228
1165.674, 32.85252
1166.156, 32.77687
1166.639, 32.83798
1167.121, 32.07471
1167.603, 30.50175
1168.085, 29.88668
1168.567, 31.12669
1169.049, 32.47263
1169.531, 32.23315
1170.013, 31.48237
1170.496, 31.30817
1170.978, 31.74797
1171.460, 32.27907
1171.942, 32.94041
1172.424, 32.97243
1172.906, 31.56687
1173.388, 30.21794
1173.870, 30.80513
1174.353, 32.17267
1174.835, 32.70288
1175.317, 32.07442
1175.799, 32.09646
1176.281, 32.88321
1176.763, 33.39613
1177.245, 32.76234
1177.727, 31.87006
1178.209, 31.72888
1178.692, 32.03579
1179.174, 32.28306
1179.656, 32.37757
1180.138, 32.47654
1180.620, 32.57130
1181.102, 32.71838
1181.584, 33.04113
1182.066, 33.37663
1182.548, 33.46735
1183.031, 33.41355
1183.513, 33.47407
1183.995, 33.91098
1184.477, 33.89683
1184.959, 33.29988
1185.441, 32.63018
1185.923, 32.25542
1186.405, 32.13767
1186.888, 32.40509
1187.370, 32.90224
1187.852, 33.07532
1188.334, 32.60041
1188.816, 32.28117
1189.298, 32.20808
1189.780, 32.23863
1190.262, 32.24825
1190.745, 32.25494
1191.227, 32.31469
1191.709, 32.40693
1192.191, 32.40524
1192.673, 32.18982
1193.155, 32.06987
1193.637, 32.09855
1194.119, 32.20037
1194.601, 32.33317
1195.084, 32.45477
1195.566, 32.48466
1196.048, 32.42510
1196.530, 32.35667
1197.012, 32.20246
1197.494, 32.23982
1197.976, 32.56513
1198.458, 32.99703
1198.941, 33.34324
1199.423, 33.58870
1199.905, 33.72092
1200.387, 33.73709
1200.869, 33.52101
1201.351, 32.82487
1201.833, 32.39386
1202.315, 32.49858
1202.797, 32.76723
1203.280, 32.40845
1203.762, 31.86922
1204.244, 32.08791
1204.726, 33.25206
1205.208, 33.93317
1205.690, 33.68898
1206.172, 33.36839
1206.654, 33.19073
1207.136, 33.12171
1207.619, 33.11840
1208.101, 33.17155
1208.583, 33.33179
1209.065, 33.66098
1209.547, 33.60113
1210.029, 32.78966
1210.511, 32.25821
1210.993, 32.50186
1211.476, 33.01447
1211.958, 32.79532
1212.440, 32.19417
1212.922, 31.80556
1213.404, 31.73041
1213.886, 32.04238
1214.368, 33.08424
1214.850, 33.61118
1215.333, 32.83912
1215.815, 31.66027
1216.297, 31.98120
1216.779, 32.99634
1217.261, 33.12199
1217.743, 31.61566
1218.225, 30.91286
1218.707, 31.42214
1219.189, 32.17052
1219.672, 32.91524
1220.154, 33.36388
1220.636, 32.61301
1221.118, 31.29858
1221.600, 30.53336
1222.082, 30.65409
1222.564, 31.26245
1223.046, 32.54410
1223.528, 33.67257
1224.011, 34.25311
1224.493, 34.38694
1224.975, 34.11395
1225.457, 33.56263
1225.939, 32.90345
1226.421, 31.95167
1226.903, 31.63773
1227.385, 32.16168
1227.868, 32.62788
1228.350, 32.48142
1228.832, 32.05246
1229.314, 31.69323
1229.796, 31.46540
1230.278, 31.52131
1230.760, 32.11282
1231.242, 32.28992
1231.724, 31.96441
1232.207, 31.64984
1232.689, 31.67655
1233.171, 31.85359
1233.653, 31.95894
1234.135, 32.03143
1234.617, 32.15901
1235.099, 32.44731
1235.581, 32.41127
1236.063, 31.98922
1236.546, 31.67737
1237.028, 31.86806
1237.510, 32.23696
1237.992, 32.54101
1238.474, 32.75187
1238.956, 32.81861
1239.438, 32.76447
1239.920, 32.49803
1240.403, 32.01529
1240.885, 31.42640
1241.367, 30.25853
1241.849, 29.58630
1242.331, 31.12176
1242.813, 33.39267
1243.295, 34.07657
1243.777, 32.72841
1244.260, 32.14701
1244.742, 32.32468
1245.224, 32.62389
1245.706, 32.68818
1246.188, 32.69415
1246.670, 32.84828
1247.152, 32.95812
1247.634, 32.74098
1248.116, 32.15715
1248.599, 31.68760
1249.081, 31.35793
1249.563, 31.47779
1250.045, 32.90530
1250.527, 34.05073
1251.009, 33.81272
1251.491, 33.03692
1251.973, 32.49957
1252.455, 32.20141
1252.938, 32.34093
1253.420, 32.82496
1253.902, 32.92811
1254.384, 31.59707
1254.866, 30.66308
1255.348, 31.05199
1255.830, 31.84948
1256.313, 32.33002
1256.795, 32.52666
1257.277, 32.57808
1257.759, 32.52167
1258.241, 32.52745
1258.723, 32.93419
1259.205, 32.99566
1259.687, 32.28814
1260.169, 31.65756
1260.651, 32.09347
1261.134, 33.15266
1261.616, 33.37740
1262.098, 32.94166
1262.580, 32.51460
1263.062, 32.22258
1263.544, 32.17894
1264.026, 32.46868
1264.508, 32.80721
1264.991, 33.01345
1265.473, 33.07272
1265.955, 32.77789
1266.437, 32.32666
1266.919, 32.24594
1267.401, 33.15075
1267.883, 33.50014
1268.365, 33.16384
1268.848, 32.69784
1269.330, 32.59669
1269.812, 32.56182
1270.294, 31.99745
1270.776, 31.24328
1271.258, 31.14881
1271.740, 32.18404
1272.222, 32.38314
1272.704, 31.61791
1273.187, 30.95622
1273.669, 31.20152
1274.151, 31.80727
1274.633, 32.53092
1275.115, 33.18428
1275.597, 33.45309
1276.079, 33.81999
1276.561, 34.11807
1277.043, 33.94272
1277.526, 34.25044
1278.008, 33.88035
1278.490, 33.28205
1278.972, 32.38885
1279.454, 31.65869
1279.936, 31.71900
1280.418, 32.52108
1280.900, 32.38344
1281.383, 31.48485
1281.865, 30.97781
1282.347, 31.91068
1282.829, 32.63880
1283.311, 32.41744
1283.793, 32.04039
1284.275, 32.13437
1284.757, 32.56018
1285.240, 32.77753
1285.722, 32.81630
1286.204, 32.76283
1286.686, 32.56404
1287.168, 32.42363
1287.650, 32.34536
1288.132, 32.36881
1288.614, 32.64649
1289.096, 32.95440
1289.578, 32.69368
1290.061, 32.13877
1290.543, 31.84322
1291.025, 31.94570
1291.507, 32.45229
1291.989, 33.51127
1292.471, 34.27991
1292.953, 34.25787
1293.435, 33.71750
1293.918, 32.39901
1294.400, 31.05718
1294.882, 30.98660
1295.364, 32.38217
1295.846, 33.25619
1296.328, 33.60541
1296.810, 33.63719
1297.292, 33.19496
1297.775, 32.92410
1298.257, 33.73323
1298.739, 34.60737
1299.221, 34.55749
1299.703, 33.68842
1300.185, 32.99748
1300.667, 32.47562
1301.149, 32.04470
1301.631, 31.60669
1302.114, 31.44802
1302.596, 31.72149
##END=



