##NAMES=Ramdohrite
##RRUFFID=R100190
##IDEAL CHEMISTRY=Pb_5.9_Fe_0.1_Mn_0.1_In_0.1_Cd_0.2_Ag_2.8_Sb_10.8_S_24_
##LOCALITY=Potosi, Bolivia
##OWNER=RRUFF
##SOURCE=William W Pinch
##DESCRIPTION=Type sample. Unconsolidated steel-gray fragments associated with elongated zinkenite. This sample is primarily andorite VI mixed with andorite IV, as pointed out by Donnay and Donnay (1954).
##STATUS=The identification of this mineral has been confirmed only by single crystal X-ray diffraction.
##URL=rruff.info/R100190
164.8514, 98.27691
165.3335, 98.28902
165.8156, 99.64127
166.2977, 100.4912
166.7798, 100.3144
167.2620, 99.57888
167.7441, 98.93131
168.2262, 98.61416
168.7083, 98.63840
169.1904, 99.14537
169.6725, 100.6318
170.1547, 101.6474
170.6368, 101.3961
171.1189, 100.1495
171.6010, 98.72602
172.0831, 97.14317
172.5652, 95.94727
173.0474, 96.11581
173.5295, 98.36777
174.0116, 100.6070
174.4937, 100.9738
174.9758, 99.47515
175.4579, 98.16617
175.9401, 98.18569
176.4222, 98.73920
176.9043, 98.93144
177.3864, 98.48397
177.8685, 97.93002
178.3506, 98.11181
178.8328, 99.35972
179.3149, 100.1441
179.7970, 99.57865
180.2791, 98.50375
180.7612, 97.59354
181.2433, 97.08956
181.7255, 96.85149
182.2076, 96.54537
182.6897, 95.96217
183.1718, 95.72871
183.6539, 96.52712
184.1360, 97.46286
184.6181, 97.46738
185.1003, 95.97305
185.5824, 93.51951
186.0645, 92.05134
186.5466, 92.57836
187.0287, 92.93243
187.5108, 92.72617
187.9930, 92.21551
188.4751, 91.76656
188.9572, 91.59554
189.4393, 91.61471
189.9214, 91.32510
190.4035, 90.15072
190.8857, 89.30882
191.3678, 89.17017
191.8499, 89.51118
192.3320, 90.02153
192.8141, 90.58133
193.2962, 91.10253
193.7784, 90.83329
194.2605, 89.10136
194.7426, 87.49734
195.2247, 86.48275
195.7068, 86.01818
196.1889, 85.98804
196.6711, 86.44221
197.1532, 87.23721
197.6353, 87.63686
198.1174, 87.23957
198.5995, 86.85693
199.0816, 87.13290
199.5638, 87.94252
200.0459, 88.39478
200.5280, 87.70782
201.0101, 86.35361
201.4922, 85.75026
201.9743, 86.27486
202.4565, 87.22832
202.9386, 88.25462
203.4207, 89.37247
203.9028, 89.99581
204.3849, 89.27056
204.8670, 88.02341
205.3492, 87.50118
205.8313, 88.25442
206.3134, 89.38475
206.7955, 89.80065
207.2776, 89.40835
207.7597, 88.73154
208.2419, 87.53599
208.7240, 86.35068
209.2061, 85.77867
209.6882, 86.11337
210.1703, 86.93126
210.6524, 87.51112
211.1346, 87.75011
211.6167, 88.00251
212.0988, 88.39733
212.5809, 88.84885
213.0630, 89.28161
213.5451, 89.66282
214.0273, 90.01128
214.5094, 90.35263
214.9915, 90.61978
215.4736, 91.01540
215.9557, 91.66541
216.4378, 92.40125
216.9200, 92.99539
217.4021, 93.33225
217.8842, 93.61526
218.3663, 94.45678
218.8484, 96.57828
219.3305, 98.21264
219.8127, 99.03406
220.2948, 99.36581
220.7769, 99.49551
221.2590, 99.55373
221.7411, 99.57870
222.2232, 99.68063
222.7054, 99.77913
223.1875, 100.0781
223.6696, 100.5008
224.1517, 101.1569
224.6338, 102.2878
225.1159, 104.0102
225.5980, 106.0296
226.0802, 107.4877
226.5623, 107.8748
227.0444, 108.2792
227.5265, 108.7154
228.0086, 109.2281
228.4907, 109.8798
228.9729, 110.6994
229.4550, 111.6443
229.9371, 112.6185
230.4192, 113.9396
230.9013, 114.8101
231.3834, 114.5756
231.8656, 113.9291
232.3477, 113.9857
232.8298, 115.2361
233.3119, 117.1100
233.7940, 118.3968
234.2761, 119.0539
234.7583, 119.4237
235.2404, 119.1699
235.7225, 118.7430
236.2046, 119.0365
236.6867, 120.4813
237.1688, 122.4137
237.6510, 123.8172
238.1331, 124.8153
238.6152, 125.1204
239.0973, 123.8977
239.5794, 121.9509
240.0615, 121.1185
240.5437, 122.1329
241.0258, 123.9012
241.5079, 125.0715
241.9900, 125.6889
242.4721, 126.0073
242.9542, 126.0951
243.4364, 125.9610
243.9185, 125.5496
244.4006, 124.6787
244.8827, 123.8537
245.3648, 123.6489
245.8469, 123.9846
246.3290, 124.3439
246.8112, 124.6924
247.2933, 124.8925
247.7754, 124.3805
248.2575, 122.6189
248.7396, 120.9309
249.2217, 120.3734
249.7039, 120.7229
250.1860, 121.2880
250.6681, 121.9700
251.1502, 122.6191
251.6323, 122.5695
252.1144, 121.2893
252.5966, 120.1343
253.0787, 120.1176
253.5608, 120.8207
254.0429, 121.2995
254.5250, 120.9207
255.0071, 119.8975
255.4893, 118.9677
255.9714, 117.8325
256.4535, 117.3540
256.9356, 118.4678
257.4177, 120.3025
257.8998, 121.3602
258.3820, 120.5107
258.8641, 118.4350
259.3462, 117.6669
259.8283, 119.2636
260.3104, 120.4437
260.7925, 120.1141
261.2747, 118.9538
261.7568, 117.7515
262.2389, 116.7928
262.7210, 116.2163
263.2031, 116.5681
263.6852, 118.7896
264.1674, 120.3096
264.6495, 120.0263
265.1316, 119.0520
265.6137, 118.6280
266.0958, 119.3138
266.5779, 120.5825
267.0601, 121.1461
267.5422, 120.4905
268.0243, 120.0277
268.5064, 119.7915
268.9885, 119.8897
269.4706, 120.6500
269.9528, 122.1510
270.4349, 123.7749
270.9170, 124.2368
271.3991, 122.6583
271.8812, 121.6237
272.3633, 121.5597
272.8455, 121.8521
273.3276, 122.1505
273.8097, 122.3245
274.2918, 122.3085
274.7739, 121.9606
275.2560, 121.0369
275.7382, 120.2949
276.2202, 119.8950
276.7024, 119.5163
277.1845, 118.8047
277.6666, 117.7960
278.1487, 116.9612
278.6308, 116.9903
279.1129, 118.4207
279.5951, 118.8107
280.0772, 117.6478
280.5593, 116.0955
281.0414, 114.6109
281.5235, 113.2909
282.0056, 112.0866
282.4878, 110.9298
282.9699, 109.7678
283.4520, 109.0315
283.9341, 109.2738
284.4162, 109.3441
284.8983, 108.6952
285.3805, 107.4618
285.8626, 106.0967
286.3447, 104.9421
286.8268, 103.9983
287.3089, 102.9667
287.7910, 101.8315
288.2732, 100.6385
288.7553, 99.40998
289.2374, 98.13567
289.7195, 96.78503
290.2016, 95.32681
290.6837, 93.80437
291.1659, 92.42646
291.6480, 91.33508
292.1301, 90.22936
292.6122, 89.16033
293.0943, 88.02247
293.5764, 86.55275
294.0586, 84.60342
294.5407, 82.51192
295.0228, 81.18822
295.5049, 81.65627
295.9870, 81.66644
296.4691, 81.07646
296.9513, 80.01876
297.4334, 78.36914
297.9155, 76.13672
298.3976, 73.94661
298.8797, 72.87283
299.3618, 73.60019
299.8440, 74.30146
300.3261, 75.28803
300.8082, 76.05370
301.2903, 75.99916
301.7724, 75.09025
302.2545, 74.00028
302.7367, 73.48145
303.2188, 73.61338
303.7009, 74.20726
304.1830, 75.85708
304.6651, 77.44705
305.1472, 78.15028
305.6294, 78.03932
306.1115, 77.82138
306.5936, 78.09778
307.0757, 78.90188
307.5578, 79.66142
308.0399, 80.17435
308.5221, 80.84673
309.0042, 82.01752
309.4863, 83.51213
309.9684, 84.82659
310.4505, 85.59925
310.9326, 85.94524
311.4148, 86.65241
311.8969, 87.85910
312.3790, 89.20583
312.8611, 90.70640
313.3432, 92.27343
313.8253, 93.87476
314.3075, 95.51643
314.7896, 97.00225
315.2717, 97.79439
315.7538, 96.96048
316.2359, 96.78673
316.7180, 97.93746
317.2001, 99.62336
317.6823, 100.9699
318.1644, 101.7316
318.6465, 102.2634
319.1286, 103.1080
319.6107, 104.4749
320.0928, 105.6490
320.5750, 106.9686
321.0571, 107.8786
321.5392, 107.6830
322.0213, 106.4439
322.5034, 105.0784
322.9855, 104.5385
323.4677, 104.9828
323.9498, 105.0966
324.4319, 104.9195
324.9140, 104.4368
325.3961, 103.4703
325.8782, 102.1622
326.3604, 100.8982
326.8425, 99.96180
327.3246, 99.31493
327.8067, 98.49475
328.2888, 97.34378
328.7709, 96.22602
329.2531, 95.29306
329.7352, 94.44783
330.2173, 93.47087
330.6994, 92.24335
331.1815, 90.94967
331.6636, 90.08492
332.1458, 90.16203
332.6279, 90.05395
333.1100, 89.96732
333.5921, 89.56532
334.0742, 88.30830
334.5563, 86.11302
335.0385, 83.62598
335.5206, 81.81651
336.0027, 81.01678
336.4848, 80.07469
336.9669, 78.88329
337.4490, 77.64111
337.9312, 76.58128
338.4133, 75.64182
338.8954, 74.48983
339.3775, 72.78226
339.8596, 70.45618
340.3417, 68.31207
340.8239, 66.74455
341.3060, 64.93496
341.7881, 62.35883
342.2702, 59.32140
342.7523, 56.44113
343.2344, 54.09833
343.7166, 52.24685
344.1987, 50.69091
344.6808, 49.50142
345.1629, 48.56732
345.6450, 48.21626
346.1271, 47.98867
346.6093, 47.28086
347.0914, 45.89795
347.5735, 44.25875
348.0556, 43.21502
348.5377, 43.30433
349.0198, 43.01697
349.5020, 41.98908
349.9841, 40.90606
350.4662, 40.32473
350.9483, 40.24842
351.4304, 40.21941
351.9125, 39.71392
352.3947, 38.62854
352.8768, 37.76514
353.3589, 37.32788
353.8410, 36.90893
354.3231, 36.28961
354.8052, 35.57932
355.2874, 35.04418
355.7695, 34.89775
356.2516, 35.04543
356.7337, 34.91248
357.2158, 33.97142
357.6979, 33.48959
358.1800, 34.21896
358.6621, 35.27052
359.1443, 35.57692
359.6264, 34.73369
360.1085, 33.36428
360.5906, 32.57330
361.0727, 32.51905
361.5548, 32.65369
362.0370, 33.22708
362.5191, 33.72918
363.0012, 33.79595
363.4833, 33.42438
363.9654, 32.90582
364.4475, 32.50007
364.9297, 32.20932
365.4118, 31.98461
365.8939, 31.68669
366.3760, 31.63260
366.8581, 32.12626
367.3402, 32.94068
367.8224, 33.63778
368.3045, 33.99120
368.7866, 34.02486
369.2687, 33.74855
369.7508, 32.99273
370.2329, 32.30141
370.7151, 31.95851
371.1972, 31.71707
371.6793, 31.25714
372.1614, 30.45288
372.6435, 29.71146
373.1256, 29.63755
373.6078, 30.28705
374.0899, 30.79267
374.5720, 30.89264
375.0541, 30.85669
375.5362, 30.86587
376.0183, 30.92643
376.5005, 31.00262
376.9826, 31.12119
377.4647, 31.24377
377.9468, 31.22818
378.4289, 31.05231
378.9110, 30.76382
379.3932, 30.23681
379.8753, 29.63242
380.3574, 29.28695
380.8395, 29.41109
381.3216, 29.74197
381.8037, 29.96551
382.2859, 30.07956
382.7680, 30.24553
383.2501, 30.74714
383.7322, 31.17507
384.2143, 30.84280
384.6964, 29.50624
385.1786, 28.23752
385.6607, 27.60671
386.1428, 27.51735
386.6249, 27.80884
387.1070, 28.56135
387.5891, 29.35512
388.0713, 29.60379
388.5534, 29.36493
389.0355, 29.27945
389.5176, 29.75269
389.9997, 30.26595
390.4818, 30.28069
390.9640, 29.78166
391.4461, 29.04600
391.9282, 28.11145
392.4103, 27.12039
392.8924, 26.73913
393.3745, 27.41448
393.8567, 28.15178
394.3388, 28.71346
394.8209, 29.04672
395.3030, 28.91722
395.7851, 28.17996
396.2672, 27.29833
396.7494, 27.12092
397.2315, 28.02207
397.7136, 28.76212
398.1957, 29.45221
398.6778, 29.85853
399.1599, 29.62639
399.6420, 28.81832
400.1241, 27.95516
400.6063, 27.49425
401.0884, 27.44435
401.5705, 27.46275
402.0526, 27.47612
402.5347, 27.62581
403.0168, 28.24470
403.4990, 28.97113
403.9811, 29.13366
404.4632, 28.40052
404.9453, 27.20359
405.4274, 26.60743
405.9095, 27.06205
406.3917, 27.39125
406.8738, 27.60093
407.3559, 27.65669
407.8380, 27.42468
408.3201, 26.95944
408.8022, 26.55827
409.2844, 26.57734
409.7665, 27.06225
410.2486, 27.21371
410.7307, 26.39319
411.2128, 25.94056
411.6949, 26.66163
412.1771, 27.92421
412.6592, 28.66765
413.1413, 28.31549
413.6234, 27.34747
414.1055, 26.81694
414.5876, 26.90061
415.0698, 26.87627
415.5519, 26.28985
416.0340, 25.72879
416.5161, 25.69367
416.9982, 26.21230
417.4803, 26.76189
417.9625, 26.76665
418.4446, 26.34805
418.9267, 26.44627
419.4088, 27.50829
419.8909, 28.38675
420.3730, 28.22126
420.8552, 27.36156
421.3373, 26.45372
421.8194, 25.55268
422.3015, 24.86300
422.7836, 24.77537
423.2657, 25.28108
423.7479, 25.63442
424.2300, 25.37371
424.7121, 24.95868
425.1942, 25.25891
425.6763, 26.51153
426.1584, 27.26141
426.6406, 26.25679
427.1227, 24.52246
427.6048, 23.95258
428.0869, 24.92181
428.5690, 26.17835
429.0511, 26.56125
429.5333, 26.05963
430.0154, 25.87184
430.4975, 26.44517
430.9796, 26.91553
431.4617, 26.61890
431.9438, 25.82174
432.4260, 25.23964
432.9081, 25.22097
433.3902, 25.57617
433.8723, 25.88810
434.3544, 26.49980
434.8365, 26.45385
435.3187, 24.94020
435.8008, 23.27338
436.2829, 22.61096
436.7650, 23.02225
437.2471, 23.80486
437.7292, 24.33511
438.2114, 24.61132
438.6935, 24.77371
439.1756, 24.90352
439.6577, 24.82373
440.1398, 24.20554
440.6219, 23.44436
441.1040, 23.12570
441.5862, 23.49457
442.0683, 24.18009
442.5504, 24.43399
443.0325, 23.97222
443.5146, 23.95891
443.9967, 25.14940
444.4789, 26.26171
444.9610, 26.58500
445.4431, 26.19422
445.9252, 25.57984
446.4073, 24.94901
446.8894, 24.39268
447.3716, 24.32086
447.8537, 24.91060
448.3358, 25.54435
448.8179, 26.27386
449.3000, 26.76648
449.7821, 26.45627
450.2643, 25.05085
450.7464, 23.68156
451.2285, 23.44032
451.7106, 24.12416
452.1927, 24.75866
452.6748, 25.18773
453.1570, 25.44734
453.6391, 25.52854
454.1212, 25.45949
454.6033, 25.32006
455.0854, 25.02799
455.5675, 24.74786
456.0497, 24.72026
456.5318, 24.88580
457.0139, 24.83009
457.4960, 24.24955
457.9781, 23.42633
458.4602, 23.15450
458.9424, 23.58648
459.4245, 24.13103
459.9066, 24.99906
460.3887, 25.75517
460.8708, 25.81491
461.3529, 25.16383
461.8351, 24.39498
462.3172, 24.06098
462.7993, 24.17822
463.2814, 24.28981
463.7635, 24.40639
464.2456, 24.50560
464.7278, 24.54451
465.2099, 24.57576
465.6920, 24.68250
466.1741, 24.89532
466.6562, 25.15018
467.1383, 25.34927
467.6205, 25.50242
468.1026, 25.57193
468.5847, 25.64205
469.0668, 25.54730
469.5489, 25.16040
470.0310, 24.53573
470.5132, 23.78821
470.9953, 22.85913
471.4774, 21.97638
471.9595, 21.88700
472.4416, 22.89144
472.9237, 23.56318
473.4059, 22.87785
473.8880, 21.94570
474.3701, 21.79159
474.8522, 22.54206
475.3343, 23.58295
475.8164, 25.03255
476.2986, 26.42848
476.7807, 26.26118
477.2628, 24.03580
477.7449, 22.05829
478.2270, 22.50665
478.7091, 24.69775
479.1913, 25.64074
479.6734, 24.07564
480.1555, 22.47137
480.6376, 22.17641
481.1197, 22.75451
481.6018, 23.34911
482.0839, 23.69390
482.5660, 23.84390
483.0482, 23.85105
483.5303, 23.64665
484.0124, 23.55228
484.4945, 23.62338
484.9766, 23.74482
485.4587, 23.91011
485.9409, 24.07471
486.4230, 24.19658
486.9051, 24.26680
487.3872, 24.19207
487.8693, 23.62463
488.3514, 21.88975
488.8336, 20.95126
489.3157, 21.28870
489.7978, 22.06688
490.2799, 22.99451
490.7620, 23.88935
491.2441, 24.38408
491.7263, 24.01083
492.2084, 23.00175
492.6905, 22.55021
493.1726, 22.94339
493.6547, 23.20480
494.1368, 22.64055
494.6190, 21.88474
495.1011, 21.64369
495.5832, 22.09544
496.0653, 22.61348
496.5474, 22.62019
497.0295, 22.31288
497.5117, 22.36777
497.9938, 22.97879
498.4759, 23.54549
498.9580, 23.47128
499.4401, 22.89699
499.9222, 22.61402
500.4044, 22.96726
500.8865, 23.31374
501.3686, 23.11359
501.8507, 22.69331
502.3328, 22.89815
502.8149, 24.04421
503.2971, 25.28700
503.7792, 25.35209
504.2613, 23.71369
504.7434, 22.78278
505.2255, 22.85359
505.7076, 23.25642
506.1898, 23.98756
506.6719, 24.77050
507.1540, 25.10428
507.6361, 24.71411
508.1182, 23.86920
508.6003, 23.15527
509.0825, 22.52916
509.5646, 22.15039
510.0467, 22.23118
510.5288, 22.39573
511.0109, 22.51842
511.4930, 22.55587
511.9752, 22.43153
512.4573, 22.00943
512.9394, 21.44899
513.4215, 21.08091
513.9036, 20.89463
514.3857, 20.97696
514.8679, 21.54523
515.3500, 22.27330
515.8321, 22.74732
516.3142, 22.94366
516.7963, 23.02919
517.2784, 23.01124
517.7606, 22.95504
518.2427, 22.95844
518.7248, 23.02755
519.2069, 23.09462
519.6890, 23.10372
520.1711, 23.07835
520.6533, 23.13944
521.1354, 23.70208
521.6175, 23.79388
522.0996, 22.61948
522.5817, 21.26438
523.0638, 21.01915
523.5460, 21.96383
524.0281, 23.06363
524.5102, 23.32506
524.9923, 22.77156
525.4744, 22.17113
525.9565, 21.19905
526.4387, 20.63844
526.9208, 20.90686
527.4029, 21.50311
527.8850, 21.87119
528.3671, 21.88073
528.8492, 21.88668
529.3314, 22.49036
529.8135, 23.56515
530.2956, 23.70996
530.7777, 22.35299
531.2598, 21.09159
531.7419, 21.07453
532.2241, 21.77842
532.7062, 22.47237
533.1883, 23.20256
533.6704, 23.53930
534.1525, 22.76731
534.6346, 21.42392
535.1168, 20.91765
535.5989, 21.62844
536.0810, 22.51426
536.5631, 22.45872
537.0452, 21.40476
537.5273, 20.88391
538.0095, 21.24392
538.4916, 21.69475
538.9737, 21.99399
539.4558, 22.18466
539.9379, 22.41309
540.4200, 22.70894
540.9022, 22.84852
541.3843, 22.42526
541.8664, 21.24800
542.3485, 20.59364
542.8306, 20.92408
543.3127, 21.30584
543.7948, 21.42422
544.2769, 21.41430
544.7590, 21.53810
545.2411, 21.91643
545.7233, 22.27571
546.2054, 22.21570
546.6875, 21.76767
547.1696, 21.38046
547.6517, 21.07702
548.1339, 20.93077
548.6160, 21.15115
549.0981, 21.59587
549.5802, 21.85165
550.0623, 21.50617
550.5444, 21.30788
551.0266, 22.17448
551.5087, 23.51730
551.9908, 23.77685
552.4729, 22.44215
552.9550, 20.74459
553.4371, 20.23821
553.9193, 21.16278
554.4014, 21.85856
554.8835, 22.39378
555.3656, 22.66376
555.8477, 22.39693
556.3298, 21.91963
556.8120, 21.79871
557.2941, 22.21924
557.7762, 22.67910
558.2583, 22.25893
558.7404, 20.75388
559.2225, 20.14980
559.7047, 21.19738
560.1868, 22.25664
560.6689, 22.56267
561.1510, 22.36605
561.6331, 22.07314
562.1152, 21.77346
562.5974, 21.49555
563.0795, 21.22369
563.5616, 20.98955
564.0437, 20.95459
564.5258, 21.19386
565.0079, 21.43155
565.4901, 21.39443
565.9722, 21.09369
566.4543, 20.88582
566.9364, 20.77953
567.4185, 20.75467
567.9006, 20.85788
568.3828, 21.01739
568.8649, 21.15430
569.3470, 21.23991
569.8291, 21.23263
570.3112, 21.01418
570.7933, 20.54107
571.2755, 20.66345
571.7576, 22.34679
572.2397, 23.39938
572.7218, 22.83484
573.2039, 21.62332
573.6860, 20.84358
574.1682, 20.76120
574.6503, 20.93790
575.1324, 21.09865
575.6145, 21.19282
576.0966, 20.85700
576.5787, 19.88293
577.0609, 19.23570
577.5430, 19.78733
578.0251, 20.99744
578.5072, 21.56121
578.9893, 21.31052
579.4714, 20.73507
579.9536, 19.49733
580.4357, 18.31008
580.9178, 18.24808
581.3999, 19.31058
581.8820, 20.47914
582.3641, 20.98041
582.8463, 20.92725
583.3284, 21.00344
583.8105, 21.79014
584.2926, 21.82681
584.7747, 20.14527
585.2568, 18.36326
585.7390, 17.77883
586.2211, 18.36131
586.7032, 19.23322
587.1853, 19.88412
587.6674, 20.29478
588.1495, 20.32602
588.6317, 19.90460
589.1138, 19.54685
589.5959, 19.35304
590.0780, 19.36565
590.5601, 19.70187
591.0422, 20.35517
591.5244, 20.86403
592.0065, 21.19363
592.4886, 21.23554
592.9707, 20.80765
593.4528, 19.99177
593.9349, 18.92685
594.4171, 17.62427
594.8992, 16.50844
595.3813, 16.36785
595.8634, 17.58797
596.3455, 18.67054
596.8276, 20.02719
597.3098, 20.84166
597.7919, 20.29575
598.2740, 19.09700
598.7561, 18.51415
599.2382, 19.08726
599.7203, 19.96222
600.2025, 19.81763
600.6846, 18.69552
601.1667, 18.28949
601.6488, 19.14038
602.1309, 19.97201
602.6130, 19.74135
603.0952, 18.88794
603.5773, 18.25621
604.0594, 17.92333
604.5415, 17.87646
605.0236, 18.39796
605.5057, 19.08890
605.9879, 19.27562
606.4700, 18.87934
606.9521, 18.30970
607.4342, 17.84770
607.9163, 17.53227
608.3984, 17.67741
608.8806, 18.93118
609.3627, 19.75162
609.8448, 19.91712
610.3269, 19.68665
610.8090, 19.00454
611.2911, 18.05992
611.7733, 17.46709
612.2554, 17.80973
612.7375, 18.64877
613.2196, 18.90253
613.7017, 18.50740
614.1838, 18.23651
614.6660, 18.45568
615.1481, 18.72848
615.6302, 18.37646
616.1123, 17.45619
616.5944, 16.99198
617.0765, 17.48930
617.5587, 18.22433
618.0408, 18.91515
618.5229, 19.44362
619.0050, 19.55234
619.4871, 19.15798
619.9692, 18.52523
620.4514, 17.99190
620.9335, 17.55780
621.4156, 17.20427
621.8977, 16.68996
622.3798, 16.56670
622.8619, 17.40027
623.3441, 18.48330
623.8262, 18.94606
624.3083, 18.59279
624.7904, 18.05813
625.2725, 17.93215
625.7546, 18.03209
626.2367, 17.78017
626.7188, 17.10880
627.2009, 16.53689
627.6830, 16.30540
628.1652, 16.36265
628.6473, 16.69278
629.1294, 17.51038
629.6115, 17.88215
630.0936, 17.08897
630.5757, 16.30427
631.0579, 16.56356
631.5400, 17.55910
632.0221, 18.32877
632.5042, 18.37890
632.9863, 18.04505
633.4684, 17.97193
633.9506, 18.25023
634.4327, 18.33687
634.9148, 18.15530
635.3969, 17.83144
635.8790, 17.19366
636.3611, 16.52875
636.8433, 16.42457
637.3254, 17.22537
637.8075, 17.96153
638.2896, 17.80009
638.7717, 17.11994
639.2538, 16.56996
639.7360, 16.25273
640.2181, 16.24003
640.7002, 16.65165
641.1823, 17.34716
641.6644, 17.75695
642.1465, 17.63302
642.6287, 17.54944
643.1108, 17.66833
643.5929, 17.69692
644.0750, 17.21650
644.5571, 16.46843
645.0392, 16.18821
645.5214, 16.88498
646.0035, 17.91363
646.4856, 18.17533
646.9677, 17.67254
647.4498, 16.92114
647.9319, 15.74858
648.4141, 14.89241
648.8962, 15.25999
649.3783, 16.49285
649.8604, 17.21589
650.3425, 16.94684
650.8246, 16.66644
651.3068, 16.80091
651.7889, 17.11271
652.2710, 17.39837
652.7531, 17.57798
653.2352, 17.48253
653.7173, 16.92603
654.1995, 16.07935
654.6816, 15.65722
655.1637, 15.74965
655.6458, 16.05612
656.1279, 16.77250
656.6100, 17.49285
657.0922, 17.99061
657.5743, 18.29255
658.0564, 18.53019
658.5385, 18.77425
659.0206, 18.94822
659.5027, 19.04757
659.9849, 19.01730
660.4670, 18.58823
660.9491, 17.68403
661.4312, 16.84950
661.9133, 16.62441
662.3954, 16.95057
662.8776, 17.00092
663.3597, 16.17795
663.8418, 15.86929
664.3239, 16.70525
664.8060, 17.73206
665.2881, 18.23267
665.7703, 18.16842
666.2524, 17.80481
666.7345, 17.18352
667.2166, 16.54948
667.6987, 16.43040
668.1808, 16.81015
668.6630, 17.06919
669.1451, 17.02124
669.6272, 16.91569
670.1093, 17.01790
670.5914, 17.30308
671.0735, 17.44798
671.5557, 17.30611
672.0378, 17.19658
672.5199, 17.17263
673.0020, 17.26191
673.4841, 17.65423
673.9662, 18.25357
674.4484, 18.55591
674.9305, 18.11773
675.4126, 17.17710
675.8947, 16.54996
676.3768, 16.33059
676.8589, 16.00125
677.3411, 15.35900
677.8232, 14.68590
678.3053, 13.95931
678.7874, 13.34215
679.2695, 13.49659
679.7516, 15.29235
680.2338, 16.98531
680.7159, 17.35666
681.1980, 17.03464
681.6801, 17.13030
682.1622, 17.76211
682.6443, 18.06083
683.1265, 17.21973
683.6086, 15.57416
684.0907, 14.80584
684.5728, 15.41788
685.0549, 15.80850
685.5370, 15.62308
686.0192, 15.28385
686.5013, 14.89584
686.9834, 14.54790
687.4655, 14.46061
687.9476, 14.84772
688.4297, 15.28306
688.9119, 15.31595
689.3940, 15.12077
689.8761, 15.14641
690.3582, 15.46563
690.8403, 15.75337
691.3224, 15.75963
691.8046, 15.52900
692.2867, 15.25491
692.7688, 14.63177
693.2509, 14.47623
693.7330, 15.42876
694.2151, 16.26482
694.6973, 16.00863
695.1794, 15.05809
695.6615, 14.54601
696.1436, 15.09356
696.6257, 15.76399
697.1078, 15.28738
697.5900, 14.05886
698.0721, 13.55646
698.5542, 14.03161
699.0363, 14.56500
699.5184, 14.47999
700.0005, 14.02305
700.4827, 14.07517
700.9648, 15.32968
701.4469, 15.95182
701.9290, 15.43442
702.4111, 14.73463
702.8932, 14.33773
703.3754, 14.21808
703.8575, 14.24586
704.3396, 14.37977
704.8217, 14.48410
705.3038, 14.30385
705.7859, 13.93141
706.2681, 13.85083
706.7502, 14.13762
707.2323, 14.47186
707.7144, 14.74976
708.1965, 14.90151
708.6786, 14.71418
709.1607, 13.99541
709.6428, 13.52010
710.1249, 13.43971
710.6071, 13.51288
711.0892, 13.74328
711.5713, 13.98847
712.0534, 13.91894
712.5355, 13.45311
713.0176, 13.13681
713.4998, 13.86420
713.9819, 15.34380
714.4640, 15.91931
714.9461, 15.44957
715.4282, 14.82566
715.9103, 14.29613
716.3925, 13.94413
716.8746, 13.96167
717.3567, 14.39026
717.8388, 14.76097
718.3209, 14.99975
718.8030, 15.21055
719.2852, 15.56741
719.7673, 15.86928
720.2494, 15.73161
720.7315, 15.13548
721.2136, 14.57884
721.6957, 14.54325
722.1779, 14.89713
722.6600, 15.20732
723.1421, 15.48513
723.6242, 15.63266
724.1063, 15.60327
724.5884, 15.46068
725.0706, 15.21127
725.5527, 14.87164
726.0348, 14.69242
726.5169, 14.76726
726.9990, 14.90429
727.4811, 15.17350
727.9633, 15.38860
728.4454, 15.27650
728.9275, 14.88015
729.4096, 14.50990
729.8917, 14.37171
730.3738, 14.40439
730.8560, 14.53750
731.3381, 14.77818
731.8202, 14.82031
732.3023, 14.53392
732.7844, 14.23719
733.2665, 14.15150
733.7487, 14.24712
734.2308, 14.39846
734.7129, 14.71489
735.1950, 14.87934
735.6771, 14.62218
736.1592, 14.36325
736.6414, 14.61352
737.1235, 15.12541
737.6056, 15.16529
738.0877, 14.38858
738.5698, 13.43422
739.0519, 13.24091
739.5341, 13.71966
740.0162, 14.07028
740.4983, 14.23996
740.9804, 14.32810
741.4625, 14.30003
741.9446, 14.28984
742.4268, 14.64946
742.9089, 15.54404
743.3910, 15.94141
743.8731, 15.35864
744.3552, 14.69323
744.8373, 14.24764
745.3195, 14.04694
745.8016, 14.19328
746.2837, 14.64981
746.7658, 15.04737
747.2479, 14.99982
747.7300, 14.67926
748.2122, 14.60926
748.6943, 14.79603
749.1764, 14.74583
749.6585, 14.22213
750.1406, 13.67924
750.6227, 13.61444
751.1049, 14.01291
751.5870, 14.26100
752.0691, 14.34512
752.5512, 14.31131
753.0333, 13.88138
753.5154, 13.56057
753.9976, 13.95426
754.4797, 14.85377
754.9618, 15.49369
755.4439, 15.44604
755.9260, 15.11823
756.4081, 15.03462
756.8903, 15.13186
757.3724, 15.19536
757.8545, 15.20890
758.3366, 14.96734
758.8187, 14.23334
759.3008, 13.30941
759.7830, 12.97670
760.2651, 13.62214
760.7472, 13.94640
761.2293, 13.71577
761.7114, 13.44772
762.1935, 13.32078
762.6757, 13.29661
763.1578, 13.29693
763.6399, 13.30663
764.1220, 13.39760
764.6041, 13.72167
765.0862, 14.10054
765.5684, 14.18769
766.0505, 14.05884
766.5326, 14.16603
767.0147, 14.67211
767.4968, 15.12455
767.9789, 14.97371
768.4611, 14.25590
768.9432, 13.87385
769.4253, 14.07963
769.9074, 14.18884
770.3895, 14.01484
770.8716, 13.78796
771.3538, 13.74498
771.8359, 13.78418
772.3180, 13.48945
772.8001, 12.34081
773.2822, 11.62749
773.7643, 12.79267
774.2465, 14.65658
774.7286, 15.53221
775.2107, 15.32013
775.6928, 14.55731
776.1749, 13.49078
776.6570, 12.49355
777.1392, 12.40436
777.6213, 13.39750
778.1034, 14.01624
778.5855, 14.09335
779.0676, 14.09605
779.5497, 14.17455
780.0319, 14.31990
780.5140, 14.61939
780.9961, 15.10928
781.4782, 15.20292
781.9603, 14.52736
782.4424, 13.66551
782.9246, 12.65553
783.4067, 11.80535
783.8888, 11.67092
784.3709, 12.25599
784.8530, 12.94696
785.3351, 13.30181
785.8173, 13.35080
786.2994, 12.98721
786.7815, 12.21049
787.2636, 12.00960
787.7457, 12.68584
788.2278, 13.57594
788.7100, 14.26987
789.1921, 14.75725
789.6742, 14.97801
790.1563, 14.89938
790.6384, 14.63068
791.1205, 13.96064
791.6026, 13.32018
792.0847, 12.84304
792.5668, 12.59780
793.0490, 12.76736
793.5311, 13.39293
794.0132, 13.93299
794.4953, 13.82234
794.9774, 13.39210
795.4595, 13.16447
795.9417, 13.15253
796.4238, 13.42781
796.9059, 14.03684
797.3880, 14.56633
797.8701, 14.49925
798.3522, 13.89622
798.8344, 13.79479
799.3165, 14.64977
799.7986, 15.12926
800.2807, 14.70259
800.7628, 14.12476
801.2449, 13.69474
801.7271, 13.47412
802.2092, 13.65295
802.6913, 14.54802
803.1734, 15.15806
803.6555, 14.68498
804.1376, 13.86772
804.6198, 13.41761
805.1019, 13.35479
805.5840, 13.48234
806.0661, 13.71718
806.5482, 14.15534
807.0303, 15.08997
807.5125, 16.41754
807.9946, 17.07552
808.4767, 16.97580
808.9588, 16.65840
809.4409, 16.09828
809.9230, 15.72719
810.4052, 16.15057
810.8873, 17.37066
811.3694, 18.27001
811.8515, 18.68377
812.3336, 19.00326
812.8157, 19.38325
813.2979, 19.63044
813.7800, 19.47254
814.2621, 19.04910
814.7442, 18.76352
815.2263, 18.80613
815.7084, 18.91856
816.1906, 18.74488
816.6727, 18.49686
817.1548, 18.78617
817.6369, 19.53359
818.1190, 19.87518
818.6011, 19.40998
819.0833, 18.54303
819.5654, 17.83260
820.0475, 17.28158
820.5296, 16.76768
821.0117, 16.21609
821.4938, 15.85056
821.9760, 15.87457
822.4581, 15.98301
822.9402, 16.03350
823.4223, 15.97445
823.9044, 15.55797
824.3865, 14.23049
824.8687, 13.30866
825.3508, 13.53959
825.8329, 14.22522
826.3150, 14.98306
826.7971, 15.56376
827.2792, 15.42445
827.7614, 14.31308
828.2435, 13.11646
828.7256, 13.18967
829.2077, 12.50666
829.6898, 12.03421
830.1719, 12.50136
830.6541, 11.76457
831.1362, 12.45924
831.6183, 13.54402
832.1004, 13.74855
832.5825, 13.08918
833.0646, 12.83340
833.5468, 13.37819
834.0289, 13.71189
834.5110, 13.53715
834.9931, 13.29371
835.4752, 13.22318
835.9573, 13.30890
836.4395, 13.51266
836.9216, 13.92653
837.4037, 14.11369
837.8858, 13.55118
838.3679, 12.87303
838.8500, 12.85730
839.3322, 13.28169
839.8143, 13.43855
840.2964, 13.10050
840.7785, 12.69549
841.2606, 12.73874
841.7427, 13.08210
842.2249, 13.02863
842.7070, 12.54500
843.1891, 12.58337
843.6712, 13.58876
844.1533, 14.44119
844.6354, 14.05626
845.1176, 12.73752
845.5997, 11.97693
846.0818, 12.05522
846.5639, 12.26902
847.0460, 12.95009
847.5281, 13.40590
848.0103, 13.02474
848.4924, 12.33699
848.9745, 12.17526
849.4566, 12.70232
849.9387, 13.29971
850.4208, 13.91143
850.9030, 14.21450
851.3851, 13.56999
851.8672, 12.51336
852.3493, 12.10985
852.8314, 12.51423
853.3135, 13.13846
853.7957, 13.57378
854.2778, 13.82048
854.7599, 13.84342
855.2420, 13.64641
855.7241, 13.34401
856.2062, 12.87693
856.6884, 12.69580
857.1705, 13.18675
857.6526, 13.91815
858.1347, 14.03350
858.6168, 13.28917
859.0989, 13.03308
859.5811, 13.99054
860.0632, 14.48649
860.5453, 13.67548
861.0274, 12.59817
861.5095, 12.13901
861.9916, 12.29068
862.4738, 12.67123
862.9559, 13.43014
863.4380, 13.84251
863.9201, 12.84419
864.4022, 11.63541
864.8843, 12.01865
865.3665, 13.57298
865.8486, 14.50306
866.3307, 14.06388
866.8128, 13.23006
867.2949, 13.24055
867.7770, 13.87311
868.2592, 14.15986
868.7413, 14.09675
869.2234, 13.84160
869.7055, 13.37099
870.1876, 13.02295
870.6697, 13.19429
871.1519, 13.73846
871.6340, 13.79877
872.1161, 12.90565
872.5981, 12.43082
873.0803, 12.86792
873.5624, 13.26607
874.0445, 13.16551
874.5266, 12.81601
875.0087, 12.54448
875.4908, 12.38863
875.9730, 12.39508
876.4551, 12.82897
876.9372, 13.15922
877.4193, 12.94903
877.9014, 12.49594
878.3835, 12.20176
878.8657, 12.09955
879.3478, 11.95333
879.8299, 11.57357
880.3120, 11.28797
880.7941, 11.69071
881.2762, 12.55000
881.7584, 13.19636
882.2405, 13.56238
882.7226, 13.45443
883.2047, 12.72827
883.6868, 11.95041
884.1689, 11.96680
884.6511, 12.73849
885.1332, 12.96822
885.6153, 12.46615
886.0974, 11.90888
886.5795, 11.12687
887.0616, 10.71833
887.5438, 11.53114
888.0259, 13.05721
888.5080, 13.72240
888.9901, 13.06565
889.4722, 12.56950
889.9543, 12.45656
890.4365, 12.53809
890.9186, 12.90155
891.4007, 13.30152
891.8828, 13.43004
892.3649, 13.24686
892.8470, 12.90454
893.3292, 12.36284
893.8113, 11.85785
894.2934, 11.61874
894.7755, 11.57413
895.2576, 11.56371
895.7397, 11.60961
896.2219, 11.98505
896.7040, 12.84446
897.1861, 13.74167
897.6682, 13.96149
898.1503, 13.58698
898.6324, 13.24528
899.1146, 12.93163
899.5967, 12.78928
900.0788, 12.88620
900.5609, 13.08051
901.0430, 13.23808
901.5251, 13.37064
902.0073, 13.58138
902.4894, 14.17243
902.9715, 14.20745
903.4536, 12.83350
903.9357, 11.84313
904.4178, 12.58625
904.9000, 13.89435
905.3821, 14.08308
905.8642, 12.96765
906.3463, 11.87915
906.8284, 10.64285
907.3105, 10.09829
907.7927, 11.42845
908.2748, 13.08029
908.7569, 13.13208
909.2390, 11.96548
909.7211, 11.49281
910.2032, 12.67601
910.6854, 14.05257
911.1675, 14.27882
911.6496, 13.83083
912.1317, 13.44801
912.6138, 13.10378
913.0959, 12.42394
913.5781, 11.33687
914.0602, 10.39001
914.5423, 10.06322
915.0244, 10.30970
915.5065, 11.30456
915.9886, 13.06266
916.4708, 13.48550
916.9529, 12.05958
917.4350, 10.67598
917.9171, 10.30336
918.3992, 10.69868
918.8813, 11.54026
919.3635, 12.96863
919.8456, 13.78904
920.3277, 13.57966
920.8098, 13.45711
921.2919, 14.00046
921.7740, 14.39433
922.2562, 13.74844
922.7383, 12.50038
923.2204, 12.01170
923.7025, 12.75540
924.1846, 13.44045
924.6667, 13.91779
925.1489, 14.06805
925.6310, 13.55347
926.1131, 12.80798
926.5952, 12.41788
927.0773, 12.44943
927.5594, 12.56369
928.0416, 12.63223
928.5237, 12.61472
929.0058, 12.36023
929.4879, 12.05523
929.9700, 12.00232
930.4521, 12.18952
930.9343, 12.53144
931.4164, 12.97708
931.8985, 13.21886
932.3806, 12.77500
932.8627, 11.88715
933.3448, 11.29244
933.8270, 10.98720
934.3091, 10.95976
934.7912, 11.21760
935.2733, 11.62499
935.7554, 12.12769
936.2375, 12.60870
936.7197, 12.73837
937.2018, 12.41549
937.6839, 12.36793
938.1660, 12.81148
938.6481, 12.96216
939.1302, 12.35426
939.6124, 11.60636
940.0945, 11.34186
940.5766, 11.51951
941.0587, 11.75579
941.5408, 12.17628
942.0229, 12.46197
942.5051, 12.41101
942.9872, 12.42749
943.4693, 12.96043
943.9514, 13.54831
944.4335, 13.45993
944.9156, 12.63564
945.3978, 11.91175
945.8799, 11.56254
946.3620, 11.39406
946.8441, 11.29290
947.3262, 11.33884
947.8083, 11.79392
948.2905, 12.44530
948.7726, 12.77460
949.2547, 12.59007
949.7368, 12.13055
950.2189, 11.36000
950.7010, 10.60330
951.1832, 10.25748
951.6653, 10.28829
952.1474, 10.67833
952.6295, 11.36392
953.1116, 12.09570
953.5938, 12.73594
954.0759, 13.20063
954.5580, 13.34295
955.0400, 13.18524
955.5222, 12.80004
956.0043, 12.19381
956.4864, 11.51993
956.9685, 10.79895
957.4506, 10.28771
957.9327, 10.26087
958.4149, 10.62321
958.8970, 10.97215
959.3791, 11.28687
959.8612, 11.76692
960.3433, 12.64598
960.8254, 13.06656
961.3076, 12.38767
961.7897, 11.35086
962.2718, 10.99165
962.7539, 11.32663
963.2360, 11.46043
963.7181, 11.28980
964.2003, 11.07441
964.6824, 10.47335
965.1645, 10.21749
965.6466, 11.03995
966.1287, 12.32945
966.6108, 13.05782
967.0930, 13.10692
967.5751, 12.91105
968.0572, 12.31312
968.5393, 11.79857
969.0214, 11.73246
969.5035, 11.69391
969.9857, 11.04790
970.4678, 10.12905
970.9499, 9.943881
971.4320, 10.90115
971.9141, 11.85457
972.3962, 12.10940
972.8784, 12.09723
973.3605, 12.21816
973.8426, 12.31788
974.3247, 12.02708
974.8068, 11.40674
975.2889, 10.91505
975.7711, 10.79772
976.2532, 10.93709
976.7353, 11.38340
977.2174, 11.90295
977.6995, 12.05857
978.1816, 11.89481
978.6638, 11.58485
979.1459, 11.20166
979.6280, 10.89218
980.1101, 10.76901
980.5922, 10.81172
981.0743, 11.09853
981.5565, 11.54582
982.0386, 11.59093
982.5207, 11.20384
983.0028, 10.72388
983.4849, 10.25443
983.9670, 10.04315
984.4492, 10.41570
984.9313, 11.22434
985.4134, 11.83160
985.8955, 12.26397
986.3776, 12.15543
986.8597, 11.23259
987.3419, 10.72926
987.8240, 11.46539
988.3061, 12.49576
988.7882, 12.36781
989.2703, 11.09178
989.7524, 10.58620
990.2346, 11.08032
990.7167, 11.88824
991.1988, 13.51176
991.6809, 14.60063
992.1630, 14.01642
992.6451, 12.61249
993.1273, 11.93375
993.6094, 12.10464
994.0915, 12.08729
994.5736, 11.42758
995.0557, 11.19131
995.5378, 12.01517
996.0200, 12.89874
996.5021, 13.28973
996.9842, 13.21970
997.4663, 12.67564
997.9484, 11.54073
998.4305, 10.81622
998.9127, 11.11316
999.3948, 11.42044
999.8769, 11.13757
1000.359, 10.80890
1000.841, 11.07451
1001.323, 11.72468
1001.805, 12.10266
1002.287, 11.99944
1002.770, 11.77777
1003.252, 11.43561
1003.734, 11.24238
1004.216, 11.53807
1004.698, 12.01340
1005.180, 12.29328
1005.662, 12.34235
1006.144, 12.25803
1006.627, 12.06534
1007.109, 11.87433
1007.591, 11.99912
1008.073, 11.99136
1008.555, 10.90914
1009.037, 9.439960
1009.519, 9.077863
1010.001, 9.891638
1010.483, 10.77386
1010.966, 11.10056
1011.448, 11.17867
1011.930, 11.37564
1012.412, 11.57780
1012.894, 11.57238
1013.376, 11.37080
1013.858, 10.94413
1014.340, 10.34086
1014.823, 9.914699
1015.305, 9.909405
1015.787, 10.23099
1016.269, 10.87549
1016.751, 11.70733
1017.233, 12.20400
1017.715, 12.36452
1018.197, 12.38248
1018.679, 12.31054
1019.162, 11.93524
1019.644, 10.97600
1020.126, 9.979609
1020.608, 10.54653
1021.090, 12.48080
1021.572, 12.90601
1022.054, 11.66352
1022.536, 10.54704
1023.018, 10.11948
1023.501, 10.04546
1023.983, 10.04698
1024.465, 10.12635
1024.947, 10.36211
1025.429, 10.21246
1025.911, 10.75546
1026.393, 10.07215
1026.875, 9.607208
1027.358, 9.611435
1027.840, 10.11707
1028.322, 11.31262
1028.804, 12.90355
1029.286, 13.63160
1029.768, 13.37020
1030.250, 12.71721
1030.732, 11.49085
1031.214, 10.39876
1031.697, 9.645204
1032.179, 9.199351
1032.661, 9.049810
1033.143, 9.175473
1033.625, 9.505978
1034.107, 10.28034
1034.589, 10.62251
1035.071, 10.14548
1035.553, 9.941445
1036.036, 10.59056
1036.518, 11.44482
1037.000, 11.81919
1037.482, 11.81355
1037.964, 12.03198
1038.446, 12.81936
1038.928, 13.14357
1039.410, 12.66384
1039.893, 12.18129
1040.375, 11.94598
1040.857, 11.83711
1041.339, 11.83905
1041.821, 11.89125
1042.303, 11.64344
1042.785, 10.74847
1043.267, 10.21791
1043.750, 10.25234
1044.232, 10.45768
1044.714, 11.02810
1045.196, 11.45081
1045.678, 10.99146
1046.160, 9.898511
1046.642, 9.386820
1047.124, 9.889297
1047.606, 10.24798
1048.089, 10.12405
1048.571, 10.06269
1049.053, 10.23431
1049.535, 10.60805
1050.017, 11.42147
1050.499, 12.42598
1050.981, 12.64229
1051.463, 11.48815
1051.945, 10.70325
1052.428, 10.98847
1052.910, 11.31153
1053.392, 11.22749
1053.874, 10.94162
1054.356, 10.47882
1054.838, 10.01512
1055.320, 10.14857
1055.802, 11.30436
1056.285, 11.98956
1056.767, 11.15178
1057.249, 10.50595
1057.731, 11.34109
1058.213, 12.41460
1058.695, 12.31087
1059.177, 11.33544
1059.659, 10.70069
1060.141, 10.70025
1060.624, 10.97869
1061.106, 11.68030
1061.588, 12.30591
1062.070, 12.73423
1062.552, 12.85923
1063.034, 12.36411
1063.516, 11.51941
1063.998, 11.12010
1064.480, 11.46217
1064.963, 11.38079
1065.445, 9.510222
1065.927, 8.205320
1066.409, 9.402780
1066.891, 11.16799
1067.373, 11.51229
1067.855, 10.85145
1068.337, 10.60119
1068.820, 11.11944
1069.302, 11.63167
1069.784, 11.91098
1070.266, 11.97439
1070.748, 11.67475
1071.230, 11.30108
1071.712, 11.21994
1072.194, 11.24215
1072.677, 10.79838
1073.159, 9.786314
1073.641, 9.188245
1074.123, 9.661508
1074.605, 10.36055
1075.087, 11.17497
1075.569, 11.73611
1076.051, 11.47195
1076.533, 10.82051
1077.016, 10.63020
1077.498, 11.02824
1077.980, 11.40958
1078.462, 11.55176
1078.944, 11.57673
1079.426, 11.59825
1079.908, 11.47488
1080.390, 10.89392
1080.872, 10.18912
1081.354, 9.905520
1081.837, 10.08573
1082.319, 10.30190
1082.801, 10.25797
1083.283, 10.48692
1083.765, 11.69166
1084.247, 12.78663
1084.729, 12.87202
1085.211, 12.41632
1085.694, 12.13347
1086.176, 12.02816
1086.658, 11.55127
1087.140, 10.28150
1087.622, 9.309377
1088.104, 9.162538
1088.586, 9.372107
1089.068, 9.753141
1089.551, 10.24413
1090.033, 11.03027
1090.515, 11.87896
1090.997, 11.91254
1091.479, 10.59831
1091.961, 9.842505
1092.443, 10.99029
1092.925, 12.11297
1093.407, 12.21080
1093.890, 11.79733
1094.372, 11.23920
1094.854, 10.65799
1095.336, 10.17464
1095.818, 9.809499
1096.300, 9.602375
1096.782, 9.520785
1097.264, 9.659095
1097.746, 10.24431
1098.229, 10.88399
1098.711, 11.36177
1099.193, 11.62885
1099.675, 11.57381
1100.157, 11.18320
1100.639, 10.92068
1101.121, 11.01228
1101.603, 11.08735
1102.086, 11.27873
1102.568, 11.17445
1103.050, 9.838898
1103.532, 8.446379
1104.014, 9.144525
1104.496, 11.74899
1104.978, 12.83281
1105.460, 10.37484
1105.943, 8.813025
1106.425, 9.623312
1106.907, 10.51384
1107.389, 10.30768
1107.871, 9.790297
1108.353, 9.996676
1108.835, 10.70165
1109.317, 10.64373
1109.799, 9.131186
1110.281, 8.343911
1110.764, 8.961435
1111.246, 9.626908
1111.728, 10.07099
1112.210, 10.31462
1112.692, 10.23943
1113.174, 10.00326
1113.656, 10.08284
1114.138, 9.792150
1114.621, 10.69146
1115.103, 9.501282
1115.585, 8.818069
1116.067, 9.015807
1116.549, 9.668491
1117.031, 10.91009
1117.513, 12.16652
1117.995, 12.44345
1118.478, 11.72937
1118.960, 11.06504
1119.442, 10.24358
1119.924, 10.02567
1120.406, 10.87433
1120.888, 11.48625
1121.370, 11.13969
1121.852, 10.56789
1122.334, 10.66440
1122.817, 11.26118
1123.299, 11.42458
1123.781, 11.05656
1124.263, 10.58739
1124.745, 9.856028
1125.227, 9.734029
1125.709, 10.69228
1126.191, 11.68620
1126.673, 11.86148
1127.156, 11.43491
1127.638, 10.85050
1128.120, 10.09437
1128.602, 9.725820
1129.084, 9.786301
1129.566, 9.785535
1130.048, 9.592576
1130.530, 9.727612
1131.013, 10.57557
1131.495, 11.43797
1131.977, 11.16160
1132.459, 10.06524
1132.941, 9.768258
1133.423, 10.20963
1133.905, 10.57336
1134.387, 10.77186
1134.870, 11.08239
1135.352, 11.61427
1135.834, 11.91533
1136.316, 11.52070
1136.798, 10.69327
1137.280, 9.827497
1137.762, 9.026805
1138.244, 8.641433
1138.726, 8.678493
1139.208, 9.183590
1139.691, 10.09600
1140.173, 10.96914
1140.655, 11.54785
1141.137, 11.80281
1141.619, 11.48540
1142.101, 10.96533
1142.583, 11.09708
1143.065, 11.48167
1143.548, 10.95846
1144.030, 9.733517
1144.512, 9.204035
1144.994, 9.877988
1145.476, 10.65918
1145.958, 10.51122
1146.440, 10.26947
1146.922, 11.14693
1147.405, 12.14429
1147.887, 11.67348
1148.369, 10.41136
1148.851, 9.914598
1149.333, 10.43172
1149.815, 11.23053
1150.297, 12.23511
1150.779, 12.72464
1151.261, 11.73716
1151.744, 10.67260
1152.226, 10.93487
1152.708, 11.43169
1153.190, 10.30706
1153.672, 8.233999
1154.154, 7.856130
1154.636, 10.10645
1155.118, 11.57059
1155.600, 10.50882
1156.083, 9.511163
1156.565, 9.465011
1157.047, 9.795774
1157.529, 10.56636
1158.011, 11.19110
1158.493, 10.35935
1158.975, 8.068590
1159.457, 7.257298
1159.940, 9.521238
1160.422, 10.93644
1160.904, 10.68349
1161.386, 10.61041
1161.868, 11.78429
1162.350, 12.84531
1162.832, 12.37599
1163.314, 10.90784
1163.796, 10.07789
1164.279, 9.944071
1164.761, 10.22311
1165.243, 11.15253
1165.725, 11.59453
1166.207, 11.16775
1166.689, 10.80967
1167.171, 11.09480
1167.653, 11.63043
1168.135, 11.86805
1168.618, 11.85014
1169.100, 11.84565
1169.582, 11.85105
1170.064, 11.47635
1170.546, 10.70317
1171.028, 10.25823
1171.510, 10.38353
1171.992, 10.79042
1172.474, 11.29955
1172.957, 11.68151
1173.439, 11.37232
1173.921, 10.66562
1174.403, 10.44348
1174.885, 10.59829
1175.367, 10.77020
1175.849, 10.87005
1176.331, 10.80495
1176.814, 10.54430
1177.296, 10.35358
1177.778, 10.61403
1178.260, 10.86760
1178.742, 10.31294
1179.224, 9.623045
1179.706, 9.816226
1180.188, 10.57482
1180.671, 11.27824
1181.153, 11.70822
1181.635, 11.58145
1182.117, 10.57152
1182.599, 9.722381
1183.081, 9.474289
1183.563, 9.708154
1184.045, 10.84450
1184.527, 12.00172
1185.010, 12.28847
1185.492, 11.91734
1185.974, 11.41921
1186.456, 10.84297
1186.938, 10.64396
1187.420, 11.10316
1187.902, 11.62914
1188.384, 12.37741
1188.866, 12.86386
1189.349, 12.73993
1189.831, 12.39434
1190.313, 12.20259
1190.795, 12.12959
1191.277, 12.03452
1191.759, 11.90758
1192.241, 11.80966
1192.723, 11.76354
1193.206, 11.68175
1193.688, 11.57597
1194.170, 11.27749
1194.652, 10.62649
1195.134, 9.964341
1195.616, 9.796057
1196.098, 10.00692
1196.580, 10.10707
1197.063, 10.11661
1197.545, 10.30671
1198.027, 10.65907
1198.509, 10.80538
1198.991, 10.64849
1199.473, 10.35915
1199.955, 10.03461
1200.437, 9.805505
1200.919, 9.962285
1201.401, 9.733649
1201.884, 10.09375
1202.366, 9.768591
1202.848, 9.785529
1203.330, 10.11490
1203.812, 10.62175
1204.294, 11.18641
1204.776, 11.12489
1205.258, 9.519543
1205.741, 8.211073
1206.223, 8.539799
1206.705, 9.450089
1207.187, 10.59238
1207.669, 11.49815
1208.151, 11.48862
1208.633, 10.81179
1209.115, 10.38843
1209.598, 10.42381
1210.080, 10.39884
1210.562, 10.09377
1211.044, 9.930761
1211.526, 10.12274
1212.008, 10.31402
1212.490, 10.34643
1212.972, 10.28968
1213.454, 10.20861
1213.937, 10.11258
1214.419, 10.05330
1214.901, 10.04785
1215.383, 9.967153
1215.865, 9.773479
1216.347, 9.752934
1216.829, 9.986037
1217.311, 10.24713
1217.793, 10.40046
1218.276, 10.56923
1218.758, 10.99759
1219.240, 11.46001
1219.722, 11.16272
1220.204, 10.36561
1220.686, 10.00331
1221.168, 10.05523
1221.650, 10.12240
1222.133, 10.11682
1222.615, 10.28648
1223.097, 10.82918
1223.579, 11.03409
1224.061, 9.903977
1224.543, 8.502321
1225.025, 7.369361
1225.507, 6.971599
1225.990, 8.609852
1226.472, 11.07771
1226.954, 11.86754
1227.436, 10.73324
1227.918, 9.836864
1228.400, 9.903172
1228.882, 10.03561
1229.364, 9.986734
1229.846, 10.02193
1230.328, 10.41396
1230.811, 10.75587
1231.293, 10.73369
1231.775, 10.45222
1232.257, 9.979220
1232.739, 9.321860
1233.221, 9.667461
1233.703, 11.46676
1234.185, 12.16620
1234.668, 11.37799
1235.150, 10.55436
1235.632, 10.12713
1236.114, 10.26106
1236.596, 11.21522
1237.078, 12.12140
1237.560, 10.98519
1238.042, 11.42311
1238.525, 11.37623
1239.007, 10.56386
1239.489, 11.17183
1239.971, 10.67035
1240.453, 10.11997
1240.935, 9.889938
1241.417, 10.00334
1241.899, 10.61930
1242.381, 11.07128
1242.864, 10.49737
1243.346, 9.906157
1243.828, 10.42588
1244.310, 11.15982
1244.792, 10.94582
1245.274, 10.13868
1245.756, 9.640918
1246.238, 9.590317
1246.720, 9.864931
1247.203, 10.90029
1247.685, 11.50874
1248.167, 11.39646
1248.649, 11.15779
1249.131, 10.84652
1249.613, 10.68148
1250.095, 10.90462
1250.577, 11.27651
1251.059, 11.33071
1251.542, 11.08599
1252.024, 10.78602
1252.506, 10.42849
1252.988, 9.575791
1253.470, 8.271979
1253.952, 8.293441
1254.434, 10.07413
1254.916, 11.47659
1255.399, 10.96787
1255.881, 9.728361
1256.363, 8.929388
1256.845, 8.572407
1257.327, 8.815219
1257.809, 9.411012
1258.291, 10.08299
1258.773, 10.75414
1259.255, 11.50358
1259.738, 12.24840
1260.220, 12.41211
1260.702, 11.58434
1261.184, 10.73800
1261.666, 9.810491
1262.148, 9.419806
1262.630, 10.58803
1263.112, 11.54808
1263.594, 10.56417
1264.077, 8.980395
1264.559, 8.872007
1265.041, 10.02041
1265.523, 10.53016
1266.005, 10.24869
1266.487, 10.23133
1266.969, 10.53512
1267.451, 10.86473
1267.934, 11.15402
1268.416, 11.36250
1268.898, 11.47296
1269.380, 11.38693
1269.862, 10.84159
1270.344, 10.27512
1270.826, 10.87802
1271.308, 10.10674
1271.791, 11.14354
1272.273, 9.628833
1272.755, 8.935103
1273.237, 9.236731
1273.719, 9.982839
1274.201, 11.03763
1274.683, 11.66688
1275.165, 11.49391
1275.647, 10.91101
1276.130, 9.273225
1276.612, 8.192097
1277.094, 9.079007
1277.576, 10.60658
1278.058, 11.52444
1278.540, 11.85770
1279.022, 11.51273
1279.504, 10.35726
1279.986, 10.44532
1280.469, 11.88978
1280.951, 13.82973
1281.433, 16.17446
1281.915, 18.94328
1282.397, 22.16303
1282.879, 25.00299
1283.361, 26.24980
1283.843, 30.41385
1284.326, 42.84992
1284.808, 63.61590
##END=



