##NAMES=Rammelsbergite
##RRUFFID=R061021
##IDEAL CHEMISTRY=NiAs_2_
##LOCALITY=Schneckenstei, Vogtland, Saxony, Germany
##OWNER=RRUFF
##SOURCE=Michael Scott
##DESCRIPTION=Tin-white metallic massive
##STATUS=The identification of this mineral has been confirmed by X-ray diffraction and chemical analysis
##URL=rruff.info/R061021
##MEASURED CHEMISTRY=(Ni_0.96_Co_0.03_Fe_0.01_)_Î£=1_As_2.00_ ; trace amounts of S
109.9513, 296.7869
110.4335, 286.7573
110.9156, 280.8927
111.3977, 282.9332
111.8798, 287.6702
112.3619, 291.5482
112.8440, 291.8943
113.3262, 293.4767
113.8083, 297.7961
114.2904, 305.2320
114.7725, 312.8509
115.2546, 319.1507
115.7367, 325.4388
116.2189, 333.5060
116.7010, 349.6830
117.1831, 363.7993
117.6652, 369.0550
118.1473, 360.0626
118.6294, 352.1221
119.1116, 353.5386
119.5937, 362.0245
120.0758, 370.9494
120.5579, 372.5973
121.0400, 374.7572
121.5221, 385.9500
122.0043, 418.2791
122.4864, 451.4174
122.9685, 468.9635
123.4506, 471.4513
123.9327, 466.9595
124.4148, 456.2388
124.8969, 442.9255
125.3791, 434.0089
125.8612, 431.9317
126.3433, 436.2108
126.8254, 447.4959
127.3075, 466.5431
127.7896, 488.6512
128.2718, 510.6516
128.7539, 532.0829
129.2360, 549.8864
129.7181, 560.2916
130.2002, 565.4538
130.6823, 573.6426
131.1645, 588.0648
131.6466, 602.7050
132.1287, 603.9839
132.6108, 591.3970
133.0929, 576.3417
133.5750, 566.4165
134.0572, 561.5671
134.5393, 561.1865
135.0214, 565.9325
135.5035, 574.9977
135.9856, 583.0862
136.4677, 588.4182
136.9499, 597.6263
137.4320, 622.2177
137.9141, 665.9392
138.3962, 704.0651
138.8783, 730.9109
139.3604, 746.6446
139.8426, 745.3447
140.3247, 722.1549
140.8068, 686.3521
141.2889, 653.2383
141.7710, 621.2506
142.2531, 595.7755
142.7353, 580.4265
143.2174, 580.5626
143.6995, 577.1486
144.1816, 567.4166
144.6637, 553.2888
145.1458, 544.7807
145.6280, 546.4977
146.1101, 548.8986
146.5922, 545.7084
147.0743, 533.1402
147.5564, 520.5176
148.0385, 507.2729
148.5207, 493.1333
149.0028, 485.6608
149.4849, 490.5785
149.9670, 499.5058
150.4491, 504.3258
150.9312, 499.7461
151.4134, 496.3734
151.8955, 496.4919
152.3776, 501.1880
152.8597, 505.7027
153.3418, 511.2815
153.8239, 516.3018
154.3061, 518.3141
154.7882, 517.8457
155.2703, 513.7092
155.7524, 505.1364
156.2345, 490.0566
156.7166, 474.0509
157.1988, 453.8449
157.6809, 432.7741
158.1630, 420.1770
158.6451, 425.8894
159.1272, 436.3787
159.6093, 443.7887
160.0915, 441.2791
160.5736, 440.6190
161.0557, 446.9341
161.5378, 459.2746
162.0199, 470.4980
162.5020, 481.7676
162.9841, 488.9510
163.4663, 488.3895
163.9484, 471.0708
164.4305, 451.9947
164.9126, 438.5746
165.3947, 431.2231
165.8768, 425.6592
166.3590, 417.4419
166.8411, 410.0013
167.3232, 408.0910
167.8053, 421.2805
168.2874, 436.1742
168.7695, 441.4672
169.2517, 434.2393
169.7338, 425.8011
170.2159, 425.3059
170.6980, 429.9120
171.1801, 432.8977
171.6622, 429.2968
172.1444, 422.8047
172.6265, 417.5716
173.1086, 414.8539
173.5907, 412.3774
174.0728, 406.6019
174.5549, 398.5247
175.0371, 392.7582
175.5192, 394.1652
176.0013, 399.5215
176.4834, 403.5730
176.9655, 403.7742
177.4476, 403.3166
177.9298, 407.9957
178.4119, 417.4426
178.8940, 424.3987
179.3761, 420.0563
179.8582, 408.5658
180.3403, 400.0922
180.8225, 399.0912
181.3046, 402.8803
181.7867, 406.8864
182.2688, 411.0519
182.7509, 415.6708
183.2330, 423.2469
183.7152, 432.3002
184.1973, 437.0072
184.6794, 430.8422
185.1615, 418.1327
185.6436, 412.6037
186.1257, 415.6270
186.6079, 421.3267
187.0900, 420.6908
187.5721, 414.4175
188.0542, 409.9780
188.5363, 414.2852
189.0184, 424.7590
189.5006, 427.4097
189.9827, 418.9317
190.4648, 406.6656
190.9469, 403.9160
191.4290, 410.9318
191.9111, 420.2142
192.3932, 428.3532
192.8754, 435.1996
193.3575, 439.0397
193.8396, 438.8787
194.3217, 436.3103
194.8038, 435.2504
195.2859, 435.7620
195.7681, 437.4004
196.2502, 440.7789
196.7323, 445.9536
197.2144, 448.6100
197.6965, 446.3680
198.1786, 441.3033
198.6608, 442.6805
199.1429, 451.6541
199.6250, 463.3922
200.1071, 473.2669
200.5892, 480.9496
201.0714, 489.7505
201.5535, 500.0902
202.0356, 512.0810
202.5177, 529.5707
202.9998, 556.4019
203.4819, 580.3224
203.9641, 582.2392
204.4462, 557.2005
204.9283, 534.7281
205.4104, 524.5896
205.8925, 527.3297
206.3746, 531.4043
206.8568, 539.0068
207.3389, 544.9227
207.8210, 539.5812
208.3031, 519.8639
208.7852, 499.7064
209.2673, 484.0919
209.7495, 473.4388
210.2316, 465.5314
210.7137, 461.8258
211.1958, 459.6439
211.6779, 452.6812
212.1600, 438.3413
212.6422, 425.7425
213.1243, 420.1224
213.6064, 424.3783
214.0885, 424.3712
214.5706, 417.3119
215.0527, 406.7191
215.5349, 403.2608
216.0170, 409.5881
216.4991, 417.6766
216.9812, 423.6779
217.4633, 427.8385
217.9454, 428.3761
218.4276, 422.3730
218.9097, 412.7001
219.3918, 412.6392
219.8739, 427.7523
220.3560, 443.6831
220.8381, 449.9885
221.3203, 440.4942
221.8024, 437.2108
222.2845, 444.4278
222.7666, 460.5627
223.2487, 473.0435
223.7308, 478.9579
224.2129, 484.9057
224.6951, 496.9934
225.1772, 520.8677
225.6593, 538.7457
226.1414, 547.6059
226.6235, 547.6000
227.1056, 544.1403
227.5878, 533.6392
228.0699, 523.5645
228.5520, 521.3812
229.0341, 533.2440
229.5162, 540.6635
229.9983, 538.2980
230.4805, 525.4359
230.9626, 518.6700
231.4447, 520.5490
231.9268, 526.3243
232.4089, 530.9927
232.8910, 534.2922
233.3732, 537.1090
233.8553, 539.4551
234.3374, 541.2256
234.8195, 543.6840
235.3016, 547.5949
235.7837, 551.6139
236.2659, 554.0491
236.7480, 554.5768
237.2301, 554.0953
237.7122, 552.8828
238.1943, 551.0374
238.6764, 548.2970
239.1586, 546.5692
239.6407, 542.6514
240.1228, 531.0193
240.6049, 505.9998
241.0870, 482.4990
241.5691, 464.8812
242.0513, 453.9655
242.5334, 445.9531
243.0155, 441.4118
243.4976, 439.4490
243.9797, 439.1077
244.4618, 442.9750
244.9440, 444.1846
245.4261, 439.2261
245.9082, 424.1987
246.3903, 415.1559
246.8724, 413.8239
247.3545, 417.6955
247.8367, 422.5452
248.3188, 431.2661
248.8009, 436.2460
249.2830, 433.9941
249.7651, 421.9586
250.2472, 409.8892
250.7294, 397.5916
251.2115, 385.3717
251.6936, 373.8430
252.1757, 362.7474
252.6578, 352.7369
253.1399, 343.7813
253.6220, 335.4419
254.1042, 329.4501
254.5863, 326.9700
255.0684, 326.4710
255.5505, 323.8676
256.0326, 317.6816
256.5147, 311.8014
256.9969, 308.0813
257.4790, 307.5520
257.9611, 306.2093
258.4432, 303.0302
258.9253, 299.2130
259.4074, 299.0504
259.8896, 305.4272
260.3717, 310.2507
260.8538, 308.9087
261.3359, 298.8047
261.8180, 290.0432
262.3001, 282.6817
262.7823, 277.0128
263.2644, 273.8219
263.7465, 273.4889
264.2286, 274.9486
264.7107, 278.5273
265.1928, 286.0242
265.6750, 288.7662
266.1571, 283.8018
266.6392, 274.6951
267.1213, 273.2629
267.6034, 282.5580
268.0855, 292.6104
268.5677, 297.8402
269.0498, 297.6264
269.5319, 295.1312
270.0140, 289.5826
270.4961, 282.3292
270.9782, 278.1051
271.4604, 278.1221
271.9425, 277.7173
272.4246, 273.3660
272.9067, 264.0916
273.3888, 256.5332
273.8709, 250.8244
274.3531, 247.4434
274.8352, 248.9350
275.3173, 256.8243
275.7994, 264.3593
276.2815, 266.7945
276.7636, 263.6223
277.2458, 260.4405
277.7279, 257.4050
278.2100, 255.0247
278.6921, 255.7044
279.1742, 260.3390
279.6563, 263.6328
280.1385, 260.2761
280.6206, 250.0699
281.1027, 245.0528
281.5848, 248.2213
282.0669, 255.7759
282.5490, 257.6472
283.0312, 253.1375
283.5133, 248.3768
283.9954, 247.8536
284.4775, 251.3952
284.9596, 254.1354
285.4417, 255.4885
285.9239, 255.8275
286.4060, 255.7916
286.8881, 255.3674
287.3702, 254.9023
287.8523, 254.4106
288.3344, 253.9725
288.8166, 254.3323
289.2987, 255.8173
289.7808, 257.7317
290.2629, 259.5779
290.7450, 261.2831
291.2271, 260.7020
291.7093, 253.4552
292.1914, 241.9418
292.6735, 236.9372
293.1556, 241.2052
293.6377, 249.6740
294.1198, 255.5042
294.6020, 258.7486
295.0841, 259.7254
295.5662, 257.7397
296.0483, 253.6269
296.5304, 249.5135
297.0125, 245.4739
297.4947, 242.0041
297.9768, 239.5055
298.4589, 238.0692
298.9410, 238.2542
299.4231, 242.9987
299.9052, 249.2019
300.3873, 250.1203
300.8694, 243.8093
301.3516, 235.6682
301.8337, 231.2256
302.3158, 229.8433
302.7979, 229.3230
303.2800, 228.1347
303.7621, 227.1367
304.2443, 227.5784
304.7264, 229.7367
305.2085, 232.8085
305.6906, 237.1891
306.1727, 242.0429
306.6548, 245.4271
307.1370, 245.2325
307.6191, 243.5750
308.1012, 242.8749
308.5833, 243.7104
309.0654, 243.8661
309.5475, 239.3363
310.0297, 233.0923
310.5118, 230.6169
310.9939, 240.4986
311.4760, 251.2932
311.9581, 253.1782
312.4402, 243.8396
312.9224, 234.4433
313.4045, 230.7897
313.8866, 231.1231
314.3687, 232.9142
314.8508, 237.2458
315.3329, 241.1320
315.8151, 242.3789
316.2972, 240.5313
316.7793, 239.2464
317.2614, 241.9299
317.7435, 245.4570
318.2256, 246.1122
318.7078, 237.4462
319.1899, 230.4079
319.6720, 231.4136
320.1541, 241.4162
320.6362, 247.3041
321.1183, 240.5797
321.6005, 229.8895
322.0826, 223.4982
322.5647, 227.8701
323.0468, 232.0423
323.5289, 232.4258
324.0110, 228.7953
324.4932, 227.0511
324.9753, 231.0530
325.4574, 235.7033
325.9395, 237.1005
326.4216, 228.4728
326.9037, 223.6042
327.3859, 227.5372
327.8680, 239.7905
328.3501, 244.8195
328.8322, 235.5100
329.3143, 223.9607
329.7964, 217.6358
330.2786, 220.9799
330.7607, 223.2897
331.2428, 223.8016
331.7249, 222.6513
332.2070, 220.4717
332.6891, 215.7885
333.1713, 211.7527
333.6534, 210.0469
334.1355, 210.7876
334.6176, 213.9078
335.0997, 221.4454
335.5818, 230.9922
336.0640, 234.0715
336.5461, 227.3076
337.0282, 220.5631
337.5103, 219.5155
337.9924, 226.1505
338.4745, 229.7319
338.9567, 229.4375
339.4388, 226.2713
339.9209, 221.2102
340.4030, 213.1980
340.8851, 207.9761
341.3672, 209.9126
341.8494, 219.3165
342.3315, 225.2263
342.8136, 226.9555
343.2957, 226.4402
343.7778, 226.7910
344.2599, 228.0514
344.7421, 228.4990
345.2242, 226.9173
345.7063, 223.7068
346.1884, 220.8421
346.6705, 218.1589
347.1526, 216.6446
347.6348, 219.2876
348.1169, 224.9884
348.5990, 227.7135
349.0811, 222.8389
349.5632, 214.0682
350.0453, 208.0428
350.5275, 204.7771
351.0096, 205.5141
351.4917, 215.4299
351.9738, 230.3263
352.4559, 240.3263
352.9380, 240.7234
353.4202, 235.8824
353.9023, 229.1801
354.3844, 220.9626
354.8665, 214.1922
355.3486, 211.3833
355.8307, 211.1244
356.3129, 211.6007
356.7950, 212.2498
357.2771, 213.6116
357.7592, 217.2927
358.2413, 222.3880
358.7234, 225.5644
359.2056, 223.7030
359.6877, 219.9895
360.1698, 216.4989
360.6519, 212.3362
361.1340, 211.1039
361.6161, 219.0885
362.0982, 231.1273
362.5804, 236.1030
363.0625, 219.7582
363.5446, 203.5970
364.0267, 199.6114
364.5088, 214.1805
364.9909, 225.7866
365.4731, 229.2130
365.9552, 227.2908
366.4373, 224.0481
366.9194, 215.6298
367.4015, 210.1841
367.8836, 212.1739
368.3658, 224.9301
368.8479, 229.4814
369.3300, 216.7048
369.8121, 200.2759
370.2942, 193.7463
370.7763, 205.7256
371.2585, 215.3324
371.7406, 218.6670
372.2227, 215.8884
372.7048, 213.5924
373.1869, 212.1165
373.6690, 210.7177
374.1512, 208.3339
374.6333, 203.5214
375.1154, 202.3186
375.5975, 207.2071
376.0796, 215.8265
376.5617, 217.9833
377.0439, 211.7769
377.5260, 205.3828
378.0081, 204.6741
378.4902, 210.0545
378.9723, 213.6572
379.4544, 215.2576
379.9366, 214.3652
380.4187, 207.6147
380.9008, 194.8665
381.3829, 186.0957
381.8650, 189.6366
382.3471, 202.1480
382.8293, 208.6269
383.3114, 207.8655
383.7935, 204.8413
384.2756, 206.6434
384.7577, 211.6512
385.2398, 213.4215
385.7220, 204.6870
386.2041, 192.9550
386.6862, 191.4676
387.1683, 200.0976
387.6504, 209.0783
388.1325, 209.3152
388.6147, 204.9362
389.0968, 202.6543
389.5789, 207.3603
390.0610, 211.9649
390.5431, 209.5841
391.0252, 201.6468
391.5074, 194.9722
391.9895, 191.9798
392.4716, 192.3710
392.9537, 196.7366
393.4358, 209.3391
393.9179, 218.2254
394.4001, 216.1466
394.8822, 207.0327
395.3643, 199.8153
395.8464, 198.5123
396.3285, 198.4827
396.8106, 196.9857
397.2928, 191.7891
397.7749, 191.1992
398.2570, 202.6783
398.7391, 217.3275
399.2212, 223.3831
399.7033, 211.0465
400.1855, 200.7219
400.6676, 197.1067
401.1497, 200.7221
401.6318, 202.3787
402.1139, 200.5228
402.5960, 198.2836
403.0782, 198.8407
403.5603, 204.8100
404.0424, 206.6992
404.5245, 201.2558
405.0066, 190.9700
405.4887, 186.7691
405.9709, 189.9945
406.4530, 195.3252
406.9351, 200.6041
407.4172, 205.9837
407.8993, 207.1694
408.3814, 202.5870
408.8636, 195.8799
409.3457, 194.1531
409.8278, 197.2039
410.3099, 199.7638
410.7920, 198.3350
411.2741, 194.3579
411.7563, 192.5603
412.2384, 193.2391
412.7205, 194.4336
413.2026, 193.0644
413.6847, 190.5466
414.1668, 190.6734
414.6490, 197.9214
415.1311, 206.1324
415.6132, 207.3045
416.0953, 202.2056
416.5774, 197.6215
417.0595, 198.5495
417.5417, 201.9139
418.0238, 204.6936
418.5059, 206.7658
418.9880, 207.0445
419.4701, 204.1800
419.9522, 199.0060
420.4344, 193.6700
420.9165, 187.0332
421.3986, 181.9702
421.8807, 180.7454
422.3628, 185.5229
422.8449, 187.6738
423.3270, 181.0685
423.8091, 172.4272
424.2913, 170.1369
424.7734, 183.8925
425.2555, 194.6053
425.7376, 198.2794
426.2197, 194.7815
426.7018, 190.3932
427.1840, 182.3486
427.6661, 176.2528
428.1482, 177.0353
428.6303, 188.6620
429.1124, 196.9171
429.5945, 200.0240
430.0767, 199.1352
430.5588, 197.2471
431.0409, 194.0555
431.5230, 191.0704
432.0051, 188.9663
432.4872, 187.7414
432.9694, 187.3273
433.4515, 187.6280
433.9336, 189.0004
434.4157, 193.4722
434.8978, 200.3323
435.3799, 204.2189
435.8621, 201.5062
436.3442, 194.9910
436.8263, 189.7797
437.3084, 185.8494
437.7905, 183.4203
438.2726, 182.9810
438.7548, 184.0884
439.2369, 186.2766
439.7190, 190.4197
440.2011, 194.0312
440.6832, 194.4347
441.1653, 192.5730
441.6475, 191.1073
442.1296, 193.0317
442.6117, 194.5932
443.0938, 192.6077
443.5759, 185.2986
444.0580, 179.6812
444.5402, 178.8627
445.0223, 180.8352
445.5044, 183.1910
445.9865, 185.0576
446.4686, 187.7357
446.9507, 192.7176
447.4329, 200.1177
447.9150, 203.6637
448.3971, 200.3496
448.8792, 195.8502
449.3613, 193.8625
449.8434, 196.6595
450.3256, 196.6399
450.8077, 191.4509
451.2898, 184.0981
451.7719, 183.7142
452.2540, 193.1008
452.7361, 199.9480
453.2183, 197.2595
453.7004, 185.2732
454.1825, 176.8121
454.6646, 172.0851
455.1467, 170.3806
455.6288, 172.3901
456.1110, 177.4449
456.5931, 181.0100
457.0752, 181.0723
457.5573, 179.3282
458.0394, 177.6950
458.5215, 176.3928
459.0037, 177.3986
459.4858, 185.5226
459.9679, 195.6381
460.4500, 199.7194
460.9321, 194.7373
461.4142, 189.1429
461.8964, 189.6162
462.3785, 193.6242
462.8606, 196.3892
463.3427, 195.7308
463.8248, 193.5815
464.3069, 190.4531
464.7891, 186.2812
465.2712, 182.7513
465.7533, 180.0535
466.2354, 178.2865
466.7175, 177.5604
467.1996, 178.8047
467.6818, 180.0095
468.1639, 181.6613
468.6460, 183.2230
469.1281, 182.4362
469.6102, 175.8447
470.0923, 172.1980
470.5745, 176.7534
471.0566, 192.4878
471.5387, 200.2598
472.0208, 198.6548
472.5029, 191.4545
472.9850, 180.4581
473.4672, 165.0131
473.9493, 158.0590
474.4314, 166.9938
474.9135, 184.6429
475.3956, 189.4899
475.8777, 181.7195
476.3599, 172.7100
476.8420, 171.8807
477.3241, 175.9880
477.8062, 177.3833
478.2883, 173.9365
478.7704, 171.2392
479.2526, 176.7583
479.7347, 187.0798
480.2168, 194.8260
480.6989, 195.9021
481.1810, 193.9596
481.6631, 190.1291
482.1453, 184.5724
482.6274, 180.8001
483.1095, 181.5680
483.5916, 183.9888
484.0737, 185.8925
484.5558, 188.8457
485.0379, 188.8157
485.5201, 181.5053
486.0022, 170.7042
486.4843, 166.6430
486.9664, 174.5056
487.4485, 182.8664
487.9306, 188.7245
488.4128, 192.1022
488.8949, 192.0974
489.3770, 187.1957
489.8591, 181.3656
490.3412, 179.2852
490.8233, 181.5986
491.3055, 181.9664
491.7876, 178.6190
492.2697, 173.2076
492.7518, 168.7187
493.2339, 165.2294
493.7160, 164.8100
494.1982, 172.3698
494.6803, 183.5821
495.1624, 186.7333
495.6445, 180.2040
496.1266, 172.7754
496.6087, 172.8895
497.0909, 177.5563
497.5730, 181.6638
498.0551, 183.4611
498.5372, 183.8937
499.0193, 183.3319
499.5014, 181.8366
499.9836, 179.6840
500.4657, 174.1691
500.9478, 170.1061
501.4299, 171.1005
501.9120, 181.4850
502.3941, 187.6252
502.8763, 184.3738
503.3584, 177.0430
503.8405, 172.5886
504.3226, 172.8828
504.8047, 173.1036
505.2868, 171.4744
505.7690, 168.6303
506.2511, 171.1708
506.7332, 182.0353
507.2153, 191.2576
507.6974, 190.8047
508.1795, 180.4517
508.6617, 173.0062
509.1438, 169.7208
509.6259, 168.5873
510.1080, 167.1958
510.5901, 165.5259
511.0722, 163.3096
511.5544, 158.0990
512.0365, 153.7245
512.5186, 158.2649
513.0007, 170.6841
513.4828, 181.4553
513.9650, 182.0202
514.4471, 178.5008
514.9292, 177.7270
515.4113, 182.5739
515.8934, 186.1864
516.3755, 183.5858
516.8576, 178.0179
517.3397, 174.6029
517.8218, 178.3907
518.3040, 180.7468
518.7861, 176.9458
519.2682, 166.6445
519.7503, 163.6615
520.2324, 174.6048
520.7145, 186.1665
521.1967, 190.3120
521.6788, 184.3913
522.1609, 178.4542
522.6430, 171.9483
523.1251, 166.4915
523.6072, 165.9110
524.0894, 170.6595
524.5715, 174.6904
525.0536, 175.6916
525.5357, 174.4669
526.0178, 173.2625
526.4999, 172.0777
526.9821, 171.3844
527.4642, 171.9893
527.9463, 173.2381
528.4284, 174.1531
528.9105, 174.8082
529.3926, 174.3065
529.8748, 169.9188
530.3569, 164.1346
530.8390, 161.3141
531.3211, 167.2078
531.8032, 172.6824
532.2853, 173.9210
532.7675, 170.9438
533.2496, 165.8999
533.7317, 154.6261
534.2138, 144.8653
534.6959, 140.9642
535.1780, 145.8064
535.6602, 150.9850
536.1423, 157.0282
536.6244, 163.0978
537.1065, 168.2438
537.5886, 172.6414
538.0707, 175.3461
538.5529, 175.9530
539.0350, 174.7159
539.5171, 171.7836
539.9992, 166.8979
540.4813, 163.9841
540.9634, 167.9757
541.4456, 176.1609
541.9277, 179.6714
542.4098, 176.8676
542.8919, 173.9183
543.3740, 180.9142
543.8561, 191.6286
544.3383, 194.9513
544.8204, 179.4165
545.3025, 161.8456
545.7846, 150.3581
546.2667, 144.7885
546.7488, 144.4321
547.2310, 157.4147
547.7131, 168.7627
548.1952, 169.8506
548.6773, 154.2200
549.1594, 145.3941
549.6415, 148.0014
550.1237, 154.7598
550.6058, 158.1244
551.0879, 155.3490
551.5700, 156.8623
552.0521, 166.6023
552.5342, 180.1837
553.0164, 184.2221
553.4985, 178.0160
553.9806, 169.0415
554.4627, 158.4526
554.9448, 147.9151
555.4269, 145.3311
555.9091, 151.0426
556.3912, 158.6430
556.8733, 164.2935
557.3554, 167.3710
557.8375, 165.9749
558.3196, 156.3785
558.8018, 148.2636
559.2839, 149.5348
559.7660, 156.9993
560.2481, 163.9850
560.7302, 169.2318
561.2123, 172.5513
561.6945, 173.7684
562.1766, 172.8317
562.6587, 170.2463
563.1408, 164.9035
563.6229, 159.0294
564.1050, 153.5371
564.5872, 147.5003
565.0693, 144.4250
565.5514, 145.0203
566.0335, 147.8023
566.5156, 150.7054
566.9977, 153.7529
567.4799, 156.2364
567.9620, 157.4154
568.4441, 158.1962
568.9262, 162.4079
569.4083, 169.5102
569.8904, 173.2443
570.3726, 162.6604
570.8547, 149.1603
571.3368, 150.9034
571.8189, 172.0852
572.3010, 189.2790
572.7831, 182.2787
573.2653, 165.3308
573.7474, 154.4091
574.2295, 159.2420
574.7116, 164.4835
575.1937, 166.7433
575.6758, 166.7157
576.1580, 166.7274
576.6401, 168.2061
577.1222, 167.9297
577.6043, 164.0834
578.0864, 156.3141
578.5685, 151.9832
579.0507, 151.8605
579.5328, 153.0352
580.0149, 152.8706
580.4970, 151.5093
580.9791, 152.1637
581.4612, 156.0213
581.9434, 159.5292
582.4255, 155.2344
582.9076, 146.0752
583.3897, 140.9344
583.8718, 147.7339
584.3539, 156.9652
584.8361, 159.6311
585.3182, 156.9377
585.8003, 155.1059
586.2824, 158.7141
586.7645, 162.8556
587.2466, 164.5325
587.7288, 162.7931
588.2109, 160.8121
588.6930, 158.1832
589.1751, 155.9424
589.6572, 155.0087
590.1393, 155.7375
590.6215, 157.0780
591.1036, 159.2094
591.5857, 161.6952
592.0678, 163.8511
592.5499, 165.8089
593.0320, 166.0014
593.5142, 162.3387
593.9963, 156.6165
594.4784, 155.1543
594.9605, 157.8030
595.4426, 160.5875
595.9247, 161.6161
596.4069, 160.5233
596.8890, 155.6395
597.3711, 145.0782
597.8532, 137.1912
598.3353, 138.4481
598.8174, 144.2980
599.2996, 149.1166
599.7817, 152.1567
600.2638, 153.2132
600.7459, 150.7161
601.2280, 145.9096
601.7101, 143.5583
602.1923, 145.2746
602.6744, 146.7493
603.1565, 146.2529
603.6386, 143.7822
604.1207, 141.3385
604.6028, 138.6200
605.0850, 137.1430
605.5671, 140.6765
606.0492, 147.2314
606.5313, 146.3998
607.0134, 134.8623
607.4955, 122.9816
607.9777, 123.1595
608.4598, 131.1387
608.9419, 138.5969
609.4240, 142.7501
609.9061, 144.7973
610.3882, 144.9997
610.8704, 143.5581
611.3525, 141.2162
611.8346, 136.4929
612.3167, 132.4015
612.7988, 130.3105
613.2809, 130.4177
613.7631, 130.9253
614.2452, 131.4495
614.7273, 132.9072
615.2094, 137.5517
615.6915, 146.5056
616.1736, 147.7792
616.6558, 138.2861
617.1379, 125.3861
617.6200, 119.7732
618.1021, 120.6276
618.5842, 124.0645
619.0663, 129.7599
619.5485, 136.2227
620.0306, 143.8845
620.5127, 151.4368
620.9948, 153.9378
621.4769, 140.6980
621.9590, 127.9465
622.4412, 127.5482
622.9233, 142.1149
623.4054, 152.9624
623.8875, 154.3208
624.3696, 152.2494
624.8517, 150.4174
625.3339, 147.4686
625.8160, 148.3814
626.2981, 155.3230
626.7802, 163.6532
627.2623, 165.6717
627.7444, 161.0661
628.2266, 157.0957
628.7087, 156.2783
629.1908, 156.6364
629.6729, 153.4121
630.1550, 147.4021
630.6371, 142.6349
631.1193, 142.6193
631.6014, 144.2404
632.0835, 144.8747
632.5656, 144.3737
633.0477, 142.8924
633.5298, 138.1019
634.0120, 133.9434
634.4941, 133.6017
634.9762, 141.0867
635.4583, 144.9494
635.9404, 142.1016
636.4225, 137.4487
636.9047, 137.0119
637.3868, 142.3221
637.8689, 146.2167
638.3510, 146.9717
638.8331, 146.1934
639.3152, 148.4213
639.7973, 153.3196
640.2794, 156.2387
640.7615, 152.4690
641.2437, 146.4677
641.7258, 145.9835
642.2079, 150.3286
642.6900, 153.8900
643.1721, 151.7353
643.6542, 148.3998
644.1364, 148.1338
644.6185, 152.8771
645.1006, 154.6689
645.5827, 150.2627
646.0648, 142.8304
646.5469, 134.7311
647.0291, 121.6570
647.5112, 117.0573
647.9933, 124.9440
648.4754, 138.6568
648.9575, 145.6340
649.4396, 145.6805
649.9218, 143.8946
650.4039, 140.8251
650.8860, 137.8784
651.3681, 139.4269
651.8502, 144.5149
652.3323, 147.7517
652.8145, 144.4787
653.2966, 138.8401
653.7787, 133.5174
654.2608, 128.7638
654.7429, 126.9587
655.2250, 131.0269
655.7072, 137.0206
656.1893, 142.3078
656.6714, 146.0880
657.1535, 150.4639
657.6356, 157.4961
658.1177, 163.1917
658.5999, 161.8205
659.0820, 151.8212
659.5641, 143.8288
660.0462, 139.6689
660.5283, 138.2657
661.0104, 138.5628
661.4926, 140.1299
661.9747, 140.6643
662.4568, 138.0876
662.9389, 134.6648
663.4210, 132.3494
663.9031, 131.2761
664.3853, 131.9841
664.8674, 136.1736
665.3495, 141.0437
665.8316, 145.4512
666.3137, 149.5113
666.7958, 151.5981
667.2780, 150.9469
667.7601, 149.0511
668.2422, 145.3527
668.7243, 136.9244
669.2064, 141.1956
669.6885, 163.5512
670.1707, 187.6549
670.6528, 190.7264
671.1349, 175.8448
671.6170, 160.8368
672.0991, 149.9877
672.5812, 141.4114
673.0634, 132.6136
673.5455, 124.3058
674.0276, 118.1130
674.5097, 112.4760
674.9918, 111.3652
675.4739, 120.0074
675.9561, 136.4819
676.4382, 148.0740
676.9203, 151.1008
677.4024, 151.0781
677.8845, 149.1944
678.3666, 145.2780
678.8488, 142.4077
679.3309, 140.9000
679.8130, 139.3609
680.2951, 134.7688
680.7772, 128.5584
681.2593, 130.6673
681.7415, 143.4597
682.2236, 154.5791
682.7057, 148.0084
683.1878, 132.6346
683.6699, 122.2300
684.1520, 121.4782
684.6342, 124.4451
685.1163, 131.6189
685.5984, 140.0619
686.0805, 144.9138
686.5626, 142.9588
687.0447, 139.9266
687.5269, 135.0263
688.0090, 129.7864
688.4911, 131.0438
688.9732, 140.8328
689.4553, 148.0339
689.9374, 146.8003
690.4196, 139.4785
690.9017, 132.9225
691.3838, 127.3658
691.8659, 125.7264
692.3480, 134.2824
692.8301, 145.6091
693.3123, 150.8061
693.7944, 148.6519
694.2765, 145.6495
694.7586, 144.0091
695.2407, 143.0817
695.7228, 142.3121
696.2050, 141.2947
696.6871, 141.1814
697.1692, 142.6284
697.6513, 144.3465
698.1334, 144.6354
698.6155, 143.2939
699.0977, 142.0266
699.5798, 140.6985
700.0619, 140.3620
700.5440, 144.7075
701.0261, 152.0038
701.5082, 155.8814
701.9904, 151.9196
702.4725, 145.0111
702.9546, 136.9246
703.4367, 128.9166
703.9188, 125.1010
704.4009, 133.7909
704.8831, 140.3581
705.3652, 135.9687
705.8473, 121.1341
706.3294, 115.6877
706.8115, 124.0235
707.2936, 133.4359
707.7758, 136.6938
708.2579, 133.9721
708.7400, 133.8583
709.2221, 136.7597
709.7042, 138.3765
710.1863, 130.7730
710.6685, 120.1909
711.1506, 120.3424
711.6327, 135.6352
712.1148, 148.3680
712.5969, 143.2050
713.0790, 131.2821
713.5612, 124.2543
714.0433, 128.0194
714.5254, 132.5420
715.0075, 137.3230
715.4896, 142.2210
715.9717, 147.7811
716.4539, 155.1240
716.9360, 158.0610
717.4181, 153.8083
717.9002, 146.1787
718.3823, 143.8174
718.8644, 145.9996
719.3466, 148.4737
719.8287, 150.5291
720.3108, 150.9079
720.7929, 146.7140
721.2750, 139.2500
721.7571, 133.5579
722.2393, 134.0372
722.7214, 134.8953
723.2035, 131.6064
723.6856, 123.6888
724.1677, 124.5878
724.6498, 140.5139
725.1320, 155.2338
725.6141, 158.3458
726.0962, 149.5751
726.5783, 147.7635
727.0604, 153.8238
727.5425, 159.3318
728.0247, 155.9339
728.5068, 146.7516
728.9889, 135.8797
729.4710, 122.9410
729.9531, 115.2445
730.4352, 122.4794
730.9174, 134.8591
731.3995, 142.5430
731.8816, 138.4053
732.3637, 136.8432
732.8458, 139.5535
733.3279, 144.7912
733.8101, 150.9714
734.2922, 158.9991
734.7743, 163.4958
735.2564, 163.0366
735.7385, 159.4151
736.2206, 154.3613
736.7028, 148.6129
737.1849, 145.6911
737.6670, 149.0609
738.1491, 153.6964
738.6312, 156.6648
739.1133, 157.4002
739.5955, 154.2139
740.0776, 138.1218
740.5597, 126.5326
741.0418, 128.0915
741.5239, 140.5951
742.0060, 151.0869
742.4882, 160.9129
742.9703, 165.2246
743.4524, 158.2410
743.9345, 143.0486
744.4166, 141.5749
744.8987, 153.7960
745.3809, 164.8532
745.8630, 161.3741
746.3451, 151.7012
746.8272, 146.2686
747.3093, 146.0448
747.7914, 146.0898
748.2736, 143.1871
748.7557, 140.3441
749.2378, 140.4463
749.7199, 146.6328
750.2020, 146.6351
750.6841, 137.9084
751.1663, 126.6779
751.6484, 117.0329
752.1305, 109.0050
752.6126, 108.1630
753.0947, 115.7886
753.5768, 127.2429
754.0590, 140.8954
754.5411, 153.7816
755.0232, 159.2634
755.5053, 152.4570
755.9874, 145.0508
756.4695, 144.4668
756.9517, 146.7163
757.4338, 146.1669
757.9159, 136.4776
758.3980, 131.9654
758.8801, 136.1004
759.3622, 144.4970
759.8444, 148.1474
760.3265, 146.4902
760.8086, 147.3797
761.2907, 154.9529
761.7728, 163.5436
762.2549, 160.7422
762.7370, 150.2748
763.2191, 144.2160
763.7012, 153.4977
764.1833, 164.2321
764.6655, 168.9773
765.1476, 168.3488
765.6297, 165.4058
766.1118, 156.8677
766.5939, 150.4972
767.0760, 148.8096
767.5582, 151.1415
768.0403, 153.1614
768.5224, 154.9678
769.0045, 155.5399
769.4866, 154.8257
769.9688, 152.3293
770.4509, 144.9214
770.9330, 133.4052
771.4151, 124.6910
771.8972, 124.5109
772.3793, 127.8541
772.8615, 132.0525
773.3436, 137.0122
773.8257, 140.2876
774.3078, 140.9530
774.7899, 140.4956
775.2720, 139.5406
775.7542, 138.0995
776.2363, 135.5548
776.7184, 131.3657
777.2005, 128.8008
777.6826, 131.6793
778.1647, 138.1682
778.6469, 145.0765
779.1290, 152.3759
779.6111, 155.8821
780.0932, 147.9452
780.5753, 137.7142
781.0574, 133.9850
781.5396, 141.2394
782.0217, 147.1574
782.5038, 151.1466
782.9859, 153.0490
783.4680, 152.5711
783.9501, 149.5428
784.4323, 144.6071
784.9144, 136.9450
785.3965, 130.7572
785.8786, 133.7561
786.3607, 141.9523
786.8428, 145.7682
787.3250, 142.0765
787.8071, 136.4261
788.2892, 130.2317
788.7713, 124.9802
789.2534, 122.3766
789.7355, 123.9252
790.2177, 126.9137
790.6998, 132.5917
791.1819, 138.5060
791.6640, 141.3508
792.1461, 141.0061
792.6282, 137.8710
793.1104, 130.3246
793.5925, 124.0643
794.0746, 131.5884
794.5567, 146.4916
795.0388, 154.0547
795.5209, 142.5297
796.0031, 130.8886
796.4852, 129.1655
796.9673, 133.6827
797.4494, 137.3039
797.9315, 139.2493
798.4136, 140.1631
798.8958, 139.5879
799.3779, 138.4396
799.8600, 139.3633
800.3421, 142.3087
800.8242, 143.9875
801.3063, 143.0122
801.7885, 140.5416
802.2706, 135.8186
802.7527, 130.9115
803.2348, 130.8958
803.7169, 147.2078
804.1990, 159.2172
804.6812, 154.1364
805.1633, 137.5527
805.6454, 130.2283
806.1275, 137.5172
806.6096, 142.5258
807.0917, 139.4114
807.5739, 132.0847
808.0560, 134.3421
808.5381, 145.0470
809.0202, 152.6039
809.5023, 148.4249
809.9844, 140.6158
810.4666, 137.0383
810.9487, 136.9895
811.4308, 138.1289
811.9129, 143.1280
812.3950, 145.3560
812.8771, 140.2472
813.3593, 130.0973
813.8414, 125.6450
814.3235, 127.8633
814.8056, 132.2012
815.2877, 138.0192
815.7698, 144.0851
816.2520, 146.6289
816.7341, 146.0218
817.2162, 144.1713
817.6983, 139.7751
818.1804, 136.5739
818.6625, 138.3195
819.1447, 144.2181
819.6268, 149.3855
820.1089, 155.2842
820.5910, 157.0928
821.0731, 151.2361
821.5552, 139.7375
822.0374, 135.1996
822.5195, 138.0780
823.0016, 143.1279
823.4837, 150.3030
823.9658, 156.5830
824.4479, 154.1091
824.9301, 144.6538
825.4122, 137.4546
825.8943, 140.9133
826.3764, 144.3546
826.8585, 140.7883
827.3406, 130.5670
827.8228, 125.1138
828.3049, 126.4708
828.7870, 128.7273
829.2691, 128.8962
829.7512, 128.1090
830.2333, 133.3310
830.7155, 144.0813
831.1976, 152.5210
831.6797, 153.1391
832.1618, 149.6158
832.6439, 143.8314
833.1260, 136.6326
833.6082, 132.3533
834.0903, 133.8579
834.5724, 137.2251
835.0545, 141.5888
835.5366, 146.7008
836.0187, 150.9865
836.5009, 155.1204
836.9830, 155.1570
837.4651, 146.1252
837.9472, 133.0579
838.4293, 128.1856
838.9114, 130.4626
839.3936, 133.8901
839.8757, 135.4754
840.3578, 136.7615
840.8399, 139.3122
841.3220, 142.8040
841.8041, 144.0843
842.2863, 142.7770
842.7684, 139.4199
843.2505, 132.4478
843.7326, 123.7918
844.2147, 125.1182
844.6968, 135.8393
845.1790, 143.0560
845.6611, 134.5721
846.1432, 122.3039
846.6253, 120.9459
847.1074, 128.0484
847.5895, 133.4395
848.0717, 131.0597
848.5538, 128.6469
849.0359, 128.1684
849.5180, 129.7304
850.0001, 134.8509
850.4822, 144.7186
850.9644, 152.3256
851.4465, 154.6900
851.9286, 153.1984
852.4107, 149.6952
852.8928, 144.8064
853.3749, 140.8908
853.8571, 140.6838
854.3392, 140.2974
854.8213, 136.0150
855.3034, 129.4553
855.7855, 127.4257
856.2676, 132.3621
856.7498, 137.7447
857.2319, 142.5244
857.7140, 146.3472
858.1961, 148.3216
858.6782, 148.4857
859.1603, 147.1706
859.6425, 143.3695
860.1246, 139.5327
860.6067, 137.4890
861.0888, 137.3509
861.5709, 139.4128
862.0530, 148.9360
862.5352, 154.1694
863.0173, 151.6847
863.4994, 144.3588
863.9815, 136.9157
864.4636, 128.9641
864.9457, 125.3614
865.4279, 127.4954
865.9100, 134.3489
866.3921, 149.8072
866.8742, 168.1453
867.3563, 177.2669
867.8384, 164.9479
868.3206, 152.8365
868.8027, 150.0735
869.2848, 152.5176
869.7669, 153.3086
870.2490, 151.9041
870.7311, 150.1140
871.2133, 148.0332
871.6954, 145.9329
872.1775, 145.3145
872.6596, 145.1735
873.1417, 140.6936
873.6238, 127.7688
874.1060, 119.1245
874.5881, 130.1716
875.0702, 148.0453
875.5523, 158.0760
876.0344, 153.0351
876.5165, 146.2992
876.9987, 135.5762
877.4808, 126.2311
877.9629, 125.6962
878.4450, 133.0846
878.9271, 137.3059
879.4092, 136.8082
879.8914, 135.8008
880.3735, 138.8648
880.8556, 143.2957
881.3377, 145.8178
881.8198, 145.2519
882.3019, 145.2034
882.7841, 149.4043
883.2662, 151.4382
883.7483, 145.2014
884.2304, 128.7097
884.7125, 124.5390
885.1946, 134.3809
885.6768, 142.7288
886.1588, 129.5577
886.6409, 109.5726
887.1230, 105.7975
887.6052, 119.9368
888.0873, 135.0242
888.5694, 146.6464
889.0515, 154.5353
889.5336, 158.4334
890.0157, 158.3604
890.4979, 156.6660
890.9800, 153.3336
891.4621, 148.5021
891.9442, 139.4529
892.4263, 129.7992
892.9084, 129.7231
893.3906, 137.6388
893.8727, 144.3031
894.3548, 144.6987
894.8369, 142.6786
895.3190, 138.4840
895.8011, 133.0653
896.2833, 132.2530
896.7654, 138.3133
897.2475, 142.6443
897.7296, 140.9669
898.2117, 137.1292
898.6938, 143.8210
899.1760, 157.7701
899.6581, 165.1462
900.1402, 153.0697
900.6223, 139.7346
901.1044, 137.8678
901.5865, 142.7929
902.0687, 144.3248
902.5508, 137.7796
903.0329, 135.2829
903.5150, 139.7860
903.9971, 147.0790
904.4792, 149.3342
904.9614, 147.5241
905.4435, 147.6777
905.9256, 152.5662
906.4077, 155.5304
906.8898, 145.7994
907.3719, 133.2438
907.8541, 130.2645
908.3362, 149.7750
908.8183, 160.1873
909.3004, 157.7209
909.7825, 149.9710
910.2646, 143.2094
910.7468, 137.4877
911.2289, 132.7934
911.7110, 129.0315
912.1931, 127.8677
912.6752, 132.3144
913.1573, 139.0594
913.6395, 145.8151
914.1216, 152.8800
914.6037, 154.7463
915.0858, 144.7737
915.5679, 137.0756
916.0500, 140.7170
916.5322, 154.3867
917.0143, 159.1848
917.4964, 155.1790
917.9785, 149.6964
918.4606, 147.2767
918.9427, 146.0596
919.4249, 143.5666
919.9070, 140.2645
920.3891, 138.8458
920.8712, 141.3937
921.3533, 144.4690
921.8354, 147.1843
922.3176, 149.7391
922.7997, 153.5469
923.2818, 158.6144
923.7639, 161.4178
924.2460, 160.3198
924.7281, 156.9737
925.2103, 150.8978
925.6924, 144.4396
926.1745, 141.9850
926.6566, 149.1740
927.1387, 155.1957
927.6208, 159.8438
928.1030, 161.4471
928.5851, 155.5321
929.0672, 141.5569
929.5493, 135.3721
930.0314, 140.0156
930.5135, 147.5670
930.9957, 151.1186
931.4778, 151.4860
931.9599, 148.9476
932.4420, 142.4624
932.9241, 137.5718
933.4063, 135.6844
933.8884, 135.6271
934.3705, 136.6146
934.8526, 138.5767
935.3347, 144.7029
935.8168, 155.2856
936.2990, 163.0135
936.7811, 158.9545
937.2632, 151.1232
937.7453, 149.2611
938.2274, 153.1350
938.7095, 156.9733
939.1917, 158.4765
939.6738, 160.4120
940.1559, 164.6676
940.6380, 169.7917
941.1201, 169.3087
941.6022, 163.2049
942.0844, 156.4778
942.5665, 149.9766
943.0486, 145.4352
943.5307, 146.5605
944.0128, 150.9566
944.4949, 154.0082
944.9771, 152.9527
945.4592, 152.2595
945.9413, 152.5582
946.4234, 153.3947
946.9055, 155.5615
947.3876, 158.8940
947.8698, 154.0561
948.3519, 138.1227
948.8340, 125.1746
949.3161, 135.0305
949.7982, 152.6192
950.2803, 160.1433
950.7625, 152.0015
951.2446, 146.4058
951.7267, 147.8519
952.2088, 149.4916
952.6909, 147.0204
953.1730, 140.8468
953.6552, 135.9177
954.1373, 132.3314
954.6194, 131.5226
955.1015, 137.5374
955.5836, 144.2613
956.0657, 145.8650
956.5479, 143.1826
957.0300, 141.2826
957.5121, 140.8028
957.9942, 141.6821
958.4763, 144.8423
958.9584, 148.4802
959.4406, 147.2241
959.9227, 142.0755
960.4048, 139.3572
960.8869, 142.7587
961.3690, 145.5306
961.8511, 142.0259
962.3333, 134.9610
962.8154, 127.4817
963.2975, 113.3866
963.7796, 112.3783
964.2617, 129.1267
964.7438, 149.5478
965.2260, 160.2257
965.7081, 162.8359
966.1902, 161.9095
966.6723, 157.8291
967.1544, 153.1718
967.6365, 148.7071
968.1187, 145.0707
968.6008, 143.0130
969.0829, 142.4946
969.5650, 142.2219
970.0471, 142.3260
970.5292, 142.1304
971.0114, 140.6176
971.4935, 139.2593
971.9756, 142.8494
972.4577, 149.5856
972.9398, 153.8464
973.4219, 149.7689
973.9041, 146.6534
974.3862, 148.7114
974.8683, 153.6733
975.3504, 158.4265
975.8325, 163.6207
976.3146, 165.2178
976.7968, 162.1875
977.2789, 157.9796
977.7610, 156.6568
978.2431, 156.7511
978.7252, 155.4411
979.2073, 151.8839
979.6895, 150.0214
980.1716, 153.7163
980.6537, 157.1576
981.1358, 157.4153
981.6179, 154.5965
982.1000, 149.7822
982.5822, 142.8342
983.0643, 139.6162
983.5464, 150.0276
984.0285, 161.0485
984.5106, 155.1979
984.9927, 138.1657
985.4749, 126.8117
985.9570, 127.8092
986.4391, 132.7269
986.9212, 142.9415
987.4033, 153.7833
987.8854, 155.4456
988.3676, 149.7056
988.8497, 149.1291
989.3318, 157.4799
989.8139, 165.4800
990.2960, 164.3315
990.7781, 159.8486
991.2603, 157.9426
991.7424, 160.0809
992.2245, 161.6763
992.7066, 163.2349
993.1887, 162.9769
993.6708, 158.3919
994.1530, 151.2516
994.6351, 146.7630
995.1172, 144.7635
995.5993, 144.4932
996.0814, 146.6389
996.5635, 149.2866
997.0457, 152.0813
997.5278, 154.6389
998.0099, 155.2132
998.4920, 152.7181
998.9741, 155.8258
999.4562, 168.6604
999.9384, 180.5623
1000.420, 173.2311
1000.903, 156.8308
1001.385, 148.1138
1001.867, 153.3791
1002.349, 158.3305
1002.831, 158.2177
1003.313, 158.2591
1003.795, 163.4103
1004.277, 173.3206
1004.760, 171.1446
1005.242, 157.1249
1005.724, 144.6236
1006.206, 141.6830
1006.688, 144.3546
1007.170, 152.1989
1007.652, 163.2742
1008.134, 170.0302
1008.616, 170.9060
1009.099, 169.4082
1009.581, 165.4409
1010.063, 160.5052
1010.545, 156.7034
1011.027, 154.0044
1011.509, 152.1749
1011.991, 150.7786
1012.473, 151.8078
1012.955, 159.1315
1013.438, 167.3118
1013.920, 171.8452
1014.402, 172.2743
1014.884, 172.8054
1015.366, 173.5217
1015.848, 173.8006
1016.330, 173.4076
1016.812, 172.2229
1017.294, 169.1781
1017.777, 165.0546
1018.259, 162.6313
1018.741, 165.5108
1019.223, 166.5780
1019.705, 163.4665
1020.187, 158.7372
1020.669, 157.2145
1021.151, 158.5429
1021.634, 159.0580
1022.116, 157.7785
1022.598, 157.2832
1023.080, 161.2490
1023.562, 166.0163
1024.044, 167.6726
1024.526, 164.8466
1025.008, 164.7591
1025.490, 168.4703
1025.973, 171.5471
1026.455, 170.3323
1026.937, 167.4080
1027.419, 169.1505
1027.901, 174.6707
1028.383, 180.6445
1028.865, 189.9342
1029.347, 194.3258
1029.830, 189.9712
1030.312, 180.1139
1030.794, 165.6627
1031.276, 145.8852
1031.758, 141.0157
1032.240, 155.4262
1032.722, 170.8038
1033.204, 166.0078
1033.687, 155.7145
1034.169, 156.8196
1034.651, 172.5783
1035.133, 179.9187
1035.615, 172.0852
1036.097, 166.7379
1036.579, 172.1974
1037.061, 184.1480
1037.543, 190.8303
1038.026, 193.3617
1038.508, 195.4859
1038.990, 199.9291
1039.472, 202.6465
1039.954, 202.1787
1040.436, 198.8954
1040.918, 192.2268
1041.400, 180.8731
1041.882, 176.1727
1042.365, 179.3405
1042.847, 182.4720
1043.329, 174.1978
1043.811, 165.0340
1044.293, 169.4793
1044.775, 186.7757
1045.257, 198.5410
1045.739, 202.9131
1046.222, 198.5605
1046.704, 180.6054
1047.186, 158.6582
1047.668, 155.9736
1048.150, 167.6296
1048.632, 176.4808
1049.114, 176.9163
1049.596, 175.8090
1050.078, 177.0202
1050.561, 178.1583
1051.043, 176.2736
1051.525, 170.1923
1052.007, 171.9068
1052.489, 182.2397
1052.971, 191.2587
1053.453, 190.7811
1053.935, 186.3280
1054.417, 183.1063
1054.900, 181.3827
1055.382, 181.7487
1055.864, 188.3360
1056.346, 190.3728
1056.828, 184.2183
1057.310, 176.5378
1057.792, 180.3542
1058.274, 190.8180
1058.757, 189.7838
1059.239, 173.2562
1059.721, 160.7429
1060.203, 169.3686
1060.685, 179.9361
1061.167, 179.1560
1061.649, 168.4082
1062.131, 165.7326
1062.614, 171.4311
1063.096, 175.1669
1063.578, 170.3134
1064.060, 164.7807
1064.542, 169.7575
1065.024, 179.4903
1065.506, 184.6461
1065.988, 180.5525
1066.470, 175.5130
1066.953, 168.3358
1067.435, 162.7573
1067.917, 164.3663
1068.399, 169.8703
1068.881, 169.2085
1069.363, 162.8092
1069.845, 157.2422
1070.327, 154.3339
1070.809, 154.7438
1071.292, 159.8107
1071.774, 167.6365
1072.256, 174.3781
1072.738, 180.0171
1073.220, 185.9851
1073.702, 193.2867
1074.184, 197.4916
1074.666, 191.5045
1075.148, 182.3027
1075.631, 177.3165
1076.113, 178.4167
1076.595, 174.9966
1077.077, 165.0701
1077.559, 158.0828
1078.041, 160.8326
1078.523, 167.6364
1079.005, 167.4964
1079.488, 162.9444
1079.970, 160.1289
1080.452, 162.9550
1080.934, 165.4877
1081.416, 167.7839
1081.898, 168.4579
1082.380, 164.2990
1082.862, 156.5456
1083.344, 155.2644
1083.827, 160.6601
1084.309, 166.2908
1084.791, 169.2145
1085.273, 169.8198
1085.755, 164.9989
1086.237, 158.2156
1086.719, 162.3388
1087.201, 179.5781
1087.683, 188.2109
1088.166, 181.5713
1088.648, 171.0857
1089.130, 168.3857
1089.612, 170.1011
1090.094, 173.0761
1090.576, 177.6185
1091.058, 178.4113
1091.540, 174.6684
1092.023, 168.4219
1092.505, 158.4986
1092.987, 148.3349
1093.469, 148.3155
1093.951, 155.3334
1094.433, 160.5862
1094.915, 157.9975
1095.397, 156.9467
1095.880, 161.5102
1096.362, 166.7277
1096.844, 166.7249
1097.326, 162.1192
1097.808, 165.6632
1098.290, 177.3726
1098.772, 185.8871
1099.254, 180.9577
1099.736, 172.9775
1100.219, 167.4591
1100.701, 164.3596
1101.183, 162.6338
1101.665, 162.2689
1102.147, 163.5374
1102.629, 166.7547
1103.111, 170.3127
1103.593, 173.7701
1104.075, 175.7317
1104.558, 174.1693
1105.040, 168.5156
1105.522, 162.4986
1106.004, 155.7136
1106.486, 150.2541
1106.968, 147.2699
1107.450, 145.5312
1107.932, 141.1273
1108.415, 135.9379
1108.897, 134.4038
1109.379, 138.5995
1109.861, 145.5907
1110.343, 160.5426
1110.825, 171.3575
1111.307, 166.7040
1111.789, 148.6333
1112.271, 138.3565
1112.754, 135.5761
1113.236, 137.1224
1113.718, 147.2233
1114.200, 154.5677
1114.682, 149.6797
1115.164, 139.5275
1115.646, 135.5766
1116.128, 138.2573
1116.610, 143.8575
1117.093, 152.4509
1117.575, 160.5841
1118.057, 166.0070
1118.539, 169.0226
1119.021, 169.8711
1119.503, 168.4691
1119.985, 164.4823
1120.467, 156.7993
1120.950, 149.9947
1121.432, 144.6822
1121.914, 141.9131
1122.396, 146.4897
1122.878, 153.3409
1123.360, 152.8217
1123.842, 140.2312
1124.324, 135.5678
1124.807, 144.8032
1125.289, 155.8946
1125.771, 164.6551
1126.253, 170.2942
1126.735, 168.5432
1127.217, 161.5559
1127.699, 156.2115
1128.181, 157.6963
1128.663, 156.9946
1129.146, 149.9957
1129.628, 140.9006
1130.110, 131.8208
1130.592, 122.9715
1131.074, 119.2708
1131.556, 120.5634
1132.038, 124.1057
1132.520, 131.3948
1133.002, 137.1156
1133.485, 135.8329
1133.967, 132.0013
1134.449, 135.9030
1134.931, 149.3645
1135.413, 147.7983
1135.895, 127.1049
1136.377, 107.5909
1136.859, 106.5037
1137.342, 114.7950
1137.824, 128.8835
1138.306, 146.5264
1138.788, 153.0490
1139.270, 145.7726
1139.752, 137.2813
1140.234, 129.2558
1140.716, 125.3137
1141.198, 135.6719
1141.681, 150.4003
1142.163, 154.9405
1142.645, 145.0751
1143.127, 138.5114
1143.609, 136.9258
1144.091, 137.5496
1144.573, 139.5635
1145.055, 142.6135
1145.537, 147.1681
1146.020, 151.9915
1146.502, 154.0177
1146.984, 151.1178
1147.466, 148.1535
1147.948, 146.2378
1148.430, 143.9231
1148.912, 137.6137
1149.394, 130.1440
1149.877, 138.5972
1150.359, 158.3417
1150.841, 170.2613
1151.323, 158.5492
1151.805, 145.5808
1152.287, 135.9891
1152.769, 130.2099
1153.251, 130.2190
1153.734, 135.3747
1154.216, 137.9930
1154.698, 137.8098
1155.180, 136.9504
1155.662, 135.7556
1156.144, 135.3029
1156.626, 140.6473
1157.108, 145.3770
1157.590, 132.5508
1158.073, 102.0146
1158.555, 90.01365
1159.037, 103.0857
1159.519, 119.7780
1160.001, 124.0012
1160.483, 123.3437
1160.965, 123.4951
1161.447, 124.2235
1161.929, 120.8717
1162.412, 112.4312
1162.894, 111.9376
1163.376, 125.4526
1163.858, 139.2445
1164.340, 135.1899
1164.822, 125.8958
1165.304, 126.5323
1165.786, 140.1099
1166.269, 143.5493
1166.751, 134.4172
1167.233, 127.7046
1167.715, 131.4166
1168.197, 138.0091
1168.679, 136.1926
1169.161, 130.7789
1169.643, 129.4302
1170.125, 137.0115
1170.608, 139.3048
1171.090, 134.8759
1171.572, 129.9370
1172.054, 129.4845
1172.536, 130.4100
1173.018, 124.4538
1173.500, 115.9043
1173.982, 114.7575
1174.464, 134.4790
1174.947, 145.3485
1175.429, 144.8406
1175.911, 138.7811
1176.393, 129.0712
1176.875, 118.8324
1177.357, 115.1179
1177.839, 117.2958
1178.321, 121.6699
1178.804, 128.3439
1179.286, 135.9609
1179.768, 146.6759
1180.250, 153.7652
1180.732, 143.2002
1181.214, 123.9050
1181.696, 120.1143
1182.178, 132.6168
1182.661, 144.6899
1183.143, 152.5746
1183.625, 154.2182
1184.107, 147.3623
1184.589, 136.4763
1185.071, 129.2992
1185.553, 124.6452
1186.035, 117.7057
1186.517, 107.3378
1187.000, 102.4353
1187.482, 112.0188
1187.964, 122.0854
1188.446, 128.0524
1188.928, 130.3167
1189.410, 126.8343
1189.892, 120.2084
1190.374, 122.5528
1190.856, 139.5649
1191.339, 151.4912
1191.821, 144.6021
1192.303, 134.1428
1192.785, 126.3806
1193.267, 121.8680
1193.749, 125.0575
1194.231, 134.2301
1194.713, 141.3863
1195.195, 143.6184
1195.678, 143.8955
1196.160, 144.1717
1196.642, 142.2595
1197.124, 135.0996
1197.606, 123.9448
1198.088, 120.7843
1198.570, 124.6715
1199.052, 130.2118
1199.535, 137.2961
1200.017, 141.8492
1200.499, 139.0988
1200.981, 135.1993
1201.463, 136.5255
1201.945, 142.9269
1202.427, 142.3239
1202.909, 135.5646
1203.391, 130.2061
1203.874, 130.6900
1204.356, 133.5642
1204.838, 140.2333
1205.320, 146.3291
1205.802, 146.6005
1206.284, 141.1575
1206.766, 134.5283
1207.248, 127.2139
1207.730, 125.0177
1208.213, 139.5341
1208.695, 151.4019
1209.177, 145.8364
1209.659, 134.0344
1210.141, 132.4716
1210.623, 140.7517
1211.105, 144.5005
1211.587, 142.6279
1212.070, 140.4003
1212.552, 142.3210
1213.034, 144.0464
1213.516, 142.3350
1213.998, 139.1832
1214.480, 138.1361
1214.962, 139.1119
1215.444, 141.2030
1215.927, 144.3461
1216.409, 145.8803
1216.891, 142.2848
1217.373, 138.2046
1217.855, 136.7353
1218.337, 136.5911
1218.819, 133.2440
1219.301, 127.2943
1219.783, 127.9717
1220.266, 137.6056
1220.748, 145.9638
1221.230, 144.6351
1221.712, 141.1287
1222.194, 139.9617
1222.676, 140.2907
1223.158, 138.1707
1223.640, 134.2206
1224.122, 135.1200
1224.605, 143.7732
1225.087, 149.7253
1225.569, 142.6679
1226.051, 134.0933
1226.533, 130.9147
1227.015, 132.1793
1227.497, 133.5438
1227.979, 135.3205
1228.462, 140.3621
1228.944, 151.0493
1229.426, 159.2141
1229.908, 158.5168
1230.390, 155.4359
1230.872, 154.9612
1231.354, 155.5433
1231.836, 146.7289
1232.318, 130.9193
1232.801, 121.5393
1233.283, 124.7172
1233.765, 130.1519
1234.247, 135.0680
1234.729, 138.2709
1235.211, 138.5210
1235.693, 136.4796
1236.175, 136.2699
1236.657, 137.0767
1237.140, 135.0800
1237.622, 126.5311
1238.104, 119.9276
1238.586, 118.7383
1239.068, 120.1777
1239.550, 123.3628
1240.032, 127.7781
1240.514, 131.3169
1240.997, 133.8726
1241.479, 134.8150
1241.961, 132.1797
1242.443, 130.9157
1242.925, 132.2927
1243.407, 135.1964
1243.889, 140.2383
1244.371, 145.9956
1244.854, 145.2010
1245.336, 139.9176
1245.818, 136.6914
1246.300, 138.3046
1246.782, 142.8355
1247.264, 153.4965
1247.746, 160.3533
1248.228, 150.7436
1248.710, 132.6190
1249.193, 130.5744
1249.675, 139.4631
1250.157, 143.4723
1250.639, 126.2217
1251.121, 122.4109
1251.603, 139.7676
1252.085, 157.7571
1252.567, 155.8577
1253.049, 144.0072
1253.532, 140.3792
1254.014, 142.8127
1254.496, 143.2396
1254.978, 134.1822
1255.460, 134.2975
1255.942, 146.9002
1256.424, 160.0389
1256.906, 162.4100
1257.389, 159.2447
1257.871, 158.2482
1258.353, 158.0661
1258.835, 152.9839
1259.317, 137.8352
1259.799, 131.4316
1260.281, 136.0628
1260.763, 142.8689
1261.245, 144.4011
1261.728, 143.8716
1262.210, 144.2412
1262.692, 145.4659
1263.174, 147.0771
1263.656, 149.3279
1264.138, 150.3370
1264.620, 149.8280
1265.102, 149.6986
1265.584, 153.2619
1266.067, 156.2312
1266.549, 154.0361
1267.031, 148.7003
1267.513, 145.0808
1267.995, 143.2061
1268.477, 143.1959
1268.959, 145.0863
1269.441, 146.0688
1269.924, 141.8373
1270.406, 138.3245
1270.888, 141.0841
1271.370, 146.0382
1271.852, 145.9827
1272.334, 141.3728
1272.816, 138.6683
1273.298, 138.4033
1273.781, 139.7227
1274.263, 143.4098
1274.745, 147.0569
1275.227, 150.4975
1275.709, 152.5878
1276.191, 150.1208
1276.673, 144.6297
1277.155, 142.2195
1277.637, 143.4389
1278.120, 147.8926
1278.602, 160.5360
1279.084, 169.2411
1279.566, 170.6013
1280.048, 168.2431
1280.530, 168.8850
1281.012, 169.1029
1281.494, 157.5954
1281.976, 135.7097
1282.459, 122.0381
1282.941, 124.5474
1283.423, 131.7189
1283.905, 143.7352
1284.387, 154.8291
1284.869, 156.2102
1285.351, 153.3818
1285.833, 154.5847
1286.316, 159.3936
1286.798, 159.9551
1287.280, 152.4863
1287.762, 153.7167
1288.244, 167.9730
1288.726, 180.4848
1289.208, 173.3329
1289.690, 159.7720
1290.172, 150.5845
1290.655, 146.6630
1291.137, 147.6287
1291.619, 154.1873
1292.101, 159.3721
1292.583, 162.3675
1293.065, 161.8701
1293.547, 152.1533
1294.029, 143.2203
1294.511, 142.3661
1294.994, 146.8086
1295.476, 154.5139
1295.958, 164.5493
1296.440, 163.0952
1296.922, 148.4295
1297.404, 136.6366
1297.886, 136.0164
1298.368, 142.7729
1298.851, 160.9398
1299.333, 177.8740
1299.815, 177.3434
1300.297, 159.3562
##END=



