##NAMES=Ramsbeckite
##RRUFFID=R050295
##IDEAL CHEMISTRY=Cu^2+^_15_(S^6+^O_4_)_4_(OH)_22_&#183;6H_2_O
##LOCALITY=79 mine, 6th level, 31 stope, Hayden, Gila County, Arizona, USA
##OWNER=RRUFF
##SOURCE=George Godas, John Callahan
##DESCRIPTION=Greenish-blue tabular
##STATUS=The identification of this mineral is confirmed by single-crystal X-ray diffraction and chemical analysis.
##URL=rruff.info/R050295
##MEASURED CHEMISTRY=(Cu_8.33_Zn_6.67_)_Σ=15_(S_1.00_O_4_)_4_(OH)_22_·6H_2_O ; = rim, gray phase. The core, light phase is sphalerite.
92.35352, 0.6092412
92.83563, 1.047675
93.31775, 1.234531
93.79987, 0.9641532
94.28198, 0.4150045
94.76410, 0.1207304
95.24622, 0.2509636
95.72833, 0.6239769
96.21045, 0.8625362
96.69257, 0.9614567
97.17468, 1.030371
97.65680, 1.201337
98.13892, 1.471321
98.62103, 1.626064
99.10315, 1.553257
99.58527, 1.302342
100.0674, 1.231272
100.5495, 1.381901
101.0316, 1.622005
101.5137, 1.772168
101.9958, 1.788882
102.4780, 1.875033
102.9601, 2.126027
103.4422, 2.583986
103.9243, 2.916870
104.4064, 3.067352
104.8885, 3.131220
105.3707, 3.289331
105.8528, 3.593382
106.3349, 3.917577
106.8170, 4.216143
107.2991, 4.488901
107.7813, 4.732943
108.2634, 4.881395
108.7455, 4.992599
109.2276, 5.254805
109.7097, 5.903937
110.1918, 6.535536
110.6740, 6.982821
111.1561, 7.147140
111.6382, 7.233142
112.1203, 7.144681
112.6024, 6.935025
113.0845, 6.933822
113.5667, 7.353871
114.0488, 7.909377
114.5309, 8.412850
115.0130, 8.769261
115.4951, 9.115759
115.9772, 9.489456
116.4594, 9.894087
116.9415, 10.31142
117.4236, 10.67483
117.9057, 11.06725
118.3878, 11.57515
118.8699, 12.40049
119.3521, 13.22939
119.8342, 13.81724
120.3163, 14.11638
120.7984, 14.53888
121.2805, 15.68671
121.7626, 17.10620
122.2448, 18.02176
122.7269, 17.58947
123.2090, 16.70967
123.6911, 16.28220
124.1732, 16.46376
124.6553, 16.83803
125.1375, 17.06450
125.6196, 17.17627
126.1017, 17.27810
126.5838, 17.50239
127.0659, 17.74720
127.5480, 17.79103
128.0302, 17.52864
128.5123, 17.21298
128.9944, 17.16781
129.4765, 17.38341
129.9586, 17.76883
130.4407, 18.46700
130.9229, 19.34213
131.4050, 19.80535
131.8871, 19.62071
132.3692, 19.06090
132.8513, 18.71331
133.3334, 18.55872
133.8156, 18.42386
134.2977, 18.19070
134.7798, 17.92825
135.2619, 17.87273
135.7440, 18.14048
136.2261, 18.64693
136.7083, 19.06442
137.1904, 19.43050
137.6725, 19.61490
138.1546, 19.33873
138.6367, 18.45319
139.1188, 17.94750
139.6010, 18.21903
140.0831, 19.26819
140.5652, 19.81318
141.0473, 19.71628
141.5294, 19.33086
142.0115, 19.12721
142.4937, 19.20742
142.9758, 19.21828
143.4579, 19.00654
143.9400, 18.47730
144.4221, 18.19680
144.9042, 18.23963
145.3864, 18.48115
145.8685, 18.71544
146.3506, 18.95967
146.8327, 19.17724
147.3148, 19.37861
147.7969, 19.65330
148.2791, 19.70283
148.7612, 19.34091
149.2433, 18.77383
149.7254, 18.47492
150.2075, 18.70695
150.6896, 18.97840
151.1718, 19.10849
151.6539, 18.97543
152.1360, 18.88258
152.6181, 18.85890
153.1002, 18.88292
153.5823, 18.89055
154.0645, 18.80861
154.5466, 18.75852
155.0287, 18.79752
155.5108, 19.02577
155.9929, 19.22965
156.4750, 19.43631
156.9572, 19.61338
157.4393, 19.61941
157.9214, 19.12800
158.4035, 18.63517
158.8856, 18.44806
159.3677, 18.99826
159.8499, 19.49491
160.3320, 19.64785
160.8141, 19.51783
161.2962, 19.46856
161.7783, 19.69016
162.2604, 20.01812
162.7426, 20.31667
163.2247, 20.65602
163.7068, 20.86244
164.1889, 20.79226
164.6710, 20.46511
165.1531, 20.15225
165.6353, 19.95481
166.1174, 19.85124
166.5995, 19.81841
167.0816, 19.92695
167.5637, 20.04456
168.0458, 20.07276
168.5280, 20.01019
169.0101, 19.95154
169.4922, 19.98018
169.9743, 20.04593
170.4564, 20.07855
170.9385, 20.02902
171.4207, 19.94641
171.9028, 19.86860
172.3849, 19.79729
172.8670, 19.73273
173.3491, 19.66717
173.8312, 19.60814
174.3134, 19.56997
174.7955, 19.54814
175.2776, 19.55561
175.7597, 19.64254
176.2418, 19.82707
176.7239, 19.96561
177.2061, 19.87418
177.6882, 19.62370
178.1703, 19.40893
178.6524, 19.34176
179.1345, 19.36403
179.6166, 19.38492
180.0988, 19.40026
180.5809, 19.40994
181.0630, 19.48433
181.5451, 19.57929
182.0272, 19.51439
182.5093, 19.01639
182.9915, 18.29549
183.4736, 17.88096
183.9557, 17.83079
184.4378, 17.98977
184.9199, 18.25188
185.4020, 18.58654
185.8842, 18.80964
186.3663, 18.68823
186.8484, 18.34597
187.3305, 18.28366
187.8126, 18.60479
188.2947, 19.03813
188.7769, 19.14259
189.2590, 18.93066
189.7411, 18.65541
190.2232, 18.42870
190.7053, 18.25171
191.1874, 18.11412
191.6696, 17.99846
192.1517, 17.95041
192.6338, 18.11699
193.1159, 18.50826
193.5980, 18.84571
194.0801, 18.91117
194.5623, 18.72816
195.0444, 18.64309
195.5265, 18.71018
196.0086, 18.85624
196.4907, 18.91857
196.9728, 18.88657
197.4550, 18.85889
197.9371, 18.91627
198.4192, 19.06095
198.9013, 19.14577
199.3834, 19.15498
199.8655, 19.10099
200.3477, 18.95402
200.8298, 18.66440
201.3119, 18.51316
201.7940, 18.77654
202.2761, 19.51478
202.7582, 19.97245
203.2404, 20.02821
203.7225, 19.80541
204.2046, 19.61849
204.6867, 19.45905
205.1688, 19.36393
205.6509, 19.35750
206.1331, 19.44239
206.6152, 19.59575
207.0973, 19.81857
207.5794, 20.10697
208.0615, 20.48419
208.5436, 21.01060
209.0258, 21.46852
209.5079, 21.69570
209.9900, 21.64073
210.4721, 21.58876
210.9542, 21.54321
211.4363, 21.52213
211.9185, 21.58748
212.4006, 21.74592
212.8827, 21.97802
213.3648, 22.29631
213.8469, 22.75717
214.3290, 23.09946
214.8112, 23.25570
215.2933, 23.28878
215.7754, 23.44294
216.2575, 23.77750
216.7396, 24.12172
217.2217, 24.37765
217.7038, 24.53635
218.1860, 24.61560
218.6681, 24.53877
219.1502, 24.39398
219.6323, 24.54398
220.1144, 25.14340
220.5965, 25.77057
221.0787, 26.16142
221.5608, 26.19715
222.0429, 26.33031
222.5250, 26.65234
223.0071, 27.08423
223.4892, 27.29047
223.9714, 27.10342
224.4535, 26.95831
224.9356, 27.11382
225.4177, 27.72009
225.8998, 28.26524
226.3819, 28.71700
226.8641, 29.09369
227.3462, 29.43978
227.8283, 29.74451
228.3104, 30.03423
228.7925, 30.33301
229.2746, 30.71184
229.7568, 30.93382
230.2389, 30.91845
230.7210, 30.75381
231.2031, 30.74450
231.6852, 31.04451
232.1673, 31.27171
232.6495, 31.20123
233.1316, 30.60124
233.6137, 30.23131
234.0958, 30.19648
234.5779, 30.38767
235.0600, 30.50010
235.5422, 30.49339
236.0243, 30.46839
236.5064, 30.47716
236.9885, 30.56978
237.4706, 30.57807
237.9527, 30.44712
238.4349, 30.24652
238.9170, 30.15601
239.3991, 30.22991
239.8812, 30.33315
240.3633, 30.43463
240.8454, 30.62012
241.3276, 30.57139
241.8097, 30.14534
242.2918, 29.53892
242.7739, 29.21051
243.2560, 29.35993
243.7381, 29.47805
244.2203, 29.34918
244.7024, 28.84277
245.1845, 28.46357
245.6666, 28.27035
246.1487, 28.17700
246.6308, 28.00414
247.1130, 27.67374
247.5951, 27.39182
248.0772, 27.25624
248.5593, 27.33575
249.0414, 27.30662
249.5235, 27.14852
250.0057, 26.89435
250.4878, 26.58764
250.9699, 26.20302
251.4520, 25.80726
251.9341, 25.40593
252.4162, 24.97156
252.8984, 24.65943
253.3805, 24.49828
253.8626, 24.43665
254.3447, 24.41614
254.8268, 24.48162
255.3089, 24.49706
255.7911, 24.42426
256.2732, 24.25911
256.7553, 24.02460
257.2374, 23.64706
257.7195, 23.27221
258.2017, 23.09983
258.6838, 23.23188
259.1659, 23.33038
259.6480, 23.30542
260.1301, 23.15259
260.6122, 23.00618
261.0944, 22.86749
261.5765, 22.73302
262.0586, 22.58684
262.5407, 22.39985
263.0228, 22.29602
263.5049, 22.38248
263.9871, 22.64002
264.4692, 22.51543
264.9513, 21.84611
265.4334, 21.05409
265.9155, 20.52409
266.3976, 20.33610
266.8798, 20.16666
267.3619, 19.93949
267.8440, 19.67519
268.3261, 19.59396
268.8082, 19.78597
269.2903, 19.97167
269.7725, 19.88703
270.2546, 19.45614
270.7367, 19.11137
271.2188, 18.92296
271.7009, 18.86605
272.1830, 18.85865
272.6652, 18.93378
273.1473, 18.96749
273.6294, 18.86952
274.1115, 18.62504
274.5936, 18.30704
275.0757, 17.85254
275.5579, 17.37429
276.0400, 17.28661
276.5221, 17.69555
277.0042, 18.06583
277.4863, 18.02692
277.9684, 17.54132
278.4506, 17.16532
278.9327, 16.94843
279.4148, 16.84407
279.8969, 16.76471
280.3790, 16.71177
280.8611, 16.67467
281.3433, 16.65642
281.8254, 16.65675
282.3075, 16.64667
282.7896, 16.63447
283.2717, 16.59211
283.7538, 16.43051
284.2360, 16.14201
284.7181, 15.93351
285.2002, 15.97165
285.6823, 16.21364
286.1644, 16.22557
286.6465, 15.95736
287.1287, 15.64055
287.6108, 15.58253
288.0929, 15.77207
288.5750, 16.01245
289.0571, 16.29605
289.5392, 16.57486
290.0214, 16.63416
290.5035, 16.46147
290.9856, 16.17914
291.4677, 15.82038
291.9498, 15.42061
292.4319, 15.22317
292.9141, 15.40342
293.3962, 15.77513
293.8783, 15.87904
294.3604, 15.71110
294.8425, 15.49759
295.3246, 15.42388
295.8068, 15.46121
296.2889, 15.51749
296.7710, 15.58053
297.2531, 15.64099
297.7352, 15.70284
298.2173, 15.76001
298.6995, 15.75985
299.1816, 15.61360
299.6637, 15.38573
300.1458, 15.20100
300.6279, 15.05875
301.1100, 15.01273
301.5922, 15.22110
302.0743, 15.61766
302.5564, 15.93424
303.0385, 15.93605
303.5206, 15.78631
304.0027, 15.73385
304.4849, 15.83289
304.9670, 15.93737
305.4491, 15.85984
305.9312, 15.67521
306.4133, 15.56314
306.8954, 15.72061
307.3776, 15.93720
307.8597, 15.96317
308.3418, 15.76550
308.8239, 15.58651
309.3060, 15.63490
309.7881, 15.81582
310.2703, 15.97748
310.7524, 16.08800
311.2345, 16.13756
311.7166, 16.06666
312.1987, 15.88266
312.6808, 15.76986
313.1630, 15.87117
313.6451, 16.08281
314.1272, 16.29507
314.6093, 16.53853
315.0914, 16.70899
315.5735, 16.70162
316.0557, 16.55068
316.5378, 16.43854
317.0199, 16.48697
317.5020, 16.57821
317.9841, 16.62703
318.4662, 16.59692
318.9484, 16.54685
319.4305, 16.46691
319.9126, 16.37859
320.3947, 16.33837
320.8768, 16.44339
321.3589, 16.53958
321.8411, 16.51997
322.3232, 16.26125
322.8053, 16.15899
323.2874, 16.50518
323.7695, 17.01442
324.2516, 17.23475
324.7338, 16.74912
325.2159, 16.28487
325.6980, 16.07769
326.1801, 16.19149
326.6622, 16.32341
327.1443, 16.56495
327.6265, 16.76752
328.1086, 16.77897
328.5907, 16.30643
329.0728, 15.97146
329.5549, 15.94919
330.0370, 16.24433
330.5192, 16.33655
331.0013, 16.01936
331.4834, 15.67511
331.9655, 15.57508
332.4476, 15.89959
332.9297, 16.15872
333.4119, 16.28576
333.8940, 16.31271
334.3761, 16.38061
334.8582, 16.51484
335.3403, 16.64691
335.8224, 16.74758
336.3046, 16.82550
336.7867, 16.83383
337.2688, 16.72709
337.7509, 16.58410
338.2330, 16.61461
338.7151, 16.92348
339.1973, 17.06861
339.6794, 16.74570
340.1615, 15.91390
340.6436, 15.64781
341.1257, 16.10920
341.6078, 16.78857
342.0899, 16.99416
342.5721, 16.68412
343.0542, 16.43446
343.5363, 16.44671
344.0184, 16.65214
344.5005, 16.75710
344.9826, 16.75550
345.4648, 16.69296
345.9469, 16.56434
346.4290, 16.38622
346.9111, 16.30171
347.3932, 16.34182
347.8753, 16.48147
348.3575, 16.76504
348.8396, 17.16793
349.3217, 17.41935
349.8038, 17.12766
350.2859, 16.55473
350.7680, 16.38443
351.2502, 16.75818
351.7323, 17.30181
352.2144, 17.63437
352.6965, 17.79300
353.1786, 17.87986
353.6607, 17.92602
354.1429, 17.93941
354.6250, 17.95181
355.1071, 17.96726
355.5892, 17.89892
356.0713, 17.55067
356.5534, 17.10311
357.0356, 16.82444
357.5177, 16.93143
357.9998, 17.14116
358.4819, 17.23438
358.9640, 17.23938
359.4461, 17.31304
359.9283, 17.63498
360.4104, 18.00845
360.8925, 18.27332
361.3746, 18.39289
361.8567, 18.40060
362.3388, 18.21075
362.8210, 17.91693
363.3031, 17.72741
363.7852, 17.77048
364.2673, 17.88198
364.7494, 17.99035
365.2315, 18.08485
365.7137, 18.18787
366.1958, 18.29334
366.6779, 18.41210
367.1600, 18.55787
367.6421, 18.82686
368.1242, 19.02509
368.6064, 19.08383
369.0885, 18.99432
369.5706, 18.94770
370.0527, 19.04239
370.5348, 19.10409
371.0169, 18.98773
371.4991, 18.33998
371.9812, 18.13585
372.4633, 18.66049
372.9454, 19.66849
373.4275, 20.26058
373.9096, 20.23262
374.3918, 20.15566
374.8739, 20.31681
375.3560, 20.80809
375.8381, 21.11811
376.3202, 21.19422
376.8023, 21.15340
377.2845, 21.16459
377.7666, 21.23319
378.2487, 21.31866
378.7308, 21.37564
379.2129, 21.42950
379.6950, 21.68922
380.1772, 22.19159
380.6593, 22.72059
381.1414, 23.06956
381.6235, 23.25365
382.1056, 23.43310
382.5877, 23.61606
383.0699, 23.84203
383.5520, 24.24666
384.0341, 24.81079
384.5162, 25.30108
384.9983, 25.52665
385.4804, 25.58141
385.9626, 25.64451
386.4447, 25.71999
386.9268, 25.87748
387.4089, 26.33076
387.8910, 26.92640
388.3731, 27.30859
388.8553, 27.10852
389.3374, 26.75573
389.8195, 26.67454
390.3016, 26.85711
390.7837, 27.06798
391.2658, 27.20988
391.7480, 27.28284
392.2301, 27.27665
392.7122, 27.09286
393.1943, 26.96215
393.6764, 27.06714
394.1585, 27.32277
394.6407, 27.48495
395.1228, 27.36705
395.6049, 27.21810
396.0870, 27.18903
396.5691, 27.37207
397.0512, 27.42903
397.5334, 27.15683
398.0155, 26.76783
398.4976, 26.53120
398.9797, 26.55506
399.4618, 26.64354
399.9439, 26.78214
400.4261, 26.97003
400.9082, 27.13668
401.3903, 27.29836
401.8724, 27.42252
402.3545, 27.48965
402.8366, 27.49932
403.3188, 27.44368
403.8009, 27.28271
404.2830, 27.07337
404.7651, 26.97384
405.2472, 27.02639
405.7293, 27.07075
406.2115, 27.02952
406.6936, 26.89964
407.1757, 26.79722
407.6578, 26.70639
408.1399, 26.68666
408.6220, 26.90655
409.1042, 27.35610
409.5863, 27.53782
410.0684, 27.18513
410.5505, 26.58721
411.0326, 26.51501
411.5147, 26.95005
411.9969, 27.32441
412.4790, 27.13812
412.9611, 26.59656
413.4432, 26.18731
413.9253, 25.97672
414.4074, 25.88174
414.8896, 25.84840
415.3717, 25.86162
415.8538, 25.88659
416.3359, 25.90353
416.8180, 25.92674
417.3001, 25.97931
417.7823, 26.06042
418.2644, 26.12417
418.7465, 26.11075
419.2286, 26.08357
419.7107, 26.10608
420.1928, 26.23298
420.6750, 26.35991
421.1571, 26.47397
421.6392, 26.56053
422.1213, 26.57835
422.6034, 26.39614
423.0855, 26.24636
423.5677, 26.23652
424.0498, 26.41665
424.5319, 26.58774
425.0140, 26.70960
425.4961, 26.82967
425.9782, 27.00143
426.4604, 27.32513
426.9425, 27.54745
427.4246, 27.55262
427.9067, 27.39829
428.3888, 27.51516
428.8709, 28.04983
429.3531, 28.59566
429.8352, 28.90358
430.3173, 28.90160
430.7994, 29.02058
431.2815, 29.31105
431.7636, 29.66100
432.2458, 29.84365
432.7279, 29.84256
433.2100, 29.94818
433.6921, 30.29842
434.1742, 30.82986
434.6563, 31.33620
435.1385, 31.82648
435.6206, 32.22374
436.1027, 32.31062
436.5848, 32.24921
437.0669, 32.52987
437.5490, 33.34364
438.0312, 34.27954
438.5133, 34.89555
438.9954, 35.26326
439.4775, 35.58059
439.9596, 35.94630
440.4417, 36.31011
440.9239, 36.64125
441.4060, 36.93832
441.8881, 37.16739
442.3702, 37.18998
442.8523, 37.18722
443.3344, 37.33792
443.8166, 37.88013
444.2987, 38.35792
444.7808, 38.55355
445.2629, 38.56744
445.7450, 38.69571
446.2271, 39.11209
446.7093, 39.54980
447.1914, 39.90076
447.6735, 40.12450
448.1556, 40.39027
448.6377, 40.83167
449.1198, 41.22291
449.6020, 41.30650
450.0841, 40.89168
450.5662, 40.57548
451.0483, 40.50364
451.5304, 40.59564
452.0125, 40.44416
452.4947, 39.94125
452.9768, 39.52402
453.4589, 39.58861
453.9410, 40.15650
454.4231, 40.07593
454.9052, 39.18347
455.3874, 38.09185
455.8695, 37.59029
456.3516, 37.61334
456.8337, 37.70213
457.3158, 37.75656
457.7979, 37.74946
458.2801, 37.66121
458.7622, 37.48418
459.2443, 37.15210
459.7264, 36.34912
460.2085, 35.47099
460.6906, 35.16251
461.1728, 35.65119
461.6549, 36.07011
462.1370, 35.63776
462.6191, 34.77113
463.1012, 34.08894
463.5833, 34.02582
464.0655, 34.00450
464.5476, 33.78901
465.0297, 33.38831
465.5118, 32.91682
465.9939, 32.32145
466.4760, 31.73160
466.9582, 31.21821
467.4403, 30.78060
467.9224, 30.42364
468.4045, 30.19148
468.8866, 30.02061
469.3687, 29.80970
469.8509, 29.50130
470.3330, 29.27195
470.8151, 29.21533
471.2972, 29.29936
471.7793, 29.16122
472.2614, 28.73913
472.7436, 28.26006
473.2257, 27.87626
473.7078, 27.58776
474.1899, 27.30618
474.6720, 27.01707
475.1541, 26.74883
475.6363, 26.50765
476.1184, 26.30793
476.6005, 26.24859
477.0826, 26.45196
477.5647, 26.76986
478.0468, 27.01694
478.5290, 27.18320
479.0111, 27.17715
479.4932, 26.69750
479.9753, 26.11111
480.4574, 25.91016
480.9395, 26.30520
481.4217, 26.67877
481.9038, 26.60329
482.3859, 26.27308
482.8680, 25.97230
483.3501, 25.95102
483.8322, 25.82254
484.3144, 25.34157
484.7965, 24.54431
485.2786, 23.93567
485.7607, 23.66606
486.2428, 23.55236
486.7249, 23.53044
487.2071, 23.76284
487.6892, 23.72272
488.1713, 23.24379
488.6534, 22.60935
489.1355, 22.26025
489.6176, 22.33618
490.0998, 22.26321
490.5819, 21.80464
491.0640, 21.09164
491.5461, 20.88858
492.0282, 21.26630
492.5103, 21.62174
492.9925, 21.44870
493.4746, 20.86189
493.9567, 20.48962
494.4388, 20.39685
494.9209, 20.38418
495.4030, 20.23665
495.8852, 19.98911
496.3673, 19.72115
496.8494, 19.41313
497.3315, 19.14675
497.8136, 19.04779
498.2957, 19.07365
498.7779, 19.05409
499.2600, 18.85589
499.7421, 18.60984
500.2242, 18.40203
500.7063, 18.24317
501.1884, 18.11447
501.6706, 18.03583
502.1527, 17.97436
502.6348, 17.89824
503.1169, 17.73991
503.5990, 17.64548
504.0811, 17.67980
504.5633, 17.79493
505.0454, 17.80757
505.5275, 17.67251
506.0096, 17.51249
506.4917, 17.37973
506.9738, 17.27800
507.4560, 17.12093
507.9381, 16.87394
508.4202, 16.66427
508.9023, 16.67245
509.3844, 16.88193
509.8665, 17.00189
510.3487, 16.96907
510.8308, 16.84048
511.3129, 16.65652
511.7950, 16.44118
512.2772, 16.30641
512.7593, 16.41164
513.2414, 16.57665
513.7235, 16.55737
514.2056, 16.35711
514.6877, 16.16311
515.1699, 16.14855
515.6520, 16.16710
516.1341, 16.06427
516.6162, 15.69462
517.0983, 15.42076
517.5804, 15.41877
518.0626, 15.57492
518.5447, 15.70278
519.0268, 15.82486
519.5089, 15.85744
519.9910, 15.74701
520.4731, 15.50539
520.9553, 15.31900
521.4374, 15.19569
521.9195, 15.11866
522.4016, 15.08442
522.8837, 15.09949
523.3658, 15.12976
523.8480, 15.18260
524.3301, 15.23496
524.8122, 15.26109
525.2943, 15.26093
525.7764, 15.22171
526.2585, 15.11277
526.7407, 14.99448
527.2228, 14.99193
527.7049, 15.08876
528.1870, 15.18818
528.6691, 15.27997
529.1512, 15.31813
529.6334, 15.19560
530.1155, 14.89682
530.5976, 14.68023
531.0797, 14.82259
531.5618, 15.06317
532.0439, 15.13348
532.5261, 14.78100
533.0082, 14.52127
533.4903, 14.55765
533.9724, 14.76731
534.4545, 14.88745
534.9366, 14.78346
535.4188, 14.71644
535.9009, 14.76400
536.3830, 14.92250
536.8651, 15.03442
537.3472, 15.11145
537.8293, 15.12007
538.3115, 14.98493
538.7936, 14.68372
539.2757, 14.58656
539.7578, 14.75279
540.2399, 15.00873
540.7220, 15.13533
541.2042, 15.14586
541.6863, 15.11985
542.1684, 15.04777
542.6505, 14.99161
543.1326, 15.10346
543.6147, 15.32744
544.0969, 15.45159
544.5790, 15.18699
545.0611, 14.87773
545.5432, 14.86353
546.0253, 15.18846
546.5074, 15.43221
546.9896, 15.37707
547.4717, 15.18786
547.9538, 14.99350
548.4359, 14.69922
548.9180, 14.56286
549.4001, 14.73349
549.8823, 15.03218
550.3644, 15.14755
550.8465, 14.97748
551.3286, 14.81871
551.8107, 14.75124
552.2928, 14.75951
552.7750, 14.72468
553.2571, 14.63717
553.7392, 14.55326
554.2213, 14.48491
554.7034, 14.44399
555.1855, 14.51982
555.6677, 14.72904
556.1498, 14.96193
556.6319, 15.13371
557.1140, 15.23892
557.5961, 15.24643
558.0782, 15.07112
558.5604, 14.92459
559.0425, 15.03058
559.5246, 15.29569
560.0067, 15.51231
560.4888, 15.57887
560.9709, 15.59134
561.4531, 15.57618
561.9352, 15.53576
562.4173, 15.50850
562.8994, 15.45546
563.3815, 15.45479
563.8636, 15.58376
564.3458, 16.00897
564.8279, 16.06677
565.3100, 15.55906
565.7921, 14.93459
566.2742, 14.82416
566.7563, 15.28461
567.2385, 15.69944
567.7206, 15.95217
568.2027, 16.06492
568.6848, 16.02731
569.1669, 15.85898
569.6490, 15.71008
570.1312, 15.68661
570.6133, 15.71791
571.0954, 15.68476
571.5775, 15.59092
572.0596, 15.53795
572.5417, 15.60742
573.0239, 15.73609
573.5060, 15.87786
573.9881, 16.04546
574.4702, 16.17107
574.9523, 16.23491
575.4344, 16.24700
575.9166, 16.21734
576.3987, 16.01306
576.8808, 15.95022
577.3629, 16.11836
577.8450, 16.44607
578.3271, 16.71173
578.8093, 16.92192
579.2914, 17.04393
579.7735, 17.00677
580.2556, 16.84873
580.7377, 16.88514
581.2198, 17.12698
581.7020, 17.44543
582.1841, 17.81510
582.6662, 18.17176
583.1483, 18.34491
583.6304, 18.28874
584.1125, 18.16000
584.5947, 18.02214
585.0768, 17.92000
585.5589, 17.91959
586.0410, 18.07210
586.5231, 18.29859
587.0052, 18.63259
587.4873, 19.02088
587.9694, 19.31424
588.4515, 19.36268
588.9337, 19.44187
589.4158, 19.62736
589.8979, 19.91958
590.3800, 20.26847
590.8621, 20.71897
591.3442, 21.14802
591.8264, 21.44800
592.3085, 21.60665
592.7906, 21.85519
593.2727, 22.21417
593.7548, 22.61648
594.2369, 22.98862
594.7191, 23.34223
595.2012, 23.70070
595.6833, 24.03753
596.1654, 24.45187
596.6475, 25.18925
597.1296, 26.08771
597.6118, 26.78936
598.0939, 26.91471
598.5760, 26.99202
599.0581, 27.36452
599.5402, 27.99284
600.0223, 28.50034
600.5045, 28.58989
600.9866, 28.72719
601.4687, 29.16055
601.9508, 29.99379
602.4329, 30.68083
602.9150, 31.23246
603.3972, 31.61524
603.8793, 31.75391
604.3614, 31.62313
604.8435, 31.53697
605.3256, 31.55087
605.8077, 31.57638
606.2899, 31.49956
606.7720, 31.31829
607.2541, 31.01401
607.7362, 30.46207
608.2183, 29.90606
608.7004, 29.69475
609.1826, 29.74249
609.6647, 29.75979
610.1468, 29.65835
610.6289, 29.43173
611.1110, 29.02019
611.5931, 28.41055
612.0753, 27.90010
612.5574, 27.64716
613.0395, 27.42792
613.5216, 27.10199
614.0037, 26.56976
614.4858, 26.18690
614.9680, 25.99737
615.4501, 25.89736
615.9322, 25.75785
616.4143, 25.57418
616.8964, 25.46145
617.3785, 25.47974
617.8607, 25.50789
618.3428, 25.32581
618.8249, 24.96480
619.3070, 24.55545
619.7891, 24.10218
620.2712, 23.67035
620.7534, 23.33969
621.2355, 23.09258
621.7176, 22.86088
622.1997, 22.58350
622.6818, 22.33501
623.1639, 22.18596
623.6461, 22.16993
624.1282, 22.05250
624.6103, 21.78186
625.0924, 21.42890
625.5745, 21.00399
626.0566, 20.38813
626.5388, 20.04947
627.0209, 20.06559
627.5030, 20.24904
627.9851, 20.46128
628.4672, 20.68314
628.9493, 20.50203
629.4315, 19.68005
629.9136, 18.66483
630.3957, 18.09156
630.8778, 17.89846
631.3599, 17.91240
631.8420, 18.31144
632.3242, 18.67342
632.8063, 18.60434
633.2884, 18.17951
633.7705, 17.82953
634.2526, 17.90292
634.7347, 17.91658
635.2169, 17.53095
635.6990, 16.60294
636.1811, 16.14012
636.6632, 16.35565
637.1453, 16.76764
637.6274, 17.06958
638.1096, 17.26910
638.5917, 17.30552
639.0738, 17.15356
639.5559, 16.90584
640.0380, 16.62146
640.5201, 16.32598
641.0023, 16.15009
641.4844, 16.16451
641.9665, 16.22938
642.4486, 16.17392
642.9307, 16.05492
643.4128, 15.99655
643.8950, 16.09122
644.3771, 16.21926
644.8592, 16.38360
645.3413, 16.55371
645.8234, 16.58418
646.3055, 16.20593
646.7877, 15.94331
647.2698, 16.02242
647.7519, 16.46197
648.2340, 16.68913
648.7161, 16.66049
649.1982, 16.53858
649.6804, 16.41979
650.1625, 16.30529
650.6446, 16.21696
651.1267, 16.16105
651.6088, 16.09136
652.0909, 15.89145
652.5731, 15.66077
653.0552, 15.58857
653.5373, 15.77172
654.0194, 15.99832
654.5015, 16.20425
654.9836, 16.35402
655.4658, 16.39750
655.9479, 16.12867
656.4300, 15.97662
656.9121, 16.15958
657.3942, 16.51455
657.8763, 16.57134
658.3585, 16.17970
658.8406, 15.84101
659.3227, 15.71506
659.8048, 15.76925
660.2869, 15.85406
660.7690, 15.96968
661.2512, 16.10288
661.7333, 16.27246
662.2154, 16.44389
662.6975, 16.53935
663.1796, 16.55772
663.6617, 16.56209
664.1439, 16.57051
664.6260, 16.59986
665.1081, 16.69168
665.5902, 16.90477
666.0723, 16.99505
666.5544, 16.76858
667.0366, 16.47155
667.5187, 16.33985
668.0008, 16.50402
668.4829, 16.55120
668.9650, 16.39917
669.4471, 16.19184
669.9293, 16.18343
670.4114, 16.37668
670.8935, 16.51648
671.3756, 16.49613
671.8577, 16.44857
672.3398, 16.68711
672.8220, 17.10781
673.3041, 17.35314
673.7862, 17.08310
674.2683, 16.71087
674.7504, 16.46184
675.2325, 16.35006
675.7147, 16.41745
676.1968, 17.01842
676.6789, 17.48363
677.1610, 17.42594
677.6431, 16.81553
678.1252, 16.45722
678.6074, 16.39860
679.0895, 16.50934
679.5716, 16.81626
680.0537, 17.32154
680.5358, 17.37300
681.0179, 16.90118
681.5001, 16.41727
681.9822, 16.51900
682.4643, 16.96427
682.9464, 17.26465
683.4285, 17.32539
683.9106, 17.27699
684.3928, 17.06645
684.8749, 16.85829
685.3570, 16.84719
685.8391, 17.29959
686.3212, 17.68435
686.8033, 18.02047
687.2855, 18.21083
687.7676, 18.03929
688.2497, 17.27897
688.7318, 16.73032
689.2139, 16.58821
689.6960, 16.72642
690.1782, 16.83327
690.6603, 16.91087
691.1424, 16.99919
691.6245, 17.15318
692.1066, 17.30674
692.5887, 17.32908
693.0709, 17.24923
693.5530, 17.19281
694.0351, 17.29232
694.5172, 17.38490
694.9993, 17.33254
695.4814, 17.12222
695.9636, 17.01310
696.4457, 17.12644
696.9278, 17.26844
697.4099, 17.35861
697.8920, 17.39485
698.3741, 17.38517
698.8563, 17.31935
699.3384, 17.23893
699.8205, 17.18387
700.3026, 17.14741
700.7847, 17.07891
701.2668, 16.96375
701.7490, 16.88836
702.2311, 16.97468
702.7132, 17.13840
703.1953, 17.26240
703.6774, 17.30511
704.1595, 17.33049
704.6417, 17.37074
705.1238, 17.40605
705.6059, 17.40569
706.0880, 17.32756
706.5701, 17.28625
707.0522, 17.31867
707.5344, 17.37448
708.0165, 17.35062
708.4986, 17.24512
708.9807, 17.09151
709.4628, 16.87772
709.9449, 16.64867
710.4271, 16.41074
710.9092, 16.21346
711.3913, 16.23282
711.8734, 16.86535
712.3555, 17.48792
712.8376, 17.59875
713.3198, 17.28693
713.8019, 17.02719
714.2840, 16.98180
714.7661, 16.97989
715.2482, 16.97118
715.7303, 16.95479
716.2125, 16.90055
716.6946, 16.78506
717.1767, 16.69482
717.6588, 16.71955
718.1409, 16.83146
718.6230, 16.76918
719.1052, 16.52651
719.5873, 16.33891
720.0694, 16.44625
720.5515, 16.69201
721.0336, 16.91166
721.5157, 17.09374
721.9979, 17.13859
722.4800, 16.81012
722.9621, 16.44596
723.4442, 16.33454
723.9263, 16.68233
724.4084, 16.88696
724.8906, 16.89390
725.3727, 16.82388
725.8548, 16.81504
726.3369, 16.87778
726.8190, 16.80712
727.3011, 16.54232
727.7833, 16.27662
728.2654, 16.35248
728.7475, 16.62067
729.2296, 16.69642
729.7117, 16.34480
730.1938, 16.04231
730.6760, 16.24838
731.1581, 16.67940
731.6402, 16.90133
732.1223, 16.53830
732.6044, 16.30068
733.0865, 16.34980
733.5687, 16.56174
734.0508, 16.69246
734.5329, 16.74571
735.0150, 16.68426
735.4971, 16.44015
735.9792, 16.14160
736.4614, 16.13541
736.9435, 16.36289
737.4256, 16.52177
737.9077, 16.33559
738.3898, 16.11099
738.8719, 16.21132
739.3541, 16.52961
739.8362, 16.68733
740.3183, 16.29782
740.8004, 15.97341
741.2825, 16.03392
741.7646, 16.41710
742.2468, 16.59335
742.7289, 16.50087
743.2110, 16.35405
743.6931, 16.22896
744.1752, 16.13004
744.6573, 16.08897
745.1395, 16.10522
745.6216, 16.14795
746.1037, 16.21572
746.5858, 16.28673
747.0679, 16.36519
747.5500, 16.44545
748.0322, 16.41263
748.5143, 16.05159
748.9964, 15.69026
749.4785, 15.55227
749.9606, 15.71040
750.4427, 15.77021
750.9249, 15.69811
751.4070, 15.58654
751.8891, 15.50205
752.3712, 15.44308
752.8533, 15.33152
753.3354, 15.15355
753.8176, 15.02788
754.2997, 15.13284
754.7818, 15.33778
755.2639, 15.41322
755.7460, 15.29381
756.2281, 15.24188
756.7103, 15.53764
757.1924, 15.87816
757.6745, 15.98402
758.1566, 15.61517
758.6387, 15.43361
759.1208, 15.54217
759.6030, 15.71133
760.0851, 15.67911
760.5672, 15.43617
761.0493, 15.26795
761.5314, 15.20564
762.0135, 15.22319
762.4957, 15.37722
762.9778, 15.57070
763.4599, 15.60451
763.9420, 15.36644
764.4241, 15.11460
764.9063, 14.94695
765.3884, 14.86351
765.8705, 14.86635
766.3526, 15.04738
766.8347, 15.18336
767.3168, 15.26882
767.7990, 15.30335
768.2811, 15.28387
768.7632, 15.20958
769.2453, 15.08004
769.7274, 14.86404
770.2095, 14.67440
770.6917, 14.70327
771.1738, 14.87904
771.6559, 15.04862
772.1380, 15.17837
772.6201, 15.25644
773.1022, 15.24797
773.5844, 15.18879
774.0665, 15.14125
774.5486, 15.10012
775.0307, 15.09556
775.5128, 15.16114
775.9949, 15.24566
776.4771, 15.22100
776.9592, 15.08290
777.4413, 14.95843
777.9234, 14.88610
778.4055, 14.84287
778.8876, 14.78765
779.3698, 14.73262
779.8519, 14.70897
780.3340, 14.78688
780.8161, 14.84152
781.2982, 14.77382
781.7803, 14.63840
782.2625, 14.59053
782.7446, 14.72686
783.2267, 14.79989
783.7088, 14.72245
784.1909, 14.57059
784.6730, 14.59272
785.1552, 14.78675
785.6373, 14.92620
786.1194, 14.88480
786.6015, 14.78140
787.0836, 14.82479
787.5657, 14.95310
788.0479, 14.99375
788.5300, 14.73158
789.0121, 14.50188
789.4942, 14.48758
789.9763, 14.63497
790.4584, 14.71012
790.9406, 14.63050
791.4227, 14.63469
791.9048, 14.81644
792.3869, 15.11146
792.8690, 15.35001
793.3511, 15.52909
793.8333, 15.57001
794.3154, 15.36642
794.7975, 15.06555
795.2796, 14.77610
795.7617, 14.52972
796.2438, 14.44023
796.7260, 14.70913
797.2081, 14.97848
797.6902, 15.13885
798.1723, 15.19000
798.6544, 15.11221
799.1365, 14.83921
799.6187, 14.61403
800.1008, 14.51580
800.5829, 14.52092
801.0650, 14.59587
801.5471, 14.72532
802.0292, 14.81205
802.5114, 14.75765
802.9935, 14.67244
803.4756, 14.65288
803.9577, 14.68695
804.4398, 14.73365
804.9219, 14.78597
805.4041, 14.84414
805.8862, 14.91259
806.3683, 14.98679
806.8504, 15.04336
807.3325, 15.07557
807.8146, 15.13129
808.2968, 15.26950
808.7789, 15.40902
809.2610, 15.32194
809.7431, 15.06012
810.2252, 14.83488
810.7073, 14.80470
811.1895, 14.80259
811.6716, 14.70424
812.1537, 14.54166
812.6358, 14.43974
813.1179, 14.47687
813.6000, 14.49129
814.0822, 14.42494
814.5643, 14.31617
815.0464, 14.31407
815.5285, 14.42014
816.0106, 14.53686
816.4927, 14.61097
816.9749, 14.68725
817.4570, 14.93504
817.9391, 15.24989
818.4212, 15.33785
818.9033, 14.70833
819.3854, 14.19648
819.8676, 14.27175
820.3497, 14.75291
820.8318, 14.99017
821.3139, 14.86356
821.7960, 14.77419
822.2781, 14.84257
822.7603, 14.98688
823.2424, 14.99009
823.7245, 14.87541
824.2066, 14.79656
824.6887, 14.85826
825.1708, 14.92799
825.6530, 14.84092
826.1351, 14.67189
826.6172, 14.58947
827.0993, 14.71280
827.5814, 14.84422
828.0635, 14.98278
828.5457, 15.08902
829.0278, 15.07068
829.5099, 14.91280
829.9920, 14.71752
830.4741, 14.48134
830.9562, 14.27532
831.4384, 14.23522
831.9205, 14.31594
832.4026, 14.40241
832.8847, 14.46131
833.3668, 14.50467
833.8489, 14.52525
834.3311, 14.53765
834.8132, 14.57456
835.2953, 14.72194
835.7774, 14.71756
836.2595, 14.46731
836.7416, 14.14152
837.2238, 14.01025
837.7059, 14.06026
838.1880, 14.20157
838.6701, 14.45061
839.1522, 14.66943
839.6343, 14.72344
840.1165, 14.65588
840.5986, 14.51482
841.0807, 14.18230
841.5628, 13.99955
842.0449, 14.13985
842.5270, 14.38857
843.0092, 14.54827
843.4913, 14.61568
843.9734, 14.58807
844.4555, 14.43682
844.9376, 14.29726
845.4197, 14.36715
845.9019, 14.56176
846.3840, 14.71077
846.8661, 14.78352
847.3482, 14.80226
847.8303, 14.78650
848.3124, 14.71831
848.7946, 14.55960
849.2767, 14.21450
849.7588, 14.05324
850.2409, 14.14810
850.7230, 14.28989
851.2051, 14.27278
851.6873, 14.12826
852.1694, 14.07407
852.6515, 14.12662
853.1336, 14.19146
853.6157, 14.18673
854.0978, 14.15897
854.5800, 14.14794
855.0621, 14.15743
855.5442, 14.19475
856.0263, 14.26153
856.5084, 14.35991
856.9905, 14.53560
857.4727, 14.78898
857.9548, 14.74173
858.4369, 14.36052
858.9190, 14.04262
859.4011, 14.16921
859.8832, 14.48620
860.3654, 14.56183
860.8475, 14.41539
861.3296, 14.32045
861.8117, 14.50627
862.2938, 14.67541
862.7759, 14.66730
863.2581, 14.50389
863.7402, 14.31610
864.2223, 14.06839
864.7044, 13.92801
865.1865, 14.01176
865.6686, 14.21824
866.1508, 14.25822
866.6329, 14.17535
867.1150, 14.15688
867.5971, 14.44432
868.0792, 14.68641
868.5613, 14.61378
869.0435, 14.32404
869.5256, 14.12841
870.0077, 14.08470
870.4898, 14.07721
870.9719, 14.09972
871.4540, 14.13204
871.9362, 14.12217
872.4183, 14.07635
872.9004, 14.04699
873.3825, 14.06307
873.8646, 14.07427
874.3467, 13.99110
874.8289, 13.88296
875.3110, 13.85633
875.7931, 14.09248
876.2752, 14.20035
876.7573, 14.08794
877.2394, 13.89512
877.7216, 13.77149
878.2037, 13.71781
878.6858, 13.74597
879.1679, 13.86818
879.6500, 14.01913
880.1321, 14.15805
880.6143, 14.26935
881.0964, 14.32170
881.5785, 14.29700
882.0606, 14.27293
882.5427, 14.32174
883.0248, 14.34284
883.5070, 14.25704
883.9891, 14.03712
884.4712, 13.87426
884.9533, 13.77410
885.4354, 13.70856
885.9175, 13.59337
886.3997, 13.51709
886.8818, 13.77387
887.3639, 14.33273
887.8460, 14.69755
888.3281, 14.31598
888.8102, 13.91580
889.2924, 13.99820
889.7745, 14.52425
890.2566, 14.73659
890.7387, 14.56736
891.2208, 14.27023
891.7029, 13.86098
892.1851, 13.45473
892.6672, 13.38930
893.1493, 13.60550
893.6314, 13.84633
894.1135, 14.02914
894.5956, 14.15317
895.0778, 14.19306
895.5599, 14.17571
896.0420, 14.17307
896.5241, 14.23307
897.0062, 14.21443
897.4883, 14.07716
897.9705, 13.87607
898.4526, 13.66426
898.9347, 13.46738
899.4168, 13.42935
899.8989, 13.63930
900.3810, 13.85168
900.8632, 13.83486
901.3453, 13.72904
901.8274, 13.69410
902.3095, 13.78068
902.7916, 13.92432
903.2737, 14.20469
903.7559, 14.42257
904.2380, 14.34504
904.7201, 14.00966
905.2022, 13.76257
905.6843, 13.62595
906.1664, 13.60652
906.6486, 13.85974
907.1307, 14.13230
907.6128, 14.12751
908.0949, 13.79569
908.5770, 13.67097
909.0591, 13.99500
909.5413, 14.29589
910.0234, 14.36564
910.5055, 14.24715
910.9876, 14.20725
911.4697, 14.24186
911.9518, 14.27274
912.4340, 14.32377
912.9161, 14.29648
913.3982, 13.95568
913.8803, 13.44960
914.3624, 13.19423
914.8445, 13.61987
915.3267, 13.89521
915.8088, 13.79081
916.2909, 13.52350
916.7730, 13.55770
917.2551, 13.88571
917.7372, 14.16678
918.2194, 14.34725
918.7015, 14.38476
919.1836, 14.06047
919.6657, 13.63259
920.1478, 13.47756
920.6299, 13.85996
921.1121, 14.12884
921.5942, 14.16041
922.0763, 14.09135
922.5584, 13.99769
923.0405, 13.87557
923.5226, 13.89755
924.0048, 14.08137
924.4869, 14.18710
924.9690, 13.87203
925.4511, 13.46468
925.9332, 13.36501
926.4153, 13.58428
926.8975, 13.80740
927.3796, 13.99131
927.8617, 14.11382
928.3438, 14.16223
928.8259, 14.14361
929.3080, 14.07961
929.7902, 13.97118
930.2723, 13.89084
930.7544, 13.90898
931.2365, 13.92680
931.7186, 13.76598
932.2007, 13.52752
932.6829, 13.41889
933.1650, 13.63297
933.6471, 13.80771
934.1292, 13.88797
934.6113, 13.91349
935.0934, 13.92957
935.5756, 13.93659
936.0577, 13.93653
936.5398, 13.91749
937.0219, 13.97071
937.5040, 14.31496
937.9861, 14.71356
938.4683, 14.89095
938.9504, 14.78700
939.4325, 14.52890
939.9146, 13.89921
940.3967, 13.44004
940.8788, 13.52840
941.3610, 14.10297
941.8431, 14.32834
942.3252, 14.21695
942.8073, 14.07494
943.2894, 14.17274
943.7715, 14.27003
944.2537, 14.03565
944.7358, 13.59268
945.2179, 13.40540
945.7000, 13.87896
946.1821, 14.18266
946.6642, 14.09430
947.1464, 13.83847
947.6285, 13.91969
948.1106, 14.29215
948.5927, 14.62641
949.0748, 14.86318
949.5569, 14.96399
950.0391, 14.77832
950.5212, 14.49521
951.0033, 14.33493
951.4854, 14.38698
951.9675, 14.44565
952.4496, 14.49955
952.9318, 14.57313
953.4139, 14.71447
953.8960, 14.89973
954.3781, 14.96513
954.8602, 14.91522
955.3423, 14.87964
955.8245, 14.90924
956.3066, 15.01494
956.7887, 15.27386
957.2708, 15.64795
957.7529, 15.83737
958.2350, 15.73977
958.7172, 15.67373
959.1993, 15.69561
959.6814, 15.83855
960.1635, 16.25821
960.6456, 16.86470
961.1277, 17.36276
961.6099, 17.62615
962.0920, 17.82311
962.5741, 17.96117
963.0562, 18.13315
963.5383, 18.43410
964.0204, 18.84868
964.5026, 19.47697
964.9847, 20.37779
965.4668, 21.26669
965.9489, 21.66239
966.4310, 21.91854
966.9131, 22.89428
967.3953, 24.58641
967.8774, 26.34005
968.3595, 27.63093
968.8416, 29.09281
969.3237, 31.16607
969.8058, 33.66856
970.2880, 35.69981
970.7701, 37.19523
971.2522, 38.92590
971.7343, 41.28283
972.2164, 43.81467
972.6985, 45.89531
973.1807, 47.70829
973.6628, 49.57513
974.1449, 51.50505
974.6270, 53.70173
975.1091, 56.27122
975.5912, 59.08248
976.0734, 61.88299
976.5555, 64.63847
977.0376, 68.42231
977.5197, 73.24998
978.0018, 78.89629
978.4839, 85.50757
978.9661, 92.67849
979.4482, 100.1976
979.9303, 108.0106
980.4124, 115.6018
980.8945, 123.7444
981.3766, 130.6112
981.8588, 136.1846
982.3409, 139.8273
982.8230, 139.4742
983.3051, 135.4456
983.7872, 129.3201
984.2693, 121.2123
984.7515, 112.0438
985.2336, 101.6879
985.7157, 90.98987
986.1978, 81.04494
986.6799, 71.70004
987.1620, 63.52842
987.6442, 56.56367
988.1263, 50.66137
988.6084, 45.84518
989.0905, 41.99387
989.5726, 39.05444
990.0547, 36.96550
990.5369, 35.33843
991.0190, 34.12633
991.5011, 33.17859
991.9832, 32.45082
992.4653, 31.92523
992.9474, 31.62022
993.4296, 31.57561
993.9117, 31.38609
994.3938, 30.88411
994.8759, 30.29302
995.3580, 29.85759
995.8401, 29.55879
996.3223, 29.38144
996.8044, 29.50399
997.2865, 29.33518
997.7686, 28.76070
998.2507, 27.92633
998.7328, 26.82797
999.2150, 25.49677
999.6971, 24.47434
1000.179, 23.77349
1000.661, 23.15594
1001.143, 22.52966
1001.626, 21.86689
1002.108, 21.10888
1002.590, 20.28494
1003.072, 19.50041
1003.554, 18.77142
1004.036, 18.08626
1004.518, 17.44406
1005.000, 16.85582
1005.482, 16.32435
1005.965, 15.87117
1006.447, 15.59480
1006.929, 15.56518
1007.411, 15.51772
1007.893, 15.36772
1008.375, 15.10479
1008.857, 14.66681
1009.339, 14.01409
1009.822, 13.75100
1010.304, 13.90233
1010.786, 14.17047
1011.268, 14.51033
1011.750, 14.75807
1012.232, 14.55461
1012.714, 14.07706
1013.196, 13.83528
1013.678, 14.27051
1014.161, 14.55974
1014.643, 14.51639
1015.125, 14.35690
1015.607, 14.44001
1016.089, 14.70922
1016.571, 14.81763
1017.053, 14.71096
1017.535, 14.47948
1018.018, 13.95667
1018.500, 13.51857
1018.982, 13.58198
1019.464, 14.18025
1019.946, 14.33400
1020.428, 13.90049
1020.910, 13.55941
1021.392, 13.68035
1021.874, 13.98487
1022.357, 13.90340
1022.839, 13.57697
1023.321, 13.33580
1023.803, 13.36584
1024.285, 13.40222
1024.767, 13.39495
1025.249, 13.35489
1025.731, 13.24662
1026.214, 13.06663
1026.696, 13.15593
1027.178, 13.53965
1027.660, 13.87476
1028.142, 13.86496
1028.624, 13.71453
1029.106, 13.55127
1029.588, 13.39851
1030.070, 13.33981
1030.553, 13.38328
1031.035, 13.51937
1031.517, 13.80408
1031.999, 14.08291
1032.481, 14.02227
1032.963, 13.74032
1033.445, 13.53705
1033.927, 13.49320
1034.410, 13.49872
1034.892, 13.57179
1035.374, 13.61883
1035.856, 13.56778
1036.338, 13.41591
1036.820, 13.25778
1037.302, 13.09312
1037.784, 13.05770
1038.266, 13.30374
1038.749, 13.66272
1039.231, 14.09793
1039.713, 14.50159
1040.195, 14.58349
1040.677, 13.88881
1041.159, 13.64135
1041.641, 14.10812
1042.123, 14.71746
1042.605, 14.76227
1043.088, 14.38672
1043.570, 13.92697
1044.052, 13.41978
1044.534, 13.07054
1045.016, 12.98193
1045.498, 13.10052
1045.980, 13.51477
1046.462, 14.10843
1046.945, 14.30697
1047.427, 14.09676
1047.909, 13.93488
1048.391, 13.98546
1048.873, 14.11227
1049.355, 14.18791
1049.837, 14.24291
1050.319, 14.32252
1050.802, 14.46578
1051.284, 14.56211
1051.766, 14.61163
1052.248, 14.60964
1052.730, 14.53650
1053.212, 14.41089
1053.694, 14.25362
1054.176, 14.08694
1054.658, 14.01208
1055.141, 14.20281
1055.623, 14.34856
1056.105, 14.28789
1056.587, 14.14567
1057.069, 14.11460
1057.551, 14.19908
1058.033, 14.21249
1058.515, 14.11689
1058.997, 14.08518
1059.480, 14.35100
1059.962, 14.69850
1060.444, 14.94980
1060.926, 15.08043
1061.408, 15.08940
1061.890, 14.90656
1062.372, 14.80899
1062.854, 14.92915
1063.337, 15.12838
1063.819, 15.10737
1064.301, 14.96435
1064.783, 14.92798
1065.265, 15.13773
1065.747, 15.27717
1066.229, 15.17861
1066.711, 15.04770
1067.193, 15.00934
1067.676, 15.05997
1068.158, 15.11525
1068.640, 15.17936
1069.122, 15.30681
1069.604, 15.71365
1070.086, 16.01359
1070.568, 15.78284
1071.050, 15.29685
1071.532, 15.19939
1072.015, 15.66988
1072.497, 15.92177
1072.979, 15.85088
1073.461, 15.68357
1073.943, 15.65230
1074.425, 15.68163
1074.907, 15.63976
1075.389, 15.52356
1075.872, 15.51086
1076.354, 15.79144
1076.836, 15.95377
1077.318, 15.79745
1077.800, 15.54680
1078.282, 15.84083
1078.764, 16.49671
1079.246, 16.80264
1079.729, 16.47569
1080.211, 16.14522
1080.693, 16.17565
1081.175, 16.32244
1081.657, 16.39600
1082.139, 16.39596
1082.621, 16.42797
1083.103, 16.49196
1083.585, 16.61251
1084.068, 16.88227
1084.550, 17.13049
1085.032, 17.16367
1085.514, 17.06521
1085.996, 16.97234
1086.478, 16.82735
1086.960, 16.88229
1087.442, 17.19939
1087.924, 17.54540
1088.406, 17.67846
1088.889, 17.69862
1089.371, 17.81030
1089.853, 18.00131
1090.335, 18.13101
1090.817, 18.10962
1091.299, 18.05757
1091.781, 17.95667
1092.263, 17.89097
1092.746, 18.06451
1093.228, 18.42168
1093.710, 18.69204
1094.192, 18.82471
1094.674, 18.91276
1095.156, 18.93176
1095.638, 19.00433
1096.120, 19.25942
1096.603, 19.36920
1097.085, 19.85371
1097.567, 19.84304
1098.049, 19.95987
1098.531, 20.34830
1099.013, 20.86964
1099.495, 21.52030
1099.977, 22.15197
1100.459, 22.55241
1100.942, 22.55166
1101.424, 22.77543
1101.906, 23.30230
1102.388, 23.80003
1102.870, 23.95057
1103.352, 23.98726
1103.834, 24.33766
1104.316, 24.95818
1104.798, 25.71540
1105.281, 26.87597
1105.763, 27.70370
1106.245, 27.93855
1106.727, 28.06549
1107.209, 28.61701
1107.691, 29.52040
1108.173, 30.48284
1108.655, 31.48672
1109.138, 32.45639
1109.620, 33.34499
1110.102, 34.21144
1110.584, 35.24053
1111.066, 36.20890
1111.548, 36.55751
1112.030, 36.30237
1112.512, 36.20121
1112.995, 36.41980
1113.477, 36.60040
1113.959, 36.37814
1114.441, 36.02237
1114.923, 35.92418
1115.405, 36.05386
1115.887, 35.21542
1116.369, 33.17678
1116.851, 31.46249
1117.333, 30.71956
1117.816, 30.31573
1118.298, 29.36709
1118.780, 28.22864
1119.262, 27.44353
1119.744, 27.29324
1120.226, 26.98721
1120.708, 26.46461
1121.190, 25.87144
1121.673, 25.29196
1122.155, 24.69837
1122.637, 23.88099
1123.119, 22.97680
1123.601, 22.36416
1124.083, 22.46633
1124.565, 22.49346
1125.047, 22.32737
1125.530, 22.04252
1126.012, 21.65394
1126.494, 21.19506
1126.976, 20.86008
1127.458, 20.64496
1127.940, 20.46165
1128.422, 20.28132
1128.904, 20.09736
1129.386, 19.91192
1129.869, 19.71778
1130.351, 19.51682
1130.833, 19.30773
1131.315, 18.99861
1131.797, 18.57111
1132.279, 18.15629
1132.761, 17.79679
1133.243, 17.54209
1133.725, 17.53825
1134.208, 17.69335
1134.690, 17.50106
1135.172, 16.87993
1135.654, 16.56533
1136.136, 16.80346
1136.618, 17.11428
1137.100, 16.91265
1137.582, 16.52848
1138.065, 16.33620
1138.547, 16.42147
1139.029, 16.38050
1139.511, 16.14369
1139.993, 16.02149
1140.475, 16.21476
1140.957, 16.46229
1141.439, 16.28852
1141.922, 15.89280
1142.404, 15.61408
1142.886, 15.57014
1143.368, 15.58148
1143.850, 15.70951
1144.332, 15.71871
1144.814, 15.37092
1145.296, 14.84849
1145.778, 14.61726
1146.260, 14.61473
1146.743, 14.65169
1147.225, 14.71718
1147.707, 14.72522
1148.189, 14.67901
1148.671, 14.55937
1149.153, 14.25766
1149.635, 13.85758
1150.117, 13.83841
1150.600, 14.15439
1151.082, 14.40918
1151.564, 14.42156
1152.046, 14.30095
1152.528, 13.96531
1153.010, 13.61583
1153.492, 13.56646
1153.974, 13.78476
1154.457, 13.90398
1154.939, 13.89150
1155.421, 13.83081
1155.903, 13.71579
1156.385, 13.63091
1156.867, 13.67724
1157.349, 13.77734
1157.831, 13.74913
1158.313, 13.59020
1158.796, 13.42212
1159.278, 13.26046
1159.760, 13.12504
1160.242, 13.02427
1160.724, 12.96352
1161.206, 12.96150
1161.688, 13.00949
1162.170, 13.04329
1162.652, 13.05849
1163.135, 13.12903
1163.617, 13.31390
1164.099, 13.43111
1164.581, 13.15385
1165.063, 12.79615
1165.545, 12.72800
1166.027, 13.01851
1166.509, 13.21108
1166.992, 13.30480
1167.474, 13.29842
1167.956, 13.13408
1168.438, 12.97185
1168.920, 13.08971
1169.402, 13.31242
1169.884, 13.37513
1170.366, 13.14702
1170.849, 13.04257
1171.331, 13.10640
1171.813, 13.13346
1172.295, 12.95448
1172.777, 12.71962
1173.259, 12.66335
1173.741, 12.73862
1174.223, 12.85683
1174.705, 13.09401
1175.188, 13.19934
1175.670, 13.17181
1176.152, 13.01163
1176.634, 12.57062
1177.116, 12.06961
1177.598, 11.99171
1178.080, 12.22363
1178.562, 12.40924
1179.044, 12.34400
1179.527, 12.36977
1180.009, 12.53555
1180.491, 12.75110
1180.973, 12.98013
1181.455, 13.17903
1181.937, 13.22854
1182.419, 13.14299
1182.901, 13.01169
1183.384, 12.87256
1183.866, 12.66464
1184.348, 12.31769
1184.830, 12.00614
1185.312, 11.99473
1185.794, 12.18295
1186.276, 12.32788
1186.758, 12.40975
1187.240, 12.43362
1187.723, 12.36864
1188.205, 12.27319
1188.687, 12.10919
1189.169, 11.99343
1189.651, 12.20378
1190.133, 12.61572
1190.615, 12.83049
1191.097, 12.79569
1191.579, 12.71136
1192.062, 12.58713
1192.544, 12.53628
1193.026, 12.64113
1193.508, 12.79171
1193.990, 12.70260
1194.472, 12.45060
1194.954, 12.32785
1195.436, 12.40433
1195.919, 12.44031
1196.401, 12.16478
1196.883, 12.02799
1197.365, 12.27530
1197.847, 12.74391
1198.329, 13.00137
1198.811, 13.06516
1199.293, 12.98668
1199.776, 12.74835
1200.258, 12.51397
1200.740, 12.32115
1201.222, 12.19554
1201.704, 12.14840
1202.186, 12.17766
1202.668, 12.32957
1203.150, 12.55950
1203.632, 12.67891
1204.115, 12.58585
1204.597, 12.49904
1205.079, 12.59901
1205.561, 12.64525
1206.043, 12.43843
1206.525, 12.06785
1207.007, 12.05211
1207.489, 12.31555
1207.971, 12.51563
1208.454, 12.48788
1208.936, 12.43646
1209.418, 12.41690
1209.900, 12.43498
1210.382, 12.53440
1210.864, 12.68242
1211.346, 12.57261
1211.828, 12.27324
1212.311, 12.12782
1212.793, 12.44046
1213.275, 12.70064
1213.757, 12.66860
1214.239, 12.56380
1214.721, 12.54984
1215.203, 12.60857
1215.685, 12.58525
1216.167, 12.49578
1216.650, 12.42468
1217.132, 12.36201
1217.614, 12.39824
1218.096, 12.67111
1218.578, 12.93732
1219.060, 12.96592
1219.542, 12.78949
1220.024, 12.57595
1220.506, 12.35498
1220.989, 12.26450
1221.471, 12.51664
1221.953, 12.72063
1222.435, 12.76141
1222.917, 12.71678
1223.399, 12.62317
1223.881, 12.50708
1224.363, 12.56133
1224.846, 12.74895
1225.328, 12.81017
1225.810, 12.43211
1226.292, 12.16734
1226.774, 12.19956
1227.256, 12.32244
1227.738, 12.28141
1228.220, 12.12722
1228.703, 12.02250
1229.185, 11.97999
1229.667, 12.01620
1230.149, 12.25726
1230.631, 12.40567
1231.113, 12.33938
1231.595, 12.24627
1232.077, 12.41601
1232.559, 12.74233
1233.042, 12.93290
1233.524, 12.97568
1234.006, 12.95768
1234.488, 12.86149
1234.970, 12.77888
1235.452, 12.73099
1235.934, 12.69761
1236.416, 12.64942
1236.898, 12.59690
1237.381, 12.58922
1237.863, 12.61788
1238.345, 12.56327
1238.827, 12.19820
1239.309, 12.06440
1239.791, 12.32777
1240.273, 12.68771
1240.755, 12.77041
1241.238, 12.65186
1241.720, 12.40185
1242.202, 12.05122
1242.684, 11.85701
1243.166, 11.92214
1243.648, 12.03792
1244.130, 12.19490
1244.612, 12.31167
1245.094, 12.18840
1245.577, 12.00673
1246.059, 12.08467
1246.541, 12.42667
1247.023, 12.65123
1247.505, 12.69052
1247.987, 12.72018
1248.469, 12.78321
1248.951, 12.82513
1249.433, 12.78474
1249.916, 12.67944
1250.398, 12.47171
1250.880, 12.18391
1251.362, 12.11774
1251.844, 12.35380
1252.326, 12.46876
1252.808, 12.34620
1253.290, 12.17832
1253.773, 12.14975
1254.255, 12.19797
1254.737, 12.30208
1255.219, 12.43881
1255.701, 12.42862
1256.183, 12.24192
1256.665, 12.18041
1257.147, 12.32878
1257.630, 12.52347
1258.112, 12.70428
1258.594, 12.79024
1259.076, 12.60868
1259.558, 12.70243
1260.040, 12.69355
1260.522, 12.54564
1261.004, 12.64471
1261.486, 12.39559
1261.969, 12.13339
1262.451, 12.12526
1262.933, 12.17973
1263.415, 12.17336
1263.897, 12.12447
1264.379, 12.08513
1264.861, 12.06087
1265.343, 12.12107
1265.825, 12.29846
1266.308, 12.40880
1266.790, 12.23284
1267.272, 12.09178
1267.754, 12.17267
1268.236, 12.36784
1268.718, 12.42163
1269.200, 12.34534
1269.682, 12.12416
1270.165, 11.72330
1270.647, 11.50219
1271.129, 11.74971
1271.611, 12.05192
1272.093, 12.32529
1272.575, 12.51586
1273.057, 12.44691
1273.539, 12.23318
1274.021, 12.14838
1274.504, 12.25213
1274.986, 12.29049
1275.468, 12.14669
1275.950, 12.09585
1276.432, 12.26117
1276.914, 12.46799
1277.396, 12.40262
1277.878, 12.22017
1278.360, 12.17393
1278.843, 12.30601
1279.325, 12.35425
1279.807, 12.30307
1280.289, 12.16553
1280.771, 11.91474
1281.253, 11.67465
1281.735, 11.58812
1282.217, 11.59436
1282.700, 11.64361
1283.182, 11.72708
1283.664, 11.78852
1284.146, 11.82619
1284.628, 11.86032
1285.110, 11.89647
1285.592, 11.92894
1286.074, 11.93022
1286.557, 11.94636
1287.039, 12.02687
1287.521, 12.15172
1288.003, 12.26815
1288.485, 12.37117
1288.967, 12.38939
1289.449, 12.29785
1289.931, 12.20262
1290.413, 12.18390
1290.896, 12.15872
1291.378, 12.06092
1291.860, 11.95059
1292.342, 11.98397
1292.824, 12.13496
1293.306, 12.37349
1293.788, 12.71191
1294.270, 12.82319
1294.752, 12.24442
1295.235, 11.87964
1295.717, 12.04830
1296.199, 12.41357
1296.681, 12.37848
1297.163, 12.12943
1297.645, 11.99035
1298.127, 12.00364
1298.609, 12.06856
1299.092, 12.18978
1299.574, 12.31498
1300.056, 12.46439
1300.538, 12.50751
1301.020, 12.13969
1301.502, 11.67911
1301.984, 11.52132
1302.466, 11.66957
1302.948, 11.74630
1303.431, 11.73606
1303.913, 11.75519
1304.395, 11.82519
1304.877, 11.93858
##END=



