##NAMES=Rapidcreekite
##RRUFFID=R070287
##IDEAL CHEMISTRY=Ca_2_(S^6+^O_4_)(CO_3_)&#183;4H_2_O
##LOCALITY=Locality 1 (Crosscut Creek), Rapid Creek, Yukon Territory, Canada
##OWNER=RRUFF
##SOURCE=Mark Mauthner
##DESCRIPTION=Radiating aggregate of thin bladed to acicular colorless to white crystals on iron oxide stained quartz crystals.
##STATUS=The identification of this mineral has been confirmed by single-crystal X-ray diffraction.
##URL=rruff.info/R070287
164.4099, 1289.843
164.8920, 1302.029
165.3741, 1328.351
165.8563, 1352.157
166.3384, 1359.192
166.8205, 1357.074
167.3026, 1358.487
167.7847, 1370.316
168.2668, 1388.377
168.7490, 1403.800
169.2311, 1416.189
169.7132, 1426.824
170.1953, 1436.578
170.6774, 1445.226
171.1595, 1452.090
171.6417, 1455.841
172.1238, 1458.031
172.6059, 1462.650
173.0880, 1470.520
173.5701, 1479.323
174.0522, 1489.719
174.5344, 1500.047
175.0165, 1507.297
175.4986, 1508.604
175.9807, 1506.791
176.4628, 1510.234
176.9449, 1522.238
177.4271, 1533.527
177.9092, 1541.261
178.3913, 1546.084
178.8734, 1548.969
179.3555, 1550.846
179.8376, 1550.704
180.3197, 1543.856
180.8019, 1521.586
181.2840, 1508.700
181.7661, 1517.046
182.2482, 1536.318
182.7303, 1554.043
183.2124, 1564.139
183.6946, 1568.960
184.1767, 1575.153
184.6588, 1583.375
185.1409, 1591.848
185.6230, 1600.863
186.1051, 1609.521
186.5873, 1616.843
187.0694, 1622.345
187.5515, 1626.315
188.0336, 1629.087
188.5157, 1627.853
188.9978, 1630.596
189.4800, 1641.952
189.9621, 1656.207
190.4442, 1667.317
190.9263, 1672.373
191.4084, 1673.890
191.8905, 1678.608
192.3727, 1691.594
192.8548, 1698.363
193.3369, 1690.138
193.8190, 1678.582
194.3011, 1676.504
194.7832, 1689.145
195.2654, 1708.410
195.7475, 1716.112
196.2296, 1704.446
196.7117, 1695.546
197.1938, 1692.730
197.6759, 1693.155
198.1581, 1693.995
198.6402, 1694.344
199.1223, 1696.063
199.6044, 1703.985
200.0865, 1725.879
200.5686, 1737.917
201.0508, 1730.877
201.5329, 1719.528
202.0150, 1715.870
202.4971, 1722.972
202.9792, 1734.352
203.4613, 1738.934
203.9435, 1731.439
204.4256, 1729.104
204.9077, 1735.617
205.3898, 1744.662
205.8719, 1753.087
206.3540, 1759.797
206.8362, 1764.255
207.3183, 1764.493
207.8004, 1756.082
208.2825, 1755.120
208.7646, 1770.538
209.2467, 1785.707
209.7289, 1790.184
210.2110, 1783.288
210.6931, 1771.951
211.1752, 1764.176
211.6573, 1761.409
212.1395, 1757.054
212.6216, 1750.178
213.1037, 1742.672
213.5858, 1735.182
214.0679, 1727.895
214.5500, 1720.914
215.0322, 1714.679
215.5143, 1709.674
215.9964, 1702.189
216.4785, 1689.260
216.9606, 1676.596
217.4427, 1665.633
217.9249, 1656.707
218.4070, 1650.210
218.8891, 1647.479
219.3712, 1648.796
219.8533, 1643.491
220.3354, 1625.300
220.8176, 1606.159
221.2997, 1588.236
221.7818, 1571.820
222.2639, 1556.195
222.7460, 1540.353
223.2281, 1524.855
223.7103, 1517.235
224.1924, 1528.475
224.6745, 1535.937
225.1566, 1533.196
225.6387, 1524.092
226.1208, 1514.467
226.6030, 1507.643
227.0851, 1502.972
227.5672, 1497.749
228.0493, 1491.510
228.5314, 1485.270
229.0135, 1478.283
229.4957, 1471.733
229.9778, 1466.845
230.4599, 1464.160
230.9420, 1463.534
231.4241, 1465.266
231.9062, 1473.721
232.3884, 1476.611
232.8705, 1468.112
233.3526, 1456.592
233.8347, 1449.437
234.3168, 1449.063
234.7989, 1452.219
235.2811, 1453.357
235.7632, 1451.414
236.2453, 1449.944
236.7274, 1452.410
237.2095, 1453.259
237.6916, 1447.318
238.1738, 1434.239
238.6559, 1419.425
239.1380, 1409.301
239.6201, 1404.563
240.1022, 1402.047
240.5843, 1406.444
241.0665, 1409.118
241.5486, 1405.126
242.0307, 1394.799
242.5128, 1382.148
242.9949, 1369.452
243.4770, 1356.161
243.9592, 1349.473
244.4413, 1355.107
244.9234, 1362.416
245.4055, 1369.084
245.8876, 1374.347
246.3697, 1377.262
246.8519, 1377.004
247.3340, 1373.749
247.8161, 1369.033
248.2982, 1361.604
248.7803, 1354.298
249.2624, 1347.782
249.7446, 1342.049
250.2267, 1336.779
250.7088, 1331.170
251.1909, 1326.550
251.6730, 1327.740
252.1551, 1339.146
252.6373, 1347.330
253.1194, 1347.695
253.6015, 1343.182
254.0836, 1335.522
254.5657, 1324.380
255.0478, 1314.008
255.5300, 1312.369
256.0121, 1322.068
256.4942, 1330.648
256.9763, 1335.207
257.4584, 1336.868
257.9406, 1334.232
258.4227, 1326.744
258.9048, 1321.527
259.3869, 1330.080
259.8690, 1353.443
260.3511, 1365.852
260.8333, 1352.961
261.3154, 1335.728
261.7975, 1330.353
262.2796, 1336.794
262.7617, 1343.152
263.2438, 1338.746
263.7260, 1325.983
264.2081, 1319.160
264.6902, 1321.297
265.1723, 1327.468
265.6544, 1337.484
266.1365, 1349.125
266.6187, 1354.327
267.1008, 1343.067
267.5829, 1323.921
268.0650, 1316.783
268.5471, 1325.691
269.0292, 1334.922
269.5114, 1331.532
269.9935, 1321.214
270.4756, 1313.147
270.9577, 1308.813
271.4398, 1308.411
271.9219, 1314.410
272.4041, 1327.082
272.8862, 1336.915
273.3683, 1337.170
273.8504, 1332.437
274.3325, 1332.238
274.8146, 1339.954
275.2968, 1346.841
275.7789, 1344.748
276.2610, 1336.194
276.7431, 1331.936
277.2252, 1336.862
277.7073, 1346.373
278.1895, 1353.411
278.6716, 1358.337
279.1537, 1360.355
279.6358, 1355.274
280.1179, 1347.948
280.6000, 1347.756
281.0822, 1357.438
281.5643, 1370.239
282.0464, 1379.556
282.5285, 1385.555
283.0106, 1385.319
283.4927, 1374.144
283.9749, 1359.321
284.4570, 1345.535
284.9391, 1333.705
285.4212, 1326.311
285.9033, 1326.072
286.3854, 1333.051
286.8676, 1339.599
287.3497, 1349.471
287.8318, 1355.393
288.3139, 1351.269
288.7960, 1340.070
289.2781, 1329.948
289.7603, 1325.638
290.2424, 1325.443
290.7245, 1322.289
291.2066, 1312.135
291.6887, 1304.208
292.1708, 1302.080
292.6530, 1302.149
293.1351, 1299.012
293.6172, 1290.870
294.0993, 1281.722
294.5814, 1279.056
295.0635, 1289.282
295.5457, 1293.841
296.0278, 1288.626
296.5099, 1281.147
296.9920, 1276.850
297.4741, 1276.160
297.9562, 1275.953
298.4384, 1272.785
298.9205, 1265.985
299.4026, 1260.868
299.8847, 1260.079
300.3668, 1258.291
300.8489, 1251.816
301.3310, 1242.895
301.8131, 1236.489
302.2953, 1236.116
302.7774, 1240.594
303.2595, 1244.131
303.7416, 1248.246
304.2237, 1248.795
304.7058, 1242.816
305.1880, 1234.194
305.6701, 1226.512
306.1522, 1221.036
306.6343, 1218.071
307.1164, 1219.134
307.5985, 1225.979
308.0807, 1230.285
308.5628, 1228.500
309.0449, 1225.113
309.5270, 1222.724
310.0091, 1221.531
310.4912, 1219.977
310.9734, 1215.631
311.4555, 1208.978
311.9376, 1206.220
312.4197, 1211.659
312.9018, 1215.331
313.3839, 1207.704
313.8661, 1193.341
314.3482, 1184.423
314.8303, 1190.012
315.3124, 1202.816
315.7945, 1210.830
316.2766, 1213.953
316.7588, 1212.705
317.2409, 1204.503
317.7230, 1181.022
318.2051, 1194.314
318.6872, 1201.229
319.1693, 1202.109
319.6515, 1178.884
320.1336, 1186.787
320.6157, 1182.215
321.0978, 1177.132
321.5799, 1189.416
322.0620, 1169.697
322.5442, 1181.706
323.0263, 1181.049
323.5084, 1186.189
323.9905, 1178.777
324.4726, 1175.243
324.9547, 1184.263
325.4369, 1186.332
325.9190, 1177.475
326.4011, 1182.984
326.8832, 1162.826
327.3653, 1165.191
327.8474, 1177.273
328.3296, 1169.047
328.8117, 1174.785
329.2938, 1175.205
329.7759, 1151.457
330.2580, 1169.740
330.7401, 1169.845
331.2223, 1151.287
331.7044, 1168.129
332.1865, 1152.144
332.6686, 1147.876
333.1507, 1148.972
333.6328, 1150.881
334.1150, 1155.841
334.5971, 1158.966
335.0792, 1159.464
335.5613, 1160.195
336.0434, 1163.705
336.5255, 1165.217
337.0077, 1160.059
337.4898, 1150.215
337.9719, 1142.284
338.4540, 1142.362
338.9361, 1149.190
339.4182, 1150.926
339.9004, 1142.136
340.3825, 1136.314
340.8646, 1138.821
341.3467, 1145.664
341.8288, 1152.336
342.3109, 1157.468
342.7931, 1160.450
343.2752, 1159.902
343.7573, 1155.405
344.2394, 1150.319
344.7215, 1145.580
345.2036, 1140.314
345.6858, 1132.744
346.1679, 1122.951
346.6500, 1115.363
347.1321, 1112.598
347.6142, 1114.152
348.0963, 1119.953
348.5785, 1131.783
349.0606, 1142.308
349.5427, 1143.973
350.0248, 1139.461
350.5069, 1136.501
350.9890, 1137.763
351.4712, 1140.001
351.9533, 1141.212
352.4354, 1141.284
352.9175, 1139.364
353.3996, 1134.368
353.8817, 1127.920
354.3639, 1124.675
354.8460, 1126.642
355.3281, 1126.920
355.8102, 1123.227
356.2923, 1117.388
356.7744, 1109.918
357.2566, 1101.339
357.7387, 1096.110
358.2208, 1100.173
358.7029, 1116.359
359.1850, 1125.954
359.6671, 1128.432
360.1493, 1125.982
360.6314, 1114.502
361.1135, 1099.044
361.5956, 1090.341
362.0777, 1095.312
362.5598, 1109.522
363.0420, 1116.634
363.5241, 1112.093
364.0062, 1107.362
364.4883, 1104.167
364.9704, 1101.177
365.4525, 1095.997
365.9347, 1088.650
366.4168, 1083.272
366.8989, 1086.793
367.3810, 1100.171
367.8631, 1106.411
368.3452, 1099.247
368.8274, 1091.409
369.3095, 1088.955
369.7916, 1090.842
370.2737, 1094.427
370.7558, 1099.303
371.2379, 1104.494
371.7201, 1108.839
372.2022, 1112.519
372.6843, 1113.592
373.1664, 1110.750
373.6485, 1104.872
374.1306, 1096.627
374.6128, 1084.426
375.0949, 1075.660
375.5770, 1076.383
376.0591, 1082.930
376.5412, 1087.861
377.0233, 1089.494
377.5055, 1091.002
377.9876, 1096.749
378.4697, 1107.369
378.9518, 1111.576
379.4339, 1106.582
379.9160, 1097.508
380.3982, 1082.463
380.8803, 1065.427
381.3624, 1057.499
381.8445, 1065.506
382.3266, 1083.731
382.8087, 1095.023
383.2909, 1095.369
383.7730, 1093.160
384.2551, 1084.837
384.7372, 1076.518
385.2193, 1074.500
385.7014, 1078.946
386.1836, 1083.843
386.6657, 1082.375
387.1478, 1074.082
387.6299, 1068.383
388.1120, 1066.427
388.5941, 1065.944
389.0763, 1066.205
389.5584, 1067.378
390.0405, 1070.535
390.5226, 1077.099
391.0047, 1083.036
391.4868, 1079.490
391.9690, 1064.807
392.4511, 1056.927
392.9332, 1065.204
393.4153, 1078.146
393.8974, 1085.022
394.3795, 1085.712
394.8617, 1084.612
395.3438, 1081.797
395.8259, 1079.268
396.3080, 1081.821
396.7901, 1090.232
397.2722, 1096.830
397.7544, 1094.683
398.2365, 1086.141
398.7186, 1083.944
399.2007, 1091.486
399.6828, 1101.376
400.1649, 1113.986
400.6471, 1126.320
401.1292, 1132.674
401.6113, 1131.161
402.0934, 1125.861
402.5755, 1122.117
403.0576, 1118.150
403.5398, 1122.076
404.0219, 1141.369
404.5040, 1160.521
404.9861, 1170.801
405.4682, 1174.209
405.9503, 1177.022
406.4325, 1183.053
406.9146, 1191.796
407.3967, 1201.411
407.8788, 1211.863
408.3609, 1223.306
408.8430, 1234.588
409.3252, 1247.596
409.8073, 1264.536
410.2894, 1285.532
410.7715, 1307.664
411.2536, 1329.581
411.7357, 1350.842
412.2179, 1367.949
412.7000, 1379.302
413.1821, 1389.684
413.6642, 1407.486
414.1463, 1426.315
414.6284, 1431.558
415.1106, 1416.786
415.5927, 1392.325
416.0748, 1361.374
416.5569, 1326.367
417.0390, 1295.449
417.5211, 1271.942
418.0033, 1251.818
418.4854, 1229.055
418.9675, 1202.465
419.4496, 1177.440
419.9317, 1154.809
420.4138, 1133.449
420.8960, 1111.476
421.3781, 1089.832
421.8602, 1071.347
422.3423, 1057.716
422.8244, 1048.726
423.3065, 1043.720
423.7887, 1046.944
424.2708, 1047.524
424.7529, 1041.660
425.2350, 1034.743
425.7171, 1031.836
426.1992, 1033.269
426.6814, 1034.825
427.1635, 1031.549
427.6456, 1024.033
428.1277, 1020.224
428.6098, 1022.482
429.0919, 1023.910
429.5741, 1018.980
430.0562, 1011.485
430.5383, 1007.203
431.0204, 1008.185
431.5025, 1011.122
431.9846, 1015.014
432.4668, 1018.885
432.9489, 1018.100
433.4310, 1010.193
433.9131, 1001.782
434.3952, 1001.588
434.8773, 1010.708
435.3595, 1016.579
435.8416, 1019.920
436.3237, 1018.576
436.8058, 1007.569
437.2879, 990.7411
437.7701, 976.8284
438.2522, 970.2014
438.7343, 969.9724
439.2164, 974.3173
439.6985, 986.9578
440.1806, 997.6008
440.6628, 1006.952
441.1449, 1013.865
441.6270, 1017.918
442.1091, 1018.920
442.5912, 1016.443
443.0733, 1009.400
443.5555, 998.9137
444.0376, 988.3229
444.5197, 975.6821
445.0018, 968.4432
445.4839, 975.9815
445.9660, 987.0035
446.4482, 989.1395
446.9303, 979.6281
447.4124, 971.2164
447.8945, 974.3445
448.3766, 983.5824
448.8587, 986.8541
449.3409, 982.2175
449.8230, 976.9115
450.3051, 977.2434
450.7872, 982.2828
451.2693, 982.6561
451.7514, 971.3016
452.2336, 963.8357
452.7157, 968.5184
453.1978, 979.0490
453.6799, 987.2850
454.1620, 990.6876
454.6441, 990.5734
455.1263, 988.4608
455.6084, 984.2204
456.0905, 978.7400
456.5726, 967.9966
457.0547, 960.2571
457.5368, 960.1901
458.0190, 964.3145
458.5011, 966.9071
458.9832, 965.4065
459.4653, 962.2963
459.9474, 960.5283
460.4295, 960.0961
460.9117, 962.0811
461.3938, 967.8333
461.8759, 974.5526
462.3580, 981.1127
462.8401, 987.0321
463.3222, 989.1234
463.8044, 982.5591
464.2865, 974.9256
464.7686, 974.0935
465.2507, 978.4199
465.7328, 980.8106
466.2149, 977.9876
466.6971, 972.3090
467.1792, 968.1556
467.6613, 964.7177
468.1434, 965.0008
468.6255, 973.3480
469.1076, 981.5844
469.5898, 983.8580
470.0719, 981.4221
470.5540, 979.2161
471.0361, 980.5624
471.5182, 983.6855
472.0003, 982.8463
472.4825, 975.8984
472.9646, 970.8650
473.4467, 968.9052
473.9288, 969.9383
474.4109, 976.3683
474.8930, 987.2333
475.3752, 995.1085
475.8573, 992.4573
476.3394, 985.4100
476.8215, 986.1722
477.3036, 995.0909
477.7857, 1000.044
478.2679, 992.5821
478.7500, 979.3008
479.2321, 977.5114
479.7142, 993.5307
480.1963, 1003.473
480.6784, 997.3080
481.1606, 986.8236
481.6427, 982.2038
482.1248, 984.2048
482.6069, 989.2313
483.0890, 995.1461
483.5711, 1001.237
484.0533, 1003.323
484.5354, 997.4553
485.0175, 994.0809
485.4996, 996.0886
485.9817, 999.8599
486.4638, 1001.932
486.9460, 1002.280
487.4281, 1004.285
487.9102, 1011.248
488.3923, 1021.865
488.8744, 1033.351
489.3565, 1046.514
489.8387, 1055.330
490.3208, 1054.198
490.8029, 1047.947
491.2850, 1048.000
491.7671, 1058.802
492.2492, 1063.068
492.7314, 1046.630
493.2135, 1025.261
493.6956, 1019.327
494.1777, 1029.102
494.6598, 1038.508
495.1419, 1034.868
495.6241, 1020.653
496.1062, 1012.007
496.5883, 1017.140
497.0704, 1016.283
497.5525, 1000.939
498.0346, 983.6120
498.5168, 975.9833
498.9989, 978.4019
499.4810, 981.3533
499.9631, 976.1797
500.4452, 965.2911
500.9273, 958.2372
501.4095, 955.9465
501.8916, 953.4781
502.3737, 947.8716
502.8558, 941.3390
503.3379, 937.3399
503.8200, 936.3041
504.3022, 936.3098
504.7843, 941.2301
505.2664, 944.1922
505.7485, 932.7892
506.2306, 908.8375
506.7127, 890.1124
507.1949, 889.1147
507.6770, 901.7771
508.1591, 910.3926
508.6412, 913.5110
509.1233, 914.3975
509.6054, 909.9490
510.0876, 905.9669
510.5697, 907.9385
511.0518, 915.0129
511.5339, 921.4903
512.0161, 923.7441
512.4982, 922.1723
512.9803, 915.8839
513.4624, 903.2494
513.9445, 896.4250
514.4266, 902.8275
514.9088, 914.5007
515.3909, 921.4458
515.8730, 923.5455
516.3551, 923.1878
516.8372, 919.5257
517.3193, 914.8961
517.8015, 910.7905
518.2836, 907.5822
518.7657, 905.9590
519.2478, 906.3541
519.7299, 908.3024
520.2120, 911.2219
520.6942, 919.7289
521.1763, 920.0560
521.6584, 903.4088
522.1405, 887.7990
522.6226, 883.7927
523.1047, 888.8621
523.5869, 895.1795
524.0690, 899.2675
524.5511, 901.1675
525.0332, 900.1625
525.5153, 896.2758
525.9974, 893.2257
526.4796, 892.0336
526.9617, 891.7121
527.4438, 891.6978
527.9259, 891.8909
528.4080, 891.0118
528.8901, 886.1512
529.3723, 882.8690
529.8544, 886.3094
530.3365, 893.3508
530.8186, 897.8889
531.3007, 897.8599
531.7828, 895.3206
532.2650, 892.7582
532.7471, 889.8542
533.2292, 888.9053
533.7113, 892.1399
534.1934, 894.8104
534.6755, 896.1531
535.1577, 895.8314
535.6398, 893.2275
536.1219, 888.0249
536.6040, 881.7538
537.0861, 873.9182
537.5682, 866.0943
538.0504, 864.4081
538.5325, 870.2103
539.0146, 877.4852
539.4967, 882.9650
539.9788, 886.3113
540.4609, 885.9722
540.9431, 878.0035
541.4252, 872.1691
541.9073, 872.0658
542.3894, 873.9170
542.8715, 873.7811
543.3536, 871.5941
543.8358, 870.6124
544.3179, 874.3482
544.8000, 880.4868
545.2821, 877.5453
545.7642, 860.8165
546.2463, 847.8903
546.7285, 843.2727
547.2106, 844.3436
547.6926, 852.4014
548.1747, 866.2448
548.6569, 875.0438
549.1390, 870.1138
549.6211, 860.5145
550.1032, 855.5389
550.5853, 854.6763
551.0674, 854.9519
551.5496, 855.2691
552.0317, 855.6678
552.5138, 856.0055
552.9959, 855.4602
553.4780, 857.7825
553.9601, 867.6630
554.4423, 874.9999
554.9244, 875.1542
555.4065, 870.2759
555.8886, 862.7598
556.3707, 853.2996
556.8528, 845.9327
557.3350, 848.1161
557.8171, 858.1302
558.2992, 860.4128
558.7813, 850.6092
559.2634, 842.5579
559.7455, 847.6982
560.2277, 861.3479
560.7098, 867.8480
561.1919, 862.6114
561.6740, 858.0963
562.1561, 860.0650
562.6382, 863.5332
563.1204, 862.3531
563.6025, 856.7147
564.0846, 851.5631
564.5667, 850.4267
565.0488, 852.6695
565.5309, 856.2733
566.0131, 862.9429
566.4952, 866.6514
566.9773, 863.6559
567.4594, 859.5024
567.9415, 857.6081
568.4236, 857.6982
568.9058, 857.7125
569.3879, 858.1336
569.8700, 856.8818
570.3521, 850.1115
570.8342, 839.6761
571.3163, 830.8008
571.7985, 824.7450
572.2806, 824.5554
572.7627, 835.9005
573.2448, 861.3940
573.7269, 873.7740
574.2090, 861.2451
574.6912, 850.5251
575.1733, 849.2037
575.6554, 852.6490
576.1375, 855.7018
576.6196, 857.1187
577.1017, 858.3177
577.5839, 860.6062
578.0660, 863.7083
578.5481, 866.3950
579.0302, 868.4523
579.5123, 872.0874
579.9944, 879.5682
580.4766, 888.0957
580.9587, 892.7292
581.4408, 894.4230
581.9229, 890.0291
582.4050, 869.9838
582.8871, 851.9794
583.3693, 851.7627
583.8514, 862.5047
584.3335, 866.6061
584.8156, 855.9291
585.2977, 841.3217
585.7798, 842.0510
586.2620, 860.0370
586.7441, 870.2387
587.2262, 867.3176
587.7083, 863.4788
588.1904, 867.7003
588.6725, 875.0566
589.1547, 876.5482
589.6368, 867.7078
590.1189, 861.7171
590.6010, 868.6279
591.0831, 879.9480
591.5652, 883.2880
592.0474, 879.0346
592.5295, 877.5407
593.0116, 886.1771
593.4937, 900.9080
593.9758, 909.2219
594.4579, 908.6765
594.9401, 907.4274
595.4222, 903.9016
595.9043, 901.8592
596.3864, 903.8038
596.8685, 908.7584
597.3506, 914.3036
597.8328, 920.1819
598.3149, 925.0915
598.7970, 926.5087
599.2791, 926.1651
599.7612, 929.4894
600.2433, 937.5566
600.7255, 944.7404
601.2076, 945.8508
601.6897, 941.8586
602.1718, 940.7255
602.6539, 945.9812
603.1360, 949.3073
603.6182, 947.0464
604.1003, 945.0546
604.5824, 948.3447
605.0645, 956.2724
605.5466, 964.6718
606.0287, 972.3699
606.5109, 977.6497
606.9930, 975.6094
607.4751, 967.5685
607.9572, 965.2043
608.4393, 972.8291
608.9214, 981.0684
609.4036, 979.6527
609.8857, 968.5277
610.3678, 962.5547
610.8499, 969.1028
611.3320, 971.0070
611.8141, 958.5923
612.2963, 943.2177
612.7784, 937.7833
613.2605, 942.5136
613.7426, 947.2697
614.2247, 944.8075
614.7068, 936.6124
615.1890, 923.6241
615.6711, 905.2884
616.1532, 895.8336
616.6353, 902.7997
617.1174, 913.9601
617.5995, 914.9276
618.0817, 905.4462
618.5638, 899.5663
619.0459, 900.5612
619.5280, 902.0734
620.0101, 903.2196
620.4922, 902.7259
620.9744, 897.9608
621.4565, 889.1772
621.9386, 880.7742
622.4207, 876.6826
622.9028, 876.1381
623.3849, 876.6138
623.8671, 878.3805
624.3492, 879.6626
624.8313, 880.2927
625.3134, 879.7916
625.7955, 877.4655
626.2776, 873.4241
626.7598, 868.3124
627.2419, 859.8779
627.7240, 852.9359
628.2061, 852.0953
628.6882, 853.4545
629.1703, 850.6005
629.6525, 842.4987
630.1346, 833.7985
630.6167, 828.4301
631.0988, 826.4943
631.5809, 829.8386
632.0630, 840.9001
632.5452, 847.6324
633.0273, 844.7999
633.5094, 837.5734
633.9915, 831.2786
634.4736, 825.8826
634.9557, 820.6364
635.4379, 814.9111
635.9200, 809.8671
636.4021, 805.3294
636.8842, 802.2119
637.3663, 802.3063
637.8484, 805.8064
638.3306, 811.0273
638.8127, 817.4213
639.2948, 823.8740
639.7769, 822.2162
640.2590, 809.5853
640.7411, 798.9001
641.2233, 793.4333
641.7054, 791.9261
642.1875, 793.3926
642.6696, 797.6749
643.1517, 803.1051
643.6339, 813.4241
644.1160, 820.4481
644.5981, 816.6581
645.0802, 807.8650
645.5623, 802.7177
646.0444, 803.0933
646.5266, 805.7802
647.0087, 808.0658
647.4908, 810.0073
647.9729, 812.0461
648.4550, 814.4723
648.9371, 815.7347
649.4193, 815.0386
649.9014, 813.4561
650.3835, 811.5734
650.8656, 809.5409
651.3477, 808.4972
651.8298, 806.0540
652.3120, 807.5545
652.7941, 821.5384
653.2762, 838.0349
653.7583, 841.8286
654.2404, 832.0441
654.7225, 820.7379
655.2047, 817.2709
655.6868, 820.2104
656.1689, 826.3370
656.6510, 836.9126
657.1331, 842.4633
657.6152, 838.6113
658.0974, 832.6292
658.5795, 829.4233
659.0616, 829.2443
659.5437, 834.0056
660.0258, 849.1772
660.5079, 862.7252
660.9901, 871.2753
661.4722, 875.7318
661.9543, 875.3259
662.4364, 871.4473
662.9185, 868.7266
663.4006, 870.4927
663.8828, 874.5692
664.3649, 876.2799
664.8470, 875.5588
665.3291, 873.8758
665.8112, 869.5364
666.2933, 869.1245
666.7755, 881.1404
667.2576, 901.2490
667.7397, 910.6829
668.2218, 904.3678
668.7039, 895.7719
669.1860, 884.1038
669.6682, 873.8726
670.1503, 869.5249
670.6324, 869.6801
671.1145, 870.2150
671.5966, 869.2709
672.0787, 866.4692
672.5609, 859.5677
673.0430, 849.6035
673.5251, 845.4999
674.0072, 849.4607
674.4893, 850.8898
674.9714, 842.5450
675.4536, 828.1419
675.9357, 817.3171
676.4178, 811.0721
676.8999, 806.2112
677.3820, 803.4167
677.8641, 801.2137
678.3463, 797.2948
678.8284, 793.9615
679.3105, 796.0402
679.7926, 805.0480
680.2747, 814.3536
680.7568, 817.4299
681.2390, 816.2061
681.7211, 815.0159
682.2032, 814.0306
682.6853, 812.9481
683.1674, 811.9979
683.6495, 809.5504
684.1317, 802.1590
684.6138, 787.6411
685.0959, 779.9062
685.5780, 783.8544
686.0601, 788.7209
686.5422, 793.9401
687.0244, 797.6154
687.5065, 798.1901
687.9886, 795.3789
688.4707, 789.1750
688.9528, 775.8676
689.4349, 761.9953
689.9171, 756.1332
690.3992, 755.9182
690.8813, 753.3757
691.3634, 746.4550
691.8455, 741.6789
692.3276, 746.7257
692.8098, 759.7474
693.2919, 763.4940
693.7740, 752.3134
694.2561, 744.3726
694.7382, 744.4962
695.2203, 747.6008
695.7025, 750.9136
696.1846, 754.3232
696.6667, 757.8999
697.1488, 763.6407
697.6309, 766.5812
698.1130, 764.7990
698.5952, 758.2899
699.0773, 741.8636
699.5594, 719.3315
700.0415, 707.6239
700.5236, 718.3505
701.0057, 739.3633
701.4879, 744.3826
701.9700, 732.4713
702.4521, 724.7580
702.9342, 723.9376
703.4163, 725.2384
703.8984, 726.3033
704.3806, 727.4222
704.8627, 729.5690
705.3448, 733.7946
705.8269, 735.9934
706.3090, 734.5070
706.7911, 731.9525
707.2733, 729.2496
707.7554, 726.7813
708.2375, 724.4261
708.7196, 722.2719
709.2017, 722.2061
709.6838, 728.8699
710.1660, 738.2899
710.6481, 738.8153
711.1302, 730.8893
711.6123, 724.7376
712.0944, 724.1068
712.5765, 726.1383
713.0587, 727.7024
713.5408, 728.8723
714.0229, 727.9756
714.5050, 723.4272
714.9871, 718.9386
715.4692, 712.9970
715.9514, 708.9531
716.4335, 710.8666
716.9156, 717.5682
717.3977, 723.2795
717.8798, 726.7531
718.3619, 726.8984
718.8441, 720.1959
719.3262, 710.6102
719.8083, 704.1223
720.2904, 701.8547
720.7725, 704.3124
721.2546, 712.5209
721.7368, 722.8146
722.2189, 725.5356
722.7010, 719.2825
723.1831, 715.3276
723.6652, 715.7533
724.1473, 715.9261
724.6295, 710.8018
725.1116, 704.7263
725.5937, 707.3543
726.0758, 722.3005
726.5579, 733.3194
727.0400, 735.5329
727.5222, 735.0360
728.0043, 734.8307
728.4864, 734.6461
728.9685, 727.3071
729.4506, 735.5735
729.9327, 741.0056
730.4149, 743.7567
730.8970, 735.7932
731.3791, 741.6646
731.8612, 741.9917
732.3433, 742.0915
732.8254, 749.9098
733.3076, 743.5052
733.7897, 751.2011
734.2718, 753.2683
734.7539, 757.9117
735.2360, 755.7000
735.7181, 757.1403
736.2003, 761.2647
736.6824, 763.6229
737.1645, 760.1146
737.6466, 752.6604
738.1287, 746.5682
738.6108, 743.1321
739.0930, 741.4868
739.5751, 744.2087
740.0572, 746.4153
740.5393, 740.1454
741.0214, 727.8546
741.5035, 719.1636
741.9857, 718.6625
742.4678, 721.4737
742.9499, 720.2001
743.4320, 715.3262
743.9141, 714.2676
744.3962, 717.9907
744.8784, 720.4465
745.3605, 718.4574
745.8426, 715.4980
746.3247, 717.6539
746.8068, 726.3690
747.2889, 725.9080
747.7711, 702.9609
748.2532, 688.5706
748.7353, 696.9492
749.2174, 711.7388
749.6995, 719.6530
750.1816, 719.8247
750.6638, 716.1554
751.1459, 708.2728
751.6280, 701.3943
752.1101, 702.2866
752.5922, 706.9127
753.0743, 707.3582
753.5565, 703.1476
754.0386, 698.6280
754.5207, 696.4151
755.0028, 694.9517
755.4849, 690.5847
755.9670, 682.7018
756.4492, 677.6943
756.9313, 675.8025
757.4134, 676.6157
757.8955, 681.6738
758.3776, 688.0749
758.8597, 691.6389
759.3419, 692.3780
759.8240, 691.0868
760.3061, 685.2071
760.7882, 680.4325
761.2703, 678.9152
761.7524, 679.5621
762.2346, 682.2892
762.7167, 686.1949
763.1988, 688.2059
763.6809, 685.7791
764.1630, 682.1423
764.6451, 681.1281
765.1273, 681.7875
765.6094, 680.9912
766.0915, 678.6967
766.5736, 679.1291
767.0557, 685.2329
767.5378, 694.0992
768.0200, 700.2036
768.5021, 704.0817
768.9842, 700.9341
769.4663, 686.6074
769.9484, 673.9755
770.4305, 668.7462
770.9127, 668.1868
771.3948, 668.9829
771.8769, 671.3210
772.3590, 672.4838
772.8411, 667.6232
773.3232, 666.9792
773.8054, 679.3197
774.2875, 694.6707
774.7696, 703.6123
775.2517, 704.8540
775.7338, 700.0513
776.2159, 687.5479
776.6981, 674.8401
777.1802, 671.2932
777.6623, 673.7264
778.1444, 674.7839
778.6265, 673.8116
779.1086, 674.2709
779.5908, 678.3273
780.0729, 683.2278
780.5550, 683.0282
781.0371, 676.8227
781.5192, 675.2368
782.0013, 680.6503
782.4835, 684.3128
782.9656, 682.3511
783.4477, 677.5746
783.9298, 673.4835
784.4119, 670.1227
784.8940, 665.6931
785.3762, 659.2946
785.8583, 652.9041
786.3404, 644.5422
786.8225, 638.3921
787.3046, 639.1372
787.7867, 645.3884
788.2689, 651.9124
788.7510, 656.8267
789.2331, 660.4738
789.7152, 662.1974
790.1973, 663.3748
790.6794, 667.4601
791.1616, 673.4150
791.6437, 675.8167
792.1258, 672.3362
792.6079, 666.5880
793.0900, 663.2501
793.5721, 662.1232
794.0543, 660.9760
794.5364, 659.5010
795.0185, 660.1706
795.5006, 664.4298
795.9827, 669.5778
796.4648, 673.5386
796.9470, 676.1862
797.4291, 676.0413
797.9112, 670.8425
798.3933, 666.0515
798.8754, 660.3957
799.3575, 656.6990
799.8397, 658.7626
800.3218, 663.3258
800.8039, 663.3593
801.2860, 656.2896
801.7681, 651.7036
802.2502, 660.0214
802.7324, 667.9614
803.2145, 659.1152
803.6966, 642.1424
804.1787, 635.3737
804.6608, 642.4645
805.1429, 651.6428
805.6251, 652.7875
806.1072, 649.7609
806.5893, 651.3908
807.0714, 656.8917
807.5535, 659.6471
808.0356, 658.3208
808.5178, 658.3963
808.9999, 664.3548
809.4820, 672.4120
809.9641, 672.0289
810.4462, 659.1143
810.9283, 653.0415
811.4105, 658.1620
811.8926, 663.0128
812.3747, 662.7413
812.8568, 660.2784
813.3389, 658.7917
813.8210, 658.3233
814.3032, 657.9371
814.7853, 657.4988
815.2674, 657.1267
815.7495, 657.5510
816.2316, 657.5226
816.7137, 654.8398
817.1959, 650.6849
817.6780, 648.5609
818.1601, 649.9259
818.6422, 653.6870
819.1243, 663.1183
819.6064, 672.0031
820.0886, 669.0836
820.5707, 656.5054
821.0528, 641.9987
821.5349, 628.6524
822.0170, 621.7031
822.4991, 629.0643
822.9813, 646.3843
823.4634, 654.7498
823.9455, 653.8467
824.4276, 651.3115
824.9097, 648.3831
825.3918, 645.2502
825.8740, 641.6786
826.3561, 638.2973
826.8382, 637.5806
827.3203, 642.4518
827.8024, 643.1154
828.2845, 632.4753
828.7667, 626.4036
829.2488, 637.6271
829.7309, 652.2451
830.2130, 650.1550
830.6951, 630.4681
831.1772, 620.8673
831.6594, 639.1606
832.1415, 655.1158
832.6236, 654.1804
833.1057, 645.6619
833.5878, 635.8364
834.0699, 627.5979
834.5521, 625.9382
835.0342, 634.2036
835.5163, 643.1220
835.9984, 642.3342
836.4805, 637.5813
836.9626, 639.7524
837.4448, 646.9144
837.9269, 649.1227
838.4090, 643.2857
838.8911, 636.4299
839.3732, 636.2046
839.8553, 640.6793
840.3375, 642.8035
840.8196, 642.5382
841.3017, 641.8010
841.7838, 640.7799
842.2659, 640.3987
842.7480, 642.2490
843.2302, 643.8701
843.7123, 638.1064
844.1944, 620.2550
844.6765, 610.9800
845.1586, 615.6716
845.6407, 620.9016
846.1229, 620.5413
846.6050, 619.8364
847.0871, 624.6030
847.5692, 634.4348
848.0513, 643.2399
848.5334, 654.4541
849.0156, 658.8228
849.4977, 647.9572
849.9798, 634.5723
850.4619, 629.0361
850.9440, 628.7100
851.4261, 625.7123
851.9083, 617.3446
852.3904, 610.4383
852.8725, 608.6782
853.3546, 611.2327
853.8367, 619.7393
854.3188, 631.0934
854.8010, 638.9425
855.2831, 642.3845
855.7652, 645.9781
856.2473, 654.2409
856.7294, 661.0149
857.2115, 651.7286
857.6937, 630.9479
858.1758, 619.5593
858.6579, 619.3658
859.1400, 621.4859
859.6221, 621.9000
860.1042, 622.0345
860.5864, 624.3922
861.0685, 628.7585
861.5506, 629.1221
862.0327, 624.3519
862.5148, 619.6402
862.9969, 614.7507
863.4791, 613.0338
863.9612, 619.5158
864.4433, 630.6302
864.9254, 632.8976
865.4075, 618.0780
865.8896, 611.6685
866.3718, 621.2708
866.8539, 629.8110
867.3360, 630.0411
867.8181, 626.9612
868.3002, 626.3418
868.7823, 628.3896
869.2645, 629.5592
869.7466, 627.3361
870.2287, 626.1686
870.7108, 629.6012
871.1929, 633.2773
871.6750, 632.4034
872.1572, 628.6949
872.6393, 627.0123
873.1214, 629.0508
873.6035, 631.1786
874.0856, 630.3553
874.5677, 628.5981
875.0499, 627.7891
875.5320, 627.9327
876.0141, 629.6422
876.4962, 632.4775
876.9783, 633.4377
877.4604, 630.0065
877.9426, 625.6641
878.4247, 627.8267
878.9068, 633.8726
879.3889, 632.0325
879.8710, 622.4791
880.3531, 617.8325
880.8353, 623.5024
881.3174, 630.9600
881.7995, 629.4905
882.2816, 621.0356
882.7637, 618.1401
883.2458, 621.4592
883.7280, 626.3693
884.2101, 633.7490
884.6922, 636.8517
885.1743, 629.5930
885.6564, 617.1639
886.1385, 611.0552
886.6207, 612.8917
887.1028, 613.7343
887.5849, 611.9142
888.0670, 611.8311
888.5491, 616.5480
889.0313, 621.7687
889.5134, 624.1182
889.9955, 623.8475
890.4776, 622.0401
890.9597, 617.0192
891.4418, 613.6455
891.9240, 612.7789
892.4061, 613.4814
892.8882, 618.1638
893.3703, 622.5430
893.8524, 618.4600
894.3345, 606.0092
894.8167, 599.5937
895.2988, 610.8011
895.7809, 622.4020
896.2630, 626.3627
896.7451, 625.2626
897.2272, 619.5410
897.7094, 611.5043
898.1915, 604.5946
898.6736, 600.0023
899.1557, 600.8325
899.6378, 617.0352
900.1199, 634.1149
900.6021, 631.1271
901.0842, 615.9620
901.5663, 605.3214
902.0484, 601.9634
902.5305, 599.9852
903.0126, 595.5650
903.4948, 591.7886
903.9769, 593.0577
904.4590, 598.6942
904.9411, 609.6632
905.4232, 624.2173
905.9053, 628.5955
906.3875, 618.4268
906.8696, 605.5328
907.3517, 600.9108
907.8338, 602.9406
908.3159, 608.0843
908.7980, 616.4013
909.2802, 617.9246
909.7623, 610.6209
910.2444, 603.8437
910.7265, 601.7995
911.2086, 603.8834
911.6907, 610.9888
912.1729, 622.8704
912.6550, 620.2621
913.1371, 595.9097
913.6192, 580.4392
914.1013, 581.9315
914.5834, 587.9923
915.0656, 591.9190
915.5477, 593.8651
916.0298, 593.6696
916.5119, 589.5663
916.9940, 590.0434
917.4761, 598.9631
917.9583, 606.9906
918.4404, 613.7881
918.9225, 617.3773
919.4046, 614.0715
919.8867, 606.0807
920.3688, 601.4025
920.8510, 600.6484
921.3331, 603.1538
921.8152, 613.2533
922.2973, 621.4820
922.7794, 620.6531
923.2615, 617.4511
923.7437, 623.2034
924.2258, 636.0728
924.7079, 637.3901
925.1900, 610.9477
925.6721, 589.6451
926.1542, 590.0842
926.6364, 597.9240
927.1185, 605.1594
927.6006, 610.1281
928.0827, 610.9588
928.5648, 607.6874
929.0469, 605.2227
929.5291, 607.2881
930.0112, 610.0098
930.4933, 610.6999
930.9754, 610.2420
931.4575, 608.7929
931.9396, 607.3188
932.4218, 609.2780
932.9039, 615.7682
933.3860, 618.9725
933.8681, 607.0767
934.3502, 592.2154
934.8323, 591.1661
935.3145, 598.8361
935.7966, 606.0449
936.2787, 610.8105
936.7608, 613.2910
937.2429, 613.5470
937.7250, 611.5854
938.2072, 604.6122
938.6893, 596.5461
939.1714, 598.5883
939.6535, 607.9521
940.1356, 613.1656
940.6177, 611.7667
941.0999, 607.1527
941.5820, 601.1475
942.0641, 596.3712
942.5462, 599.9315
943.0283, 609.2996
943.5104, 609.8601
943.9926, 601.7997
944.4747, 595.9430
944.9568, 595.6606
945.4389, 596.3691
945.9210, 593.4810
946.4031, 589.6547
946.8853, 595.2334
947.3674, 610.1074
947.8495, 609.5613
948.3316, 590.2059
948.8137, 577.4229
949.2958, 581.7451
949.7780, 592.6865
950.2601, 599.1929
950.7422, 601.7205
951.2243, 602.4182
951.7064, 601.0357
952.1885, 599.5406
952.6707, 598.3364
953.1528, 595.7494
953.6349, 589.7079
954.1170, 584.7568
954.5991, 587.8354
955.0812, 598.4120
955.5634, 605.0402
956.0455, 607.0103
956.5276, 606.9014
957.0097, 603.8704
957.4918, 601.1837
957.9739, 600.7380
958.4561, 601.5562
958.9382, 602.3940
959.4203, 603.4194
959.9024, 601.7079
960.3845, 593.3492
960.8666, 590.4523
961.3488, 600.2977
961.8309, 608.3529
962.3130, 603.8152
962.7951, 592.5024
963.2772, 585.1320
963.7593, 581.4656
964.2415, 583.0934
964.7236, 595.4393
965.2057, 605.1949
965.6878, 611.5711
966.1699, 613.3219
966.6520, 605.2188
967.1342, 592.8999
967.6163, 590.5181
968.0984, 602.4828
968.5805, 607.8690
969.0626, 595.9177
969.5447, 590.3736
970.0269, 605.7976
970.5090, 621.9385
970.9911, 620.3211
971.4732, 607.5389
971.9553, 602.4736
972.4374, 609.3492
972.9196, 614.9779
973.4017, 617.5740
973.8838, 618.6622
974.3659, 616.2258
974.8480, 614.6334
975.3301, 618.8224
975.8123, 627.0546
976.2944, 633.7981
976.7765, 638.9489
977.2586, 640.0186
977.7407, 631.5893
978.2228, 624.8634
978.7050, 625.6556
979.1871, 629.8024
979.6692, 632.9650
980.1513, 635.5872
980.6334, 640.9666
981.1155, 651.2747
981.5977, 659.6887
982.0798, 661.4261
982.5619, 663.9996
983.0440, 673.1071
983.5261, 683.7796
984.0082, 688.7314
984.4904, 689.8411
984.9725, 696.8002
985.4546, 715.1428
985.9367, 730.5294
986.4188, 732.5225
986.9009, 736.1441
987.3831, 754.5089
987.8652, 776.4474
988.3473, 784.1807
988.8294, 781.7130
989.3115, 791.8938
989.7936, 824.0040
990.2758, 861.9887
990.7579, 900.0340
991.2400, 940.8923
991.7221, 983.9963
992.2042, 1032.375
992.6863, 1091.599
993.1685, 1160.246
993.6506, 1230.426
994.1327, 1297.575
994.6148, 1370.866
995.0969, 1453.760
995.5790, 1544.921
996.0612, 1640.566
996.5433, 1745.260
997.0254, 1863.433
997.5075, 1996.750
997.9896, 2147.863
998.4717, 2320.521
998.9539, 2502.293
999.4360, 2703.662
999.9181, 2896.235
1000.400, 3076.616
1000.882, 3224.055
1001.364, 3327.801
1001.847, 3376.129
1002.329, 3332.213
1002.811, 3167.535
1003.293, 2959.112
1003.775, 2716.721
1004.257, 2470.331
1004.739, 2235.882
1005.221, 2014.847
1005.703, 1805.417
1006.186, 1611.243
1006.668, 1441.622
1007.150, 1301.964
1007.632, 1183.889
1008.114, 1085.862
1008.596, 1005.764
1009.078, 948.9722
1009.560, 904.8881
1010.043, 860.5414
1010.525, 816.6602
1011.007, 782.8928
1011.489, 763.9655
1011.971, 748.0165
1012.453, 731.8389
1012.935, 714.7581
1013.417, 691.0840
1013.899, 670.2091
1014.382, 666.4123
1014.864, 675.2304
1015.346, 678.4064
1015.828, 669.9008
1016.310, 660.2149
1016.792, 652.1982
1017.274, 645.4202
1017.756, 638.7603
1018.239, 633.9058
1018.721, 634.1612
1019.203, 637.6287
1019.685, 638.4081
1020.167, 634.6666
1020.649, 630.6631
1021.131, 627.3915
1021.613, 624.6301
1022.095, 624.1730
1022.578, 622.5493
1023.060, 614.2012
1023.542, 602.5129
1024.024, 596.2770
1024.506, 597.5583
1024.988, 601.3636
1025.470, 610.3069
1025.952, 616.4446
1026.435, 614.9318
1026.917, 611.1434
1027.399, 608.6833
1027.881, 607.5294
1028.363, 607.2390
1028.845, 607.9627
1029.327, 607.7363
1029.809, 605.5134
1030.292, 603.2598
1030.774, 603.9247
1031.256, 602.2846
1031.738, 590.2189
1032.220, 575.2645
1032.702, 572.3916
1033.184, 583.7681
1033.666, 590.9449
1034.148, 588.1024
1034.630, 586.7410
1035.113, 592.4673
1035.595, 596.0427
1036.077, 585.9018
1036.559, 573.8358
1037.041, 581.1740
1037.523, 609.0408
1038.005, 623.5694
1038.487, 616.1268
1038.970, 608.7949
1039.452, 598.9496
1039.934, 594.5870
1040.416, 604.3789
1040.898, 617.0488
1041.380, 617.6970
1041.862, 607.7632
1042.344, 603.5176
1042.826, 608.8117
1043.309, 611.4446
1043.791, 610.9777
1044.273, 607.7939
1044.755, 601.0519
1045.237, 592.6511
1045.719, 582.2720
1046.201, 572.3784
1046.683, 575.8831
1047.166, 600.3329
1047.648, 611.3994
1048.130, 603.4210
1048.612, 598.6420
1049.094, 605.4841
1049.576, 612.7921
1050.058, 610.6423
1050.540, 602.6684
1051.022, 598.5905
1051.505, 598.6987
1051.987, 600.7819
1052.469, 605.9032
1052.951, 604.8284
1053.433, 593.7177
1053.915, 585.9760
1054.397, 591.6044
1054.879, 602.5577
1055.361, 603.1630
1055.844, 594.6902
1056.326, 593.2245
1056.808, 598.7174
1057.290, 600.6482
1057.772, 597.1643
1058.254, 596.0638
1058.736, 601.6336
1059.218, 609.1671
1059.701, 612.7451
1060.183, 613.0184
1060.665, 610.8168
1061.147, 607.0852
1061.629, 608.3618
1062.111, 614.4424
1062.593, 617.4406
1063.075, 614.3776
1063.557, 609.2753
1064.040, 605.2469
1064.522, 603.1909
1065.004, 605.0995
1065.486, 610.1754
1065.968, 618.2155
1066.450, 627.5354
1066.932, 632.6145
1067.414, 632.4557
1067.896, 631.6281
1068.379, 633.5974
1068.861, 634.7930
1069.343, 629.3312
1069.825, 622.0043
1070.307, 617.3369
1070.789, 616.9521
1071.271, 624.3882
1071.753, 638.7590
1072.236, 654.6895
1072.718, 669.9182
1073.200, 685.8001
1073.682, 702.9146
1074.164, 721.6674
1074.646, 739.9444
1075.128, 761.9525
1075.610, 796.3746
1076.093, 838.3922
1076.575, 872.3887
1077.057, 893.8182
1077.539, 924.0192
1078.021, 979.4835
1078.503, 1036.010
1078.985, 1072.615
1079.467, 1115.878
1079.949, 1186.043
1080.432, 1277.630
1080.914, 1383.672
1081.396, 1501.975
1081.878, 1617.910
1082.360, 1745.636
1082.842, 1845.986
1083.324, 1918.129
1083.806, 1955.217
1084.288, 1957.677
1084.771, 1920.316
1085.253, 1828.034
1085.735, 1689.831
1086.217, 1543.992
1086.699, 1374.206
1087.181, 1242.697
1087.663, 1164.648
1088.145, 1094.965
1088.628, 1021.430
1089.110, 954.4526
1089.592, 900.5496
1090.074, 859.4052
1090.556, 831.7678
1091.038, 818.2894
1091.520, 799.1612
1092.002, 772.1531
1092.484, 756.0009
1092.967, 755.3434
1093.449, 754.4510
1093.931, 745.0210
1094.413, 733.1619
1094.895, 726.5728
1095.377, 723.9794
1095.859, 720.5251
1096.341, 716.6207
1096.823, 717.2020
1097.306, 721.6932
1097.788, 720.4323
1098.270, 710.6310
1098.752, 698.9905
1099.234, 690.1389
1099.716, 685.4012
1100.198, 690.1916
1100.680, 698.7588
1101.163, 699.8242
1101.645, 694.4468
1102.127, 683.5288
1102.609, 670.0067
1103.091, 664.4572
1103.573, 672.4025
1104.055, 679.5383
1104.537, 671.1116
1105.020, 659.6841
1105.502, 652.6974
1105.984, 652.5848
1106.466, 672.1982
1106.948, 697.6678
1107.430, 693.1507
1107.912, 653.6785
1108.394, 629.0510
1108.876, 656.5403
1109.359, 676.6601
1109.841, 656.2327
1110.323, 634.1795
1110.805, 637.3687
1111.287, 650.2841
1111.769, 654.0552
1112.251, 648.7833
1112.733, 641.5049
1113.215, 628.8495
1113.698, 624.2734
1114.180, 634.8320
1114.662, 642.7955
1115.144, 643.5222
1115.626, 641.4096
1116.108, 637.4611
1116.590, 634.5383
1117.072, 638.1206
1117.555, 648.2463
1118.037, 662.3459
1118.519, 683.0279
1119.001, 691.1946
1119.483, 682.4644
1119.965, 675.7845
1120.447, 679.5010
1120.929, 685.5885
1121.411, 685.9844
1121.894, 682.1677
1122.376, 673.5396
1122.858, 663.7769
1123.340, 678.7443
1123.822, 712.7571
1124.304, 727.5998
1124.786, 717.2273
1125.268, 709.0882
1125.750, 718.9295
1126.233, 734.0693
1126.715, 741.1847
1127.197, 744.2573
1127.679, 748.7964
1128.161, 753.1243
1128.643, 755.7077
1129.125, 755.3029
1129.607, 747.3983
1130.090, 732.1143
1130.572, 722.4980
1131.054, 729.8694
1131.536, 735.8559
1132.018, 730.2331
1132.500, 720.7192
1132.982, 710.2013
1133.464, 700.5484
1133.947, 692.5837
1134.429, 687.0922
1134.911, 687.0356
1135.393, 695.4890
1135.875, 699.9980
1136.357, 695.7184
1136.839, 693.3163
1137.321, 697.9456
1137.803, 699.6225
1138.286, 690.0758
1138.768, 677.4797
1139.250, 674.3282
1139.732, 679.4838
1140.214, 682.5833
1140.696, 683.8859
1141.178, 679.5727
1141.660, 668.4196
1142.142, 663.9623
1142.625, 671.0247
1143.107, 677.1155
1143.589, 672.2192
1144.071, 662.2936
1144.553, 656.1143
1145.035, 653.8571
1145.517, 658.4518
1145.999, 667.0854
1146.482, 670.5044
1146.964, 668.7962
1147.446, 669.5950
1147.928, 675.2203
1148.410, 675.6152
1148.892, 658.0737
1149.374, 641.3369
1149.856, 643.9312
1150.339, 653.7189
1150.821, 661.7772
1151.303, 666.8741
1151.785, 668.2407
1152.267, 666.3317
1152.749, 662.4182
1153.231, 655.0594
1153.713, 652.7811
1154.195, 662.3401
1154.677, 670.5179
1155.160, 676.7997
1155.642, 676.4531
1156.124, 660.9310
1156.606, 641.9783
1157.088, 637.8068
1157.570, 646.9063
1158.052, 650.8154
1158.534, 647.2371
1159.017, 650.1581
1159.499, 662.0903
1159.981, 668.3856
1160.463, 663.7985
1160.945, 660.4932
1161.427, 667.7762
1161.909, 679.0499
1162.391, 682.3961
1162.874, 680.9319
1163.356, 685.9639
1163.838, 695.1840
1164.320, 701.6971
1164.802, 704.7170
1165.284, 705.1589
1165.766, 703.4301
1166.248, 699.7334
1166.730, 692.9075
1167.213, 687.5163
1167.695, 687.8375
1168.177, 690.7300
1168.659, 695.3975
1169.141, 699.4915
1169.623, 699.5225
1170.105, 696.7579
1170.587, 695.7293
1171.069, 697.5981
1171.552, 698.0604
1172.034, 695.6788
1172.516, 692.9475
1172.998, 690.9955
1173.480, 687.5724
1173.962, 680.4214
1174.444, 673.2067
1174.926, 669.8793
1175.409, 669.4714
1175.891, 668.2202
1176.373, 665.7529
1176.855, 669.2911
1177.337, 679.0942
1177.819, 683.0754
1178.301, 679.0851
1178.783, 672.1741
1179.266, 664.7658
1179.748, 662.7170
1180.230, 675.5438
1180.712, 691.2406
1181.194, 688.2106
1181.676, 675.7986
1182.158, 667.0018
1182.640, 663.1036
1183.122, 666.9446
1183.604, 675.8868
1184.087, 678.2363
1184.569, 668.2847
1185.051, 662.9174
1185.533, 677.3948
1186.015, 687.7697
1186.497, 680.4865
1186.979, 669.3253
1187.461, 659.8322
1187.944, 655.1049
1188.426, 662.1746
1188.908, 677.8858
1189.390, 682.3397
1189.872, 671.0844
1190.354, 664.4568
1190.836, 663.2778
1191.318, 662.9199
1191.801, 662.2432
1192.283, 663.3244
1192.765, 667.4016
1193.247, 673.6559
1193.729, 682.6631
1194.211, 690.6418
1194.693, 683.6527
1195.175, 669.9033
1195.657, 674.8909
1196.140, 692.2380
1196.622, 699.2264
1197.104, 693.0740
1197.586, 686.0208
1198.068, 683.5027
1198.550, 680.1266
1199.032, 668.5823
1199.514, 660.3221
1199.996, 667.7306
1200.479, 674.9207
1200.961, 664.8761
1201.443, 649.3098
1201.925, 647.9283
1202.407, 659.1890
1202.889, 663.0082
1203.371, 654.9014
1203.853, 653.9108
1204.336, 662.3083
1204.818, 670.7545
1205.300, 677.7978
1205.782, 683.3233
1206.264, 687.5539
1206.746, 688.0273
1207.228, 680.5645
1207.710, 669.6179
1208.193, 667.5909
1208.675, 670.8387
1209.157, 667.5358
1209.639, 660.3153
1210.121, 658.3046
1210.603, 662.5092
1211.085, 669.7543
1211.567, 678.8972
1212.049, 686.0003
1212.531, 686.1625
1213.014, 687.0733
1213.496, 696.7288
1213.978, 704.2161
1214.460, 699.7631
1214.942, 690.3247
1215.424, 683.4253
1215.906, 679.4557
1216.388, 678.2753
1216.871, 679.9842
1217.353, 684.7661
1217.835, 694.7347
1218.317, 697.8558
1218.799, 691.2626
1219.281, 686.4424
1219.763, 688.2417
1220.245, 692.0249
1220.728, 693.7026
1221.210, 694.2767
1221.692, 696.1669
1222.174, 697.8297
1222.656, 695.7949
1223.138, 691.1567
1223.620, 683.0795
1224.102, 675.2708
1224.584, 679.8313
1225.067, 698.2017
1225.549, 709.2520
1226.031, 699.8164
1226.513, 689.8683
1226.995, 681.9525
1227.477, 680.2244
1227.959, 692.2639
1228.441, 705.1038
1228.923, 708.1463
1229.406, 706.8782
1229.888, 711.4052
1230.370, 720.7443
1230.852, 723.4736
1231.334, 719.3738
1231.816, 713.6123
1232.298, 706.6267
1232.780, 698.9783
1233.263, 691.4269
1233.745, 691.4439
1234.227, 703.5568
1234.709, 716.7263
1235.191, 721.8920
##END=



