##NAMES=Raspite
##RRUFFID=R050567
##IDEAL CHEMISTRY=Pb^2+^W^6+^O_4_
##LOCALITY=Broken Hill, New South Wales, Australia
##OWNER=RRUFF
##SOURCE=University of Arizona Mineral Museum
##DESCRIPTION=Brown tabular crystal
##STATUS=The identification of this mineral is confirmed by single-crystal X-ray diffraction and chemical analysis.
##URL=rruff.info/R050567
##MEASURED CHEMISTRY=Pb_1.00_W_1.00_O_4_
92.06543, 9868.399
92.54755, 9301.881
93.02966, 9211.551
93.51178, 9800.833
93.99390, 10504.19
94.47601, 11351.68
94.95813, 12253.66
95.44025, 13080.70
95.92236, 13752.32
96.40448, 14268.84
96.88660, 14457.84
97.36871, 14385.10
97.85082, 14048.95
98.33294, 13377.32
98.81506, 12362.76
99.29717, 11214.64
99.77929, 10160.38
100.2614, 9185.681
100.7435, 8362.874
101.2256, 7720.743
101.7078, 7232.015
102.1899, 6855.991
102.6720, 6601.221
103.1541, 6438.931
103.6362, 6326.322
104.1183, 6261.971
104.6005, 6228.749
105.0826, 6214.593
105.5647, 6218.748
106.0468, 6243.133
106.5289, 6292.233
107.0110, 6356.833
107.4931, 6430.114
107.9753, 6510.602
108.4574, 6605.965
108.9395, 6731.112
109.4216, 6887.827
109.9037, 7077.975
110.3858, 7287.372
110.8680, 7529.627
111.3501, 7815.258
111.8322, 8150.392
112.3143, 8559.286
112.7964, 8982.597
113.2785, 9531.600
113.7607, 10097.96
114.2428, 10717.00
114.7249, 11345.82
115.2070, 11901.42
115.6891, 12337.20
116.1712, 12628.56
116.6534, 12703.40
117.1355, 12511.27
117.6176, 12155.49
118.0997, 11671.80
118.5818, 11056.08
119.0639, 10415.81
119.5461, 9827.829
120.0282, 9289.603
120.5103, 8821.361
120.9924, 8437.998
121.4745, 8129.247
121.9566, 7872.736
122.4388, 7678.994
122.9209, 7527.542
123.4030, 7400.031
123.8851, 7295.018
124.3672, 7206.445
124.8493, 7130.314
125.3315, 7066.028
125.8136, 7019.460
126.2957, 6994.488
126.7778, 6986.924
127.2599, 6997.492
127.7420, 7025.734
128.2242, 7069.698
128.7063, 7126.573
129.1884, 7196.565
129.6705, 7282.356
130.1526, 7379.170
130.6347, 7490.998
131.1169, 7619.821
131.5990, 7766.476
132.0811, 7931.188
132.5632, 8114.594
133.0453, 8316.906
133.5274, 8541.606
134.0096, 8781.922
134.4917, 9046.268
134.9738, 9343.399
135.4559, 9676.885
135.9380, 10049.93
136.4201, 10468.63
136.9023, 10924.34
137.3844, 11422.83
137.8665, 11986.64
138.3486, 12602.65
138.8307, 13225.10
139.3128, 13872.91
139.7950, 14476.04
140.2771, 14914.25
140.7592, 15220.19
141.2413, 15322.01
141.7234, 15123.72
142.2055, 14602.05
142.6877, 13899.30
143.1698, 12966.52
143.6519, 11933.97
144.1340, 10931.88
144.6161, 9988.286
145.0982, 9119.107
145.5803, 8362.626
146.0625, 7738.104
146.5446, 7216.250
147.0267, 6781.001
147.5088, 6420.733
147.9909, 6118.788
148.4730, 5868.161
148.9552, 5667.436
149.4373, 5496.444
149.9194, 5365.865
150.4015, 5257.230
150.8836, 5169.547
151.3657, 5101.281
151.8479, 5049.721
152.3300, 5013.379
152.8121, 4992.692
153.2942, 4985.125
153.7763, 4987.472
154.2584, 5001.736
154.7406, 5024.650
155.2227, 5058.134
155.7048, 5110.432
156.1869, 5189.304
156.6690, 5297.076
157.1511, 5442.906
157.6333, 5622.964
158.1154, 5841.474
158.5975, 6104.519
159.0796, 6413.788
159.5617, 6758.906
160.0438, 7143.531
160.5260, 7571.266
161.0081, 7971.672
161.4902, 8338.388
161.9723, 8665.080
162.4544, 8937.105
162.9365, 9142.910
163.4187, 9302.872
163.9008, 9426.801
164.3829, 9515.800
164.8650, 9620.895
165.3471, 9762.948
165.8292, 9942.313
166.3113, 10161.17
166.7935, 10429.44
167.2756, 10735.42
167.7577, 11063.03
168.2398, 11412.65
168.7219, 11794.55
169.2040, 12220.48
169.6862, 12692.81
170.1683, 13187.54
170.6504, 13686.87
171.1325, 14215.69
171.6146, 14783.99
172.0967, 15395.08
172.5789, 16062.32
173.0610, 16798.34
173.5431, 17584.96
174.0252, 18498.47
174.5073, 19481.62
174.9894, 20605.96
175.4716, 21900.39
175.9537, 23376.01
176.4358, 25075.58
176.9179, 27079.93
177.4000, 29426.63
177.8821, 32102.62
178.3643, 35390.48
178.8464, 38861.60
179.3285, 42315.52
179.8106, 45681.70
180.2927, 48567.51
180.7748, 49813.92
181.2570, 49016.81
181.7391, 47106.52
182.2212, 43563.80
182.7033, 39053.39
183.1854, 34478.73
183.6675, 30173.33
184.1497, 26233.21
184.6318, 23031.75
185.1139, 20591.33
185.5960, 18599.55
186.0781, 17052.07
186.5602, 15894.89
187.0423, 14988.02
187.5245, 14304.82
188.0066, 13827.73
188.4887, 13462.47
188.9708, 13234.63
189.4529, 13070.05
189.9350, 12944.23
190.4172, 12853.83
190.8993, 12760.71
191.3814, 12674.30
191.8635, 12555.94
192.3456, 12358.68
192.8277, 12072.75
193.3099, 11717.92
193.7920, 11298.01
194.2741, 10805.29
194.7562, 10298.74
195.2383, 9772.644
195.7204, 9257.045
196.2026, 8778.894
196.6847, 8341.968
197.1668, 7947.135
197.6489, 7598.242
198.1310, 7303.641
198.6131, 7034.087
199.0953, 6783.069
199.5774, 6548.351
200.0595, 6332.849
200.5416, 6136.994
201.0237, 5957.468
201.5058, 5787.985
201.9880, 5625.135
202.4701, 5480.083
202.9522, 5355.486
203.4343, 5246.482
203.9164, 5149.914
204.3985, 5064.462
204.8807, 4989.117
205.3628, 4921.822
205.8449, 4870.293
206.3270, 4817.794
206.8091, 4758.810
207.2912, 4699.402
207.7733, 4645.990
208.2555, 4602.021
208.7376, 4566.234
209.2197, 4534.102
209.7018, 4509.111
210.1839, 4484.099
210.6660, 4454.897
211.1482, 4426.087
211.6303, 4405.215
212.1124, 4396.659
212.5945, 4396.776
213.0766, 4390.274
213.5587, 4371.712
214.0409, 4353.631
214.5230, 4336.762
215.0051, 4322.150
215.4872, 4312.016
215.9693, 4308.077
216.4514, 4308.458
216.9336, 4305.944
217.4157, 4297.501
217.8978, 4290.702
218.3799, 4287.889
218.8620, 4288.565
219.3441, 4292.159
219.8263, 4299.634
220.3084, 4308.492
220.7905, 4311.741
221.2726, 4305.774
221.7547, 4301.085
222.2368, 4304.581
222.7190, 4314.306
223.2011, 4321.926
223.6832, 4322.523
224.1653, 4320.164
224.6474, 4322.971
225.1295, 4332.804
225.6117, 4343.235
226.0938, 4347.963
226.5759, 4348.096
227.0580, 4353.388
227.5401, 4370.247
228.0222, 4392.241
228.5043, 4411.359
228.9865, 4426.936
229.4686, 4440.380
229.9507, 4451.778
230.4328, 4461.130
230.9149, 4471.381
231.3970, 4482.987
231.8792, 4496.276
232.3613, 4511.008
232.8434, 4527.046
233.3255, 4545.995
233.8076, 4569.639
234.2897, 4598.164
234.7719, 4629.337
235.2540, 4665.558
235.7361, 4702.674
236.2182, 4737.948
236.7003, 4771.114
237.1824, 4803.881
237.6646, 4838.833
238.1467, 4876.961
238.6288, 4912.737
239.1109, 4938.614
239.5930, 4966.920
240.0751, 5006.359
240.5573, 5057.086
241.0394, 5110.961
241.5215, 5157.397
242.0036, 5193.650
242.4857, 5234.382
242.9678, 5284.435
243.4500, 5335.766
243.9321, 5384.252
244.4142, 5429.587
244.8963, 5474.483
245.3784, 5522.326
245.8605, 5574.239
246.3427, 5624.759
246.8248, 5667.440
247.3069, 5714.048
247.7890, 5772.154
248.2711, 5841.100
248.7532, 5913.486
249.2354, 5981.833
249.7175, 6043.616
250.1996, 6112.120
250.6817, 6184.456
251.1638, 6264.581
251.6459, 6356.207
252.1281, 6458.335
252.6102, 6565.803
253.0923, 6674.391
253.5744, 6783.079
254.0565, 6896.616
254.5386, 7009.849
255.0208, 7131.377
255.5029, 7270.427
255.9850, 7423.087
256.4671, 7577.446
256.9492, 7724.703
257.4313, 7864.508
257.9135, 7995.806
258.3956, 8124.849
258.8777, 8241.756
259.3598, 8344.296
259.8419, 8431.608
260.3240, 8504.250
260.8062, 8563.762
261.2883, 8609.966
261.7704, 8624.424
262.2525, 8594.717
262.7346, 8554.373
263.2167, 8511.361
263.6989, 8468.041
264.1810, 8425.665
264.6631, 8382.076
265.1452, 8340.769
265.6273, 8333.238
266.1094, 8369.811
266.5916, 8420.740
267.0737, 8472.114
267.5558, 8529.300
268.0379, 8605.668
268.5200, 8708.535
269.0021, 8836.438
269.4843, 8985.565
269.9664, 9151.658
270.4485, 9337.694
270.9306, 9539.396
271.4127, 9761.256
271.8948, 10010.77
272.3770, 10289.69
272.8591, 10601.01
273.3412, 10962.87
273.8233, 11361.35
274.3054, 11815.56
274.7875, 12318.48
275.2697, 12880.92
275.7518, 13523.75
276.2339, 14256.33
276.7160, 15067.77
277.1981, 15963.65
277.6802, 16968.06
278.1623, 17934.10
278.6444, 18929.75
279.1266, 19843.39
279.6087, 20517.21
280.0908, 20935.01
280.5729, 21019.79
281.0550, 20554.67
281.5371, 19570.35
282.0193, 18421.24
282.5014, 17062.56
282.9835, 15634.42
283.4656, 14315.11
283.9477, 13128.12
284.4298, 12090.14
284.9120, 11264.47
285.3941, 10627.64
285.8762, 10106.00
286.3583, 9709.792
286.8404, 9410.026
287.3225, 9179.481
287.8047, 9017.479
288.2868, 8907.422
288.7689, 8847.927
289.2510, 8832.938
289.7331, 8840.666
290.2152, 8865.233
290.6974, 8913.113
291.1795, 8991.072
291.6616, 9099.345
292.1437, 9232.956
292.6258, 9389.591
293.1079, 9573.566
293.5901, 9790.747
294.0722, 10042.80
294.5543, 10327.41
295.0364, 10653.55
295.5185, 11020.32
296.0006, 11393.32
296.4828, 11791.80
296.9649, 12160.67
297.4470, 12430.98
297.9291, 12612.47
298.4112, 12666.75
298.8933, 12552.95
299.3755, 12281.52
299.8576, 11902.78
300.3397, 11392.75
300.8218, 10819.01
301.3039, 10263.95
301.7860, 9724.576
302.2682, 9232.963
302.7503, 8800.800
303.2324, 8427.879
303.7145, 8108.984
304.1966, 7846.772
304.6787, 7632.976
305.1609, 7459.820
305.6430, 7323.213
306.1251, 7211.021
306.6072, 7121.192
307.0893, 7051.575
307.5714, 6999.811
308.0536, 6968.847
308.5357, 6947.134
309.0178, 6932.261
309.4999, 6920.186
309.9820, 6897.929
310.4641, 6864.404
310.9463, 6817.165
311.4284, 6749.101
311.9105, 6657.520
312.3926, 6560.536
312.8747, 6463.486
313.3568, 6370.557
313.8390, 6290.952
314.3211, 6229.809
314.8032, 6179.180
315.2853, 6129.468
315.7674, 6080.630
316.2495, 6041.172
316.7317, 6016.814
317.2138, 6003.904
317.6959, 5996.207
318.1780, 5994.072
318.6601, 5995.156
319.1422, 5996.317
319.6243, 5998.372
320.1064, 6007.673
320.5886, 6028.956
321.0707, 6055.549
321.5528, 6078.874
322.0349, 6098.797
322.5170, 6118.672
322.9991, 6139.697
323.4813, 6161.979
323.9634, 6185.938
324.4455, 6211.104
324.9276, 6238.966
325.4097, 6269.878
325.8918, 6303.917
326.3740, 6343.177
326.8561, 6393.258
327.3382, 6447.536
327.8203, 6496.117
328.3024, 6538.139
328.7845, 6575.810
329.2667, 6608.682
329.7488, 6638.366
330.2309, 6668.922
330.7130, 6701.427
331.1951, 6734.749
331.6772, 6768.023
332.1594, 6801.229
332.6415, 6834.042
333.1236, 6867.431
333.6057, 6899.680
334.0878, 6927.921
334.5699, 6950.976
335.0521, 6971.649
335.5342, 6994.225
336.0163, 7016.675
336.4984, 7030.533
336.9805, 7031.536
337.4626, 7024.053
337.9448, 7014.814
338.4269, 7003.936
338.9090, 6991.259
339.3911, 6975.380
339.8732, 6957.898
340.3553, 6942.511
340.8375, 6930.520
341.3196, 6918.500
341.8017, 6902.721
342.2838, 6883.509
342.7659, 6862.221
343.2480, 6839.567
343.7302, 6814.654
344.2123, 6786.332
344.6944, 6754.639
345.1765, 6720.702
345.6586, 6684.442
346.1407, 6646.486
346.6229, 6610.399
347.1050, 6575.955
347.5871, 6543.914
348.0692, 6515.482
348.5513, 6490.201
349.0334, 6465.610
349.5156, 6440.873
349.9977, 6416.080
350.4798, 6391.132
350.9619, 6362.872
351.4440, 6340.442
351.9261, 6331.236
352.4083, 6328.957
352.8904, 6322.290
353.3725, 6307.407
353.8546, 6290.837
354.3367, 6282.467
354.8188, 6284.491
355.3010, 6285.514
355.7831, 6279.126
356.2652, 6274.683
356.7473, 6282.576
357.2294, 6303.229
357.7115, 6326.667
358.1937, 6344.132
358.6758, 6355.275
359.1579, 6369.663
359.6400, 6387.297
360.1221, 6407.749
360.6042, 6431.004
361.0863, 6456.922
361.5685, 6483.997
362.0506, 6510.760
362.5327, 6539.421
363.0148, 6579.779
363.4969, 6639.410
363.9790, 6700.235
364.4612, 6757.212
364.9433, 6815.172
365.4254, 6880.199
365.9075, 6954.218
366.3896, 7032.689
366.8717, 7108.033
367.3539, 7175.756
367.8360, 7250.999
368.3181, 7333.375
368.8002, 7422.581
369.2823, 7518.517
369.7644, 7620.860
370.2466, 7730.156
370.7287, 7847.835
371.2108, 7974.286
371.6929, 8102.360
372.1750, 8228.441
372.6571, 8360.171
373.1393, 8502.337
373.6214, 8651.972
374.1035, 8806.331
374.5856, 8963.493
375.0677, 9122.425
375.5498, 9281.033
376.0320, 9438.109
376.5141, 9597.175
376.9962, 9757.762
377.4783, 9920.732
377.9604, 10087.28
378.4425, 10257.84
378.9247, 10427.81
379.4068, 10589.51
379.8889, 10737.76
380.3710, 10896.01
380.8531, 11075.79
381.3352, 11255.46
381.8174, 11425.05
382.2995, 11586.12
382.7816, 11746.04
383.2637, 11909.39
383.7458, 12075.87
384.2279, 12240.88
384.7101, 12400.10
385.1922, 12565.01
385.6743, 12741.39
386.1564, 12923.52
386.6385, 13107.80
387.1206, 13292.01
387.6028, 13474.71
388.0849, 13654.86
388.5670, 13831.96
389.0491, 14006.87
389.5312, 14196.38
390.0133, 14371.75
390.4955, 14517.50
390.9776, 14631.32
391.4597, 14711.71
391.9418, 14770.24
392.4239, 14799.40
392.9060, 14750.53
393.3882, 14607.31
393.8703, 14404.71
394.3524, 14163.71
394.8345, 13886.08
395.3166, 13568.45
395.7987, 13193.76
396.2809, 12792.19
396.7630, 12402.93
397.2451, 12022.57
397.7272, 11660.47
398.2093, 11316.75
398.6914, 10996.02
399.1736, 10701.32
399.6557, 10431.46
400.1378, 10183.21
400.6199, 9956.128
401.1020, 9748.677
401.5841, 9556.995
402.0662, 9380.708
402.5483, 9219.084
403.0305, 9076.891
403.5126, 8952.591
403.9947, 8832.213
404.4768, 8714.199
404.9589, 8598.366
405.4410, 8483.709
405.9232, 8371.109
406.4053, 8264.456
406.8874, 8167.049
407.3695, 8078.151
407.8516, 7989.571
408.3337, 7898.236
408.8159, 7811.037
409.2980, 7727.346
409.7801, 7649.496
410.2622, 7582.012
410.7443, 7525.969
411.2264, 7478.061
411.7086, 7433.389
412.1907, 7395.583
412.6728, 7351.719
413.1549, 7290.468
413.6370, 7232.248
414.1191, 7191.096
414.6013, 7166.575
415.0834, 7150.583
415.5655, 7137.344
416.0476, 7126.660
416.5297, 7116.156
417.0118, 7103.734
417.4940, 7094.009
417.9761, 7092.089
418.4582, 7091.686
418.9403, 7085.023
419.4224, 7069.136
419.9045, 7047.337
420.3867, 7026.830
420.8688, 7014.156
421.3509, 6985.116
421.8330, 6930.555
422.3151, 6867.622
422.7972, 6802.413
423.2794, 6736.806
423.7615, 6671.716
424.2436, 6606.673
424.7257, 6542.700
425.2078, 6486.298
425.6899, 6440.597
426.1721, 6397.412
426.6542, 6351.518
427.1363, 6306.750
427.6184, 6267.493
428.1005, 6235.132
428.5826, 6208.393
429.0648, 6188.931
429.5469, 6176.808
430.0290, 6158.105
430.5111, 6125.183
430.9932, 6089.937
431.4753, 6062.100
431.9575, 6041.306
432.4396, 6024.311
432.9217, 6013.825
433.4038, 6004.854
433.8859, 5986.091
434.3680, 5955.702
434.8502, 5929.357
435.3323, 5919.980
435.8144, 5921.442
436.2965, 5915.510
436.7786, 5897.580
437.2607, 5878.298
437.7429, 5862.874
438.2250, 5850.397
438.7071, 5837.910
439.1892, 5823.978
439.6713, 5812.714
440.1534, 5811.081
440.6356, 5821.930
441.1177, 5829.730
441.5998, 5829.302
442.0819, 5829.034
442.5640, 5836.343
443.0461, 5849.923
443.5282, 5862.882
444.0103, 5870.503
444.4925, 5873.704
444.9746, 5877.425
445.4567, 5881.881
445.9388, 5886.625
446.4209, 5890.546
446.9030, 5895.241
447.3852, 5903.021
447.8673, 5914.149
448.3494, 5926.170
448.8315, 5936.095
449.3136, 5943.772
449.7957, 5949.950
450.2779, 5949.519
450.7600, 5952.673
451.2421, 5964.152
451.7242, 5981.702
452.2063, 6001.032
452.6884, 6019.945
453.1706, 6038.588
453.6527, 6056.680
454.1348, 6073.376
454.6169, 6091.982
455.0990, 6114.530
455.5811, 6138.607
456.0633, 6162.935
456.5454, 6187.310
457.0275, 6211.855
457.5096, 6237.032
457.9917, 6262.537
458.4738, 6287.350
458.9560, 6311.004
459.4381, 6335.318
459.9202, 6362.410
460.4023, 6390.874
460.8844, 6418.062
461.3665, 6441.903
461.8487, 6466.494
462.3308, 6494.597
462.8129, 6525.904
463.2950, 6559.446
463.7771, 6595.229
464.2592, 6632.738
464.7414, 6671.314
465.2235, 6710.592
465.7056, 6753.539
466.1877, 6800.302
466.6698, 6851.447
467.1519, 6909.318
467.6341, 6972.688
468.1162, 7035.323
468.5983, 7092.690
469.0804, 7147.072
469.5625, 7206.675
470.0446, 7272.698
470.5268, 7342.875
471.0089, 7417.467
471.4910, 7495.836
471.9731, 7577.483
472.4552, 7662.083
472.9373, 7748.643
473.4195, 7835.549
473.9016, 7922.198
474.3837, 8015.036
474.8658, 8119.741
475.3479, 8224.174
475.8300, 8321.473
476.3122, 8416.972
476.7943, 8519.784
477.2764, 8633.616
477.7585, 8754.368
478.2406, 8877.562
478.7227, 9002.798
479.2049, 9129.315
479.6870, 9255.684
480.1691, 9385.105
480.6512, 9517.771
481.1333, 9654.059
481.6154, 9796.763
482.0976, 9951.978
482.5797, 10112.42
483.0618, 10266.09
483.5439, 10412.74
484.0260, 10560.81
484.5081, 10715.12
484.9902, 10873.92
485.4724, 11033.04
485.9545, 11190.06
486.4366, 11353.53
486.9187, 11539.99
487.4008, 11729.61
487.8829, 11894.81
488.3651, 12032.02
488.8472, 12155.13
489.3293, 12277.20
489.8114, 12398.67
490.2935, 12488.51
490.7756, 12546.44
491.2578, 12579.40
491.7399, 12595.44
492.2220, 12585.21
492.7041, 12534.22
493.1862, 12438.23
493.6683, 12307.52
494.1505, 12156.14
494.6326, 11984.73
495.1147, 11792.03
495.5968, 11565.41
496.0789, 11330.39
496.5610, 11093.68
497.0432, 10855.92
497.5253, 10612.92
498.0074, 10362.65
498.4895, 10112.92
498.9716, 9877.517
499.4537, 9655.737
499.9359, 9450.971
500.4180, 9262.620
500.9001, 9092.123
501.3822, 8941.107
501.8643, 8808.375
502.3464, 8689.177
502.8286, 8577.969
503.3107, 8479.382
503.7928, 8401.613
504.2749, 8345.069
504.7570, 8297.246
505.2391, 8252.532
505.7213, 8211.688
506.2034, 8176.729
506.6855, 8145.267
507.1676, 8123.758
507.6497, 8118.031
508.1318, 8120.892
508.6140, 8124.615
509.0961, 8128.077
509.5782, 8134.162
510.0603, 8145.412
510.5424, 8161.640
511.0245, 8179.755
511.5067, 8190.794
511.9888, 8214.674
512.4709, 8260.227
512.9530, 8317.632
513.4351, 8375.827
513.9172, 8432.264
514.3994, 8492.724
514.8815, 8565.078
515.3636, 8650.451
515.8457, 8736.331
516.3278, 8818.757
516.8099, 8908.111
517.2921, 9008.931
517.7742, 9118.154
518.2563, 9232.326
518.7384, 9352.660
519.2205, 9471.554
519.7026, 9583.125
520.1848, 9686.904
520.6669, 9780.027
521.1490, 9863.111
521.6311, 9932.837
522.1132, 9985.663
522.5953, 10022.39
523.0775, 10037.52
523.5596, 10033.15
524.0417, 10004.03
524.5238, 9944.081
525.0059, 9856.240
525.4880, 9747.075
525.9702, 9619.215
526.4523, 9474.155
526.9344, 9311.531
527.4165, 9127.190
527.8986, 8936.777
528.3807, 8733.086
528.8629, 8529.755
529.3450, 8331.229
529.8271, 8139.928
530.3092, 7959.167
530.7913, 7790.974
531.2734, 7633.816
531.7556, 7483.196
532.2377, 7340.408
532.7198, 7201.679
533.2019, 7061.436
533.6840, 6929.700
534.1661, 6812.674
534.6483, 6708.934
535.1304, 6611.565
535.6125, 6517.404
536.0946, 6426.125
536.5767, 6333.966
537.0588, 6240.370
537.5410, 6157.762
538.0231, 6094.737
538.5052, 6042.288
538.9873, 5985.983
539.4694, 5924.477
539.9515, 5867.961
540.4337, 5821.678
540.9158, 5779.796
541.3979, 5736.919
541.8800, 5692.880
542.3621, 5649.224
542.8442, 5607.203
543.3264, 5566.210
543.8085, 5524.069
544.2906, 5479.208
544.7726, 5435.758
545.2548, 5395.296
545.7369, 5355.155
546.2190, 5312.866
546.7011, 5269.006
547.1832, 5226.286
547.6653, 5187.369
548.1475, 5151.225
548.6296, 5114.614
549.1117, 5077.852
549.5938, 5039.972
550.0759, 4997.405
550.5580, 4955.788
551.0402, 4919.489
551.5223, 4888.801
552.0044, 4860.304
552.4865, 4831.929
552.9686, 4804.352
553.4507, 4778.882
553.9329, 4755.574
554.4150, 4733.128
554.8971, 4710.891
555.3792, 4689.051
555.8613, 4668.475
556.3434, 4649.661
556.8256, 4630.547
557.3077, 4610.989
557.7898, 4590.665
558.2719, 4568.740
558.7540, 4545.657
559.2361, 4523.718
559.7183, 4504.500
560.2004, 4487.465
560.6825, 4469.766
561.1646, 4451.175
561.6467, 4432.502
562.1288, 4414.236
562.6110, 4395.586
563.0931, 4374.681
563.5752, 4352.379
564.0573, 4332.429
564.5394, 4318.510
565.0215, 4308.240
565.5037, 4294.749
565.9858, 4277.106
566.4679, 4262.253
566.9500, 4254.417
567.4321, 4249.304
567.9142, 4240.854
568.3964, 4228.802
568.8785, 4217.360
569.3606, 4208.441
569.8427, 4200.442
570.3248, 4192.985
570.8069, 4185.289
571.2891, 4173.625
571.7712, 4155.560
572.2533, 4133.812
572.7354, 4115.365
573.2175, 4101.999
573.6996, 4088.852
574.1818, 4077.537
574.6639, 4064.934
575.1460, 4047.668
575.6281, 4027.426
576.1102, 4009.081
576.5923, 3995.740
577.0745, 3985.059
577.5566, 3971.940
578.0387, 3956.107
578.5208, 3939.375
579.0029, 3921.023
579.4850, 3903.200
579.9672, 3887.006
580.4493, 3872.563
580.9314, 3860.344
581.4135, 3853.661
581.8956, 3846.672
582.3777, 3831.599
582.8599, 3810.886
583.3420, 3794.497
583.8241, 3786.498
584.3062, 3780.716
584.7883, 3768.920
585.2704, 3749.932
585.7526, 3729.691
586.2347, 3707.898
586.7168, 3685.180
587.1989, 3659.504
587.6810, 3633.760
588.1631, 3612.728
588.6453, 3598.085
589.1274, 3586.611
589.6095, 3573.891
590.0916, 3559.637
590.5737, 3546.581
591.0558, 3534.819
591.5380, 3524.145
592.0201, 3514.908
592.5022, 3506.498
592.9843, 3497.845
593.4664, 3488.451
593.9485, 3479.889
594.4307, 3474.346
594.9128, 3470.500
595.3949, 3465.435
595.8770, 3458.737
596.3591, 3450.394
596.8412, 3440.053
597.3234, 3427.996
597.8055, 3416.378
598.2876, 3401.396
598.7697, 3391.756
599.2518, 3393.160
599.7339, 3397.726
600.2161, 3397.925
600.6982, 3393.190
601.1803, 3387.349
601.6624, 3382.957
602.1445, 3380.359
602.6266, 3381.743
603.1088, 3388.641
603.5909, 3395.410
604.0730, 3399.259
604.5551, 3403.420
605.0372, 3410.508
605.5193, 3420.406
606.0015, 3430.694
606.4836, 3440.525
606.9657, 3449.986
607.4478, 3458.483
607.9299, 3466.382
608.4120, 3475.802
608.8942, 3487.449
609.3763, 3501.393
609.8584, 3518.371
610.3405, 3539.985
610.8226, 3558.531
611.3047, 3572.883
611.7869, 3585.567
612.2690, 3594.341
612.7511, 3603.267
613.2332, 3618.257
613.7153, 3641.628
614.1974, 3671.598
614.6796, 3706.661
615.1617, 3747.198
615.6438, 3788.950
616.1259, 3830.064
616.6080, 3875.740
617.0901, 3930.770
617.5723, 3991.473
618.0544, 4052.527
618.5365, 4112.428
619.0186, 4174.554
619.5007, 4237.412
619.9828, 4305.057
620.4650, 4383.517
620.9471, 4473.568
621.4292, 4575.656
621.9113, 4691.469
622.3934, 4817.768
622.8755, 4940.277
623.3577, 5052.183
623.8398, 5170.402
624.3219, 5295.118
624.8040, 5425.437
625.2861, 5561.905
625.7682, 5702.688
626.2504, 5845.029
626.7325, 5986.149
627.2145, 6128.621
627.6967, 6276.058
628.1788, 6428.717
628.6609, 6587.314
629.1430, 6752.506
629.6251, 6923.953
630.1072, 7101.661
630.5894, 7285.843
631.0715, 7481.144
631.5536, 7692.261
632.0357, 7911.031
632.5178, 8132.872
632.9999, 8360.853
633.4821, 8602.023
633.9642, 8856.412
634.4463, 9119.493
634.9284, 9387.757
635.4105, 9661.153
635.8926, 9924.784
636.3748, 10179.62
636.8569, 10420.14
637.3390, 10664.17
637.8211, 10881.81
638.3032, 11055.66
638.7853, 11180.64
639.2675, 11251.90
639.7496, 11271.36
640.2317, 11231.79
640.7138, 11116.29
641.1959, 10926.72
641.6780, 10682.73
642.1602, 10386.74
642.6423, 10049.74
643.1244, 9677.250
643.6065, 9262.339
644.0886, 8858.190
644.5707, 8460.812
645.0529, 8079.433
645.5350, 7713.689
646.0171, 7366.415
646.4992, 7038.899
646.9813, 6733.132
647.4634, 6449.526
647.9456, 6189.786
648.4277, 5953.549
648.9098, 5736.076
649.3919, 5537.606
649.8740, 5359.480
650.3561, 5208.295
650.8383, 5075.580
651.3204, 4953.101
651.8025, 4840.335
652.2846, 4743.975
652.7667, 4670.387
653.2488, 4611.992
653.7310, 4564.708
654.2131, 4526.774
654.6952, 4493.523
655.1773, 4462.880
655.6594, 4438.270
656.1415, 4425.453
656.6237, 4426.362
657.1058, 4430.342
657.5879, 4437.384
658.0700, 4447.833
658.5521, 4462.608
659.0342, 4480.574
659.5164, 4500.518
659.9985, 4522.166
660.4806, 4545.009
660.9627, 4569.085
661.4448, 4593.905
661.9269, 4618.831
662.4091, 4643.773
662.8912, 4668.332
663.3733, 4692.933
663.8554, 4716.265
664.3375, 4735.025
664.8196, 4746.319
665.3018, 4761.516
665.7839, 4781.466
666.2660, 4804.873
666.7481, 4832.325
667.2302, 4862.428
667.7123, 4893.906
668.1945, 4926.333
668.6766, 4956.990
669.1587, 4981.726
669.6408, 5001.006
670.1229, 5023.712
670.6050, 5054.003
671.0872, 5075.845
671.5693, 5081.441
672.0514, 5072.775
672.5335, 5053.786
673.0156, 5023.327
673.4977, 4988.606
673.9799, 4952.650
674.4620, 4912.755
674.9441, 4864.646
675.4262, 4810.491
675.9083, 4756.611
676.3904, 4705.584
676.8726, 4654.150
677.3547, 4596.188
677.8368, 4530.361
678.3189, 4466.844
678.8010, 4403.875
679.2831, 4345.548
679.7653, 4297.378
680.2474, 4252.623
680.7295, 4202.007
681.2116, 4143.478
681.6937, 4087.219
682.1758, 4036.991
682.6580, 3993.342
683.1401, 3960.103
683.6222, 3935.031
684.1043, 3906.516
684.5864, 3869.002
685.0685, 3826.322
685.5507, 3784.648
686.0328, 3743.821
686.5149, 3704.996
686.9970, 3672.467
687.4791, 3637.292
687.9612, 3595.250
688.4434, 3549.898
688.9255, 3504.056
689.4076, 3458.681
689.8897, 3417.425
690.3718, 3384.900
690.8539, 3357.974
691.3361, 3331.206
691.8182, 3304.246
692.3003, 3277.688
692.7824, 3251.957
693.2645, 3225.824
693.7466, 3196.719
694.2288, 3163.246
694.7109, 3132.740
695.1930, 3106.267
695.6751, 3081.472
696.1572, 3058.636
696.6393, 3036.337
697.1215, 3013.025
697.6036, 2988.330
698.0857, 2962.970
698.5678, 2936.425
699.0499, 2909.823
699.5320, 2887.238
700.0142, 2869.073
700.4963, 2848.005
700.9784, 2820.336
701.4605, 2790.445
701.9426, 2764.536
702.4247, 2743.354
702.9069, 2721.256
703.3890, 2697.470
703.8711, 2673.591
704.3532, 2649.101
704.8353, 2625.489
705.3174, 2604.621
705.7996, 2586.771
706.2817, 2570.010
706.7638, 2552.569
707.2459, 2535.283
707.7280, 2521.552
708.2101, 2512.011
708.6923, 2500.203
709.1743, 2483.496
709.6564, 2464.983
710.1385, 2447.063
710.6207, 2429.856
711.1028, 2415.508
711.5849, 2406.740
712.0670, 2397.635
712.5491, 2384.698
713.0313, 2370.976
713.5134, 2359.012
713.9955, 2349.752
714.4776, 2345.082
714.9597, 2347.498
715.4418, 2353.325
715.9240, 2351.882
716.4061, 2342.233
716.8882, 2333.543
717.3703, 2327.581
717.8524, 2322.992
718.3345, 2318.173
718.8167, 2313.788
719.2988, 2312.269
719.7809, 2314.985
720.2630, 2318.860
720.7451, 2327.162
721.2272, 2333.221
721.7094, 2326.086
722.1915, 2309.344
722.6736, 2299.073
723.1557, 2305.449
723.6378, 2319.910
724.1199, 2324.692
724.6021, 2318.880
725.0842, 2315.208
725.5663, 2315.145
726.0484, 2316.656
726.5305, 2318.128
727.0126, 2320.489
727.4948, 2325.655
727.9769, 2334.249
728.4590, 2344.004
728.9411, 2353.622
729.4232, 2364.650
729.9053, 2377.656
730.3875, 2393.149
730.8696, 2414.087
731.3517, 2441.525
731.8338, 2467.292
732.3159, 2477.244
732.7980, 2471.410
733.2802, 2474.717
733.7623, 2490.490
734.2444, 2506.112
734.7265, 2516.793
735.2086, 2524.129
735.6907, 2529.165
736.1729, 2531.378
736.6550, 2538.275
737.1371, 2554.781
737.6192, 2572.940
738.1013, 2588.922
738.5834, 2603.075
739.0656, 2615.879
739.5477, 2627.791
740.0298, 2639.844
740.5119, 2653.137
740.9940, 2667.341
741.4761, 2681.199
741.9583, 2694.513
742.4404, 2708.707
742.9225, 2726.577
743.4046, 2741.990
743.8867, 2747.715
744.3688, 2745.184
744.8510, 2742.007
745.3331, 2740.624
745.8152, 2736.409
746.2973, 2729.595
746.7794, 2718.094
747.2615, 2698.454
747.7437, 2671.818
748.2258, 2642.891
748.7079, 2614.777
749.1900, 2585.587
749.6721, 2550.078
750.1542, 2508.381
750.6364, 2472.809
751.1185, 2445.968
751.6006, 2421.476
752.0827, 2394.950
752.5648, 2367.875
753.0469, 2343.524
753.5291, 2320.107
754.0112, 2303.597
754.4933, 2299.556
754.9754, 2297.827
755.4575, 2292.019
755.9396, 2284.015
756.4218, 2277.942
756.9039, 2275.109
757.3860, 2273.630
757.8681, 2271.116
758.3502, 2271.127
758.8323, 2268.571
759.3145, 2271.937
759.7966, 2275.046
760.2787, 2276.272
760.7608, 2277.607
761.2429, 2281.511
761.7250, 2288.135
762.2072, 2296.071
762.6893, 2306.059
763.1714, 2316.282
763.6535, 2327.609
764.1356, 2338.053
764.6177, 2344.582
765.0999, 2348.172
765.5820, 2353.839
766.0641, 2365.324
766.5462, 2378.496
767.0283, 2387.719
767.5104, 2393.990
767.9926, 2400.703
768.4747, 2408.431
768.9568, 2417.054
769.4389, 2426.817
769.9210, 2436.909
770.4031, 2444.247
770.8853, 2446.358
771.3674, 2450.610
771.8495, 2459.237
772.3316, 2467.532
772.8137, 2474.732
773.2958, 2479.832
773.7780, 2480.623
774.2601, 2476.390
774.7422, 2472.619
775.2243, 2472.859
775.7064, 2475.471
776.1885, 2479.457
776.6707, 2484.041
777.1528, 2486.624
777.6349, 2486.313
778.1170, 2485.336
778.5991, 2486.650
779.0812, 2490.013
779.5634, 2489.959
780.0455, 2483.716
780.5276, 2480.269
781.0097, 2483.565
781.4918, 2488.707
781.9739, 2491.723
782.4561, 2493.253
782.9382, 2496.198
783.4203, 2502.372
783.9024, 2508.321
784.3845, 2513.195
784.8666, 2516.483
785.3488, 2516.777
785.8309, 2514.766
786.3130, 2512.583
786.7951, 2511.277
787.2772, 2511.929
787.7593, 2517.861
788.2415, 2528.848
788.7236, 2535.154
789.2057, 2535.177
789.6878, 2534.523
790.1699, 2534.247
790.6520, 2536.281
791.1342, 2544.945
791.6162, 2561.623
792.0983, 2576.152
792.5804, 2586.269
793.0626, 2596.138
793.5447, 2608.021
794.0268, 2620.197
794.5089, 2629.526
794.9910, 2636.475
795.4731, 2646.149
795.9553, 2663.413
796.4374, 2683.103
796.9195, 2695.952
797.4016, 2703.951
797.8837, 2715.660
798.3658, 2732.719
798.8480, 2752.560
799.3301, 2773.572
799.8122, 2795.619
800.2943, 2817.754
800.7764, 2839.855
801.2585, 2862.474
801.7407, 2886.957
802.2228, 2910.446
802.7049, 2930.825
803.1870, 2949.858
803.6691, 2968.878
804.1512, 2987.871
804.6334, 3011.299
805.1155, 3044.794
805.5976, 3080.536
806.0797, 3110.545
806.5618, 3137.117
807.0439, 3165.948
807.5261, 3198.449
808.0082, 3233.143
808.4903, 3268.776
808.9724, 3305.023
809.4545, 3340.403
809.9366, 3375.031
810.4188, 3409.134
810.9009, 3443.315
811.3830, 3475.479
811.8651, 3502.810
812.3472, 3526.897
812.8293, 3553.836
813.3115, 3585.803
813.7936, 3615.698
814.2757, 3639.263
814.7578, 3663.592
815.2399, 3694.594
815.7220, 3728.636
816.2042, 3759.020
816.6863, 3783.888
817.1684, 3807.696
817.6505, 3836.702
818.1326, 3865.695
818.6147, 3882.813
819.0969, 3890.203
819.5790, 3899.679
820.0611, 3914.582
820.5432, 3932.235
821.0253, 3950.411
821.5074, 3968.934
821.9896, 3986.535
822.4717, 4004.079
822.9538, 4018.977
823.4359, 4029.781
823.9180, 4039.002
824.4001, 4048.144
824.8823, 4056.632
825.3644, 4063.461
825.8465, 4068.656
826.3286, 4071.445
826.8107, 4069.919
827.2928, 4067.391
827.7750, 4064.220
828.2571, 4062.808
828.7392, 4069.227
829.2213, 4084.187
829.7034, 4098.080
830.1855, 4099.502
830.6677, 4094.648
831.1498, 4102.311
831.6319, 4122.084
832.1140, 4142.651
832.5961, 4162.095
833.0782, 4178.280
833.5604, 4187.252
834.0425, 4192.514
834.5246, 4209.911
835.0067, 4248.810
835.4888, 4283.742
835.9709, 4308.754
836.4531, 4336.241
836.9352, 4371.871
837.4173, 4413.533
837.8994, 4456.742
838.3815, 4500.596
838.8636, 4552.737
839.3458, 4621.163
839.8279, 4696.195
840.3100, 4767.958
840.7921, 4840.104
841.2742, 4920.459
841.7563, 5010.252
842.2385, 5105.331
842.7206, 5200.717
843.2027, 5300.436
843.6848, 5413.798
844.1669, 5540.174
844.6490, 5680.167
845.1312, 5833.018
845.6133, 5998.834
846.0954, 6174.523
846.5775, 6364.563
847.0596, 6578.107
847.5417, 6814.966
848.0239, 7075.832
848.5060, 7348.956
848.9881, 7660.059
849.4702, 8011.303
849.9523, 8410.310
850.4344, 8856.426
850.9166, 9355.185
851.3987, 9929.050
851.8808, 10578.43
852.3629, 11326.18
852.8450, 12188.19
853.3271, 13167.13
853.8093, 14279.64
854.2914, 15512.49
854.7735, 16848.04
855.2556, 18267.03
855.7377, 19750.67
856.2198, 21275.07
856.7020, 22839.45
857.1841, 24342.61
857.6662, 25762.21
858.1483, 27196.85
858.6304, 28649.82
859.1125, 30175.31
859.5947, 31835.07
860.0768, 33626.29
860.5589, 35587.56
861.0410, 37679.20
861.5231, 39989.23
862.0052, 42516.98
862.4874, 45288.09
862.9695, 48308.51
863.4516, 51595.78
863.9337, 55122.36
864.4158, 58873.23
864.8979, 63059.34
865.3801, 67933.46
865.8622, 73199.45
866.3443, 78519.41
866.8264, 83954.28
867.3085, 89873.37
867.7906, 96241.17
868.2728, 102087.7
868.7549, 106708.3
869.2370, 109813.0
869.7191, 110511.4
870.2012, 108802.7
870.6833, 105222.7
871.1655, 99648.09
871.6476, 93109.55
872.1297, 86112.68
872.6118, 78914.22
873.0939, 72185.11
873.5760, 66011.09
874.0581, 60064.70
874.5402, 54387.67
875.0223, 48948.63
875.5045, 43642.24
875.9866, 38653.45
876.4687, 34062.78
876.9508, 29919.92
877.4329, 26273.73
877.9150, 23221.71
878.3972, 20595.91
878.8793, 18379.53
879.3614, 16496.18
879.8435, 14898.50
880.3256, 13548.84
880.8077, 12387.34
881.2899, 11387.75
881.7720, 10519.50
882.2541, 9758.371
882.7362, 9094.527
883.2183, 8514.704
883.7004, 8014.602
884.1826, 7561.468
884.6647, 7147.554
885.1468, 6769.439
885.6289, 6427.277
886.1110, 6118.046
886.5931, 5828.805
887.0753, 5557.167
887.5574, 5312.875
888.0395, 5104.858
888.5216, 4911.327
889.0037, 4716.365
889.4858, 4528.494
889.9680, 4361.763
890.4501, 4218.373
890.9322, 4084.051
891.4143, 3957.741
891.8964, 3838.136
892.3785, 3723.759
892.8607, 3616.777
893.3428, 3521.108
893.8249, 3435.392
894.3070, 3356.197
894.7891, 3283.008
895.2712, 3212.165
895.7534, 3139.716
896.2355, 3068.192
896.7176, 3002.077
897.1997, 2941.547
897.6818, 2884.323
898.1639, 2829.871
898.6461, 2779.968
899.1282, 2737.495
899.6103, 2701.033
900.0924, 2663.195
900.5745, 2623.851
901.0566, 2588.187
901.5388, 2557.590
902.0209, 2528.730
902.5030, 2499.182
902.9851, 2469.556
903.4672, 2441.566
903.9493, 2414.918
904.4315, 2390.378
904.9136, 2367.827
905.3957, 2347.540
905.8778, 2331.092
906.3599, 2315.903
906.8420, 2299.292
907.3242, 2281.473
907.8063, 2264.854
908.2884, 2252.282
908.7705, 2238.007
909.2526, 2217.690
909.7347, 2196.766
910.2169, 2181.116
910.6990, 2168.551
911.1811, 2153.315
911.6632, 2133.520
912.1453, 2111.722
912.6274, 2089.412
913.1096, 2066.705
913.5917, 2043.398
914.0738, 2020.010
914.5559, 1997.300
915.0380, 1975.628
915.5201, 1956.241
916.0023, 1939.977
916.4844, 1926.252
916.9665, 1914.377
917.4486, 1904.288
917.9307, 1891.622
918.4128, 1875.644
918.8950, 1859.279
919.3771, 1842.837
919.8592, 1828.417
920.3413, 1819.623
920.8234, 1816.153
921.3055, 1807.248
921.7877, 1788.189
922.2698, 1772.058
922.7519, 1760.778
923.2340, 1752.250
923.7161, 1747.873
924.1982, 1744.756
924.6804, 1737.295
925.1625, 1724.155
925.6446, 1712.055
926.1267, 1705.046
926.6088, 1696.672
927.0909, 1679.789
927.5731, 1662.518
928.0552, 1656.372
928.5373, 1659.123
929.0194, 1658.105
929.5015, 1647.146
929.9836, 1632.295
930.4658, 1615.772
930.9479, 1600.247
931.4300, 1591.020
931.9121, 1586.077
932.3942, 1578.611
932.8763, 1566.778
933.3585, 1554.809
933.8406, 1546.668
934.3227, 1541.215
934.8048, 1535.613
935.2869, 1530.016
935.7690, 1526.130
936.2512, 1524.307
936.7333, 1522.217
937.2154, 1518.941
937.6975, 1513.313
938.1796, 1502.569
938.6617, 1486.261
939.1439, 1474.633
939.6260, 1468.256
940.1081, 1465.210
940.5902, 1467.662
941.0723, 1469.539
941.5544, 1465.326
942.0366, 1456.855
942.5187, 1450.149
943.0008, 1444.191
943.4829, 1442.274
943.9650, 1451.010
944.4471, 1456.010
944.9293, 1448.104
945.4114, 1436.425
945.8935, 1432.478
946.3756, 1435.102
946.8577, 1431.792
947.3398, 1414.915
947.8220, 1398.227
948.3041, 1387.815
948.7862, 1381.013
949.2683, 1376.317
949.7504, 1373.100
950.2325, 1371.214
950.7147, 1370.361
951.1968, 1368.493
951.6789, 1362.795
952.1610, 1356.697
952.6431, 1354.040
953.1252, 1354.375
953.6074, 1357.930
954.0895, 1363.800
954.5716, 1367.296
955.0537, 1365.984
955.5358, 1365.523
956.0179, 1377.767
956.5000, 1397.447
956.9821, 1398.100
957.4642, 1380.490
957.9464, 1362.825
958.4285, 1349.052
958.9106, 1339.905
959.3927, 1336.594
959.8748, 1336.943
960.3569, 1335.246
960.8391, 1331.007
961.3212, 1327.328
961.8033, 1323.887
962.2854, 1322.031
962.7675, 1322.658
963.2496, 1324.580
963.7318, 1327.841
964.2139, 1331.660
964.6960, 1329.887
965.1781, 1315.428
965.6602, 1307.059
966.1423, 1308.926
966.6245, 1312.136
967.1066, 1312.987
967.5887, 1313.239
968.0708, 1315.857
968.5529, 1320.771
969.0350, 1323.321
969.5172, 1322.177
969.9993, 1318.993
970.4814, 1311.015
970.9635, 1304.209
971.4456, 1304.382
971.9277, 1308.862
972.4099, 1312.586
972.8920, 1314.258
973.3741, 1314.374
973.8562, 1312.965
974.3383, 1310.381
974.8204, 1305.651
975.3026, 1300.678
975.7847, 1299.048
976.2668, 1299.765
976.7489, 1298.158
977.2310, 1292.111
977.7131, 1285.465
978.1953, 1280.715
978.6774, 1278.751
979.1595, 1283.079
979.6416, 1291.321
980.1237, 1296.242
980.6058, 1296.599
981.0880, 1295.364
981.5701, 1294.426
982.0522, 1293.169
982.5343, 1289.439
983.0164, 1284.269
983.4985, 1283.714
983.9807, 1287.797
984.4628, 1294.103
984.9449, 1302.213
985.4270, 1308.195
985.9091, 1308.433
986.3912, 1304.463
986.8734, 1300.478
987.3555, 1296.324
987.8376, 1293.742
988.3197, 1293.189
988.8018, 1292.414
989.2839, 1289.978
989.7661, 1288.413
990.2482, 1291.109
990.7303, 1297.194
991.2124, 1299.687
991.6945, 1293.461
992.1766, 1296.461
992.6588, 1319.866
993.1409, 1336.633
993.6230, 1330.244
994.1051, 1314.550
994.5872, 1307.141
995.0693, 1307.903
995.5515, 1308.041
996.0336, 1305.845
996.5157, 1305.354
996.9978, 1309.306
997.4799, 1312.615
997.9620, 1311.640
998.4442, 1308.761
998.9263, 1307.786
999.4084, 1309.101
999.8905, 1309.627
1000.373, 1306.663
1000.855, 1305.405
1001.337, 1309.589
1001.819, 1314.470
1002.301, 1315.497
1002.783, 1314.555
1003.265, 1316.299
1003.747, 1321.755
1004.230, 1325.887
1004.712, 1324.696
1005.194, 1323.104
1005.676, 1325.622
1006.158, 1328.585
1006.640, 1326.728
1007.122, 1321.558
1007.604, 1317.862
1008.086, 1317.314
1008.569, 1319.334
1009.051, 1325.996
1009.533, 1332.688
1010.015, 1334.050
1010.497, 1331.990
1010.979, 1328.439
1011.461, 1324.831
1011.943, 1324.769
1012.426, 1329.963
1012.908, 1335.877
1013.390, 1337.948
1013.872, 1337.305
1014.354, 1334.914
1014.836, 1331.744
1015.318, 1330.861
1015.800, 1332.445
1016.282, 1333.858
1016.765, 1333.557
1017.247, 1333.210
1017.729, 1335.654
1018.211, 1339.926
1018.693, 1342.384
1019.175, 1343.313
1019.657, 1345.281
1020.139, 1348.717
1020.622, 1350.578
1021.104, 1348.747
1021.586, 1344.940
1022.068, 1341.522
1022.550, 1338.705
1023.032, 1339.398
1023.514, 1343.684
1023.996, 1346.747
1024.478, 1347.367
1024.961, 1347.109
1025.443, 1346.821
1025.925, 1347.268
1026.407, 1350.983
1026.889, 1358.322
1027.371, 1360.668
1027.853, 1357.127
1028.335, 1353.894
1028.818, 1352.788
1029.300, 1351.223
1029.782, 1346.407
1030.264, 1340.853
1030.746, 1342.003
1031.228, 1351.744
1031.710, 1356.218
1032.192, 1353.288
1032.674, 1351.375
1033.156, 1352.726
1033.639, 1355.842
1034.121, 1360.700
1034.603, 1365.649
1035.085, 1365.429
1035.567, 1357.891
1036.049, 1353.320
1036.531, 1352.373
1037.013, 1353.284
1037.496, 1357.214
1037.978, 1360.733
1038.460, 1359.958
1038.942, 1356.888
1039.424, 1358.436
1039.906, 1368.323
1040.388, 1371.355
1040.870, 1360.828
1041.353, 1353.120
1041.835, 1352.640
1042.317, 1355.972
1042.799, 1363.014
1043.281, 1371.571
1043.763, 1374.535
1044.245, 1368.968
1044.727, 1366.559
1045.209, 1371.020
1045.692, 1374.394
1046.174, 1372.561
1046.656, 1370.664
1047.138, 1373.348
1047.620, 1379.146
1048.102, 1383.598
1048.584, 1385.561
1049.066, 1389.169
1049.548, 1398.951
1050.031, 1405.204
1050.513, 1401.902
1050.995, 1396.486
1051.477, 1393.020
1051.959, 1392.688
1052.441, 1398.838
1052.923, 1414.424
1053.405, 1423.550
1053.888, 1417.548
1054.370, 1411.404
1054.852, 1409.643
1055.334, 1410.963
1055.816, 1414.445
1056.298, 1419.926
1056.780, 1428.612
1057.262, 1441.870
1057.745, 1449.284
1058.227, 1443.655
1058.709, 1437.156
1059.191, 1432.429
1059.673, 1431.039
1060.155, 1436.321
1060.637, 1445.234
1061.119, 1451.756
1061.601, 1454.723
1062.083, 1455.236
1062.566, 1451.000
1063.048, 1447.843
1063.530, 1446.112
1064.012, 1448.519
1064.494, 1462.612
1064.976, 1480.797
1065.458, 1486.188
1065.940, 1475.516
1066.423, 1469.347
1066.905, 1482.273
1067.387, 1492.787
1067.869, 1487.380
1068.351, 1478.836
1068.833, 1477.620
1069.315, 1481.625
1069.797, 1485.529
1070.280, 1488.316
1070.762, 1491.694
1071.244, 1495.794
1071.726, 1501.405
1072.208, 1509.618
1072.690, 1518.801
1073.172, 1531.459
1073.654, 1542.432
1074.136, 1541.036
1074.619, 1527.411
1075.101, 1518.020
1075.583, 1522.474
1076.065, 1527.352
1076.547, 1525.159
1077.029, 1521.959
1077.511, 1522.287
1077.993, 1524.858
1078.475, 1527.624
1078.958, 1530.131
1079.440, 1532.014
1079.922, 1531.756
1080.404, 1534.041
1080.886, 1543.827
1081.368, 1554.089
1081.850, 1559.561
1082.332, 1562.587
1082.814, 1567.168
1083.297, 1572.915
1083.779, 1575.535
1084.261, 1572.307
1084.743, 1570.184
1085.225, 1573.342
1085.707, 1577.519
1086.189, 1579.972
1086.671, 1581.904
1087.154, 1584.893
1087.636, 1588.819
1088.118, 1592.331
1088.600, 1594.579
1089.082, 1599.071
1089.564, 1609.298
1090.046, 1619.792
1090.528, 1629.788
1091.010, 1636.656
1091.493, 1633.826
1091.975, 1626.623
1092.457, 1629.405
1092.939, 1646.424
1093.421, 1659.466
1093.903, 1659.374
1094.385, 1656.998
1094.867, 1654.482
1095.349, 1654.174
1095.832, 1659.458
1096.314, 1667.721
1096.796, 1674.147
1097.278, 1677.934
1097.760, 1681.491
1098.242, 1684.257
1098.724, 1688.746
1099.206, 1699.245
1099.689, 1708.210
1100.171, 1709.554
1100.653, 1706.608
1101.135, 1703.526
1101.617, 1701.117
1102.099, 1701.120
1102.581, 1704.570
1103.063, 1709.395
1103.546, 1716.607
1104.028, 1723.365
1104.510, 1727.669
1104.992, 1731.060
1105.474, 1735.175
1105.956, 1740.020
1106.438, 1744.859
1106.920, 1750.933
1107.402, 1754.661
1107.885, 1764.692
1108.367, 1774.152
1108.849, 1783.030
1109.331, 1789.176
1109.813, 1788.081
1110.295, 1783.169
1110.777, 1784.256
1111.259, 1793.650
1111.741, 1802.011
1112.224, 1808.335
1112.706, 1814.073
1113.188, 1819.816
1113.670, 1824.848
1114.152, 1829.386
1114.634, 1832.615
1115.116, 1831.821
1115.598, 1826.198
1116.081, 1826.548
1116.563, 1837.156
1117.045, 1846.428
1117.527, 1853.842
1118.009, 1858.932
1118.491, 1860.203
1118.973, 1860.169
1119.455, 1861.439
1119.938, 1864.099
1120.420, 1869.210
1120.902, 1876.335
1121.384, 1887.490
1121.866, 1906.365
1122.348, 1921.269
1122.830, 1927.217
1123.312, 1929.595
1123.794, 1932.729
1124.276, 1936.584
1124.759, 1940.949
1125.241, 1945.659
1125.723, 1952.687
1126.205, 1963.761
1126.687, 1969.695
1127.169, 1966.448
1127.651, 1964.718
1128.133, 1972.353
1128.616, 1984.106
1129.098, 1990.389
1129.580, 1991.560
1130.062, 1994.789
1130.544, 2000.481
1131.026, 2001.395
1131.508, 1995.443
1131.990, 1996.521
1132.473, 2011.757
1132.955, 2032.932
1133.437, 2051.731
1133.919, 2066.582
1134.401, 2070.322
1134.883, 2064.028
1135.365, 2058.926
1135.847, 2055.986
1136.329, 2057.539
1136.812, 2064.253
1137.294, 2073.260
1137.776, 2082.538
1138.258, 2091.649
1138.740, 2101.118
1139.222, 2109.502
1139.704, 2110.092
1140.186, 2105.019
1140.668, 2103.122
1141.151, 2106.008
1141.633, 2111.363
1142.115, 2118.033
1142.597, 2127.589
1143.079, 2145.065
1143.561, 2163.600
1144.043, 2170.722
1144.525, 2170.693
1145.008, 2169.704
1145.490, 2170.118
1145.972, 2176.752
1146.454, 2190.286
1146.936, 2203.239
1147.418, 2209.738
1147.900, 2215.332
1148.382, 2227.612
1148.865, 2239.974
1149.347, 2241.949
1149.829, 2239.723
1150.311, 2245.437
1150.793, 2259.063
1151.275, 2271.406
1151.757, 2278.642
1152.239, 2285.281
1152.721, 2294.810
1153.203, 2303.504
1153.686, 2308.107
1154.168, 2311.325
1154.650, 2315.374
1155.132, 2320.565
1155.614, 2326.199
1156.096, 2332.138
1156.578, 2342.328
1157.060, 2363.352
1157.543, 2380.822
1158.025, 2387.593
1158.507, 2393.358
1158.989, 2403.786
1159.471, 2416.494
1159.953, 2428.141
1160.435, 2438.930
1160.917, 2450.964
1161.400, 2466.553
1161.882, 2478.702
1162.364, 2486.079
1162.846, 2491.997
1163.328, 2496.798
1163.810, 2500.827
1164.292, 2503.006
1164.774, 2505.610
1165.256, 2513.855
1165.739, 2528.108
1166.221, 2541.094
1166.703, 2552.043
1167.185, 2564.621
1167.667, 2579.933
1168.149, 2594.922
1168.631, 2608.608
1169.113, 2619.786
1169.595, 2626.306
1170.078, 2630.613
1170.560, 2642.721
1171.042, 2652.606
1171.524, 2662.928
1172.006, 2679.759
1172.488, 2689.245
1172.970, 2706.118
1173.452, 2725.195
1173.934, 2743.316
1174.417, 2759.960
1174.899, 2774.447
1175.381, 2786.923
1175.863, 2797.479
1176.345, 2806.502
1176.827, 2814.830
1177.309, 2822.805
1177.791, 2830.278
1178.274, 2837.559
1178.756, 2847.633
1179.238, 2863.413
1179.720, 2881.256
1180.202, 2897.792
1180.684, 2913.688
1181.166, 2928.805
1181.648, 2944.474
1182.130, 2962.510
1182.613, 2982.999
1183.095, 3006.549
1183.577, 3034.281
1184.059, 3055.833
1184.541, 3058.935
1185.023, 3063.026
1185.505, 3079.169
1185.987, 3100.190
1186.469, 3122.742
1186.952, 3144.480
1187.434, 3162.386
1187.916, 3176.287
1188.398, 3188.010
1188.880, 3194.612
1189.362, 3204.600
1189.844, 3221.251
1190.326, 3238.142
1190.809, 3251.307
1191.291, 3265.998
1191.773, 3288.502
1192.255, 3314.187
1192.737, 3331.396
1193.219, 3338.923
1193.701, 3350.929
1194.183, 3368.685
1194.666, 3385.258
1195.148, 3398.244
1195.630, 3416.792
1196.112, 3446.057
1196.594, 3478.166
1197.076, 3504.744
1197.558, 3526.800
1198.040, 3546.988
1198.522, 3565.277
1199.005, 3581.491
1199.487, 3596.059
1199.969, 3612.866
1200.451, 3632.574
1200.933, 3653.355
1201.415, 3674.208
1201.897, 3692.994
1202.379, 3705.601
1202.861, 3716.785
1203.344, 3733.800
1203.826, 3755.110
1204.308, 3780.393
1204.790, 3806.952
1205.272, 3827.729
1205.754, 3842.525
1206.236, 3860.130
1206.718, 3885.807
1207.201, 3910.828
1207.683, 3928.146
1208.165, 3944.772
1208.647, 3966.208
1209.129, 3984.302
1209.611, 4007.973
1210.093, 4025.472
1210.575, 4045.833
1211.057, 4069.689
1211.540, 4095.060
1212.022, 4126.049
1212.504, 4152.078
1212.986, 4166.565
1213.468, 4183.278
1213.950, 4208.827
1214.432, 4236.252
1214.914, 4259.678
1215.396, 4279.785
1215.879, 4298.376
1216.361, 4315.392
1216.843, 4329.990
1217.325, 4340.666
1217.807, 4360.386
1218.289, 4392.070
1218.771, 4421.802
1219.253, 4443.090
1219.736, 4461.765
1220.218, 4482.766
1220.700, 4508.083
1221.182, 4545.623
1221.664, 4590.571
1222.146, 4626.655
1222.628, 4655.406
1223.110, 4683.714
1223.593, 4713.116
1224.075, 4742.871
1224.557, 4772.670
1225.039, 4801.502
1225.521, 4828.722
1226.003, 4854.475
1226.485, 4874.828
1226.967, 4897.139
1227.449, 4932.506
1227.932, 4973.009
1228.414, 5005.104
1228.896, 5029.281
1229.378, 5056.950
1229.860, 5090.269
1230.342, 5128.724
1230.824, 5175.536
1231.306, 5222.720
1231.788, 5273.030
1232.271, 5316.963
1232.753, 5342.605
1233.235, 5365.023
1233.717, 5405.465
1234.199, 5443.803
1234.681, 5487.522
1235.163, 5541.737
1235.645, 5588.277
1236.128, 5650.202
1236.610, 5705.977
1237.092, 5750.274
1237.574, 5791.325
1238.056, 5833.755
1238.538, 5878.501
1239.020, 5928.604
1239.502, 5979.956
1239.984, 6022.034
1240.467, 6057.659
1240.949, 6091.657
1241.431, 6127.741
1241.913, 6176.898
1242.395, 6239.530
1242.877, 6304.986
1243.359, 6368.676
1243.841, 6428.593
1244.323, 6478.521
1244.806, 6530.830
1245.288, 6597.153
1245.770, 6657.544
1246.252, 6733.532
1246.734, 6797.869
1247.216, 6872.211
1247.698, 6940.143
1248.180, 7003.588
1248.662, 7076.306
1249.145, 7133.665
1249.627, 7200.280
1250.109, 7274.216
1250.591, 7360.294
1251.073, 7443.910
1251.555, 7515.513
1252.037, 7583.143
1252.519, 7658.500
1253.002, 7739.017
1253.484, 7812.050
1253.966, 7877.990
1254.448, 7946.521
1254.930, 8017.854
1255.412, 8089.001
1255.894, 8159.255
1256.376, 8232.819
1256.859, 8311.317
1257.341, 8395.347
1257.823, 8485.417
1258.305, 8580.589
1258.787, 8678.761
1259.269, 8780.220
1259.751, 8886.910
1260.233, 8996.877
1260.715, 9108.902
1261.198, 9221.557
1261.680, 9331.983
1262.162, 9439.173
1262.644, 9545.561
1263.126, 9649.525
1263.608, 9757.028
1264.090, 9870.361
1264.572, 9987.361
1265.054, 10110.02
1265.537, 10231.60
1266.019, 10341.30
1266.501, 10444.19
1266.983, 10556.93
1267.465, 10679.60
1267.947, 10807.67
1268.429, 10941.90
1268.911, 11073.62
1269.394, 11201.46
1269.876, 11335.53
1270.358, 11481.17
1270.840, 11630.86
1271.322, 11777.09
1271.804, 11928.54
1272.286, 12103.36
1272.768, 12290.23
1273.250, 12467.34
1273.733, 12642.44
1274.215, 12831.46
1274.697, 13032.96
1275.179, 13235.94
1275.661, 13438.84
1276.143, 13648.92
1276.625, 13870.50
1277.107, 14100.68
1277.589, 14352.71
1278.072, 14596.51
1278.554, 14809.06
1279.036, 15018.29
1279.518, 15242.77
1280.000, 15476.46
1280.482, 15706.34
1280.964, 15935.17
1281.446, 16197.75
1281.929, 16495.86
1282.411, 16796.90
1282.893, 17099.89
1283.375, 17410.24
1283.857, 17731.26
1284.339, 18062.70
1284.821, 18404.59
1285.303, 18761.76
1285.786, 19140.78
1286.268, 19539.36
##END=



