##NAMES=Raspite
##RRUFFID=R050567
##IDEAL CHEMISTRY=Pb^2+^W^6+^O_4_
##LOCALITY=Broken Hill, New South Wales, Australia
##OWNER=RRUFF
##SOURCE=University of Arizona Mineral Museum
##DESCRIPTION=Brown tabular crystal
##STATUS=The identification of this mineral is confirmed by single-crystal X-ray diffraction and chemical analysis.
##URL=rruff.info/R050567
##MEASURED CHEMISTRY=Pb_1.00_W_1.00_O_4_
91.11523, 38.51038
91.59735, 38.23493
92.07947, 38.44896
92.56158, 39.01561
93.04370, 39.50500
93.52582, 39.59296
94.00793, 39.43618
94.49006, 39.25072
94.97218, 38.91729
95.45429, 38.88882
95.93641, 40.46307
96.41853, 43.58579
96.90064, 46.03856
97.38276, 45.53482
97.86488, 42.41340
98.34699, 40.50059
98.82911, 40.66003
99.31123, 42.29972
99.79334, 43.57490
100.2755, 44.45827
100.7576, 45.03249
101.2397, 45.32278
101.7218, 45.29936
102.2039, 45.12736
102.6861, 44.75507
103.1682, 44.18456
103.6503, 43.94705
104.1324, 44.13622
104.6145, 44.55171
105.0966, 44.92819
105.5788, 45.07363
106.0609, 45.52310
106.5430, 46.56172
107.0251, 48.56545
107.5072, 49.80259
107.9893, 49.51768
108.4715, 48.65990
108.9536, 48.92927
109.4357, 51.01879
109.9178, 53.62487
110.3999, 56.41532
110.8820, 59.57047
111.3642, 62.57308
111.8463, 64.80651
112.3284, 66.80831
112.8105, 70.06602
113.2926, 75.54306
113.7747, 81.85410
114.2569, 88.26976
114.7390, 95.11285
115.2211, 101.6095
115.7032, 106.6403
116.1853, 110.7357
116.6674, 116.5620
117.1496, 124.8705
117.6317, 135.4503
118.1138, 148.0190
118.5959, 162.5252
119.0780, 179.0722
119.5602, 197.3214
120.0423, 217.4791
120.5244, 240.4514
121.0065, 268.7491
121.4886, 299.7746
121.9707, 330.2314
122.4529, 358.0491
122.9350, 384.8335
123.4171, 412.2769
123.8992, 440.6078
124.3813, 467.5490
124.8634, 491.7709
125.3456, 513.2385
125.8277, 531.9476
126.3098, 545.8828
126.7919, 557.4794
127.2740, 569.8624
127.7561, 583.1263
128.2383, 597.8165
128.7204, 614.6500
129.2025, 633.5267
129.6846, 653.9210
130.1667, 674.0099
130.6488, 694.9871
131.1310, 721.9537
131.6131, 755.9478
132.0952, 795.3256
132.5773, 837.1771
133.0594, 881.6865
133.5415, 929.6409
134.0237, 982.5338
134.5058, 1040.460
134.9879, 1099.921
135.4700, 1159.411
135.9521, 1221.015
136.4343, 1293.775
136.9164, 1379.077
137.3985, 1471.037
137.8806, 1565.825
138.3627, 1664.031
138.8448, 1767.411
139.3270, 1882.348
139.8091, 2006.284
140.2912, 2113.154
140.7733, 2208.723
141.2554, 2278.864
141.7375, 2308.157
142.2197, 2293.454
142.7018, 2245.970
143.1839, 2163.188
143.6660, 2043.635
144.1481, 1916.455
144.6302, 1775.800
145.1124, 1633.392
145.5945, 1505.596
146.0766, 1390.149
146.5587, 1290.738
147.0408, 1209.015
147.5230, 1147.049
148.0051, 1095.362
148.4872, 1052.036
148.9693, 1012.836
149.4514, 979.8651
149.9335, 955.4609
150.4157, 934.3264
150.8978, 915.3456
151.3799, 897.6329
151.8620, 883.1050
152.3441, 872.8102
152.8262, 865.4158
153.3084, 858.6888
153.7905, 848.6007
154.2726, 842.2817
154.7547, 842.2126
155.2368, 849.9337
155.7189, 861.3844
156.2011, 876.3450
156.6832, 894.6525
157.1653, 915.6519
157.6474, 934.5371
158.1295, 959.2041
158.6116, 993.1815
159.0938, 1033.576
159.5759, 1087.665
160.0580, 1157.007
160.5401, 1241.115
161.0222, 1338.814
161.5044, 1452.474
161.9865, 1577.652
162.4686, 1712.049
162.9507, 1870.454
163.4328, 2020.755
163.9149, 2152.896
164.3971, 2268.787
164.8792, 2370.632
165.3613, 2450.500
165.8434, 2521.186
166.3255, 2594.680
166.8076, 2676.830
167.2898, 2759.991
167.7719, 2836.457
168.2540, 2907.852
168.7361, 2988.592
169.2182, 3087.948
169.7003, 3201.083
170.1825, 3322.227
170.6646, 3449.782
171.1467, 3583.980
171.6288, 3723.742
172.1109, 3868.180
172.5931, 4027.892
173.0752, 4206.116
173.5573, 4404.641
174.0394, 4627.470
174.5215, 4859.072
175.0036, 5122.844
175.4858, 5434.026
175.9679, 5794.825
176.4500, 6213.539
176.9321, 6701.603
177.4142, 7258.302
177.8963, 7872.187
178.3785, 8571.302
178.8606, 9324.758
179.3427, 10109.69
179.8248, 10946.03
180.3069, 11684.04
180.7890, 12252.78
181.2712, 12615.84
181.7533, 12637.79
182.2354, 12164.57
182.7175, 11317.74
183.1996, 10308.06
183.6818, 9100.104
184.1639, 7895.634
184.6460, 6859.633
185.1281, 5996.188
185.6102, 5276.864
186.0923, 4722.182
186.5745, 4306.247
187.0566, 3976.345
187.5387, 3732.285
188.0208, 3551.308
188.5029, 3402.447
188.9850, 3285.663
189.4672, 3192.636
189.9493, 3126.014
190.4314, 3081.889
190.9135, 3038.406
191.3956, 2996.214
191.8777, 2950.862
192.3599, 2897.173
192.8420, 2835.373
193.3241, 2757.292
193.8062, 2657.035
194.2883, 2534.745
194.7704, 2400.077
195.2526, 2250.184
195.7347, 2094.176
196.2168, 1946.492
196.6989, 1806.967
197.1810, 1676.986
197.6632, 1556.109
198.1453, 1443.301
198.6274, 1347.600
199.1095, 1271.962
199.5916, 1209.792
200.0737, 1149.556
200.5559, 1090.862
201.0380, 1034.705
201.5201, 981.1199
202.0022, 929.4194
202.4843, 883.6935
202.9664, 844.8090
203.4486, 811.3263
203.9307, 780.0115
204.4128, 751.0897
204.8949, 724.5772
205.3770, 700.8892
205.8591, 680.2863
206.3413, 660.3783
206.8234, 640.6017
207.3055, 621.7379
207.7876, 606.1135
208.2697, 594.5258
208.7519, 584.0657
209.2340, 572.9956
209.7161, 560.9587
210.1982, 550.1133
210.6803, 540.7545
211.1624, 532.5488
211.6446, 524.7186
212.1267, 517.5615
212.6088, 510.2205
213.0909, 501.7577
213.5730, 491.3159
214.0551, 483.1785
214.5373, 477.9724
215.0194, 475.0482
215.5015, 472.5103
215.9836, 470.4468
216.4657, 468.5828
216.9478, 466.8013
217.4300, 465.2105
217.9121, 463.2914
218.3942, 460.8597
218.8763, 458.1420
219.3584, 455.8284
219.8405, 453.9838
220.3227, 452.4241
220.8048, 450.9988
221.2869, 449.5025
221.7690, 448.6964
222.2511, 448.7417
222.7333, 449.4555
223.2154, 450.3683
223.6975, 451.6925
224.1796, 452.8883
224.6617, 453.9115
225.1438, 455.4113
225.6260, 454.8172
226.1081, 450.6985
226.5902, 444.8270
227.0723, 442.5269
227.5544, 445.3187
228.0365, 449.2537
228.5187, 452.6957
229.0008, 455.9180
229.4829, 457.8140
229.9650, 457.4421
230.4471, 455.9981
230.9292, 456.8319
231.4114, 461.3257
231.8935, 465.9844
232.3756, 469.1461
232.8577, 470.0309
233.3398, 471.3074
233.8220, 472.7909
234.3041, 474.7185
234.7862, 477.7878
235.2683, 482.8505
235.7504, 487.7199
236.2325, 491.2328
236.7147, 491.8754
237.1968, 495.1242
237.6789, 502.2620
238.1610, 511.5183
238.6431, 518.6787
239.1252, 521.6628
239.6074, 525.9295
240.0895, 533.9173
240.5716, 547.0822
241.0537, 559.6475
241.5358, 571.9089
242.0179, 583.4373
242.5001, 593.0287
242.9822, 598.7296
243.4643, 605.6461
243.9464, 615.7245
244.4285, 629.8690
244.9106, 644.4202
245.3928, 660.0809
245.8749, 675.7958
246.3570, 689.4597
246.8391, 699.4120
247.3212, 710.1376
247.8034, 723.3268
248.2855, 739.7819
248.7676, 755.2573
249.2497, 768.3114
249.7318, 781.5509
250.2139, 799.2519
250.6961, 823.7253
251.1782, 848.5499
251.6603, 871.9883
252.1424, 893.8124
252.6245, 915.8878
253.1066, 937.1301
253.5888, 959.7706
254.0709, 987.5511
254.5530, 1022.917
255.0351, 1058.548
255.5172, 1091.788
255.9993, 1122.340
256.4815, 1155.745
256.9636, 1193.356
257.4457, 1231.922
257.9278, 1268.203
258.4099, 1302.153
258.8921, 1334.120
259.3742, 1364.711
259.8563, 1393.696
260.3384, 1419.767
260.8205, 1442.157
261.3026, 1462.302
261.7848, 1481.286
262.2669, 1497.714
262.7490, 1516.685
263.2311, 1540.545
263.7132, 1568.782
264.1953, 1590.932
264.6775, 1604.428
265.1596, 1615.712
265.6417, 1630.167
266.1238, 1648.104
266.6059, 1667.800
267.0880, 1688.296
267.5702, 1710.194
268.0523, 1736.177
268.5344, 1766.861
269.0165, 1801.125
269.4986, 1837.253
269.9807, 1873.980
270.4629, 1919.936
270.9450, 1976.633
271.4271, 2043.458
271.9092, 2114.802
272.3913, 2188.875
272.8734, 2272.516
273.3556, 2368.565
273.8377, 2476.048
274.3198, 2602.187
274.8019, 2749.682
275.2840, 2916.193
275.7661, 3097.193
276.2483, 3291.903
276.7304, 3502.309
277.2125, 3729.790
277.6946, 3976.795
278.1768, 4223.572
278.6589, 4477.160
279.1410, 4719.183
279.6231, 4928.012
280.1052, 5113.615
280.5873, 5211.234
281.0695, 5184.976
281.5516, 5035.888
282.0337, 4792.655
282.5158, 4439.572
282.9979, 4027.773
283.4800, 3619.270
283.9622, 3212.152
284.4443, 2847.695
284.9264, 2543.291
285.4085, 2299.499
285.8906, 2101.237
286.3727, 1951.175
286.8549, 1836.946
287.3370, 1747.347
287.8191, 1681.960
288.3012, 1632.234
288.7833, 1596.854
289.2654, 1575.072
289.7476, 1564.268
290.2297, 1564.588
290.7118, 1574.696
291.1939, 1593.073
291.6760, 1619.805
292.1581, 1656.609
292.6403, 1705.077
293.1224, 1763.275
293.6045, 1828.305
294.0866, 1899.612
294.5687, 1978.061
295.0508, 2067.035
295.5330, 2164.559
296.0151, 2263.338
296.4972, 2367.393
296.9793, 2467.024
297.4614, 2549.932
297.9435, 2615.624
298.4257, 2651.211
298.9078, 2646.502
299.3899, 2604.650
299.8720, 2530.352
300.3541, 2419.581
300.8362, 2285.610
301.3184, 2133.610
301.8005, 1967.572
302.2826, 1810.509
302.7647, 1672.297
303.2469, 1551.597
303.7290, 1443.768
304.2111, 1349.220
304.6932, 1267.526
305.1753, 1202.630
305.6574, 1151.718
306.1396, 1110.780
306.6217, 1079.734
307.1038, 1056.063
307.5859, 1038.339
308.0680, 1026.664
308.5501, 1016.636
309.0323, 1006.108
309.5144, 994.8069
309.9965, 982.3556
310.4786, 970.7996
310.9607, 956.3187
311.4428, 935.7035
311.9250, 909.1064
312.4071, 878.9628
312.8892, 844.5677
313.3713, 808.8757
313.8534, 774.6833
314.3355, 741.6169
314.8177, 711.8763
315.2998, 687.3784
315.7819, 667.6415
316.2640, 649.4288
316.7461, 630.7281
317.2282, 613.5660
317.7104, 599.4015
318.1925, 589.9116
318.6746, 581.4513
319.1567, 572.8466
319.6388, 564.2938
320.1209, 556.5570
320.6031, 549.5905
321.0852, 543.7082
321.5673, 539.1478
322.0494, 536.4538
322.5315, 533.8917
323.0136, 531.1344
323.4958, 528.2916
323.9779, 525.5393
324.4600, 522.6180
324.9421, 520.0562
325.4242, 517.9222
325.9064, 516.0649
326.3885, 515.2861
326.8706, 516.6709
327.3527, 518.7553
327.8348, 520.0109
328.3170, 519.6549
328.7991, 519.2399
329.2812, 518.6586
329.7633, 517.8657
330.2454, 518.4128
330.7275, 521.8952
331.2097, 525.4044
331.6918, 526.8524
332.1739, 525.1163
332.6560, 523.0460
333.1381, 520.5931
333.6202, 517.9503
334.1024, 516.0580
334.5845, 514.4844
335.0666, 514.3138
335.5487, 516.5422
336.0308, 522.5124
336.5129, 526.8129
336.9951, 528.6924
337.4772, 529.2869
337.9593, 531.1056
338.4414, 534.5942
338.9235, 538.1066
339.4056, 541.3053
339.8878, 544.2624
340.3699, 545.2403
340.8520, 543.2767
341.3341, 541.1957
341.8162, 543.1623
342.2983, 549.5485
342.7805, 555.8409
343.2626, 560.8149
343.7447, 564.5547
344.2268, 566.8969
344.7089, 567.6216
345.1910, 568.3087
345.6732, 570.2172
346.1553, 573.3315
346.6374, 577.4498
347.1195, 582.6699
347.6016, 588.7651
348.0837, 596.1993
348.5659, 604.8718
349.0480, 611.9481
349.5301, 613.7065
350.0122, 612.4161
350.4944, 613.9363
350.9765, 619.3079
351.4586, 626.5120
351.9407, 633.5543
352.4228, 640.4290
352.9049, 647.0950
353.3871, 653.5284
353.8692, 659.7480
354.3513, 665.3763
354.8334, 670.3246
355.3155, 676.1066
355.7976, 685.6356
356.2798, 696.5564
356.7619, 705.1773
357.2440, 707.3307
357.7261, 708.6998
358.2082, 714.0081
358.6903, 722.6572
359.1725, 730.5631
359.6546, 734.3738
360.1367, 737.0074
360.6188, 741.1995
361.1009, 749.2738
361.5830, 756.2905
362.0652, 758.9882
362.5473, 758.9573
363.0294, 760.1158
363.5115, 765.7993
363.9936, 771.4778
364.4757, 774.7965
364.9579, 775.0925
365.4400, 774.5096
365.9221, 771.6747
366.4042, 768.7797
366.8863, 768.6011
367.3684, 776.6466
367.8506, 782.2802
368.3327, 781.8459
368.8148, 774.6365
369.2969, 769.6265
369.7790, 767.9152
370.2611, 767.6743
370.7433, 767.7119
371.2254, 768.4830
371.7075, 768.8435
372.1896, 769.0419
372.6717, 768.7814
373.1538, 766.2715
373.6360, 758.5562
374.1181, 753.3661
374.6002, 755.5733
375.0823, 768.5905
375.5645, 776.2858
376.0466, 776.5417
376.5287, 773.7338
377.0108, 775.1947
377.4929, 781.5916
377.9750, 788.9879
378.4572, 796.4233
378.9393, 803.8243
379.4214, 809.5645
379.9035, 813.0841
380.3856, 817.1233
380.8677, 825.3224
381.3499, 837.2687
381.8320, 847.1799
382.3141, 852.9336
382.7962, 857.0465
383.2783, 865.0680
383.7604, 876.8193
384.2426, 889.7852
384.7247, 901.8738
385.2068, 913.9515
385.6889, 928.6437
386.1710, 946.2121
386.6531, 966.1035
387.1353, 988.5126
387.6174, 1012.986
388.0995, 1038.461
388.5816, 1066.524
389.0637, 1094.376
389.5458, 1119.320
390.0280, 1141.575
390.5101, 1162.872
390.9922, 1185.474
391.4743, 1207.314
391.9564, 1226.666
392.4385, 1246.219
392.9207, 1258.952
393.4028, 1260.057
393.8849, 1251.226
394.3670, 1237.250
394.8491, 1220.818
395.3312, 1199.129
395.8134, 1169.835
396.2955, 1130.420
396.7776, 1089.528
397.2597, 1046.878
397.7418, 1004.873
398.2239, 966.3486
398.7061, 932.1910
399.1882, 901.4225
399.6703, 874.0762
400.1524, 850.1312
400.6346, 828.7101
401.1167, 809.8810
401.5988, 793.7403
402.0809, 780.6845
402.5630, 772.5692
403.0451, 763.7428
403.5273, 753.0707
404.0094, 741.7184
404.4915, 733.3815
404.9736, 728.9684
405.4557, 725.3153
405.9378, 721.1388
406.4200, 716.4086
406.9021, 711.3141
407.3842, 705.6859
407.8663, 700.2180
408.3484, 695.8362
408.8305, 692.5444
409.3127, 689.7962
409.7948, 687.5463
410.2769, 685.6943
410.7590, 684.2366
411.2411, 683.1809
411.7232, 681.7021
412.2054, 678.5628
412.6875, 674.4639
413.1696, 671.4105
413.6517, 669.6378
414.1338, 668.9355
414.6159, 669.4069
415.0981, 670.7936
415.5802, 672.4132
416.0623, 673.4196
416.5444, 674.7615
417.0265, 677.2623
417.5086, 680.9520
417.9908, 685.7272
418.4729, 694.4855
418.9550, 703.0621
419.4371, 706.6972
419.9192, 699.8625
420.4013, 693.0203
420.8835, 691.8434
421.3656, 694.3459
421.8477, 694.5215
422.3298, 689.2530
422.8119, 682.3566
423.2940, 675.2650
423.7762, 667.8861
424.2583, 661.2468
424.7404, 655.5552
425.2225, 650.7294
425.7047, 646.5011
426.1868, 643.0438
426.6689, 640.0346
427.1510, 637.5454
427.6331, 635.5320
428.1152, 633.3763
428.5974, 631.0491
429.0795, 628.5787
429.5616, 625.5859
430.0437, 621.4500
430.5258, 619.6337
431.0079, 620.8983
431.4901, 623.7855
431.9722, 625.7122
432.4543, 626.5709
432.9364, 627.4809
433.4185, 628.9931
433.9006, 630.8993
434.3828, 632.2604
434.8649, 633.0704
435.3470, 633.4288
435.8291, 632.5831
436.3112, 631.2579
436.7933, 631.9221
437.2755, 635.4283
437.7576, 640.3084
438.2397, 645.2825
438.7218, 650.1786
439.2039, 654.4020
439.6860, 656.8684
440.1682, 658.9527
440.6503, 662.3552
441.1324, 667.2767
441.6145, 671.5489
442.0966, 673.1337
442.5787, 673.6547
443.0609, 674.8507
443.5430, 676.8165
444.0251, 679.9728
444.5072, 685.4051
444.9893, 692.3542
445.4714, 698.1584
445.9536, 701.0184
446.4357, 703.6660
446.9178, 706.9663
447.3999, 710.3057
447.8820, 716.3817
448.3641, 728.8671
448.8463, 742.0916
449.3284, 749.5530
449.8105, 745.7966
450.2926, 746.2900
450.7747, 755.0002
451.2569, 770.4350
451.7390, 783.0328
452.2211, 792.3048
452.7032, 800.2523
453.1853, 807.8284
453.6674, 815.0642
454.1496, 822.1074
454.6317, 828.8405
455.1138, 835.7805
455.5959, 843.4984
456.0780, 852.0433
456.5602, 861.3791
457.0423, 872.1984
457.5244, 883.3304
458.0065, 892.1013
458.4886, 898.6613
458.9707, 905.4656
459.4529, 915.2532
459.9350, 926.1519
460.4171, 934.6577
460.8992, 939.7717
461.3813, 944.7713
461.8634, 951.5858
462.3456, 960.1385
462.8277, 970.1359
463.3098, 982.3509
463.7919, 995.3386
464.2740, 1009.015
464.7561, 1023.206
465.2383, 1036.036
465.7204, 1044.173
466.2025, 1052.637
466.6846, 1064.566
467.1667, 1082.724
467.6488, 1100.353
468.1310, 1116.406
468.6131, 1131.952
469.0952, 1149.144
469.5773, 1168.634
470.0594, 1188.529
470.5415, 1207.718
471.0237, 1226.320
471.5058, 1250.554
471.9879, 1282.581
472.4700, 1315.553
472.9521, 1342.929
473.4342, 1364.373
473.9164, 1389.887
474.3985, 1421.429
474.8806, 1455.800
475.3627, 1487.813
475.8448, 1517.723
476.3270, 1548.270
476.8091, 1579.698
477.2912, 1612.623
477.7733, 1648.233
478.2554, 1686.459
478.7375, 1726.290
479.2197, 1766.808
479.7018, 1808.686
480.1839, 1852.861
480.6660, 1900.232
481.1481, 1947.420
481.6302, 1991.081
482.1124, 2033.125
482.5945, 2076.782
483.0766, 2123.665
483.5587, 2172.213
484.0408, 2223.126
484.5229, 2275.951
485.0051, 2324.719
485.4872, 2361.967
485.9693, 2399.491
486.4514, 2444.283
486.9335, 2504.194
487.4156, 2558.304
487.8978, 2605.837
488.3799, 2647.820
488.8620, 2688.439
489.3441, 2731.281
489.8262, 2763.961
490.3083, 2782.621
490.7905, 2788.436
491.2726, 2790.993
491.7547, 2791.723
492.2368, 2782.417
492.7189, 2753.880
493.2010, 2708.284
493.6832, 2664.533
494.1653, 2625.535
494.6474, 2582.306
495.1295, 2520.885
495.6116, 2444.920
496.0938, 2364.932
496.5759, 2282.191
497.0580, 2199.625
497.5401, 2121.537
498.0222, 2047.053
498.5044, 1975.680
498.9865, 1905.781
499.4686, 1838.710
499.9507, 1775.140
500.4328, 1715.016
500.9149, 1659.288
501.3971, 1607.006
501.8792, 1559.307
502.3613, 1517.382
502.8434, 1484.199
503.3255, 1453.083
503.8076, 1421.675
504.2898, 1391.024
504.7719, 1366.380
505.2540, 1349.570
505.7361, 1336.111
506.2182, 1324.172
506.7003, 1313.771
507.1825, 1304.676
507.6646, 1295.961
508.1467, 1290.534
508.6288, 1293.042
509.1109, 1303.460
509.5930, 1313.128
510.0752, 1319.973
510.5573, 1325.729
511.0394, 1332.465
511.5215, 1340.544
512.0037, 1352.206
512.4858, 1370.505
512.9679, 1392.351
513.4500, 1413.094
513.9321, 1432.607
514.4142, 1453.546
514.8964, 1477.772
515.3785, 1504.484
515.8606, 1532.740
516.3427, 1563.721
516.8248, 1594.069
517.3069, 1620.673
517.7891, 1645.966
518.2712, 1674.587
518.7533, 1714.013
519.2354, 1750.048
519.7175, 1776.461
520.1996, 1793.619
520.6818, 1814.467
521.1639, 1843.269
521.6460, 1870.601
522.1281, 1891.319
522.6102, 1905.732
523.0923, 1912.803
523.5745, 1912.155
524.0566, 1904.673
524.5387, 1891.210
525.0208, 1871.739
525.5029, 1847.972
525.9850, 1820.151
526.4672, 1788.571
526.9493, 1752.972
527.4314, 1713.123
527.9135, 1670.555
528.3956, 1625.218
528.8777, 1577.114
529.3599, 1525.605
529.8420, 1469.849
530.3241, 1416.082
530.8062, 1367.311
531.2883, 1322.297
531.7704, 1280.878
532.2526, 1243.077
532.7347, 1207.549
533.2168, 1172.928
533.6989, 1140.205
534.1810, 1110.744
534.6631, 1085.836
535.1453, 1063.440
535.6274, 1043.878
536.1095, 1026.962
536.5916, 1010.755
537.0737, 995.6599
537.5558, 980.3732
538.0380, 963.5342
538.5201, 944.4402
539.0022, 927.4214
539.4843, 912.8740
539.9664, 900.5270
540.4485, 891.7129
540.9307, 885.8804
541.4128, 877.8737
541.8949, 864.8903
542.3770, 850.0056
542.8591, 837.3638
543.3412, 827.0626
543.8234, 818.7050
544.3055, 815.0471
544.7876, 811.4496
545.2697, 802.5099
545.7518, 787.2748
546.2339, 772.8826
546.7161, 762.5790
547.1982, 754.9014
547.6803, 748.3776
548.1624, 745.8790
548.6445, 740.6345
549.1266, 729.8177
549.6088, 715.9553
550.0909, 704.0291
550.5730, 694.1088
551.0551, 686.1489
551.5372, 681.1204
552.0193, 678.5045
552.5015, 672.8149
552.9836, 663.2714
553.4657, 653.4116
553.9478, 645.5889
554.4299, 639.6401
554.9120, 633.9924
555.3942, 628.6229
555.8763, 623.4151
556.3584, 618.2646
556.8405, 613.1830
557.3226, 608.1425
557.8047, 602.7596
558.2869, 597.9386
558.7690, 594.9419
559.2511, 593.1805
559.7332, 591.2054
560.2154, 588.2369
560.6975, 585.0059
561.1796, 581.7098
561.6617, 578.3668
562.1439, 575.4695
562.6260, 574.8960
563.1081, 573.4461
563.5902, 568.8890
564.0723, 557.6567
564.5544, 551.1813
565.0366, 551.4865
565.5187, 554.4889
566.0008, 554.5438
566.4829, 551.0728
566.9650, 547.7556
567.4471, 545.2180
567.9293, 543.4615
568.4114, 543.0458
568.8935, 543.8395
569.3756, 544.0969
569.8577, 542.2264
570.3398, 539.3604
570.8220, 537.7244
571.3041, 537.2850
571.7862, 536.7472
572.2683, 534.9281
572.7504, 532.6974
573.2325, 530.8254
573.7147, 529.3810
574.1968, 528.5940
574.6789, 529.2693
575.1610, 530.4159
575.6431, 530.7579
576.1252, 529.2822
576.6074, 527.9363
577.0895, 526.4772
577.5716, 525.3119
578.0537, 526.2083
578.5358, 530.1097
579.0179, 533.8917
579.5001, 536.3541
579.9822, 537.5634
580.4643, 538.1425
580.9464, 538.0179
581.4285, 537.7507
581.9106, 537.6148
582.3928, 537.7095
582.8749, 538.3641
583.3570, 539.6395
583.8391, 541.3784
584.3212, 544.0350
584.8033, 546.9539
585.2855, 548.9940
585.7676, 547.8785
586.2497, 547.8019
586.7318, 552.5231
587.2139, 560.0948
587.6960, 564.9440
588.1782, 563.2054
588.6603, 560.9130
589.1424, 559.7987
589.6245, 559.8525
590.1066, 561.2752
590.5887, 564.4332
591.0709, 568.3878
591.5530, 572.9105
592.0351, 578.2368
592.5172, 582.4149
592.9993, 585.4371
593.4814, 587.1638
593.9636, 585.9280
594.4457, 582.6978
594.9278, 583.2032
595.4099, 590.8287
595.8920, 599.2936
596.3741, 598.6705
596.8563, 592.2249
597.3384, 588.4328
597.8205, 593.6820
598.3026, 601.1118
598.7847, 607.0685
599.2668, 611.4550
599.7490, 614.3956
600.2311, 613.3910
600.7132, 612.9769
601.1953, 615.7687
601.6774, 622.8461
602.1595, 629.7889
602.6417, 637.6016
603.1238, 644.2526
603.6059, 647.3349
604.0880, 646.1259
604.5701, 645.4632
605.0522, 645.6953
605.5344, 647.0392
606.0165, 649.9065
606.4986, 654.2365
606.9807, 659.7188
607.4628, 667.1815
607.9449, 674.7864
608.4271, 679.4473
608.9092, 681.8179
609.3913, 684.2527
609.8735, 687.0040
610.3556, 691.1005
610.8377, 698.0199
611.3198, 707.9242
611.8019, 716.8392
612.2841, 723.2573
612.7662, 728.7133
613.2483, 733.9960
613.7304, 737.4935
614.2125, 744.4858
614.6946, 756.4398
615.1768, 770.3896
615.6589, 782.7476
616.1410, 793.3156
616.6231, 804.1312
617.1052, 814.8798
617.5873, 827.1525
618.0695, 845.2656
618.5516, 868.1418
619.0337, 889.3001
619.5158, 902.9779
619.9979, 915.1979
620.4800, 932.5938
620.9622, 954.9324
621.4443, 980.3539
621.9264, 1008.275
622.4085, 1038.766
622.8906, 1072.221
623.3727, 1108.563
623.8549, 1147.523
624.3370, 1190.281
624.8191, 1234.964
625.3012, 1279.570
625.7833, 1322.613
626.2654, 1369.949
626.7476, 1423.119
627.2297, 1478.504
627.7118, 1529.662
628.1939, 1576.334
628.6760, 1628.804
629.1581, 1690.183
629.6403, 1757.380
630.1224, 1829.079
630.6045, 1903.741
631.0866, 1975.506
631.5687, 2035.041
632.0508, 2095.471
632.5330, 2168.723
633.0151, 2253.155
633.4972, 2341.296
633.9793, 2432.604
634.4614, 2524.609
634.9435, 2616.723
635.4257, 2708.290
635.9078, 2798.647
636.3899, 2891.396
636.8720, 2979.800
637.3541, 3058.022
637.8362, 3127.107
638.3184, 3186.667
638.8005, 3238.328
639.2826, 3275.102
639.7647, 3287.873
640.2468, 3277.139
640.7289, 3246.514
641.2111, 3195.968
641.6932, 3128.067
642.1753, 3042.118
642.6574, 2940.332
643.1395, 2829.848
643.6216, 2706.736
644.1038, 2580.738
644.5859, 2454.191
645.0680, 2328.868
645.5501, 2209.132
646.0322, 2096.704
646.5143, 1990.831
646.9965, 1891.743
647.4786, 1798.509
647.9607, 1715.113
648.4428, 1641.693
648.9249, 1576.172
649.4070, 1514.995
649.8892, 1458.546
650.3713, 1412.656
650.8534, 1378.084
651.3355, 1348.424
651.8176, 1315.514
652.2997, 1282.377
652.7819, 1256.079
653.2640, 1239.550
653.7461, 1226.511
654.2282, 1212.438
654.7103, 1198.965
655.1924, 1188.569
655.6746, 1181.937
656.1567, 1178.371
656.6388, 1178.415
657.1209, 1181.479
657.6030, 1185.890
658.0851, 1191.793
658.5673, 1198.884
659.0494, 1207.035
659.5316, 1216.306
660.0137, 1226.315
660.4958, 1236.687
660.9779, 1250.898
661.4600, 1274.671
661.9421, 1303.474
662.4243, 1324.769
662.9064, 1338.409
663.3885, 1351.989
663.8706, 1371.927
664.3527, 1394.090
664.8348, 1414.398
665.3170, 1432.004
665.7991, 1448.556
666.2812, 1464.273
666.7633, 1479.355
667.2454, 1493.819
667.7275, 1504.381
668.2097, 1520.439
668.6918, 1545.778
669.1739, 1573.507
669.6560, 1592.987
670.1381, 1603.805
670.6202, 1610.689
671.1024, 1614.079
671.5845, 1615.075
672.0666, 1615.569
672.5487, 1615.386
673.0308, 1613.801
673.5129, 1611.963
673.9951, 1607.429
674.4772, 1597.983
674.9593, 1583.899
675.4414, 1566.686
675.9235, 1544.869
676.4056, 1521.912
676.8878, 1499.115
677.3699, 1476.356
677.8520, 1455.266
678.3341, 1437.227
678.8162, 1419.052
679.2983, 1399.092
679.7805, 1377.340
680.2626, 1354.721
680.7447, 1331.155
681.2268, 1308.115
681.7089, 1287.463
682.1910, 1268.597
682.6732, 1250.589
683.1553, 1233.336
683.6374, 1216.695
684.1195, 1201.806
684.6016, 1186.880
685.0837, 1169.216
685.5659, 1144.055
686.0480, 1122.066
686.5301, 1108.082
687.0122, 1098.110
687.4943, 1085.175
687.9764, 1068.004
688.4586, 1050.405
688.9407, 1032.349
689.4228, 1014.539
689.9049, 999.0663
690.3870, 985.8414
690.8691, 972.4429
691.3513, 956.8688
691.8334, 941.4193
692.3155, 931.3060
692.7976, 925.4395
693.2797, 918.4707
693.7618, 906.4332
694.2440, 892.9678
694.7261, 879.5692
695.2082, 866.6345
695.6903, 856.0386
696.1724, 852.0573
696.6545, 847.0460
697.1367, 836.9054
697.6188, 820.5536
698.1009, 807.0504
698.5830, 796.8232
699.0651, 788.6491
699.5472, 782.4016
700.0294, 777.6745
700.5115, 770.5018
700.9936, 760.2947
701.4757, 749.9959
701.9578, 743.1381
702.4399, 737.9777
702.9221, 731.6378
703.4042, 723.1315
703.8863, 714.2548
704.3684, 705.2896
704.8505, 696.7745
705.3326, 689.3964
705.8148, 684.4715
706.2969, 679.1006
706.7790, 673.0588
707.2611, 666.5704
707.7432, 659.9666
708.2253, 653.0761
708.7075, 647.0173
709.1896, 641.9708
709.6718, 638.0568
710.1539, 636.6929
710.6360, 637.0665
711.1181, 635.7469
711.6002, 629.3712
712.0823, 621.9805
712.5645, 616.7249
713.0466, 613.2670
713.5287, 610.4398
714.0108, 608.0043
714.4929, 605.8880
714.9750, 604.8215
715.4572, 604.5379
715.9393, 601.1538
716.4214, 592.4590
716.9035, 585.2503
717.3856, 583.6675
717.8677, 587.0649
718.3499, 588.6920
718.8320, 588.5648
719.3141, 586.9648
719.7962, 583.4105
720.2783, 578.8107
720.7604, 573.8433
721.2426, 568.5367
721.7247, 565.2907
722.2068, 567.4086
722.6889, 570.8460
723.1710, 572.5641
723.6531, 571.6734
724.1353, 570.1713
724.6174, 567.2608
725.0995, 564.7129
725.5816, 564.3091
726.0637, 566.4945
726.5458, 567.6231
727.0280, 567.0925
727.5101, 566.6266
727.9922, 569.1886
728.4743, 573.5787
728.9564, 576.2682
729.4385, 575.9821
729.9207, 574.8972
730.4028, 572.9980
730.8849, 571.9321
731.3670, 574.0288
731.8491, 583.6852
732.3312, 592.0665
732.8134, 597.1344
733.2955, 600.0840
733.7776, 602.3639
734.2597, 603.3293
734.7418, 605.8152
735.2239, 610.9305
735.7061, 617.2885
736.1882, 621.2617
736.6703, 623.2855
737.1524, 626.4757
737.6345, 632.5239
738.1166, 639.9714
738.5988, 647.4781
739.0809, 655.0747
739.5630, 662.8445
740.0451, 670.6061
740.5272, 678.8258
741.0093, 688.3600
741.4915, 698.7406
741.9736, 706.6368
742.4557, 711.0239
742.9378, 714.8911
743.4199, 719.4617
743.9020, 724.4211
744.3842, 727.6528
744.8663, 729.1772
745.3484, 730.3026
745.8305, 733.6683
746.3126, 736.2797
746.7947, 732.4681
747.2769, 722.8334
747.7590, 713.2306
748.2411, 707.9609
748.7232, 702.7643
749.2053, 694.5676
749.6874, 682.6444
750.1696, 672.0116
750.6517, 663.3594
751.1338, 655.1113
751.6159, 646.0702
752.0980, 636.0248
752.5801, 629.1780
753.0623, 625.8818
753.5444, 622.8372
754.0265, 616.6863
754.5086, 608.9044
754.9907, 601.9801
755.4728, 596.0382
755.9550, 592.2089
756.4371, 593.3248
756.9192, 595.4641
757.4013, 595.0480
757.8835, 589.7031
758.3656, 587.2386
758.8477, 589.8397
759.3298, 593.4285
759.8120, 594.4091
760.2941, 592.2717
760.7762, 591.9254
761.2583, 593.7496
761.7404, 596.8507
762.2225, 600.5623
762.7047, 604.7650
763.1868, 609.1636
763.6689, 613.7778
764.1510, 618.2845
764.6331, 623.3246
765.1152, 627.7343
765.5974, 630.1384
766.0795, 627.4525
766.5616, 627.3468
767.0437, 631.3708
767.5258, 637.1176
768.0079, 641.8479
768.4901, 645.4501
768.9722, 648.9443
769.4543, 652.4783
769.9364, 655.7550
770.4185, 658.0703
770.9006, 659.8032
771.3828, 661.9218
771.8649, 664.6138
772.3470, 667.8864
772.8291, 671.9403
773.3112, 676.5187
773.7933, 681.2669
774.2755, 688.4843
774.7576, 692.4996
775.2397, 690.8022
775.7218, 687.2233
776.2039, 688.5441
776.6860, 695.5411
777.1682, 700.1989
777.6503, 700.0980
778.1324, 698.7804
778.6145, 702.1508
779.0966, 708.8281
779.5787, 715.1925
780.0609, 720.4537
780.5430, 724.3981
781.0251, 725.6394
781.5072, 725.7073
781.9893, 727.3685
782.4714, 732.7693
782.9536, 737.7762
783.4357, 742.0865
783.9178, 745.6331
784.3999, 748.1049
784.8820, 749.4342
785.3641, 750.7409
785.8463, 752.0752
786.3284, 754.0339
786.8105, 757.9647
787.2926, 763.2504
787.7747, 768.3324
788.2568, 773.5019
788.7390, 777.1874
789.2211, 776.5947
789.7032, 774.0352
790.1853, 775.2977
790.6674, 784.4774
791.1495, 791.7056
791.6317, 795.0429
792.1138, 795.6602
792.5959, 795.8466
793.0780, 795.6180
793.5601, 796.3157
794.0422, 798.5595
794.5244, 801.7855
795.0065, 805.3937
795.4886, 809.4000
795.9707, 813.7285
796.4528, 819.4727
796.9349, 824.4155
797.4171, 826.6094
797.8992, 827.3945
798.3813, 830.3156
798.8634, 835.8151
799.3455, 842.6686
799.8276, 851.0682
800.3098, 860.1738
800.7919, 867.9828
801.2740, 874.6104
801.7561, 880.5785
802.2382, 885.7840
802.7203, 890.7113
803.2025, 896.0308
803.6846, 901.4906
804.1667, 906.5687
804.6488, 909.7089
805.1309, 913.9742
805.6130, 920.6490
806.0952, 928.9730
806.5773, 937.9402
807.0594, 947.9118
807.5416, 957.2690
808.0237, 965.8703
808.5058, 973.2991
808.9879, 977.4800
809.4700, 979.3762
809.9521, 983.0994
810.4343, 991.8580
810.9164, 1001.190
811.3985, 1007.113
811.8806, 1011.136
812.3627, 1016.433
812.8448, 1023.896
813.3270, 1032.903
813.8091, 1044.884
814.2912, 1057.319
814.7733, 1063.500
815.2554, 1062.662
815.7375, 1063.609
816.2197, 1069.073
816.7018, 1076.829
817.1839, 1083.666
817.6660, 1089.773
818.1481, 1095.420
818.6302, 1100.019
819.1124, 1105.073
819.5945, 1111.996
820.0766, 1119.763
820.5587, 1126.269
821.0408, 1129.797
821.5229, 1135.277
822.0051, 1144.339
822.4872, 1154.525
822.9693, 1161.349
823.4514, 1165.094
823.9335, 1168.319
824.4156, 1171.332
824.8978, 1175.077
825.3799, 1180.903
825.8620, 1188.169
826.3441, 1195.738
826.8262, 1203.151
827.3083, 1211.016
827.7905, 1220.715
828.2726, 1230.336
828.7547, 1235.549
829.2368, 1232.078
829.7189, 1245.308
830.2010, 1284.535
830.6832, 1325.631
831.1653, 1328.702
831.6474, 1306.438
832.1295, 1293.831
832.6116, 1301.426
833.0938, 1315.374
833.5759, 1330.115
834.0580, 1344.788
834.5401, 1358.387
835.0222, 1367.658
835.5043, 1381.121
835.9865, 1400.048
836.4686, 1421.581
836.9507, 1442.411
837.4328, 1462.647
837.9149, 1484.941
838.3970, 1509.823
838.8792, 1536.597
839.3613, 1565.120
839.8434, 1595.053
840.3255, 1625.217
840.8076, 1654.854
841.2897, 1687.244
841.7719, 1722.587
842.2540, 1761.584
842.7361, 1804.516
843.2182, 1851.558
843.7003, 1902.084
844.1824, 1955.804
844.6646, 2012.316
845.1467, 2070.680
845.6288, 2131.458
846.1109, 2194.731
846.5930, 2260.467
847.0751, 2334.251
847.5573, 2418.154
848.0394, 2512.693
848.5215, 2618.469
849.0036, 2735.488
849.4857, 2867.000
849.9678, 3011.624
850.4500, 3172.700
850.9321, 3351.524
851.4142, 3549.626
851.8963, 3768.202
852.3784, 4008.391
852.8605, 4289.051
853.3427, 4612.833
853.8248, 4987.508
854.3069, 5421.767
854.7890, 5914.965
855.2711, 6461.640
855.7532, 7054.173
856.2354, 7694.603
856.7175, 8388.460
857.1996, 9126.054
857.6818, 9879.912
858.1639, 10651.85
858.6460, 11445.22
859.1281, 12262.31
859.6102, 13112.90
860.0923, 14004.24
860.5745, 14951.05
861.0566, 15972.44
861.5387, 17069.22
862.0208, 18263.40
862.5029, 19560.57
862.9850, 20978.46
863.4672, 22544.32
863.9493, 24279.34
864.4314, 26142.96
864.9135, 28149.19
865.3956, 30283.23
865.8777, 32566.44
866.3599, 34993.21
866.8420, 37402.14
867.3241, 39861.20
867.8062, 42163.27
868.2883, 44377.01
868.7704, 46277.81
869.2526, 47495.09
869.7347, 48063.85
870.2168, 47697.80
870.6989, 46242.88
871.1810, 44024.84
871.6631, 41268.24
872.1453, 38015.86
872.6274, 34834.42
873.1095, 31805.23
873.5916, 28935.62
874.0737, 26294.93
874.5558, 23840.48
875.0380, 21477.80
875.5201, 19183.53
876.0022, 17027.32
876.4843, 15013.71
876.9664, 13180.05
877.4485, 11557.07
877.9307, 10143.23
878.4128, 8928.885
878.8949, 7913.621
879.3770, 7049.161
879.8591, 6321.612
880.3412, 5706.753
880.8234, 5177.151
881.3055, 4727.260
881.7876, 4331.598
882.2697, 3984.853
882.7518, 3678.822
883.2339, 3413.581
883.7161, 3186.753
884.1982, 2978.505
884.6803, 2788.986
885.1624, 2617.631
885.6445, 2466.001
886.1266, 2331.655
886.6088, 2206.261
887.0909, 2089.508
887.5730, 1982.852
888.0551, 1887.698
888.5372, 1800.617
889.0193, 1722.633
889.5015, 1651.719
889.9836, 1579.278
890.4657, 1500.429
890.9478, 1430.841
891.4299, 1374.866
891.9120, 1327.972
892.3942, 1281.588
892.8763, 1235.562
893.3584, 1191.101
893.8405, 1146.761
894.3226, 1106.277
894.8047, 1074.492
895.2869, 1047.645
895.7690, 1021.236
896.2511, 994.7800
896.7332, 968.3587
897.2153, 941.6246
897.6974, 916.2548
898.1796, 895.1379
898.6617, 877.5635
899.1438, 859.7639
899.6259, 841.1945
900.1080, 823.1508
900.5901, 806.6918
901.0723, 791.2846
901.5544, 776.1930
902.0365, 761.3872
902.5186, 747.6025
903.0007, 734.8315
903.4828, 723.3231
903.9650, 713.6985
904.4471, 705.5652
904.9292, 694.7631
905.4113, 681.3205
905.8935, 668.7382
906.3756, 657.7734
906.8577, 649.7542
907.3398, 649.5923
907.8220, 654.3787
908.3041, 652.8760
908.7862, 634.3383
909.2683, 618.8474
909.7504, 611.6364
910.2325, 609.4588
910.7147, 604.5857
911.1968, 597.0050
911.6789, 588.4547
912.1610, 579.3143
912.6431, 569.8750
913.1252, 559.5707
913.6074, 549.5074
914.0895, 541.5179
914.5716, 538.3371
915.0537, 533.4373
915.5358, 524.0920
916.0179, 514.3007
916.5001, 507.9958
916.9822, 505.4070
917.4643, 501.9391
917.9464, 497.3495
918.4285, 491.6639
918.9106, 483.9721
919.3928, 475.8097
919.8749, 469.1298
920.3570, 464.1810
920.8391, 459.1968
921.3212, 453.1570
921.8033, 447.5261
922.2855, 442.9591
922.7676, 439.3648
923.2497, 436.0988
923.7318, 433.1902
924.2139, 430.0141
924.6960, 426.1323
925.1782, 421.8810
925.6603, 417.8082
926.1424, 413.7535
926.6245, 409.3176
927.1066, 403.3382
927.5887, 398.3914
928.0709, 396.0290
928.5530, 394.2319
929.0351, 388.5473
929.5172, 378.6949
929.9993, 371.7628
930.4814, 369.5718
930.9636, 368.9839
931.4457, 366.8088
931.9278, 363.8295
932.4099, 361.1243
932.8920, 359.0713
933.3741, 356.9048
933.8563, 354.7130
934.3384, 352.1034
934.8205, 348.6717
935.3026, 344.3076
935.7847, 340.9312
936.2668, 338.5586
936.7490, 336.1929
937.2311, 332.9913
937.7132, 329.4362
938.1953, 326.4122
938.6774, 323.7186
939.1595, 320.2478
939.6417, 313.1955
940.1238, 308.4568
940.6059, 308.5491
941.0880, 311.5873
941.5701, 311.9784
942.0522, 309.7617
942.5344, 307.1123
943.0165, 304.5429
943.4986, 302.0906
943.9807, 299.9139
944.4628, 297.8318
944.9449, 295.5787
945.4271, 292.8995
945.9092, 290.3314
946.3913, 288.0267
946.8734, 285.6911
947.3555, 283.0040
947.8376, 280.0009
948.3198, 276.9707
948.8019, 273.9319
949.2840, 271.2064
949.7661, 269.1667
950.2482, 267.5190
950.7303, 265.9659
951.2125, 264.4918
951.6946, 263.5784
952.1767, 264.3305
952.6588, 263.8151
953.1409, 260.5050
953.6230, 255.4801
954.1052, 251.8345
954.5873, 249.5972
955.0695, 249.1001
955.5516, 251.8781
956.0337, 254.4440
956.5158, 253.9678
956.9979, 251.5559
957.4800, 248.9114
957.9622, 245.5912
958.4443, 243.3542
958.9264, 242.4594
959.4085, 242.3077
959.8906, 242.2757
960.3727, 242.4124
960.8549, 243.3006
961.3370, 245.0354
961.8191, 245.6516
962.3012, 242.2914
962.7833, 238.6337
963.2654, 237.7825
963.7476, 239.8709
964.2297, 240.0640
964.7118, 237.8044
965.1939, 235.5370
965.6760, 234.2374
966.1581, 233.6886
966.6403, 233.5385
967.1224, 233.7225
967.6045, 234.0418
968.0866, 234.6505
968.5687, 235.0972
969.0508, 235.6351
969.5330, 235.6967
970.0151, 234.1908
970.4972, 230.4665
970.9793, 228.8010
971.4614, 229.9915
971.9435, 231.3540
972.4257, 229.5566
972.9078, 226.2659
973.3899, 223.8264
973.8720, 222.5421
974.3541, 221.9332
974.8362, 222.4702
975.3184, 222.9722
975.8005, 222.8282
976.2826, 222.1776
976.7647, 222.2642
977.2468, 223.0732
977.7289, 223.0540
978.2111, 220.6682
978.6932, 218.1324
979.1753, 218.3233
979.6574, 220.0458
980.1395, 221.0341
980.6216, 220.5846
981.1038, 219.3796
981.5859, 216.9709
982.0680, 214.5442
982.5501, 213.6794
983.0322, 214.1510
983.5143, 214.5066
983.9965, 214.6183
984.4786, 214.3696
984.9607, 212.8134
985.4428, 211.5382
985.9249, 212.1497
986.4070, 214.7932
986.8892, 216.3014
987.3713, 216.4256
987.8534, 215.9602
988.3355, 214.9623
988.8176, 213.8118
989.2997, 213.7588
989.7819, 214.3020
990.2640, 213.8638
990.7461, 210.2588
991.2282, 207.9299
991.7103, 209.8864
992.1924, 213.4300
992.6746, 215.5273
993.1567, 216.1087
993.6388, 215.3706
994.1209, 213.0804
994.6030, 210.9865
995.0851, 210.9472
995.5673, 211.9134
996.0494, 212.6341
996.5315, 213.0201
997.0136, 213.1750
997.4957, 212.3927
997.9778, 212.3521
998.4600, 213.9547
998.9421, 216.4121
999.4242, 217.2194
999.9063, 216.5018
1000.388, 215.4695
1000.871, 214.2286
1001.353, 213.4420
1001.835, 214.7215
1002.317, 216.2852
1002.799, 215.7378
1003.281, 210.8301
1003.763, 208.6243
1004.245, 209.9543
1004.728, 211.9630
1005.210, 212.3991
1005.692, 211.7631
1006.174, 211.4716
1006.656, 211.5544
1007.138, 211.9517
1007.620, 213.5024
1008.102, 214.4550
1008.584, 213.0791
1009.067, 210.6962
1009.549, 210.7302
1010.031, 213.6238
1010.513, 215.1283
1010.995, 214.0592
1011.477, 212.5111
1011.959, 212.9302
1012.441, 214.5236
1012.924, 216.5202
1013.406, 219.1959
1013.888, 220.1591
1014.370, 217.9012
1014.852, 215.5313
1015.334, 214.6586
1015.816, 215.0385
1016.298, 215.1168
1016.780, 214.9660
1017.263, 215.1267
1017.745, 216.5944
1018.227, 217.7526
1018.709, 217.2251
1019.191, 215.7368
1019.673, 214.6716
1020.155, 214.0141
1020.637, 214.1797
1021.120, 215.5056
1021.602, 216.6122
1022.084, 214.8481
1022.566, 212.1912
1023.048, 212.9568
1023.530, 217.5258
1024.012, 221.1458
1024.494, 221.0877
1024.976, 220.4856
1025.458, 220.8196
1025.941, 221.5844
1026.423, 220.0944
1026.905, 216.5292
1027.387, 214.4862
1027.869, 215.8077
1028.351, 217.8712
1028.833, 218.4983
1029.316, 218.2867
1029.798, 217.9980
1030.280, 217.7775
1030.762, 217.2497
1031.244, 216.0241
1031.726, 215.4836
1032.208, 217.6744
1032.690, 221.1288
1033.172, 221.1898
1033.655, 218.4638
1034.137, 216.5038
1034.619, 218.0207
1035.101, 219.5850
1035.583, 219.7408
1036.065, 219.1726
1036.547, 219.2976
1037.029, 220.1731
1037.511, 219.8112
1037.994, 217.7015
1038.476, 215.4367
1038.958, 214.8675
1039.440, 214.8529
1039.922, 213.9369
1040.404, 211.7124
1040.886, 211.2701
1041.368, 213.7690
1041.851, 215.7295
1042.333, 215.5148
1042.815, 213.9138
1043.297, 212.6583
1043.779, 211.7712
1044.261, 211.3935
1044.743, 211.7803
1045.225, 212.3604
1045.708, 213.1020
1046.190, 213.8028
1046.672, 214.1837
1047.154, 214.1697
1047.636, 214.8272
1048.118, 216.2323
1048.600, 217.2053
1049.082, 216.4543
1049.564, 215.1312
1050.047, 214.5820
1050.529, 213.0024
1051.011, 213.4102
1051.493, 210.1618
1051.975, 207.7784
1052.457, 206.6961
1052.939, 206.8738
1053.421, 209.5587
1053.903, 213.2041
1054.386, 213.7812
1054.868, 210.1465
1055.350, 206.9581
1055.832, 206.8854
1056.314, 207.3210
1056.796, 206.8525
1057.278, 205.6095
1057.760, 204.5171
1058.243, 203.5846
1058.725, 203.2419
1059.207, 204.1453
1059.689, 204.9691
1060.171, 204.0938
1060.653, 202.5598
1061.135, 201.9710
1061.617, 203.5685
1062.099, 203.4185
1062.582, 200.9424
1063.064, 198.5293
1063.546, 198.7503
1064.028, 200.1337
1064.510, 199.5539
1064.992, 197.2661
1065.474, 195.0989
1065.956, 192.5697
1066.438, 192.0034
1066.921, 195.2005
1067.403, 199.3699
1067.885, 199.2372
1068.367, 195.3298
1068.849, 192.6788
1069.331, 192.0846
1069.813, 191.8074
1070.295, 190.1527
1070.778, 188.6068
1071.260, 188.6219
1071.742, 190.0915
1072.224, 190.7403
1072.706, 190.3636
1073.188, 190.4766
1073.670, 191.9450
1074.152, 193.5682
1074.635, 193.6408
1075.117, 192.7505
1075.599, 191.8923
1076.081, 191.7564
1076.563, 190.4079
1077.045, 186.8450
1077.527, 183.7054
1078.009, 183.2868
1078.491, 184.7731
1078.974, 184.7696
1079.456, 183.5921
1079.938, 182.8473
1080.420, 183.6386
1080.902, 184.6447
1081.384, 185.6967
1081.866, 186.4682
1082.348, 186.4284
1082.831, 185.5420
1083.313, 184.6272
1083.795, 183.7426
1084.277, 183.1935
1084.759, 183.4896
1085.241, 184.0425
1085.723, 184.6187
1086.205, 185.0656
1086.688, 184.4737
1087.170, 182.3189
1087.652, 180.8780
1088.134, 180.7988
1088.616, 181.3730
1089.098, 181.7226
1089.580, 181.9569
1090.062, 182.3964
1090.544, 183.2800
1091.026, 183.2604
1091.509, 181.1634
1091.991, 179.5529
1092.473, 179.9181
1092.955, 181.4936
1093.437, 181.1790
1093.919, 179.4926
1094.401, 178.6618
1094.883, 180.2525
1095.366, 181.6988
1095.848, 181.6309
1096.330, 181.0208
1096.812, 180.7902
1097.294, 180.9996
1097.776, 180.9797
1098.258, 180.7279
1098.740, 180.2754
1099.223, 179.1876
1099.705, 178.3138
1100.187, 178.7200
1100.669, 179.8601
1101.151, 180.1202
1101.633, 178.6098
1102.115, 179.0929
1102.597, 182.4648
1103.079, 185.6125
1103.562, 184.3261
1104.044, 181.1378
1104.526, 179.6305
1105.008, 180.0003
1105.490, 180.8715
1105.972, 183.1451
1106.454, 183.6893
1106.936, 180.9881
1107.418, 177.2714
1107.901, 177.1889
1108.383, 179.6269
1108.865, 181.4678
1109.347, 182.0040
1109.829, 182.3745
1110.311, 183.0854
1110.793, 183.7708
1111.275, 184.2698
1111.758, 184.5852
1112.240, 184.5898
1112.722, 184.3544
1113.204, 184.5889
1113.686, 185.7982
1114.168, 187.0783
1114.650, 187.9964
1115.132, 188.5060
1115.615, 188.5130
1116.097, 187.9282
1116.579, 187.3786
1117.061, 186.8274
1117.543, 186.8582
1118.025, 188.6176
1118.507, 190.5144
1118.989, 191.0721
1119.471, 190.4554
1119.953, 188.8557
1120.436, 185.2755
1120.918, 183.2702
1121.400, 183.2625
1121.882, 184.0207
1122.364, 184.6526
1122.846, 185.1185
1123.328, 185.3507
1123.810, 185.3516
1124.293, 185.1571
1124.775, 184.3220
1125.257, 183.9116
1125.739, 184.0556
1126.221, 184.7740
1126.703, 186.6373
1127.185, 189.0655
1127.667, 190.1064
1128.150, 189.4906
1128.632, 188.8462
1129.114, 188.8730
1129.596, 189.1630
1130.078, 189.7399
1130.560, 190.3375
1131.042, 190.0352
1131.524, 188.9491
1132.006, 187.7581
1132.489, 186.5655
1132.971, 185.6037
1133.453, 184.7112
1133.935, 184.4324
1134.417, 185.6935
1134.899, 188.3167
1135.381, 187.9355
1135.863, 184.5535
1136.346, 182.5030
1136.828, 184.3798
1137.310, 186.9349
1137.792, 187.4570
1138.274, 186.7677
1138.756, 185.8187
1139.238, 184.5628
1139.720, 183.6006
1140.203, 182.8571
1140.685, 182.8609
1141.167, 185.0566
1141.649, 187.2802
1142.131, 185.9527
1142.613, 182.7317
1143.095, 181.1558
1143.577, 182.9392
1144.059, 184.3611
1144.542, 185.2317
1145.024, 185.9265
1145.506, 187.0596
1145.988, 186.9781
1146.470, 187.8373
1146.952, 186.5551
1147.434, 185.4607
1147.916, 184.5837
1148.398, 184.6180
1148.881, 186.2021
1149.363, 187.7083
1149.845, 186.5699
1150.327, 183.7961
1150.809, 181.5815
1151.291, 180.1793
1151.773, 179.9052
1152.255, 182.3487
1152.738, 184.1021
1153.220, 183.9744
1153.702, 182.8472
1154.184, 182.3094
1154.666, 182.2810
1155.148, 182.6995
1155.630, 183.6486
1156.112, 183.7240
1156.594, 180.8261
1157.077, 178.2670
1157.559, 177.5437
1158.041, 178.4090
1158.523, 180.7067
1159.005, 184.0860
1159.487, 185.6153
1159.969, 184.0587
1160.451, 182.2929
1160.933, 182.0910
1161.416, 182.6409
1161.898, 183.5829
1162.380, 184.7879
1162.862, 184.9501
1163.344, 184.0971
1163.826, 182.7790
1164.308, 180.8023
1164.790, 179.3238
1165.273, 179.6194
1165.755, 180.6808
1166.237, 181.4924
1166.719, 182.0309
1167.201, 182.1415
1167.683, 181.8037
1168.165, 181.2997
1168.647, 180.5112
1169.130, 179.9361
1169.612, 180.1928
1170.094, 180.9068
1170.576, 181.5794
1171.058, 182.3794
1171.540, 182.1303
1172.022, 180.6150
1172.504, 179.7190
1172.986, 181.8274
1173.469, 184.3698
1173.951, 184.2106
1174.433, 182.3081
1174.915, 180.9930
1175.397, 180.7180
1175.879, 180.4079
1176.361, 180.0061
1176.843, 179.5721
1177.326, 178.9037
1177.808, 178.4035
1178.290, 178.6957
1178.772, 179.6284
1179.254, 180.5278
1179.736, 181.2240
1180.218, 182.2346
1180.700, 183.8708
1181.182, 184.9693
1181.665, 183.2382
1182.147, 180.7658
1182.629, 181.5156
1183.111, 184.9881
1183.593, 186.0892
1184.075, 182.4841
1184.557, 179.6581
1185.039, 178.5691
1185.521, 178.4561
1186.004, 178.3516
1186.486, 178.5309
1186.968, 179.9360
1187.450, 182.5407
1187.932, 183.6165
1188.414, 181.9968
1188.896, 179.8836
1189.378, 177.3428
1189.861, 175.4258
1190.343, 176.7931
1190.825, 179.6712
1191.307, 180.7179
1191.789, 179.3258
1192.271, 177.8237
1192.753, 176.0282
1193.235, 175.4842
1193.718, 177.0455
1194.200, 179.5484
1194.682, 181.3358
1195.164, 182.2530
1195.646, 181.8662
1196.128, 179.9450
1196.610, 177.4916
1197.092, 173.5054
1197.574, 171.1961
1198.057, 172.3694
1198.539, 175.3414
1199.021, 176.5432
1199.503, 176.5326
1199.985, 176.6265
1200.467, 177.3629
1200.949, 177.3605
1201.431, 175.8246
1201.913, 174.4800
1202.396, 174.2046
1202.878, 174.6506
1203.360, 175.1028
1203.842, 175.5143
1204.324, 175.7712
1204.806, 175.9256
1205.288, 175.6517
1205.770, 174.4897
1206.253, 173.6518
1206.735, 174.1335
1207.217, 175.2689
1207.699, 174.9174
1208.181, 173.6332
1208.663, 172.9161
1209.145, 173.7396
1209.627, 174.2660
1210.109, 174.2809
1210.592, 173.8807
1211.074, 172.9258
1211.556, 171.6772
1212.038, 171.0154
1212.520, 170.7756
1213.002, 170.5280
1213.484, 170.3451
1213.966, 169.7009
1214.448, 168.3116
1214.931, 166.9320
1215.413, 166.0523
1215.895, 165.6803
1216.377, 166.1987
1216.859, 167.2436
1217.341, 167.6672
1217.823, 166.2740
1218.305, 165.4217
1218.788, 165.6233
1219.270, 165.8506
1219.752, 165.1059
1220.234, 163.7584
1220.716, 162.4847
1221.198, 161.4261
1221.680, 161.0062
1222.162, 162.6615
1222.645, 162.8957
1223.127, 160.9982
1223.609, 158.5659
1224.091, 156.5698
1224.573, 155.3746
1225.055, 156.5155
1225.537, 159.3023
1226.019, 161.0113
1226.501, 160.1418
1226.984, 158.7719
1227.466, 156.6515
1227.948, 155.0778
1228.430, 155.7254
1228.912, 157.6398
1229.394, 159.7263
1229.876, 161.5756
1230.358, 161.7627
1230.841, 158.4840
1231.323, 156.3498
1231.805, 155.9348
1232.287, 156.2632
1232.769, 156.6859
1233.251, 156.9861
1233.733, 156.8395
1234.215, 156.2576
1234.698, 155.2273
1235.180, 152.8121
1235.662, 152.4011
1236.144, 154.7307
1236.626, 157.6798
1237.108, 159.9170
1237.590, 160.8154
1238.072, 158.3523
1238.554, 153.4985
1239.036, 151.7163
1239.519, 154.7734
1240.001, 156.0670
1240.483, 154.5067
1240.965, 152.4892
1241.447, 152.3318
1241.929, 153.0783
1242.411, 153.9592
1242.893, 154.8492
1243.376, 155.4386
1243.858, 155.6776
1244.340, 155.8316
1244.822, 155.9265
1245.304, 156.0197
1245.786, 156.4053
1246.268, 156.6153
1246.750, 155.8952
1247.233, 156.1515
1247.715, 154.4132
1248.197, 155.5451
1248.679, 155.8104
1249.161, 154.8443
1249.643, 153.7156
1250.125, 152.8380
1250.607, 152.6322
1251.089, 153.6758
1251.572, 155.6337
1252.054, 157.9265
1252.536, 160.5648
1253.018, 161.3182
1253.500, 159.7850
1253.982, 158.3318
1254.464, 159.1001
1254.946, 160.1179
1255.428, 160.4452
1255.911, 160.0506
1256.393, 158.4281
1256.875, 155.7861
1257.357, 154.0251
1257.839, 153.4069
1258.321, 153.5268
1258.803, 155.2219
1259.285, 156.2710
1259.768, 155.4905
1260.250, 153.8488
1260.732, 153.1699
1261.214, 153.2525
1261.696, 153.2197
1262.178, 152.9670
1262.660, 153.0372
1263.142, 154.2242
1263.625, 154.9973
1264.107, 154.6370
1264.589, 154.0726
1265.071, 155.2951
1265.553, 157.3981
1266.035, 157.8980
1266.517, 156.6170
1266.999, 155.6395
1267.481, 155.4499
1267.964, 156.1245
1268.446, 158.2782
1268.928, 159.9500
1269.410, 157.2496
1269.892, 152.7520
1270.374, 150.6379
1270.856, 151.1579
1271.338, 151.6200
1271.820, 151.3633
1272.303, 152.0640
1272.785, 154.3413
1273.267, 156.4868
1273.749, 155.7373
1274.231, 154.2292
1274.713, 154.9040
1275.195, 157.3976
1275.677, 157.7926
1276.160, 155.5911
1276.642, 153.3425
1277.124, 151.3501
1277.606, 150.4635
1278.088, 152.7273
1278.570, 155.3676
1279.052, 156.1684
1279.534, 155.3897
1280.016, 153.8562
1280.499, 151.5263
1280.981, 150.4645
1281.463, 150.9756
1281.945, 151.6266
1282.427, 151.1608
1282.909, 150.7737
1283.391, 151.3199
1283.873, 152.2766
1284.356, 152.7142
1284.838, 152.6961
1285.320, 152.6992
1285.802, 152.7569
1286.284, 152.3855
1286.766, 150.5430
1287.248, 149.2735
1287.730, 149.2519
1288.213, 149.9481
1288.695, 150.9730
1289.177, 152.0157
1289.659, 152.2083
1290.141, 151.5376
1290.623, 150.5450
1291.105, 148.7422
1291.587, 147.8084
1292.069, 148.2267
1292.552, 148.8733
1293.034, 147.9767
1293.516, 148.9068
1293.998, 147.4068
1294.480, 149.5708
1294.962, 150.7351
1295.444, 150.5303
1295.926, 149.8298
1296.408, 148.6154
1296.891, 147.6707
1297.373, 148.0091
1297.855, 148.6882
1298.337, 148.6820
1298.819, 148.3523
1299.301, 148.9509
1299.783, 150.6842
1300.265, 150.7488
1300.748, 148.9270
1301.230, 147.1814
1301.712, 146.9741
1302.194, 147.1550
1302.676, 147.2722
##END=



