##NAMES=Realgar
##RRUFFID=R100026
##IDEAL CHEMISTRY=AsS
##LOCALITY=Palomo mine, Castrovirreyna Province, Huancavelica Department, Peru
##OWNER=RRUFF
##SOURCE=Rob Woodside
##DESCRIPTION=Red prismatic crystals
##STATUS=The identification of this mineral has been confirmed by single-crystal X-ray diffraction.
##URL=rruff.info/R100026
91.53320, 9793.080
92.01532, 9685.699
92.49744, 9620.942
92.97955, 9764.078
93.46167, 9960.513
93.94379, 10053.34
94.42590, 10092.86
94.90802, 10107.85
95.39014, 10107.58
95.87225, 10094.45
96.35437, 10063.26
96.83649, 10011.84
97.31860, 9954.329
97.80072, 9903.834
98.28284, 9856.001
98.76495, 9801.800
99.24707, 9746.380
99.72919, 9683.326
100.2113, 9630.935
100.6934, 9591.129
101.1755, 9562.802
101.6577, 9544.608
102.1398, 9535.419
102.6219, 9535.176
103.1040, 9541.859
103.5861, 9559.379
104.0682, 9576.893
104.5504, 9589.979
105.0325, 9597.052
105.5146, 9596.848
105.9967, 9585.465
106.4788, 9557.673
106.9609, 9528.531
107.4431, 9492.514
107.9252, 9456.530
108.4073, 9430.306
108.8894, 9417.253
109.3715, 9414.030
109.8536, 9415.922
110.3358, 9423.849
110.8179, 9431.084
111.3000, 9432.265
111.7821, 9428.215
112.2642, 9427.287
112.7463, 9434.231
113.2285, 9445.196
113.7106, 9456.271
114.1927, 9466.604
114.6748, 9477.366
115.1569, 9490.319
115.6390, 9506.444
116.1212, 9522.407
116.6033, 9536.988
117.0854, 9550.972
117.5675, 9564.681
118.0496, 9577.973
118.5317, 9591.553
119.0139, 9608.662
119.4960, 9625.465
119.9781, 9650.870
120.4602, 9688.824
120.9423, 9736.437
121.4244, 9790.402
121.9066, 9850.074
122.3887, 9917.440
122.8708, 9960.679
123.3529, 9980.002
123.8350, 9982.325
124.3171, 9963.478
124.7993, 9926.624
125.2814, 9885.698
125.7635, 9853.226
126.2456, 9830.672
126.7277, 9816.661
127.2098, 9813.616
127.6920, 9817.975
128.1741, 9825.476
128.6562, 9834.785
129.1383, 9849.338
129.6204, 9875.269
130.1025, 9911.025
130.5847, 9950.736
131.0668, 9993.170
131.5489, 10037.92
132.0310, 10083.34
132.5131, 10128.79
132.9952, 10176.12
133.4774, 10226.28
133.9595, 10279.35
134.4416, 10335.33
134.9237, 10400.00
135.4058, 10477.76
135.8879, 10535.82
136.3701, 10560.23
136.8522, 10567.72
137.3343, 10560.87
137.8164, 10541.30
138.2985, 10518.81
138.7806, 10506.71
139.2628, 10493.14
139.7449, 10517.26
140.2270, 10583.53
140.7091, 10680.98
141.1912, 10820.83
141.6733, 11007.02
142.1555, 11204.95
142.6376, 11291.56
143.1197, 11192.14
143.6018, 11054.31
144.0839, 10850.88
144.5660, 10622.42
145.0482, 10428.39
145.5303, 10304.28
146.0124, 10244.13
146.4945, 10200.34
146.9766, 10171.17
147.4587, 10155.49
147.9409, 10153.78
148.4230, 10165.55
148.9051, 10188.71
149.3872, 10222.36
149.8693, 10268.32
150.3514, 10325.14
150.8336, 10396.13
151.3157, 10475.97
151.7978, 10564.27
152.2799, 10663.26
152.7620, 10758.12
153.2441, 10849.86
153.7263, 10929.74
154.2084, 10976.79
154.6905, 10974.38
155.1726, 10935.30
155.6547, 10883.17
156.1368, 10807.63
156.6190, 10738.61
157.1011, 10684.04
157.5832, 10645.89
158.0653, 10627.95
158.5474, 10627.42
159.0295, 10646.05
159.5117, 10707.42
159.9938, 10825.22
160.4759, 10980.29
160.9580, 11175.60
161.4401, 11403.01
161.9222, 11646.42
162.4044, 11898.43
162.8865, 12169.64
163.3686, 12392.02
163.8507, 12572.67
164.3328, 12705.38
164.8149, 12777.66
165.2971, 12793.98
165.7792, 12768.98
166.2613, 12714.55
166.7434, 12607.83
167.2255, 12542.08
167.7076, 12498.19
168.1898, 12499.84
168.6719, 12568.76
169.1540, 12707.94
169.6361, 12898.48
170.1182, 13120.55
170.6003, 13396.25
171.0825, 13646.79
171.5646, 13881.67
172.0467, 14084.14
172.5288, 14232.67
173.0109, 14319.81
173.4930, 14360.25
173.9752, 14359.93
174.4573, 14311.83
174.9394, 14281.18
175.4215, 14273.18
175.9036, 14296.27
176.3857, 14365.93
176.8679, 14481.70
177.3500, 14661.25
177.8321, 14906.98
178.3142, 15212.82
178.7963, 15601.25
179.2784, 16095.46
179.7606, 16693.29
180.2427, 17363.27
180.7248, 18247.34
181.2069, 19059.51
181.6890, 19624.37
182.1711, 19934.20
182.6533, 19898.31
183.1354, 19313.54
183.6175, 18102.99
184.0996, 16953.88
184.5817, 15913.94
185.0638, 15055.29
185.5460, 14463.33
186.0281, 14152.88
186.5102, 14043.44
186.9923, 14032.48
187.4744, 14122.49
187.9565, 14316.69
188.4387, 14611.20
188.9208, 14995.06
189.4029, 15488.38
189.8850, 16093.37
190.3671, 16747.86
190.8492, 17371.13
191.3314, 18132.05
191.8135, 18532.00
192.2956, 18569.33
192.7777, 18273.41
193.2598, 17587.72
193.7419, 16502.71
194.2241, 15179.44
194.7062, 14007.22
195.1883, 12960.94
195.6704, 12125.09
196.1525, 11558.62
196.6346, 11188.13
197.1168, 10943.42
197.5989, 10796.36
198.0810, 10735.93
198.5631, 10737.94
199.0452, 10827.39
199.5273, 10940.07
200.0095, 11092.26
200.4916, 11257.87
200.9737, 11398.98
201.4558, 11501.91
201.9379, 11564.25
202.4200, 11575.37
202.9022, 11524.04
203.3843, 11456.62
203.8664, 11377.90
204.3485, 11293.75
204.8306, 11218.38
205.3127, 11152.70
205.7949, 11107.08
206.2770, 11099.37
206.7591, 11136.43
207.2412, 11190.87
207.7233, 11249.79
208.2054, 11313.66
208.6876, 11384.75
209.1697, 11468.46
209.6518, 11556.84
210.1339, 11637.38
210.6160, 11707.64
211.0981, 11774.67
211.5803, 11845.38
212.0624, 11919.66
212.5445, 11988.38
213.0266, 12038.46
213.5087, 12087.13
213.9908, 12144.25
214.4730, 12207.94
214.9551, 12296.79
215.4372, 12418.15
215.9193, 12565.43
216.4014, 12790.04
216.8836, 13132.60
217.3657, 13549.28
217.8478, 14058.34
218.3299, 14664.73
218.8120, 15262.36
219.2941, 15754.59
219.7763, 16212.85
220.2584, 16307.08
220.7405, 15798.09
221.2226, 15042.68
221.7047, 14212.50
222.1868, 13364.84
222.6690, 12558.02
223.1511, 11886.64
223.6332, 11373.43
224.1153, 10951.11
224.5974, 10615.66
225.0795, 10348.97
225.5617, 10149.21
226.0438, 10012.85
226.5259, 9922.779
227.0080, 9851.469
227.4901, 9806.417
227.9722, 9769.559
228.4544, 9744.668
228.9365, 9723.739
229.4186, 9700.802
229.9007, 9674.261
230.3828, 9646.721
230.8649, 9623.111
231.3471, 9606.989
231.8292, 9589.076
232.3113, 9568.329
232.7934, 9546.565
233.2755, 9524.194
233.7576, 9501.694
234.2398, 9480.563
234.7219, 9463.720
235.2040, 9453.871
235.6861, 9443.793
236.1682, 9438.073
236.6503, 9429.691
237.1325, 9411.137
237.6146, 9380.740
238.0967, 9343.946
238.5788, 9308.416
239.0609, 9274.313
239.5430, 9241.877
240.0252, 9210.784
240.5073, 9181.719
240.9894, 9155.193
241.4715, 9131.220
241.9536, 9110.835
242.4357, 9096.228
242.9179, 9089.145
243.4000, 9080.498
243.8821, 9067.356
244.3642, 9053.297
244.8463, 9042.640
245.3284, 9036.315
245.8106, 9031.324
246.2927, 9023.519
246.7748, 9012.656
247.2569, 9004.959
247.7390, 9003.606
248.2211, 9004.902
248.7033, 9004.513
249.1854, 9001.718
249.6675, 8997.881
250.1496, 8994.472
250.6317, 8991.287
251.1138, 8986.854
251.5960, 8981.326
252.0781, 8974.171
252.5602, 8963.065
253.0423, 8946.854
253.5244, 8932.494
254.0065, 8928.044
254.4887, 8930.668
254.9708, 8933.198
255.4529, 8934.881
255.9350, 8935.112
256.4171, 8931.775
256.8992, 8923.686
257.3813, 8917.239
257.8635, 8919.466
258.3456, 8926.315
258.8277, 8931.120
259.3098, 8929.604
259.7919, 8926.374
260.2740, 8928.842
260.7562, 8938.323
261.2383, 8947.584
261.7204, 8952.865
262.2025, 8955.291
262.6846, 8955.481
263.1667, 8952.230
263.6489, 8948.440
264.1310, 8949.381
264.6131, 8956.693
265.0952, 8961.542
265.5773, 8956.101
266.0594, 8947.763
266.5416, 8943.497
267.0237, 8945.613
267.5058, 8951.350
267.9879, 8957.407
268.4700, 8963.874
268.9521, 8970.546
269.4343, 8976.382
269.9164, 8983.064
270.3985, 8992.443
270.8806, 9005.157
271.3627, 9018.848
271.8448, 9028.854
272.3270, 9033.171
272.8091, 9044.407
273.2912, 9077.281
273.7733, 9110.619
274.2554, 9129.957
274.7375, 9133.159
275.2197, 9130.593
275.7018, 9133.995
276.1839, 9144.507
276.6660, 9153.217
277.1481, 9159.619
277.6302, 9163.103
278.1124, 9158.943
278.5945, 9148.878
279.0766, 9143.607
279.5587, 9157.282
280.0408, 9192.968
280.5229, 9220.422
281.0051, 9228.413
281.4872, 9236.228
281.9693, 9252.656
282.4514, 9276.458
282.9335, 9301.125
283.4156, 9320.087
283.8978, 9333.120
284.3799, 9351.012
284.8620, 9374.707
285.3441, 9402.994
285.8262, 9433.953
286.3083, 9468.984
286.7905, 9511.167
287.2726, 9562.785
287.7547, 9623.411
288.2368, 9688.598
288.7189, 9761.345
289.2010, 9835.599
289.6832, 9910.034
290.1653, 9984.374
290.6474, 10060.83
291.1295, 10142.00
291.6116, 10223.08
292.0938, 10285.04
292.5759, 10334.89
293.0580, 10350.38
293.5401, 10324.34
294.0222, 10267.11
294.5043, 10185.86
294.9865, 10083.09
295.4686, 9967.221
295.9507, 9856.038
296.4328, 9738.135
296.9149, 9648.493
297.3970, 9595.641
297.8792, 9565.483
298.3613, 9548.604
298.8434, 9541.353
299.3255, 9542.169
299.8076, 9548.379
300.2897, 9559.025
300.7719, 9578.113
301.2540, 9607.346
301.7361, 9642.342
302.2182, 9680.355
302.7003, 9721.016
303.1824, 9766.447
303.6646, 9819.622
304.1467, 9881.169
304.6288, 9948.029
305.1109, 10018.67
305.5930, 10095.90
306.0751, 10184.54
306.5573, 10281.98
307.0394, 10380.42
307.5215, 10473.98
308.0036, 10563.64
308.4857, 10641.24
308.9678, 10711.63
309.4500, 10764.42
309.9321, 10802.90
310.4142, 10820.94
310.8963, 10809.43
311.3784, 10763.30
311.8605, 10681.63
312.3427, 10558.54
312.8248, 10351.30
313.3069, 10147.90
313.7890, 9947.457
314.2711, 9764.810
314.7532, 9616.111
315.2354, 9510.543
315.7175, 9441.387
316.1996, 9391.713
316.6817, 9366.879
317.1638, 9355.536
317.6459, 9356.587
318.1281, 9368.454
318.6102, 9391.304
319.0923, 9424.777
319.5744, 9465.590
320.0565, 9507.268
320.5386, 9544.163
321.0208, 9595.873
321.5029, 9665.684
321.9850, 9745.783
322.4671, 9835.005
322.9492, 9931.504
323.4313, 10029.56
323.9135, 10124.73
324.3956, 10217.30
324.8777, 10304.59
325.3598, 10395.39
325.8419, 10472.89
326.3240, 10527.25
326.8062, 10562.20
327.2883, 10589.11
327.7704, 10616.17
328.2525, 10643.26
328.7346, 10668.43
329.2167, 10675.74
329.6989, 10700.83
330.1810, 10746.12
330.6631, 10815.55
331.1452, 10911.01
331.6273, 11032.15
332.1094, 11184.71
332.5916, 11386.33
333.0737, 11639.29
333.5558, 11944.93
334.0379, 12320.01
334.5200, 12730.41
335.0021, 13151.68
335.4843, 13575.79
335.9664, 13984.86
336.4485, 14349.93
336.9306, 14672.36
337.4127, 14946.78
337.8948, 15138.08
338.3770, 15310.61
338.8591, 15497.19
339.3412, 15703.34
339.8233, 15917.88
340.3055, 16138.07
340.7876, 16366.19
341.2697, 16568.47
341.7518, 16753.73
342.2339, 16898.39
342.7160, 17003.38
343.1982, 17061.68
343.6803, 17057.46
344.1624, 16968.63
344.6445, 16810.62
345.1266, 16650.42
345.6087, 16438.12
346.0909, 16313.16
346.5730, 16300.02
347.0551, 16390.14
347.5372, 16571.56
348.0193, 16840.44
348.5014, 17200.30
348.9836, 17663.10
349.4657, 18231.08
349.9478, 18889.57
350.4299, 19689.05
350.9120, 20546.87
351.3941, 21457.52
351.8763, 22411.85
352.3584, 23265.47
352.8405, 23945.03
353.3226, 24460.76
353.8047, 24513.52
354.2868, 23939.59
354.7690, 22970.30
355.2511, 21639.74
355.7332, 20026.84
356.2153, 18437.78
356.6974, 17015.49
357.1795, 15766.15
357.6617, 14721.00
358.1438, 13911.36
358.6259, 13263.63
359.1080, 12781.42
359.5901, 12416.13
360.0722, 12097.40
360.5544, 11810.49
361.0365, 11548.44
361.5186, 11295.38
362.0007, 11050.73
362.4828, 10829.37
362.9649, 10636.17
363.4471, 10472.05
363.9292, 10335.10
364.4113, 10224.54
364.8934, 10144.01
365.3755, 10104.61
365.8576, 10100.91
366.3398, 10104.97
366.8219, 10116.09
367.3040, 10124.65
367.7861, 10125.72
368.2682, 10119.18
368.7503, 10092.84
369.2325, 10037.69
369.7146, 9960.640
370.1967, 9867.354
370.6788, 9754.484
371.1609, 9647.936
371.6430, 9567.385
372.1252, 9509.972
372.6073, 9467.416
373.0894, 9449.161
373.5715, 9437.374
374.0536, 9422.269
374.5357, 9403.125
375.0179, 9374.304
375.5000, 9331.970
375.9821, 9279.270
376.4642, 9223.094
376.9463, 9161.613
377.4284, 9101.886
377.9106, 9045.654
378.3927, 8993.280
378.8748, 8944.783
379.3569, 8899.958
379.8390, 8861.009
380.3211, 8832.228
380.8033, 8815.928
381.2854, 8796.915
381.7675, 8777.119
382.2496, 8752.267
382.7317, 8717.681
383.2138, 8673.754
383.6960, 8625.480
384.1781, 8575.978
384.6602, 8525.346
385.1423, 8472.301
385.6244, 8414.552
386.1065, 8357.236
386.5887, 8300.141
387.0708, 8245.146
387.5529, 8194.965
388.0350, 8150.753
388.5171, 8111.835
388.9992, 8076.463
389.4814, 8043.035
389.9635, 8016.775
390.4456, 8003.850
390.9277, 7993.932
391.4098, 7977.534
391.8919, 7954.165
392.3741, 7930.703
392.8562, 7914.306
393.3383, 7905.532
393.8204, 7899.625
394.3025, 7901.396
394.7846, 7900.936
395.2668, 7892.580
395.7489, 7879.745
396.2310, 7869.186
396.7131, 7864.991
397.1952, 7865.193
397.6773, 7862.867
398.1595, 7856.148
398.6416, 7849.826
399.1237, 7845.668
399.6058, 7841.407
400.0879, 7834.298
400.5700, 7824.018
401.0522, 7813.711
401.5343, 7807.741
402.0164, 7807.171
402.4985, 7804.635
402.9806, 7796.747
403.4627, 7789.798
403.9449, 7787.638
404.4270, 7788.693
404.9091, 7788.737
405.3912, 7785.172
405.8733, 7778.659
406.3554, 7771.128
406.8376, 7762.110
407.3197, 7753.031
407.8018, 7744.501
408.2839, 7736.183
408.7660, 7727.776
409.2481, 7719.093
409.7303, 7710.570
410.2124, 7701.491
410.6945, 7692.163
411.1766, 7687.503
411.6587, 7692.275
412.1408, 7697.243
412.6230, 7693.095
413.1051, 7680.977
413.5872, 7668.814
414.0693, 7659.250
414.5514, 7651.946
415.0335, 7646.464
415.5157, 7642.769
415.9978, 7641.212
416.4799, 7644.248
416.9620, 7649.152
417.4441, 7647.972
417.9262, 7637.477
418.4084, 7624.718
418.8905, 7610.593
419.3726, 7597.185
419.8547, 7591.318
420.3368, 7596.572
420.8189, 7606.114
421.3011, 7609.198
421.7832, 7605.095
422.2653, 7598.306
422.7474, 7588.334
423.2295, 7576.555
423.7116, 7562.218
424.1938, 7546.305
424.6759, 7533.703
425.1580, 7528.761
425.6401, 7530.958
426.1222, 7530.416
426.6043, 7522.004
427.0865, 7517.170
427.5686, 7523.376
428.0507, 7533.351
428.5328, 7535.958
429.0149, 7527.053
429.4970, 7512.897
429.9792, 7504.539
430.4613, 7505.024
430.9434, 7504.758
431.4255, 7505.103
431.9076, 7503.698
432.3897, 7498.567
432.8719, 7490.338
433.3540, 7480.942
433.8361, 7471.244
434.3182, 7461.899
434.8003, 7458.155
435.2824, 7466.490
435.7646, 7470.492
436.2467, 7464.376
436.7288, 7453.320
437.2109, 7442.128
437.6930, 7432.268
438.1751, 7423.981
438.6573, 7418.400
439.1394, 7415.850
439.6215, 7410.812
440.1036, 7398.008
440.5857, 7387.740
441.0678, 7389.144
441.5500, 7399.174
442.0321, 7406.172
442.5142, 7402.190
442.9963, 7392.292
443.4784, 7385.420
443.9605, 7381.806
444.4427, 7379.526
444.9248, 7378.745
445.4069, 7378.193
445.8890, 7375.377
446.3711, 7369.023
446.8532, 7363.716
447.3354, 7364.118
447.8175, 7367.176
448.2996, 7365.494
448.7817, 7356.940
449.2638, 7346.716
449.7459, 7340.308
450.2281, 7337.994
450.7102, 7335.988
451.1923, 7335.435
451.6744, 7333.997
452.1565, 7329.587
452.6386, 7322.952
453.1208, 7316.380
453.6029, 7310.976
454.0850, 7306.570
454.5671, 7302.722
455.0492, 7299.203
455.5313, 7296.645
456.0135, 7297.104
456.4956, 7297.181
456.9777, 7293.409
457.4598, 7285.875
457.9419, 7277.681
458.4240, 7271.510
458.9062, 7267.399
459.3883, 7265.654
459.8704, 7270.399
460.3525, 7272.893
460.8346, 7268.708
461.3167, 7262.153
461.7989, 7259.796
462.2810, 7264.225
462.7631, 7269.599
463.2452, 7265.370
463.7273, 7249.167
464.2094, 7237.448
464.6916, 7237.258
465.1737, 7237.241
465.6558, 7228.825
466.1379, 7214.349
466.6200, 7203.040
467.1021, 7202.003
467.5843, 7206.421
468.0664, 7206.716
468.5485, 7202.461
469.0306, 7197.146
469.5127, 7192.094
469.9948, 7187.021
470.4770, 7181.470
470.9591, 7175.255
471.4412, 7169.407
471.9233, 7163.773
472.4054, 7159.069
472.8875, 7157.350
473.3697, 7159.178
473.8518, 7161.345
474.3339, 7161.480
474.8160, 7159.357
475.2981, 7154.122
475.7802, 7143.864
476.2624, 7132.594
476.7445, 7119.826
477.2266, 7107.567
477.7087, 7100.058
478.1908, 7098.945
478.6729, 7101.237
479.1551, 7101.663
479.6372, 7099.537
480.1193, 7096.836
480.6014, 7094.549
481.0835, 7090.841
481.5656, 7082.964
482.0478, 7072.674
482.5299, 7064.710
483.0120, 7062.532
483.4941, 7064.421
483.9762, 7064.201
484.4583, 7062.281
484.9405, 7057.332
485.4226, 7045.360
485.9047, 7033.103
486.3868, 7026.971
486.8689, 7027.297
487.3510, 7027.820
487.8332, 7021.758
488.3153, 7011.018
488.7974, 7005.495
489.2795, 7007.663
489.7616, 7009.811
490.2437, 7007.153
490.7259, 7001.403
491.2080, 6994.305
491.6901, 6984.468
492.1722, 6976.719
492.6543, 6976.652
493.1364, 6981.567
493.6186, 6983.325
494.1007, 6979.445
494.5828, 6973.752
495.0649, 6970.877
495.5470, 6971.227
496.0291, 6969.253
496.5113, 6961.895
496.9934, 6954.875
497.4755, 6953.527
497.9576, 6955.209
498.4397, 6952.841
498.9218, 6942.902
499.4040, 6928.634
499.8861, 6917.282
500.3682, 6909.927
500.8503, 6903.868
501.3324, 6899.064
501.8145, 6895.371
502.2967, 6893.368
502.7788, 6892.444
503.2609, 6890.836
503.7430, 6887.021
504.2251, 6881.905
504.7072, 6879.676
505.1894, 6882.874
505.6715, 6883.047
506.1536, 6875.683
506.6357, 6866.090
507.1178, 6857.521
507.5999, 6850.601
508.0821, 6846.087
508.5642, 6847.592
509.0463, 6851.913
509.5284, 6847.813
510.0105, 6832.521
510.4926, 6818.567
510.9748, 6815.408
511.4569, 6818.734
511.9390, 6817.919
512.4211, 6810.246
512.9032, 6802.385
513.3853, 6796.415
513.8674, 6792.725
514.3495, 6793.594
514.8317, 6799.477
515.3138, 6804.361
515.7959, 6801.646
516.2780, 6790.612
516.7601, 6782.081
517.2422, 6778.960
517.7244, 6774.592
518.2065, 6764.926
518.6886, 6753.234
519.1707, 6744.423
519.6528, 6740.214
520.1349, 6738.422
520.6171, 6735.793
521.0992, 6731.969
521.5813, 6728.995
522.0634, 6729.521
522.5455, 6728.290
523.0276, 6723.326
523.5098, 6715.235
523.9919, 6704.612
524.4740, 6690.583
524.9561, 6677.241
525.4382, 6670.278
525.9203, 6669.771
526.4025, 6673.779
526.8846, 6685.772
527.3667, 6696.834
527.8488, 6696.874
528.3309, 6687.581
528.8130, 6679.613
529.2952, 6678.052
529.7773, 6677.599
530.2594, 6672.338
530.7415, 6663.438
531.2236, 6656.980
531.7057, 6656.140
532.1879, 6657.727
532.6700, 6655.305
533.1521, 6645.236
533.6342, 6639.630
534.1163, 6644.063
534.5984, 6648.487
535.0806, 6645.667
535.5627, 6636.974
536.0448, 6627.844
536.5269, 6621.632
537.0090, 6617.411
537.4911, 6612.559
537.9733, 6606.917
538.4554, 6600.826
538.9375, 6592.480
539.4196, 6585.203
539.9017, 6582.071
540.3839, 6582.266
540.8660, 6581.790
541.3481, 6577.969
541.8302, 6571.838
542.3123, 6565.883
542.7944, 6560.336
543.2766, 6552.875
543.7587, 6539.709
544.2408, 6526.773
544.7229, 6523.337
545.2050, 6530.515
545.6871, 6536.739
546.1693, 6539.107
546.6514, 6537.928
547.1335, 6531.313
547.6156, 6520.439
548.0977, 6512.290
548.5798, 6511.608
549.0620, 6515.870
549.5441, 6516.618
550.0262, 6510.783
550.5083, 6505.189
550.9904, 6498.460
551.4725, 6492.943
551.9547, 6490.914
552.4368, 6491.921
552.9189, 6493.806
553.4010, 6495.254
553.8831, 6496.019
554.3652, 6495.215
554.8474, 6493.149
555.3295, 6488.837
555.8116, 6477.858
556.2937, 6467.504
556.7758, 6465.362
557.2579, 6470.961
557.7401, 6473.497
558.2222, 6462.623
558.7043, 6446.230
559.1864, 6438.792
559.6685, 6440.758
560.1506, 6443.039
560.6328, 6441.455
561.1149, 6437.255
561.5970, 6433.146
562.0791, 6429.709
562.5612, 6424.525
563.0433, 6415.118
563.5255, 6405.271
564.0076, 6397.901
564.4897, 6393.081
564.9718, 6389.548
565.4539, 6386.537
565.9360, 6384.141
566.4182, 6383.104
566.9003, 6386.929
567.3824, 6385.395
567.8645, 6372.235
568.3466, 6358.959
568.8287, 6353.778
569.3109, 6355.405
569.7930, 6357.124
570.2751, 6354.861
570.7572, 6349.971
571.2393, 6344.787
571.7214, 6339.199
572.2036, 6334.908
572.6857, 6333.237
573.1678, 6332.273
573.6499, 6329.957
574.1320, 6326.327
574.6141, 6321.590
575.0963, 6314.040
575.5784, 6306.791
576.0605, 6302.627
576.5426, 6301.141
577.0247, 6300.875
577.5068, 6301.315
577.9890, 6301.832
578.4711, 6301.461
578.9532, 6301.347
579.4353, 6297.210
579.9174, 6283.178
580.3995, 6271.509
580.8817, 6271.136
581.3638, 6277.034
581.8459, 6278.523
582.3280, 6270.195
582.8101, 6258.422
583.2922, 6254.474
583.7744, 6259.102
584.2565, 6260.232
584.7386, 6254.061
585.2207, 6247.232
585.7029, 6245.128
586.1850, 6245.993
586.6671, 6245.365
587.1492, 6241.661
587.6313, 6236.804
588.1135, 6232.485
588.5956, 6228.025
589.0777, 6221.271
589.5598, 6211.620
590.0419, 6201.775
590.5240, 6194.555
591.0062, 6190.055
591.4883, 6186.743
591.9704, 6186.673
592.4525, 6185.218
592.9346, 6181.620
593.4167, 6175.893
593.8989, 6166.702
594.3810, 6154.521
594.8631, 6143.594
595.3452, 6139.317
595.8273, 6140.957
596.3094, 6139.104
596.7916, 6131.587
597.2737, 6125.607
597.7558, 6127.686
598.2379, 6131.155
598.7200, 6128.024
599.2021, 6116.741
599.6843, 6105.789
600.1664, 6097.298
600.6485, 6092.700
601.1306, 6097.155
601.6127, 6109.540
602.0948, 6117.844
602.5770, 6114.736
603.0591, 6103.490
603.5412, 6092.873
604.0233, 6077.915
604.5054, 6072.394
604.9875, 6088.742
605.4697, 6103.452
605.9518, 6099.421
606.4339, 6080.979
606.9160, 6061.693
607.3981, 6048.751
607.8802, 6040.946
608.3624, 6036.481
608.8445, 6035.656
609.3266, 6036.540
609.8087, 6041.384
610.2908, 6044.579
610.7729, 6041.179
611.2551, 6032.922
611.7372, 6024.761
612.2193, 6017.095
612.7014, 6010.939
613.1835, 6007.903
613.6656, 6006.771
614.1478, 6004.786
614.6299, 6001.264
615.1120, 5997.578
615.5941, 5995.323
616.0762, 5994.480
616.5583, 5991.599
617.0405, 5983.506
617.5226, 5977.252
618.0047, 5975.773
618.4868, 5975.515
618.9689, 5972.904
619.4510, 5967.531
619.9332, 5961.578
620.4153, 5956.940
620.8974, 5953.208
621.3795, 5948.909
621.8616, 5944.019
622.3438, 5938.979
622.8259, 5933.958
623.3080, 5928.959
623.7901, 5923.890
624.2722, 5918.739
624.7543, 5914.164
625.2365, 5910.566
625.7186, 5907.419
626.2007, 5904.392
626.6828, 5901.445
627.1649, 5898.375
627.6470, 5895.037
628.1292, 5892.174
628.6113, 5891.029
629.0934, 5891.833
629.5755, 5893.125
630.0576, 5896.481
630.5397, 5898.467
631.0219, 5897.326
631.5040, 5894.421
631.9861, 5891.718
632.4682, 5889.796
632.9503, 5887.574
633.4324, 5883.589
633.9146, 5878.530
634.3967, 5874.779
634.8788, 5872.689
635.3609, 5871.027
635.8430, 5870.211
636.3251, 5868.725
636.8073, 5861.246
637.2894, 5843.422
637.7715, 5830.841
638.2536, 5828.322
638.7357, 5829.792
639.2178, 5833.008
639.7000, 5836.084
640.1821, 5834.731
640.6642, 5826.183
641.1463, 5815.668
641.6284, 5815.826
642.1105, 5830.250
642.5927, 5835.710
643.0748, 5825.636
643.5569, 5811.889
644.0390, 5798.111
644.5211, 5786.182
645.0032, 5780.969
645.4854, 5786.967
645.9675, 5791.666
646.4496, 5785.084
646.9317, 5771.952
647.4138, 5759.322
647.8959, 5748.659
648.3781, 5743.602
648.8602, 5748.076
649.3423, 5759.290
649.8244, 5763.807
650.3065, 5756.970
650.7886, 5750.171
651.2708, 5742.963
651.7529, 5736.632
652.2350, 5733.449
652.7171, 5731.931
653.1992, 5727.765
653.6813, 5718.006
654.1635, 5706.049
654.6456, 5696.862
655.1277, 5690.274
655.6098, 5684.211
656.0919, 5677.922
656.5740, 5673.130
657.0562, 5672.223
657.5383, 5674.481
658.0204, 5674.449
658.5025, 5669.580
658.9846, 5665.579
659.4667, 5664.956
659.9489, 5665.499
660.4310, 5665.986
660.9131, 5665.514
661.3952, 5661.416
661.8773, 5650.692
662.3594, 5636.842
662.8416, 5632.874
663.3237, 5643.003
663.8058, 5647.265
664.2879, 5636.894
664.7700, 5625.080
665.2521, 5622.231
665.7343, 5625.917
666.2164, 5627.508
666.6985, 5622.967
667.1806, 5617.828
667.6627, 5617.870
668.1448, 5619.616
668.6270, 5614.969
669.1091, 5602.849
669.5912, 5590.775
670.0733, 5585.328
670.5554, 5585.815
671.0375, 5587.451
671.5197, 5593.947
672.0018, 5595.233
672.4839, 5585.157
672.9660, 5574.306
673.4481, 5570.506
673.9302, 5572.571
674.4124, 5574.358
674.8945, 5572.493
675.3766, 5569.429
675.8587, 5569.635
676.3408, 5571.709
676.8229, 5567.933
677.3051, 5555.725
677.7872, 5543.425
678.2693, 5538.564
678.7514, 5540.521
679.2335, 5542.053
679.7156, 5546.022
680.1978, 5545.847
680.6799, 5537.676
681.1620, 5527.228
681.6441, 5517.774
682.1262, 5510.488
682.6083, 5507.180
683.0905, 5509.728
683.5726, 5514.998
684.0547, 5517.614
684.5368, 5517.552
685.0189, 5514.548
685.5010, 5507.651
685.9832, 5499.709
686.4653, 5491.688
686.9474, 5484.467
687.4295, 5482.185
687.9116, 5490.589
688.3937, 5496.197
688.8759, 5494.104
689.3580, 5488.072
689.8401, 5480.436
690.3222, 5472.427
690.8043, 5466.410
691.2864, 5464.206
691.7686, 5463.888
692.2507, 5460.478
692.7328, 5453.390
693.2149, 5447.086
693.6970, 5442.218
694.1791, 5438.212
694.6613, 5434.496
695.1434, 5431.320
695.6255, 5429.606
696.1076, 5431.034
696.5897, 5430.719
697.0718, 5424.642
697.5540, 5416.601
698.0361, 5411.054
698.5182, 5408.236
699.0003, 5406.394
699.4824, 5404.515
699.9645, 5402.594
700.4467, 5400.679
700.9288, 5398.846
701.4109, 5396.845
701.8930, 5395.285
702.3751, 5392.771
702.8572, 5388.672
703.3394, 5383.292
703.8215, 5376.776
704.3036, 5368.710
704.7857, 5361.568
705.2678, 5356.383
705.7499, 5353.268
706.2321, 5354.279
706.7142, 5358.198
707.1963, 5358.677
707.6784, 5352.164
708.1605, 5341.752
708.6426, 5333.102
709.1248, 5325.553
709.6069, 5322.221
710.0890, 5327.706
710.5711, 5332.008
711.0532, 5331.245
711.5353, 5327.576
712.0175, 5323.960
712.4996, 5320.993
712.9817, 5316.958
713.4638, 5308.497
713.9459, 5299.612
714.4280, 5297.175
714.9102, 5300.073
715.3923, 5301.983
715.8744, 5300.356
716.3565, 5295.591
716.8386, 5287.580
717.3207, 5275.356
717.8029, 5267.124
718.2850, 5264.975
718.7671, 5264.498
719.2492, 5267.077
719.7313, 5269.345
720.2134, 5268.078
720.6956, 5262.925
721.1777, 5255.552
721.6598, 5243.229
722.1419, 5231.734
722.6240, 5231.317
723.1061, 5238.862
723.5883, 5241.174
724.0704, 5234.105
724.5525, 5225.097
725.0346, 5222.392
725.5167, 5225.708
725.9988, 5224.436
726.4810, 5213.105
726.9631, 5205.054
727.4452, 5204.461
727.9273, 5205.421
728.4094, 5203.565
728.8915, 5199.095
729.3737, 5194.327
729.8558, 5189.696
730.3379, 5186.284
730.8200, 5186.245
731.3021, 5188.281
731.7842, 5189.556
732.2664, 5189.516
732.7485, 5185.634
733.2306, 5175.090
733.7127, 5160.286
734.1948, 5150.805
734.6769, 5149.720
735.1591, 5148.491
735.6412, 5149.492
736.1233, 5147.700
736.6054, 5137.155
737.0875, 5122.812
737.5696, 5114.131
738.0518, 5114.541
738.5339, 5117.986
739.0160, 5121.464
739.4981, 5123.951
739.9802, 5122.743
740.4623, 5118.131
740.9445, 5114.027
741.4266, 5112.438
741.9087, 5112.197
742.3908, 5111.650
742.8729, 5111.767
743.3550, 5107.194
743.8372, 5091.031
744.3193, 5078.449
744.8014, 5077.398
745.2835, 5079.695
745.7656, 5075.059
746.2477, 5062.566
746.7299, 5052.385
747.2120, 5052.125
747.6941, 5055.540
748.1762, 5056.250
748.6583, 5054.586
749.1404, 5051.592
749.6226, 5047.614
750.1047, 5043.431
750.5868, 5039.937
751.0689, 5037.001
751.5510, 5032.852
752.0331, 5026.781
752.5153, 5020.884
752.9974, 5014.504
753.4795, 5009.209
753.9616, 5006.502
754.4437, 5005.728
754.9258, 5004.877
755.4080, 5003.600
755.8901, 5001.498
756.3722, 4997.956
756.8543, 4993.552
757.3364, 4988.685
757.8185, 4983.710
758.3007, 4979.892
758.7828, 4978.126
759.2649, 4977.289
759.7470, 4974.728
760.2291, 4969.804
760.7112, 4966.252
761.1934, 4964.668
761.6755, 4963.698
762.1576, 4964.738
762.6397, 4965.089
763.1218, 4960.067
763.6039, 4948.445
764.0861, 4939.487
764.5682, 4938.476
765.0503, 4939.409
765.5324, 4937.722
766.0145, 4934.437
766.4966, 4932.134
766.9788, 4931.465
767.4609, 4931.086
767.9430, 4930.168
768.4251, 4928.146
768.9072, 4920.794
769.3893, 4906.226
769.8715, 4896.537
770.3536, 4896.688
770.8357, 4899.739
771.3178, 4899.431
771.7999, 4896.423
772.2820, 4894.116
772.7642, 4894.583
773.2463, 4893.189
773.7284, 4885.597
774.2105, 4878.005
774.6926, 4877.443
775.1747, 4881.966
775.6569, 4884.972
776.1390, 4883.290
776.6211, 4877.625
777.1032, 4865.977
777.5853, 4850.390
778.0674, 4843.787
778.5496, 4848.074
779.0317, 4852.808
779.5138, 4853.139
779.9959, 4850.665
780.4780, 4848.001
780.9601, 4845.054
781.4423, 4842.337
781.9244, 4839.346
782.4065, 4837.183
782.8886, 4838.948
783.3707, 4840.020
783.8528, 4833.611
784.3350, 4820.264
784.8171, 4809.018
785.2992, 4806.338
785.7813, 4807.443
786.2634, 4806.517
786.7455, 4804.101
787.2277, 4802.643
787.7098, 4802.560
788.1919, 4799.860
788.6740, 4790.575
789.1561, 4777.587
789.6382, 4771.667
790.1204, 4774.847
790.6025, 4780.267
791.0846, 4791.313
791.5667, 4800.447
792.0488, 4804.931
792.5309, 4805.259
793.0131, 4801.212
793.4952, 4791.943
793.9773, 4784.569
794.4594, 4785.193
794.9415, 4786.862
795.4236, 4782.099
795.9058, 4773.245
796.3879, 4766.828
796.8700, 4764.661
797.3521, 4762.728
797.8342, 4756.458
798.3163, 4746.960
798.7985, 4739.714
799.2806, 4734.523
799.7627, 4733.081
800.2448, 4738.518
800.7269, 4743.144
801.2090, 4739.153
801.6912, 4728.233
802.1733, 4720.289
802.6554, 4717.125
803.1375, 4714.041
803.6196, 4708.663
804.1017, 4704.455
804.5839, 4704.789
805.0660, 4708.154
805.5481, 4711.969
806.0302, 4715.337
806.5123, 4715.780
806.9944, 4708.534
807.4766, 4697.220
807.9587, 4691.305
808.4408, 4690.580
808.9229, 4688.041
809.4050, 4680.884
809.8871, 4673.019
810.3693, 4669.313
810.8514, 4669.730
811.3335, 4668.674
811.8156, 4666.507
812.2977, 4662.227
812.7798, 4653.681
813.2620, 4644.826
813.7441, 4637.146
814.2262, 4631.313
814.7083, 4628.854
815.1904, 4630.798
815.6725, 4634.498
816.1547, 4639.864
816.6368, 4645.204
817.1189, 4649.848
817.6010, 4652.671
818.0831, 4649.846
818.5652, 4639.887
819.0474, 4628.729
819.5295, 4624.745
820.0116, 4626.999
820.4937, 4626.596
820.9758, 4622.875
821.4579, 4620.681
821.9401, 4622.591
822.4222, 4624.759
822.9043, 4622.936
823.3864, 4617.269
823.8685, 4611.873
824.3506, 4608.123
824.8328, 4602.812
825.3149, 4592.854
825.7970, 4583.534
826.2791, 4578.778
826.7612, 4577.765
827.2433, 4578.413
827.7255, 4580.369
828.2076, 4580.825
828.6897, 4576.222
829.1718, 4569.191
829.6539, 4563.906
830.1360, 4560.358
830.6182, 4557.333
831.1003, 4554.389
831.5824, 4551.313
832.0645, 4547.939
832.5466, 4544.198
833.0287, 4539.325
833.5109, 4532.581
833.9930, 4526.670
834.4751, 4520.353
834.9572, 4517.159
835.4393, 4523.977
835.9214, 4536.263
836.4036, 4540.142
836.8857, 4529.932
837.3678, 4520.678
837.8499, 4515.990
838.3320, 4513.568
838.8141, 4513.551
839.2963, 4514.072
839.7784, 4511.499
840.2605, 4504.938
840.7426, 4498.616
841.2247, 4496.766
841.7068, 4497.522
842.1890, 4497.627
842.6711, 4497.056
843.1532, 4495.938
843.6353, 4494.347
844.1174, 4490.483
844.5995, 4481.758
845.0817, 4470.531
845.5638, 4468.920
846.0459, 4482.846
846.5280, 4489.527
847.0101, 4482.423
847.4922, 4474.146
847.9744, 4473.037
848.4565, 4474.024
848.9386, 4468.155
849.4207, 4453.345
849.9028, 4442.132
850.3849, 4438.679
850.8671, 4438.997
851.3492, 4444.609
851.8313, 4450.558
852.3134, 4448.773
852.7955, 4439.527
853.2776, 4431.837
853.7598, 4432.421
854.2419, 4436.227
854.7240, 4434.930
855.2061, 4430.067
855.6882, 4428.228
856.1703, 4430.160
856.6525, 4432.502
857.1346, 4433.657
857.6167, 4432.990
858.0988, 4429.095
858.5809, 4421.484
859.0630, 4413.393
859.5452, 4401.918
860.0273, 4395.212
860.5094, 4401.438
860.9915, 4409.028
861.4736, 4406.752
861.9557, 4396.144
862.4379, 4387.243
862.9200, 4382.275
863.4021, 4378.733
863.8842, 4376.778
864.3663, 4375.123
864.8484, 4372.934
865.3306, 4370.037
865.8127, 4365.738
866.2948, 4359.817
866.7769, 4354.986
867.2590, 4355.777
867.7411, 4358.820
868.2233, 4356.030
868.7054, 4348.471
869.1875, 4343.225
869.6696, 4342.319
870.1517, 4342.098
870.6339, 4339.046
871.1160, 4333.908
871.5981, 4329.940
872.0802, 4327.068
872.5623, 4325.698
873.0444, 4326.388
873.5266, 4327.831
874.0087, 4330.640
874.4908, 4333.163
874.9729, 4332.338
875.4550, 4327.788
875.9371, 4322.115
876.4193, 4314.830
876.9014, 4307.493
877.3835, 4300.068
877.8656, 4293.450
878.3477, 4288.397
878.8298, 4285.016
879.3120, 4283.332
879.7941, 4284.056
880.2762, 4284.608
880.7583, 4280.777
881.2404, 4275.821
881.7225, 4276.833
882.2047, 4282.835
882.6868, 4286.848
883.1689, 4285.851
883.6510, 4282.101
884.1331, 4277.841
884.6152, 4273.397
885.0974, 4271.888
885.5795, 4273.918
886.0616, 4275.017
886.5437, 4275.127
887.0258, 4271.422
887.5079, 4259.906
887.9901, 4243.123
888.4722, 4231.178
888.9543, 4226.149
889.4364, 4222.095
889.9185, 4218.825
890.4006, 4216.777
890.8828, 4217.798
891.3649, 4219.186
891.8470, 4216.992
892.3291, 4211.125
892.8112, 4206.466
893.2933, 4206.984
893.7755, 4207.022
894.2576, 4201.733
894.7397, 4194.761
895.2218, 4190.634
895.7039, 4189.332
896.1860, 4188.674
896.6682, 4187.609
897.1503, 4186.305
897.6324, 4184.879
898.1145, 4183.362
898.5966, 4181.984
899.0787, 4180.671
899.5609, 4179.046
900.0430, 4177.034
900.5251, 4173.530
901.0072, 4167.110
901.4893, 4158.624
901.9714, 4152.318
902.4536, 4148.405
902.9357, 4146.112
903.4178, 4146.782
903.8999, 4146.486
904.3820, 4141.489
904.8641, 4135.240
905.3463, 4134.668
905.8284, 4140.925
906.3105, 4143.397
906.7926, 4138.724
907.2747, 4133.624
907.7568, 4130.179
908.2390, 4127.196
908.7211, 4123.280
909.2032, 4118.837
909.6853, 4115.221
910.1674, 4112.889
910.6495, 4111.626
911.1317, 4112.216
911.6138, 4113.062
912.0959, 4111.783
912.5780, 4109.333
913.0601, 4109.155
913.5422, 4111.583
914.0244, 4111.336
914.5065, 4102.471
914.9886, 4090.297
915.4707, 4087.019
915.9528, 4091.123
916.4349, 4092.553
916.9171, 4089.891
917.3992, 4089.337
917.8813, 4094.927
918.3634, 4101.778
918.8455, 4101.350
919.3276, 4093.146
919.8098, 4086.395
920.2919, 4081.508
920.7740, 4077.099
921.2561, 4073.320
921.7382, 4069.334
922.2203, 4063.575
922.7025, 4057.041
923.1846, 4053.729
923.6667, 4056.820
924.1488, 4056.220
924.6309, 4045.935
925.1130, 4037.583
925.5952, 4038.823
926.0773, 4043.510
926.5594, 4044.122
927.0415, 4040.046
927.5236, 4035.297
928.0057, 4030.564
928.4879, 4027.093
928.9700, 4026.524
929.4521, 4027.071
929.9342, 4026.493
930.4163, 4025.108
930.8984, 4024.448
931.3806, 4025.070
931.8627, 4026.122
932.3448, 4027.577
932.8269, 4028.394
933.3090, 4025.581
933.7911, 4020.067
934.2733, 4016.280
934.7554, 4014.952
935.2375, 4012.546
935.7196, 4006.425
936.2017, 3999.050
936.6838, 3996.483
937.1660, 3999.142
937.6481, 3997.534
938.1302, 3990.291
938.6123, 3985.054
939.0944, 3985.250
939.5765, 3986.491
940.0587, 3984.335
940.5408, 3979.231
941.0229, 3974.430
941.5050, 3968.764
941.9871, 3965.553
942.4692, 3968.170
942.9514, 3969.506
943.4335, 3964.798
943.9156, 3958.312
944.3977, 3955.998
944.8798, 3958.095
945.3619, 3958.803
945.8441, 3956.464
946.3262, 3953.081
946.8083, 3948.293
947.2904, 3943.652
947.7725, 3940.407
948.2546, 3938.337
948.7368, 3936.941
949.2189, 3936.094
949.7010, 3934.772
950.1831, 3930.723
950.6652, 3927.332
951.1473, 3929.612
951.6295, 3934.399
952.1116, 3936.566
952.5937, 3935.129
953.0758, 3930.226
953.5579, 3921.585
954.0400, 3912.544
954.5222, 3908.333
955.0043, 3902.729
955.4864, 3898.522
955.9685, 3897.267
956.4506, 3893.791
956.9327, 3894.411
957.4149, 3895.551
957.8970, 3893.933
958.3791, 3890.614
958.8612, 3889.341
959.3433, 3890.418
959.8254, 3888.522
960.3076, 3882.566
960.7897, 3876.673
961.2718, 3872.127
961.7539, 3869.563
962.2360, 3870.480
962.7181, 3874.617
963.2003, 3875.835
963.6824, 3874.603
964.1645, 3869.238
964.6466, 3852.918
965.1287, 3840.759
965.6108, 3844.854
966.0930, 3856.284
966.5751, 3861.791
967.0572, 3860.516
967.5393, 3859.850
968.0214, 3862.098
968.5035, 3862.938
968.9857, 3861.586
969.4678, 3858.037
969.9499, 3850.569
970.4320, 3841.306
970.9141, 3834.263
971.3962, 3830.313
971.8784, 3829.377
972.3605, 3835.000
972.8426, 3839.809
973.3247, 3838.165
973.8068, 3833.032
974.2889, 3827.011
974.7711, 3821.405
975.2532, 3818.635
975.7353, 3820.316
976.2174, 3821.589
976.6995, 3817.295
977.1816, 3810.475
977.6638, 3804.726
978.1459, 3800.190
978.6280, 3796.773
979.1101, 3794.386
979.5922, 3793.076
980.0743, 3793.114
980.5565, 3793.197
981.0386, 3790.683
981.5207, 3786.467
982.0028, 3783.641
982.4849, 3782.341
982.9670, 3782.137
983.4492, 3782.895
983.9313, 3783.456
984.4134, 3782.727
984.8955, 3780.899
985.3776, 3778.494
985.8597, 3775.486
986.3419, 3771.919
986.8240, 3767.371
987.3061, 3765.183
987.7882, 3767.478
988.2703, 3770.580
988.7524, 3769.782
989.2346, 3765.576
989.7167, 3763.572
990.1988, 3765.001
990.6809, 3764.814
991.1630, 3761.976
991.6451, 3758.470
992.1273, 3754.360
992.6094, 3751.029
993.0915, 3751.578
993.5736, 3756.501
994.0557, 3756.342
994.5378, 3744.843
995.0200, 3737.489
995.5021, 3740.344
995.9842, 3742.786
996.4663, 3736.495
996.9484, 3727.152
997.4305, 3725.349
997.9127, 3732.650
998.3948, 3736.464
998.8769, 3731.443
999.3590, 3727.050
999.8411, 3726.608
1000.323, 3727.461
1000.805, 3728.681
1001.287, 3729.217
1001.770, 3727.198
1002.252, 3722.144
1002.734, 3716.336
1003.216, 3710.058
1003.698, 3704.117
1004.180, 3698.139
1004.662, 3693.427
1005.144, 3691.896
1005.627, 3692.867
1006.109, 3694.670
1006.591, 3696.836
1007.073, 3697.568
1007.555, 3694.344
1008.037, 3690.353
1008.519, 3689.164
1009.001, 3689.071
1009.483, 3687.125
1009.966, 3683.372
1010.448, 3679.496
1010.930, 3676.270
1011.412, 3673.876
1011.894, 3673.365
1012.376, 3673.231
1012.858, 3670.519
1013.340, 3666.343
1013.823, 3663.749
1014.305, 3663.050
1014.787, 3662.519
1015.269, 3661.181
1015.751, 3659.522
1016.233, 3657.769
1016.715, 3656.355
1017.197, 3657.303
1017.679, 3659.893
1018.162, 3660.466
1018.644, 3658.301
1019.126, 3654.845
1019.608, 3650.915
1020.090, 3647.437
1020.572, 3646.225
1021.054, 3647.004
1021.536, 3648.881
1022.018, 3651.646
1022.501, 3648.427
1022.983, 3637.074
1023.465, 3628.684
1023.947, 3631.967
1024.429, 3641.087
1024.911, 3643.556
1025.393, 3639.216
1025.875, 3634.992
1026.358, 3630.688
1026.840, 3628.864
1027.322, 3631.147
1027.804, 3631.101
1028.286, 3622.410
1028.768, 3610.300
1029.250, 3608.797
1029.732, 3619.789
1030.214, 3626.980
1030.697, 3630.034
1031.179, 3630.324
1031.661, 3627.997
1032.143, 3623.245
1032.625, 3615.075
1033.107, 3605.517
1033.589, 3600.629
1034.071, 3601.643
1034.553, 3601.660
1035.036, 3599.766
1035.518, 3598.860
1036.000, 3600.104
1036.482, 3601.969
1036.964, 3603.799
1037.446, 3605.147
1037.928, 3604.833
1038.410, 3603.350
1038.893, 3598.395
1039.375, 3585.760
1039.857, 3576.416
1040.339, 3573.401
1040.821, 3574.098
1041.303, 3578.676
1041.785, 3585.167
1042.267, 3587.723
1042.750, 3585.263
1043.232, 3582.510
1043.714, 3577.619
1044.196, 3574.960
1044.678, 3578.543
1045.160, 3581.824
1045.642, 3578.582
1046.124, 3571.617
1046.606, 3568.135
1047.089, 3569.597
1047.571, 3569.964
1048.053, 3569.673
1048.535, 3566.767
1049.017, 3557.663
1049.499, 3548.560
1049.981, 3543.942
1050.463, 3542.994
1050.945, 3544.131
1051.428, 3547.854
1051.910, 3549.320
1052.392, 3546.607
1052.874, 3542.944
1053.356, 3539.134
1053.838, 3535.000
1054.320, 3529.531
1054.802, 3523.924
1055.285, 3520.990
1055.767, 3521.456
1056.249, 3520.557
1056.731, 3514.845
1057.213, 3510.486
1057.695, 3510.691
1058.177, 3512.194
1058.659, 3512.968
1059.141, 3512.958
1059.624, 3512.514
1060.106, 3511.703
1060.588, 3510.159
1061.070, 3507.028
1061.552, 3504.150
1062.034, 3503.300
1062.516, 3502.001
1062.998, 3496.365
1063.480, 3489.768
1063.963, 3488.754
1064.445, 3494.079
1064.927, 3498.816
1065.409, 3502.546
1065.891, 3502.335
1066.373, 3493.576
1066.855, 3483.728
1067.337, 3477.778
1067.820, 3475.045
1068.302, 3474.191
1068.784, 3474.792
1069.266, 3475.878
1069.748, 3478.110
1070.230, 3478.965
1070.712, 3475.403
1071.194, 3471.989
1071.677, 3474.071
1072.159, 3477.427
1072.641, 3474.638
1073.123, 3466.107
1073.605, 3460.078
1074.087, 3460.709
1074.569, 3461.429
1075.051, 3459.703
1075.533, 3456.432
1076.016, 3448.915
1076.498, 3442.390
1076.980, 3446.718
1077.462, 3459.021
1077.944, 3463.212
1078.426, 3450.594
1078.908, 3441.478
1079.390, 3452.396
1079.873, 3462.013
1080.355, 3451.180
1080.837, 3434.865
1081.319, 3432.410
1081.801, 3441.068
1082.283, 3445.868
1082.765, 3442.007
1083.247, 3437.064
1083.729, 3435.121
1084.212, 3432.302
1084.694, 3424.048
1085.176, 3415.634
1085.658, 3412.973
1086.140, 3414.617
1086.622, 3416.079
1087.104, 3416.276
1087.586, 3416.454
1088.068, 3418.708
1088.551, 3419.069
1089.033, 3413.942
1089.515, 3407.559
1089.997, 3403.156
1090.479, 3400.502
1090.961, 3398.646
1091.443, 3397.388
1091.925, 3396.708
1092.408, 3398.904
1092.890, 3398.547
1093.372, 3389.997
1093.854, 3381.706
1094.336, 3381.398
1094.818, 3384.476
1095.300, 3383.226
1095.782, 3377.374
1096.265, 3373.049
1096.747, 3372.975
1097.229, 3372.772
1097.711, 3371.404
1098.193, 3369.016
1098.675, 3363.718
1099.157, 3358.832
1099.639, 3359.948
1100.121, 3365.260
1100.604, 3365.512
1101.086, 3356.258
1101.568, 3349.687
1102.050, 3350.519
1102.532, 3352.699
1103.014, 3355.424
1103.496, 3356.726
1103.978, 3354.460
1104.460, 3349.492
1104.943, 3343.802
1105.425, 3337.180
1105.907, 3332.719
1106.389, 3328.670
1106.871, 3329.988
1107.353, 3343.887
1107.835, 3357.815
1108.317, 3362.650
1108.800, 3361.836
1109.282, 3361.947
1109.764, 3363.574
1110.246, 3362.045
1110.728, 3355.046
1111.210, 3347.702
1111.692, 3341.088
1112.174, 3333.832
1112.656, 3322.761
1113.139, 3312.305
1113.621, 3308.913
1114.103, 3311.917
1114.585, 3313.284
1115.067, 3312.462
1115.549, 3310.882
1116.031, 3306.952
1116.513, 3304.595
1116.995, 3306.769
1117.478, 3309.155
1117.960, 3308.029
1118.442, 3304.076
1118.924, 3298.804
1119.406, 3290.070
1119.888, 3289.052
1120.370, 3301.394
1120.852, 3309.538
1121.335, 3308.212
1121.817, 3304.676
1122.299, 3303.657
1122.781, 3303.313
1123.263, 3300.091
1123.745, 3293.914
1124.227, 3288.437
1124.709, 3283.002
1125.192, 3281.104
1125.674, 3284.808
1126.156, 3286.565
1126.638, 3281.564
1127.120, 3276.459
1127.602, 3279.639
1128.084, 3289.176
1128.566, 3296.583
1129.048, 3302.435
1129.531, 3299.423
1130.013, 3285.675
1130.495, 3274.835
1130.977, 3271.485
1131.459, 3270.347
1131.941, 3267.281
1132.423, 3263.215
1132.905, 3259.855
1133.387, 3257.277
1133.870, 3256.782
1134.352, 3258.279
1134.834, 3258.637
1135.316, 3257.279
1135.798, 3256.500
1136.280, 3257.555
1136.762, 3259.561
1137.244, 3261.848
1137.727, 3263.729
1138.209, 3262.082
1138.691, 3258.152
1139.173, 3257.950
1139.655, 3261.356
1140.137, 3264.209
1140.619, 3264.940
1141.101, 3263.341
1141.583, 3258.898
1142.066, 3253.200
1142.548, 3247.518
1143.030, 3243.007
1143.512, 3243.750
1143.994, 3247.401
1144.476, 3246.290
1144.958, 3240.353
1145.440, 3237.253
1145.922, 3241.006
1146.405, 3246.092
1146.887, 3249.226
1147.369, 3249.171
1147.851, 3242.859
1148.333, 3233.492
1148.815, 3224.593
1149.297, 3217.292
1149.779, 3213.230
1150.262, 3212.610
1150.744, 3212.187
1151.226, 3209.829
1151.708, 3207.699
1152.190, 3206.611
1152.672, 3206.927
1153.154, 3209.468
1153.636, 3213.308
1154.119, 3219.048
1154.601, 3225.028
1155.083, 3224.309
1155.565, 3212.236
1156.047, 3203.215
1156.529, 3204.122
1157.011, 3206.256
1157.493, 3206.920
1157.975, 3206.188
1158.458, 3203.384
1158.940, 3199.605
1159.422, 3196.630
1159.904, 3194.518
1160.386, 3194.681
1160.868, 3200.848
1161.350, 3203.703
1161.832, 3199.815
1162.314, 3195.650
1162.797, 3193.898
1163.279, 3193.078
1163.761, 3191.639
1164.243, 3189.769
1164.725, 3188.389
1165.207, 3186.899
1165.689, 3186.587
1166.171, 3184.300
1166.654, 3182.585
1167.136, 3181.698
1167.618, 3182.270
1168.100, 3185.568
1168.582, 3188.467
1169.064, 3184.840
1169.546, 3175.844
1170.028, 3172.942
1170.510, 3176.326
1170.993, 3176.646
1171.475, 3172.831
1171.957, 3169.928
1172.439, 3169.786
1172.921, 3172.218
1173.403, 3177.602
1173.885, 3183.352
1174.367, 3183.964
1174.849, 3180.703
1175.332, 3177.638
1175.814, 3174.712
1176.296, 3170.279
1176.778, 3164.746
1177.260, 3162.558
1177.742, 3165.815
1178.224, 3168.706
1178.706, 3164.358
1179.189, 3158.046
1179.671, 3156.813
1180.153, 3157.907
1180.635, 3157.480
1181.117, 3155.867
1181.599, 3154.742
1182.081, 3154.358
1182.563, 3153.701
1183.046, 3152.259
1183.528, 3150.639
1184.010, 3150.167
1184.492, 3148.537
1184.974, 3142.919
1185.456, 3136.382
1185.938, 3131.262
1186.420, 3128.144
1186.902, 3128.284
1187.385, 3132.111
1187.867, 3133.943
1188.349, 3130.520
1188.831, 3128.236
1189.313, 3128.605
1189.795, 3129.917
1190.277, 3132.426
1190.759, 3134.548
1191.241, 3134.417
1191.724, 3132.574
1192.206, 3131.234
1192.688, 3130.625
1193.170, 3129.721
1193.652, 3129.389
1194.134, 3125.401
1194.616, 3115.132
1195.098, 3107.494
1195.581, 3108.166
1196.063, 3111.980
1196.545, 3111.884
1197.027, 3108.813
1197.509, 3106.968
1197.991, 3106.188
1198.473, 3103.119
1198.955, 3097.862
1199.438, 3094.282
1199.920, 3093.450
1200.402, 3094.713
1200.884, 3097.873
1201.366, 3100.332
1201.848, 3098.220
1202.330, 3093.278
1202.812, 3087.011
1203.294, 3081.329
1203.776, 3081.622
1204.259, 3085.956
1204.741, 3087.534
1205.223, 3084.644
1205.705, 3080.708
1206.187, 3077.077
1206.669, 3074.547
1207.151, 3075.234
1207.633, 3075.561
1208.116, 3069.886
1208.598, 3064.472
1209.080, 3068.661
1209.562, 3078.996
1210.044, 3085.540
1210.526, 3086.583
1211.008, 3083.288
1211.490, 3068.570
1211.973, 3060.523
1212.455, 3069.862
1212.937, 3077.152
1213.419, 3071.224
1213.901, 3062.267
1214.383, 3060.714
1214.865, 3064.199
1215.347, 3064.688
1215.829, 3061.718
1216.312, 3059.202
1216.794, 3057.705
1217.276, 3053.567
1217.758, 3045.621
1218.240, 3038.672
1218.722, 3035.048
1219.204, 3033.374
1219.686, 3032.079
1220.168, 3031.594
1220.651, 3033.798
1221.133, 3037.668
1221.615, 3039.451
1222.097, 3038.885
1222.579, 3033.888
1223.061, 3025.681
1223.543, 3022.697
1224.025, 3028.882
1224.508, 3036.735
1224.990, 3039.925
1225.472, 3041.267
1225.954, 3043.250
1226.436, 3045.157
1226.918, 3046.854
1227.400, 3047.469
1227.882, 3045.539
1228.365, 3041.171
1228.847, 3035.363
1229.329, 3027.482
1229.811, 3022.109
1230.293, 3023.512
1230.775, 3023.382
1231.257, 3016.398
1231.739, 3009.894
1232.221, 3009.224
1232.703, 3011.309
1233.186, 3012.942
1233.668, 3013.855
1234.150, 3011.812
1234.632, 3005.381
1235.114, 3002.076
1235.596, 3002.869
1236.078, 3002.395
1236.560, 2999.333
1237.043, 2995.363
1237.525, 2991.207
1238.007, 2988.325
1238.489, 2989.109
1238.971, 2991.785
1239.453, 2991.247
1239.935, 2988.472
1240.417, 2987.449
1240.900, 2987.257
1241.382, 2982.162
1241.864, 2972.677
1242.346, 2968.285
1242.828, 2973.785
1243.310, 2979.846
1243.792, 2978.480
1244.274, 2975.318
1244.756, 2974.560
1245.239, 2974.471
1245.721, 2972.642
1246.203, 2970.720
1246.685, 2972.930
1247.167, 2970.053
1247.649, 2967.366
1248.131, 2967.807
1248.613, 2961.094
1249.095, 2961.139
1249.578, 2961.213
1250.060, 2959.511
1250.542, 2958.760
1251.024, 2961.055
1251.506, 2963.918
1251.988, 2964.751
1252.470, 2963.350
1252.952, 2957.975
1253.435, 2948.413
1253.917, 2942.409
1254.399, 2940.079
1254.881, 2943.684
1255.363, 2952.955
1255.845, 2958.498
1256.327, 2956.019
1256.809, 2950.915
1257.292, 2947.892
1257.774, 2945.957
1258.256, 2942.141
1258.738, 2939.837
1259.220, 2946.764
1259.702, 2957.117
1260.184, 2960.801
1260.666, 2958.124
1261.148, 2954.472
1261.630, 2951.290
1262.113, 2948.866
1262.595, 2946.746
1263.077, 2946.215
1263.559, 2950.764
1264.041, 2953.130
1264.523, 2947.157
1265.005, 2939.967
1265.487, 2938.365
1265.970, 2939.749
1266.452, 2938.056
1266.934, 2933.235
1267.416, 2928.894
1267.898, 2924.715
1268.380, 2924.139
1268.862, 2927.751
1269.344, 2930.430
1269.827, 2930.527
1270.309, 2928.351
1270.791, 2923.950
1271.273, 2919.048
1271.755, 2915.688
1272.237, 2913.794
1272.719, 2913.644
1273.201, 2914.653
1273.683, 2916.257
1274.166, 2917.926
1274.648, 2919.522
1275.130, 2920.422
1275.612, 2917.277
1276.094, 2906.894
1276.576, 2900.945
1277.058, 2908.515
1277.540, 2915.194
1278.022, 2915.139
1278.505, 2912.663
1278.987, 2909.101
1279.469, 2905.926
1279.951, 2904.592
1280.433, 2905.084
1280.915, 2907.750
1281.397, 2913.488
1281.879, 2918.507
1282.362, 2923.095
1282.844, 2922.421
1283.326, 2915.606
1283.808, 2909.781
1284.290, 2907.712
1284.772, 2906.353
1285.254, 2901.772
1285.736, 2893.897
##END=



