##NAMES=Reddingite
##RRUFFID=R090058
##IDEAL CHEMISTRY=Mn^2+^_3_(PO_4_)_2_&#183;3H_2_O
##LOCALITY=Palermo #1, North Groton, New Hampshire, USA
##OWNER=RRUFF
##SOURCE=Royal Ontario Museum
##DESCRIPTION=Pale brown translucent pseudo-octahedral crystals associated with blue vivianite and colorless triphylite
##STATUS=The identification of this mineral is confirmed by single-crystal X-ray diffraction and chemical analysis.
##URL=rruff.info/R090058
##MEASURED CHEMISTRY=(Mn^+2^_1.46_Fe^+2^_1.32_Mg_0.19_Ca_0.03_)_Σ=3.00_(PO_4_)_2_·3H_2_O
91.82715, 121.9557
92.30927, 122.1860
92.79138, 122.2935
93.27350, 121.1860
93.75562, 119.4011
94.23773, 117.5411
94.71985, 115.7638
95.20197, 113.6485
95.68408, 110.9152
96.16620, 107.9979
96.64832, 105.3066
97.13043, 102.8849
97.61255, 100.7663
98.09467, 99.00119
98.57678, 97.60363
99.05890, 96.26626
99.54102, 95.55733
100.0231, 94.95339
100.5052, 93.81620
100.9874, 91.74092
101.4695, 88.99754
101.9516, 87.07570
102.4337, 86.72374
102.9158, 86.45448
103.3979, 86.15878
103.8801, 85.76451
104.3622, 85.17741
104.8443, 84.28664
105.3264, 83.02503
105.8085, 82.17223
106.2906, 81.98119
106.7728, 81.87265
107.2549, 81.48972
107.7370, 80.80966
108.2191, 80.08154
108.7012, 79.56767
109.1833, 79.27499
109.6655, 79.09416
110.1476, 79.10365
110.6297, 79.19360
111.1118, 79.18098
111.5939, 78.98753
112.0760, 78.77200
112.5582, 78.58682
113.0403, 78.43466
113.5224, 78.60969
114.0045, 79.51405
114.4866, 81.10362
114.9687, 82.38799
115.4509, 83.01934
115.9330, 83.36442
116.4151, 83.59946
116.8972, 83.75341
117.3793, 83.86064
117.8614, 83.94873
118.3436, 83.97251
118.8257, 84.09441
119.3078, 84.33029
119.7899, 84.65113
120.2720, 85.06977
120.7541, 85.58779
121.2363, 86.14619
121.7184, 86.58241
122.2005, 87.20980
122.6826, 87.30656
123.1647, 86.37257
123.6468, 84.94736
124.1290, 83.81398
124.6111, 83.43690
125.0932, 83.71280
125.5753, 83.76421
126.0574, 83.24709
126.5395, 82.89503
127.0217, 83.20295
127.5038, 84.04072
127.9859, 84.71684
128.4680, 84.64108
128.9501, 83.94366
129.4323, 83.55655
129.9144, 83.70107
130.3965, 84.06992
130.8786, 84.30659
131.3607, 84.34653
131.8428, 84.50880
132.3250, 85.23656
132.8071, 86.26372
133.2892, 87.09879
133.7713, 87.44582
134.2534, 87.42545
134.7355, 87.46493
135.2176, 87.64035
135.6998, 87.76915
136.1819, 87.80228
136.6640, 87.72987
137.1461, 87.53846
137.6282, 87.25121
138.1103, 86.88541
138.5925, 86.22353
139.0746, 85.29787
139.5567, 84.03090
140.0388, 82.17150
140.5209, 79.83948
141.0030, 77.44061
141.4852, 75.47130
141.9673, 74.13719
142.4494, 72.71807
142.9315, 70.93362
143.4136, 69.27084
143.8957, 68.05897
144.3779, 67.37856
144.8600, 67.04140
145.3421, 66.76768
145.8242, 66.65034
146.3063, 66.41499
146.7884, 66.01704
147.2706, 65.50572
147.7527, 64.87785
148.2348, 64.09435
148.7169, 63.33241
149.1990, 63.02990
149.6811, 63.29192
150.1633, 63.49322
150.6454, 63.30188
151.1275, 62.84492
151.6096, 62.54263
152.0917, 62.61770
152.5738, 62.86409
153.0560, 62.93535
153.5381, 62.78390
154.0202, 62.60553
154.5023, 62.58692
154.9844, 62.73778
155.4665, 62.82534
155.9487, 62.70391
156.4308, 62.50726
156.9129, 62.31880
157.3950, 62.14947
157.8771, 62.02936
158.3592, 61.98000
158.8414, 61.95301
159.3235, 62.14263
159.8056, 62.78828
160.2877, 63.54914
160.7698, 64.11482
161.2519, 64.34143
161.7341, 64.35063
162.2162, 64.50303
162.6983, 64.98159
163.1804, 65.36192
163.6625, 65.54926
164.1446, 65.62074
164.6268, 65.65714
165.1089, 65.70049
165.5910, 65.75869
166.0731, 65.88759
166.5552, 66.30800
167.0373, 66.56054
167.5195, 66.49304
168.0016, 66.18858
168.4837, 65.81287
168.9658, 65.47332
169.4479, 65.16010
169.9300, 64.77331
170.4122, 64.35328
170.8943, 63.84261
171.3764, 63.12878
171.8585, 62.26631
172.3406, 61.49313
172.8227, 61.03492
173.3049, 60.84347
173.7870, 60.42663
174.2691, 59.65526
174.7512, 58.74831
175.2333, 57.77059
175.7154, 56.71349
176.1976, 55.89099
176.6797, 55.66434
177.1618, 55.85925
177.6439, 56.07877
178.1260, 56.32084
178.6081, 56.51317
179.0903, 56.51619
179.5724, 56.26706
180.0545, 56.01226
180.5366, 55.93312
181.0187, 55.94917
181.5008, 55.93773
181.9830, 55.83419
182.4651, 55.66426
182.9472, 55.49003
183.4293, 55.24345
183.9114, 55.11415
184.3935, 55.22078
184.8757, 55.47646
185.3578, 55.73660
185.8399, 55.91233
186.3220, 56.00977
186.8041, 56.09576
187.2862, 56.29225
187.7684, 56.33306
188.2505, 56.12517
188.7326, 55.70583
189.2147, 55.13662
189.6968, 54.43338
190.1789, 53.58084
190.6611, 52.94817
191.1432, 52.68322
191.6253, 52.48779
192.1074, 52.29333
192.5895, 52.09274
193.0716, 51.90338
193.5538, 51.74581
194.0359, 51.62807
194.5180, 51.46452
195.0001, 51.38694
195.4822, 51.16300
195.9643, 50.49633
196.4465, 49.50581
196.9286, 48.68890
197.4107, 48.57227
197.8928, 49.29432
198.3749, 49.53946
198.8570, 48.89204
199.3392, 48.13414
199.8213, 47.79275
200.3034, 47.89781
200.7855, 48.13701
201.2676, 48.27308
201.7497, 48.28901
202.2319, 48.13044
202.7140, 47.48127
203.1961, 46.83760
203.6782, 46.78033
204.1603, 47.39565
204.6424, 48.03892
205.1246, 48.00633
205.6067, 47.46259
206.0888, 47.18262
206.5709, 47.50727
207.0530, 48.10622
207.5351, 48.49681
208.0173, 48.58595
208.4994, 48.70825
208.9815, 49.30030
209.4636, 50.13626
209.9457, 50.72340
210.4278, 50.67975
210.9100, 50.28975
211.3921, 50.22257
211.8742, 50.63702
212.3563, 51.05474
212.8384, 51.07299
213.3205, 50.89780
213.8027, 50.90869
214.2848, 51.30903
214.7669, 52.04316
215.2490, 52.97406
215.7311, 54.43858
216.2132, 55.54897
216.6953, 55.79094
217.1775, 55.49540
217.6596, 55.22640
218.1417, 55.32222
218.6238, 55.72638
219.1059, 56.11013
219.5880, 56.47065
220.0702, 56.80859
220.5523, 57.04142
221.0344, 57.26163
221.5165, 57.64397
221.9986, 58.34696
222.4807, 59.31055
222.9629, 59.96290
223.4450, 59.87458
223.9271, 59.90491
224.4092, 60.22321
224.8913, 60.78523
225.3734, 61.53603
225.8556, 62.48189
226.3377, 63.57097
226.8198, 64.25605
227.3019, 63.92188
227.7840, 63.81274
228.2661, 64.41798
228.7483, 65.41980
229.2304, 66.21827
229.7125, 66.40972
230.1946, 66.06559
230.6767, 65.96545
231.1588, 66.42966
231.6410, 66.76737
232.1231, 66.72402
232.6052, 66.43250
233.0873, 66.19789
233.5694, 66.23293
234.0515, 66.45551
234.5337, 66.23909
235.0158, 65.04894
235.4979, 64.09232
235.9800, 63.82066
236.4621, 64.05254
236.9442, 64.43159
237.4264, 64.82446
237.9085, 65.14964
238.3906, 65.01881
238.8727, 64.11653
239.3548, 63.21569
239.8369, 62.61752
240.3191, 62.22277
240.8012, 61.77294
241.2833, 61.10670
241.7654, 60.34388
242.2475, 59.84896
242.7296, 59.82132
243.2118, 59.69647
243.6939, 59.17825
244.1760, 58.36303
244.6581, 57.52815
245.1402, 56.76581
245.6223, 56.07577
246.1045, 55.46464
246.5866, 54.98958
247.0687, 54.43906
247.5508, 53.61252
248.0329, 52.60196
248.5150, 51.75599
248.9972, 51.28680
249.4793, 50.90872
249.9614, 50.10275
250.4435, 48.75507
250.9256, 47.68598
251.4077, 47.55286
251.8899, 48.14543
252.3720, 48.53759
252.8541, 48.48050
253.3362, 48.14348
253.8183, 47.70567
254.3004, 47.16745
254.7826, 46.64089
255.2647, 46.14981
255.7468, 45.71354
256.2289, 45.46791
256.7110, 45.60937
257.1931, 45.71535
257.6753, 45.33637
258.1574, 44.55838
258.6395, 43.93057
259.1216, 43.96564
259.6037, 44.51454
260.0858, 44.71192
260.5680, 44.24920
261.0501, 43.73117
261.5322, 43.46978
262.0143, 43.45153
262.4964, 43.62905
262.9785, 44.12595
263.4607, 44.85109
263.9428, 45.26339
264.4249, 45.22300
264.9070, 45.03942
265.3891, 44.84670
265.8712, 44.64357
266.3534, 44.41650
266.8355, 44.11422
267.3176, 43.78587
267.7997, 43.67637
268.2818, 44.02500
268.7639, 44.22101
269.2461, 44.03836
269.7282, 43.58937
270.2103, 43.00713
270.6924, 42.31310
271.1745, 41.58763
271.6566, 41.15047
272.1388, 41.31368
272.6209, 41.22990
273.1030, 40.56126
273.5851, 39.60738
274.0672, 38.69866
274.5493, 37.97491
275.0315, 37.39060
275.5136, 36.83689
275.9957, 36.28064
276.4778, 35.82500
276.9599, 35.52636
277.4420, 35.29600
277.9242, 35.07089
278.4063, 34.82649
278.8884, 34.54488
279.3705, 34.17189
279.8526, 33.62433
280.3347, 33.16985
280.8169, 32.94262
281.2990, 32.73449
281.7811, 32.32635
282.2632, 31.69116
282.7453, 31.06080
283.2274, 30.83228
283.7096, 31.28611
284.1917, 31.43622
284.6738, 31.01415
285.1559, 30.51647
285.6380, 30.26021
286.1201, 30.26297
286.6023, 30.30486
287.0844, 30.10834
287.5665, 29.57048
288.0486, 29.21191
288.5307, 29.07377
289.0128, 29.05960
289.4950, 29.30252
289.9771, 29.67699
290.4592, 29.81015
290.9413, 29.28030
291.4234, 27.99534
291.9055, 27.28994
292.3877, 27.75972
292.8698, 28.20307
293.3519, 28.18912
293.8340, 27.84079
294.3161, 27.49802
294.7982, 27.40934
295.2804, 27.54741
295.7625, 27.56181
296.2446, 27.19231
296.7267, 26.97759
297.2088, 26.90742
297.6909, 27.16225
298.1731, 27.33018
298.6552, 27.41585
299.1373, 27.17294
299.6194, 27.35432
300.1015, 27.36566
300.5836, 27.37003
301.0658, 27.61115
301.5479, 27.41603
302.0300, 27.65337
302.5121, 27.71808
302.9942, 27.86181
303.4763, 27.83444
303.9585, 27.85993
304.4406, 28.06373
304.9227, 28.45874
305.4048, 28.87284
305.8869, 29.20354
306.3690, 29.41611
306.8512, 29.50598
307.3333, 29.45132
307.8154, 29.16684
308.2975, 28.96119
308.7796, 28.86530
309.2617, 28.80729
309.7439, 28.75217
310.2260, 28.69337
310.7081, 28.63074
311.1902, 28.55243
311.6723, 28.43649
312.1544, 28.47365
312.6366, 28.89299
313.1187, 29.21957
313.6008, 29.20475
314.0829, 28.93602
314.5650, 28.65465
315.0471, 28.53771
315.5293, 28.57014
316.0114, 28.55386
316.4935, 28.48101
316.9756, 28.36766
317.4577, 28.12586
317.9398, 27.86445
318.4220, 27.77168
318.9041, 27.95068
319.3862, 28.29031
319.8683, 28.43803
320.3504, 28.21038
320.8326, 28.00329
321.3147, 27.89415
321.7968, 27.78709
322.2789, 27.59092
322.7610, 27.27621
323.2431, 26.86248
323.7253, 26.35528
324.2074, 25.50809
324.6895, 25.08304
325.1716, 25.39484
325.6537, 25.83101
326.1358, 26.02190
326.6180, 25.90143
327.1001, 25.57099
327.5822, 25.10213
328.0643, 24.42037
328.5464, 23.99253
329.0285, 23.95520
329.5107, 24.00204
329.9928, 24.01599
330.4749, 24.00613
330.9570, 24.04404
331.4391, 24.19585
331.9212, 24.44668
332.4034, 24.57304
332.8855, 24.58057
333.3676, 24.44587
333.8497, 23.94775
334.3318, 23.35719
334.8139, 23.09329
335.2961, 23.08177
335.7782, 22.98339
336.2603, 22.80276
336.7424, 22.29355
337.2245, 22.20865
337.7066, 21.95369
338.1888, 21.69173
338.6708, 21.82813
339.1530, 21.82579
339.6351, 21.78523
340.1172, 21.91787
340.5993, 22.35696
341.0814, 22.62456
341.5635, 22.66229
342.0457, 22.60201
342.5278, 22.49776
343.0099, 22.36081
343.4920, 22.17021
343.9741, 21.85391
344.4562, 21.38514
344.9384, 21.28959
345.4205, 22.18792
345.9026, 22.86447
346.3847, 22.82055
346.8668, 22.34129
347.3489, 21.97988
347.8311, 22.09563
348.3132, 22.53421
348.7953, 22.65674
349.2774, 22.16788
349.7595, 21.81852
350.2416, 21.82922
350.7238, 21.98889
351.2059, 22.09819
351.6880, 22.08823
352.1701, 22.00803
352.6522, 21.93411
353.1343, 21.86920
353.6165, 21.80219
354.0986, 21.72505
354.5807, 21.65070
355.0628, 21.53693
355.5449, 21.40907
356.0270, 21.38926
356.5092, 21.69308
356.9913, 22.34059
357.4734, 22.67083
357.9555, 22.38968
358.4376, 22.10111
358.9197, 22.10987
359.4019, 22.29570
359.8840, 22.38194
360.3661, 22.15197
360.8482, 21.75205
361.3303, 21.64262
361.8124, 21.93443
362.2946, 22.28066
362.7767, 22.65157
363.2588, 22.97143
363.7409, 23.13804
364.2230, 23.10862
364.7051, 23.00181
365.1873, 22.98223
365.6694, 23.06576
366.1515, 23.07990
366.6336, 22.83721
367.1157, 22.63830
367.5978, 22.76241
368.0800, 23.19677
368.5621, 23.61358
369.0442, 23.80294
369.5263, 23.78131
370.0084, 23.56721
370.4905, 22.98846
370.9727, 22.54037
371.4548, 22.58960
371.9369, 23.00525
372.4190, 23.52540
372.9011, 24.09485
373.3832, 24.68535
373.8654, 25.32355
374.3475, 26.03993
374.8296, 26.51571
375.3117, 26.47186
375.7938, 26.13366
376.2759, 25.79276
376.7581, 25.39126
377.2402, 25.20739
377.7223, 25.58938
378.2044, 26.40374
378.6865, 27.09364
379.1686, 27.55234
379.6508, 27.75492
380.1329, 27.50005
380.6150, 26.79638
381.0971, 26.43198
381.5792, 26.94919
382.0613, 27.83290
382.5435, 28.33281
383.0256, 28.35337
383.5077, 28.28995
383.9898, 28.47719
384.4719, 28.86469
384.9540, 29.07614
385.4362, 28.86264
385.9183, 28.68558
386.4004, 28.88942
386.8825, 29.37882
387.3646, 29.82672
387.8467, 30.07934
388.3289, 30.19377
388.8110, 30.30264
389.2931, 30.39425
389.7752, 30.50679
390.2573, 30.64668
390.7394, 30.81236
391.2216, 31.03688
391.7037, 31.32081
392.1858, 31.55356
392.6679, 31.40262
393.1500, 31.71398
393.6321, 31.93842
394.1143, 32.08064
394.5964, 31.89425
395.0785, 32.13216
395.5606, 32.20003
396.0427, 32.26092
396.5248, 32.55855
397.0070, 32.41997
397.4891, 32.71385
397.9712, 32.83508
398.4533, 33.03534
398.9354, 33.03004
399.4175, 32.86858
399.8997, 32.50354
400.3818, 31.97735
400.8639, 31.46333
401.3460, 31.24607
401.8281, 31.47732
402.3102, 31.58607
402.7924, 31.36059
403.2745, 31.09425
403.7566, 31.24288
404.2387, 31.30458
404.7208, 31.28405
405.2029, 30.93492
405.6851, 31.01009
406.1672, 30.91523
406.6493, 30.81339
407.1314, 31.14796
407.6135, 31.44895
408.0956, 31.76468
408.5778, 32.15145
409.0599, 32.63169
409.5420, 33.01151
410.0241, 32.82278
410.5062, 32.90172
410.9883, 32.89373
411.4705, 32.80349
411.9526, 32.38467
412.4347, 32.39016
412.9168, 32.22561
413.3989, 31.92961
413.8810, 31.66290
414.3632, 31.37621
414.8453, 31.05234
415.3274, 30.70175
415.8095, 30.28708
416.2916, 29.73981
416.7737, 29.13062
417.2559, 28.52777
417.7380, 27.89727
418.2201, 27.38407
418.7022, 27.18314
419.1843, 27.26350
419.6664, 27.34058
420.1486, 27.36530
420.6307, 27.30480
421.1128, 27.08380
421.5949, 26.70177
422.0770, 26.37358
422.5591, 26.22544
423.0413, 26.15376
423.5234, 26.05477
424.0055, 25.91918
424.4876, 25.63769
424.9697, 25.06345
425.4518, 25.10603
425.9340, 25.06167
426.4161, 24.93509
426.8982, 24.47992
427.3803, 24.13225
427.8624, 24.28088
428.3445, 24.25948
428.8267, 24.23111
429.3088, 24.43946
429.7909, 24.55965
430.2730, 24.56226
430.7551, 24.55790
431.2372, 24.79027
431.7194, 24.58642
432.2015, 24.81503
432.6836, 24.87101
433.1657, 25.00600
433.6478, 24.90457
434.1299, 24.65623
434.6121, 24.83220
435.0942, 24.83813
435.5763, 24.83707
436.0584, 25.07275
436.5405, 24.87221
437.0226, 25.49364
437.5048, 25.76397
437.9869, 25.95204
438.4690, 25.81151
438.9511, 26.09529
439.4332, 26.20902
439.9153, 26.31579
440.3975, 26.65931
440.8796, 26.56658
441.3617, 26.90632
441.8438, 27.07343
442.3259, 27.31953
442.8080, 27.39457
443.2902, 27.52246
443.7723, 28.01066
444.2544, 28.49203
444.7365, 28.83617
445.2186, 29.12193
445.7007, 29.40246
446.1829, 29.68635
446.6650, 29.98801
447.1471, 30.33806
447.6292, 30.72202
448.1113, 31.05591
448.5934, 31.30193
449.0756, 31.54386
449.5577, 31.91786
450.0398, 32.35752
450.5219, 32.64599
451.0040, 32.52797
451.4861, 32.37622
451.9683, 32.63567
452.4504, 33.23868
452.9325, 33.70206
453.4146, 33.77341
453.8967, 33.62471
454.3788, 33.61619
454.8610, 33.74187
455.3431, 33.97188
455.8252, 34.54198
456.3073, 35.08132
456.7894, 35.10361
457.2715, 34.58201
457.7537, 33.94724
458.2358, 33.54481
458.7179, 33.37474
459.2000, 33.39499
459.6821, 33.86897
460.1642, 34.19848
460.6464, 34.16868
461.1285, 33.91011
461.6106, 33.59742
462.0927, 33.29883
462.5748, 32.99333
463.0569, 32.60715
463.5391, 31.98657
464.0212, 31.71903
464.5033, 32.26519
464.9854, 32.71225
465.4675, 32.56414
465.9496, 31.95155
466.4318, 31.27661
466.9139, 30.77389
467.3960, 30.41998
467.8781, 30.13846
468.3602, 29.92193
468.8423, 29.79675
469.3245, 29.88831
469.8066, 30.00039
470.2887, 29.97678
470.7708, 29.79532
471.2529, 29.54109
471.7350, 29.20196
472.2172, 28.83189
472.6993, 28.70010
473.1814, 28.93646
473.6635, 29.09551
474.1456, 28.70871
474.6277, 28.01898
475.1099, 27.57602
475.5920, 27.59886
476.0741, 27.71836
476.5562, 27.66465
477.0383, 27.50047
477.5204, 27.45126
478.0026, 27.62701
478.4847, 27.79502
478.9668, 27.56640
479.4489, 26.80155
479.9310, 26.34205
480.4131, 26.56973
480.8953, 26.83324
481.3774, 26.64847
481.8595, 26.10065
482.3416, 25.53993
482.8237, 25.16236
483.3058, 24.94602
483.7880, 24.81419
484.2701, 24.81047
484.7522, 24.83706
485.2343, 24.98068
485.7164, 25.08832
486.1985, 25.03087
486.6807, 24.80546
487.1628, 24.48926
487.6449, 24.08214
488.1270, 23.61713
488.6091, 23.60916
489.0912, 24.55082
489.5734, 25.15649
490.0555, 24.87806
490.5376, 24.18210
491.0197, 23.52972
491.5018, 23.03826
491.9839, 22.73796
492.4661, 22.80279
492.9482, 23.16769
493.4303, 23.18985
493.9124, 22.58644
494.3945, 22.00286
494.8766, 22.09427
495.3588, 22.62595
495.8409, 22.98712
496.3230, 23.02579
496.8051, 22.84781
497.2872, 22.13099
497.7693, 22.29392
498.2515, 22.36992
498.7336, 22.36368
499.2157, 22.02886
499.6978, 22.11833
500.1799, 22.03777
500.6620, 21.95023
501.1442, 22.09942
501.6263, 21.81239
502.1084, 21.95782
502.5905, 21.93063
503.0726, 21.98244
503.5547, 21.86317
504.0368, 21.79674
504.5190, 21.90145
505.0011, 21.91140
505.4832, 21.77243
505.9653, 21.82926
506.4474, 21.53625
506.9295, 21.74836
507.4117, 22.04190
507.8938, 22.31426
508.3759, 22.36069
508.8580, 22.25254
509.3401, 22.45369
509.8222, 23.17127
510.3044, 23.74262
510.7865, 23.78613
511.2686, 23.64414
511.7507, 23.64665
512.2328, 23.86013
512.7150, 24.09817
513.1971, 24.22345
513.6792, 24.26484
514.1613, 24.27448
514.6434, 23.97451
515.1255, 24.18461
515.6077, 24.30779
516.0898, 24.34871
516.5719, 24.06106
517.0540, 24.19770
517.5361, 24.16430
518.0182, 24.12394
518.5004, 24.65314
518.9825, 24.89562
519.4646, 24.91793
519.9467, 24.90129
520.4288, 25.07512
520.9109, 25.48669
521.3931, 25.77063
521.8752, 25.92762
522.3573, 25.98200
522.8394, 25.87743
523.3215, 25.69459
523.8036, 25.53149
524.2858, 25.42975
524.7679, 25.39773
525.2500, 25.49071
525.7321, 25.76446
526.2142, 25.86851
526.6964, 25.46746
527.1785, 25.23787
527.6606, 25.68811
528.1427, 26.53053
528.6248, 27.09121
529.1069, 26.95569
529.5891, 26.63941
530.0712, 26.94558
530.5533, 27.82283
531.0354, 28.33460
531.5175, 28.04605
531.9996, 27.57686
532.4818, 27.75873
532.9639, 28.53042
533.4460, 29.14506
533.9281, 29.33438
534.4102, 29.41094
534.8923, 29.61158
535.3745, 29.91221
535.8566, 30.18394
536.3387, 30.35664
536.8208, 30.51665
537.3029, 30.85765
537.7850, 31.63025
538.2672, 32.05232
538.7493, 31.67900
539.2314, 31.38389
539.7135, 31.75669
540.1956, 32.63655
540.6777, 33.53504
541.1599, 34.17858
541.6420, 34.59074
542.1241, 34.74566
542.6062, 34.45667
543.0883, 34.52048
543.5704, 35.54000
544.0526, 36.58204
544.5347, 36.96472
545.0168, 36.79795
545.4989, 36.73521
545.9810, 37.20331
546.4631, 37.93268
546.9453, 38.52095
547.4274, 38.97175
547.9095, 39.35992
548.3916, 39.67701
548.8737, 39.99110
549.3558, 40.49731
549.8380, 41.27649
550.3201, 41.73391
550.8022, 41.36749
551.2843, 40.93613
551.7664, 41.12329
552.2485, 41.83070
552.7307, 42.58814
553.2128, 43.15186
553.6949, 43.49970
554.1770, 43.54000
554.6591, 42.89971
555.1412, 42.62703
555.6234, 42.83712
556.1055, 43.28723
556.5876, 44.00483
557.0697, 44.84693
557.5518, 45.48194
558.0339, 45.68927
558.5161, 45.59442
558.9982, 45.44851
559.4803, 45.23526
559.9624, 45.07476
560.4445, 45.01657
560.9266, 45.01037
561.4088, 45.01772
561.8909, 45.03595
562.3730, 45.03740
562.8551, 45.00188
563.3372, 44.95189
563.8193, 44.98311
564.3015, 45.04822
564.7836, 44.86944
565.2657, 44.28120
565.7478, 43.52174
566.2299, 43.05344
566.7120, 43.14125
567.1942, 42.85233
567.6763, 41.87483
568.1584, 40.81586
568.6405, 39.96204
569.1226, 39.31351
569.6047, 38.80873
570.0869, 38.42796
570.5690, 38.07250
571.0511, 37.53194
571.5332, 36.75333
572.0153, 35.96986
572.4974, 35.07749
572.9796, 34.32034
573.4617, 33.91091
573.9438, 33.73456
574.4259, 33.48138
574.9080, 32.95295
575.3901, 32.40429
575.8723, 32.09213
576.3544, 32.00911
576.8365, 32.18030
577.3186, 32.70259
577.8007, 33.20640
578.2828, 33.20488
578.7650, 32.66165
579.2471, 32.37947
579.7292, 32.45508
580.2113, 32.71578
580.6934, 33.26796
581.1755, 33.89505
581.6577, 34.20451
582.1398, 34.07992
582.6219, 33.85211
583.1040, 34.00687
583.5861, 34.63026
584.0682, 34.94813
584.5504, 34.65541
585.0325, 34.41900
585.5145, 34.46817
585.9966, 34.67529
586.4788, 34.90158
586.9609, 35.11452
587.4430, 35.24873
587.9251, 35.22670
588.4072, 35.07273
588.8893, 34.90508
589.3715, 34.76057
589.8536, 34.46786
590.3357, 33.85078
590.8178, 32.99958
591.2999, 32.25454
591.7820, 31.63309
592.2642, 31.07116
592.7463, 30.61802
593.2284, 30.17577
593.7105, 29.61764
594.1926, 28.94789
594.6747, 28.27367
595.1569, 27.68765
595.6390, 27.16951
596.1211, 26.59906
596.6032, 25.83703
597.0853, 25.27003
597.5674, 25.20298
598.0496, 25.11937
598.5317, 24.58598
599.0138, 23.65634
599.4959, 22.72324
599.9780, 21.96202
600.4601, 21.41293
600.9423, 21.27475
601.4244, 21.55457
601.9065, 21.58471
602.3886, 21.04695
602.8707, 20.30100
603.3528, 19.82486
603.8350, 19.60847
604.3171, 19.45450
604.7992, 19.38673
605.2813, 19.32277
605.7634, 19.24087
606.2455, 19.11779
606.7277, 18.88734
607.2098, 18.52864
607.6919, 18.13949
608.1740, 17.87725
608.6561, 17.76878
609.1382, 17.64290
609.6204, 17.57806
610.1025, 17.39840
610.5846, 16.80143
611.0667, 16.15835
611.5488, 16.09790
612.0309, 16.82757
612.5131, 17.49318
612.9952, 17.10199
613.4773, 16.01616
613.9594, 15.43282
614.4415, 15.50594
614.9236, 15.74479
615.4058, 15.92733
615.8879, 16.01946
616.3700, 15.89797
616.8521, 15.38764
617.3342, 15.04259
617.8163, 15.08187
618.2985, 15.25209
618.7806, 15.42569
619.2627, 15.52824
619.7448, 15.35799
620.2269, 14.73786
620.7090, 13.95481
621.1912, 13.93333
621.6733, 15.07933
622.1554, 15.76686
622.6375, 15.35837
623.1196, 14.85138
623.6017, 14.78656
624.0839, 15.06553
624.5660, 15.37841
625.0481, 15.68699
625.5302, 15.85643
626.0123, 15.61145
626.4944, 15.09682
626.9766, 14.84464
627.4587, 14.99739
627.9408, 15.25075
628.4229, 15.30964
628.9050, 15.17855
629.3871, 15.15871
629.8693, 15.48251
630.3514, 15.60651
630.8335, 15.18707
631.3156, 14.65128
631.7977, 14.45809
632.2798, 14.64663
632.7620, 14.93809
633.2441, 15.13825
633.7262, 15.22964
634.2083, 15.07072
634.6904, 14.54755
635.1725, 14.23669
635.6547, 14.45746
636.1368, 14.83022
636.6189, 14.97721
637.1010, 14.90842
637.5831, 14.80726
638.0652, 14.63192
638.5474, 14.53162
639.0295, 14.72696
639.5116, 15.09216
639.9937, 15.31030
640.4758, 15.27278
640.9579, 15.07154
641.4401, 14.80626
641.9222, 14.46232
642.4043, 14.19071
642.8864, 13.93112
643.3685, 13.82538
643.8506, 13.97517
644.3328, 14.25559
644.8149, 14.57251
645.2970, 14.89346
645.7791, 15.15048
646.2612, 15.31569
646.7433, 15.36854
647.2255, 15.18092
647.7076, 14.73857
648.1897, 14.43914
648.6718, 14.50904
649.1539, 14.73573
649.6360, 14.72791
650.1182, 14.40626
650.6003, 14.27315
651.0824, 14.51252
651.5645, 14.80585
652.0466, 15.04521
652.5287, 15.18950
653.0109, 15.13776
653.4930, 14.86846
653.9751, 14.59161
654.4572, 14.63289
654.9393, 15.00366
655.4214, 15.20595
655.9036, 15.18032
656.3857, 15.10344
656.8678, 15.04187
657.3499, 14.97695
657.8320, 14.85136
658.3141, 14.63948
658.7963, 14.55817
659.2784, 14.93222
659.7605, 15.33367
660.2426, 15.16809
660.7247, 14.55173
661.2068, 14.07335
661.6890, 14.01307
662.1711, 14.21487
662.6532, 14.41714
663.1353, 14.65194
663.6174, 14.77530
664.0995, 14.61942
664.5817, 14.53627
665.0638, 14.69455
665.5459, 14.96881
666.0280, 15.22487
666.5101, 15.42937
666.9922, 15.48153
667.4744, 15.11556
667.9565, 14.56927
668.4386, 14.49246
668.9207, 14.92602
669.4028, 15.35306
669.8849, 15.53691
670.3671, 15.50852
670.8492, 15.28109
671.3313, 14.62798
671.8134, 14.39957
672.2955, 15.19424
672.7776, 15.83167
673.2598, 15.44990
673.7419, 14.54526
674.2240, 14.02983
674.7061, 14.23722
675.1882, 14.67241
675.6703, 14.68874
676.1525, 14.34536
676.6346, 14.27779
677.1167, 14.60308
677.5988, 14.85003
678.0809, 14.69384
678.5630, 14.37923
679.0452, 14.38037
679.5273, 14.78491
680.0094, 14.72459
680.4915, 14.88198
680.9736, 14.95245
681.4557, 14.94067
681.9379, 14.60029
682.4200, 14.68423
682.9021, 14.59812
683.3842, 14.50504
683.8663, 14.64869
684.3484, 14.66173
684.8306, 14.79745
685.3127, 15.31640
685.7948, 15.66515
686.2769, 15.42125
686.7590, 14.99531
687.2411, 14.85849
687.7233, 15.07639
688.2054, 15.23497
688.6875, 15.05103
689.1696, 14.79548
689.6517, 14.73124
690.1339, 14.84536
690.6160, 14.96241
691.0981, 15.18108
691.5802, 15.31283
692.0623, 15.36234
692.5444, 15.08325
693.0266, 15.22848
693.5087, 15.20366
693.9908, 15.17186
694.4729, 15.37680
694.9550, 15.14551
695.4371, 15.06436
695.9193, 15.06863
696.4014, 15.10447
696.8835, 15.09450
697.3656, 15.05330
697.8477, 14.99744
698.3298, 14.92742
698.8120, 14.82436
699.2941, 14.67408
699.7762, 14.56238
700.2583, 14.61357
700.7404, 14.84641
701.2225, 15.00541
701.7047, 15.01110
702.1868, 15.03889
702.6689, 15.16623
703.1510, 15.29776
703.6331, 15.29885
704.1152, 15.18826
704.5974, 15.16791
705.0795, 15.48869
705.5616, 15.87333
706.0437, 15.79761
706.5258, 15.34414
707.0079, 15.05200
707.4901, 15.08308
707.9722, 15.24747
708.4543, 15.35659
708.9364, 15.41235
709.4185, 15.51795
709.9006, 15.82454
710.3828, 15.97830
710.8649, 15.84141
711.3470, 15.59422
711.8291, 15.30242
712.3112, 15.03472
712.7933, 14.95214
713.2755, 15.18471
713.7576, 15.57956
714.2397, 15.98197
714.7218, 16.36390
715.2039, 16.49863
715.6860, 16.30071
716.1682, 16.05373
716.6503, 15.97335
717.1324, 16.03752
717.6145, 16.12599
718.0966, 16.44461
718.5787, 16.49335
719.0609, 15.91477
719.5430, 15.32747
720.0251, 15.16749
720.5072, 15.37002
720.9893, 15.69701
721.4714, 16.05721
721.9536, 16.35583
722.4357, 16.46811
722.9178, 16.40673
723.3999, 16.18228
723.8820, 15.74781
724.3641, 15.48010
724.8463, 15.68114
725.3284, 16.13996
725.8105, 16.30064
726.2926, 15.99319
726.7747, 15.82639
727.2568, 15.89867
727.7390, 16.05143
728.2211, 16.30200
728.7032, 16.53906
729.1853, 16.55545
729.6674, 16.29449
730.1495, 15.99440
730.6317, 15.85815
731.1138, 15.88822
731.5959, 16.17874
732.0780, 16.75993
732.5601, 17.14548
733.0422, 17.06985
733.5244, 16.82694
734.0065, 16.85078
734.4886, 17.20199
734.9707, 17.46337
735.4528, 17.59397
735.9349, 17.68476
736.4171, 17.76126
736.8992, 17.81737
737.3813, 17.84730
737.8634, 17.84864
738.3455, 17.81280
738.8276, 17.69583
739.3098, 17.57538
739.7919, 17.65207
740.2740, 17.90879
740.7561, 18.06876
741.2382, 18.04379
741.7203, 17.98511
742.2025, 18.03010
742.6846, 18.16875
743.1667, 18.29278
743.6488, 18.54855
744.1309, 18.58720
744.6130, 18.11434
745.0952, 17.62748
745.5773, 17.52192
746.0594, 17.72400
746.5415, 17.93165
747.0236, 17.99271
747.5057, 18.06216
747.9879, 18.44464
748.4700, 19.00024
748.9521, 19.12581
749.4342, 18.73842
749.9163, 18.37249
750.3984, 18.30999
750.8806, 18.50567
751.3627, 18.90693
751.8448, 19.80842
752.3269, 20.12625
752.8090, 19.24765
753.2911, 18.52014
753.7733, 18.55540
754.2554, 19.02167
754.7375, 19.56964
755.2196, 20.08715
755.7017, 20.31200
756.1838, 19.74744
756.6660, 18.92388
757.1481, 18.80278
757.6302, 19.27700
758.1123, 19.70125
758.5944, 19.86990
759.0765, 19.90032
759.5587, 19.90879
760.0408, 19.89672
760.5229, 19.93109
761.0050, 20.06137
761.4871, 20.16400
761.9692, 20.29871
762.4514, 20.33789
762.9335, 20.12309
763.4156, 19.72668
763.8977, 19.39613
764.3798, 19.23421
764.8619, 19.14880
765.3441, 19.07615
765.8262, 19.02323
766.3083, 18.99328
766.7904, 18.99157
767.2725, 19.05399
767.7546, 19.20831
768.2368, 19.41185
768.7189, 19.55751
769.2010, 19.61919
769.6831, 19.73728
770.1652, 20.10074
770.6473, 20.24986
771.1295, 19.74175
771.6116, 19.04297
772.0937, 18.73959
772.5758, 18.90786
773.0579, 19.24055
773.5400, 19.90896
774.0222, 20.43248
774.5043, 20.27687
774.9864, 19.72317
775.4685, 19.33529
775.9506, 19.26300
776.4327, 19.26806
776.9149, 19.09260
777.3970, 18.81942
777.8791, 18.91044
778.3612, 19.49173
778.8433, 19.72671
779.3254, 19.26958
779.8076, 18.67674
780.2897, 18.44749
780.7718, 18.48655
781.2539, 18.38874
781.7360, 17.98828
782.2181, 17.68938
782.7003, 17.60625
783.1824, 17.64719
783.6645, 17.80704
784.1466, 18.02044
784.6287, 18.16757
785.1108, 18.19731
785.5930, 18.14847
786.0751, 18.04598
786.5572, 17.90344
787.0393, 17.79101
787.5214, 17.71550
788.0035, 17.55774
788.4857, 17.21755
788.9678, 16.88992
789.4499, 16.87210
789.9320, 17.20605
790.4141, 17.51554
790.8962, 17.89054
791.3784, 18.12671
791.8605, 18.10466
792.3426, 17.98491
792.8247, 17.88263
793.3068, 17.81656
793.7889, 17.78507
794.2711, 17.81449
794.7532, 17.82958
795.2353, 17.72308
795.7174, 17.55713
796.1995, 17.48396
796.6816, 17.51227
797.1638, 17.50936
797.6459, 17.38558
798.1280, 17.21691
798.6101, 17.20496
799.0922, 17.43060
799.5743, 17.44554
800.0565, 16.99802
800.5386, 16.74007
801.0207, 17.32482
801.5028, 18.04763
801.9849, 17.93921
802.4670, 16.90855
802.9492, 16.27336
803.4313, 16.76041
803.9134, 17.37139
804.3955, 17.44097
804.8776, 17.27529
805.3597, 17.37587
805.8419, 17.78960
806.3240, 18.18589
806.8061, 18.32778
807.2882, 18.26685
807.7703, 18.08108
808.2524, 17.77498
808.7346, 17.43171
809.2167, 17.02171
809.6988, 16.78216
810.1809, 16.93648
810.6630, 17.32171
811.1451, 17.47993
811.6273, 17.25738
812.1094, 17.15624
812.5915, 17.25129
813.0736, 17.38095
813.5557, 17.54178
814.0378, 17.66642
814.5200, 17.61724
815.0021, 17.39599
815.4842, 17.27503
815.9663, 17.66884
816.4484, 18.05218
816.9305, 17.54349
817.4127, 16.57117
817.8948, 16.34930
818.3769, 17.08344
818.8590, 17.91618
819.3411, 18.17260
819.8232, 17.96782
820.3054, 17.59145
820.7875, 16.93060
821.2696, 16.62003
821.7517, 16.86367
822.2338, 17.21160
822.7159, 17.55773
823.1981, 17.78230
823.6802, 17.59602
824.1623, 16.85920
824.6444, 16.36011
825.1265, 16.31509
825.6086, 16.48298
826.0908, 16.96928
826.5729, 17.46997
827.0550, 17.47199
827.5371, 16.97294
828.0192, 16.57828
828.5013, 16.81168
828.9835, 17.29954
829.4656, 17.35245
829.9477, 17.08140
830.4298, 17.06745
830.9119, 17.42041
831.3940, 17.75079
831.8762, 17.80315
832.3583, 17.62006
832.8404, 17.26293
833.3225, 16.49200
833.8046, 16.24900
834.2867, 16.99471
834.7689, 17.67171
835.2510, 17.97585
835.7331, 17.96985
836.2152, 17.60765
836.6973, 16.90079
837.1794, 16.39614
837.6616, 16.44362
838.1437, 16.55298
838.6258, 16.33540
839.1079, 16.04516
839.5900, 16.02506
840.0721, 16.30765
840.5543, 16.79732
841.0364, 17.49137
841.5185, 18.09977
842.0006, 18.05329
842.4827, 17.44714
842.9648, 16.80571
843.4470, 16.14907
843.9291, 15.88895
844.4112, 16.33324
844.8933, 17.06500
845.3754, 17.38975
845.8575, 17.25086
846.3397, 17.05674
846.8218, 16.62648
847.3039, 16.39196
847.7860, 16.63484
848.2681, 16.94018
848.7502, 16.89891
849.2324, 16.59286
849.7145, 16.45915
850.1966, 16.72868
850.6787, 17.01360
851.1608, 17.14864
851.6429, 17.14372
852.1251, 16.92977
852.6072, 16.58841
853.0893, 16.33068
853.5714, 16.24851
854.0535, 16.28197
854.5356, 16.43025
855.0178, 16.63621
855.4999, 16.55641
855.9820, 16.17898
856.4641, 16.05081
856.9462, 16.39281
857.4283, 16.80077
857.9105, 16.86251
858.3926, 16.62733
858.8747, 16.49453
859.3568, 16.53034
859.8389, 16.55361
860.3210, 16.66868
860.8032, 16.65039
861.2853, 16.24139
861.7674, 15.67877
862.2495, 15.34861
862.7316, 15.32133
863.2137, 15.45305
863.6959, 15.78331
864.1780, 16.15177
864.6601, 16.48134
865.1422, 16.74347
865.6243, 16.90734
866.1064, 16.96190
866.5886, 16.85456
867.0707, 16.47271
867.5528, 16.09506
868.0349, 16.47501
868.5170, 17.40617
868.9991, 17.41999
869.4813, 16.29645
869.9634, 15.41580
870.4455, 15.59439
870.9276, 16.26234
871.4097, 16.34280
871.8918, 15.70204
872.3740, 15.40897
872.8561, 15.66553
873.3382, 15.94136
873.8203, 16.14387
874.3024, 16.27590
874.7845, 16.32445
875.2667, 16.29964
875.7488, 16.24706
876.2309, 16.19422
876.7130, 16.08150
877.1951, 15.67137
877.6772, 15.38008
878.1594, 15.74625
878.6415, 16.47232
879.1236, 16.89912
879.6057, 16.81618
880.0878, 16.54414
880.5699, 16.34870
881.0521, 16.16912
881.5342, 15.78719
882.0163, 15.30683
882.4984, 15.25187
882.9805, 15.72493
883.4626, 16.11903
883.9448, 15.91915
884.4269, 15.38546
884.9090, 15.32478
885.3911, 15.85505
885.8732, 16.19269
886.3553, 16.29810
886.8375, 16.19935
887.3196, 15.76162
887.8017, 15.24641
888.2838, 15.06222
888.7659, 15.23836
889.2480, 15.37685
889.7302, 15.50651
890.2123, 15.54610
890.6944, 15.33731
891.1765, 15.14767
891.6586, 15.28038
892.1407, 15.61123
892.6229, 15.74729
893.1050, 15.51878
893.5871, 15.27654
894.0692, 15.28696
894.5513, 15.38188
895.0334, 15.38190
895.5156, 15.30169
895.9977, 15.19722
896.4798, 15.08876
896.9619, 14.96179
897.4440, 14.74607
897.9261, 14.59375
898.4083, 15.07885
898.8904, 16.10383
899.3725, 16.46229
899.8546, 15.92597
900.3367, 15.26592
900.8188, 14.88942
901.3010, 14.77110
901.7831, 14.91809
902.2652, 15.43335
902.7473, 15.52918
903.2294, 14.81187
903.7115, 14.37017
904.1937, 14.69485
904.6758, 15.22915
905.1579, 15.55090
905.6400, 15.68588
906.1221, 15.76576
906.6042, 15.92453
907.0864, 15.80801
907.5685, 14.98270
908.0506, 14.19611
908.5327, 14.00390
909.0148, 14.18154
909.4969, 14.29918
909.9791, 14.27075
910.4612, 14.38160
910.9433, 15.07575
911.4254, 15.74830
911.9075, 15.58319
912.3896, 14.97883
912.8718, 14.72796
913.3539, 14.90577
913.8360, 15.18252
914.3181, 15.37970
914.8002, 15.48200
915.2823, 15.38302
915.7644, 15.13701
916.2465, 15.18187
916.7286, 15.53537
917.2108, 15.94341
917.6929, 16.36013
918.1750, 16.66601
918.6571, 16.74472
919.1392, 16.61156
919.6213, 16.30953
920.1035, 15.56338
920.5856, 15.33762
921.0677, 15.99775
921.5498, 16.75938
922.0319, 17.42862
922.5140, 17.89276
922.9962, 17.88247
923.4783, 17.35263
923.9604, 17.08969
924.4425, 17.46607
924.9246, 17.78035
925.4067, 17.71511
925.8889, 17.56178
926.3710, 17.53044
926.8531, 17.64076
927.3352, 17.92523
927.8173, 18.44048
928.2994, 18.77626
928.7816, 18.28710
929.2637, 17.78072
929.7458, 18.35372
930.2279, 19.53854
930.7100, 20.28344
931.1921, 20.40212
931.6743, 20.41123
932.1564, 20.69620
932.6385, 21.06202
933.1206, 21.05029
933.6027, 20.81129
934.0848, 21.09246
934.5670, 21.92896
935.0491, 22.69892
935.5312, 23.13708
936.0133, 23.36661
936.4954, 23.49302
936.9775, 23.55328
937.4597, 23.95198
937.9418, 24.80020
938.4239, 25.51279
938.9060, 25.94528
939.3881, 26.34994
939.8702, 26.85233
940.3524, 27.46098
940.8345, 28.21248
941.3166, 29.16385
941.7987, 30.04905
942.2808, 30.69604
942.7629, 31.50181
943.2451, 32.66891
943.7272, 33.93813
944.2093, 35.01742
944.6914, 36.00721
945.1735, 37.29245
945.6556, 39.05920
946.1378, 40.83851
946.6199, 42.43212
947.1020, 44.01238
947.5841, 45.50404
948.0662, 47.14910
948.5483, 49.44531
949.0305, 52.34647
949.5126, 55.08821
949.9947, 57.11298
950.4768, 59.05238
950.9589, 61.54289
951.4410, 64.38250
951.9232, 67.23716
952.4053, 70.13152
952.8874, 73.25573
953.3695, 76.68013
953.8516, 80.40612
954.3337, 84.49516
954.8159, 88.80775
955.2980, 92.99969
955.7801, 97.06917
956.2622, 101.0582
956.7443, 104.9712
957.2264, 108.7864
957.7086, 112.4778
958.1907, 116.2037
958.6728, 120.2408
959.1549, 124.5985
959.6370, 129.2725
960.1191, 134.4613
960.6013, 139.2028
961.0834, 143.2348
961.5655, 146.8601
962.0476, 150.3880
962.5297, 153.6608
963.0118, 156.0949
963.4940, 157.3589
963.9761, 158.6474
964.4582, 160.1938
964.9403, 161.4526
965.4224, 162.4753
965.9045, 162.9866
966.3867, 162.6670
966.8688, 161.5716
967.3509, 160.0699
967.8330, 158.0790
968.3151, 155.9080
968.7972, 154.0027
969.2794, 151.5536
969.7615, 147.8315
970.2436, 143.3972
970.7257, 139.0837
971.2078, 135.0002
971.6899, 130.5781
972.1721, 125.5296
972.6542, 120.1476
973.1363, 114.4452
973.6184, 108.6045
974.1005, 102.5906
974.5826, 96.64919
975.0648, 91.34850
975.5469, 86.82420
976.0290, 82.55132
976.5111, 78.12096
976.9932, 73.67089
977.4753, 69.13390
977.9575, 64.78136
978.4396, 61.32762
978.9217, 58.69621
979.4038, 55.98450
979.8859, 52.72352
980.3680, 49.54551
980.8502, 47.43774
981.3323, 46.07721
981.8144, 44.15261
982.2965, 41.81448
982.7786, 40.43270
983.2607, 40.31602
983.7429, 40.28835
984.2250, 39.56026
984.7071, 38.38773
985.1892, 37.20918
985.6713, 36.01838
986.1534, 35.15562
986.6356, 34.68307
987.1177, 34.15397
987.5998, 33.40314
988.0819, 32.67654
988.5640, 32.19046
989.0461, 31.89191
989.5283, 31.62630
990.0104, 31.47568
990.4925, 31.06393
990.9746, 30.14105
991.4567, 29.44883
991.9388, 29.39540
992.4210, 29.48950
992.9031, 29.11075
993.3852, 28.39420
993.8673, 28.27821
994.3494, 29.50431
994.8315, 30.07115
995.3137, 29.38824
995.7958, 28.69932
996.2779, 28.52454
996.7600, 28.58072
997.2421, 28.60456
997.7242, 28.56616
998.2064, 28.40101
998.6885, 27.93937
999.1706, 27.60084
999.6527, 27.63379
1000.135, 27.67233
1000.617, 27.39506
1001.099, 27.01877
1001.581, 26.91556
1002.063, 27.10500
1002.545, 27.22692
1003.028, 27.10326
1003.510, 26.91773
1003.992, 26.73883
1004.474, 26.57139
1004.956, 26.39321
1005.438, 26.23983
1005.920, 26.20937
1006.402, 26.30738
1006.884, 26.35042
1007.367, 26.17449
1007.849, 25.95484
1008.331, 25.90182
1008.813, 25.88116
1009.295, 25.72020
1009.777, 25.41148
1010.259, 24.96340
1010.741, 24.39436
1011.224, 23.84637
1011.706, 23.45313
1012.188, 23.14453
1012.670, 22.81137
1013.152, 22.47722
1013.634, 22.18806
1014.116, 21.95261
1014.598, 21.80323
1015.080, 21.75027
1015.563, 21.64909
1016.045, 21.28924
1016.527, 20.80305
1017.009, 20.52666
1017.491, 20.42381
1017.973, 20.33625
1018.455, 20.23690
1018.937, 20.11917
1019.419, 19.97995
1019.902, 19.80148
1020.384, 19.54514
1020.866, 19.23265
1021.348, 18.94226
1021.830, 18.67652
1022.312, 18.55120
1022.794, 18.59457
1023.276, 18.59238
1023.759, 18.42702
1024.241, 18.12344
1024.723, 17.66079
1025.205, 17.07372
1025.687, 16.91527
1026.169, 17.22715
1026.651, 17.69375
1027.133, 18.35796
1027.615, 18.68914
1028.098, 18.28927
1028.580, 17.52830
1029.062, 17.03667
1029.544, 16.81151
1030.026, 16.97377
1030.508, 17.70070
1030.990, 18.16845
1031.472, 18.14705
1031.955, 18.03460
1032.437, 18.07417
1032.919, 18.18537
1033.401, 18.19316
1033.883, 18.06633
1034.365, 18.16146
1034.847, 18.57377
1035.329, 19.01031
1035.812, 19.53025
1036.294, 19.89002
1036.776, 19.79301
1037.258, 19.52796
1037.740, 19.70044
1038.222, 20.40897
1038.704, 20.90194
1039.186, 20.97674
1039.668, 21.16529
1040.151, 21.67379
1040.633, 22.17672
1041.115, 22.42842
1041.597, 22.55314
1042.079, 22.77139
1042.561, 23.08259
1043.043, 23.49217
1043.525, 24.32973
1044.007, 24.79495
1044.490, 24.44681
1044.972, 24.00668
1045.454, 23.79559
1045.936, 23.83799
1046.418, 24.27430
1046.900, 25.19014
1047.382, 25.68332
1047.864, 25.49843
1048.347, 25.11054
1048.829, 24.39451
1049.311, 23.74213
1049.793, 23.51167
1050.275, 23.46880
1050.757, 23.20723
1051.239, 22.68032
1051.721, 22.06933
1052.203, 21.14794
1052.686, 20.51237
1053.168, 20.58089
1053.650, 20.74381
1054.132, 20.64523
1054.614, 20.32861
1055.096, 19.89525
1055.578, 19.36016
1056.060, 18.74028
1056.542, 17.74463
1057.025, 17.07514
1057.507, 17.23692
1057.989, 17.51431
1058.471, 17.46668
1058.953, 17.15781
1059.435, 16.65257
1059.917, 15.99055
1060.399, 15.54500
1060.882, 15.62299
1061.364, 15.67395
1061.846, 15.50446
1062.328, 15.23631
1062.810, 14.84205
1063.292, 14.46809
1063.774, 14.39279
1064.256, 14.60172
1064.739, 14.64683
1065.221, 14.12825
1065.703, 13.83608
1066.185, 14.42509
1066.667, 15.01338
1067.149, 15.00003
1067.631, 14.56212
1068.113, 13.84087
1068.595, 12.97140
1069.078, 12.45232
1069.560, 12.65509
1070.042, 12.79451
1070.524, 12.36645
1071.006, 11.91365
1071.488, 11.87439
1071.970, 12.00868
1072.452, 11.90338
1072.934, 11.60346
1073.417, 11.57992
1073.899, 12.11493
1074.381, 12.56571
1074.863, 12.70081
1075.345, 12.57245
1075.827, 11.97220
1076.309, 11.29455
1076.791, 11.03548
1077.274, 11.15644
1077.756, 11.31806
1078.238, 11.44046
1078.720, 11.47316
1079.202, 11.25386
1079.684, 11.09555
1080.166, 11.28946
1080.648, 11.57668
1081.130, 11.65250
1081.613, 11.56324
1082.095, 11.53064
1082.577, 11.61916
1083.059, 11.73520
1083.541, 11.95999
1084.023, 12.05365
1084.505, 11.85180
1084.987, 11.47755
1085.469, 10.87575
1085.952, 10.25229
1086.434, 10.04970
1086.916, 10.37568
1087.398, 10.77252
1087.880, 11.22249
1088.362, 11.47773
1088.844, 11.22359
1089.326, 10.90483
1089.808, 10.98082
1090.291, 11.24196
1090.773, 11.18219
1091.255, 10.75136
1091.737, 10.61546
1092.219, 11.33892
1092.701, 11.94765
1093.183, 12.11366
1093.665, 11.98578
1094.148, 11.33742
1094.630, 10.65203
1095.112, 10.80811
1095.594, 11.72128
1096.076, 12.07709
1096.558, 11.10743
1097.040, 10.31913
1097.522, 10.29814
1098.005, 10.48582
1098.487, 10.80367
1098.969, 10.97956
1099.451, 10.55005
1099.933, 9.686785
1100.415, 9.176577
1100.897, 9.232327
1101.379, 9.516867
1101.861, 10.28233
1102.344, 10.83653
1102.826, 10.74045
1103.308, 10.42539
1103.790, 10.27597
1104.272, 10.24819
1104.754, 10.12967
1105.236, 9.854245
1105.718, 9.688664
1106.200, 9.654739
1106.683, 9.770966
1107.165, 10.28559
1107.647, 10.71046
1108.129, 10.61183
1108.611, 10.22038
1109.093, 9.936263
1109.575, 9.781256
1110.057, 9.804701
1110.540, 10.38812
1111.022, 10.58862
1111.504, 9.655028
1111.986, 9.010354
1112.468, 9.738066
1112.950, 10.92149
1113.432, 11.33068
1113.914, 11.00068
1114.396, 10.72531
1114.879, 10.68122
1115.361, 10.37696
1115.843, 9.427061
1116.325, 8.771547
1116.807, 8.936704
1117.289, 9.309678
1117.771, 9.272518
1118.253, 8.971259
1118.735, 8.999050
1119.218, 9.541292
1119.700, 9.784751
1120.182, 9.525466
1120.664, 9.412951
1121.146, 9.715083
1121.628, 9.997198
1122.110, 9.904863
1122.592, 9.633686
1123.075, 9.629788
1123.557, 9.930670
1124.039, 9.814977
1124.521, 9.051501
1125.003, 8.772532
1125.485, 9.341930
1125.967, 9.753611
1126.449, 9.396441
1126.932, 8.858594
1127.414, 8.974030
1127.896, 9.614594
1128.378, 9.917358
1128.860, 9.852208
1129.342, 9.696115
1129.824, 9.437388
1130.306, 9.384719
1130.788, 9.670640
1131.271, 10.05976
1131.753, 10.34374
1132.235, 10.53879
1132.717, 10.73644
1133.199, 10.91346
1133.681, 10.58396
1134.163, 9.773353
1134.645, 9.493717
1135.127, 9.969286
1135.610, 10.40513
1136.092, 10.30113
1136.574, 9.908332
1137.056, 9.534052
1137.538, 9.204744
1138.020, 9.000072
1138.502, 8.919379
1138.984, 9.030588
1139.467, 9.292678
1139.949, 9.395481
1140.431, 9.224158
1140.913, 9.066557
1141.395, 9.217925
1141.877, 9.497667
1142.359, 9.675689
1142.841, 9.734145
1143.323, 9.525970
1143.806, 9.178126
1144.288, 9.093022
1144.770, 9.318373
1145.252, 9.507177
1145.734, 9.439302
1146.216, 9.338919
1146.698, 9.468001
1147.180, 9.641562
1147.662, 9.616730
1148.145, 9.503154
1148.627, 9.539227
1149.109, 9.666132
1149.591, 9.544764
1150.073, 9.052573
1150.555, 8.767675
1151.037, 9.240283
1151.519, 9.778008
1152.002, 9.962584
1152.484, 9.981288
1152.966, 10.01521
1153.448, 10.01225
1153.930, 9.796661
1154.412, 9.383539
1154.894, 9.106886
1155.376, 9.145600
1155.859, 9.182590
1156.341, 9.026307
1156.823, 8.960480
1157.305, 9.197550
1157.787, 9.541412
1158.269, 9.852676
1158.751, 10.09149
1159.233, 10.13318
1159.715, 9.856183
1160.198, 9.820621
1160.680, 10.55326
1161.162, 10.79783
1161.644, 9.934942
1162.126, 9.037048
1162.608, 8.656510
1163.090, 8.636932
1163.572, 8.815305
1164.054, 9.174971
1164.537, 9.296031
1165.019, 8.997286
1165.501, 9.092749
1165.983, 9.846699
1166.465, 10.29550
1166.947, 10.06069
1167.429, 9.498593
1167.911, 8.838466
1168.394, 8.238257
1168.876, 8.151690
1169.358, 8.581455
1169.840, 8.860275
1170.322, 8.985815
1170.804, 9.056215
1171.286, 9.089312
1171.768, 9.165177
1172.250, 9.328001
1172.733, 9.529339
1173.215, 9.741663
1173.697, 9.905362
1174.179, 9.816243
1174.661, 9.553542
1175.143, 9.403967
1175.625, 9.349260
1176.107, 9.124671
1176.589, 8.713943
1177.072, 8.578448
1177.554, 9.057370
1178.036, 9.679998
1178.518, 10.05624
1179.000, 10.14564
1179.482, 9.664011
1179.964, 8.986110
1180.446, 8.743847
1180.929, 8.891260
1181.411, 9.050090
1181.893, 9.098535
1182.375, 9.097604
1182.857, 8.966680
1183.339, 8.949786
1183.821, 9.383706
1184.303, 9.782871
1184.786, 9.670760
1185.268, 9.333050
1185.750, 9.140377
1186.232, 9.135726
1186.714, 9.296311
1187.196, 9.747776
1187.678, 9.978389
1188.160, 9.744360
1188.642, 9.489883
1189.125, 9.244500
1189.607, 9.132300
1190.089, 9.353611
1190.571, 9.682785
1191.053, 9.693174
1191.535, 9.389688
1192.017, 9.330138
1192.499, 9.609633
1192.981, 9.858735
1193.464, 10.07536
1193.946, 10.17903
1194.428, 10.11841
1194.910, 9.997224
1195.392, 9.872659
1195.874, 9.832513
1196.356, 10.19263
1196.838, 10.89281
1197.321, 10.99375
1197.803, 10.53924
1198.285, 10.26114
1198.767, 10.24015
1199.249, 9.434564
1199.731, 9.699606
1200.213, 9.877747
1200.695, 9.973624
1201.177, 9.740933
1201.660, 9.932675
1202.142, 9.954226
1202.624, 9.968820
1203.106, 10.22013
1203.588, 10.71972
1204.070, 10.64392
1204.552, 10.22273
1205.034, 9.486873
1205.516, 8.979049
1205.999, 9.261164
1206.481, 9.689996
1206.963, 9.965399
1207.445, 10.02024
1207.927, 9.576354
1208.409, 8.982327
1208.891, 8.890828
1209.373, 9.319909
1209.856, 9.621333
1210.338, 9.578793
1210.820, 9.562224
1211.302, 9.698380
1211.784, 9.776409
1212.266, 9.616185
1212.748, 9.488126
1213.230, 9.603936
1213.713, 9.869387
1214.195, 10.14564
1214.677, 10.43545
1215.159, 10.37272
1215.641, 9.854305
1216.123, 9.417699
1216.605, 9.102726
1217.087, 8.902276
1217.569, 8.811259
1218.052, 8.877457
1218.534, 9.170715
1219.016, 9.537670
1219.498, 9.621708
1219.980, 9.509313
1220.462, 9.675416
1220.944, 9.998294
1221.426, 9.856486
1221.908, 9.285265
1222.391, 8.911886
1222.873, 8.962508
1223.355, 9.104176
1223.837, 9.102929
1224.319, 9.031002
1224.801, 8.842549
1225.283, 8.732926
1225.765, 9.145391
1226.248, 9.645580
1226.730, 9.401477
1227.212, 8.643611
1227.694, 8.358402
1228.176, 8.828889
1228.658, 9.368876
1229.140, 9.964868
1229.622, 10.28825
1230.104, 10.11649
1230.587, 9.784183
1231.069, 9.443373
1231.551, 9.061677
1232.033, 8.504531
1232.515, 7.882569
1232.997, 7.619449
1233.479, 7.762125
1233.961, 8.030048
1234.443, 8.443813
1234.926, 8.964747
1235.408, 9.670862
1235.890, 9.991918
1236.372, 9.593606
1236.854, 9.043146
1237.336, 8.980239
1237.818, 9.228698
1238.300, 9.391232
1238.783, 9.468259
1239.265, 9.416381
1239.747, 9.284135
1240.229, 9.287500
1240.711, 9.424181
1241.193, 9.481815
1241.675, 9.366501
1242.157, 9.163671
1242.640, 8.899332
1243.122, 8.636958
1243.604, 8.342633
1244.086, 8.158612
1244.568, 8.368505
1245.050, 8.692012
1245.532, 8.638333
1246.014, 8.293666
1246.496, 8.178976
1246.979, 8.414592
1247.461, 8.797650
1247.943, 9.702300
1248.425, 10.12926
1248.907, 9.586356
1249.389, 8.957608
1249.871, 8.568846
1250.353, 8.396404
1250.835, 8.463604
1251.318, 8.688246
1251.800, 8.756209
1252.282, 8.650519
1252.764, 8.666356
1253.246, 8.806463
1253.728, 8.881263
1254.210, 8.862701
1254.692, 8.968848
1255.175, 9.295049
1255.657, 9.501302
1256.139, 9.211493
1256.621, 8.756968
1257.103, 8.562321
1257.585, 8.590901
1258.067, 9.047007
1258.549, 9.542872
1259.031, 9.147663
1259.514, 8.141188
1259.996, 7.799333
1260.478, 8.491895
1260.960, 9.067530
1261.442, 8.890909
1261.924, 8.713750
1262.406, 8.903339
1262.888, 9.021842
1263.370, 8.687256
1263.853, 8.298533
1264.335, 8.297818
1264.817, 8.532043
1265.299, 8.624739
1265.781, 8.565652
1266.263, 8.542195
1266.745, 8.558167
1267.227, 8.609501
1267.710, 8.711606
1268.192, 8.661890
1268.674, 8.372127
1269.156, 8.255603
1269.638, 8.669024
1270.120, 9.250661
1270.602, 9.442117
1271.084, 9.360798
1271.567, 9.220184
1272.049, 9.034208
1272.531, 8.742935
1273.013, 8.452668
1273.495, 8.518002
1273.977, 8.934067
1274.459, 9.102916
1274.941, 8.613975
1275.423, 8.375824
1275.906, 9.110497
1276.388, 9.813256
1276.870, 10.01154
1277.352, 9.980702
1277.834, 9.860589
1278.316, 9.703444
1278.798, 9.565372
1279.280, 9.449567
1279.762, 9.390195
1280.245, 9.434348
1280.727, 9.295993
1281.209, 8.909307
1281.691, 8.775086
1282.173, 9.013207
1282.655, 9.292583
1283.137, 9.452748
1283.619, 9.480070
1284.102, 9.338788
1284.584, 9.110142
1285.066, 8.915760
1285.548, 8.757200
##END=



