##NAMES=Redledgeite
##RRUFFID=R070714
##IDEAL CHEMISTRY=Ba(Ti^4+^_6_Cr^3+^_2_)O_16_
##LOCALITY=Red Ledge Mine, Washington, Washington District, Nevada County, California, USA
##OWNER=RRUFF
##SOURCE=Michael Scott
##DESCRIPTION=Black acicular crystals intermixed with pale green micro-fibers, used in the Foley et al (1997) Can Min 35, 1531-1534 study. Associated with light purple clinochlore
##STATUS=The identification of this mineral has been confirmed by single-crystal X-ray diffraction.
##URL=rruff.info/R070714
##MEASURED CHEMISTRY=Ba_1.15_(H_2_O)_0.93_(Ti^4+^_5.66_Cr^3+^_2.38_Fe^3+^_0.02_)_Î£=8.06_O_16_
123.8625, 47181.51
124.3446, 47325.57
124.8267, 47454.61
125.3088, 47525.43
125.7909, 47531.86
126.2731, 47567.54
126.7552, 47680.36
127.2373, 47801.98
127.7194, 47904.48
128.2015, 47981.85
128.6837, 48038.41
129.1658, 48076.04
129.6479, 48072.06
130.1300, 48094.88
130.6121, 48149.80
131.0942, 48227.70
131.5764, 48338.22
132.0585, 48484.91
132.5406, 48639.91
133.0227, 48701.87
133.5048, 48530.02
133.9869, 48412.93
134.4691, 48401.71
134.9512, 48466.93
135.4333, 48565.28
135.9154, 48676.52
136.3975, 48796.28
136.8796, 48854.22
137.3618, 48798.34
137.8439, 48742.01
138.3260, 48755.92
138.8081, 48832.84
139.2902, 48899.49
139.7723, 48890.36
140.2545, 48803.44
140.7366, 48724.28
141.2187, 48640.71
141.7008, 48574.52
142.1829, 48562.94
142.6650, 48622.68
143.1472, 48686.00
143.6293, 48670.50
144.1114, 48592.92
144.5935, 48525.19
145.0756, 48513.70
145.5577, 48537.94
146.0399, 48526.55
146.5220, 48446.95
147.0041, 48351.37
147.4862, 48283.98
147.9683, 48243.82
148.4504, 48206.44
148.9326, 48146.30
149.4147, 48059.23
149.8968, 47989.01
150.3789, 47951.83
150.8610, 47929.98
151.3431, 47924.93
151.8252, 47935.63
152.3074, 47941.21
152.7895, 47902.51
153.2716, 47783.85
153.7537, 47698.39
154.2358, 47669.68
154.7179, 47667.81
155.2001, 47673.66
155.6822, 47679.25
156.1643, 47678.34
156.6464, 47651.04
157.1285, 47548.51
157.6106, 47474.42
158.0928, 47463.20
158.5749, 47481.81
159.0570, 47483.42
159.5391, 47438.72
160.0212, 47353.02
160.5033, 47287.08
160.9855, 47253.53
161.4676, 47223.65
161.9497, 47192.41
162.4318, 47158.29
162.9139, 47117.79
163.3960, 47065.46
163.8782, 47001.27
164.3603, 46958.03
164.8424, 46945.04
165.3245, 46942.89
165.8066, 46936.76
166.2887, 46926.13
166.7709, 46926.23
167.2530, 46963.73
167.7351, 47036.72
168.2172, 47066.39
168.6993, 47015.61
169.1814, 46928.30
169.6636, 46856.60
170.1457, 46808.97
170.6278, 46772.29
171.1099, 46733.44
171.5920, 46693.12
172.0741, 46658.02
172.5563, 46631.19
173.0384, 46611.68
173.5205, 46599.60
174.0026, 46604.66
174.4847, 46602.54
174.9668, 46562.91
175.4490, 46489.45
175.9311, 46429.52
176.4132, 46430.23
176.8953, 46489.29
177.3774, 46521.73
177.8595, 46494.04
178.3417, 46448.59
178.8238, 46405.78
179.3059, 46368.55
179.7880, 46341.71
180.2701, 46330.87
180.7522, 46336.94
181.2344, 46355.29
181.7165, 46416.66
182.1986, 46469.78
182.6807, 46471.87
183.1628, 46413.06
183.6449, 46332.57
184.1271, 46298.77
184.6092, 46340.46
185.0913, 46374.07
185.5734, 46402.01
186.0555, 46414.20
186.5376, 46392.23
187.0198, 46329.00
187.5019, 46248.48
187.9840, 46213.70
188.4661, 46278.65
188.9482, 46324.84
189.4303, 46331.61
189.9125, 46318.61
190.3946, 46308.96
190.8767, 46314.54
191.3588, 46331.66
191.8409, 46343.14
192.3230, 46364.82
192.8052, 46363.30
193.2873, 46305.15
193.7694, 46221.11
194.2515, 46165.76
194.7336, 46174.14
195.2157, 46238.80
195.6979, 46288.05
196.1800, 46327.51
196.6621, 46350.32
197.1442, 46350.00
197.6263, 46329.89
198.1084, 46297.57
198.5906, 46253.13
199.0727, 46200.00
199.5548, 46172.21
200.0369, 46218.59
200.5190, 46247.31
201.0011, 46180.17
201.4833, 46026.61
201.9654, 45887.74
202.4475, 45841.57
202.9296, 45884.86
203.4117, 45923.46
203.8938, 45948.21
204.3760, 45971.84
204.8581, 46019.51
205.3402, 46095.39
205.8223, 46143.21
206.3044, 46096.33
206.7865, 45979.59
207.2687, 45881.43
207.7508, 45820.25
208.2329, 45786.27
208.7150, 45770.65
209.1971, 45776.15
209.6792, 45787.31
210.1614, 45786.71
210.6435, 45781.00
211.1256, 45788.62
211.6077, 45843.77
212.0898, 45913.60
212.5719, 45913.60
213.0541, 45802.48
213.5362, 45697.74
214.0183, 45697.27
214.5004, 45767.00
214.9825, 45824.27
215.4646, 45825.29
215.9468, 45778.14
216.4289, 45708.38
216.9110, 45579.02
217.3931, 45483.70
217.8752, 45493.21
218.3573, 45578.36
218.8395, 45654.70
219.3216, 45650.84
219.8037, 45575.27
220.2858, 45534.98
220.7679, 45558.05
221.2500, 45590.71
221.7322, 45608.70
222.2143, 45614.43
222.6964, 45619.75
223.1785, 45644.50
223.6606, 45691.38
224.1427, 45695.20
224.6249, 45597.81
225.1070, 45505.86
225.5891, 45461.04
226.0712, 45459.61
226.5533, 45475.54
227.0354, 45488.00
227.5176, 45497.15
227.9997, 45499.19
228.4818, 45465.73
228.9639, 45448.29
229.4460, 45485.16
229.9281, 45564.87
230.4103, 45639.08
230.8924, 45648.59
231.3745, 45567.36
231.8566, 45540.13
232.3387, 45630.54
232.8208, 45717.29
233.3030, 45734.14
233.7851, 45685.57
234.2672, 45624.74
234.7493, 45611.39
235.2314, 45661.88
235.7135, 45702.98
236.1957, 45740.68
236.6778, 45767.02
237.1599, 45775.46
237.6420, 45766.89
238.1241, 45746.63
238.6062, 45716.21
239.0884, 45658.94
239.5705, 45651.30
240.0526, 45746.97
240.5347, 45841.16
241.0168, 45858.43
241.4989, 45798.64
241.9811, 45724.10
242.4632, 45708.27
242.9453, 45776.50
243.4274, 45828.66
243.9095, 45860.41
244.3916, 45881.61
244.8738, 45894.65
245.3559, 45901.59
245.8380, 45909.55
246.3201, 45929.45
246.8022, 45973.85
247.2843, 45984.84
247.7665, 45913.31
248.2486, 45845.88
248.7307, 45850.21
249.2128, 45931.88
249.6949, 46046.58
250.1770, 46149.48
250.6592, 46245.51
251.1413, 46299.00
251.6234, 46272.46
252.1055, 46231.38
252.5876, 46227.82
253.0697, 46267.11
253.5519, 46316.28
254.0340, 46338.46
254.5161, 46324.18
254.9982, 46317.30
255.4803, 46293.14
255.9624, 46291.97
256.4445, 46371.22
256.9267, 46530.77
257.4088, 46682.04
257.8909, 46723.50
258.3730, 46619.90
258.8551, 46580.58
259.3372, 46663.59
259.8194, 46773.42
260.3015, 46829.52
260.7836, 46823.86
261.2657, 46803.90
261.7478, 46812.55
262.2299, 46854.80
262.7121, 46911.02
263.1942, 47014.79
263.6763, 47110.46
264.1584, 47141.16
264.6405, 47104.18
265.1227, 47054.92
265.6048, 47036.79
266.0869, 47054.11
266.5690, 47104.15
267.0511, 47246.39
267.5332, 47382.10
268.0154, 47417.05
268.4975, 47347.95
268.9796, 47253.12
269.4617, 47183.71
269.9438, 47144.78
270.4259, 47155.27
270.9081, 47273.48
271.3902, 47400.64
271.8723, 47449.00
272.3544, 47417.84
272.8365, 47379.21
273.3186, 47387.41
273.8008, 47440.02
274.2829, 47481.53
274.7650, 47507.10
275.2471, 47524.70
275.7292, 47542.74
276.2113, 47560.59
276.6935, 47566.86
277.1756, 47549.50
277.6577, 47512.25
278.1398, 47486.34
278.6219, 47476.04
279.1040, 47473.70
279.5862, 47478.53
280.0683, 47489.14
280.5504, 47493.91
281.0325, 47480.14
281.5146, 47456.10
281.9967, 47453.78
282.4789, 47484.68
282.9610, 47525.71
283.4431, 47559.66
283.9252, 47589.32
284.4073, 47635.52
284.8894, 47724.86
285.3716, 47829.20
285.8537, 47868.18
286.3358, 47803.02
286.8179, 47724.39
287.3000, 47689.04
287.7821, 47685.02
288.2643, 47663.75
288.7464, 47598.75
289.2285, 47505.05
289.7106, 47420.34
290.1927, 47337.58
290.6748, 47274.72
291.1570, 47240.88
291.6391, 47234.06
292.1212, 47252.54
292.6033, 47304.51
293.0854, 47370.11
293.5675, 47411.92
294.0497, 47435.77
294.5318, 47431.20
295.0139, 47373.95
295.4960, 47285.54
295.9781, 47211.74
296.4602, 47164.09
296.9424, 47143.93
297.4245, 47162.93
297.9066, 47227.24
298.3887, 47287.36
298.8708, 47325.73
299.3529, 47350.02
299.8351, 47378.04
300.3172, 47418.21
300.7993, 47448.34
301.2814, 47419.64
301.7635, 47322.36
302.2456, 47266.22
302.7278, 47310.82
303.2099, 47398.29
303.6920, 47445.58
304.1741, 47433.50
304.6562, 47409.54
305.1383, 47430.91
305.6205, 47500.38
306.1026, 47560.14
306.5847, 47612.80
307.0668, 47646.96
307.5489, 47637.70
308.0310, 47582.32
308.5132, 47530.71
308.9953, 47534.85
309.4774, 47597.69
309.9595, 47638.14
310.4416, 47631.73
310.9237, 47617.23
311.4059, 47630.54
311.8880, 47670.71
312.3701, 47705.05
312.8522, 47705.54
313.3343, 47674.22
313.8164, 47659.97
314.2986, 47638.40
314.7807, 47653.76
315.2628, 47764.48
315.7449, 47946.06
316.2270, 48096.32
316.7091, 48143.30
317.1913, 48108.21
317.6734, 48120.14
318.1555, 48227.10
318.6376, 48321.99
319.1197, 48357.72
319.6018, 48350.71
320.0840, 48334.67
320.5661, 48320.97
321.0482, 48318.21
321.5303, 48359.95
322.0124, 48490.14
322.4945, 48598.10
322.9767, 48642.01
323.4588, 48654.26
323.9409, 48686.02
324.4230, 48757.89
324.9051, 48847.00
325.3872, 48907.44
325.8694, 48918.64
326.3515, 48936.89
326.8336, 48975.17
327.3157, 49017.73
327.7978, 49038.05
328.2799, 49031.41
328.7621, 49033.87
329.2442, 49099.99
329.7263, 49271.63
330.2084, 49403.18
330.6905, 49471.91
331.1726, 49518.75
331.6548, 49574.93
332.1369, 49642.55
332.6190, 49701.75
333.1011, 49730.06
333.5832, 49719.67
334.0653, 49721.37
334.5475, 49725.20
335.0296, 49747.25
335.5117, 49806.40
335.9938, 49892.89
336.4759, 49978.06
336.9580, 50038.46
337.4402, 50074.71
337.9223, 50126.32
338.4044, 50237.29
338.8865, 50315.54
339.3686, 50313.72
339.8507, 50265.61
340.3329, 50229.25
340.8150, 50238.15
341.2971, 50282.85
341.7792, 50323.07
342.2613, 50371.10
342.7434, 50397.31
343.2256, 50362.48
343.7077, 50319.71
344.1898, 50330.40
344.6719, 50418.17
345.1540, 50551.61
345.6361, 50674.10
346.1183, 50805.34
346.6004, 50881.70
347.0825, 50878.22
347.5646, 50843.07
348.0467, 50798.54
348.5288, 50754.49
349.0110, 50724.59
349.4931, 50733.55
349.9752, 50796.39
350.4573, 50837.77
350.9394, 50845.73
351.4215, 50840.05
351.9037, 50812.73
352.3858, 50774.67
352.8679, 50759.09
353.3500, 50807.84
353.8321, 50917.89
354.3142, 50988.28
354.7964, 50996.70
355.2785, 50988.50
355.7606, 50990.42
356.2427, 50990.13
356.7248, 50956.04
357.2069, 50844.66
357.6891, 50703.39
358.1712, 50682.02
358.6533, 50836.27
359.1354, 50985.96
359.6175, 51066.41
360.0996, 51100.69
360.5818, 51106.88
361.0639, 51084.40
361.5460, 51051.50
362.0281, 51033.34
362.5102, 51031.57
362.9923, 51028.74
363.4745, 51021.53
363.9566, 51008.81
364.4387, 50986.86
364.9208, 50953.65
365.4029, 50924.15
365.8850, 50909.57
366.3672, 50908.64
366.8493, 50913.60
367.3314, 50922.94
367.8135, 50938.57
368.2956, 50972.93
368.7777, 51023.95
369.2599, 51049.02
369.7420, 51020.52
370.2241, 50957.86
370.7062, 50880.63
371.1883, 50783.45
371.6704, 50715.91
372.1526, 50740.58
372.6347, 50839.95
373.1168, 50910.91
373.5989, 50939.63
374.0810, 50936.21
374.5631, 50884.07
375.0453, 50792.89
375.5274, 50740.01
376.0095, 50787.12
376.4916, 50902.61
376.9737, 50948.64
377.4558, 50869.42
377.9380, 50793.41
378.4201, 50761.95
378.9022, 50766.55
379.3843, 50800.46
379.8664, 50865.26
380.3485, 50936.65
380.8307, 50961.62
381.3128, 50911.81
381.7949, 50867.72
382.2770, 50835.00
382.7591, 50809.77
383.2412, 50785.30
383.7234, 50761.62
384.2055, 50750.64
384.6876, 50769.62
385.1697, 50831.52
385.6518, 50867.62
386.1339, 50865.62
386.6161, 50854.24
387.0982, 50853.22
387.5803, 50855.93
388.0624, 50838.79
388.5445, 50780.89
389.0266, 50687.89
389.5088, 50621.79
389.9909, 50582.24
390.4730, 50574.28
390.9551, 50627.43
391.4372, 50702.83
391.9193, 50750.23
392.4015, 50747.20
392.8836, 50717.17
393.3657, 50712.82
393.8478, 50758.52
394.3299, 50768.07
394.8120, 50681.30
395.2942, 50590.16
395.7763, 50566.80
396.2584, 50617.73
396.7405, 50680.71
397.2226, 50684.69
397.7047, 50629.04
398.1869, 50609.52
398.6690, 50669.30
399.1511, 50721.94
399.6332, 50711.08
400.1153, 50653.47
400.5974, 50598.52
401.0796, 50569.84
401.5617, 50562.43
402.0438, 50572.14
402.5259, 50607.36
403.0080, 50627.64
403.4901, 50594.61
403.9723, 50537.18
404.4544, 50501.36
404.9365, 50510.58
405.4186, 50516.69
405.9007, 50457.04
406.3828, 50348.97
406.8650, 50294.43
407.3471, 50346.11
407.8292, 50446.18
408.3113, 50503.20
408.7934, 50515.61
409.2755, 50506.67
409.7577, 50471.61
410.2398, 50423.21
410.7219, 50379.13
411.2040, 50342.45
411.6861, 50304.46
412.1682, 50250.58
412.6504, 50176.27
413.1325, 50144.59
413.6146, 50203.82
414.0967, 50259.94
414.5788, 50256.06
415.0609, 50203.43
415.5431, 50142.75
416.0252, 50097.68
416.5073, 50066.79
416.9894, 50041.74
417.4715, 50021.53
417.9536, 50009.83
418.4358, 50021.65
418.9179, 50036.04
419.4000, 50031.22
419.8821, 50000.65
420.3642, 49952.51
420.8463, 49894.48
421.3285, 49814.29
421.8106, 49759.68
422.2927, 49740.10
422.7748, 49736.11
423.2569, 49749.65
423.7390, 49772.55
424.2212, 49784.92
424.7033, 49769.07
425.1854, 49729.24
425.6675, 49688.66
426.1496, 49633.76
426.6317, 49602.63
427.1139, 49613.18
427.5960, 49650.80
428.0781, 49703.04
428.5602, 49772.44
429.0423, 49835.18
429.5244, 49857.98
430.0066, 49840.24
430.4887, 49815.46
430.9708, 49794.86
431.4529, 49768.35
431.9350, 49725.43
432.4171, 49665.54
432.8993, 49601.16
433.3814, 49521.72
433.8635, 49446.12
434.3456, 49417.08
434.8277, 49445.15
435.3098, 49479.99
435.7920, 49478.87
436.2741, 49443.62
436.7562, 49414.21
437.2383, 49390.21
437.7204, 49373.88
438.2025, 49373.14
438.6847, 49381.86
439.1668, 49383.07
439.6489, 49368.48
440.1310, 49341.19
440.6131, 49309.06
441.0952, 49251.95
441.5774, 49218.69
442.0595, 49221.54
442.5416, 49243.22
443.0237, 49287.62
443.5058, 49345.38
443.9879, 49368.70
444.4701, 49288.13
444.9522, 49074.89
445.4343, 48965.81
445.9164, 49055.77
446.3985, 49156.03
446.8806, 49217.20
447.3628, 49244.42
447.8449, 49259.63
448.3270, 49277.58
448.8091, 49283.56
449.2912, 49230.79
449.7733, 49089.65
450.2555, 48972.66
450.7376, 48914.26
451.2197, 48888.11
451.7018, 48887.25
452.1839, 48910.06
452.6660, 48924.87
453.1482, 48891.33
453.6303, 48824.11
454.1124, 48798.09
454.5945, 48839.36
455.0766, 48884.09
455.5587, 48869.62
456.0409, 48814.29
456.5230, 48769.32
457.0051, 48748.41
457.4872, 48740.56
457.9693, 48741.94
458.4514, 48750.02
458.9336, 48751.74
459.4157, 48740.97
459.8978, 48719.70
460.3799, 48690.22
460.8620, 48635.55
461.3441, 48604.95
461.8262, 48619.37
462.3083, 48655.05
462.7905, 48697.81
463.2726, 48740.52
463.7547, 48761.86
464.2368, 48735.10
464.7189, 48651.82
465.2010, 48592.69
465.6832, 48542.13
466.1653, 48530.40
466.6474, 48605.34
467.1295, 48718.30
467.6116, 48789.18
468.0938, 48774.92
468.5759, 48712.01
469.0580, 48680.67
469.5401, 48689.09
470.0222, 48705.98
470.5043, 48766.90
470.9865, 48804.66
471.4686, 48745.14
471.9507, 48596.70
472.4328, 48477.13
472.9149, 48505.76
473.3970, 48637.85
473.8792, 48706.94
474.3613, 48690.55
474.8434, 48657.15
475.3255, 48653.88
475.8076, 48664.52
476.2897, 48653.82
476.7719, 48601.71
477.2540, 48546.39
477.7361, 48508.13
478.2182, 48487.43
478.7003, 48488.99
479.1824, 48517.54
479.6646, 48558.52
480.1467, 48589.15
480.6288, 48605.55
481.1109, 48624.80
481.5930, 48668.57
482.0751, 48699.21
482.5573, 48677.37
483.0394, 48612.95
483.5215, 48550.89
484.0036, 48522.90
484.4857, 48525.30
484.9678, 48533.91
485.4500, 48535.29
485.9321, 48562.17
486.4142, 48651.77
486.8963, 48749.15
487.3784, 48802.55
487.8605, 48798.64
488.3427, 48759.76
488.8248, 48704.23
489.3069, 48631.21
489.7890, 48559.75
490.2711, 48474.39
490.7532, 48414.80
491.2354, 48414.99
491.7175, 48454.00
492.1996, 48482.92
492.6817, 48485.11
493.1638, 48467.39
493.6459, 48425.33
494.1281, 48362.01
494.6102, 48326.42
495.0923, 48353.50
495.5744, 48397.84
496.0565, 48369.77
496.5386, 48126.75
497.0208, 48282.84
497.5029, 48359.18
497.9850, 48360.02
498.4671, 48059.31
498.9492, 48148.00
499.4313, 48080.63
499.9135, 48006.86
500.3956, 48150.36
500.8777, 47893.51
501.3598, 48033.56
501.8419, 48015.18
502.3240, 48069.30
502.8062, 47966.40
503.2883, 47912.01
503.7704, 48014.69
504.2525, 48030.39
504.7346, 47909.43
505.2167, 47968.16
505.6989, 47705.82
506.1810, 47725.23
506.6631, 47866.20
507.1452, 47753.13
507.6273, 47814.74
508.1094, 47809.82
508.5916, 47502.55
509.0737, 47721.09
509.5558, 47569.47
510.0379, 47592.73
510.5200, 47620.56
511.0021, 47658.26
511.4843, 47681.46
511.9664, 47636.87
512.4485, 47510.18
512.9306, 47427.57
513.4127, 47455.82
513.8948, 47520.47
514.3770, 47554.67
514.8591, 47552.95
515.3412, 47531.91
515.8233, 47500.80
516.3054, 47461.81
516.7875, 47429.89
517.2697, 47391.48
517.7518, 47377.91
518.2339, 47426.28
518.7160, 47481.59
519.1981, 47488.76
519.6802, 47438.14
520.1624, 47360.98
520.6445, 47276.91
521.1266, 47184.32
521.6087, 47156.70
522.0908, 47249.00
522.5729, 47325.30
523.0551, 47308.63
523.5372, 47243.61
524.0193, 47199.38
524.5014, 47198.43
524.9835, 47219.74
525.4656, 47261.40
525.9478, 47313.60
526.4299, 47318.09
526.9120, 47247.33
527.3941, 47156.81
527.8762, 47108.85
528.3583, 47104.20
528.8405, 47115.14
529.3226, 47141.06
529.8047, 47179.96
530.2868, 47252.04
530.7689, 47337.12
531.2510, 47380.84
531.7332, 47353.72
532.2153, 47281.14
532.6974, 47222.86
533.1795, 47170.09
533.6616, 47150.38
534.1437, 47191.95
534.6259, 47238.97
535.1080, 47255.54
535.5901, 47244.69
536.0722, 47231.54
536.5543, 47237.77
537.0364, 47252.96
537.5186, 47235.29
538.0007, 47168.89
538.4828, 47131.52
538.9649, 47181.27
539.4470, 47257.95
539.9291, 47287.69
540.4113, 47258.73
540.8934, 47232.82
541.3755, 47244.89
541.8576, 47277.09
542.3397, 47309.75
542.8218, 47339.31
543.3040, 47344.60
543.7861, 47301.68
544.2682, 47219.54
544.7503, 47177.10
545.2324, 47214.77
545.7145, 47235.95
546.1967, 47205.16
546.6788, 47157.50
547.1609, 47136.03
547.6430, 47147.63
548.1251, 47160.10
548.6072, 47131.22
549.0894, 47058.66
549.5715, 47022.56
550.0536, 47024.07
550.5357, 47064.55
551.0178, 47192.98
551.4999, 47338.38
551.9821, 47393.22
552.4642, 47309.63
552.9463, 47199.79
553.4284, 47168.42
553.9105, 47198.15
554.3926, 47219.33
554.8748, 47215.73
555.3569, 47213.07
555.8390, 47240.52
556.3211, 47296.86
556.8032, 47330.20
557.2853, 47318.66
557.7675, 47305.41
558.2496, 47319.04
558.7317, 47342.48
559.2138, 47342.88
559.6959, 47309.01
560.1780, 47260.47
560.6602, 47051.65
561.1423, 47249.41
561.6244, 47366.73
562.1065, 47407.88
562.5886, 47146.79
563.0707, 47274.42
563.5529, 47245.32
564.0350, 47209.13
564.5171, 47389.53
564.9992, 47168.90
565.4813, 47344.49
565.9634, 47360.97
566.4456, 47449.28
566.9277, 47379.89
567.4098, 47358.31
567.8919, 47493.13
568.3740, 47540.30
568.8561, 47450.11
569.3383, 47538.95
569.8204, 47306.03
570.3025, 47354.18
570.7846, 47523.21
571.2667, 47437.52
571.7488, 47525.82
572.2310, 47546.92
572.7131, 47265.00
573.1952, 47560.09
573.6773, 47651.25
574.1594, 47641.96
574.6415, 47617.68
575.1237, 47613.53
575.6058, 47622.64
576.0879, 47618.58
576.5700, 47579.30
577.0521, 47545.75
577.5342, 47604.66
578.0164, 47756.81
578.4985, 47848.41
578.9806, 47815.35
579.4627, 47753.13
579.9448, 47776.49
580.4269, 47873.37
580.9091, 47930.36
581.3912, 47886.05
581.8733, 47831.55
582.3554, 47838.36
582.8375, 47885.67
583.3196, 47912.04
583.8018, 47891.05
584.2839, 47853.39
584.7660, 47853.43
585.2481, 47905.61
585.7302, 47954.90
586.2123, 48001.31
586.6945, 48045.21
587.1766, 48098.84
587.6587, 48148.43
588.1408, 48163.97
588.6229, 48125.00
589.1050, 48068.19
589.5872, 48048.87
590.0693, 48065.41
590.5514, 48072.38
591.0335, 48050.65
591.5156, 48034.86
591.9977, 48073.48
592.4799, 48157.20
592.9620, 48213.13
593.4441, 48217.07
593.9262, 48204.72
594.4083, 48184.15
594.8904, 48164.26
595.3726, 48164.06
595.8547, 48189.82
596.3368, 48226.70
596.8189, 48255.25
597.3010, 48277.21
597.7831, 48281.52
598.2653, 48230.68
598.7474, 48201.61
599.2295, 48255.55
599.7116, 48336.16
600.1937, 48351.16
600.6758, 48260.33
601.1580, 48137.66
601.6401, 48042.15
602.1222, 47978.18
602.6043, 47983.90
603.0864, 48085.93
603.5685, 48179.50
604.0507, 48169.69
604.5328, 48065.53
605.0149, 47985.75
605.4970, 47921.32
605.9791, 47891.44
606.4612, 47942.81
606.9434, 48014.71
607.4255, 48018.54
607.9076, 47940.53
608.3897, 47850.40
608.8718, 47828.93
609.3539, 47873.70
609.8361, 47866.11
610.3182, 47751.23
610.8003, 47675.52
611.2824, 47746.01
611.7645, 47845.62
612.2466, 47831.61
612.7288, 47671.50
613.2109, 47517.30
613.6930, 47469.99
614.1751, 47495.78
614.6572, 47551.07
615.1393, 47629.90
615.6215, 47679.57
616.1036, 47661.13
616.5857, 47594.17
617.0678, 47549.50
617.5499, 47569.99
618.0320, 47553.14
618.5142, 47450.45
618.9963, 47342.86
619.4784, 47303.52
619.9605, 47321.05
620.4426, 47326.91
620.9247, 47265.78
621.4069, 47172.53
621.8890, 47144.83
622.3711, 47193.42
622.8532, 47247.31
623.3353, 47311.01
623.8174, 47348.92
624.2996, 47301.34
624.7817, 47176.35
625.2638, 47107.77
625.7459, 47184.94
626.2280, 47285.00
626.7101, 47312.18
627.1923, 47283.91
627.6744, 47253.07
628.1565, 47240.65
628.6386, 47235.44
629.1207, 47216.42
629.6028, 47171.88
630.0850, 47160.93
630.5671, 47234.23
631.0492, 47289.14
631.5313, 47255.86
632.0134, 47194.50
632.4955, 47213.79
632.9777, 47362.86
633.4598, 47510.58
633.9419, 47513.21
634.4240, 47409.54
634.9061, 47322.48
635.3882, 47266.72
635.8704, 47244.57
636.3525, 47267.39
636.8346, 47326.18
637.3167, 47362.88
637.7988, 47364.37
638.2809, 47364.47
638.7631, 47366.11
639.2452, 47370.70
639.7273, 47376.96
640.2094, 47386.71
640.6915, 47408.38
641.1736, 47454.63
641.6558, 47512.57
642.1379, 47529.10
642.6200, 47491.54
643.1021, 47468.71
643.5842, 47486.07
644.0663, 47521.04
644.5485, 47543.89
645.0306, 47555.41
645.5127, 47588.63
645.9948, 47680.46
646.4769, 47773.30
646.9590, 47808.78
647.4412, 47807.91
647.9233, 47832.93
648.4054, 47908.01
648.8875, 47992.89
649.3696, 48025.02
649.8517, 47992.96
650.3339, 47963.84
650.8160, 47919.16
651.2981, 47900.93
651.7802, 47929.49
652.2623, 47989.20
652.7444, 48070.90
653.2266, 48180.89
653.7087, 48253.80
654.1908, 48199.40
654.6729, 48080.51
655.1550, 48031.84
655.6371, 48067.82
656.1193, 48153.46
656.6014, 48281.07
657.0835, 48428.88
657.5656, 48511.82
658.0477, 48459.95
658.5298, 48437.50
659.0120, 48469.54
659.4941, 48511.07
659.9762, 48533.38
660.4583, 48537.47
660.9404, 48536.32
661.4225, 48535.06
661.9047, 48537.31
662.3868, 48545.71
662.8689, 48560.68
663.3510, 48601.73
663.8331, 48686.97
664.3152, 48766.54
664.7974, 48782.68
665.2795, 48739.05
665.7616, 48725.02
666.2437, 48733.91
666.7258, 48782.75
667.2079, 48921.21
667.6901, 49081.93
668.1722, 49183.51
668.6543, 49209.79
669.1364, 49193.52
669.6185, 49152.32
670.1006, 49096.00
670.5828, 49094.80
671.0649, 49175.13
671.5470, 49220.70
672.0291, 49154.05
672.5112, 49065.54
672.9933, 49072.80
673.4755, 49180.79
673.9576, 49248.45
674.4397, 49190.76
674.9218, 49116.34
675.4039, 49122.84
675.8860, 49180.56
676.3682, 49207.02
676.8503, 49170.58
677.3324, 49112.08
677.8145, 49090.48
678.2966, 49109.43
678.7787, 49138.81
679.2609, 49186.50
679.7430, 49233.57
680.2251, 49279.23
680.7072, 49317.82
681.1893, 49342.71
681.6714, 49353.53
682.1536, 49347.86
682.6357, 49320.16
683.1178, 49277.53
683.5999, 49215.89
684.0820, 49143.22
684.5641, 49100.36
685.0463, 49110.42
685.5284, 49158.02
686.0105, 49213.18
686.4926, 49301.16
686.9747, 49335.46
687.4568, 49246.49
687.9390, 49172.77
688.4211, 49196.34
688.9032, 49270.20
689.3853, 49299.99
689.8674, 49246.96
690.3495, 49178.33
690.8317, 49142.10
691.3138, 49133.67
691.7959, 49151.49
692.2780, 49193.81
692.7601, 49232.10
693.2422, 49247.98
693.7244, 49242.48
694.2065, 49216.89
694.6886, 49129.06
695.1707, 49091.55
695.6528, 49173.92
696.1349, 49244.30
696.6171, 49193.23
697.0992, 49063.53
697.5813, 48985.77
698.0634, 49039.27
698.5455, 49122.26
699.0276, 49106.89
699.5098, 49021.11
699.9919, 48968.71
700.4740, 48971.02
700.9561, 48985.78
701.4382, 48978.41
701.9203, 48952.63
702.4025, 48937.29
702.8846, 48946.64
703.3667, 48947.59
703.8488, 48929.49
704.3309, 48908.73
704.8130, 48889.41
705.2952, 48877.64
705.7773, 48892.11
706.2594, 48963.41
706.7415, 49033.84
707.2236, 48994.24
707.7057, 48867.99
708.1879, 48804.99
708.6700, 48845.05
709.1521, 48918.63
709.6342, 48966.21
710.1163, 48988.34
710.5984, 48996.28
711.0806, 48998.29
711.5627, 48975.92
712.0448, 48887.86
712.5269, 48802.29
713.0090, 48794.56
713.4911, 48853.38
713.9733, 48894.41
714.4554, 48855.40
714.9375, 48779.52
715.4196, 48736.94
715.9017, 48723.44
716.3839, 48700.00
716.8660, 48652.50
717.3481, 48615.63
717.8302, 48638.24
718.3123, 48719.77
718.7944, 48712.14
719.2766, 48514.97
719.7587, 48366.20
720.2408, 48342.79
720.7229, 48360.07
721.2050, 48342.14
721.6871, 48284.70
722.1693, 48227.34
722.6514, 48188.71
723.1335, 48171.81
723.6156, 48198.81
724.0977, 48260.26
724.5798, 48281.70
725.0620, 48238.72
725.5441, 48174.23
726.0262, 48127.28
726.5083, 48097.76
726.9904, 48090.66
727.4725, 48115.90
727.9547, 48149.66
728.4368, 48203.82
728.9189, 48253.63
729.4010, 48281.02
729.8831, 48282.89
730.3652, 48259.51
730.8474, 48195.77
731.3295, 48122.84
731.8116, 48092.32
732.2937, 48095.42
732.7758, 48089.09
733.2579, 48062.70
733.7401, 48020.50
734.2222, 47958.76
734.7043, 47880.41
735.1864, 47851.98
735.6685, 47947.77
736.1506, 47995.86
736.6328, 47927.48
737.1149, 47842.57
737.5970, 47823.69
738.0791, 47866.76
738.5612, 47914.41
739.0433, 47949.66
739.5255, 47960.34
740.0076, 47917.48
740.4897, 47837.65
740.9718, 47770.56
741.4539, 47727.33
741.9360, 47707.18
742.4182, 47713.60
742.9003, 47741.87
743.3824, 47750.85
743.8645, 47723.05
744.3466, 47705.93
744.8287, 47723.93
745.3109, 47737.99
745.7930, 47714.84
746.2751, 47663.75
746.7572, 47624.10
747.2393, 47618.33
747.7214, 47617.98
748.2036, 47603.39
748.6857, 47576.92
749.1678, 47541.06
749.6499, 47497.06
750.1320, 47450.98
750.6141, 47407.53
751.0963, 47364.90
751.5784, 47312.30
752.0605, 47234.81
752.5426, 47189.42
753.0247, 47200.68
753.5068, 47227.11
753.9890, 47254.36
754.4711, 47275.81
754.9532, 47272.80
755.4353, 47227.46
755.9174, 47182.88
756.3995, 47171.19
756.8817, 47166.31
757.3638, 47136.69
757.8459, 47081.27
758.3280, 47008.14
758.8101, 46918.27
759.2922, 46837.76
759.7744, 46834.82
760.2565, 46919.90
760.7386, 46978.91
761.2207, 46994.75
761.7028, 46997.27
762.1849, 47015.80
762.6671, 47031.39
763.1492, 46990.63
763.6313, 46846.16
764.1134, 46752.33
764.5955, 46770.04
765.0776, 46828.01
765.5598, 46898.96
766.0419, 46962.12
766.5240, 46982.75
767.0061, 46945.13
767.4882, 46881.67
767.9703, 46830.73
768.4525, 46789.95
768.9346, 46747.90
769.4167, 46704.06
769.8988, 46660.32
770.3809, 46616.68
770.8630, 46575.09
771.3452, 46537.15
771.8273, 46493.71
772.3094, 46483.42
772.7915, 46544.20
773.2736, 46594.75
773.7557, 46584.83
774.2379, 46553.01
774.7200, 46562.10
775.2021, 46624.03
775.6842, 46670.77
776.1663, 46641.59
776.6484, 46570.71
777.1306, 46500.04
777.6127, 46435.07
778.0948, 46400.06
778.5769, 46405.30
779.0590, 46425.30
779.5411, 46428.50
780.0233, 46414.37
780.5054, 46404.89
780.9875, 46407.76
781.4696, 46402.53
781.9517, 46367.84
782.4338, 46335.86
782.9160, 46338.56
783.3981, 46372.86
783.8802, 46400.98
784.3623, 46410.43
784.8444, 46409.80
785.3265, 46407.84
785.8087, 46398.29
786.2908, 46365.48
786.7729, 46310.70
787.2550, 46256.05
787.7371, 46218.06
788.2192, 46194.63
788.7014, 46183.98
789.1835, 46187.79
789.6656, 46186.97
790.1477, 46181.31
790.6298, 46163.26
791.1119, 46119.82
791.5941, 46058.39
792.0762, 46013.57
792.5583, 45998.07
793.0404, 45978.51
793.5225, 45960.93
794.0046, 45928.42
794.4868, 45839.65
794.9689, 45730.32
795.4510, 45687.07
795.9331, 45753.24
796.4152, 45840.34
796.8973, 45864.73
797.3795, 45837.16
797.8616, 45771.20
798.3437, 45671.36
798.8258, 45582.85
799.3079, 45526.84
799.7900, 45499.10
800.2722, 45494.82
800.7543, 45520.16
801.2364, 45539.93
801.7185, 45549.91
802.2006, 45559.77
802.6827, 45607.50
803.1649, 45636.21
803.6470, 45556.82
804.1291, 45361.55
804.6112, 45217.13
805.0933, 45202.91
805.5754, 45245.04
806.0576, 45310.82
806.5397, 45387.31
807.0218, 45471.01
807.5039, 45553.36
807.9860, 45586.80
808.4681, 45512.08
808.9503, 45373.05
809.4324, 45320.98
809.9145, 45362.42
810.3966, 45372.85
810.8787, 45315.75
811.3608, 45245.37
811.8430, 45205.87
812.3251, 45193.89
812.8072, 45184.68
813.2893, 45177.21
813.7714, 45173.41
814.2535, 45176.43
814.7357, 45180.27
815.2178, 45189.21
815.6999, 45194.70
816.1820, 45175.18
816.6641, 45117.41
817.1462, 45059.77
817.6284, 45037.80
818.1105, 45034.05
818.5926, 45016.14
819.0747, 44986.49
819.5568, 44972.71
820.0389, 44988.49
820.5211, 45013.80
821.0032, 45022.28
821.4853, 45015.28
821.9674, 44953.14
822.4495, 44787.04
822.9316, 44692.50
823.4138, 44782.09
823.8959, 44936.55
824.3780, 45008.00
824.8601, 44996.84
825.3422, 44959.61
825.8243, 44879.12
826.3065, 44801.17
826.7886, 44731.28
827.2707, 44680.86
827.7528, 44665.91
828.2349, 44683.76
828.7170, 44718.00
829.1992, 44775.86
829.6813, 44814.57
830.1633, 44759.21
830.6454, 44636.52
831.1276, 44525.59
831.6097, 44440.09
832.0918, 44392.50
832.5739, 44394.96
833.0560, 44432.41
833.5381, 44467.20
834.0203, 44506.26
834.5024, 44517.19
834.9845, 44478.88
835.4666, 44441.27
835.9487, 44426.41
836.4308, 44428.31
836.9130, 44449.38
837.3951, 44501.43
837.8772, 44506.93
838.3593, 44391.84
838.8414, 44281.42
839.3235, 44257.88
839.8057, 44285.78
840.2878, 44316.27
840.7699, 44333.81
841.2520, 44332.69
841.7341, 44297.03
842.2162, 44248.93
842.6984, 44233.01
843.1805, 44243.00
843.6626, 44245.86
844.1447, 44233.66
844.6268, 44223.84
845.1089, 44234.21
845.5911, 44256.11
846.0732, 44246.16
846.5553, 44184.59
847.0374, 44146.67
847.5195, 44174.17
848.0016, 44183.13
848.4838, 44095.69
848.9659, 43964.05
849.4480, 43890.20
849.9301, 43893.75
850.4122, 43918.08
850.8943, 43968.98
851.3765, 44015.27
851.8586, 44035.93
852.3407, 44036.57
852.8228, 44020.92
853.3049, 43992.96
853.7870, 43978.21
854.2692, 44022.23
854.7513, 44082.79
855.2334, 44071.07
855.7155, 44000.94
856.1976, 43933.05
856.6797, 43883.26
857.1619, 43864.45
857.6440, 43893.71
858.1261, 43959.86
858.6082, 44006.67
859.0903, 44038.96
859.5724, 44034.55
860.0546, 43969.71
860.5367, 43896.32
861.0188, 43845.43
861.5009, 43811.92
861.9830, 43784.02
862.4651, 43761.90
862.9473, 43744.10
863.4294, 43729.11
863.9115, 43719.93
864.3936, 43726.45
864.8757, 43736.97
865.3578, 43727.27
865.8400, 43693.16
866.3221, 43670.02
866.8042, 43701.70
867.2863, 43746.97
867.7684, 43742.04
868.2505, 43702.65
868.7327, 43676.06
869.2148, 43674.04
869.6969, 43689.75
870.1790, 43724.25
870.6611, 43760.12
871.1432, 43719.86
871.6254, 43586.24
872.1075, 43518.57
872.5896, 43556.55
873.0717, 43617.26
873.5538, 43656.85
874.0359, 43676.25
874.5181, 43676.12
875.0002, 43640.65
875.4823, 43620.60
875.9644, 43629.77
876.4465, 43639.18
876.9286, 43637.70
877.4108, 43629.58
877.8929, 43627.32
878.3750, 43631.06
878.8571, 43609.86
879.3392, 43500.72
879.8214, 43408.48
880.3035, 43444.71
880.7856, 43543.06
881.2677, 43604.19
881.7498, 43609.28
882.2319, 43571.71
882.7141, 43490.10
883.1962, 43406.38
883.6783, 43414.10
884.1604, 43495.24
884.6425, 43529.25
885.1246, 43500.93
885.6068, 43457.10
886.0889, 43415.35
886.5710, 43393.48
887.0531, 43434.96
887.5352, 43563.16
888.0173, 43617.36
888.4995, 43546.69
888.9816, 43489.49
889.4637, 43498.64
889.9458, 43532.71
890.4279, 43555.91
890.9100, 43567.98
891.3922, 43572.35
891.8743, 43567.89
892.3564, 43558.01
892.8385, 43537.11
893.3206, 43516.66
893.8027, 43503.94
894.2849, 43500.66
894.7670, 43515.00
895.2491, 43557.13
895.7312, 43577.74
896.2133, 43499.32
896.6954, 43393.32
897.1776, 43387.91
897.6597, 43458.63
898.1418, 43492.43
898.6239, 43450.02
899.1060, 43386.89
899.5881, 43358.71
900.0703, 43363.75
900.5524, 43405.18
901.0345, 43485.79
901.5166, 43537.04
901.9987, 43541.87
902.4808, 43521.08
902.9630, 43492.70
903.4451, 43452.18
903.9272, 43376.09
904.4093, 43219.73
904.8914, 43121.43
905.3735, 43112.45
905.8557, 43130.75
906.3378, 43169.92
906.8199, 43211.39
907.3020, 43225.61
907.7841, 43207.73
908.2662, 43192.88
908.7484, 43195.50
909.2305, 43196.00
909.7126, 43154.88
910.1947, 43124.84
910.6768, 43189.07
911.1589, 43332.66
911.6411, 43450.92
912.1232, 43486.26
912.6053, 43477.63
913.0874, 43446.53
913.5695, 43405.60
914.0516, 43380.86
914.5338, 43369.63
915.0159, 43341.22
915.4980, 43280.85
915.9801, 43230.67
916.4622, 43268.36
916.9443, 43373.40
917.4265, 43400.83
917.9086, 43347.54
918.3907, 43293.25
918.8728, 43257.28
919.3549, 43245.33
919.8370, 43268.91
920.3192, 43320.19
920.8013, 43344.11
921.2834, 43328.70
921.7655, 43316.41
922.2476, 43325.80
922.7297, 43320.05
923.2119, 43255.31
923.6940, 43170.24
924.1761, 43133.76
924.6582, 43156.71
925.1403, 43189.49
925.6224, 43252.32
926.1046, 43291.75
926.5867, 43253.34
927.0688, 43200.00
927.5509, 43227.14
928.0330, 43319.96
928.5151, 43341.73
928.9973, 43162.50
929.4794, 43008.16
929.9615, 43091.52
930.4436, 43264.26
930.9257, 43343.72
931.4078, 43331.85
931.8900, 43303.80
932.3721, 43292.02
932.8542, 43281.84
933.3363, 43249.97
933.8184, 43208.81
934.3005, 43193.85
934.7827, 43201.80
935.2648, 43206.46
935.7469, 43200.54
936.2290, 43207.53
936.7111, 43253.24
937.1932, 43320.39
937.6754, 43344.13
938.1575, 43318.69
938.6396, 43299.08
939.1217, 43294.78
939.6038, 43281.83
940.0859, 43237.15
940.5681, 43189.30
941.0502, 43198.68
941.5323, 43288.04
942.0144, 43316.68
942.4965, 43228.08
942.9786, 43160.27
943.4608, 43161.52
943.9429, 43179.02
944.4250, 43166.00
944.9071, 43130.44
945.3892, 43113.40
945.8713, 43128.79
946.3535, 43149.13
946.8356, 43179.64
947.3177, 43200.48
947.7998, 43185.93
948.2819, 43156.56
948.7640, 43149.38
949.2462, 43172.56
949.7283, 43198.45
950.2104, 43233.67
950.6925, 43242.36
951.1746, 43142.98
951.6567, 43017.95
952.1389, 43028.73
952.6210, 43165.35
953.1031, 43266.84
953.5852, 43235.06
954.0673, 43150.87
954.5494, 43108.30
955.0316, 43101.01
955.5137, 43124.00
955.9958, 43169.95
956.4779, 43198.09
956.9600, 43193.32
957.4421, 43173.36
957.9243, 43154.96
958.4064, 43139.94
958.8885, 43134.75
959.3706, 43138.76
959.8527, 43170.61
960.3348, 43244.15
960.8170, 43292.05
961.2991, 43264.73
961.7812, 43190.21
962.2633, 43132.71
962.7454, 43094.56
963.2275, 43061.38
963.7097, 43027.30
964.1918, 43010.85
964.6739, 43030.60
965.1560, 43058.24
965.6381, 43066.93
966.1202, 43057.18
966.6024, 43037.77
967.0845, 42982.75
967.5666, 42956.68
968.0487, 42981.58
968.5308, 43020.78
969.0129, 43076.11
969.4951, 43123.18
969.9772, 43118.53
970.4593, 43051.76
970.9414, 42989.42
971.4235, 42943.55
971.9056, 42919.08
972.3878, 42933.71
972.8699, 42960.85
973.3520, 42968.79
973.8341, 42960.72
974.3162, 42966.15
974.7983, 43005.63
975.2805, 43030.71
975.7626, 42970.80
976.2447, 42901.73
976.7268, 42934.74
977.2089, 43028.77
977.6910, 43077.82
978.1732, 43054.61
978.6553, 43007.01
979.1374, 42962.77
979.6195, 42932.00
980.1016, 42935.04
980.5837, 42964.35
981.0659, 43012.95
981.5480, 43071.45
982.0301, 43084.66
982.5122, 43022.70
982.9943, 42938.63
983.4764, 42916.62
983.9586, 42942.59
984.4407, 42923.32
984.9228, 42859.98
985.4049, 42839.05
985.8870, 42887.34
986.3691, 42935.43
986.8513, 42925.77
987.3334, 42875.56
987.8155, 42833.06
988.2976, 42796.59
988.7797, 42777.73
989.2618, 42772.79
989.7440, 42805.30
990.2261, 42907.52
990.7082, 43012.14
991.1903, 43030.88
991.6724, 42965.88
992.1545, 42914.44
992.6367, 42877.40
993.1188, 42852.96
993.6009, 42853.42
994.0830, 42849.97
994.5651, 42810.91
995.0472, 42761.60
995.5294, 42761.30
996.0115, 42829.41
996.4936, 42861.69
996.9757, 42830.92
997.4578, 42794.62
997.9399, 42734.75
998.4221, 42703.51
998.9042, 42782.23
999.3863, 42929.93
999.8684, 42993.01
1000.351, 42903.38
1000.833, 42824.55
1001.315, 42805.91
1001.797, 42805.86
1002.279, 42802.62
1002.761, 42800.46
1003.243, 42806.10
1003.725, 42820.76
1004.207, 42844.99
1004.690, 42892.98
1005.172, 42929.71
1005.654, 42927.98
1006.136, 42910.11
1006.618, 42893.93
1007.100, 42881.61
1007.582, 42872.87
1008.064, 42867.48
1008.547, 42861.99
1009.029, 42851.43
1009.511, 42842.05
1009.993, 42837.02
1010.475, 42839.48
1010.957, 42859.81
1011.439, 42893.99
1011.921, 42929.41
1012.403, 42962.84
1012.886, 42962.93
1013.368, 42845.41
1013.850, 42698.00
1014.332, 42718.93
1014.814, 42849.36
1015.296, 42871.89
1015.778, 42748.74
1016.260, 42630.18
1016.742, 42628.73
1017.225, 42694.20
1017.707, 42758.87
1018.189, 42814.50
1018.671, 42818.93
1019.153, 42777.16
1019.635, 42752.43
1020.117, 42767.93
1020.599, 42802.68
1021.082, 42840.14
1021.564, 42873.38
1022.046, 42874.15
1022.528, 42845.05
1023.010, 42822.74
1023.492, 42811.61
1023.974, 42823.66
1024.456, 42869.45
1024.938, 42917.11
1025.421, 42914.32
1025.903, 42867.02
1026.385, 42853.35
1026.867, 42878.62
1027.349, 42885.93
1027.831, 42859.50
1028.313, 42835.89
1028.795, 42839.53
1029.278, 42863.16
1029.760, 42895.36
1030.242, 42941.50
1030.724, 42949.84
1031.206, 42911.60
1031.688, 42861.67
1032.170, 42797.57
1032.652, 42751.82
1033.135, 42756.18
1033.617, 42800.46
1034.099, 42848.70
1034.581, 42908.89
1035.063, 42949.05
1035.545, 42965.36
1036.027, 42969.61
1036.509, 42971.13
1036.991, 42955.37
1037.474, 42894.61
1037.956, 42796.63
1038.438, 42742.46
1038.920, 42752.24
1039.402, 42767.21
1039.884, 42792.57
1040.366, 42811.71
1040.848, 42810.59
1041.330, 42803.42
1041.813, 42813.71
1042.295, 42843.14
1042.777, 42852.55
1043.259, 42851.93
1043.741, 42816.91
1044.223, 42683.23
1044.705, 42580.01
1045.187, 42597.22
1045.670, 42684.02
1046.152, 42759.86
1046.634, 42824.05
1047.116, 42858.45
1047.598, 42833.73
1048.080, 42817.24
1048.562, 42840.71
1049.044, 42861.67
1049.526, 42838.87
1050.009, 42792.82
1050.491, 42772.13
1050.973, 42784.92
1051.455, 42808.71
1051.937, 42865.04
1052.419, 42899.45
1052.901, 42876.58
1053.383, 42837.14
1053.865, 42819.01
1054.348, 42815.45
1054.830, 42796.71
1055.312, 42749.88
1055.794, 42712.73
1056.276, 42706.55
1056.758, 42698.02
1057.240, 42658.46
1057.722, 42618.51
1058.205, 42626.38
1058.687, 42667.27
1059.169, 42662.00
1059.651, 42554.20
1060.133, 42489.13
1060.615, 42557.01
1061.097, 42631.75
1061.579, 42648.81
1062.062, 42624.05
1062.544, 42565.49
1063.026, 42485.55
1063.508, 42434.27
1063.990, 42444.38
1064.472, 42453.21
1064.954, 42426.77
1065.436, 42401.27
1065.918, 42401.45
1066.401, 42418.59
1066.883, 42438.55
1067.365, 42459.41
1067.847, 42487.57
1068.329, 42553.53
1068.811, 42584.05
1069.293, 42509.16
1069.775, 42423.71
1070.257, 42405.59
1070.740, 42426.98
1071.222, 42438.86
1071.704, 42431.63
1072.186, 42413.38
1072.668, 42358.82
1073.150, 42331.00
1073.632, 42389.81
1074.114, 42460.07
1074.597, 42469.36
1075.079, 42444.70
1075.561, 42446.91
1076.043, 42487.40
1076.525, 42520.23
1077.007, 42548.94
1077.489, 42535.21
1077.971, 42407.20
1078.453, 42274.09
1078.936, 42241.76
1079.418, 42280.11
1079.900, 42323.96
1080.382, 42357.93
1080.864, 42355.90
1081.346, 42267.21
1081.828, 42188.14
1082.310, 42177.38
1082.792, 42193.52
1083.275, 42218.58
1083.757, 42232.57
1084.239, 42186.41
1084.721, 42065.04
1085.203, 41991.60
1085.685, 42069.99
1086.167, 42148.36
1086.649, 42138.67
1087.131, 42096.61
1087.614, 42061.55
1088.096, 42043.20
1088.578, 42051.95
1089.060, 42091.87
1089.542, 42135.74
1090.024, 42178.14
1090.506, 42215.18
1090.988, 42270.98
1091.471, 42299.18
1091.953, 42225.22
1092.435, 42093.32
1092.917, 42023.01
1093.399, 42050.73
1093.881, 42055.35
1094.363, 41950.75
1094.845, 41863.89
1095.328, 41868.49
1095.810, 41907.62
1096.292, 41948.75
1096.774, 41975.11
1097.256, 41945.98
1097.738, 41837.54
1098.220, 41787.19
1098.702, 41914.49
1099.184, 42013.14
1099.667, 41966.65
1100.149, 41876.45
1100.631, 41808.13
1101.113, 41777.31
1101.595, 41820.70
1102.077, 41971.26
1102.559, 42037.61
1103.041, 41882.95
1103.523, 41752.26
1104.006, 41745.57
1104.488, 41790.78
1104.970, 41843.06
1105.452, 41893.86
1105.934, 41940.35
1106.416, 41990.28
1106.898, 41992.81
1107.380, 41897.94
1107.863, 41809.37
1108.345, 41750.82
1108.827, 41716.99
1109.309, 41715.79
1109.791, 41733.10
1110.273, 41735.74
1110.755, 41716.30
1111.237, 41706.07
1111.719, 41714.26
1112.202, 41722.96
1112.684, 41727.08
1113.166, 41731.37
1113.648, 41749.79
1114.130, 41768.22
1114.612, 41750.42
1115.094, 41684.66
1115.576, 41635.44
1116.058, 41590.82
1116.541, 41582.10
1117.023, 41649.13
1117.505, 41712.20
1117.987, 41713.11
1118.469, 41681.23
1118.951, 41679.14
1119.433, 41716.33
1119.915, 41709.54
1120.398, 41611.31
1120.880, 41570.85
1121.362, 41641.98
1121.844, 41725.91
1122.326, 41769.73
1122.808, 41783.19
1123.290, 41782.32
1123.772, 41767.00
1124.255, 41731.61
1124.737, 41653.57
1125.219, 41634.27
1125.701, 41713.25
1126.183, 41785.07
1126.665, 41789.66
1127.147, 41758.40
1127.629, 41734.04
1128.111, 41717.96
1128.594, 41740.64
1129.076, 41811.59
1129.558, 41862.00
1130.040, 41885.29
1130.522, 41871.18
1131.004, 41807.95
1131.486, 41731.41
1131.968, 41686.00
1132.450, 41670.99
1132.933, 41689.35
1133.415, 41740.72
1133.897, 41804.99
1134.379, 41880.62
1134.861, 41899.29
1135.343, 41827.30
1135.825, 41750.06
1136.307, 41768.23
1136.790, 41842.64
1137.272, 41855.85
1137.754, 41820.72
1138.236, 41814.32
1138.718, 41838.95
1139.200, 41850.89
1139.682, 41835.81
1140.164, 41827.77
1140.646, 41861.52
1141.129, 41910.73
1141.611, 41930.26
1142.093, 41927.04
1142.575, 41908.46
1143.057, 41884.17
1143.539, 41891.43
1144.021, 41934.26
1144.503, 41966.34
1144.985, 41957.57
1145.468, 41915.03
1145.950, 41804.89
1146.432, 41695.72
1146.914, 41720.88
1147.396, 41821.91
1147.878, 41864.20
1148.360, 41829.38
1148.842, 41780.52
1149.325, 41745.06
1149.807, 41725.40
1150.289, 41733.51
1150.771, 41748.83
1151.253, 41759.12
1151.735, 41760.11
1152.217, 41729.03
1152.699, 41683.82
1153.182, 41700.09
1153.664, 41823.52
1154.146, 41896.71
1154.628, 41778.45
1155.110, 41668.23
1155.592, 41700.78
1156.074, 41777.65
1156.556, 41800.39
1157.038, 41782.50
1157.521, 41780.54
1158.003, 41805.64
1158.485, 41833.73
1158.967, 41860.26
1159.449, 41887.62
1159.931, 41941.58
1160.413, 41970.63
1160.895, 41911.19
1161.377, 41814.64
1161.860, 41786.77
1162.342, 41838.96
1162.824, 41847.77
1163.306, 41759.57
1163.788, 41729.15
1164.270, 41813.91
1164.752, 41889.44
1165.234, 41890.37
1165.717, 41862.00
1166.199, 41864.49
1166.681, 41892.70
1167.163, 41896.04
1167.645, 41869.91
1168.127, 41834.17
1168.609, 41780.15
1169.091, 41766.21
1169.573, 41821.97
1170.056, 41891.30
1170.538, 41920.29
1171.020, 41919.05
1171.502, 41915.57
1171.984, 41909.57
1172.466, 41891.42
1172.948, 41863.10
1173.430, 41890.27
1173.912, 41987.50
1174.395, 42075.90
1174.877, 42099.95
1175.359, 42084.47
1175.841, 42059.99
1176.323, 42030.57
1176.805, 42005.80
1177.287, 41985.78
1177.769, 41970.04
1178.252, 41958.99
1178.734, 41953.30
1179.216, 41953.32
1179.698, 41964.78
1180.180, 42027.69
1180.662, 42071.96
1181.144, 41969.18
1181.626, 41829.76
1182.109, 41837.16
1182.591, 41943.29
1183.073, 41979.02
1183.555, 41903.06
1184.037, 41838.33
1184.519, 41861.63
1185.001, 41895.05
1185.483, 41893.80
1185.965, 41891.81
1186.448, 41927.65
1186.930, 41972.60
1187.412, 41974.68
1187.894, 41935.69
1188.376, 41919.57
1188.858, 41965.84
1189.340, 41983.91
1189.822, 41946.49
1190.304, 41898.13
1190.787, 41837.67
1191.269, 41790.20
1191.751, 41797.17
1192.233, 41829.93
1192.715, 41786.32
1193.197, 41631.46
1193.679, 41563.30
1194.161, 41614.52
1194.644, 41654.48
1195.126, 41652.41
1195.608, 41643.42
1196.090, 41646.84
1196.572, 41664.64
1197.054, 41708.63
1197.536, 41769.61
1198.018, 41765.59
1198.500, 41699.95
1198.983, 41642.59
1199.465, 41603.98
1199.947, 41616.07
1200.429, 41691.77
1200.911, 41756.45
1201.393, 41725.98
1201.875, 41660.72
1202.357, 41683.89
1202.839, 41750.18
1203.322, 41762.07
1203.804, 41726.05
1204.286, 41666.74
1204.768, 41600.61
1205.250, 41575.34
1205.732, 41627.25
1206.214, 41683.42
1206.696, 41692.66
1207.179, 41673.84
1207.661, 41616.99
1208.143, 41560.87
1208.625, 41568.64
1209.107, 41618.00
1209.589, 41624.79
1210.071, 41560.95
1210.553, 41526.89
1211.036, 41590.06
1211.518, 41632.65
1212.000, 41593.60
1212.482, 41549.85
1212.964, 41554.43
1213.446, 41583.76
1213.928, 41603.92
1214.410, 41614.73
1214.892, 41609.85
1215.375, 41586.58
1215.857, 41551.45
1216.339, 41491.86
1216.821, 41462.56
1217.303, 41491.12
1217.785, 41529.30
1218.267, 41532.40
1218.749, 41517.36
1219.231, 41530.46
1219.714, 41568.63
1220.196, 41585.80
1220.678, 41582.59
1221.160, 41568.12
1221.642, 41544.90
1222.124, 41515.44
1222.606, 41480.60
1223.088, 41458.21
1223.571, 41483.76
1224.053, 41518.61
1224.535, 41490.73
1225.017, 41434.64
1225.499, 41408.60
1225.981, 41407.96
1226.463, 41402.26
1226.945, 41386.24
1227.427, 41387.48
1227.910, 41437.94
1228.392, 41469.82
1228.874, 41429.92
1229.356, 41378.33
1229.838, 41333.88
1230.320, 41315.79
1230.802, 41371.12
1231.284, 41469.89
1231.766, 41497.29
1232.249, 41412.49
1232.731, 41363.71
1233.213, 41374.81
1233.695, 41390.09
1234.177, 41414.70
1234.659, 41412.30
1235.141, 41342.11
1235.623, 41269.17
1236.106, 41294.25
1236.588, 41398.97
1237.070, 41462.17
1237.552, 41483.50
1238.034, 41473.56
1238.516, 41434.16
1238.998, 41424.36
1239.480, 41461.89
1239.963, 41521.97
1240.445, 41590.54
1240.927, 41644.26
1241.409, 41644.28
1241.891, 41607.66
1242.373, 41553.37
1242.855, 41493.18
1243.337, 41439.01
1243.819, 41401.13
1244.302, 41407.45
1244.784, 41467.23
1245.266, 41523.70
1245.748, 41566.47
1246.230, 41568.31
1246.712, 41465.67
1247.194, 41369.28
1247.676, 41371.26
1248.158, 41425.77
1248.641, 41485.48
1249.123, 41538.02
1249.605, 41520.42
1250.087, 41366.15
1250.569, 41300.89
1251.051, 41372.04
1251.533, 41430.40
1252.015, 41440.97
1252.498, 41425.84
1252.980, 41391.30
1253.462, 41358.71
1253.944, 41363.59
1254.426, 41402.99
1254.908, 41471.58
1255.390, 41562.39
1255.872, 41606.57
1256.354, 41600.73
1256.837, 41569.34
1257.319, 41522.65
1257.801, 41471.66
1258.283, 41421.68
1258.765, 41381.55
1259.247, 41359.59
1259.729, 41354.49
1260.211, 41368.55
1260.693, 41395.71
1261.176, 41431.34
1261.658, 41471.16
1262.140, 41505.74
1262.622, 41531.80
1263.104, 41564.20
1263.586, 41624.45
1264.068, 41666.91
1264.550, 41668.55
1265.033, 41661.73
1265.515, 41678.41
1265.997, 41679.52
1266.479, 41601.40
1266.961, 41475.35
1267.443, 41448.05
1267.925, 41538.51
1268.407, 41620.57
1268.890, 41695.59
1269.372, 41732.83
1269.854, 41723.93
1270.336, 41720.97
1270.818, 41754.42
1271.300, 41790.39
1271.782, 41785.71
1272.264, 41757.40
1272.746, 41731.91
1273.229, 41711.66
1273.711, 41707.43
1274.193, 41711.02
1274.675, 41696.27
1275.157, 41663.95
1275.639, 41649.00
1276.121, 41668.79
1276.603, 41700.66
1277.085, 41755.75
1277.568, 41792.53
1278.050, 41777.76
1278.532, 41747.98
1279.014, 41724.34
1279.496, 41712.08
1279.978, 41718.00
1280.460, 41741.91
1280.942, 41773.67
1281.425, 41812.26
1281.907, 41869.98
##END=



