##NAMES=Reedmergnerite
##RRUFFID=R060096
##IDEAL CHEMISTRY=NaBSi_3_O_8_
##LOCALITY=Dara-i-Pioz, Tadjikistan
##OWNER=RRUFF
##SOURCE=University of Arizona Mineral Museum
##DESCRIPTION=Colorless fragment
##STATUS=The identification of this mineral has been confirmed by X-ray diffraction and chemical analysis
##URL=rruff.info/R060096
##MEASURED CHEMISTRY=Na_1.00_B_1.00_Si_3.00_O_8_
93.46680, 66.16538
93.94891, 64.30843
94.43103, 64.46191
94.91315, 66.09753
95.39526, 68.20962
95.87738, 70.43456
96.35950, 72.91367
96.84161, 75.91770
97.32373, 79.32120
97.80585, 83.54048
98.28796, 89.12257
98.77008, 96.37888
99.25220, 104.4271
99.73431, 112.6655
100.2164, 122.3496
100.6985, 128.7093
101.1807, 132.0233
101.6628, 132.1613
102.1449, 128.3455
102.6270, 119.8102
103.1091, 107.2830
103.5912, 95.51211
104.0734, 83.50735
104.5555, 73.09716
105.0376, 64.76917
105.5197, 58.25523
106.0018, 53.10569
106.4839, 48.98131
106.9661, 45.91829
107.4482, 43.61937
107.9303, 42.18250
108.4124, 41.22088
108.8945, 40.52485
109.3766, 40.06061
109.8588, 39.89973
110.3409, 40.16877
110.8230, 40.89425
111.3051, 41.88935
111.7872, 43.18970
112.2693, 44.73129
112.7515, 46.47844
113.2336, 48.48338
113.7157, 50.53941
114.1978, 52.67137
114.6799, 54.91896
115.1620, 56.40208
115.6442, 56.55928
116.1263, 55.41105
116.6084, 53.35288
117.0905, 49.73860
117.5726, 45.68164
118.0547, 41.73269
118.5369, 38.00592
119.0190, 34.61468
119.5011, 31.70712
119.9832, 29.36111
120.4653, 27.40388
120.9474, 25.81754
121.4296, 24.50578
121.9117, 23.41636
122.3938, 22.52676
122.8759, 21.81045
123.3580, 21.17382
123.8401, 20.57394
124.3223, 20.12587
124.8044, 19.88269
125.2865, 19.79380
125.7686, 19.79902
126.2507, 19.86973
126.7328, 19.99883
127.2150, 20.08147
127.6971, 20.03408
128.1792, 20.03026
128.6613, 20.14586
129.1434, 20.37613
129.6255, 20.66455
130.1077, 20.94847
130.5898, 21.25713
131.0719, 21.73544
131.5540, 22.40235
132.0361, 23.23877
132.5182, 24.21079
133.0004, 25.30302
133.4825, 26.59605
133.9646, 28.38780
134.4467, 30.46579
134.9288, 32.30379
135.4109, 33.89567
135.8931, 35.11102
136.3752, 35.46984
136.8573, 34.63937
137.3394, 33.25173
137.8215, 31.53382
138.3036, 29.58641
138.7858, 27.68350
139.2679, 25.96182
139.7500, 24.39263
140.2321, 23.24707
140.7142, 22.81208
141.1963, 22.58868
141.6785, 22.39295
142.1606, 22.20932
142.6427, 22.12640
143.1248, 22.28508
143.6069, 22.87183
144.0890, 23.27609
144.5712, 23.31824
145.0533, 23.32828
145.5354, 23.54314
146.0175, 24.02463
146.4996, 24.66019
146.9817, 25.25010
147.4639, 25.70159
147.9460, 26.26261
148.4281, 26.87387
148.9102, 27.62130
149.3923, 28.60562
149.8744, 29.86517
150.3566, 31.38855
150.8387, 33.18531
151.3208, 35.15897
151.8029, 37.48790
152.2850, 40.46334
152.7671, 43.90374
153.2493, 47.32804
153.7314, 51.08086
154.2135, 54.10817
154.6956, 55.04947
155.1777, 53.56512
155.6598, 50.77828
156.1420, 47.13449
156.6241, 42.58588
157.1062, 38.40493
157.5883, 35.12164
158.0704, 32.54323
158.5525, 30.63195
159.0347, 29.44290
159.5168, 28.74686
159.9989, 28.22588
160.4810, 27.91775
160.9631, 27.71185
161.4452, 27.54966
161.9274, 27.46614
162.4095, 27.48763
162.8916, 27.62147
163.3737, 27.88580
163.8558, 28.34672
164.3379, 29.16882
164.8201, 29.99233
165.3022, 30.64011
165.7843, 31.27796
166.2664, 32.14257
166.7485, 33.39710
167.2306, 34.97921
167.7128, 36.39952
168.1949, 37.47492
168.6770, 38.58675
169.1591, 39.75291
169.6412, 41.02123
170.1233, 42.46086
170.6055, 44.10683
171.0876, 45.97997
171.5697, 48.12739
172.0518, 50.65379
172.5339, 53.28935
173.0160, 55.79679
173.4982, 58.24033
173.9803, 60.95905
174.4624, 64.16212
174.9445, 67.92376
175.4266, 72.20277
175.9087, 77.25192
176.3909, 82.66778
176.8730, 88.53648
177.3551, 94.91409
177.8372, 100.4870
178.3193, 104.2934
178.8014, 106.4211
179.2836, 106.7860
179.7657, 104.3802
180.2478, 100.5284
180.7299, 96.94417
181.2120, 93.51026
181.6941, 90.90299
182.1763, 89.70626
182.6584, 89.58350
183.1405, 90.10718
183.6226, 91.11092
184.1047, 92.60760
184.5868, 94.73342
185.0690, 97.85419
185.5511, 101.0839
186.0332, 103.7297
186.5153, 106.1477
186.9974, 109.0562
187.4795, 113.0160
187.9617, 117.9670
188.4438, 122.9065
188.9259, 128.0498
189.4080, 132.9561
189.8901, 137.4267
190.3722, 141.5462
190.8544, 145.5281
191.3365, 149.5451
191.8186, 153.6371
192.3007, 157.4019
192.7828, 161.3181
193.2649, 164.5017
193.7471, 166.5883
194.2292, 167.6295
194.7113, 167.7883
195.1934, 167.0552
195.6755, 165.1037
196.1576, 164.3988
196.6398, 164.2764
197.1219, 165.6040
197.6040, 169.0589
198.0861, 174.4850
198.5682, 181.0913
199.0503, 188.0282
199.5325, 195.1936
200.0146, 204.0556
200.4967, 215.0699
200.9788, 227.2337
201.4609, 240.6077
201.9430, 254.9906
202.4252, 268.9174
202.9073, 281.7740
203.3894, 293.4554
203.8715, 299.5967
204.3536, 298.4730
204.8357, 292.5843
205.3179, 283.0440
205.8000, 269.7815
206.2821, 256.1389
206.7642, 244.7180
207.2463, 235.4395
207.7284, 228.7275
208.2106, 224.8681
208.6927, 223.5657
209.1748, 224.5954
209.6569, 228.1096
210.1390, 233.3978
210.6211, 240.1133
211.1033, 248.0838
211.5854, 257.3637
212.0675, 268.1639
212.5496, 280.2952
213.0317, 293.3810
213.5138, 307.2755
213.9960, 322.3744
214.4781, 338.9359
214.9602, 356.7091
215.4423, 375.3744
215.9244, 394.8332
216.4065, 415.0565
216.8886, 435.7886
217.3708, 458.1609
217.8529, 479.2983
218.3350, 499.5194
218.8171, 517.7575
219.2992, 532.2466
219.7813, 542.2275
220.2635, 547.6168
220.7456, 547.5566
221.2277, 541.3046
221.7098, 529.4623
222.1919, 511.6033
222.6740, 488.8794
223.1562, 462.7079
223.6383, 433.6407
224.1204, 401.9587
224.6025, 371.0439
225.0846, 340.2264
225.5667, 311.3434
226.0489, 284.6429
226.5310, 260.0934
227.0131, 237.6355
227.4952, 217.0806
227.9773, 198.5381
228.4594, 181.9595
228.9416, 168.4054
229.4237, 155.9313
229.9058, 144.1626
230.3879, 133.1916
230.8700, 123.4236
231.3521, 115.1138
231.8343, 108.1979
232.3164, 101.9498
232.7985, 96.47607
233.2806, 91.48569
233.7627, 86.90865
234.2448, 82.75247
234.7270, 79.01546
235.2091, 75.68922
235.6912, 72.78466
236.1733, 70.48461
236.6554, 68.95193
237.1375, 67.69225
237.6197, 66.71967
238.1018, 65.91457
238.5839, 64.95103
239.0660, 63.55318
239.5481, 61.91951
240.0302, 61.17066
240.5124, 61.66778
240.9945, 62.44788
241.4766, 63.46389
241.9587, 64.53731
242.4408, 65.23817
242.9229, 65.35693
243.4051, 64.90702
243.8872, 64.01047
244.3693, 62.72358
244.8514, 61.02238
245.3335, 58.76007
245.8156, 56.05383
246.2978, 53.23218
246.7799, 50.37968
247.2620, 47.56811
247.7441, 44.89726
248.2262, 42.34273
248.7083, 39.96881
249.1905, 37.75303
249.6726, 35.73560
250.1547, 34.05557
250.6368, 32.83522
251.1189, 31.90745
251.6010, 30.97023
252.0832, 29.99878
252.5653, 29.11083
253.0474, 28.38239
253.5295, 27.79534
254.0116, 27.26049
254.4937, 26.80701
254.9759, 26.33380
255.4580, 25.67866
255.9401, 24.82900
256.4222, 24.08913
256.9043, 23.71993
257.3864, 23.65137
257.8686, 23.51812
258.3507, 23.21928
258.8328, 22.87789
259.3149, 22.61263
259.7970, 22.41484
260.2791, 22.21005
260.7613, 21.93286
261.2434, 21.60087
261.7255, 21.30586
262.2076, 21.04071
262.6897, 20.84660
263.1718, 20.76379
263.6540, 20.76818
264.1361, 20.77547
264.6182, 20.72573
265.1003, 20.62979
265.5824, 20.54612
266.0645, 20.45024
266.5467, 20.41003
267.0288, 20.46922
267.5109, 20.60148
267.9930, 20.75326
268.4751, 20.91888
268.9572, 21.07895
269.4394, 21.12391
269.9215, 20.91634
270.4036, 20.80578
270.8857, 20.98965
271.3678, 21.33296
271.8499, 21.61449
272.3321, 21.68505
272.8142, 21.63461
273.2963, 21.79788
273.7784, 22.36175
274.2605, 22.82587
274.7426, 22.96412
275.2248, 22.96648
275.7069, 23.05108
276.1890, 23.31870
276.6711, 23.72690
277.1532, 24.17858
277.6353, 24.73284
278.1175, 25.21881
278.5996, 25.53010
279.0817, 25.80572
279.5638, 26.16634
280.0459, 26.65846
280.5280, 27.26386
281.0102, 27.94655
281.4923, 28.66688
281.9744, 29.56112
282.4565, 30.64182
282.9386, 31.86648
283.4207, 33.20333
283.9029, 34.64356
284.3850, 36.19339
284.8671, 37.85826
285.3492, 39.62643
285.8313, 41.55517
286.3134, 43.73847
286.7956, 45.99029
287.2777, 48.29621
287.7598, 50.59420
288.2419, 52.73444
288.7240, 54.54258
289.2061, 55.95528
289.6883, 57.20148
290.1704, 58.25405
290.6525, 59.17690
291.1346, 59.99940
291.6167, 60.71865
292.0988, 61.28567
292.5810, 61.60048
293.0631, 61.60253
293.5452, 61.99929
294.0273, 62.80622
294.5094, 63.98375
294.9915, 65.62725
295.4737, 67.64379
295.9558, 69.82513
296.4379, 71.98854
296.9200, 74.17476
297.4021, 76.90539
297.8842, 80.37672
298.3664, 84.23827
298.8485, 88.36573
299.3306, 92.85220
299.8127, 97.74712
300.2948, 103.0366
300.7769, 108.8421
301.2591, 115.6370
301.7412, 123.5078
302.2233, 132.4079
302.7054, 142.6515
303.1875, 153.7088
303.6696, 165.4075
304.1518, 177.6021
304.6339, 189.6143
305.1160, 200.2659
305.5981, 210.6254
306.0802, 217.4104
306.5623, 220.7019
307.0445, 220.6752
307.5266, 216.9745
308.0087, 209.7200
308.4908, 200.0047
308.9729, 189.1425
309.4550, 176.1264
309.9372, 164.5987
310.4193, 154.3076
310.9014, 145.3335
311.3835, 137.6978
311.8656, 131.4166
312.3477, 126.6497
312.8299, 123.7152
313.3120, 122.8646
313.7941, 122.1037
314.2762, 122.5034
314.7583, 121.9624
315.2404, 119.7378
315.7226, 115.8570
316.2047, 110.4992
316.6868, 103.6945
317.1689, 95.54018
317.6510, 87.58547
318.1331, 79.30342
318.6153, 71.75031
319.0974, 65.13842
319.5795, 59.43398
320.0616, 54.63084
320.5437, 50.74268
321.0258, 47.62063
321.5080, 44.73587
321.9901, 42.09873
322.4722, 39.76953
322.9543, 37.87777
323.4364, 36.23245
323.9185, 34.62925
324.4007, 33.01411
324.8828, 31.45950
325.3649, 30.11575
325.8470, 29.09395
326.3291, 28.08189
326.8112, 27.04919
327.2934, 26.04006
327.7755, 25.03160
328.2576, 24.04965
328.7397, 23.19502
329.2218, 22.59932
329.7039, 22.33808
330.1861, 21.96519
330.6682, 21.35670
331.1503, 20.76916
331.6324, 20.32304
332.1145, 19.99263
332.5966, 19.69212
333.0788, 19.35851
333.5609, 18.99334
334.0430, 18.62404
334.5251, 18.21935
335.0072, 17.84152
335.4893, 17.50470
335.9715, 17.20297
336.4536, 16.92697
336.9357, 16.67362
337.4178, 16.44337
337.8999, 16.24662
338.3820, 16.11120
338.8642, 15.96881
339.3463, 15.82518
339.8284, 15.66612
340.3105, 15.46064
340.7926, 15.20636
341.2747, 14.95793
341.7568, 14.80545
342.2390, 14.79892
342.7211, 14.76619
343.2032, 14.69878
343.6853, 14.61638
344.1674, 14.51694
344.6495, 14.40892
345.1317, 14.31793
345.6138, 14.28068
346.0959, 14.30514
346.5780, 14.24894
347.0601, 13.99926
347.5422, 13.77496
348.0244, 13.65892
348.5065, 13.60818
348.9886, 13.53228
349.4707, 13.36901
349.9528, 13.15325
350.4349, 13.03536
350.9171, 13.09627
351.3992, 13.13121
351.8813, 13.08210
352.3634, 13.00019
352.8455, 12.94298
353.3276, 12.92988
353.8098, 12.92521
354.2919, 12.87162
354.7740, 12.76364
355.2561, 12.62139
355.7382, 12.34278
356.2203, 12.11048
356.7025, 12.05915
357.1846, 12.18355
357.6667, 12.36006
358.1488, 12.48383
358.6309, 12.55367
359.1130, 12.59030
359.5952, 12.59549
360.0773, 12.55961
360.5594, 12.44742
361.0415, 12.29490
361.5236, 12.17376
362.0057, 12.13109
362.4879, 12.14522
362.9700, 12.14721
363.4521, 12.12295
363.9342, 12.11867
364.4163, 12.17575
364.8984, 12.24811
365.3806, 12.29429
365.8627, 12.30440
366.3448, 12.27216
366.8269, 12.16754
367.3090, 11.97762
367.7911, 11.83007
368.2733, 11.74722
368.7554, 11.72756
369.2375, 11.79683
369.7196, 11.94695
370.2017, 12.08509
370.6838, 12.13513
371.1660, 12.11358
371.6481, 12.09757
372.1302, 12.09548
372.6123, 12.09462
373.0944, 12.07015
373.5765, 12.03988
374.0587, 12.04667
374.5408, 12.12163
375.0229, 12.23236
375.5050, 12.33353
375.9871, 12.42368
376.4692, 12.51380
376.9514, 12.61334
377.4335, 12.71296
377.9156, 12.80834
378.3977, 12.91506
378.8798, 12.97422
379.3619, 12.89099
379.8441, 12.70853
380.3262, 12.61550
380.8083, 12.67040
381.2904, 12.82203
381.7725, 13.04554
382.2546, 13.33881
382.7368, 13.56142
383.2189, 13.60851
383.7010, 13.58442
384.1831, 13.63148
384.6652, 13.76678
385.1473, 13.94148
385.6295, 14.10188
386.1116, 14.27031
386.5937, 14.55739
387.0758, 15.01143
387.5579, 15.54252
388.0400, 16.17650
388.5222, 16.85770
389.0043, 17.38353
389.4864, 17.61541
389.9685, 17.70464
390.4506, 18.03856
390.9327, 18.66633
391.4149, 19.36849
391.8970, 20.18415
392.3791, 21.01437
392.8612, 21.74240
393.3433, 22.34165
393.8254, 22.86160
394.3076, 23.36502
394.7897, 23.87203
395.2718, 24.20057
395.7539, 24.28941
396.2360, 24.27482
396.7181, 24.23637
397.2003, 24.15886
397.6824, 23.95083
398.1645, 23.52794
398.6466, 22.97003
399.1287, 22.67536
399.6108, 22.80647
400.0930, 23.01762
400.5751, 23.23305
401.0572, 23.53147
401.5393, 23.99020
402.0214, 24.63505
402.5035, 25.46128
402.9857, 26.47502
403.4678, 27.72875
403.9499, 29.02534
404.4320, 30.35302
404.9141, 31.73506
405.3962, 33.39847
405.8784, 35.15531
406.3605, 36.56263
406.8426, 37.31211
407.3247, 37.41420
407.8068, 36.88169
408.2889, 35.51223
408.7711, 33.73586
409.2532, 31.38057
409.7353, 28.83868
410.2174, 26.50709
410.6995, 24.52999
411.1816, 22.79287
411.6638, 21.08477
412.1459, 19.35825
412.6280, 17.95426
413.1101, 17.04080
413.5922, 16.39193
414.0743, 15.96396
414.5565, 15.71715
415.0386, 15.53555
415.5207, 15.35652
416.0028, 15.18239
416.4849, 15.01708
416.9670, 14.85096
417.4492, 14.71858
417.9313, 14.67491
418.4134, 14.66387
418.8955, 14.59836
419.3776, 14.41863
419.8597, 14.27174
420.3419, 14.31917
420.8240, 14.54347
421.3061, 14.77825
421.7882, 14.95881
422.2703, 15.15855
422.7524, 15.46321
423.2346, 15.86986
423.7167, 16.31780
424.1988, 16.81520
424.6809, 17.32739
425.1630, 17.81777
425.6451, 18.28102
426.1273, 18.70910
426.6094, 19.08841
427.0915, 19.42229
427.5736, 19.74815
428.0557, 20.11110
428.5378, 20.41853
429.0200, 20.60662
429.5021, 20.71130
429.9842, 20.77596
430.4663, 20.80638
430.9484, 20.88338
431.4305, 21.15687
431.9127, 21.76549
432.3948, 22.23499
432.8769, 22.30980
433.3590, 22.43541
433.8411, 22.97914
434.3232, 23.90203
434.8054, 24.90005
435.2875, 25.72562
435.7696, 26.40944
436.2517, 27.29916
436.7338, 28.46317
437.2159, 29.76935
437.6981, 31.17766
438.1802, 32.72668
438.6623, 34.49479
439.1444, 36.49516
439.6265, 38.63873
440.1086, 40.82418
440.5908, 43.10858
441.0729, 45.24001
441.5550, 47.61768
442.0371, 49.48484
442.5192, 50.57231
443.0013, 50.86522
443.4835, 50.39069
443.9656, 49.13091
444.4477, 47.15139
444.9298, 44.59497
445.4119, 41.20013
445.8940, 37.86477
446.3762, 34.67189
446.8583, 31.77494
447.3404, 29.37775
447.8225, 27.52132
448.3046, 26.06491
448.7867, 24.96843
449.2689, 24.20188
449.7510, 23.61027
450.2331, 23.21697
450.7152, 22.91724
451.1973, 22.66415
451.6794, 22.44029
452.1616, 22.19635
452.6437, 21.82876
453.1258, 21.50841
453.6079, 21.41007
454.0900, 21.51461
454.5721, 21.70579
455.0543, 21.94343
455.5364, 22.22904
456.0185, 22.57028
456.5006, 22.95950
456.9827, 23.40053
457.4648, 23.90314
457.9470, 24.45252
458.4291, 25.03598
458.9112, 25.65136
459.3933, 26.28697
459.8754, 26.89670
460.3575, 27.49349
460.8397, 28.50551
461.3218, 30.16685
461.8039, 31.89583
462.2860, 33.44670
462.7681, 35.01138
463.2502, 36.85886
463.7324, 39.08027
464.2145, 41.54155
464.6966, 44.09173
465.1787, 46.88152
465.6608, 49.24713
466.1429, 51.71479
466.6251, 53.28988
467.1072, 53.48584
467.5893, 52.42081
468.0714, 50.39431
468.5535, 47.49981
469.0356, 43.91658
469.5178, 40.01371
469.9999, 35.42880
470.4820, 31.46050
470.9641, 28.64275
471.4462, 26.41791
471.9283, 24.45361
472.4105, 22.70116
472.8926, 21.23927
473.3747, 20.20485
473.8568, 19.51723
474.3389, 18.89745
474.8210, 18.32254
475.3032, 17.83196
475.7853, 17.44468
476.2674, 17.16425
476.7495, 17.02568
477.2316, 17.10657
477.7137, 17.22112
478.1959, 17.22174
478.6780, 17.15248
479.1601, 17.14335
479.6422, 17.23669
480.1243, 17.38458
480.6064, 17.50971
481.0886, 17.59343
481.5707, 17.81025
482.0528, 18.21148
482.5349, 18.71183
483.0170, 19.27390
483.4991, 19.88723
483.9813, 20.51617
484.4634, 21.13291
484.9455, 21.79743
485.4276, 22.69327
485.9097, 23.94937
486.3918, 25.26723
486.8740, 26.67609
487.3561, 28.12103
487.8382, 29.62480
488.3203, 31.14850
488.8024, 32.55478
489.2845, 33.74044
489.7667, 34.71505
490.2488, 35.54459
490.7309, 35.97890
491.2130, 36.69468
491.6951, 37.91639
492.1772, 39.44595
492.6594, 41.07689
493.1415, 42.75398
493.6236, 44.57256
494.1057, 46.60529
494.5878, 48.85723
495.0699, 51.27675
495.5521, 53.78141
496.0342, 56.60461
496.5163, 59.96022
496.9984, 63.74897
497.4805, 67.77109
497.9626, 71.80344
498.4448, 76.26714
498.9269, 81.40422
499.4090, 87.22029
499.8911, 93.78964
500.3732, 101.1505
500.8553, 109.1988
501.3375, 117.9036
501.8196, 127.3435
502.3017, 137.1347
502.7838, 148.3026
503.2659, 158.9189
503.7480, 168.5369
504.2302, 176.5742
504.7123, 182.0938
505.1944, 184.6179
505.6765, 183.9519
506.1586, 179.4258
506.6407, 168.6626
507.1228, 157.6069
507.6049, 145.2484
508.0871, 133.5604
508.5692, 123.4839
509.0513, 115.3002
509.5334, 109.1967
510.0155, 105.3863
510.4977, 103.7395
510.9798, 103.7848
511.4619, 105.7176
511.9440, 108.9327
512.4261, 113.5210
512.9083, 119.1118
513.3904, 125.7338
513.8725, 133.4045
514.3546, 141.0251
514.8367, 148.2857
515.3188, 154.8767
515.8010, 160.2925
516.2831, 164.7222
516.7652, 166.8109
517.2473, 165.4600
517.7294, 160.8699
518.2115, 154.4035
518.6937, 145.3317
519.1758, 135.5326
519.6579, 125.2693
520.1400, 114.9959
520.6221, 105.3661
521.1042, 96.50857
521.5864, 88.49482
522.0685, 81.35625
522.5506, 75.06078
523.0327, 70.00114
523.5148, 66.58321
523.9969, 63.66387
524.4791, 60.95330
524.9612, 58.50793
525.4433, 56.45414
525.9254, 54.84634
526.4075, 53.60021
526.8896, 52.64077
527.3718, 51.99108
527.8539, 51.51127
528.3360, 51.21051
528.8181, 51.08882
529.3002, 51.12280
529.7823, 51.33210
530.2645, 51.75543
530.7466, 52.41612
531.2287, 53.27330
531.7108, 54.24117
532.1929, 55.32981
532.6750, 56.71110
533.1572, 58.47421
533.6393, 60.45789
534.1214, 62.52188
534.6035, 64.65495
535.0856, 66.94099
535.5677, 69.45241
536.0499, 72.06857
536.5320, 74.92931
537.0141, 77.85188
537.4962, 80.40998
537.9783, 82.43061
538.4604, 83.89832
538.9426, 84.80458
539.4247, 85.32542
539.9068, 84.67554
540.3889, 82.38438
540.8710, 79.47612
541.3531, 76.31002
541.8353, 72.96277
542.3174, 69.41956
542.7995, 65.66588
543.2816, 61.75657
543.7637, 57.72766
544.2458, 53.36595
544.7280, 49.53609
545.2101, 46.63215
545.6922, 44.09507
546.1743, 41.59249
546.6564, 39.18435
547.1385, 37.19420
547.6207, 35.87749
548.1028, 34.96178
548.5849, 34.06709
549.0670, 33.19535
549.5491, 32.45327
550.0313, 31.89721
550.5134, 31.46650
550.9955, 31.07869
551.4776, 30.72528
551.9597, 30.46909
552.4418, 30.29159
552.9240, 30.24362
553.4061, 30.41475
553.8882, 30.75642
554.3703, 31.11142
554.8524, 31.39783
555.3345, 31.67341
555.8167, 32.06489
556.2988, 32.54013
556.7809, 33.20945
557.2630, 33.98730
557.7451, 35.00964
558.2272, 36.35310
558.7094, 38.00946
559.1915, 39.92372
559.6736, 42.06786
560.1557, 44.46505
560.6378, 47.13383
561.1199, 50.03497
561.6021, 53.41523
562.0842, 57.53891
562.5663, 61.93510
563.0484, 66.29806
563.5305, 70.59499
564.0126, 74.71233
564.4948, 78.56316
564.9769, 82.25159
565.4590, 85.85826
565.9411, 89.37638
566.4232, 92.66772
566.9053, 95.58064
567.3875, 98.57621
567.8696, 102.3775
568.3517, 107.1285
568.8338, 112.3673
569.3159, 118.0231
569.7980, 124.1856
570.2802, 130.8631
570.7623, 138.0962
571.2444, 145.9637
571.7265, 154.4578
572.2086, 163.8225
572.6907, 174.2909
573.1729, 185.8177
573.6550, 198.9941
574.1371, 213.8850
574.6192, 230.5206
575.1013, 248.7634
575.5834, 268.7825
576.0656, 291.0356
576.5477, 316.2531
577.0298, 342.4664
577.5119, 368.7892
577.9940, 394.5757
578.4761, 417.4919
578.9583, 437.9521
579.4404, 452.2628
579.9225, 457.0773
580.4046, 451.8922
580.8867, 438.3051
581.3688, 412.7811
581.8510, 382.7521
582.3331, 348.7928
582.8152, 313.2940
583.2973, 278.3209
583.7794, 244.9766
584.2615, 214.3829
584.7437, 188.1272
585.2258, 166.3088
585.7079, 147.1069
586.1900, 130.7150
586.6721, 116.7212
587.1542, 105.5739
587.6363, 96.36456
588.1184, 88.25426
588.6005, 80.99227
589.0826, 74.57823
589.5648, 69.17538
590.0469, 64.62387
590.5290, 60.32410
591.0111, 56.18721
591.4932, 52.47754
591.9753, 49.34753
592.4575, 46.74879
592.9396, 44.52435
593.4217, 42.78264
593.9038, 41.07545
594.3859, 39.17776
594.8680, 37.30420
595.3502, 35.70786
595.8323, 34.39045
596.3144, 33.17483
596.7965, 31.94862
597.2786, 30.75202
597.7607, 29.74143
598.2429, 29.01597
598.7250, 28.29638
599.2071, 27.56269
599.6892, 26.83139
600.1713, 26.07778
600.6534, 25.33318
601.1356, 24.68303
601.6177, 24.20489
602.0998, 23.81268
602.5819, 23.34907
603.0640, 22.81399
603.5461, 22.29553
604.0283, 21.80487
604.5104, 21.35704
604.9925, 20.99805
605.4746, 20.71387
605.9567, 20.39914
606.4388, 19.95404
606.9210, 19.55677
607.4031, 19.35114
607.8852, 19.25770
608.3673, 19.10085
608.8494, 18.83139
609.3315, 18.58119
609.8137, 18.55085
610.2958, 18.78318
610.7779, 18.78359
611.2600, 18.31606
611.7421, 17.89760
612.2242, 17.63375
612.7064, 17.49214
613.1885, 17.45923
613.6706, 17.52545
614.1527, 17.60741
614.6348, 17.63039
615.1169, 17.61227
615.5991, 17.61806
616.0812, 17.65761
616.5633, 17.65709
617.0454, 17.54487
617.5275, 17.39033
618.0096, 17.35775
618.4918, 17.48505
618.9739, 17.59156
619.4560, 17.56159
619.9381, 17.56016
620.4202, 17.78024
620.9023, 18.15694
621.3845, 18.46470
621.8666, 18.57867
622.3487, 18.57163
622.8308, 18.60656
623.3129, 18.71489
623.7950, 18.76449
624.2772, 18.65023
624.7593, 18.57677
625.2414, 18.61564
625.7235, 18.76451
626.2056, 19.01938
626.6877, 19.39250
627.1699, 19.82687
627.6520, 20.30986
628.1341, 20.80916
628.6162, 21.16552
629.0983, 21.33035
629.5804, 21.57682
630.0626, 22.16400
630.5447, 23.03552
631.0268, 23.76592
631.5089, 24.25385
631.9910, 24.75648
632.4731, 25.29667
632.9553, 25.88610
633.4374, 26.59258
633.9195, 27.37531
634.4016, 28.08630
634.8837, 28.62198
635.3658, 28.99367
635.8480, 29.22114
636.3301, 29.30126
636.8122, 29.26700
637.2943, 29.31430
637.7764, 29.03136
638.2585, 27.95393
638.7407, 26.25207
639.2228, 24.68150
639.7049, 23.55618
640.1870, 22.55733
640.6691, 21.42534
641.1512, 20.24047
641.6334, 19.16740
642.1155, 18.25522
642.5976, 17.47444
643.0797, 16.80277
643.5618, 16.24015
644.0439, 15.77011
644.5261, 15.50253
645.0082, 15.19307
645.4903, 14.74923
645.9724, 14.28951
646.4545, 13.91921
646.9366, 13.64940
647.4188, 13.42474
647.9009, 13.19820
648.3830, 12.99558
648.8651, 12.90809
649.3472, 12.94013
649.8293, 12.89991
650.3115, 12.69448
650.7936, 12.43653
651.2757, 12.26791
651.7578, 12.18912
652.2399, 12.14130
652.7220, 12.17758
653.2042, 12.18214
653.6863, 12.06880
654.1684, 11.89612
654.6505, 11.74558
655.1326, 11.64399
655.6147, 11.59026
656.0969, 11.60482
656.5790, 11.67852
657.0611, 11.63251
657.5432, 11.38856
658.0253, 11.19139
658.5074, 11.14469
658.9896, 11.17164
659.4717, 11.23523
659.9538, 11.32867
660.4359, 11.37551
660.9180, 11.32666
661.4001, 11.22661
661.8823, 11.09894
662.3644, 10.95814
662.8465, 10.84691
663.3286, 10.78173
663.8107, 10.74378
664.2928, 10.69824
664.7750, 10.62759
665.2571, 10.66791
665.7392, 11.00372
666.2213, 11.23363
666.7034, 11.19683
667.1855, 11.04370
667.6677, 10.93693
668.1498, 10.90709
668.6319, 10.88418
669.1140, 10.78790
669.5961, 10.66506
670.0782, 10.63996
670.5604, 10.71363
671.0425, 10.76268
671.5246, 10.72238
672.0067, 10.66342
672.4888, 10.71013
672.9709, 10.90435
673.4531, 10.97776
673.9352, 10.82647
674.4173, 10.66103
674.8994, 10.55734
675.3815, 10.50542
675.8636, 10.48735
676.3458, 10.49635
676.8279, 10.52622
677.3100, 10.57902
677.7921, 10.64857
678.2742, 10.69807
678.7563, 10.73223
679.2385, 10.72511
679.7206, 10.62691
680.2027, 10.51651
680.6848, 10.50550
681.1669, 10.59501
681.6490, 10.65913
682.1312, 10.65972
682.6133, 10.63259
683.0954, 10.57956
683.5775, 10.52168
684.0596, 10.50069
684.5417, 10.52803
685.0239, 10.57614
685.5060, 10.62190
685.9881, 10.66354
686.4702, 10.63380
686.9523, 10.44875
687.4344, 10.35528
687.9166, 10.51728
688.3987, 10.73624
688.8808, 10.86215
689.3629, 10.88614
689.8450, 10.85834
690.3271, 10.74538
690.8093, 10.63518
691.2914, 10.62469
691.7735, 10.68726
692.2556, 10.74700
692.7377, 10.78111
693.2198, 10.81963
693.7020, 10.90782
694.1841, 11.04406
694.6662, 11.07479
695.1483, 10.92723
695.6304, 10.77746
696.1125, 10.48441
696.5947, 10.32658
697.0768, 10.70089
697.5589, 11.49520
698.0410, 12.03167
698.5231, 11.82697
699.0052, 11.31514
699.4874, 10.95795
699.9695, 10.75202
700.4516, 10.70436
700.9337, 10.82559
701.4158, 11.01084
701.8979, 11.17357
702.3801, 11.31109
702.8622, 11.37735
703.3443, 11.25022
703.8264, 11.21342
704.3085, 11.40912
704.7906, 11.61264
705.2728, 11.61632
705.7549, 11.46124
706.2370, 11.34945
706.7191, 11.40397
707.2012, 11.53012
707.6833, 11.61659
708.1655, 11.66139
708.6476, 11.63684
709.1297, 11.52464
709.6118, 11.42234
710.0939, 11.41434
710.5760, 11.48056
711.0582, 11.51124
711.5403, 11.46995
712.0224, 11.44727
712.5045, 11.48551
712.9866, 11.51347
713.4688, 11.44345
713.9509, 11.32314
714.4330, 11.29063
714.9151, 11.42461
715.3972, 11.59028
715.8793, 11.56859
716.3615, 11.40210
716.8436, 11.37899
717.3257, 11.55764
717.8078, 11.71550
718.2899, 11.68071
718.7720, 11.55214
719.2542, 11.60834
719.7363, 11.93249
720.2184, 12.21862
720.7005, 12.47302
721.1826, 12.65152
721.6647, 12.66889
722.1469, 12.60729
722.6290, 12.61764
723.1111, 12.75357
723.5932, 12.93188
724.0753, 13.04600
724.5574, 13.11713
725.0396, 13.25268
725.5217, 13.45809
726.0038, 13.71820
726.4859, 14.06098
726.9680, 14.41162
727.4501, 14.61162
727.9323, 14.61543
728.4144, 14.77044
728.8965, 15.14943
729.3786, 15.62339
729.8607, 16.13488
730.3428, 16.70669
730.8250, 17.39369
731.3071, 18.19162
731.7892, 19.00584
732.2713, 19.71624
732.7534, 20.39684
733.2355, 21.31919
733.7177, 22.50082
734.1998, 23.54546
734.6819, 24.31606
735.1640, 24.97964
735.6461, 25.66290
736.1282, 26.37530
736.6104, 27.23009
737.0925, 28.28863
737.5746, 29.40689
738.0567, 30.51254
738.5388, 31.68579
739.0209, 32.98675
739.5031, 34.43574
739.9852, 36.07449
740.4673, 37.95309
740.9494, 39.98147
741.4315, 41.91384
741.9136, 43.79720
742.3958, 46.18548
742.8779, 49.20879
743.3600, 52.51004
743.8421, 55.88064
744.3242, 59.33958
744.8063, 62.91596
745.2885, 66.62200
745.7706, 70.38110
746.2527, 74.70918
746.7348, 78.58462
747.2169, 81.52670
747.6990, 83.50090
748.1812, 84.67010
748.6633, 85.07723
749.1454, 84.35225
749.6275, 81.89952
750.1096, 77.99550
750.5917, 73.47523
751.0739, 68.33546
751.5560, 62.93737
752.0381, 57.27483
752.5202, 51.68404
753.0023, 46.55580
753.4844, 41.88263
753.9666, 37.89269
754.4487, 34.81942
754.9308, 32.05695
755.4129, 29.36002
755.8950, 26.94011
756.3771, 25.09495
756.8593, 23.79278
757.3414, 22.67769
757.8235, 21.54383
758.3056, 20.44855
758.7877, 19.47978
759.2698, 18.62905
759.7520, 17.85979
760.2341, 17.16083
760.7162, 16.58481
761.1983, 16.19346
761.6804, 15.94684
762.1625, 15.63822
762.6447, 15.18048
763.1268, 14.80396
763.6089, 14.53327
764.0910, 14.32141
764.5731, 14.19211
765.0552, 14.09044
765.5374, 13.91402
766.0195, 13.62471
766.5016, 13.30929
766.9837, 12.96509
767.4658, 12.66864
767.9479, 12.60429
768.4301, 12.73602
768.9122, 12.79735
769.3943, 12.66835
769.8764, 12.45805
770.3585, 12.33447
770.8406, 12.30862
771.3228, 12.24484
771.8049, 12.08201
772.2870, 11.97868
772.7691, 12.07685
773.2512, 12.17750
773.7333, 12.06252
774.2155, 11.75683
774.6976, 11.52616
775.1797, 11.49216
775.6618, 11.54219
776.1439, 11.64325
776.6260, 11.75706
777.1082, 11.82321
777.5903, 11.83282
778.0724, 11.80476
778.5545, 11.74729
779.0366, 11.67977
779.5187, 11.65275
780.0009, 11.66805
780.4830, 11.72060
780.9651, 11.85671
781.4472, 11.94427
781.9293, 11.85011
782.4114, 11.67274
782.8936, 11.61201
783.3757, 11.71440
783.8578, 11.77979
784.3399, 11.70406
784.8220, 11.63034
785.3041, 11.63747
785.7863, 11.72154
786.2684, 11.89967
786.7505, 12.16014
787.2326, 12.37503
787.7147, 12.38135
788.1968, 12.26098
788.6790, 12.30099
789.1611, 12.50489
789.6432, 12.63791
790.1253, 12.60544
790.6074, 12.57386
791.0895, 12.71844
791.5717, 13.02049
792.0538, 13.25799
792.5359, 13.35210
793.0180, 13.49744
793.5001, 13.72181
793.9822, 13.99322
794.4644, 14.31054
794.9465, 14.65613
795.4286, 14.99385
795.9107, 15.30537
796.3928, 15.64099
796.8749, 16.07865
797.3571, 16.56002
797.8392, 16.95582
798.3213, 17.27355
798.8034, 17.61731
799.2855, 18.03316
799.7676, 18.47797
800.2498, 18.86730
800.7319, 19.18903
801.2140, 19.72213
801.6961, 20.56416
802.1782, 21.44383
802.6603, 22.32510
803.1425, 23.18705
803.6246, 23.96646
804.1067, 24.69599
804.5888, 25.52930
805.0709, 26.51831
805.5530, 27.59925
806.0352, 28.74398
806.5173, 29.95270
806.9994, 31.22367
807.4815, 32.56017
807.9636, 34.02073
808.4457, 35.64013
808.9279, 37.28186
809.4100, 38.77920
809.8921, 40.12778
810.3742, 41.13430
810.8563, 41.78686
811.3384, 42.15016
811.8206, 42.36113
812.3027, 42.14418
812.7848, 40.98824
813.2669, 38.74043
813.7490, 36.60424
814.2311, 34.75392
814.7133, 32.80323
815.1954, 30.45483
815.6775, 28.11814
816.1596, 26.21776
816.6417, 24.72231
817.1238, 23.29377
817.6060, 21.74531
818.0881, 20.26987
818.5702, 19.08495
819.0523, 18.12700
819.5344, 17.24234
820.0165, 16.42220
820.4987, 15.81113
820.9808, 15.50685
821.4629, 15.34662
821.9450, 15.01694
822.4271, 14.47126
822.9092, 14.09038
823.3914, 13.95620
823.8735, 13.82678
824.3556, 13.62546
824.8377, 13.38499
825.3198, 13.12691
825.8019, 12.85570
826.2841, 12.61715
826.7662, 12.39719
827.2483, 12.24139
827.7304, 12.23432
828.2125, 12.25750
828.6946, 12.16968
829.1768, 11.98549
829.6589, 11.80853
830.1410, 11.69243
830.6231, 11.62166
831.1052, 11.59139
831.5873, 11.58961
832.0695, 11.56480
832.5516, 11.51316
833.0337, 11.45858
833.5158, 11.40771
833.9979, 11.37374
834.4800, 11.38465
834.9622, 11.45007
835.4443, 11.45245
835.9264, 11.33384
836.4085, 11.23765
836.8906, 11.18778
837.3727, 11.17089
837.8549, 11.19877
838.3370, 11.25283
838.8191, 11.27099
839.3012, 11.22753
839.7833, 11.16215
840.2654, 11.07448
840.7476, 10.99191
841.2297, 10.93211
841.7118, 10.90570
842.1939, 10.95076
842.6760, 11.08080
843.1581, 11.21047
843.6403, 11.21944
844.1224, 11.13263
844.6045, 11.07997
845.0866, 11.06401
845.5687, 11.04066
846.0508, 10.98987
846.5330, 10.94854
847.0151, 10.95878
847.4972, 11.01512
847.9793, 11.05627
848.4614, 11.08759
848.9435, 11.09444
849.4257, 11.05430
849.9078, 11.01235
850.3899, 10.98791
850.8720, 10.98140
851.3541, 10.99405
851.8362, 11.02831
852.3184, 11.06197
852.8005, 11.07882
853.2826, 11.09321
853.7647, 11.09672
854.2468, 11.11426
854.7289, 11.23105
855.2111, 11.44713
855.6932, 11.60719
856.1753, 11.55966
856.6574, 11.38887
857.1395, 11.31563
857.6216, 11.33950
858.1038, 11.37865
858.5859, 11.42197
859.0680, 11.47650
859.5501, 11.55258
860.0322, 11.63604
860.5143, 11.68480
860.9965, 11.65126
861.4786, 11.73043
861.9607, 12.04565
862.4428, 12.31874
862.9249, 12.42809
863.4070, 12.48592
863.8892, 12.61141
864.3713, 12.80561
864.8534, 12.98625
865.3355, 13.15561
865.8176, 13.25736
866.2997, 13.16576
866.7819, 13.03839
867.2640, 13.08322
867.7461, 13.29530
868.2282, 13.58088
868.7103, 13.89525
869.1924, 14.18255
869.6746, 14.31200
870.1567, 14.33854
870.6388, 14.51033
871.1209, 14.82907
871.6030, 15.48399
872.0851, 16.64934
872.5673, 17.75772
873.0494, 18.17455
873.5315, 17.97420
874.0136, 17.86464
874.4957, 17.89762
874.9778, 17.92538
875.4600, 17.88537
875.9421, 17.89059
876.4242, 18.04703
876.9063, 18.26707
877.3884, 18.40436
877.8705, 18.43501
878.3527, 18.40800
878.8348, 18.31685
879.3169, 18.19730
879.7990, 18.08292
880.2811, 17.95106
880.7632, 17.71236
881.2454, 17.40040
881.7275, 17.21987
882.2096, 17.33204
882.6917, 17.57625
883.1738, 17.69294
883.6559, 17.74701
884.1381, 17.94397
884.6202, 18.30553
885.1023, 18.84713
885.5844, 19.60447
886.0665, 20.35575
886.5486, 20.73043
887.0308, 20.71883
887.5129, 20.87140
887.9950, 21.28838
888.4771, 21.59651
888.9592, 21.65535
889.4413, 21.64213
889.9235, 21.70081
890.4056, 21.81231
890.8877, 21.90617
891.3698, 22.02107
891.8519, 22.03964
892.3340, 21.88730
892.8162, 21.69498
893.2983, 21.46978
893.7804, 21.28369
894.2625, 21.27027
894.7446, 21.43507
895.2267, 21.57187
895.7089, 21.55132
896.1910, 21.45502
896.6731, 21.38849
897.1552, 21.29374
897.6373, 21.06005
898.1194, 20.68275
898.6016, 20.20954
899.0837, 19.66235
899.5658, 19.09977
900.0479, 18.64890
900.5300, 18.28559
901.0121, 17.78119
901.4943, 17.11881
901.9764, 16.46507
902.4585, 15.86714
902.9406, 15.33105
903.4227, 14.87889
903.9048, 14.49492
904.3870, 14.04829
904.8691, 13.45551
905.3512, 12.96906
905.8333, 12.64249
906.3154, 12.38745
906.7975, 12.19731
907.2797, 12.03810
907.7618, 11.85750
908.2439, 11.64948
908.7260, 11.45066
909.2081, 11.26149
909.6902, 11.09553
910.1724, 11.01216
910.6545, 10.92025
911.1366, 10.67057
911.6187, 10.31155
912.1008, 10.04366
912.5829, 9.960339
913.0651, 9.989353
913.5472, 10.14627
914.0293, 10.32669
914.5114, 10.30305
914.9935, 10.13752
915.4756, 10.13003
915.9578, 10.36273
916.4398, 10.54589
916.9219, 10.35085
917.4041, 9.939177
917.8862, 9.787902
918.3683, 9.896501
918.8504, 10.47997
919.3325, 11.74430
919.8146, 12.48881
920.2968, 11.86525
920.7789, 10.58084
921.2610, 9.966116
921.7431, 10.13926
922.2252, 10.23966
922.7073, 10.22778
923.1895, 10.20720
923.6716, 10.20732
924.1537, 10.20113
924.6358, 10.15640
925.1179, 10.08874
925.6000, 10.05366
926.0822, 10.08240
926.5643, 10.08420
927.0464, 9.991107
927.5285, 9.912241
928.0106, 9.902125
928.4927, 9.955117
928.9749, 10.09601
929.4570, 10.30317
929.9391, 10.43593
930.4212, 10.37276
930.9033, 10.27016
931.3854, 10.29745
931.8676, 10.36886
932.3497, 10.33298
932.8318, 10.20389
933.3139, 10.09766
933.7960, 10.06454
934.2781, 10.05230
934.7603, 9.979441
935.2424, 9.884366
935.7245, 9.925526
936.2066, 10.08735
936.6887, 10.17049
937.1708, 10.12800
937.6530, 10.06342
938.1351, 10.04736
938.6172, 10.06850
939.0993, 10.10445
939.5814, 10.16390
940.0635, 10.18521
940.5457, 10.14410
941.0278, 10.12482
941.5099, 10.15325
941.9920, 10.21812
942.4741, 10.31620
942.9562, 10.44397
943.4384, 10.56528
943.9205, 10.64980
944.4026, 10.77374
944.8847, 10.99364
945.3668, 11.19543
945.8489, 11.32932
946.3311, 11.40735
946.8132, 11.40989
947.2953, 11.34499
947.7774, 11.39029
948.2595, 11.69185
948.7416, 12.01526
949.2238, 12.30031
949.7059, 12.50158
950.1880, 12.50113
950.6701, 12.38740
951.1522, 12.40861
951.6343, 12.65520
952.1165, 12.88782
952.5986, 12.84459
953.0807, 12.72161
953.5628, 12.77348
954.0449, 12.96605
954.5270, 13.25770
955.0092, 13.60678
955.4913, 13.86301
955.9734, 13.92482
956.4555, 13.88048
956.9376, 13.84704
957.4197, 13.83157
957.9019, 13.90472
958.3840, 14.06368
958.8661, 14.10760
959.3482, 13.96111
959.8303, 13.79695
960.3124, 13.76950
960.7946, 13.86939
961.2767, 14.08533
961.7588, 14.46281
962.2409, 14.70748
962.7230, 14.72520
963.2051, 14.82100
963.6873, 15.16473
964.1694, 15.60470
964.6515, 15.94836
965.1336, 16.19692
965.6157, 16.44373
966.0978, 16.75493
966.5800, 16.95902
967.0621, 16.96288
967.5442, 16.94622
968.0263, 17.08136
968.5084, 17.21853
968.9905, 17.08458
969.4727, 16.63863
969.9548, 16.22817
970.4369, 16.02429
970.9190, 15.74747
971.4011, 15.20125
971.8832, 14.61607
972.3654, 14.19796
972.8475, 13.91374
973.3296, 13.64933
973.8117, 13.37908
974.2938, 13.04351
974.7759, 12.49503
975.2581, 11.97639
975.7402, 11.74379
976.2223, 11.65464
976.7044, 11.49756
977.1865, 11.24853
977.6686, 10.97304
978.1508, 10.69660
978.6329, 10.46901
979.1150, 10.35515
979.5971, 10.32009
980.0792, 10.32842
980.5613, 10.35595
981.0435, 10.32416
981.5256, 10.22045
982.0077, 10.11162
982.4898, 10.04464
982.9719, 10.02079
983.4540, 10.06799
983.9362, 10.16687
984.4183, 10.19615
984.9004, 10.15061
985.3825, 10.08893
985.8646, 10.02618
986.3467, 10.02110
986.8289, 10.14388
987.3110, 10.35880
987.7931, 10.51916
988.2752, 10.61654
988.7573, 10.72523
989.2394, 10.84947
989.7216, 10.99623
990.2037, 11.17895
990.6858, 11.36148
991.1679, 11.48499
991.6500, 11.55657
992.1321, 11.72035
992.6143, 12.04882
993.0964, 12.29999
993.5785, 12.40098
994.0606, 12.49728
994.5427, 12.64909
995.0248, 12.84672
995.5070, 13.08717
995.9891, 13.37367
996.4712, 13.64473
996.9533, 13.91109
997.4354, 14.14451
997.9175, 14.37165
998.3997, 14.53164
998.8818, 14.56602
999.3639, 14.51751
999.8460, 14.45132
1000.328, 14.37391
1000.810, 14.30645
1001.292, 14.27643
1001.774, 14.22830
1002.257, 14.08026
1002.739, 13.95738
1003.221, 14.02131
1003.703, 14.18440
1004.185, 14.22088
1004.667, 14.06532
1005.149, 13.95423
1005.631, 14.01416
1006.114, 14.15007
1006.596, 14.27672
1007.078, 14.45553
1007.560, 14.80784
1008.042, 15.28152
1008.524, 15.68370
1009.006, 15.93258
1009.488, 16.25555
1009.970, 16.88031
1010.453, 17.62678
1010.935, 18.32522
1011.417, 18.98498
1011.899, 19.62262
1012.381, 20.25380
1012.863, 20.94448
1013.345, 21.73375
1013.827, 22.49349
1014.310, 23.20188
1014.792, 23.72154
1015.274, 23.69723
1015.756, 23.27201
1016.238, 22.90948
1016.720, 22.66951
1017.202, 22.25482
1017.684, 21.47945
1018.166, 20.50884
1018.649, 19.49459
1019.131, 18.49522
1019.613, 17.74498
1020.095, 17.22104
1020.577, 16.72643
1021.059, 16.21338
1021.541, 15.74554
1022.023, 15.36458
1022.505, 15.04947
1022.988, 14.75525
1023.470, 14.48436
1023.952, 14.25942
1024.434, 14.07882
1024.916, 14.02723
1025.398, 14.13579
1025.880, 14.29081
1026.362, 14.41333
1026.845, 14.50244
1027.327, 14.55202
1027.809, 14.56042
1028.291, 14.55281
1028.773, 14.52966
1029.255, 14.49350
1029.737, 14.45672
1030.219, 14.36617
1030.702, 14.17806
1031.184, 13.90614
1031.666, 13.58833
1032.148, 13.21995
1032.630, 12.82347
1033.112, 12.38386
1033.594, 11.95450
1034.076, 11.53345
1034.558, 11.15710
1035.041, 10.86584
1035.523, 10.63321
1036.005, 10.36867
1036.487, 10.03221
1036.969, 9.813969
1037.451, 9.807126
1037.933, 9.737247
1038.415, 9.497923
1038.897, 9.212735
1039.380, 8.932858
1039.862, 8.696458
1040.344, 8.648700
1040.826, 8.891360
1041.308, 9.021414
1041.790, 8.984665
1042.272, 8.912662
1042.754, 8.811096
1043.237, 8.710375
1043.719, 8.633297
1044.201, 8.576228
1044.683, 8.526220
1045.165, 8.471585
1045.647, 8.459857
1046.129, 8.532894
1046.611, 8.595778
1047.094, 8.625976
1047.576, 8.634906
1048.058, 8.613863
1048.540, 8.581649
1049.022, 8.591066
1049.504, 8.661777
1049.986, 8.712122
1050.468, 8.742977
1050.950, 8.736864
1051.432, 8.643414
1051.915, 8.551202
1052.397, 8.553006
1052.879, 8.608099
1053.361, 8.603448
1053.843, 8.508797
1054.325, 8.441988
1054.807, 8.426412
1055.289, 8.445522
1055.772, 8.544512
1056.254, 8.629522
1056.736, 8.610085
1057.218, 8.521107
1057.700, 8.448610
1058.182, 8.409016
1058.664, 8.365906
1059.146, 8.274114
1059.629, 8.222219
1060.111, 8.338616
1060.593, 8.424495
1061.075, 8.245160
1061.557, 7.931759
1062.039, 7.767244
1062.521, 7.806809
1063.003, 7.897405
1063.485, 8.083483
1063.968, 8.184358
1064.450, 8.044975
1064.932, 7.859951
1065.414, 7.785767
1065.896, 7.790030
1066.378, 7.796762
1066.860, 7.790422
1067.342, 7.767807
1067.824, 7.682823
1068.307, 7.640835
1068.789, 7.744005
1069.271, 7.855385
1069.753, 7.851533
1070.235, 7.780809
1070.717, 7.739846
1071.199, 7.741885
1071.681, 7.726793
1072.164, 7.613308
1072.646, 7.564770
1073.128, 7.765160
1073.610, 7.951024
1074.092, 7.875547
1074.574, 7.664820
1075.056, 7.513578
1075.538, 7.452899
1076.021, 7.437284
1076.503, 7.464948
1076.985, 7.503299
1077.467, 7.579819
1077.949, 7.617186
1078.431, 7.501932
1078.913, 7.343238
1079.395, 7.299759
1079.877, 7.372571
1080.359, 7.459749
1080.842, 7.543444
1081.324, 7.584689
1081.806, 7.514861
1082.288, 7.451756
1082.770, 7.494111
1083.252, 7.576600
1083.734, 7.621840
1084.216, 7.625564
1084.698, 7.617930
1085.181, 7.610777
1085.663, 7.579955
1086.145, 7.474715
1086.627, 7.388771
1087.109, 7.387022
1087.591, 7.427874
1088.073, 7.473867
1088.555, 7.519976
1089.038, 7.571699
1089.520, 7.632106
1090.002, 7.680822
1090.484, 7.732162
1090.966, 7.741379
1091.448, 7.644168
1091.930, 7.530535
1092.412, 7.465172
1092.895, 7.454284
1093.377, 7.521836
1093.859, 7.671706
1094.341, 7.739365
1094.823, 7.563882
1095.305, 7.431397
1095.787, 7.515518
1096.269, 7.632490
1096.751, 7.628705
1097.234, 7.566619
1097.716, 7.574397
1098.198, 7.659727
1098.680, 7.692112
1099.162, 7.578047
1099.644, 7.493725
1100.126, 7.510341
1100.608, 7.554646
1101.090, 7.608752
1101.573, 7.647048
1102.055, 7.613301
1102.537, 7.528960
1103.019, 7.528803
1103.501, 7.692420
1103.983, 7.819639
1104.465, 7.867028
1104.947, 7.865438
1105.430, 7.767889
1105.912, 7.677832
1106.394, 7.723012
1106.876, 7.859288
1107.358, 7.924430
1107.840, 7.869710
1108.322, 7.852011
1108.804, 7.972279
1109.286, 8.029301
1109.769, 7.873406
1110.251, 7.718320
1110.733, 7.733757
1111.215, 7.862704
1111.697, 7.992340
1112.179, 8.119735
1112.661, 8.210698
1113.143, 8.220452
1113.625, 8.255465
1114.108, 8.374658
1114.590, 8.474857
1115.072, 8.459272
1115.554, 8.417101
1116.036, 8.484026
1116.518, 8.656397
1117.000, 8.793208
1117.482, 8.886580
1117.965, 8.956528
1118.447, 8.970057
1118.929, 9.010152
1119.411, 9.097677
1119.893, 9.238790
1120.375, 9.484225
1120.857, 9.783543
1121.339, 9.903317
1121.822, 9.744842
1122.304, 9.721427
1122.786, 9.886384
1123.268, 10.06406
1123.750, 10.20401
1124.232, 10.36218
1124.714, 10.61463
1125.196, 10.87049
1125.678, 10.90674
1126.161, 10.69727
1126.643, 10.68595
1127.125, 10.94751
1127.607, 11.08612
1128.089, 11.00722
1128.571, 10.91185
1129.053, 10.90599
1129.535, 10.93853
1130.017, 10.93473
1130.500, 10.90795
1130.982, 10.94868
1131.464, 11.06043
1131.946, 11.19698
1132.428, 11.35943
1132.910, 11.47547
1133.392, 11.51399
1133.874, 11.52000
1134.357, 11.52158
1134.839, 11.55817
1135.321, 11.75758
1135.803, 12.09834
1136.285, 12.35421
1136.767, 12.52642
1137.249, 12.68877
1137.731, 12.86489
1138.214, 13.16624
1138.696, 13.67050
1139.178, 14.23830
1139.660, 14.63961
1140.142, 14.96202
1140.624, 15.47001
1141.106, 16.12245
1141.588, 16.73484
1142.070, 17.31649
1142.552, 18.05326
1143.035, 19.01522
1143.517, 20.06985
1143.999, 21.12204
1144.481, 22.15264
1144.963, 23.04637
1145.445, 23.92803
1145.927, 25.02786
1146.409, 26.31640
1146.892, 27.70788
1147.374, 29.16155
1147.856, 30.61579
1148.338, 32.02009
1148.820, 33.49869
1149.302, 35.11543
1149.784, 36.91650
1150.266, 38.97554
1150.749, 41.25379
1151.231, 43.64177
1151.713, 46.19630
1152.195, 49.13831
1152.677, 52.55155
1153.159, 55.79490
1153.641, 58.19358
1154.123, 60.75159
1154.605, 64.39493
1155.088, 68.06115
1155.570, 71.05213
1156.052, 73.31426
1156.534, 75.00877
1157.016, 76.08156
1157.498, 76.06268
1157.980, 74.70647
1158.462, 72.51537
1158.944, 69.37048
1159.427, 65.69687
1159.909, 61.30805
1160.391, 56.77359
1160.873, 52.43832
1161.355, 48.40769
1161.837, 45.02736
1162.319, 42.35638
1162.801, 40.10616
1163.284, 38.40041
1163.766, 36.85931
1164.248, 35.32677
1164.730, 34.10781
1165.212, 33.44609
1165.694, 33.09153
1166.176, 32.72411
1166.658, 32.35540
1167.141, 32.11943
1167.623, 32.10084
1168.105, 31.85883
1168.587, 31.33331
1169.069, 30.76733
1169.551, 30.26365
1170.033, 29.62327
1170.515, 28.66142
1170.997, 27.50437
1171.479, 26.40901
1171.962, 25.36772
1172.444, 24.19999
1172.926, 22.91358
1173.408, 21.71193
1173.890, 20.62610
1174.372, 19.70594
1174.854, 18.97503
1175.336, 18.33510
1175.819, 17.70054
1176.301, 17.06165
1176.783, 16.38117
1177.265, 15.68757
1177.747, 15.03621
1178.229, 14.43806
1178.711, 13.91104
1179.193, 13.45762
1179.676, 13.07158
1180.158, 12.75548
1180.640, 12.48292
1181.122, 12.22158
1181.604, 11.99871
1182.086, 11.88650
1182.568, 11.80081
1183.050, 11.61307
1183.532, 11.35155
1184.015, 11.09499
1184.497, 10.86979
1184.979, 10.72853
1185.461, 10.79063
1185.943, 10.78238
1186.425, 10.48699
1186.907, 10.18279
1187.389, 10.05037
1187.871, 10.01565
1188.354, 10.02102
1188.836, 10.03392
1189.318, 9.966993
1189.800, 9.781696
1190.282, 9.623649
1190.764, 9.510406
1191.246, 9.421906
1191.728, 9.358645
1192.211, 9.314548
1192.693, 9.310507
1193.175, 9.299007
1193.657, 9.198706
1194.139, 9.025861
1194.621, 8.937321
1195.103, 8.955031
1195.585, 8.963894
1196.068, 8.958471
1196.550, 8.953929
1197.032, 8.959093
1197.514, 8.930353
1197.996, 8.820714
1198.478, 8.723166
1198.960, 8.828036
1199.442, 9.084937
1199.924, 9.271836
1200.406, 9.372535
1200.889, 9.220334
1201.371, 8.846663
1201.853, 8.592456
1202.335, 8.576449
1202.817, 8.637968
1203.299, 8.660784
1203.781, 8.660142
1204.263, 8.652320
1204.746, 8.637315
1205.228, 8.603892
1205.710, 8.568762
1206.192, 8.578259
1206.674, 8.616158
1207.156, 8.606571
1207.638, 8.523942
1208.120, 8.449700
1208.603, 8.423857
1209.085, 8.427210
1209.567, 8.468343
1210.049, 8.514860
1210.531, 8.548574
1211.013, 8.567554
1211.495, 8.561637
1211.977, 8.539207
1212.459, 8.537705
1212.942, 8.555486
1213.424, 8.613004
1213.906, 8.826676
1214.388, 8.900514
1214.870, 8.673432
1215.352, 8.456766
1215.834, 8.459768
1216.316, 8.526155
1216.798, 8.412260
1217.281, 8.160996
1217.763, 8.113475
1218.245, 8.301742
1218.727, 8.408127
1219.209, 8.409636
1219.691, 8.445919
1220.173, 8.557520
1220.655, 8.652999
1221.138, 8.674214
1221.620, 8.620258
1222.102, 8.442893
1222.584, 8.224564
1223.066, 8.204351
1223.548, 8.316176
1224.030, 8.395145
1224.512, 8.430751
1224.995, 8.462512
1225.477, 8.497852
1225.959, 8.502852
1226.441, 8.448328
1226.923, 8.402079
1227.405, 8.433786
1227.887, 8.480323
1228.369, 8.513060
1228.851, 8.511751
1229.333, 8.398728
1229.816, 8.256546
1230.298, 8.293719
1230.780, 8.530314
1231.262, 8.649443
1231.744, 8.479337
1232.226, 8.348296
1232.708, 8.335286
1233.190, 8.319040
1233.673, 8.204128
1234.155, 8.141592
1234.637, 8.301266
1235.119, 8.548165
1235.601, 8.584186
1236.083, 8.409483
1236.565, 8.316176
1237.047, 8.315975
1237.530, 8.302707
1238.012, 8.264176
1238.494, 8.225883
1238.976, 8.195549
1239.458, 8.206836
1239.940, 8.293811
1240.422, 8.398293
1240.904, 8.433943
1241.386, 8.409311
1241.869, 8.302327
1242.351, 8.169524
1242.833, 8.162127
1243.315, 8.259277
1243.797, 8.341463
1244.279, 8.371151
1244.761, 8.375367
1245.243, 8.372060
1245.725, 8.340665
1246.208, 8.208943
1246.690, 8.112513
1247.172, 8.163957
1247.654, 8.285151
1248.136, 8.435442
1248.618, 8.574049
1249.100, 8.620097
1249.582, 8.561201
1250.065, 8.513134
1250.547, 8.486068
1251.029, 8.462886
1251.511, 8.440278
1251.993, 8.431062
1252.475, 8.456436
1252.957, 8.448683
1253.439, 8.336429
1253.922, 8.203312
1254.404, 8.225963
1254.886, 8.369844
1255.368, 8.372189
1255.850, 8.255157
1256.332, 8.229310
1256.814, 8.299935
1257.296, 8.337080
1257.778, 8.308209
1258.260, 8.307687
1258.743, 8.402952
1259.225, 8.495860
1259.707, 8.471438
1260.189, 8.400510
1260.671, 8.321583
1261.153, 8.274612
1261.635, 8.345925
1262.117, 8.471159
1262.600, 8.520967
1263.082, 8.481138
1263.564, 8.418631
1264.046, 8.312803
1264.528, 8.282432
1265.010, 8.450987
1265.492, 8.554633
1265.974, 8.451676
1266.457, 8.350986
1266.939, 8.377727
1267.421, 8.469984
1267.903, 8.552915
1268.385, 8.620901
1268.867, 8.627164
1269.349, 8.565189
1269.831, 8.585025
1270.313, 8.689739
1270.796, 8.811938
1271.278, 8.930365
1271.760, 8.934618
1272.242, 8.769336
1272.724, 8.590506
1273.206, 8.559407
1273.688, 8.591306
1274.170, 8.550813
1274.652, 8.514147
1275.135, 8.608290
1275.617, 8.771478
1276.099, 8.928529
1276.581, 9.038452
1277.063, 9.006757
1277.545, 8.798539
1278.027, 8.662028
1278.509, 8.731837
1278.992, 8.792100
1279.474, 8.814921
1279.956, 8.787937
1280.438, 8.655086
1280.920, 8.536587
1281.402, 8.543452
1281.884, 8.624751
1282.366, 8.657381
1282.849, 8.647363
1283.331, 8.800048
1283.813, 9.119023
1284.295, 9.266049
1284.777, 9.215812
1285.259, 9.078795
1285.741, 8.901143
1286.223, 8.778044
1286.705, 8.769405
1287.188, 8.875745
##END=



