##NAMES=Reinerite
##RRUFFID=R080132
##IDEAL CHEMISTRY=Zn^2+^_3_(As^3+^O_3_)_2_
##LOCALITY=4400 ft. level, Tsumeb, Namibia
##OWNER=RRUFF
##SOURCE=William W. Pinch
##DESCRIPTION=Colorless fragment
##STATUS=The identification of this mineral has been confirmed by single-crystal X-ray diffraction.
##URL=rruff.info/R080132
90.52570, 0.0000000E+00
91.00781, 43.73330
91.48993, 42.05014
91.97205, 41.37846
92.45416, 41.96061
92.93628, 43.53638
93.41840, 45.56547
93.90051, 47.97492
94.38263, 50.76371
94.86475, 54.00031
95.34686, 57.68340
95.82898, 61.69895
96.31110, 65.86654
96.79321, 70.22252
97.27533, 75.01823
97.75745, 80.18722
98.23956, 85.78995
98.72168, 91.84351
99.20380, 98.19584
99.68591, 105.2800
100.1680, 113.4801
100.6501, 122.6751
101.1323, 133.2386
101.6144, 145.2769
102.0965, 158.8285
102.5786, 173.3671
103.0607, 189.1460
103.5428, 205.7948
104.0250, 223.0147
104.5071, 240.3450
104.9892, 258.7695
105.4713, 278.3922
105.9534, 298.7104
106.4355, 321.2631
106.9177, 346.8595
107.3998, 374.7036
107.8819, 403.2101
108.3640, 431.1048
108.8461, 460.3493
109.3282, 492.2974
109.8104, 525.4415
110.2925, 562.2283
110.7746, 600.7383
111.2567, 641.5565
111.7388, 691.1268
112.2209, 749.6006
112.7031, 816.7599
113.1852, 893.2084
113.6673, 984.3867
114.1494, 1079.202
114.6315, 1178.212
115.1136, 1282.536
115.5958, 1380.036
116.0779, 1474.930
116.5600, 1558.714
117.0421, 1621.598
117.5242, 1638.504
118.0063, 1650.422
118.4885, 1675.904
118.9706, 1715.629
119.4527, 1774.758
119.9348, 1863.033
120.4169, 1972.117
120.8990, 2088.370
121.3812, 2216.313
121.8633, 2342.461
122.3454, 2451.786
122.8275, 2540.370
123.3096, 2618.339
123.7917, 2684.102
124.2739, 2743.129
124.7560, 2815.482
125.2381, 2910.482
125.7202, 3028.396
126.2023, 3168.100
126.6844, 3331.136
127.1666, 3514.990
127.6487, 3722.035
128.1308, 3952.247
128.6129, 4187.944
129.0950, 4415.979
129.5771, 4639.448
130.0593, 4867.115
130.5414, 5079.682
131.0235, 5304.484
131.5056, 5595.653
131.9877, 5926.459
132.4698, 6307.399
132.9520, 6818.625
133.4341, 7451.727
133.9162, 8061.940
134.3983, 8688.975
134.8804, 9291.137
135.3625, 9500.364
135.8447, 9287.598
136.3268, 8787.044
136.8089, 8096.278
137.2910, 7164.171
137.7731, 6328.528
138.2552, 5700.385
138.7374, 5284.703
139.2195, 5048.740
139.7016, 5040.042
140.1837, 5157.654
140.6658, 5218.455
141.1479, 5258.462
141.6301, 5166.794
142.1122, 4861.544
142.5943, 4229.865
143.0764, 3686.280
143.5585, 3229.582
144.0406, 2863.274
144.5228, 2591.091
145.0049, 2436.447
145.4870, 2346.889
145.9691, 2297.281
146.4512, 2298.537
146.9333, 2320.495
147.4155, 2363.759
147.8976, 2427.570
148.3797, 2501.400
148.8618, 2588.104
149.3439, 2683.462
149.8260, 2784.583
150.3082, 2915.624
150.7903, 3026.710
151.2724, 3125.493
151.7545, 3212.495
152.2366, 3247.125
152.7188, 3222.008
153.2009, 3147.881
153.6830, 3033.360
154.1651, 2852.835
154.6472, 2657.723
155.1293, 2454.192
155.6115, 2238.460
156.0936, 2042.343
156.5757, 1870.844
157.0578, 1720.859
157.5399, 1591.530
158.0220, 1487.323
158.5042, 1398.830
158.9863, 1324.556
159.4684, 1264.746
159.9505, 1214.730
160.4326, 1175.797
160.9147, 1145.691
161.3969, 1121.078
161.8790, 1101.175
162.3611, 1086.113
162.8432, 1075.933
163.3253, 1070.770
163.8074, 1070.281
164.2896, 1074.638
164.7717, 1083.520
165.2538, 1096.319
165.7359, 1112.285
166.2180, 1132.261
166.7001, 1157.029
167.1823, 1186.657
167.6644, 1220.509
168.1465, 1257.994
168.6286, 1299.270
169.1107, 1344.827
169.5928, 1394.779
170.0750, 1449.060
170.5571, 1508.701
171.0392, 1574.046
171.5213, 1643.281
172.0034, 1715.765
172.4855, 1791.410
172.9677, 1867.765
173.4498, 1949.316
173.9319, 2029.977
174.4140, 2102.338
174.8961, 2170.867
175.3782, 2223.072
175.8604, 2247.247
176.3425, 2244.091
176.8246, 2219.031
177.3067, 2165.250
177.7888, 2092.702
178.2709, 2021.657
178.7531, 1951.452
179.2352, 1889.955
179.7173, 1847.599
180.1994, 1823.961
180.6815, 1817.448
181.1636, 1828.788
181.6458, 1856.575
182.1279, 1896.476
182.6100, 1950.048
183.0921, 2013.650
183.5742, 2084.372
184.0563, 2161.361
184.5385, 2238.172
185.0206, 2311.427
185.5027, 2379.937
185.9848, 2434.594
186.4669, 2475.597
186.9490, 2500.441
187.4312, 2502.025
187.9133, 2479.885
188.3954, 2437.821
188.8775, 2376.617
189.3596, 2297.676
189.8417, 2210.125
190.3239, 2115.182
190.8060, 2013.866
191.2881, 1914.482
191.7702, 1817.442
192.2523, 1724.816
192.7344, 1637.777
193.2166, 1556.730
193.6987, 1483.341
194.1808, 1418.088
194.6629, 1361.026
195.1450, 1309.518
195.6271, 1263.777
196.1093, 1222.960
196.5914, 1186.044
197.0735, 1153.034
197.5556, 1123.641
198.0377, 1098.235
198.5198, 1076.598
199.0020, 1057.145
199.4841, 1040.094
199.9662, 1024.750
200.4483, 1009.402
200.9304, 993.7545
201.4125, 979.8470
201.8947, 968.8582
202.3768, 960.9622
202.8589, 953.6701
203.3410, 946.8116
203.8231, 940.7434
204.3052, 936.0296
204.7874, 932.4984
205.2695, 930.8909
205.7516, 931.5167
206.2337, 934.3932
206.7158, 939.3954
207.1979, 946.5971
207.6801, 955.8876
208.1622, 966.9863
208.6443, 980.0884
209.1264, 994.5492
209.6085, 1010.083
210.0906, 1026.656
210.5728, 1044.397
211.0549, 1062.744
211.5370, 1082.567
212.0191, 1105.519
212.5012, 1132.364
212.9833, 1160.904
213.4655, 1189.794
213.9476, 1218.911
214.4297, 1249.689
214.9118, 1283.242
215.3939, 1317.873
215.8760, 1350.704
216.3581, 1382.104
216.8403, 1410.383
217.3224, 1435.537
217.8045, 1460.445
218.2866, 1473.730
218.7687, 1473.848
219.2508, 1462.559
219.7330, 1444.164
220.2151, 1417.681
220.6972, 1385.948
221.1793, 1349.673
221.6614, 1305.611
222.1435, 1264.727
222.6257, 1226.479
223.1078, 1191.624
223.5899, 1161.234
224.0720, 1135.343
224.5541, 1113.806
225.0362, 1095.977
225.5184, 1081.488
226.0005, 1072.118
226.4826, 1068.525
226.9647, 1069.865
227.4468, 1073.719
227.9289, 1079.742
228.4111, 1088.831
228.8932, 1101.514
229.3753, 1118.309
229.8574, 1137.280
230.3395, 1157.648
230.8216, 1180.160
231.3038, 1207.590
231.7859, 1241.193
232.2680, 1277.612
232.7501, 1315.514
233.2322, 1355.214
233.7143, 1395.668
234.1965, 1438.282
234.6786, 1481.589
235.1607, 1522.340
235.6428, 1561.691
236.1249, 1596.762
236.6070, 1626.589
237.0892, 1652.273
237.5713, 1670.161
238.0534, 1679.724
238.5355, 1681.607
239.0176, 1677.370
239.4997, 1666.381
239.9819, 1649.971
240.4640, 1628.409
240.9461, 1599.663
241.4282, 1570.393
241.9103, 1541.231
242.3924, 1511.372
242.8746, 1478.832
243.3567, 1443.117
243.8388, 1405.515
244.3209, 1366.089
244.8030, 1324.310
245.2851, 1283.177
245.7673, 1242.470
246.2494, 1202.511
246.7315, 1163.917
247.2136, 1126.417
247.6957, 1090.702
248.1778, 1056.925
248.6600, 1025.385
249.1421, 995.5284
249.6242, 966.8407
250.1063, 939.8840
250.5884, 915.7834
251.0705, 894.8488
251.5527, 876.1458
252.0348, 859.5505
252.5169, 844.9409
252.9990, 832.3512
253.4811, 821.7560
253.9632, 813.0502
254.4454, 806.3561
254.9275, 802.3231
255.4096, 798.9501
255.8917, 795.4619
256.3738, 791.5955
256.8560, 788.9061
257.3381, 787.3318
257.8202, 786.9614
258.3023, 788.0186
258.7844, 790.8344
259.2665, 794.3377
259.7487, 798.2621
260.2308, 802.5948
260.7129, 807.3347
261.1950, 812.4764
261.6771, 817.9980
262.1592, 823.9491
262.6414, 830.4739
263.1235, 836.9384
263.6056, 843.1501
264.0877, 849.1725
264.5698, 854.8083
265.0519, 860.0790
265.5341, 864.9177
266.0162, 869.1780
266.4983, 872.5746
266.9804, 876.1668
267.4625, 880.1480
267.9446, 884.4895
268.4268, 889.7049
268.9089, 895.8860
269.3910, 902.5937
269.8731, 909.1454
270.3552, 915.0478
270.8373, 922.6547
271.3195, 932.7711
271.8016, 945.1885
272.2837, 958.1088
272.7658, 971.6564
273.2479, 985.7929
273.7300, 1000.932
274.2122, 1017.219
274.6943, 1033.444
275.1764, 1049.917
275.6585, 1066.061
276.1406, 1078.828
276.6227, 1088.093
277.1049, 1094.445
277.5870, 1098.216
278.0691, 1099.380
278.5512, 1098.323
279.0333, 1094.918
279.5154, 1089.435
279.9976, 1082.269
280.4797, 1073.054
280.9618, 1063.931
281.4439, 1055.915
281.9260, 1049.038
282.4081, 1043.672
282.8903, 1039.775
283.3724, 1037.498
283.8545, 1037.398
284.3366, 1039.552
284.8187, 1043.063
285.3008, 1047.604
285.7830, 1053.152
286.2651, 1058.902
286.7472, 1064.767
287.2293, 1070.905
287.7114, 1077.740
288.1935, 1085.260
288.6757, 1092.877
289.1578, 1100.264
289.6399, 1107.465
290.1220, 1114.216
290.6041, 1120.392
291.0862, 1126.586
291.5684, 1133.910
292.0505, 1142.255
292.5326, 1150.274
293.0147, 1158.345
293.4968, 1165.654
293.9789, 1170.569
294.4611, 1173.279
294.9432, 1172.005
295.4253, 1165.335
295.9074, 1153.054
296.3895, 1134.569
296.8716, 1108.236
297.3538, 1075.706
297.8359, 1039.470
298.3180, 999.1342
298.8001, 957.1659
299.2822, 913.9313
299.7643, 870.1578
300.2465, 828.3262
300.7286, 788.5344
301.2107, 751.7354
301.6928, 718.8983
302.1749, 690.2336
302.6570, 664.5075
303.1392, 641.8609
303.6213, 621.5402
304.1034, 602.7621
304.5855, 584.9406
305.0676, 568.7057
305.5497, 554.4216
306.0319, 542.0486
306.5140, 530.6444
306.9961, 519.5247
307.4782, 509.2276
307.9603, 500.3441
308.4424, 493.3799
308.9246, 487.3112
309.4067, 481.6418
309.8888, 476.2970
310.3709, 470.9579
310.8530, 464.8077
311.3351, 459.0035
311.8173, 454.6147
312.2994, 451.9660
312.7815, 450.0974
313.2636, 448.4803
313.7457, 447.2553
314.2278, 446.6769
314.7100, 446.7984
315.1921, 447.6626
315.6742, 449.3958
316.1563, 452.0768
316.6384, 455.1765
317.1205, 458.2659
317.6027, 461.6585
318.0848, 465.7384
318.5669, 472.0401
319.0490, 477.7892
319.5311, 482.1251
320.0132, 485.0027
320.4954, 486.1712
320.9775, 485.7597
321.4596, 483.5047
321.9417, 479.1637
322.4238, 472.3673
322.9059, 463.8135
323.3881, 453.1911
323.8702, 440.7119
324.3523, 427.7502
324.8344, 413.6207
325.3165, 399.6705
325.7986, 386.5660
326.2808, 373.6274
326.7629, 362.4065
327.2450, 353.3198
327.7271, 346.1166
328.2092, 339.7715
328.6913, 334.4371
329.1735, 329.8290
329.6556, 325.7813
330.1377, 322.4327
330.6198, 319.3813
331.1019, 316.6763
331.5840, 314.2569
332.0662, 311.9510
332.5483, 309.6782
333.0304, 307.6033
333.5125, 305.7413
333.9946, 303.9756
334.4767, 302.9189
334.9589, 302.7313
335.4410, 303.1025
335.9231, 303.8091
336.4052, 305.2071
336.8873, 305.9511
337.3694, 305.4454
337.8515, 303.8027
338.3336, 303.0063
338.8158, 303.2895
339.2979, 303.9365
339.7800, 304.3697
340.2621, 304.5866
340.7442, 304.6603
341.2263, 304.7362
341.7085, 304.6165
342.1906, 303.6437
342.6727, 301.7887
343.1548, 299.2178
343.6369, 295.8027
344.1190, 291.6190
344.6012, 287.4775
345.0833, 283.5700
345.5654, 279.5779
346.0475, 274.7579
346.5296, 269.1840
347.0117, 263.6899
347.4939, 258.8763
347.9760, 254.5620
348.4581, 249.9539
348.9402, 244.9328
349.4223, 240.1709
349.9044, 236.4680
350.3866, 233.6067
350.8687, 230.7914
351.3508, 227.4702
351.8329, 224.0741
352.3150, 221.3252
352.7971, 219.1992
353.2793, 217.2430
353.7614, 215.0941
354.2435, 212.8367
354.7256, 210.5695
355.2077, 208.1835
355.6898, 205.9788
356.1720, 204.3433
356.6541, 203.1526
357.1362, 201.8831
357.6183, 200.0602
358.1004, 198.0993
358.5826, 196.3474
359.0647, 194.8437
359.5468, 193.6196
360.0289, 192.7921
360.5110, 192.2498
360.9931, 191.7791
361.4753, 191.5027
361.9574, 191.1189
362.4395, 190.4520
362.9216, 189.4551
363.4037, 188.3799
363.8858, 187.0627
364.3680, 185.7999
364.8501, 184.9006
365.3322, 184.6635
365.8143, 184.5727
366.2964, 184.5855
366.7785, 184.6944
367.2607, 184.6849
367.7428, 184.4772
368.2249, 184.1893
368.7070, 183.8892
369.1891, 183.5369
369.6712, 183.2309
370.1534, 182.9659
370.6355, 182.7449
371.1176, 182.5906
371.5997, 182.5945
372.0818, 182.5369
372.5639, 182.3047
373.0461, 181.8074
373.5282, 181.4063
374.0103, 181.0935
374.4924, 180.8691
374.9745, 180.7417
375.4566, 180.7184
375.9388, 180.7718
376.4209, 180.9314
376.9030, 181.1877
377.3851, 181.3350
377.8672, 181.3790
378.3493, 181.3214
378.8315, 181.0914
379.3136, 180.6842
379.7957, 180.4802
380.2778, 180.6194
380.7599, 180.9367
381.2420, 180.9792
381.7242, 180.7463
382.2063, 180.5739
382.6884, 180.8328
383.1705, 181.3493
383.6526, 181.4305
384.1347, 180.9151
384.6169, 180.3307
385.0990, 180.4157
385.5811, 181.0064
386.0632, 181.5782
386.5453, 181.8552
387.0274, 181.9860
387.5096, 182.1889
387.9917, 182.4649
388.4738, 182.6553
388.9559, 182.5663
389.4380, 182.3379
389.9201, 182.1462
390.4023, 181.9979
390.8844, 181.9676
391.3665, 182.1742
391.8486, 182.5627
392.3307, 182.9210
392.8128, 183.0238
393.2950, 183.1410
393.7771, 183.5170
394.2592, 184.3676
394.7413, 184.9873
395.2234, 185.0045
395.7055, 184.6701
396.1877, 184.3735
396.6698, 184.1613
397.1519, 184.0353
397.6340, 184.0305
398.1161, 184.1682
398.5982, 184.2436
399.0804, 184.2562
399.5625, 184.1986
400.0446, 184.0706
400.5267, 183.9489
401.0088, 183.6354
401.4909, 182.9180
401.9731, 181.9831
402.4552, 181.6751
402.9373, 182.4637
403.4194, 183.1152
403.9015, 182.9599
404.3836, 181.7242
404.8658, 180.7388
405.3479, 179.9897
405.8300, 179.5180
406.3121, 179.4984
406.7942, 180.0143
407.2763, 180.3820
407.7585, 180.4025
408.2406, 180.0896
408.7227, 179.3946
409.2048, 178.2561
409.6869, 177.2499
410.1690, 177.0094
410.6512, 177.3934
411.1333, 177.7169
411.6154, 177.8612
412.0975, 177.8747
412.5796, 177.8000
413.0617, 177.6496
413.5439, 177.4810
414.0260, 177.3338
414.5081, 177.1857
414.9902, 177.0269
415.4723, 176.8634
415.9544, 176.6219
416.4366, 176.1863
416.9187, 175.6491
417.4008, 175.1496
417.8829, 174.7952
418.3650, 174.4421
418.8471, 173.9882
419.3293, 173.4516
419.8114, 172.9185
420.2935, 172.5208
420.7756, 172.0800
421.2577, 171.4891
421.7398, 170.7030
422.2220, 169.8068
422.7041, 168.6748
423.1862, 167.4599
423.6683, 166.4324
424.1504, 165.6941
424.6325, 165.0633
425.1147, 164.5334
425.5968, 164.1157
426.0789, 163.6241
426.5610, 162.9574
427.0431, 162.3087
427.5252, 161.8832
428.0074, 161.8984
428.4895, 161.6114
428.9716, 160.8528
429.4537, 159.7717
429.9358, 158.8266
430.4179, 158.0218
430.9001, 157.3398
431.3822, 156.7806
431.8643, 156.3444
432.3464, 156.0955
432.8285, 156.1139
433.3106, 156.0608
433.7928, 155.4257
434.2749, 154.2722
434.7570, 153.1219
435.2391, 152.0857
435.7212, 151.1908
436.2033, 150.5538
436.6855, 150.1582
437.1676, 149.7753
437.6497, 149.1502
438.1318, 148.4630
438.6139, 148.0449
439.0960, 148.0291
439.5782, 147.9880
440.0603, 147.3420
440.5424, 146.4361
441.0245, 145.9235
441.5066, 146.7075
441.9887, 147.4441
442.4709, 147.2208
442.9530, 146.0466
443.4351, 144.9044
443.9172, 144.1209
444.3993, 143.5426
444.8814, 143.0690
445.3636, 142.6435
445.8457, 142.3634
446.3278, 142.3966
446.8099, 142.5860
447.2920, 142.5364
447.7741, 141.9260
448.2563, 141.4279
448.7384, 141.2726
449.2205, 141.5067
449.7026, 141.7182
450.1847, 141.9662
450.6668, 142.1192
451.1490, 142.0235
451.6311, 141.6071
452.1132, 141.2147
452.5953, 140.8706
453.0774, 140.5990
453.5595, 140.4509
454.0417, 140.4289
454.5238, 140.4984
455.0059, 140.7158
455.4880, 141.0286
455.9701, 141.1269
456.4522, 140.9681
456.9344, 140.8072
457.4165, 141.0075
457.8986, 141.4353
458.3807, 141.6971
458.8628, 141.5559
459.3449, 141.3223
459.8271, 141.4395
460.3092, 141.8105
460.7913, 142.0202
461.2734, 141.5560
461.7555, 140.9891
462.2376, 140.8621
462.7198, 141.3513
463.2019, 141.8032
463.6840, 141.8094
464.1661, 141.6390
464.6482, 141.6175
465.1303, 142.0426
465.6125, 142.4000
466.0946, 142.5876
466.5767, 142.6026
467.0588, 142.4277
467.5409, 141.6576
468.0230, 141.0553
468.5052, 141.0054
468.9873, 141.8459
469.4694, 142.4077
469.9515, 142.6614
470.4336, 142.6657
470.9157, 142.4632
471.3979, 141.9905
471.8800, 141.5211
472.3621, 141.0536
472.8442, 140.6527
473.3263, 140.6898
473.8084, 141.2151
474.2906, 141.7851
474.7727, 142.1125
475.2548, 142.2156
475.7369, 142.1559
476.2190, 141.9103
476.7011, 141.6111
477.1833, 141.4368
477.6654, 141.3383
478.1475, 141.1792
478.6296, 140.6970
479.1117, 140.2705
479.5938, 140.4104
480.0760, 141.0328
480.5581, 141.5684
481.0402, 141.5998
481.5223, 141.4687
482.0044, 141.4718
482.4865, 141.7456
482.9687, 141.9294
483.4508, 141.8260
483.9329, 141.5795
484.4150, 141.3968
484.8971, 141.4169
485.3792, 141.3941
485.8614, 141.2580
486.3435, 141.0160
486.8256, 140.7676
487.3077, 140.4510
487.7898, 140.2034
488.2719, 140.1032
488.7541, 140.1815
489.2362, 140.3359
489.7183, 140.6308
490.2004, 140.9155
490.6825, 140.9238
491.1646, 140.6234
491.6468, 140.3789
492.1289, 140.3562
492.6110, 140.4328
493.0931, 140.1636
493.5752, 139.5525
494.0573, 139.0200
494.5395, 138.9806
495.0216, 139.2146
495.5037, 139.2174
495.9858, 138.8856
496.4679, 138.5774
496.9500, 138.7790
497.4322, 139.2025
497.9143, 139.3660
498.3964, 138.8273
498.8785, 138.2050
499.3606, 137.8611
499.8427, 137.7409
500.3249, 137.6047
500.8070, 137.2834
501.2891, 136.9892
501.7712, 136.8478
502.2533, 136.9305
502.7354, 136.9979
503.2176, 137.0254
503.6997, 137.0317
504.1818, 137.0116
504.6639, 136.7996
505.1460, 136.8940
505.6281, 137.5379
506.1103, 138.5158
506.5924, 138.8984
507.0745, 138.5251
507.5566, 138.1179
508.0387, 138.0495
508.5208, 138.3036
509.0030, 138.6077
509.4851, 138.9832
509.9672, 139.2859
510.4493, 139.2788
510.9314, 139.0588
511.4135, 138.9368
511.8957, 138.9561
512.3778, 139.1730
512.8599, 139.8283
513.3420, 140.7671
513.8242, 141.5292
514.3063, 141.6777
514.7884, 141.7104
515.2705, 142.1086
515.7526, 142.9061
516.2347, 143.4576
516.7169, 143.1312
517.1990, 142.6753
517.6811, 142.6661
518.1632, 143.6274
518.6453, 144.4493
519.1274, 144.9161
519.6096, 145.1930
520.0917, 145.5720
520.5738, 146.0853
521.0559, 146.6454
521.5380, 147.2660
522.0201, 147.9366
522.5023, 148.4571
522.9844, 148.8001
523.4665, 149.0788
523.9486, 149.2879
524.4307, 149.4447
524.9128, 149.9362
525.3950, 150.8304
525.8771, 151.9112
526.3592, 153.0024
526.8413, 154.0534
527.3234, 154.9127
527.8055, 155.4163
528.2877, 155.7888
528.7698, 156.3197
529.2519, 156.9592
529.7340, 157.5187
530.2161, 157.8788
530.6982, 158.1259
531.1804, 158.2874
531.6625, 158.3326
532.1446, 158.4920
532.6267, 158.9853
533.1088, 159.5590
533.5909, 159.9719
534.0731, 160.0739
534.5552, 160.1670
535.0373, 160.2219
535.5194, 160.2912
536.0015, 160.5089
536.4836, 160.8765
536.9658, 161.3864
537.4479, 162.0465
537.9300, 162.8484
538.4121, 163.7488
538.8942, 164.7721
539.3763, 165.7614
539.8585, 166.6172
540.3406, 167.3323
540.8227, 167.8247
541.3048, 168.0389
541.7869, 168.2084
542.2690, 168.6599
542.7512, 169.2984
543.2333, 169.8871
543.7154, 170.3708
544.1975, 170.7292
544.6796, 170.9226
545.1617, 170.9703
545.6439, 170.9462
546.1260, 170.6754
546.6081, 170.5045
547.0902, 170.6789
547.5723, 171.3118
548.0544, 171.9149
548.5366, 172.6951
549.0187, 173.2609
549.5008, 173.2497
549.9829, 172.2688
550.4650, 171.4271
550.9471, 170.8463
551.4293, 170.4433
551.9114, 170.0832
552.3935, 169.8364
552.8756, 169.2863
553.3577, 168.1709
553.8398, 166.6246
554.3220, 165.2917
554.8041, 164.1747
555.2862, 163.0405
555.7683, 161.6431
556.2504, 160.1008
556.7325, 158.5773
557.2147, 157.0645
557.6968, 155.7381
558.1789, 154.8466
558.6610, 154.2074
559.1431, 153.5596
559.6252, 152.7404
560.1074, 151.9651
560.5895, 151.2800
561.0716, 150.6970
561.5537, 150.2688
562.0358, 150.1263
562.5179, 150.0186
563.0001, 149.8708
563.4822, 149.6841
563.9643, 149.4344
564.4464, 149.0210
564.9285, 148.6879
565.4106, 148.6654
565.8928, 149.0222
566.3749, 149.2115
566.8570, 149.1325
567.3391, 149.0101
567.8212, 149.1862
568.3033, 149.6384
568.7855, 150.2190
569.2676, 151.0755
569.7497, 151.8372
570.2318, 151.7640
570.7139, 151.0407
571.1960, 150.4711
571.6782, 150.6291
572.1603, 151.0720
572.6424, 151.4395
573.1245, 151.6929
573.6066, 152.0389
574.0887, 152.7253
574.5709, 153.4394
575.0530, 153.9415
575.5351, 154.0111
576.0172, 154.1496
576.4993, 154.4006
576.9814, 154.7150
577.4636, 154.9914
577.9457, 155.1653
578.4278, 155.4800
578.9099, 156.0228
579.3920, 156.7324
579.8741, 157.3671
580.3563, 157.9143
580.8384, 158.5169
581.3205, 159.4031
581.8026, 160.4088
582.2847, 160.9208
582.7668, 160.9145
583.2490, 160.9301
583.7311, 161.4090
584.2131, 162.1816
584.6953, 163.0373
585.1774, 163.9066
585.6595, 164.8902
586.1416, 166.2648
586.6237, 167.7291
587.1058, 168.8500
587.5880, 169.2858
588.0701, 169.6302
588.5522, 169.8201
589.0343, 169.9728
589.5164, 170.6922
589.9985, 172.2785
590.4807, 173.9386
590.9628, 175.4679
591.4449, 176.8741
591.9270, 177.5969
592.4091, 177.5125
592.8912, 177.2675
593.3734, 177.5014
593.8555, 178.0966
594.3376, 178.4842
594.8197, 178.5603
595.3018, 178.5207
595.7839, 178.5158
596.2661, 178.5585
596.7482, 178.6744
597.2303, 178.9492
597.7124, 179.2288
598.1945, 179.3805
598.6766, 179.4636
599.1588, 179.6456
599.6409, 180.3869
600.1230, 180.8508
600.6051, 180.4480
601.0872, 179.0854
601.5693, 178.5866
602.0515, 179.4255
602.5336, 180.4854
603.0157, 181.0510
603.4978, 181.0035
603.9799, 181.2340
604.4620, 181.8479
604.9442, 182.5095
605.4263, 182.6649
605.9084, 182.4308
606.3905, 182.5011
606.8726, 183.1287
607.3547, 183.9567
607.8369, 184.5369
608.3190, 184.9660
608.8011, 185.5072
609.2832, 186.4667
609.7653, 187.4157
610.2474, 187.9408
610.7296, 188.1278
611.2117, 188.6477
611.6938, 190.1033
612.1759, 191.5872
612.6580, 192.6303
613.1401, 193.1304
613.6223, 193.6542
614.1044, 194.1778
614.5865, 194.7478
615.0686, 195.4380
615.5507, 196.2776
616.0328, 196.9412
616.5150, 197.3408
616.9971, 197.6905
617.4792, 198.3749
617.9613, 199.3176
618.4434, 200.1516
618.9255, 200.7200
619.4077, 201.1661
619.8898, 201.4314
620.3719, 201.6782
620.8540, 202.4172
621.3361, 204.3218
621.8182, 206.4212
622.3004, 208.1013
622.7825, 209.3350
623.2646, 210.8443
623.7467, 213.0900
624.2288, 215.3586
624.7109, 217.2033
625.1931, 218.2989
625.6752, 220.1941
626.1573, 223.2543
626.6394, 226.5177
627.1215, 228.7115
627.6036, 229.8050
628.0858, 231.8681
628.5679, 235.3230
629.0500, 239.5954
629.5321, 243.9784
630.0142, 248.4700
630.4963, 252.9058
630.9785, 257.0647
631.4606, 261.3540
631.9427, 266.0363
632.4248, 271.1298
632.9069, 276.7106
633.3890, 282.7788
633.8712, 289.3009
634.3533, 296.2177
634.8354, 303.5091
635.3175, 311.6556
635.7996, 320.9708
636.2817, 330.7679
636.7639, 340.7255
637.2460, 350.6429
637.7281, 361.4435
638.2102, 373.1990
638.6923, 385.7658
639.1744, 399.1878
639.6566, 413.2777
640.1387, 427.6453
640.6208, 441.7677
641.1029, 456.5889
641.5850, 473.3303
642.0671, 491.4006
642.5493, 510.0291
643.0314, 528.2712
643.5135, 547.3141
643.9956, 567.5228
644.4777, 588.9700
644.9598, 612.0967
645.4420, 637.6745
645.9241, 664.2911
646.4062, 691.1695
646.8883, 718.2479
647.3704, 747.1628
647.8525, 777.7623
648.3347, 810.1788
648.8168, 843.9728
649.2989, 879.5228
649.7810, 915.7381
650.2631, 952.5361
650.7452, 989.5536
651.2274, 1026.262
651.7095, 1062.375
652.1916, 1098.408
652.6737, 1134.368
653.1558, 1167.993
653.6379, 1198.672
654.1201, 1225.860
654.6022, 1249.041
655.0843, 1268.849
655.5664, 1283.710
656.0485, 1292.420
656.5306, 1295.695
657.0128, 1295.564
657.4949, 1291.305
657.9770, 1284.959
658.4591, 1276.737
658.9412, 1266.877
659.4233, 1256.369
659.9055, 1245.178
660.3876, 1233.331
660.8697, 1220.867
661.3518, 1207.669
661.8339, 1193.631
662.3160, 1178.720
662.7982, 1162.341
663.2803, 1144.353
663.7624, 1124.454
664.2445, 1102.516
664.7266, 1078.354
665.2087, 1052.561
665.6909, 1025.255
666.1730, 996.4465
666.6551, 966.0920
667.1372, 934.2043
667.6193, 900.5218
668.1014, 864.4050
668.5836, 827.5585
669.0657, 792.4964
669.5478, 759.6630
670.0299, 726.6723
670.5120, 692.6799
670.9941, 659.0046
671.4763, 627.4353
671.9584, 598.1318
672.4405, 571.2707
672.9226, 547.5432
673.4047, 525.5099
673.8868, 503.6611
674.3690, 482.4989
674.8511, 463.0781
675.3332, 445.8986
675.8153, 430.5189
676.2974, 416.6763
676.7795, 404.3375
677.2617, 392.9102
677.7438, 382.5005
678.2259, 372.6889
678.7080, 363.0104
679.1901, 353.3220
679.6722, 345.3124
680.1544, 339.0490
680.6365, 333.4348
681.1186, 327.3130
681.6007, 321.0107
682.0828, 315.1374
682.5649, 309.8104
683.0471, 305.0423
683.5292, 301.2295
684.0113, 297.9310
684.4934, 294.7184
684.9755, 291.4811
685.4576, 288.2592
685.9398, 284.8835
686.4219, 281.5619
686.9040, 278.5556
687.3861, 275.7248
687.8682, 273.5430
688.3503, 272.2778
688.8325, 271.5670
689.3146, 270.5105
689.7967, 269.1104
690.2788, 267.7170
690.7609, 266.4008
691.2430, 265.2533
691.7252, 264.4119
692.2073, 263.8592
692.6894, 263.5512
693.1715, 263.5320
693.6536, 263.6863
694.1357, 263.9123
694.6179, 264.2081
695.1000, 264.7047
695.5821, 265.4221
696.0642, 266.3600
696.5463, 267.4968
697.0284, 268.8191
697.5106, 270.4595
697.9927, 272.5105
698.4748, 274.6764
698.9569, 276.4877
699.4390, 278.0778
699.9211, 280.6488
700.4033, 284.3827
700.8854, 288.3602
701.3675, 291.4495
701.8496, 294.2349
702.3317, 297.5966
702.8138, 301.6342
703.2960, 306.4680
703.7781, 312.3195
704.2602, 318.9330
704.7423, 325.9952
705.2244, 333.6447
705.7065, 341.4842
706.1887, 349.3553
706.6708, 357.4301
707.1529, 366.3670
707.6350, 376.2326
708.1171, 386.5021
708.5992, 396.9975
709.0814, 407.8737
709.5635, 419.7365
710.0456, 432.5529
710.5277, 445.8802
711.0098, 459.0787
711.4919, 473.0034
711.9741, 488.7509
712.4562, 505.8631
712.9383, 523.0574
713.4204, 538.9560
713.9025, 555.7598
714.3846, 574.5548
714.8668, 595.4122
715.3489, 616.6741
715.8310, 638.6132
716.3131, 660.7599
716.7952, 683.1739
717.2773, 705.6703
717.7595, 728.9085
718.2416, 752.9092
718.7237, 775.4805
719.2058, 795.1809
719.6879, 812.2368
720.1700, 827.1589
720.6522, 840.2593
721.1343, 848.7852
721.6164, 851.0048
722.0985, 848.1775
722.5806, 841.3260
723.0627, 830.3871
723.5449, 815.6454
724.0270, 796.1375
724.5091, 773.8057
724.9912, 749.8727
725.4733, 723.4919
725.9554, 698.6589
726.4376, 675.5726
726.9197, 654.2164
727.4018, 634.5530
727.8839, 616.8739
728.3660, 602.2631
728.8481, 591.1882
729.3303, 582.3850
729.8124, 574.7798
730.2945, 568.7702
730.7766, 565.0443
731.2587, 563.9333
731.7408, 564.9153
732.2230, 567.7586
732.7051, 572.6678
733.1872, 580.2783
733.6693, 590.6376
734.1514, 603.3107
734.6335, 618.1404
735.1157, 635.2629
735.5978, 655.2031
736.0799, 677.8730
736.5620, 702.4953
737.0441, 728.3890
737.5262, 756.3043
738.0084, 787.5416
738.4905, 821.8639
738.9726, 858.4549
739.4547, 897.1814
739.9368, 937.8920
740.4189, 980.6193
740.9011, 1025.629
741.3832, 1071.901
741.8653, 1119.020
742.3474, 1168.779
742.8295, 1221.069
743.3116, 1276.234
743.7938, 1335.295
744.2759, 1398.205
744.7580, 1466.246
745.2401, 1540.521
745.7222, 1619.493
746.2043, 1701.839
746.6865, 1787.815
747.1686, 1876.559
747.6507, 1970.777
748.1328, 2066.244
748.6149, 2162.310
749.0970, 2258.627
749.5792, 2347.518
750.0613, 2432.296
750.5434, 2505.477
751.0255, 2564.821
751.5076, 2610.491
751.9897, 2635.603
752.4719, 2640.202
752.9540, 2623.032
753.4361, 2579.745
753.9182, 2514.698
754.4003, 2432.647
754.8824, 2333.529
755.3646, 2229.379
755.8467, 2124.335
756.3288, 2020.635
756.8109, 1922.672
757.2930, 1826.806
757.7751, 1742.737
758.2573, 1670.444
758.7394, 1609.037
759.2215, 1557.776
759.7036, 1516.420
760.1857, 1484.081
760.6678, 1461.193
761.1500, 1446.614
761.6321, 1440.353
762.1142, 1441.616
762.5963, 1448.539
763.0784, 1460.735
763.5605, 1478.339
764.0427, 1502.781
764.5248, 1532.161
765.0069, 1564.103
765.4890, 1598.215
765.9711, 1634.767
766.4532, 1675.569
766.9354, 1717.807
767.4175, 1758.212
767.8996, 1797.244
768.3817, 1832.829
768.8638, 1865.475
769.3459, 1893.131
769.8281, 1912.522
770.3102, 1923.794
770.7923, 1927.279
771.2744, 1922.570
771.7565, 1910.898
772.2386, 1892.647
772.7208, 1868.077
773.2029, 1837.642
773.6850, 1798.048
774.1671, 1756.520
774.6492, 1713.411
775.1313, 1669.367
775.6135, 1625.472
776.0956, 1582.032
776.5777, 1538.988
777.0598, 1495.770
777.5419, 1453.789
778.0240, 1414.860
778.5062, 1378.634
778.9883, 1343.888
779.4704, 1310.472
779.9525, 1278.476
780.4346, 1247.481
780.9167, 1218.155
781.3989, 1191.392
781.8810, 1166.710
782.3631, 1145.590
782.8452, 1128.634
783.3273, 1115.522
783.8094, 1105.124
784.2916, 1097.400
784.7737, 1092.633
785.2558, 1090.831
785.7379, 1092.057
786.2200, 1096.610
786.7021, 1104.377
787.1843, 1114.628
787.6664, 1126.778
788.1485, 1141.779
788.6306, 1160.330
789.1127, 1182.231
789.5948, 1206.066
790.0770, 1231.300
790.5591, 1259.334
791.0412, 1290.746
791.5233, 1324.999
792.0054, 1360.943
792.4875, 1398.265
792.9697, 1437.827
793.4518, 1479.947
793.9339, 1524.093
794.4160, 1568.315
794.8981, 1613.135
795.3802, 1660.320
795.8624, 1712.723
796.3445, 1765.662
796.8266, 1816.448
797.3087, 1865.212
797.7908, 1914.804
798.2729, 1966.460
798.7551, 2016.263
799.2372, 2064.711
799.7193, 2110.671
800.2014, 2151.286
800.6835, 2186.385
801.1656, 2215.288
801.6478, 2238.925
802.1299, 2254.721
802.6120, 2259.806
803.0941, 2254.762
803.5762, 2241.384
804.0583, 2220.913
804.5405, 2191.642
805.0226, 2151.274
805.5047, 2101.286
805.9868, 2045.487
806.4689, 1983.438
806.9510, 1918.437
807.4332, 1851.734
807.9153, 1782.801
808.3974, 1710.609
808.8795, 1635.921
809.3616, 1562.745
809.8438, 1493.894
810.3259, 1427.815
810.8080, 1362.804
811.2901, 1299.939
811.7722, 1240.749
812.2543, 1186.379
812.7365, 1135.164
813.2186, 1086.624
813.7007, 1040.672
814.1828, 998.1879
814.6649, 959.1243
815.1470, 922.0970
815.6292, 887.0777
816.1113, 853.7991
816.5934, 821.7770
817.0755, 791.1445
817.5576, 762.8791
818.0397, 738.2307
818.5219, 715.2996
819.0040, 693.2991
819.4861, 672.2365
819.9682, 652.6324
820.4503, 634.7403
820.9324, 617.3984
821.4146, 600.5894
821.8967, 584.4016
822.3788, 569.3656
822.8609, 555.5855
823.3430, 542.7960
823.8251, 531.1360
824.3073, 520.1143
824.7894, 508.6938
825.2715, 497.4296
825.7536, 486.9984
826.2357, 478.2945
826.7178, 469.8804
827.2000, 461.3971
827.6821, 452.9644
828.1642, 444.9908
828.6463, 437.3216
829.1284, 430.3986
829.6105, 424.2868
830.0927, 418.7785
830.5748, 413.5682
831.0569, 408.5682
831.5390, 403.4014
832.0211, 397.7404
832.5032, 392.0826
832.9854, 386.6427
833.4675, 381.4904
833.9496, 376.8595
834.4317, 373.0599
834.9138, 369.4748
835.3959, 366.2127
835.8781, 363.0595
836.3602, 359.5475
836.8423, 355.7195
837.3244, 352.1607
837.8065, 349.0089
838.2886, 346.0829
838.7708, 343.1090
839.2529, 340.1968
839.7350, 337.5235
840.2171, 335.2336
840.6992, 332.9764
841.1813, 330.5262
841.6635, 328.1053
842.1456, 325.9760
842.6277, 324.3898
843.1098, 322.2747
843.5919, 319.4186
844.0740, 316.4434
844.5562, 314.2012
845.0383, 312.4680
845.5204, 310.6158
846.0025, 308.5455
846.4846, 306.3853
846.9667, 304.0811
847.4489, 301.8110
847.9310, 299.7835
848.4131, 298.1054
848.8952, 296.4528
849.3773, 294.9958
849.8594, 293.2911
850.3416, 290.9901
850.8237, 288.0994
851.3058, 284.8170
851.7879, 281.0939
852.2700, 277.4196
852.7521, 274.2603
853.2343, 271.2526
853.7164, 267.9310
854.1985, 264.2664
854.6806, 260.5932
855.1627, 256.9240
855.6448, 253.3623
856.1270, 249.9809
856.6091, 246.7683
857.0912, 243.4734
857.5733, 240.0637
858.0554, 236.9013
858.5375, 234.2617
859.0197, 232.0253
859.5018, 230.0709
859.9839, 228.3281
860.4660, 226.3421
860.9481, 223.3492
861.4302, 220.5275
861.9124, 218.7211
862.3945, 217.8407
862.8766, 216.3192
863.3587, 213.9403
863.8408, 211.4649
864.3229, 209.0478
864.8051, 206.8133
865.2872, 205.4047
865.7693, 204.6678
866.2514, 203.7645
866.7335, 202.3097
867.2156, 200.5167
867.6978, 198.2908
868.1799, 195.8908
868.6620, 193.8734
869.1441, 192.5228
869.6262, 191.4193
870.1083, 190.5572
870.5905, 189.8628
871.0726, 189.3150
871.5547, 188.8950
872.0368, 188.0129
872.5189, 186.3673
873.0010, 184.6453
873.4832, 183.7993
873.9653, 183.3565
874.4474, 182.5116
874.9295, 180.5354
875.4116, 179.0066
875.8937, 178.6865
876.3759, 178.7116
876.8580, 178.2903
877.3401, 177.3360
877.8222, 176.3779
878.3043, 175.4204
878.7864, 174.5831
879.2686, 174.0315
879.7507, 173.6657
880.2328, 173.3583
880.7149, 173.1133
881.1970, 172.6999
881.6791, 171.9628
882.1613, 171.0491
882.6434, 169.9750
883.1255, 168.6771
883.6076, 167.8071
884.0897, 167.4725
884.5718, 167.2249
885.0540, 166.7785
885.5361, 166.1761
886.0182, 165.5882
886.5003, 165.0002
886.9824, 164.3194
887.4645, 163.1168
887.9467, 162.1333
888.4288, 162.0764
888.9109, 162.8308
889.3930, 162.9415
889.8751, 162.0594
890.3572, 161.2187
890.8394, 160.8308
891.3215, 160.6469
891.8036, 159.8430
892.2857, 158.5533
892.7678, 157.4673
893.2499, 157.0199
893.7321, 156.7479
894.2142, 156.2964
894.6963, 155.7731
895.1784, 155.3932
895.6605, 155.4438
896.1426, 155.2643
896.6248, 154.7403
897.1069, 154.0299
897.5890, 153.3479
898.0711, 152.6871
898.5532, 151.9881
899.0353, 151.1839
899.5175, 150.5817
899.9996, 150.6766
900.4817, 151.0285
900.9638, 151.1409
901.4459, 150.9344
901.9280, 150.4265
902.4102, 149.3692
902.8923, 148.3247
903.3744, 147.7231
903.8565, 147.5697
904.3386, 147.2950
904.8207, 146.8965
905.3029, 146.4765
905.7850, 146.1166
906.2671, 145.7854
906.7492, 145.4723
907.2313, 145.1694
907.7134, 144.7836
908.1956, 144.1880
908.6777, 143.6176
909.1598, 143.1734
909.6419, 142.8174
910.1240, 142.3264
910.6061, 141.6994
911.0883, 141.1601
911.5704, 140.8616
912.0525, 140.6403
912.5346, 140.2971
913.0167, 139.8617
913.4988, 139.3990
913.9810, 138.8181
914.4631, 138.3601
914.9452, 138.1360
915.4273, 138.0136
915.9094, 137.7925
916.3915, 137.4617
916.8737, 137.2139
917.3558, 137.0904
917.8379, 136.9859
918.3200, 136.7046
918.8021, 136.3947
919.2842, 136.3163
919.7664, 136.5892
920.2485, 136.7587
920.7306, 136.6246
921.2127, 136.3876
921.6948, 136.1307
922.1769, 135.8387
922.6591, 135.8059
923.1412, 136.0707
923.6233, 136.1978
924.1054, 135.6009
924.5875, 134.8429
925.0696, 134.8661
925.5518, 135.5319
926.0339, 135.9700
926.5160, 135.6168
926.9981, 135.2172
927.4802, 135.0383
927.9623, 134.9977
928.4445, 134.7858
928.9266, 134.3732
929.4087, 134.1903
929.8908, 134.4714
930.3729, 134.8175
930.8550, 134.7662
931.3372, 134.3725
931.8193, 133.6909
932.3014, 132.1906
932.7835, 131.3240
933.2656, 131.9902
933.7477, 132.9987
934.2299, 133.2764
934.7120, 132.7427
935.1941, 132.2056
935.6762, 131.6999
936.1583, 131.2579
936.6404, 130.8869
937.1226, 130.6155
937.6047, 130.5179
938.0868, 130.5986
938.5689, 130.6863
939.0510, 130.7142
939.5331, 130.7516
940.0153, 130.8665
940.4974, 131.0193
940.9795, 130.9099
941.4616, 130.5322
941.9437, 130.1566
942.4258, 129.9304
942.9080, 129.7487
943.3901, 129.4228
943.8722, 129.0578
944.3543, 128.8781
944.8364, 129.4732
945.3185, 129.5277
945.8007, 128.5302
946.2828, 127.2472
946.7649, 126.8250
947.2470, 127.2328
947.7291, 127.1332
948.2112, 126.2731
948.6934, 125.4695
949.1755, 125.6559
949.6576, 126.2246
950.1397, 126.5148
950.6218, 126.3958
951.1039, 126.2276
951.5861, 126.0712
952.0682, 125.8569
952.5503, 125.5000
953.0324, 125.0462
953.5145, 124.8299
953.9966, 124.8390
954.4788, 124.9028
954.9609, 125.1135
955.4430, 125.1705
955.9251, 124.6139
956.4072, 123.7193
956.8893, 123.2384
957.3715, 123.5860
957.8536, 123.8260
958.3357, 123.8357
958.8178, 123.6961
959.2999, 123.5162
959.7820, 123.2940
960.2642, 123.0005
960.7463, 122.6019
961.2284, 122.2789
961.7105, 122.2332
962.1926, 122.2701
962.6747, 122.2311
963.1569, 122.1048
963.6390, 121.8400
964.1211, 121.3564
964.6032, 120.9486
965.0853, 120.9322
965.5674, 121.1017
966.0496, 120.7822
966.5317, 120.0721
967.0138, 119.4247
967.4959, 119.0355
967.9780, 118.8216
968.4601, 118.9026
968.9423, 119.1084
969.4244, 119.0671
969.9065, 118.7509
970.3886, 118.2457
970.8707, 117.4672
971.3528, 116.7878
971.8350, 116.8613
972.3171, 117.3396
972.7992, 117.6109
973.2813, 117.5571
973.7634, 117.2942
974.2455, 116.6234
974.7277, 115.9708
975.2098, 115.6087
975.6919, 115.5407
976.1740, 115.4835
976.6561, 115.4384
977.1382, 115.3645
977.6204, 115.2192
978.1025, 115.0420
978.5846, 114.9030
979.0667, 114.7735
979.5488, 114.5640
980.0309, 114.0025
980.5131, 113.7107
980.9952, 113.8919
981.4773, 114.2712
981.9594, 114.4284
982.4415, 114.3729
982.9236, 114.1293
983.4058, 113.6641
983.8879, 113.2728
984.3700, 113.3062
984.8521, 113.4676
985.3342, 113.5005
985.8163, 113.3663
986.2985, 113.0582
986.7806, 112.4503
987.2627, 111.9650
987.7448, 111.8708
988.2269, 112.0434
988.7090, 112.1716
989.1912, 112.2382
989.6733, 112.1659
990.1554, 111.8783
990.6375, 111.4847
991.1196, 110.8369
991.6017, 110.1989
992.0839, 110.0766
992.5660, 110.6361
993.0481, 110.9579
993.5302, 110.9096
994.0123, 110.7223
994.4944, 110.6089
994.9766, 110.5510
995.4587, 110.5986
995.9408, 110.7754
996.4229, 110.6655
996.9050, 109.6045
997.3871, 108.7967
997.8693, 108.8621
998.3514, 109.6177
998.8335, 109.9816
999.3156, 109.9689
999.7977, 109.8357
1000.280, 109.6671
1000.762, 109.4695
1001.244, 109.2164
1001.726, 108.9507
1002.208, 108.7435
1002.690, 108.6645
1003.173, 108.5336
1003.655, 108.2838
1004.137, 108.1113
1004.619, 108.2985
1005.101, 108.7318
1005.583, 109.0767
1006.065, 109.3035
1006.547, 109.2360
1007.029, 108.3845
1007.512, 107.5639
1007.994, 107.3462
1008.476, 107.5803
1008.958, 107.5915
1009.440, 107.3237
1009.922, 107.2012
1010.404, 107.4333
1010.886, 107.6897
1011.369, 107.3553
1011.851, 106.7691
1012.333, 106.5418
1012.815, 107.0715
1013.297, 107.3673
1013.779, 107.0876
1014.261, 106.7404
1014.743, 106.6668
1015.225, 106.8562
1015.708, 107.1988
1016.190, 107.6711
1016.672, 107.8768
1017.154, 107.2536
1017.636, 106.5472
1018.118, 106.3040
1018.600, 106.4200
1019.082, 106.5043
1019.565, 106.5188
1020.047, 106.5404
1020.529, 106.5877
1021.011, 106.6238
1021.493, 106.5296
1021.975, 106.4024
1022.457, 106.4733
1022.939, 106.8008
1023.421, 107.1410
1023.904, 107.5492
1024.386, 107.7667
1024.868, 107.5933
1025.350, 107.0951
1025.832, 106.9061
1026.314, 107.0243
1026.796, 107.1977
1027.278, 107.3387
1027.760, 107.4480
1028.243, 107.5823
1028.725, 107.6718
1029.207, 107.5882
1029.689, 106.9639
1030.171, 106.8010
1030.653, 107.2807
1031.135, 107.8681
1031.617, 108.0069
1032.100, 107.8359
1032.582, 107.7590
1033.064, 107.7925
1033.546, 107.8447
1034.028, 107.7965
1034.510, 107.8305
1034.992, 108.1132
1035.474, 108.5296
1035.957, 108.7172
1036.439, 108.6624
1036.921, 108.6786
1037.403, 108.8639
1037.885, 109.0615
1038.367, 109.1268
1038.849, 109.0824
1039.331, 108.8835
1039.813, 108.3846
1040.296, 108.3849
1040.778, 109.1774
1041.260, 109.9350
1041.742, 110.1301
1042.224, 109.9622
1042.706, 110.1747
1043.188, 110.6440
1043.670, 110.9029
1044.152, 110.5021
1044.635, 110.0981
1045.117, 109.8524
1045.599, 109.8170
1046.081, 110.1189
1046.563, 110.8292
1047.045, 111.3677
1047.527, 111.7069
1048.009, 111.8022
1048.492, 111.3980
1048.974, 110.8782
1049.456, 110.6035
1049.938, 110.5973
1050.420, 110.8411
1050.902, 111.6035
1051.384, 112.0129
1051.866, 111.7031
1052.349, 111.1645
1052.831, 111.4837
1053.313, 112.3372
1053.795, 112.7778
1054.277, 112.4472
1054.759, 112.2156
1055.241, 112.7725
1055.723, 113.2921
1056.205, 113.1148
1056.688, 112.2730
1057.170, 112.2542
1057.652, 113.0595
1058.134, 113.7175
1058.616, 113.6089
1059.098, 113.2539
1059.580, 113.0721
1060.062, 113.0074
1060.544, 112.9567
1061.027, 112.9087
1061.509, 112.8550
1061.991, 112.7735
1062.473, 112.7483
1062.955, 112.8870
1063.437, 113.1336
1063.919, 113.4356
1064.401, 113.7593
1064.884, 113.8980
1065.366, 113.6867
1065.848, 113.3313
1066.330, 112.7530
1066.812, 112.1886
1067.294, 112.3379
1067.776, 113.1038
1068.258, 113.3958
1068.740, 112.9057
1069.223, 112.3860
1069.705, 112.4398
1070.187, 112.7203
1070.669, 112.9965
1071.151, 113.2593
1071.633, 113.1790
1072.115, 112.6411
1072.597, 112.3425
1073.079, 112.7579
1073.562, 113.3576
1074.044, 113.2699
1074.526, 112.7899
1075.008, 112.4668
1075.490, 112.5610
1075.972, 112.6526
1076.454, 112.7259
1076.936, 112.7531
1077.419, 112.7297
1077.901, 112.6431
1078.383, 112.3739
1078.865, 111.9551
1079.347, 111.6319
1079.829, 111.4668
1080.311, 111.5060
1080.793, 111.9446
1081.275, 112.5251
1081.758, 112.8461
1082.240, 112.8977
1082.722, 112.9236
1083.204, 112.9652
1083.686, 112.8565
1084.168, 112.1036
1084.650, 111.3887
1085.132, 111.5491
1085.615, 112.5755
1086.097, 112.9144
1086.579, 112.2633
1087.061, 111.7812
1087.543, 111.8739
1088.025, 112.1465
1088.507, 111.8186
1088.989, 111.2620
1089.471, 111.2185
1089.953, 112.0551
1090.436, 112.6309
1090.918, 112.5778
1091.400, 112.3701
1091.882, 112.1929
1092.364, 112.0642
1092.846, 112.1124
1093.328, 112.3009
1093.810, 112.4634
1094.293, 112.5064
1094.775, 112.5272
1095.257, 112.5338
1095.739, 112.5659
1096.221, 112.6889
1096.703, 112.9288
1097.185, 112.9900
1097.667, 112.8613
1098.150, 112.7715
1098.632, 112.9161
1099.114, 113.1509
1099.596, 113.4411
1100.078, 113.7178
1100.560, 113.7644
1101.042, 113.4774
1101.524, 113.2588
1102.006, 113.1699
1102.489, 113.1186
1102.971, 112.9180
1103.453, 112.7220
1103.935, 112.8446
1104.417, 113.3003
1104.899, 113.5950
1105.381, 113.5354
1105.863, 113.4117
1106.345, 113.2828
1106.828, 113.1551
1107.310, 112.9864
1107.792, 112.8329
1108.274, 112.9041
1108.756, 113.3042
1109.238, 113.6711
1109.720, 113.8486
1110.202, 113.9107
1110.685, 113.8501
1111.167, 113.7039
1111.649, 113.8373
1112.131, 114.2072
1112.613, 114.3767
1113.095, 114.0587
1113.577, 113.6527
1114.059, 113.3252
1114.542, 113.1405
1115.024, 113.2150
1115.506, 113.6527
1115.988, 113.7563
1116.470, 113.4931
1116.952, 113.2247
1117.434, 113.0999
1117.916, 113.1738
1118.398, 113.8112
1118.880, 114.6626
1119.363, 114.8277
1119.845, 113.6946
1120.327, 112.9668
1120.809, 112.8103
1121.291, 112.9032
1121.773, 113.0319
1122.255, 113.1416
1122.737, 113.0543
1123.220, 112.8164
1123.702, 112.7712
1124.184, 113.4419
1124.666, 113.7317
1125.148, 113.3502
1125.630, 112.6483
1126.112, 112.0916
1126.594, 111.6878
1127.077, 111.4988
1127.559, 111.5400
1128.041, 111.5994
1128.523, 111.5956
1129.005, 111.5559
1129.487, 111.4408
1129.969, 111.3255
1130.451, 111.5226
1130.933, 111.9759
1131.416, 112.2339
1131.898, 112.1422
1132.380, 111.9874
1132.862, 111.9983
1133.344, 111.9908
1133.826, 111.7873
1134.308, 111.4030
1134.790, 111.0976
1135.272, 110.8675
1135.755, 110.8436
1136.237, 111.1657
1136.719, 111.5569
1137.201, 111.6645
1137.683, 111.7318
1138.165, 112.1228
1138.647, 112.9699
1139.129, 113.7253
1139.612, 114.4703
1140.094, 114.5876
1140.576, 113.1368
1141.058, 111.3042
1141.540, 110.6018
1142.022, 110.6743
1142.504, 110.7684
1142.986, 110.7632
1143.469, 110.7084
1143.951, 110.5852
1144.433, 110.4721
1144.915, 110.4223
1145.397, 110.4354
1145.879, 110.5597
1146.361, 110.7558
1146.843, 110.8662
1147.325, 110.7878
1147.807, 110.6896
1148.290, 110.5873
1148.772, 110.4821
1149.254, 110.3337
1149.736, 110.1918
1150.218, 110.2850
1150.700, 110.5876
1151.182, 110.6160
1151.664, 109.6994
1152.147, 109.0885
1152.629, 109.2628
1153.111, 109.7722
1153.593, 109.7303
1154.075, 109.2861
1154.557, 109.0975
1155.039, 109.2836
1155.521, 109.3513
1156.004, 108.8454
1156.486, 108.3590
1156.968, 108.1890
1157.450, 108.2358
1157.932, 108.1858
1158.414, 108.0550
1158.896, 107.9762
1159.378, 108.0104
1159.860, 107.9608
1160.343, 107.4856
1160.825, 107.0777
1161.307, 107.1344
1161.789, 107.5789
1162.271, 107.8926
1162.753, 108.0674
1163.235, 107.8595
1163.717, 106.9678
1164.199, 106.2012
1164.682, 106.4430
1165.164, 106.9910
1165.646, 107.1717
1166.128, 106.9610
1166.610, 106.5205
1167.092, 105.8391
1167.574, 105.3124
1168.056, 105.1935
1168.539, 105.2333
1169.021, 105.2970
1169.503, 105.3358
1169.985, 105.2532
1170.467, 104.9855
1170.949, 104.9552
1171.431, 105.2047
1171.913, 105.3266
1172.396, 104.9309
1172.878, 104.3956
1173.360, 104.0011
1173.842, 103.7853
1174.324, 103.8629
1174.806, 104.4490
1175.288, 104.6407
1175.770, 104.3301
1176.252, 104.0830
1176.734, 104.5655
1177.217, 105.1983
1177.699, 105.2204
1178.181, 104.7908
1178.663, 104.3975
1179.145, 104.0941
1179.627, 103.8902
1180.109, 103.8204
1180.591, 103.7155
1181.074, 103.2621
1181.556, 102.7739
1182.038, 102.7339
1182.520, 103.0819
1183.002, 103.4349
1183.484, 103.8943
1183.966, 103.9615
1184.448, 103.4653
1184.931, 102.9103
1185.413, 103.0252
1185.895, 103.3812
1186.377, 103.1521
1186.859, 102.3906
1187.341, 102.0467
1187.823, 102.6684
1188.305, 102.9211
1188.787, 102.4399
1189.270, 101.7834
1189.752, 101.7212
1190.234, 102.0205
1190.716, 102.0830
1191.198, 101.8877
1191.680, 102.7392
1192.162, 106.2589
1192.644, 108.1798
1193.126, 107.1025
1193.609, 104.7381
1194.091, 103.5988
1194.573, 103.2831
1195.055, 103.0960
1195.537, 102.9314
1196.019, 103.0038
1196.501, 103.5552
1196.983, 104.0013
1197.466, 104.2005
1197.948, 104.1528
1198.430, 103.6563
1198.912, 102.9756
1199.394, 102.6383
1199.876, 102.7637
1200.358, 103.1244
1200.840, 103.9626
1201.323, 104.4812
1201.805, 104.2934
1202.287, 103.7534
1202.769, 103.5299
1203.251, 103.5327
1203.733, 103.5962
1204.215, 103.7166
1204.697, 103.7325
1205.179, 103.4481
1205.661, 103.4131
1206.144, 104.0350
1206.626, 104.8747
1207.108, 104.8388
1207.590, 104.2535
1208.072, 103.7967
1208.554, 103.6412
1209.036, 103.6896
1209.518, 104.0603
1210.001, 104.3210
1210.483, 104.1241
1210.965, 103.7856
1211.447, 104.2418
1211.929, 105.1250
1212.411, 105.6160
1212.893, 105.2801
1213.375, 105.0602
1213.858, 105.0507
1214.340, 105.2065
1214.822, 105.6200
1215.304, 106.0952
1215.786, 106.0737
1216.268, 105.7548
1216.750, 105.5889
1217.232, 105.8258
1217.714, 105.9651
1218.197, 105.9331
1218.679, 105.8728
1219.161, 105.7918
1219.643, 105.8030
1220.125, 106.4317
1220.607, 107.3102
1221.089, 107.5667
1221.571, 106.2664
1222.053, 105.6374
1222.536, 105.9531
1223.018, 106.4944
1223.500, 106.8314
1223.982, 107.0346
1224.464, 107.2486
1224.946, 107.4319
1225.428, 107.4888
1225.910, 107.2964
1226.393, 107.0811
1226.875, 106.7482
1227.357, 106.6922
1227.839, 107.4921
1228.321, 108.5710
1228.803, 109.0227
1229.285, 108.9890
1229.767, 108.7798
1230.250, 108.2163
1230.732, 108.0048
1231.214, 108.2177
1231.696, 108.5296
1232.178, 108.7425
1232.660, 108.8664
1233.142, 108.9100
1233.624, 108.8759
1234.106, 108.7533
1234.589, 108.4524
1235.071, 108.3033
1235.553, 108.3188
1236.035, 108.4616
1236.517, 108.8277
1236.999, 109.2020
1237.481, 109.3518
1237.963, 109.3091
1238.445, 109.1298
1238.928, 108.7510
1239.410, 108.5044
1239.892, 108.4076
1240.374, 108.3538
1240.856, 108.3021
1241.338, 108.2178
1241.820, 107.9617
1242.302, 107.6853
1242.785, 107.7116
1243.267, 108.1170
1243.749, 108.5161
1244.231, 108.9056
1244.713, 109.0454
1245.195, 108.4615
1245.677, 107.8658
1246.159, 107.8146
1246.641, 108.1268
1247.124, 108.5023
1247.606, 108.9818
1248.088, 108.9061
1248.570, 108.2597
1249.052, 107.7843
1249.534, 108.2447
1250.016, 108.7301
1250.498, 108.5681
1250.980, 108.1748
1251.463, 108.1485
1251.945, 108.4806
1252.427, 108.5177
1252.909, 108.2592
1253.391, 107.9966
1253.873, 107.9627
1254.355, 107.8995
1254.837, 107.6127
1255.320, 107.3121
1255.802, 107.2626
1256.284, 107.4207
1256.766, 107.5667
1257.248, 107.6725
1257.730, 107.6205
1258.212, 107.0403
1258.694, 106.7397
1259.177, 107.0830
1259.659, 107.5377
1260.141, 107.5027
1260.623, 107.1262
1261.105, 106.8432
1261.587, 106.6825
1262.069, 106.6890
1262.551, 107.1212
1263.033, 107.3634
1263.516, 107.3209
1263.998, 107.1237
1264.480, 106.7562
1264.962, 106.3907
1265.444, 106.4767
1265.926, 106.8991
1266.408, 107.2074
1266.890, 107.2558
1267.372, 107.2146
1267.855, 107.0555
1268.337, 106.9411
1268.819, 107.1421
1269.301, 107.3814
1269.783, 107.1719
1270.265, 106.6899
1270.747, 106.4706
1271.229, 106.7401
1271.712, 106.6280
1272.194, 106.0320
1272.676, 105.5400
1273.158, 105.7330
1273.640, 106.1185
1274.122, 106.2291
1274.604, 106.2004
1275.086, 106.3457
1275.568, 106.7440
1276.051, 106.7591
1276.533, 106.3704
1277.015, 106.0491
1277.497, 106.1942
1277.979, 106.4014
1278.461, 106.5123
1278.943, 106.4787
1279.425, 106.1582
1279.907, 105.5613
1280.390, 105.4679
1280.872, 105.8313
1281.354, 106.1678
1281.836, 106.2753
1282.318, 106.2211
1282.800, 105.8880
1283.282, 105.5568
1283.764, 105.4842
1284.247, 105.6224
1284.729, 105.8252
1285.211, 106.0374
1285.693, 106.0576
1286.175, 105.4738
1286.657, 105.2243
1287.139, 105.5594
1287.621, 105.9109
1288.104, 105.7010
1288.586, 105.2812
1289.068, 105.5328
1289.550, 106.1573
1290.032, 106.4590
1290.514, 105.9922
1290.996, 105.7160
1291.478, 105.6855
1291.960, 105.6119
1292.443, 105.1150
1292.925, 104.6810
1293.407, 105.1352
1293.889, 105.9717
1294.371, 106.3093
1294.853, 105.9936
1295.335, 105.8924
1295.817, 106.0113
1296.299, 106.0848
1296.782, 105.9802
1297.264, 105.7726
1297.746, 105.4780
1298.228, 105.1304
1298.710, 104.6969
1299.192, 104.2147
1299.674, 104.3248
1300.156, 104.9259
1300.639, 105.3453
1301.121, 105.2140
1301.603, 105.0990
1302.085, 105.3434
1302.567, 105.6241
1303.049, 105.8003
1303.531, 105.8523
##END=



