##NAMES=Reinerite
##RRUFFID=R080132
##IDEAL CHEMISTRY=Zn^2+^_3_(As^3+^O_3_)_2_
##LOCALITY=4400 ft. level, Tsumeb, Namibia
##OWNER=RRUFF
##SOURCE=William W. Pinch
##DESCRIPTION=Colorless fragment
##STATUS=The identification of this mineral has been confirmed by single-crystal X-ray diffraction.
##URL=rruff.info/R080132
93.30109, 0.0000000E+00
93.78320, 148.5229
94.26532, 149.5778
94.74744, 149.6910
95.22955, 148.4839
95.71167, 147.6142
96.19379, 149.0386
96.67590, 153.4800
97.15802, 158.3698
97.64014, 163.0984
98.12225, 168.0096
98.60437, 173.7659
99.08649, 180.5677
99.56860, 188.4896
100.0507, 197.1349
100.5328, 205.8906
101.0150, 215.8940
101.4971, 226.9166
101.9792, 238.8012
102.4613, 255.0651
102.9434, 283.3909
103.4255, 313.8018
103.9077, 341.0537
104.3898, 365.1001
104.8719, 381.6555
105.3540, 380.2716
105.8361, 349.6132
106.3182, 319.4999
106.8004, 293.9823
107.2825, 273.3409
107.7646, 257.9145
108.2467, 248.0964
108.7288, 243.5797
109.2109, 240.8797
109.6931, 239.1880
110.1752, 239.9897
110.6573, 243.4020
111.1394, 249.6234
111.6215, 259.0697
112.1036, 272.1153
112.5858, 289.3376
113.0679, 308.7631
113.5500, 334.1895
114.0321, 358.9609
114.5142, 378.6961
114.9964, 392.6968
115.4785, 402.2180
115.9606, 409.0670
116.4427, 413.4951
116.9248, 410.2669
117.4069, 393.9893
117.8891, 369.4477
118.3712, 345.2329
118.8533, 320.6335
119.3354, 301.1547
119.8175, 291.0838
120.2996, 289.8120
120.7818, 293.3043
121.2639, 300.2095
121.7460, 310.6938
122.2281, 319.9809
122.7102, 328.1988
123.1923, 334.1246
123.6745, 335.6970
124.1566, 332.8885
124.6387, 328.9420
125.1208, 327.8116
125.6029, 327.8666
126.0850, 335.2091
126.5672, 349.1921
127.0493, 369.4092
127.5314, 396.3943
128.0135, 430.3604
128.4956, 469.3456
128.9777, 508.7691
129.4599, 553.6278
129.9420, 592.6907
130.4241, 620.0511
130.9062, 641.9728
131.3883, 665.2584
131.8704, 692.1513
132.3526, 725.7488
132.8347, 783.7767
133.3168, 865.4447
133.7989, 965.2668
134.2810, 1099.250
134.7632, 1258.502
135.2453, 1400.565
135.7274, 1508.420
136.2095, 1570.788
136.6916, 1576.166
137.1737, 1491.133
137.6559, 1368.438
138.1380, 1252.057
138.6201, 1138.453
139.1022, 1047.893
139.5843, 1002.655
140.0664, 986.6158
140.5486, 983.4461
141.0307, 999.3734
141.5128, 1021.694
141.9949, 1011.858
142.4770, 958.9086
142.9591, 885.6642
143.4413, 791.7171
143.9234, 688.2377
144.4055, 593.7744
144.8876, 521.3486
145.3697, 471.0760
145.8518, 434.7277
146.3340, 419.7654
146.8161, 413.6269
147.2982, 415.1014
147.7803, 422.8716
148.2624, 435.1772
148.7445, 450.6283
149.2267, 469.5556
149.7088, 490.2294
150.1909, 514.4610
150.6730, 538.5964
151.1551, 562.4033
151.6372, 585.0676
152.1194, 603.7239
152.6015, 615.3778
153.0836, 619.4648
153.5657, 613.5887
154.0478, 594.9134
154.5299, 567.7007
155.0121, 534.4770
155.4942, 495.5683
155.9763, 454.5987
156.4584, 416.4774
156.9405, 380.7911
157.4226, 348.3569
157.9048, 319.3004
158.3869, 293.6672
158.8690, 271.7664
159.3511, 253.9924
159.8332, 239.6825
160.3153, 227.5947
160.7975, 217.6448
161.2796, 209.3538
161.7617, 202.5648
162.2438, 197.2234
162.7259, 193.1572
163.2081, 190.8623
163.6902, 189.5216
164.1723, 188.3885
164.6544, 187.3922
165.1365, 187.1150
165.6186, 188.2508
166.1008, 190.9705
166.5829, 194.3604
167.0650, 198.1696
167.5471, 202.6373
168.0292, 207.8904
168.5113, 213.9744
168.9935, 220.9102
169.4756, 228.6975
169.9577, 237.2888
170.4398, 247.0844
170.9219, 258.3975
171.4040, 270.4929
171.8862, 282.8991
172.3683, 295.4166
172.8504, 307.9464
173.3325, 320.4074
173.8146, 333.9738
174.2967, 345.7421
174.7789, 356.8086
175.2610, 365.7106
175.7431, 370.8820
176.2252, 371.6947
176.7073, 368.1941
177.1894, 360.1259
177.6716, 345.4456
178.1537, 329.3525
178.6358, 311.1371
179.1179, 292.1695
179.6000, 274.5386
180.0821, 259.0371
180.5643, 246.1486
181.0464, 236.9737
181.5285, 231.1985
182.0106, 228.4766
182.4927, 229.0390
182.9748, 232.6615
183.4570, 238.4510
183.9391, 246.4249
184.4212, 256.2936
184.9033, 266.8987
185.3854, 278.7524
185.8675, 290.4774
186.3497, 301.6339
186.8318, 312.2771
187.3139, 320.4632
187.7960, 325.1412
188.2781, 326.6848
188.7602, 325.2287
189.2424, 320.5445
189.7245, 313.4011
190.2066, 304.5141
190.6887, 293.6065
191.1708, 281.8194
191.6530, 268.6324
192.1351, 255.1989
192.6172, 242.4420
193.0993, 230.7243
193.5814, 219.9061
194.0635, 209.8112
194.5457, 200.3621
195.0278, 191.9578
195.5099, 184.6348
195.9920, 178.1948
196.4741, 172.4707
196.9562, 167.3916
197.4384, 162.9626
197.9205, 159.1929
198.4026, 156.5542
198.8847, 154.0286
199.3668, 151.4121
199.8489, 148.8499
200.3311, 146.5049
200.8132, 144.4597
201.2953, 142.6872
201.7774, 141.1038
202.2595, 139.6534
202.7416, 138.4787
203.2238, 137.6048
203.7059, 137.0098
204.1880, 136.6201
204.6701, 136.3879
205.1522, 136.3764
205.6343, 136.9102
206.1165, 138.1162
206.5986, 139.6529
207.0807, 141.3825
207.5628, 143.3998
208.0449, 145.9107
208.5270, 149.0445
209.0092, 152.7210
209.4913, 156.5678
209.9734, 160.2562
210.4555, 164.4305
210.9376, 169.4665
211.4197, 175.1787
211.9019, 181.0866
212.3840, 186.8258
212.8661, 192.6709
213.3482, 199.2983
213.8303, 206.9323
214.3124, 214.8435
214.7946, 222.7917
215.2767, 230.7340
215.7588, 238.3012
216.2409, 245.6452
216.7230, 252.1930
217.2052, 257.5758
217.6873, 262.0014
218.1694, 264.7011
218.6515, 264.8548
219.1336, 262.5114
219.6157, 258.9518
220.0979, 254.6218
220.5800, 249.1284
221.0621, 241.9479
221.5442, 232.7861
222.0263, 222.8777
222.5084, 213.1601
222.9906, 203.5505
223.4727, 194.5770
223.9548, 186.3245
224.4369, 178.9391
224.9190, 172.6903
225.4011, 167.6089
225.8833, 163.3795
226.3654, 159.4996
226.8475, 155.8543
227.3296, 153.2126
227.8117, 152.1157
228.2938, 151.8542
228.7760, 152.0880
229.2581, 152.7428
229.7402, 153.9530
230.2223, 155.8747
230.7044, 158.5058
231.1865, 161.9346
231.6687, 166.4384
232.1508, 171.4727
232.6329, 176.6607
233.1150, 181.9792
233.5971, 187.7023
234.0792, 194.3456
234.5614, 202.4275
235.0435, 210.1623
235.5256, 217.3138
236.0077, 224.3173
236.4898, 231.6682
236.9719, 239.2981
237.4541, 246.5642
237.9362, 252.6299
238.4183, 257.4485
238.9004, 260.8758
239.3825, 263.0880
239.8646, 264.0730
240.3468, 263.6056
240.8289, 261.7618
241.3110, 259.0226
241.7931, 255.9682
242.2752, 252.8080
242.7573, 248.5614
243.2395, 242.8603
243.7216, 236.5429
244.2037, 229.9995
244.6858, 223.3528
245.1679, 216.6352
245.6501, 209.8919
246.1322, 203.1523
246.6143, 196.2403
247.0964, 188.7901
247.5785, 181.4316
248.0606, 174.5551
248.5428, 168.2181
249.0249, 162.1919
249.5070, 156.2708
249.9891, 150.4184
250.4712, 144.9637
250.9533, 139.7540
251.4355, 135.0117
251.9176, 130.8999
252.3997, 127.4086
252.8818, 124.3567
253.3639, 121.6198
253.8460, 119.2386
254.3282, 117.2438
254.8103, 115.9374
255.2924, 114.7665
255.7745, 113.2417
256.2566, 111.4089
256.7387, 109.8542
257.2209, 109.0524
257.7030, 108.9433
258.1851, 108.7525
258.6672, 108.3689
259.1493, 107.9935
259.6314, 107.7386
260.1136, 107.6054
260.5957, 107.5829
261.0778, 107.6318
261.5599, 107.8224
262.0420, 108.2823
262.5241, 109.2392
263.0063, 110.1974
263.4884, 110.7622
263.9705, 110.9768
264.4526, 111.2274
264.9347, 111.7264
265.4168, 112.3488
265.8990, 112.8403
266.3811, 113.1648
266.8632, 113.4408
267.3453, 113.7584
267.8274, 114.1086
268.3095, 114.4113
268.7917, 114.5799
269.2738, 114.7419
269.7559, 115.0443
270.2380, 115.4963
270.7201, 116.0536
271.2022, 116.6327
271.6844, 117.2610
272.1665, 118.1453
272.6486, 119.3668
273.1307, 120.8633
273.6128, 122.5536
274.0949, 124.4459
274.5771, 126.4147
275.0592, 128.4526
275.5413, 130.5358
276.0234, 132.5062
276.5055, 134.3795
276.9876, 136.0705
277.4698, 137.7370
277.9519, 139.2855
278.4340, 140.2680
278.9161, 140.1992
279.3982, 139.2832
279.8803, 138.4181
280.3625, 137.6471
280.8446, 136.9488
281.3267, 136.2597
281.8088, 135.6191
282.2909, 135.1164
282.7730, 134.7715
283.2552, 134.6046
283.7373, 134.7151
284.2194, 135.2232
284.7015, 135.7937
285.1836, 136.1457
285.6658, 136.4721
286.1479, 137.0960
286.6300, 138.2405
287.1121, 139.6897
287.5942, 140.9503
288.0764, 141.9551
288.5585, 142.9255
289.0406, 143.7864
289.5227, 144.7173
290.0048, 145.9495
290.4869, 147.6190
290.9691, 149.4766
291.4512, 151.0913
291.9333, 152.3753
292.4154, 153.6915
292.8975, 155.0034
293.3796, 156.4568
293.8618, 158.3822
294.3439, 160.8606
294.8260, 163.1584
295.3081, 164.3752
295.7902, 164.4532
296.2723, 163.7172
296.7545, 162.0225
297.2366, 159.6132
297.7187, 156.5706
298.2008, 152.9096
298.6829, 148.5879
299.1650, 143.4690
299.6472, 137.4627
300.1293, 131.3875
300.6114, 124.9430
301.0935, 118.7905
301.5756, 113.1952
302.0577, 108.1715
302.5399, 103.5743
303.0220, 99.30773
303.5041, 95.38432
303.9862, 91.93233
304.4683, 89.15276
304.9504, 86.66711
305.4326, 84.35267
305.9147, 82.21113
306.3968, 80.27381
306.8789, 78.59291
307.3610, 77.11015
307.8431, 75.58914
308.3253, 73.89314
308.8074, 72.39308
309.2895, 71.23277
309.7716, 70.27513
310.2537, 69.36372
310.7358, 68.41865
311.2180, 67.50957
311.7001, 66.81036
312.1822, 66.38816
312.6643, 66.02389
313.1464, 65.67550
313.6285, 65.35551
314.1107, 64.99786
314.5928, 64.59818
315.0749, 64.36633
315.5570, 64.65723
316.0391, 65.61486
316.5212, 66.57244
317.0034, 67.44628
317.4855, 68.32057
317.9676, 69.19384
318.4497, 70.09055
318.9318, 71.09539
319.4139, 72.31413
319.8961, 73.76253
320.3782, 75.25785
320.8603, 77.29186
321.3424, 78.86810
321.8245, 79.58681
322.3066, 79.53709
322.7888, 78.99644
323.2709, 78.13744
323.7530, 76.95583
324.2351, 75.44462
324.7172, 73.54215
325.1993, 71.34403
325.6815, 68.55508
326.1636, 65.60192
326.6457, 63.05740
327.1278, 61.24355
327.6099, 59.92304
328.0920, 58.47871
328.5742, 56.70052
329.0563, 55.26866
329.5384, 54.50739
330.0205, 54.01994
330.5026, 53.47496
330.9847, 52.77454
331.4669, 52.05546
331.9490, 51.52608
332.4311, 51.23714
332.9132, 50.91571
333.3953, 50.40150
333.8774, 49.93459
334.3596, 49.67333
334.8417, 49.61420
335.3238, 49.62746
335.8059, 49.55657
336.2880, 49.39726
336.7701, 49.44967
337.2523, 49.95868
337.7344, 50.41630
338.2165, 50.56176
338.6986, 50.47840
339.1807, 50.37990
339.6628, 50.40768
340.1450, 50.51685
340.6271, 50.54205
341.1092, 50.47520
341.5913, 50.33247
342.0735, 50.14422
342.5556, 49.88709
343.0377, 49.51982
343.5198, 49.01631
344.0019, 48.42871
344.4840, 47.86953
344.9662, 47.37403
345.4483, 46.73671
345.9304, 45.73626
346.4125, 44.65570
346.8946, 43.69284
347.3767, 42.87299
347.8589, 42.10939
348.3410, 41.34269
348.8231, 40.56915
349.3052, 39.75368
349.7873, 38.82572
350.2694, 37.92642
350.7516, 37.11449
351.2337, 36.39858
351.7158, 35.82094
352.1979, 35.48556
352.6800, 35.31042
353.1621, 35.01601
353.6443, 34.54903
354.1264, 34.07456
354.6085, 33.67971
355.0906, 33.34164
355.5727, 33.03819
356.0548, 32.77929
356.5370, 32.53107
357.0191, 32.24617
357.5012, 31.92387
357.9833, 31.58975
358.4654, 31.21001
358.9475, 30.85477
359.4297, 30.64171
359.9118, 30.62002
360.3939, 30.55190
360.8760, 30.15946
361.3581, 29.53143
361.8402, 29.13266
362.3224, 29.14216
362.8045, 29.30490
363.2866, 29.36786
363.7687, 29.34016
364.2508, 29.28954
364.7329, 29.26393
365.2151, 29.22532
365.6972, 29.05795
366.1793, 28.71541
366.6614, 28.47264
367.1435, 28.67783
367.6256, 29.15443
368.1078, 29.35048
368.5899, 28.97137
369.0720, 28.47421
369.5541, 28.21967
370.0362, 28.18175
370.5183, 28.19293
371.0005, 28.17368
371.4826, 28.16089
371.9647, 28.25388
372.4468, 28.52656
372.9289, 28.70957
373.4110, 28.63829
373.8932, 28.41736
374.3753, 28.23508
374.8574, 28.14142
375.3395, 28.08763
375.8216, 28.02320
376.3037, 27.95031
376.7859, 27.84247
377.2680, 27.57672
377.7501, 27.35670
378.2322, 27.41257
378.7143, 27.72677
379.1964, 28.04890
379.6786, 28.20190
380.1607, 28.19274
380.6428, 28.14683
381.1249, 28.02207
381.6070, 27.91299
382.0891, 27.87106
382.5713, 27.86601
383.0534, 27.84050
383.5355, 27.76956
384.0176, 27.66661
384.4997, 27.55650
384.9818, 27.38717
385.4640, 27.30248
385.9461, 27.35762
386.4282, 27.46676
386.9103, 27.57651
387.3924, 27.66898
387.8745, 27.72860
388.3567, 27.73629
388.8388, 27.68763
389.3209, 27.61598
389.8030, 27.48690
390.2851, 27.37313
390.7672, 27.29384
391.2494, 27.25168
391.7315, 27.24152
392.2136, 27.25838
392.6957, 27.31241
393.1778, 27.45134
393.6599, 27.84183
394.1421, 28.07355
394.6242, 28.02549
395.1063, 27.86374
395.5884, 27.71378
396.0706, 27.61575
396.5527, 27.56738
397.0348, 27.57863
397.5169, 27.67413
397.9990, 27.73013
398.4811, 27.69515
398.9633, 27.66604
399.4454, 27.70523
399.9275, 27.78439
400.4096, 27.82106
400.8917, 27.73782
401.3738, 27.57883
401.8560, 27.55378
402.3381, 27.77527
402.8202, 27.91488
403.3023, 27.79319
403.7844, 27.58861
404.2665, 27.50118
404.7487, 27.59687
405.2308, 27.72813
405.7129, 27.71536
406.1950, 27.55276
406.6771, 27.34686
407.1592, 27.01300
407.6414, 26.75427
408.1235, 26.75163
408.6056, 26.96725
409.0877, 27.18443
409.5698, 27.30966
410.0519, 27.34406
410.5341, 27.26566
411.0162, 27.04483
411.4983, 26.82321
411.9804, 26.66418
412.4625, 26.56851
412.9446, 26.55339
413.4268, 26.65920
413.9089, 26.78227
414.3910, 26.84813
414.8731, 26.86183
415.3552, 26.84972
415.8373, 26.82461
416.3195, 26.76912
416.8016, 26.62038
417.2837, 26.36495
417.7658, 26.20842
418.2479, 26.31200
418.7300, 26.48649
419.2122, 26.48709
419.6943, 26.29535
420.1764, 26.10307
420.6585, 26.06969
421.1406, 26.17843
421.6227, 26.21609
422.1049, 26.17628
422.5870, 26.08168
423.0691, 25.92614
423.5512, 25.72488
424.0333, 25.47117
424.5154, 25.15738
424.9976, 24.87505
425.4797, 24.81060
425.9618, 25.16183
426.4439, 25.33560
426.9260, 25.26999
427.4081, 25.08402
427.8903, 24.77208
428.3724, 24.39489
428.8545, 24.13613
429.3366, 24.16858
429.8187, 24.47360
430.3008, 24.62965
430.7830, 24.48613
431.2651, 24.35121
431.7472, 24.31341
432.2293, 24.29404
432.7114, 24.17113
433.1935, 23.90361
433.6757, 23.60309
434.1578, 23.46716
434.6399, 23.54971
435.1220, 23.60569
435.6041, 23.62149
436.0862, 23.60211
436.5684, 23.54552
437.0505, 23.45379
437.5326, 23.32703
438.0147, 23.13696
438.4968, 22.92042
438.9789, 22.82263
439.4611, 22.89117
439.9432, 22.95880
440.4253, 22.99778
440.9074, 22.98153
441.3895, 22.84732
441.8716, 22.55964
442.3538, 22.28332
442.8359, 22.16708
443.3180, 22.19326
443.8001, 22.28034
444.2822, 22.45901
444.7643, 22.61051
445.2465, 22.58172
445.7286, 22.41352
446.2107, 22.28118
446.6928, 22.28161
447.1749, 22.30634
447.6570, 22.22702
448.1392, 22.05405
448.6213, 21.90671
449.1034, 21.85749
449.5855, 21.86772
450.0677, 21.82524
450.5498, 21.69964
451.0319, 21.59556
451.5140, 21.52494
451.9961, 21.49682
452.4782, 21.55691
452.9604, 21.70310
453.4425, 21.82005
453.9246, 21.77440
454.4067, 21.54055
454.8888, 21.41849
455.3709, 21.43806
455.8531, 21.51487
456.3352, 21.70770
456.8173, 21.91846
457.2994, 21.95808
457.7815, 21.73699
458.2636, 21.41223
458.7458, 21.33252
459.2279, 21.67747
459.7100, 21.89379
460.1921, 21.90559
460.6742, 21.85311
461.1563, 21.79868
461.6385, 21.75302
462.1206, 21.70938
462.6027, 21.65703
463.0848, 21.60327
463.5669, 21.59249
464.0490, 21.65267
464.5312, 21.69852
465.0133, 21.69768
465.4954, 21.67087
465.9775, 21.62477
466.4596, 21.55712
466.9417, 21.51671
467.4239, 21.60840
467.9060, 21.79465
468.3881, 21.78792
468.8702, 21.44137
469.3523, 21.10213
469.8344, 21.12690
470.3166, 21.40266
470.7987, 21.61458
471.2808, 21.67358
471.7629, 21.64578
472.2450, 21.54589
472.7271, 21.39458
473.2093, 21.30496
473.6914, 21.33947
474.1735, 21.43251
474.6556, 21.44514
475.1377, 21.33541
475.6198, 21.29831
476.1020, 21.49432
476.5841, 21.68567
477.0662, 21.60690
477.5483, 21.27950
478.0304, 20.95851
478.5125, 20.83626
478.9947, 20.89524
479.4768, 20.98682
479.9589, 21.22585
480.4410, 21.35621
480.9231, 21.26658
481.4052, 21.09295
481.8874, 20.95603
482.3695, 20.89293
482.8516, 20.89858
483.3337, 20.99528
483.8158, 21.20854
484.2979, 21.28948
484.7801, 21.05902
485.2622, 20.89832
485.7443, 21.03759
486.2264, 21.30837
486.7085, 21.42759
487.1906, 21.25953
487.6728, 20.96007
488.1549, 20.72443
488.6370, 20.55163
489.1191, 20.47287
489.6012, 20.52788
490.0833, 20.64742
490.5655, 20.78572
491.0476, 20.93658
491.5297, 21.05455
492.0118, 21.13539
492.4939, 21.16611
492.9760, 21.10328
493.4582, 20.95224
493.9403, 20.82106
494.4224, 20.77112
494.9045, 20.77040
495.3866, 20.73829
495.8687, 20.66754
496.3509, 20.59067
496.8330, 20.46715
497.3151, 20.36824
497.7972, 20.40948
498.2793, 20.58193
498.7614, 20.73471
499.2436, 20.73346
499.7257, 20.58752
500.2078, 20.46770
500.6899, 20.37959
501.1720, 20.31099
501.6541, 20.29249
502.1363, 20.27669
502.6184, 20.18401
503.1005, 20.00626
503.5826, 19.85068
504.0647, 19.89124
504.5468, 20.16448
505.0290, 20.25777
505.5111, 19.99494
505.9932, 19.76804
506.4753, 19.75434
506.9575, 19.86848
507.4396, 19.98506
507.9217, 20.07248
508.4038, 20.10080
508.8859, 19.97774
509.3680, 19.71732
509.8502, 19.58552
510.3323, 19.67643
510.8144, 19.85366
511.2965, 20.02228
511.7786, 20.17402
512.2607, 20.24485
512.7429, 20.11440
513.2250, 19.97930
513.7071, 20.03833
514.1892, 20.25167
514.6713, 20.44627
515.1534, 20.55311
515.6356, 20.58081
516.1177, 20.54189
516.5998, 20.40438
517.0819, 20.26696
517.5640, 20.05447
518.0461, 19.90653
518.5283, 19.98860
519.0104, 20.23297
519.4925, 20.40072
519.9746, 20.32094
520.4567, 20.08483
520.9388, 20.04535
521.4210, 20.35237
521.9031, 20.57724
522.3852, 20.56707
522.8673, 20.54592
523.3494, 20.70478
523.8315, 21.02858
524.3137, 21.33588
524.7958, 21.47051
525.2779, 21.47980
525.7600, 21.51628
526.2421, 21.57271
526.7242, 21.68395
527.2064, 21.90439
527.6885, 22.16896
528.1706, 22.41420
528.6527, 22.64640
529.1348, 22.79521
529.6169, 22.75962
530.0991, 22.64124
530.5812, 22.61633
531.0633, 22.70529
531.5454, 22.80867
532.0275, 22.85654
532.5096, 22.85596
532.9918, 22.85424
533.4739, 22.83341
533.9560, 22.83423
534.4381, 22.91888
534.9202, 23.00073
535.4023, 22.94987
535.8845, 22.76317
536.3666, 22.58715
536.8487, 22.57969
537.3308, 22.74003
537.8129, 22.84458
538.2950, 22.79971
538.7772, 22.82410
539.2593, 23.02690
539.7414, 23.28907
540.2235, 23.49182
540.7056, 23.60296
541.1877, 23.65324
541.6699, 23.65020
542.1520, 23.60415
542.6341, 23.60174
543.1162, 23.68441
543.5983, 23.72212
544.0804, 23.54206
544.5626, 23.27650
545.0447, 23.18599
545.5268, 23.37745
546.0089, 23.60906
546.4910, 23.76660
546.9731, 23.86142
547.4553, 23.90369
547.9374, 23.89581
548.4195, 23.87137
548.9016, 23.86303
549.3837, 23.87140
549.8658, 23.86503
550.3480, 23.85293
550.8301, 23.81849
551.3122, 23.74819
551.7943, 23.65710
552.2764, 23.55622
552.7585, 23.45182
553.2407, 23.35828
553.7228, 23.30284
554.2049, 23.29003
554.6870, 23.23352
555.1691, 23.14247
555.6512, 22.98939
556.1334, 22.67174
556.6155, 22.33209
557.0976, 22.19135
557.5797, 22.33439
558.0618, 22.47398
558.5439, 22.30726
559.0261, 21.91629
559.5082, 21.61189
559.9903, 21.45206
560.4724, 21.30752
560.9545, 21.04784
561.4366, 20.71911
561.9188, 20.53613
562.4009, 20.58306
562.8830, 20.67362
563.3651, 20.75882
563.8472, 20.83849
564.3293, 20.92148
564.8115, 21.00603
565.2936, 21.06461
565.7757, 21.06875
566.2578, 21.01833
566.7399, 20.94702
567.2220, 20.79762
567.7042, 20.69800
568.1863, 20.70359
568.6684, 20.75015
569.1505, 20.75751
569.6326, 20.71517
570.1147, 20.70310
570.5969, 20.84693
571.0790, 21.10735
571.5611, 21.22319
572.0432, 21.15678
572.5253, 21.04190
573.0074, 20.88463
573.4896, 20.74838
573.9717, 20.74789
574.4538, 20.93950
574.9359, 21.09616
575.4180, 21.06787
575.9001, 20.96054
576.3823, 20.92425
576.8644, 20.97274
577.3465, 21.03114
577.8286, 21.03837
578.3107, 21.01800
578.7928, 21.08637
579.2750, 21.38146
579.7571, 21.58453
580.2392, 21.65444
580.7213, 21.64451
581.2034, 21.54313
581.6855, 21.39041
582.1677, 21.30566
582.6498, 21.39559
583.1319, 21.60422
583.6140, 21.73260
584.0961, 21.75677
584.5782, 21.78271
585.0604, 21.81042
585.5425, 21.87645
586.0246, 22.01673
586.5067, 22.22917
586.9889, 22.46997
587.4710, 22.80349
587.9531, 23.10125
588.4352, 23.16739
588.9174, 23.03834
589.3995, 22.93087
589.8816, 22.93304
590.3637, 23.02135
590.8458, 23.17179
591.3279, 23.45161
591.8101, 23.58949
592.2922, 23.45123
592.7743, 23.30567
593.2564, 23.28405
593.7385, 23.36381
594.2206, 23.50030
594.7028, 23.67366
595.1849, 23.83261
595.6670, 23.85297
596.1491, 23.69646
596.6312, 23.69939
597.1133, 24.03318
597.5955, 24.33366
598.0776, 24.38807
598.5597, 24.27920
599.0418, 24.15946
599.5239, 24.06334
600.0060, 23.97735
600.4882, 23.88697
600.9703, 23.79904
601.4524, 23.70449
601.9345, 23.59736
602.4166, 23.58771
602.8987, 23.80721
603.3809, 24.23182
603.8630, 24.49114
604.3451, 24.50802
604.8272, 24.48446
605.3093, 24.39781
605.7914, 24.32433
606.2736, 24.35087
606.7557, 24.47758
607.2378, 24.63004
607.7199, 24.75702
608.2020, 24.85244
608.6841, 24.86164
609.1663, 24.72152
609.6484, 24.67798
610.1305, 24.86289
610.6126, 25.13687
611.0947, 25.43424
611.5768, 25.74085
612.0590, 25.91139
612.5411, 25.75833
613.0232, 25.52645
613.5053, 25.52259
613.9874, 25.70399
614.4695, 25.82327
614.9517, 25.76878
615.4338, 25.64747
615.9159, 25.62944
616.3980, 25.72916
616.8801, 25.89353
617.3622, 26.22550
617.8444, 26.50707
618.3265, 26.61705
618.8086, 26.62484
619.2907, 26.63071
619.7728, 26.67279
620.2549, 26.75411
620.7371, 26.91061
621.2192, 27.13581
621.7013, 27.23498
622.1834, 27.10206
622.6655, 27.06329
623.1476, 27.41676
623.6298, 27.95252
624.1119, 28.30897
624.5940, 28.38248
625.0761, 28.50271
625.5582, 28.89742
626.0403, 29.37729
626.5225, 29.67051
627.0046, 29.78228
627.4867, 29.92154
627.9688, 30.22676
628.4509, 30.65433
628.9330, 31.06750
629.4152, 31.43903
629.8973, 31.84441
630.3794, 32.27302
630.8615, 32.74485
631.3436, 33.28025
631.8257, 33.86982
632.3079, 34.49731
632.7900, 35.16990
633.2721, 35.84629
633.7542, 36.40687
634.2363, 36.88259
634.7184, 37.57531
635.2006, 38.58875
635.6827, 39.68842
636.1648, 40.64033
636.6469, 41.48212
637.1290, 42.47805
637.6111, 43.74979
638.0933, 45.02544
638.5754, 46.02565
639.0575, 47.07778
639.5396, 48.66021
640.0217, 50.76615
640.5038, 52.91629
640.9860, 54.71718
641.4681, 56.26676
641.9502, 58.09380
642.4323, 60.28960
642.9144, 62.52856
643.3965, 64.70718
643.8787, 66.95053
644.3608, 69.22211
644.8429, 71.59891
645.3250, 74.40996
645.8071, 78.05489
646.2892, 81.97923
646.7714, 85.54293
647.2535, 88.90162
647.7356, 92.48842
648.2177, 96.39119
648.6998, 100.7597
649.1819, 105.7806
649.6641, 111.5150
650.1462, 117.0267
650.6283, 122.3002
651.1104, 127.4236
651.5925, 132.3640
652.0746, 137.1794
652.5568, 141.9462
653.0389, 146.6591
653.5210, 151.1239
654.0031, 155.2425
654.4852, 158.9781
654.9673, 162.3640
655.4495, 165.4553
655.9316, 167.4773
656.4137, 167.9281
656.8958, 167.4797
657.3779, 166.9072
657.8600, 166.2259
658.3422, 165.2665
658.8243, 164.0459
659.3064, 162.5034
659.7885, 160.3516
660.2706, 157.9384
660.7527, 155.7680
661.2349, 154.0077
661.7170, 152.5051
662.1991, 151.1726
662.6812, 149.9897
663.1633, 148.4869
663.6454, 146.7056
664.1276, 144.4874
664.6097, 141.4742
665.0918, 138.1899
665.5739, 135.1121
666.0560, 132.2501
666.5381, 129.2484
667.0203, 125.9898
667.5024, 122.4780
667.9845, 118.6867
668.4666, 114.6573
668.9487, 110.3838
669.4308, 105.8584
669.9130, 101.2830
670.3951, 96.90034
670.8772, 92.73598
671.3593, 88.56413
671.8414, 84.13679
672.3235, 79.99171
672.8057, 76.26704
673.2878, 72.87013
673.7699, 69.69904
674.2520, 66.75201
674.7341, 64.07857
675.2162, 61.78660
675.6984, 59.78451
676.1805, 57.95631
676.6626, 56.28589
677.1447, 54.51066
677.6268, 52.45747
678.1089, 50.43077
678.5911, 48.87293
679.0732, 47.86677
679.5553, 46.87721
680.0374, 45.84298
680.5195, 44.88947
681.0016, 44.13105
681.4838, 43.45066
681.9659, 42.66662
682.4480, 41.76257
682.9301, 40.94261
683.4122, 40.44383
683.8943, 40.17620
684.3765, 39.73787
684.8586, 39.09112
685.3407, 38.51204
685.8228, 38.12009
686.3049, 37.80872
686.7870, 37.43703
687.2692, 37.00791
687.7513, 36.62904
688.2334, 36.36102
688.7155, 36.09983
689.1976, 35.75656
689.6797, 35.39788
690.1619, 35.13923
690.6440, 35.00090
691.1261, 34.88842
691.6082, 34.68705
692.0903, 34.42952
692.5724, 34.37086
693.0546, 34.58577
693.5367, 34.78369
694.0188, 34.90326
694.5009, 34.95743
694.9830, 34.92189
695.4651, 34.81537
695.9473, 34.77886
696.4294, 34.85239
696.9116, 35.01019
697.3937, 35.27927
697.8758, 35.60756
698.3579, 35.88164
698.8400, 36.08355
699.3221, 36.32259
699.8043, 36.71285
700.2864, 37.22758
700.7685, 37.65729
701.2506, 37.94552
701.7327, 38.26762
702.2148, 38.66664
702.6970, 39.09923
703.1791, 39.47057
703.6612, 39.83643
704.1433, 40.43414
704.6254, 41.50606
705.1075, 42.62466
705.5897, 43.29214
706.0718, 43.77902
706.5539, 44.69053
707.0360, 46.12647
707.5181, 47.68773
708.0002, 49.06415
708.4824, 50.29346
708.9645, 51.56221
709.4466, 52.78640
709.9287, 54.22807
710.4108, 55.99471
710.8929, 57.89788
711.3751, 59.82917
711.8572, 61.82138
712.3393, 63.91851
712.8214, 66.10531
713.3035, 68.50635
713.7856, 71.25732
714.2678, 74.28567
714.7499, 77.50330
715.2320, 80.87617
715.7141, 84.42724
716.1962, 88.16563
716.6783, 92.05167
717.1605, 95.96062
717.6426, 99.90885
718.1247, 103.8183
718.6068, 107.7849
719.0889, 111.5997
719.5710, 115.4431
720.0532, 119.0024
720.5353, 121.7972
721.0174, 123.6771
721.4995, 124.8391
721.9816, 125.6000
722.4637, 125.7053
722.9459, 124.5417
723.4280, 122.1192
723.9101, 119.0364
724.3922, 115.5023
724.8743, 111.6610
725.3564, 107.7850
725.8386, 103.8458
726.3207, 99.93026
726.8028, 95.84279
727.2849, 91.96076
727.7670, 88.34011
728.2491, 84.99898
728.7313, 81.95480
729.2134, 79.18575
729.6955, 76.69392
730.1776, 74.33263
730.6597, 72.31997
731.1418, 71.14312
731.6240, 70.69176
732.1061, 70.29675
732.5882, 69.72128
733.0703, 69.18313
733.5524, 68.92859
734.0345, 68.95812
734.5167, 69.26353
734.9988, 69.90533
735.4809, 70.76484
735.9630, 71.75579
736.4451, 72.99963
736.9272, 74.68577
737.4094, 76.74741
737.8915, 78.87851
738.3736, 80.84553
738.8557, 82.89430
739.3378, 85.30278
739.8199, 88.03530
740.3021, 90.95698
740.7842, 94.04299
741.2663, 97.52159
741.7484, 101.6014
742.2305, 106.2320
742.7126, 111.0929
743.1948, 115.8519
743.6769, 121.4829
744.1590, 128.2368
744.6411, 135.5927
745.1232, 143.1532
745.6053, 151.1131
746.0875, 159.9255
746.5696, 169.7112
747.0517, 180.2392
747.5338, 191.0649
748.0159, 202.5366
748.4980, 215.3877
748.9802, 229.5501
749.4623, 244.0505
749.9444, 258.6436
750.4265, 272.7445
750.9086, 285.4958
751.3907, 297.0787
751.8729, 306.4711
752.3550, 314.4896
752.8371, 319.1558
753.3192, 319.7648
753.8013, 317.0204
754.2834, 311.3921
754.7656, 302.9549
755.2477, 292.7118
755.7298, 280.4344
756.2119, 267.1107
756.6940, 252.9838
757.1761, 238.6523
757.6583, 225.3057
758.1404, 213.2898
758.6225, 202.6988
759.1046, 193.5734
759.5867, 185.9149
760.0688, 179.3720
760.5510, 173.9470
761.0331, 169.7599
761.5152, 167.1340
761.9973, 165.4837
762.4794, 164.3242
762.9615, 163.7477
763.4437, 164.0638
763.9258, 165.3834
764.4079, 167.5159
764.8900, 170.4234
765.3721, 174.0586
765.8542, 178.5733
766.3364, 183.7933
766.8185, 189.2149
767.3006, 194.5746
767.7827, 199.8539
768.2648, 205.1038
768.7469, 210.3196
769.2291, 215.1231
769.7112, 219.7020
770.1933, 223.3826
770.6754, 225.7262
771.1575, 227.0410
771.6396, 227.9542
772.1218, 228.5912
772.6039, 228.1102
773.0860, 226.1748
773.5681, 223.3113
774.0502, 219.5134
774.5323, 215.0929
775.0145, 210.3873
775.4966, 205.5141
775.9787, 200.5475
776.4608, 195.5336
776.9429, 190.4953
777.4250, 185.3855
777.9072, 180.2127
778.3893, 175.3103
778.8714, 170.7909
779.3535, 166.3514
779.8356, 161.6569
780.3177, 156.7930
780.7999, 152.4218
781.2820, 148.7783
781.7641, 145.2500
782.2462, 141.7957
782.7283, 138.4360
783.2104, 134.9713
783.6926, 131.6662
784.1747, 129.0536
784.6568, 127.3171
785.1389, 126.1055
785.6210, 125.1021
786.1031, 124.3967
786.5853, 124.2325
787.0674, 124.5757
787.5495, 125.0852
788.0316, 125.6005
788.5137, 126.3053
788.9958, 127.4654
789.4780, 129.0962
789.9601, 130.9696
790.4422, 133.0888
790.9243, 135.4561
791.4064, 137.9461
791.8885, 140.7780
792.3707, 144.2162
792.8528, 148.2079
793.3349, 152.4543
793.8170, 156.9478
794.2991, 161.5785
794.7813, 166.0883
795.2634, 170.8210
795.7455, 176.3477
796.2276, 182.6393
796.7097, 189.2265
797.1918, 195.8676
797.6740, 202.5634
798.1561, 209.3649
798.6382, 216.2779
799.1203, 223.1426
799.6024, 230.0737
800.0845, 236.7070
800.5667, 242.9595
801.0488, 248.7876
801.5309, 254.1976
802.0130, 259.4157
802.4951, 263.2687
802.9772, 265.3660
803.4594, 266.4332
803.9415, 266.9004
804.4236, 266.4510
804.9057, 264.6825
805.3878, 261.5533
805.8699, 257.2647
806.3521, 251.8369
806.8342, 245.5035
807.3163, 238.4868
807.7985, 230.8877
808.2806, 223.1444
808.7627, 215.3407
809.2448, 207.1942
809.7269, 198.3629
810.2090, 189.1654
810.6912, 180.6066
811.1733, 172.8039
811.6554, 165.3006
812.1375, 158.0472
812.6196, 151.1506
813.1017, 144.7448
813.5839, 138.6882
814.0660, 132.8321
814.5481, 127.1373
815.0302, 121.7581
815.5123, 116.8436
815.9944, 112.2143
816.4766, 107.6023
816.9587, 103.2001
817.4408, 99.56893
817.9229, 96.73922
818.4050, 94.06326
818.8871, 90.96857
819.3693, 87.71020
819.8514, 84.97203
820.3335, 82.78325
820.8156, 80.52180
821.2977, 78.03543
821.7798, 75.63674
822.2620, 73.50984
822.7441, 71.60824
823.2262, 69.80708
823.7083, 68.10945
824.1904, 66.48744
824.6725, 64.92961
825.1547, 63.44955
825.6368, 62.04679
826.1189, 60.73679
826.6010, 59.54620
827.0831, 58.47271
827.5652, 57.45912
828.0474, 56.43672
828.5295, 55.47773
829.0116, 54.73668
829.4937, 54.12273
829.9758, 53.39690
830.4579, 52.50951
830.9401, 51.50980
831.4222, 50.39441
831.9043, 49.29152
832.3864, 48.63826
832.8685, 48.56108
833.3506, 48.30830
833.8328, 47.74740
834.3149, 47.15437
834.7970, 46.72186
835.2791, 46.33215
835.7612, 45.74356
836.2433, 44.89408
836.7255, 44.20496
837.2076, 43.83667
837.6897, 43.54311
838.1718, 43.23848
838.6539, 42.92283
839.1360, 42.62462
839.6182, 42.33171
840.1003, 41.95772
840.5824, 41.39520
841.0645, 40.81585
841.5466, 40.49302
842.0287, 40.34734
842.5109, 40.11035
842.9930, 39.75074
843.4751, 39.46148
843.9572, 39.37831
844.4393, 39.37138
844.9214, 39.15307
845.4036, 38.66789
845.8857, 38.24991
846.3678, 37.92726
846.8499, 37.61845
847.3320, 37.26493
847.8141, 36.93434
848.2963, 36.68987
848.7784, 36.53300
849.2605, 36.44859
849.7426, 36.60267
850.2247, 36.62025
850.7068, 36.22642
851.1890, 35.71735
851.6711, 35.41661
852.1532, 35.28648
852.6353, 35.09921
853.1174, 34.74828
853.5995, 34.27681
854.0817, 33.65781
854.5638, 32.96888
855.0459, 32.46491
855.5280, 32.13460
856.0101, 31.70156
856.4922, 31.03435
856.9744, 30.40847
857.4565, 30.22873
857.9386, 30.46704
858.4207, 30.32172
858.9028, 29.58552
859.3849, 28.96681
859.8671, 28.64963
860.3492, 28.43766
860.8313, 28.21188
861.3134, 27.97506
861.7955, 27.73964
862.2776, 27.54549
862.7598, 27.26285
863.2419, 26.70639
863.7240, 26.20232
864.2061, 26.02592
864.6882, 26.03687
865.1703, 25.98019
865.6525, 25.79230
866.1346, 25.58987
866.6167, 25.49701
867.0988, 25.41731
867.5809, 25.14014
868.0630, 24.74335
868.5452, 24.55720
869.0273, 24.62999
869.5094, 24.58373
869.9915, 24.10600
870.4736, 23.43698
870.9557, 23.25405
871.4379, 23.67914
871.9200, 23.89426
872.4021, 23.84057
872.8842, 23.63648
873.3663, 23.21661
873.8484, 22.76176
874.3306, 22.58804
874.8127, 22.70717
875.2948, 22.69552
875.7769, 22.35660
876.2590, 22.10418
876.7411, 22.17385
877.2233, 22.28598
877.7054, 22.17653
878.1875, 21.89150
878.6696, 21.61998
879.1517, 21.42917
879.6339, 21.30556
880.1160, 21.24385
880.5981, 21.23940
881.0802, 21.34442
881.5623, 21.50248
882.0444, 21.51712
882.5266, 21.32874
883.0087, 21.09039
883.4908, 20.95496
883.9729, 20.90554
884.4550, 20.90150
884.9371, 20.94989
885.4193, 20.91484
885.9014, 20.76202
886.3835, 20.54609
886.8656, 20.25915
887.3477, 19.97357
887.8298, 19.90436
888.3120, 20.19747
888.7941, 20.31630
889.2762, 20.13582
889.7583, 19.93461
890.2404, 19.79889
890.7225, 19.67986
891.2047, 19.49910
891.6868, 19.26926
892.1689, 19.12240
892.6510, 19.19900
893.1331, 19.23752
893.6152, 19.02804
894.0974, 18.76992
894.5795, 18.68836
895.0616, 18.75337
895.5437, 18.83332
896.0258, 18.87397
896.5079, 18.84682
896.9901, 18.65419
897.4722, 18.39518
897.9543, 18.32994
898.4364, 18.42751
898.9185, 18.48605
899.4006, 18.44912
899.8828, 18.40455
900.3649, 18.43843
900.8470, 18.50999
901.3291, 18.45731
901.8112, 18.24613
902.2933, 18.08896
902.7755, 18.04288
903.2576, 17.95277
903.7397, 17.67335
904.2218, 17.35804
904.7039, 17.28770
905.1860, 17.51121
905.6682, 17.61099
906.1503, 17.47532
906.6324, 17.35543
907.1145, 17.39091
907.5966, 17.39892
908.0787, 17.16458
908.5609, 16.77785
909.0430, 16.51950
909.5251, 16.49385
910.0072, 16.53200
910.4893, 16.56157
910.9714, 16.58719
911.4536, 16.63198
911.9357, 16.67123
912.4178, 16.62844
912.8999, 16.50146
913.3820, 16.42020
913.8641, 16.51624
914.3463, 16.67939
914.8284, 16.70880
915.3105, 16.62223
915.7926, 16.46492
916.2748, 16.24910
916.7569, 16.12876
917.2390, 16.20402
917.7211, 16.33670
918.2032, 16.27878
918.6854, 16.01958
919.1675, 15.87112
919.6496, 15.85235
920.1317, 15.89768
920.6138, 16.05311
921.0959, 16.17395
921.5781, 16.11225
922.0602, 15.90724
922.5423, 15.74809
923.0244, 15.60689
923.5065, 15.55916
923.9886, 15.73470
924.4708, 15.86043
924.9529, 15.74471
925.4350, 15.55187
925.9171, 15.50144
926.3992, 15.60882
926.8813, 15.70847
927.3635, 15.75283
927.8456, 15.75188
928.3277, 15.67927
928.8098, 15.58725
929.2919, 15.52947
929.7740, 15.50635
930.2562, 15.50453
930.7383, 15.51856
931.2204, 15.52171
931.7025, 15.48382
932.1846, 15.41910
932.6667, 15.32809
933.1489, 15.23223
933.6310, 15.23702
934.1131, 15.35592
934.5952, 15.44515
935.0773, 15.39425
935.5594, 15.25520
936.0416, 15.13754
936.5237, 15.04084
937.0058, 14.99457
937.4879, 15.01416
937.9700, 14.99273
938.4521, 14.86535
938.9343, 14.73384
939.4164, 14.72399
939.8985, 14.82827
940.3806, 14.92070
940.8627, 15.06158
941.3448, 15.06706
941.8270, 14.77144
942.3091, 14.51161
942.7912, 14.47083
943.2733, 14.57502
943.7554, 14.74832
944.2375, 15.01189
944.7197, 15.12351
945.2018, 14.91798
945.6839, 14.71092
946.1660, 14.64167
946.6481, 14.60626
947.1302, 14.45762
947.6124, 14.25703
948.0945, 14.23438
948.5766, 14.51420
949.0587, 14.73452
949.5408, 14.56613
950.0229, 14.32259
950.5051, 14.35892
950.9872, 14.54223
951.4693, 14.58769
951.9514, 14.45050
952.4335, 14.27918
952.9156, 14.16355
953.3978, 14.10091
953.8799, 14.12835
954.3620, 14.19715
954.8441, 14.16255
955.3262, 14.02732
955.8083, 13.88258
956.2905, 13.76449
956.7726, 13.68586
957.2547, 13.65812
957.7368, 13.68415
958.2189, 13.82442
958.7010, 14.09379
959.1832, 14.12856
959.6653, 13.82521
960.1474, 13.53862
960.6295, 13.47908
961.1116, 13.54687
961.5938, 13.54837
962.0759, 13.46196
962.5580, 13.53685
963.0401, 13.92039
963.5222, 14.15160
964.0043, 14.07661
964.4865, 13.88647
964.9686, 13.67573
965.4507, 13.46765
965.9328, 13.33560
966.4149, 13.30357
966.8970, 13.28277
967.3792, 13.25008
967.8613, 13.24944
968.3434, 13.37418
968.8255, 13.48165
969.3076, 13.37303
969.7897, 13.10054
970.2719, 12.95763
970.7540, 13.09591
971.2361, 13.21429
971.7182, 13.14041
972.2003, 13.04472
972.6824, 13.08506
973.1646, 13.18568
973.6467, 13.21217
974.1288, 13.14219
974.6109, 13.04582
975.0930, 12.94002
975.5751, 12.86441
976.0573, 12.88435
976.5394, 12.94101
977.0215, 12.95958
977.5036, 12.93120
977.9857, 12.83886
978.4678, 12.68398
978.9500, 12.56411
979.4321, 12.58478
979.9142, 12.69416
980.3963, 12.84011
980.8784, 12.98516
981.3605, 12.96186
981.8427, 12.76227
982.3248, 12.54611
982.8069, 12.39463
983.2890, 12.33002
983.7711, 12.42380
984.2532, 12.63896
984.7354, 12.67910
985.2175, 12.53763
985.6996, 12.46464
986.1817, 12.52361
986.6638, 12.59045
987.1459, 12.57777
987.6281, 12.51523
988.1102, 12.47166
988.5923, 12.45333
989.0744, 12.39183
989.5565, 12.24186
990.0386, 12.19789
990.5208, 12.39407
991.0029, 12.56913
991.4850, 12.46419
991.9671, 12.15967
992.4492, 11.96031
992.9313, 11.85800
993.4135, 11.88584
993.8956, 12.19660
994.3777, 12.43140
994.8598, 12.42524
995.3419, 12.33572
995.8240, 12.31526
996.3062, 12.34668
996.7883, 12.31389
997.2704, 12.13896
997.7525, 12.02289
998.2346, 12.06130
998.7167, 12.08659
999.1989, 11.98401
999.6810, 11.84025
1000.163, 11.77475
1000.645, 11.78681
1001.127, 11.77310
1001.609, 11.65550
1002.092, 11.58328
1002.574, 11.64330
1003.056, 11.74534
1003.538, 11.89302
1004.020, 11.99965
1004.502, 11.86543
1004.984, 11.49573
1005.466, 11.26449
1005.948, 11.44261
1006.431, 11.72189
1006.913, 11.94323
1007.395, 12.09188
1007.877, 12.14468
1008.359, 12.10919
1008.841, 11.98009
1009.323, 11.76774
1009.805, 11.57739
1010.288, 11.48821
1010.770, 11.46814
1011.252, 11.50565
1011.734, 11.57262
1012.216, 11.61066
1012.698, 11.62564
1013.180, 11.68298
1013.662, 11.80499
1014.144, 11.89030
1014.627, 11.81318
1015.109, 11.64873
1015.591, 11.52573
1016.073, 11.44655
1016.555, 11.42831
1017.037, 11.46699
1017.519, 11.53793
1018.001, 11.62992
1018.484, 11.68143
1018.966, 11.57065
1019.448, 11.37168
1019.930, 11.38191
1020.412, 11.57637
1020.894, 11.72403
1021.376, 11.78495
1021.858, 11.84653
1022.340, 11.96800
1022.823, 12.04961
1023.305, 11.89604
1023.787, 11.54501
1024.269, 11.37522
1024.751, 11.39373
1025.233, 11.45766
1025.715, 11.54737
1026.197, 11.61947
1026.680, 11.64388
1027.162, 11.64328
1027.644, 11.67198
1028.126, 11.73312
1028.608, 11.66272
1029.090, 11.42294
1029.572, 11.22021
1030.054, 11.06678
1030.536, 11.06629
1031.019, 11.33718
1031.501, 11.74364
1031.983, 12.00645
1032.465, 12.11972
1032.947, 12.10757
1033.429, 11.90295
1033.911, 11.74882
1034.393, 11.70989
1034.875, 11.71162
1035.358, 11.71130
1035.840, 11.70671
1036.322, 11.69000
1036.804, 11.65400
1037.286, 11.63761
1037.768, 11.61353
1038.250, 11.66434
1038.732, 11.91925
1039.215, 12.11882
1039.697, 12.04531
1040.179, 11.78718
1040.661, 11.55217
1041.143, 11.30998
1041.625, 11.20122
1042.107, 11.33719
1042.589, 11.45381
1043.072, 11.47933
1043.554, 11.48900
1044.036, 11.54640
1044.518, 11.62467
1045.000, 11.65083
1045.482, 11.60087
1045.964, 11.58703
1046.446, 11.68934
1046.928, 11.73064
1047.411, 11.54949
1047.893, 11.40053
1048.375, 11.52434
1048.857, 11.81396
1049.339, 12.02215
1049.821, 12.13802
1050.303, 12.11019
1050.785, 11.75775
1051.267, 11.48867
1051.750, 11.45341
1052.232, 11.53183
1052.714, 11.68600
1053.196, 11.86325
1053.678, 11.96959
1054.160, 11.98991
1054.642, 11.94714
1055.124, 11.71879
1055.607, 11.59503
1056.089, 11.81357
1056.571, 12.06197
1057.053, 12.03849
1057.535, 11.85645
1058.017, 11.79596
1058.499, 11.91626
1058.981, 12.04769
1059.464, 12.19577
1059.946, 12.27107
1060.428, 12.21691
1060.910, 12.09337
1061.392, 11.89685
1061.874, 11.68865
1062.356, 11.58392
1062.838, 11.60795
1063.320, 11.64957
1063.802, 11.68446
1064.285, 11.70886
1064.767, 11.73563
1065.249, 11.73788
1065.731, 11.62225
1066.213, 11.48959
1066.695, 11.58595
1067.177, 11.95201
1067.659, 12.17728
1068.142, 11.99030
1068.624, 11.76727
1069.106, 11.67730
1069.588, 11.63055
1070.070, 11.53986
1070.552, 11.43936
1071.034, 11.40542
1071.516, 11.44950
1071.999, 11.50646
1072.481, 11.57912
1072.963, 11.61928
1073.445, 11.52645
1073.927, 11.46663
1074.409, 11.64550
1074.891, 11.92184
1075.373, 12.05101
1075.855, 12.00100
1076.338, 11.92368
1076.820, 11.86217
1077.302, 11.81466
1077.784, 11.82468
1078.266, 11.80469
1078.748, 11.64595
1079.230, 11.43247
1079.712, 11.28123
1080.194, 11.21247
1080.677, 11.21428
1081.159, 11.32115
1081.641, 11.41381
1082.123, 11.41776
1082.605, 11.40568
1083.087, 11.45184
1083.569, 11.50139
1084.052, 11.45249
1084.534, 11.32351
1085.016, 11.25028
1085.498, 11.28207
1085.980, 11.36295
1086.462, 11.54625
1086.944, 11.68450
1087.426, 11.63626
1087.908, 11.52035
1088.391, 11.48685
1088.873, 11.52405
1089.355, 11.53040
1089.837, 11.47483
1090.319, 11.39684
1090.801, 11.28072
1091.283, 11.18409
1091.765, 11.12922
1092.247, 11.11788
1092.730, 11.16027
1093.212, 11.24442
1093.694, 11.35390
1094.176, 11.49381
1094.658, 11.58258
1095.140, 11.61647
1095.622, 11.56026
1096.104, 11.30426
1096.587, 11.03490
1097.069, 10.88294
1097.551, 10.85238
1098.033, 10.96200
1098.515, 11.22229
1098.997, 11.38479
1099.479, 11.29523
1099.961, 11.21033
1100.443, 11.21517
1100.926, 11.25622
1101.408, 11.29650
1101.890, 11.34634
1102.372, 11.44531
1102.854, 11.59124
1103.336, 11.67468
1103.818, 11.63526
1104.300, 11.58388
1104.782, 11.53257
1105.265, 11.48885
1105.747, 11.43736
1106.229, 11.40816
1106.711, 11.45967
1107.193, 11.57793
1107.675, 11.64905
1108.157, 11.67530
1108.639, 11.62208
1109.122, 11.36565
1109.604, 11.17723
1110.086, 11.18933
1110.568, 11.29507
1111.050, 11.45041
1111.532, 11.61270
1112.014, 11.62175
1112.496, 11.36582
1112.979, 11.24537
1113.461, 11.44975
1113.943, 11.55332
1114.425, 11.36124
1114.907, 11.12991
1115.389, 10.99813
1115.871, 10.97165
1116.353, 11.09492
1116.835, 11.42006
1117.318, 11.58139
1117.800, 11.47171
1118.282, 11.39741
1118.764, 11.43720
1119.246, 11.46820
1119.728, 11.40736
1120.210, 11.31348
1120.692, 11.27992
1121.174, 11.30501
1121.657, 11.30623
1122.139, 11.27588
1122.621, 11.24048
1123.103, 11.19233
1123.585, 11.16383
1124.067, 11.17237
1124.549, 11.20013
1125.031, 11.23145
1125.514, 11.26279
1125.996, 11.27575
1126.478, 11.26553
1126.960, 11.26577
1127.442, 11.28453
1127.924, 11.27650
1128.406, 11.22189
1128.888, 11.15904
1129.370, 11.11364
1129.853, 11.09158
1130.335, 11.11510
1130.817, 11.18413
1131.299, 11.21336
1131.781, 11.20031
1132.263, 11.21764
1132.745, 11.28394
1133.227, 11.31484
1133.709, 11.26108
1134.192, 11.14803
1134.674, 10.97656
1135.156, 10.79968
1135.638, 10.89500
1136.120, 11.21511
1136.602, 11.39494
1137.084, 11.39752
1137.566, 11.30135
1138.049, 11.14086
1138.531, 11.01228
1139.013, 11.01468
1139.495, 11.08913
1139.977, 11.12763
1140.459, 11.14209
1140.941, 11.16289
1141.423, 11.19249
1141.906, 11.23644
1142.388, 11.29220
1142.870, 11.34642
1143.352, 11.39852
1143.834, 11.39294
1144.316, 11.17861
1144.798, 10.92914
1145.280, 10.96220
1145.762, 11.14174
1146.245, 11.16476
1146.727, 11.04252
1147.209, 10.99587
1147.691, 11.10993
1148.173, 11.23619
1148.655, 11.25364
1149.137, 11.24524
1149.619, 11.30492
1150.101, 11.36173
1150.584, 11.30347
1151.066, 11.18685
1151.548, 11.15873
1152.030, 11.23048
1152.512, 11.23108
1152.994, 11.00132
1153.476, 10.86132
1153.958, 11.10195
1154.441, 11.33630
1154.923, 11.29198
1155.405, 11.10071
1155.887, 10.86938
1156.369, 10.65344
1156.851, 10.58806
1157.333, 10.74789
1157.815, 10.86207
1158.297, 10.81871
1158.780, 10.79435
1159.262, 10.89249
1159.744, 10.98150
1160.226, 10.93698
1160.708, 10.82951
1161.190, 10.80780
1161.672, 10.88330
1162.154, 10.88752
1162.636, 10.73777
1163.119, 10.67566
1163.601, 10.77256
1164.083, 10.86400
1164.565, 10.88406
1165.047, 10.86816
1165.529, 10.84648
1166.011, 10.82345
1166.493, 10.81691
1166.976, 10.82764
1167.458, 10.85602
1167.940, 10.91075
1168.422, 10.94126
1168.904, 10.93670
1169.386, 10.89032
1169.868, 10.78554
1170.350, 10.68788
1170.833, 10.72636
1171.315, 10.86436
1171.797, 10.88905
1172.279, 10.80539
1172.761, 10.62332
1173.243, 10.36305
1173.725, 10.27203
1174.207, 10.44060
1174.689, 10.64058
1175.172, 10.66492
1175.654, 10.59741
1176.136, 10.55310
1176.618, 10.54007
1177.100, 10.60295
1177.582, 10.70868
1178.064, 10.75926
1178.546, 10.74672
1179.028, 10.74368
1179.511, 10.78731
1179.993, 10.82150
1180.475, 10.79044
1180.957, 10.73513
1181.439, 10.70259
1181.921, 10.66483
1182.403, 10.55344
1182.885, 10.41776
1183.368, 10.38476
1183.850, 10.46966
1184.332, 10.52298
1184.814, 10.45380
1185.296, 10.39653
1185.778, 10.45259
1186.260, 10.48304
1186.742, 10.31045
1187.224, 10.14123
1187.707, 10.27352
1188.189, 10.60732
1188.671, 10.73562
1189.153, 10.54860
1189.635, 10.43783
1190.117, 10.45266
1190.599, 10.50959
1191.081, 10.66273
1191.564, 10.75886
1192.046, 10.68574
1192.528, 10.54538
1193.010, 10.47395
1193.492, 10.46440
1193.974, 10.45726
1194.456, 10.45294
1194.938, 10.45349
1195.421, 10.46480
1195.903, 10.43418
1196.385, 10.33462
1196.867, 10.28060
1197.349, 10.36990
1197.831, 10.50053
1198.313, 10.45605
1198.795, 10.29389
1199.277, 10.32224
1199.760, 10.49669
1200.242, 10.58327
1200.724, 10.56288
1201.206, 10.53679
1201.688, 10.54166
1202.170, 10.51674
1202.652, 10.38827
1203.134, 10.26742
1203.616, 10.34375
1204.099, 10.47792
1204.581, 10.46948
1205.063, 10.36592
1205.545, 10.23109
1206.027, 10.11382
1206.509, 10.13533
1206.991, 10.35460
1207.473, 10.51449
1207.956, 10.43244
1208.438, 10.31630
1208.920, 10.23508
1209.402, 10.20057
1209.884, 10.23230
1210.366, 10.30924
1210.848, 10.41965
1211.330, 10.55296
1211.813, 10.63301
1212.295, 10.62578
1212.777, 10.61586
1213.259, 10.57331
1213.741, 10.58666
1214.223, 10.74030
1214.705, 10.85522
1215.187, 10.79355
1215.669, 10.63066
1216.151, 10.48645
1216.634, 10.36709
1217.116, 10.42686
1217.598, 10.69416
1218.080, 10.76124
1218.562, 10.57895
1219.044, 10.38485
1219.526, 10.25878
1220.008, 10.23806
1220.491, 10.36257
1220.973, 10.55795
1221.455, 10.73761
1221.937, 10.86896
1222.419, 10.81010
1222.901, 10.64773
1223.383, 10.64381
1223.865, 10.77824
1224.348, 10.82494
1224.830, 10.71296
1225.312, 10.60182
1225.794, 10.59373
1226.276, 10.63434
1226.758, 10.71573
1227.240, 10.79278
1227.722, 10.84305
1228.204, 10.85113
1228.687, 10.77014
1229.169, 10.63404
1229.651, 10.55045
1230.133, 10.54109
1230.615, 10.57534
1231.097, 10.65504
1231.579, 10.76792
1232.061, 11.02341
1232.543, 11.16127
1233.026, 10.93869
1233.508, 10.69246
1233.990, 10.84848
1234.472, 11.27865
1234.954, 11.43640
1235.436, 11.28224
1235.918, 11.09913
1236.400, 10.87187
1236.883, 10.80606
1237.365, 10.95225
1237.847, 11.06988
1238.329, 11.03075
1238.811, 10.92866
1239.293, 10.85090
1239.775, 10.82161
1240.257, 10.93679
1240.740, 11.11856
1241.222, 11.20731
1241.704, 11.19544
1242.186, 11.04274
1242.668, 10.79901
1243.150, 10.69427
1243.632, 10.83911
1244.114, 10.97958
1244.596, 10.93070
1245.078, 10.84414
1245.561, 10.82419
1246.043, 10.79940
1246.525, 10.68323
1247.007, 10.53571
1247.489, 10.42906
1247.971, 10.37726
1248.453, 10.41998
1248.935, 10.62132
1249.418, 10.76703
1249.900, 10.81886
1250.382, 10.89494
1250.864, 11.07306
1251.346, 11.15172
1251.828, 10.98489
1252.310, 10.73525
1252.792, 10.61110
1253.275, 10.59508
1253.757, 10.64183
1254.239, 10.74014
1254.721, 10.71226
1255.203, 10.57632
1255.685, 10.57515
1256.167, 10.74096
1256.649, 10.85537
1257.131, 10.80467
1257.614, 10.70937
1258.096, 10.67944
1258.578, 10.67968
1259.060, 10.68677
1259.542, 10.68481
1260.024, 10.64943
1260.506, 10.59266
1260.988, 10.52591
1261.470, 10.46029
1261.953, 10.41303
1262.435, 10.37035
1262.917, 10.43472
1263.399, 10.82154
1263.881, 11.04429
1264.363, 10.85698
1264.845, 10.60684
1265.327, 10.36880
1265.810, 10.27809
1266.292, 10.56843
1266.774, 11.09323
1267.256, 11.24362
1267.738, 10.98126
1268.220, 10.70642
1268.702, 10.41503
1269.184, 10.28391
1269.667, 10.34268
1270.149, 10.48965
1270.631, 10.67706
1271.113, 10.81410
1271.595, 10.79592
1272.077, 10.72845
1272.559, 10.77419
1273.041, 10.86899
1273.523, 10.89010
1274.005, 10.90304
1274.488, 11.12664
1274.970, 11.44739
1275.452, 11.38449
1275.934, 10.80941
1276.416, 10.56520
1276.898, 11.45533
1277.380, 11.97529
1277.862, 11.38660
1278.345, 10.75441
1278.827, 10.55404
1279.309, 10.55253
1279.791, 10.61453
1280.273, 10.70053
1280.755, 10.71573
1281.237, 10.66140
1281.719, 10.65982
1282.202, 10.71781
1282.684, 10.72359
1283.166, 10.66667
1283.648, 10.56007
1284.130, 10.41230
1284.612, 10.34187
1285.094, 10.43849
1285.576, 10.56948
1286.058, 10.53879
1286.541, 10.46592
1287.023, 10.48914
##END=



