##NAMES=Renierite
##RRUFFID=R050433
##IDEAL CHEMISTRY=(Cu^1+^,Cu^2+^Zn^2+^)_11_(Fe^2+^,Fe^3+^)_4_(Ge^4+^,As^5+^)_2_S^2-^_16_
##LOCALITY=Tsumeb mine, Tsumeb, Otavi District, Oshikoto, Namibia
##OWNER=RRUFF
##SOURCE=University of Arizona Mineral Museum
##DESCRIPTION=Bronze metallic massive
##STATUS=The identification of this mineral has been confirmed by X-ray diffraction and chemical analysis
##URL=rruff.info/R050433
##MEASURED CHEMISTRY=(Cu_10.51_Zn_0.49_)_Σ=11_Fe_4.00_(Ge_1.67_As_0.33_)_Σ=2_S_16_
91.00781, 6.128906
91.48993, 6.065822
91.97205, 6.040786
92.45416, 6.145511
92.93628, 6.284827
93.41840, 6.216308
93.90051, 5.834345
94.38263, 5.348396
94.86475, 5.076019
95.34686, 5.016401
95.82898, 5.089948
96.31110, 5.175544
96.79321, 5.295265
97.27533, 5.752469
97.75745, 6.823041
98.23956, 8.252545
98.72168, 8.845085
99.20380, 8.451066
99.68591, 7.672526
100.1680, 6.969387
100.6501, 6.232977
101.1323, 6.162312
101.6144, 7.233727
102.0965, 9.603522
102.5786, 11.15748
103.0607, 11.65974
103.5428, 11.56768
104.0250, 11.62131
104.5071, 11.84663
104.9892, 12.17300
105.4713, 12.55474
105.9534, 12.89478
106.4355, 13.50462
106.9177, 14.47978
107.3998, 15.72730
107.8819, 16.99979
108.3640, 18.47925
108.8461, 19.82343
109.3282, 20.88758
109.8104, 21.33958
110.2925, 21.86969
110.7746, 22.54638
111.2567, 23.34507
111.7388, 24.10035
112.2209, 24.55287
112.7031, 25.07814
113.1852, 25.94256
113.6673, 27.71903
114.1494, 29.33550
114.6315, 30.38983
115.1136, 30.85888
115.5958, 31.48449
116.0779, 32.58120
116.5600, 33.93410
117.0421, 35.29630
117.5242, 36.74526
118.0063, 38.07758
118.4885, 39.08362
118.9706, 39.64709
119.4527, 40.43242
119.9348, 41.73374
120.4169, 43.50386
120.8990, 45.68507
121.3812, 49.00356
121.8633, 52.35964
122.3454, 54.65112
122.8275, 55.60317
123.3096, 55.80235
123.7917, 55.51174
124.2739, 54.81770
124.7560, 54.03723
125.2381, 53.02382
125.7202, 52.10844
126.2023, 51.91432
126.6844, 52.76950
127.1666, 54.14414
127.6487, 55.43943
128.1308, 56.65467
128.6129, 57.69489
129.0950, 58.37569
129.5771, 58.79752
130.0593, 59.34571
130.5414, 60.26986
131.0235, 61.33422
131.5056, 61.64492
131.9877, 60.87712
132.4698, 59.99675
132.9520, 60.57924
133.4341, 62.53356
133.9162, 64.30310
134.3983, 65.30173
134.8804, 65.63462
135.3625, 65.98408
135.8447, 66.27985
136.3268, 66.76044
136.8089, 67.91238
137.2910, 69.87599
137.7731, 71.69124
138.2552, 73.04466
138.7374, 73.92924
139.2195, 74.41660
139.7016, 74.49959
140.1837, 74.21336
140.6658, 73.50838
141.1479, 72.09272
141.6301, 70.90814
142.1122, 70.43622
142.5943, 70.96667
143.0764, 71.39492
143.5585, 71.66522
144.0406, 71.81731
144.5228, 72.00741
145.0049, 72.28378
145.4870, 72.53578
145.9691, 72.71928
146.4512, 72.98579
146.9333, 72.92923
147.4155, 72.28564
147.8976, 71.16028
148.3797, 70.60879
148.8618, 70.89253
149.3439, 71.54964
149.8260, 72.28011
150.3082, 73.51595
150.7903, 74.35368
151.2724, 74.54642
151.7545, 74.07101
152.2366, 73.85223
152.7188, 74.19132
153.2009, 74.66331
153.6830, 74.92329
154.1651, 75.01753
154.6472, 74.82224
155.1293, 74.13879
155.6115, 72.86591
156.0936, 71.94258
156.5757, 71.74121
157.0578, 71.89059
157.5399, 71.98924
158.0220, 71.91817
158.5042, 71.80845
158.9863, 71.65636
159.4684, 71.41370
159.9505, 71.37022
160.4326, 71.93793
160.9147, 72.70918
161.3969, 73.07632
161.8790, 72.60103
162.3611, 71.83744
162.8432, 70.95647
163.3253, 69.81602
163.8074, 69.10545
164.2896, 69.69833
164.7717, 70.94740
165.2538, 71.56046
165.7359, 70.14388
166.2180, 68.33479
166.7001, 67.46719
167.1823, 68.17764
167.6644, 68.97121
168.1465, 68.77879
168.6286, 67.89331
169.1107, 67.13867
169.5928, 67.35744
170.0750, 67.77588
170.5571, 67.51599
171.0392, 66.04396
171.5213, 64.41969
172.0034, 63.60090
172.4855, 63.43638
172.9677, 63.27552
173.4498, 62.62714
173.9319, 61.73927
174.4140, 60.95655
174.8961, 60.34997
175.3782, 59.90540
175.8604, 59.64129
176.3425, 59.54041
176.8246, 59.46968
177.3067, 59.47013
177.7888, 59.42194
178.2709, 59.05172
178.7531, 58.02966
179.2352, 56.83575
179.7173, 56.26694
180.1994, 56.29771
180.6815, 56.39163
181.1636, 55.96483
181.6458, 55.19910
182.1279, 54.66074
182.6100, 54.67034
183.0921, 54.95939
183.5742, 54.92741
184.0563, 54.55950
184.5385, 54.18056
185.0206, 54.18539
185.5027, 54.49311
185.9848, 54.72100
186.4669, 54.78804
186.9490, 54.67283
187.4312, 54.16285
187.9133, 53.19617
188.3954, 52.30511
188.8775, 52.38662
189.3596, 53.31076
189.8417, 53.82289
190.3239, 53.13583
190.8060, 51.55324
191.2881, 50.65985
191.7702, 50.52809
192.2523, 50.82687
192.7344, 51.22500
193.2166, 51.72118
193.6987, 52.23356
194.1808, 52.95092
194.6629, 53.79339
195.1450, 53.61480
195.6271, 52.10065
196.1093, 50.36705
196.5914, 50.32009
197.0735, 52.11346
197.5556, 53.67678
198.0377, 53.91919
198.5198, 52.83059
199.0020, 52.36831
199.4841, 52.75690
199.9662, 53.37313
200.4483, 53.01516
200.9304, 51.47703
201.4125, 50.21577
201.8947, 50.05072
202.3768, 51.09846
202.8589, 51.75438
203.3410, 51.97112
203.8231, 51.84768
204.3052, 51.44088
204.7874, 50.62268
205.2695, 50.04709
205.7516, 50.17388
206.2337, 51.18165
206.7158, 51.63180
207.1979, 51.35871
207.6801, 50.67126
208.1622, 50.20055
208.6443, 49.98666
209.1264, 49.85391
209.6085, 49.70094
210.0906, 49.48434
210.5728, 49.49697
211.0549, 49.90721
211.5370, 50.43038
212.0191, 50.30088
212.5012, 49.20119
212.9833, 48.22988
213.4655, 48.00710
213.9476, 48.82102
214.4297, 49.27813
214.9118, 49.20887
215.3939, 48.84274
215.8760, 48.74377
216.3581, 48.96416
216.8403, 49.34562
217.3224, 49.89610
217.8045, 50.82523
218.2866, 51.24557
218.7687, 50.92522
219.2508, 50.16262
219.7330, 49.78249
220.2151, 49.92838
220.6972, 50.18828
221.1793, 50.37085
221.6614, 50.45114
222.1435, 50.52222
222.6257, 50.58802
223.1078, 50.64470
223.5899, 50.66862
224.0720, 50.59502
224.5541, 50.59414
225.0362, 50.77703
225.5184, 51.28530
226.0005, 51.62755
226.4826, 51.79063
226.9647, 51.78735
227.4468, 51.59246
227.9289, 50.92571
228.4111, 50.50336
228.8932, 50.76567
229.3753, 52.27770
229.8574, 53.09276
230.3395, 52.85542
230.8216, 51.97705
231.3038, 51.62925
231.7859, 52.20890
232.2680, 52.73861
232.7501, 52.71473
233.2322, 51.69242
233.7143, 51.11623
234.1965, 51.04055
234.6786, 51.40247
235.1607, 52.08848
235.6428, 53.43113
236.1249, 54.61253
236.6070, 55.23201
237.0892, 54.96854
237.5713, 54.86176
238.0534, 55.03191
238.5355, 55.32678
239.0176, 55.31156
239.4997, 54.66862
239.9819, 54.17227
240.4640, 54.20766
240.9461, 55.11750
241.4282, 55.74178
241.9103, 55.99836
242.3924, 55.99625
242.8746, 55.96399
243.3567, 55.77236
243.8388, 55.74886
244.3209, 56.08272
244.8030, 57.01060
245.2851, 57.63861
245.7673, 57.80645
246.2494, 57.74097
246.7315, 57.92858
247.2136, 58.43592
247.6957, 59.09389
248.1778, 59.91309
248.6600, 61.08273
249.1421, 61.79420
249.6242, 61.85487
250.1063, 61.56602
250.5884, 61.49284
251.0705, 61.64426
251.5527, 61.99955
252.0348, 62.59120
252.5169, 63.52302
252.9990, 64.33805
253.4811, 65.05510
253.9632, 65.65115
254.4454, 66.02989
254.9275, 65.99944
255.4096, 66.11978
255.8917, 66.57870
256.3738, 67.40776
256.8560, 68.49946
257.3381, 70.19842
257.8202, 71.88007
258.3023, 72.41907
258.7844, 71.03452
259.2665, 70.21138
259.7487, 70.92309
260.2308, 73.47765
260.7129, 75.40344
261.1950, 76.55373
261.6771, 77.23339
262.1592, 77.78392
262.6414, 78.09682
263.1235, 78.54863
263.6056, 79.29155
264.0877, 80.36170
264.5698, 81.26039
265.0519, 81.92039
265.5341, 82.49812
266.0162, 83.13313
266.4983, 83.74454
266.9804, 84.68599
267.4625, 86.27869
267.9446, 88.48827
268.4268, 89.73778
268.9089, 89.67773
269.3910, 89.23390
269.8731, 89.35627
270.3552, 90.16324
270.8373, 91.06339
271.3195, 91.96110
271.8016, 92.85052
272.2837, 93.74066
272.7658, 94.69225
273.2479, 95.52992
273.7300, 96.02165
274.2122, 96.07938
274.6943, 96.35703
275.1764, 97.09474
275.6585, 98.15385
276.1406, 98.77876
276.6227, 98.90537
277.1049, 98.81415
277.5870, 98.70549
278.0691, 98.58067
278.5512, 98.39345
279.0333, 98.03062
279.5154, 97.65428
279.9976, 97.94505
280.4797, 99.03665
280.9618, 100.1101
281.4439, 100.5890
281.9260, 100.4647
282.4081, 100.2012
282.8903, 99.82768
283.3724, 99.37849
283.8545, 98.93590
284.3366, 98.50222
284.8187, 98.04714
285.3008, 97.54652
285.7830, 97.00069
286.2651, 96.48911
286.7472, 96.05043
287.2293, 95.58174
287.7114, 94.85028
288.1935, 93.85779
288.6757, 92.84879
289.1578, 91.96959
289.6399, 91.19377
290.1220, 90.44760
290.6041, 89.73457
291.0862, 89.00870
291.5684, 88.16391
292.0505, 87.21404
292.5326, 86.32947
293.0147, 85.68455
293.4968, 85.17004
293.9789, 84.40562
294.4611, 83.36539
294.9432, 82.22197
295.4253, 81.05144
295.9074, 79.90562
296.3895, 79.03264
296.8716, 78.75604
297.3538, 78.76495
297.8359, 78.36889
298.3180, 77.54865
298.8001, 76.68297
299.2822, 76.13690
299.7643, 75.81792
300.2465, 75.48991
300.7286, 75.01662
301.2107, 74.52502
301.6928, 74.18434
302.1749, 73.99284
302.6570, 73.87706
303.1392, 73.80092
303.6213, 73.75985
304.1034, 73.74800
304.5855, 73.76569
305.0676, 73.80952
305.5497, 73.88951
306.0319, 73.99856
306.5140, 74.10382
306.9961, 74.13886
307.4782, 74.17246
307.9603, 74.31742
308.4424, 74.69782
308.9246, 75.00465
309.4067, 74.94029
309.8888, 74.59733
310.3709, 74.23800
310.8530, 73.82996
311.3351, 73.56549
311.8173, 73.68519
312.2994, 74.37186
312.7815, 74.99492
313.2636, 75.02455
313.7457, 74.73944
314.2278, 74.64046
314.7100, 75.08116
315.1921, 75.67362
315.6742, 76.25190
316.1563, 76.82989
316.6384, 77.19075
317.1205, 76.92811
317.6027, 76.47352
318.0848, 76.37566
318.5669, 77.24597
319.0490, 78.11227
319.5311, 78.52632
320.0132, 78.44765
320.4954, 78.44312
320.9775, 78.75270
321.4596, 79.16423
321.9417, 79.49346
322.4238, 79.38750
322.9059, 79.52238
323.3881, 80.13850
323.8702, 81.19653
324.3523, 82.25471
324.8344, 83.65517
325.3165, 84.77171
325.7986, 85.24928
326.2808, 83.77821
326.7629, 83.17879
327.2450, 83.92943
327.7271, 85.76507
328.2092, 87.64063
328.6913, 89.81754
329.1735, 91.79147
329.6556, 93.33467
330.1377, 93.90864
330.6198, 95.09029
331.1019, 97.24052
331.5840, 99.88435
332.0662, 102.1653
332.5483, 103.9012
333.0304, 105.5337
333.5125, 107.0266
333.9946, 108.2078
334.4767, 110.2987
334.9589, 113.7169
335.4410, 117.6062
335.9231, 120.7880
336.4052, 122.8046
336.8873, 125.2674
337.3694, 128.6926
337.8516, 132.9949
338.3336, 136.9141
338.8158, 140.3419
339.2979, 143.6389
339.7800, 147.1878
340.2621, 150.9890
340.7442, 154.8496
341.2263, 158.6235
341.7085, 162.4361
342.1906, 166.6627
342.6727, 171.4478
343.1548, 175.9768
343.6369, 179.6839
344.1190, 182.5787
344.6012, 185.3065
345.0833, 187.8515
345.5654, 190.3719
346.0475, 193.4285
346.5296, 196.9412
347.0117, 199.8490
347.4939, 201.4326
347.9760, 201.9235
348.4581, 202.1163
348.9402, 202.0813
349.4223, 201.5049
349.9044, 199.9536
350.3866, 197.5396
350.8687, 194.6471
351.3508, 191.3429
351.8329, 187.6671
352.3150, 183.7225
352.7971, 179.4841
353.2793, 174.7963
353.7614, 168.9696
354.2435, 162.6353
354.7256, 156.8140
355.2077, 152.1089
355.6898, 147.6531
356.1720, 142.4542
356.6541, 136.7183
357.1362, 131.3677
357.6183, 126.9900
358.1004, 123.1434
358.5826, 119.3640
359.0647, 115.3730
359.5468, 111.9398
360.0289, 109.8630
360.5110, 108.6126
360.9931, 107.1729
361.4753, 104.8531
361.9574, 102.4987
362.4395, 100.5488
362.9216, 99.08627
363.4037, 97.75548
363.8858, 96.49544
364.3680, 95.29736
364.8501, 94.14734
365.3322, 92.71185
365.8143, 91.67958
366.2964, 91.55350
366.7785, 92.29791
367.2607, 92.36090
367.7428, 90.99239
368.2249, 89.30587
368.7070, 87.96705
369.1891, 87.22316
369.6712, 86.51904
370.1534, 85.72398
370.6355, 84.94859
371.1176, 84.58775
371.5997, 85.12987
372.0818, 85.45050
372.5639, 85.01694
373.0461, 83.47395
373.5282, 82.36158
374.0103, 81.91719
374.4924, 81.65714
374.9745, 80.73781
375.4566, 78.82584
375.9388, 77.31136
376.4209, 76.81377
376.9030, 77.22740
377.3851, 76.79591
377.8672, 75.29012
378.3493, 73.65882
378.8315, 72.89108
379.3136, 72.99767
379.7957, 73.08241
380.2778, 73.02610
380.7599, 72.80460
381.2420, 72.29765
381.7242, 71.51390
382.2063, 70.66249
382.6884, 69.80354
383.1705, 68.97854
383.6526, 68.38696
384.1347, 68.07375
384.6169, 67.88425
385.0990, 67.85358
385.5811, 67.84122
386.0632, 67.38907
386.5453, 65.92813
387.0274, 64.06387
387.5096, 62.58345
387.9917, 61.50344
388.4738, 60.63400
388.9559, 60.12716
389.4380, 59.68226
389.9201, 58.87358
390.4023, 57.29970
390.8844, 55.64310
391.3665, 54.33514
391.8486, 53.31326
392.3307, 52.39489
392.8128, 51.51489
393.2950, 50.69125
393.7771, 49.94345
394.2592, 49.32052
394.7413, 48.65363
395.2234, 47.81830
395.7055, 46.92320
396.1877, 46.13670
396.6698, 45.72413
397.1519, 45.20755
397.6340, 44.32482
398.1161, 42.99337
398.5982, 41.99749
399.0804, 41.75159
399.5625, 41.64046
400.0446, 41.21716
400.5267, 40.22501
401.0088, 39.29322
401.4909, 38.48964
401.9731, 37.79037
402.4552, 37.11926
402.9373, 36.49763
403.4194, 35.86876
403.9015, 35.12748
404.3836, 34.11558
404.8658, 33.70165
405.3479, 34.13455
405.8300, 34.83244
406.3121, 34.83927
406.7942, 34.03557
407.2763, 33.37701
407.7585, 33.21566
408.2406, 33.45871
408.7227, 33.66280
409.2048, 33.84832
409.6869, 33.82573
410.1690, 33.16570
410.6512, 32.06448
411.1333, 31.50327
411.6154, 31.80162
412.0975, 32.46991
412.5796, 32.82050
413.0617, 32.89323
413.5439, 32.89629
414.0260, 33.04519
414.5081, 33.16061
414.9902, 32.90803
415.4723, 32.22834
415.9544, 31.56250
416.4366, 31.26473
416.9187, 31.21637
417.4008, 31.23945
417.8829, 31.42797
418.3650, 31.52966
418.8471, 31.27429
419.3293, 30.74177
419.8114, 30.39473
420.2935, 30.60799
420.7756, 30.96455
421.2577, 31.17821
421.7398, 31.13760
422.2220, 31.08652
422.7041, 31.16423
423.1862, 31.25294
423.6683, 31.14284
424.1504, 30.48445
424.6325, 29.94584
425.1147, 29.77293
425.5968, 30.02501
426.0789, 30.07903
426.5610, 29.82759
427.0431, 29.47606
427.5252, 29.17287
428.0074, 28.87166
428.4895, 28.74685
428.9716, 28.91511
429.4537, 29.24092
429.9358, 29.22400
430.4179, 28.73391
430.9001, 28.36069
431.3822, 28.46616
431.8643, 29.05860
432.3464, 29.61319
432.8285, 30.17824
433.3106, 30.54522
433.7928, 30.27447
434.2749, 29.45732
434.7570, 28.87436
435.2391, 28.84702
435.7212, 29.13660
436.2033, 29.34327
436.6855, 29.46302
437.1676, 29.47127
437.6497, 29.28393
438.1318, 28.99310
438.6139, 28.74798
439.0960, 28.58823
439.5782, 28.41698
440.0603, 27.99340
440.5424, 27.51345
441.0245, 27.34763
441.5066, 28.08924
441.9887, 28.82902
442.4709, 28.93380
442.9530, 28.41250
443.4351, 27.99221
443.9172, 28.03701
444.3993, 28.23731
444.8814, 28.37021
445.3636, 28.37530
445.8457, 28.34211
446.3278, 28.30102
446.8099, 28.23015
447.2920, 28.07312
447.7741, 27.76769
448.2563, 27.43993
448.7384, 27.07195
449.2205, 26.61245
449.7026, 26.53366
450.1847, 27.10173
450.6668, 27.71769
451.1490, 27.74209
451.6311, 26.94951
452.1132, 26.44632
452.5953, 26.42704
453.0774, 26.76806
453.5595, 27.27798
454.0417, 28.01076
454.5238, 28.41263
455.0059, 27.81290
455.4880, 26.51363
455.9701, 26.26245
456.4522, 27.24226
456.9344, 28.39893
457.4165, 28.53264
457.8986, 27.92445
458.3807, 27.34241
458.8628, 26.97841
459.3449, 26.80533
459.8271, 26.95812
460.3092, 27.33167
460.7913, 27.47944
461.2734, 26.71665
461.7555, 25.87122
462.2376, 25.74640
462.7198, 26.61798
463.2019, 27.43127
463.6840, 27.62941
464.1661, 27.51176
464.6482, 27.44052
465.1303, 27.76322
465.6125, 27.87752
466.0946, 27.47110
466.5767, 26.61493
467.0588, 26.01334
467.5409, 25.64163
468.0230, 25.60290
468.5052, 26.04231
468.9873, 27.42677
469.4694, 28.08327
469.9515, 27.67306
470.4336, 26.83037
470.9157, 26.48827
471.3979, 26.83177
471.8800, 27.04104
472.3621, 26.85385
472.8442, 26.37362
473.3263, 26.09598
473.8084, 26.03936
474.2906, 26.04119
474.7727, 25.98220
475.2548, 25.87922
475.7369, 25.77934
476.2190, 25.65603
476.7011, 25.66167
477.1833, 26.21378
477.6654, 27.06930
478.1475, 27.55815
478.6296, 27.15428
479.1117, 26.42203
479.5938, 25.83632
480.0760, 25.40034
480.5581, 25.14937
481.0402, 25.17262
481.5223, 25.34242
482.0044, 25.59881
482.4865, 26.02460
482.9687, 26.27452
483.4508, 26.05660
483.9329, 25.63782
484.4150, 25.40161
484.8971, 25.64203
485.3792, 25.83081
485.8614, 25.78756
486.3435, 25.53634
486.8256, 25.44560
487.3077, 25.58891
487.7898, 25.80644
488.2719, 26.04049
488.7541, 26.34031
489.2362, 26.47612
489.7183, 26.41089
490.2004, 26.22855
490.6825, 26.03003
491.1646, 25.80869
491.6468, 25.63761
492.1289, 25.56507
492.6110, 25.54286
493.0931, 25.32277
493.5752, 24.91012
494.0573, 24.72173
494.5395, 25.48183
495.0216, 26.60986
495.5037, 26.72219
495.9858, 25.49069
496.4679, 24.18783
496.9500, 24.08749
497.4322, 24.68925
497.9143, 25.16604
498.3964, 25.04546
498.8785, 24.84074
499.3606, 24.84084
499.8427, 25.00830
500.3249, 25.16260
500.8070, 25.29899
501.2891, 25.36241
501.7712, 25.29462
502.2533, 25.00524
502.7354, 24.82903
503.2176, 24.90160
503.6997, 25.04242
504.1818, 25.05374
504.6639, 24.77581
505.1460, 24.68233
505.6281, 24.94944
506.1103, 25.43585
506.5924, 25.54099
507.0745, 25.16702
507.5566, 24.75615
508.0387, 24.48436
508.5208, 24.35449
509.0030, 24.50573
509.4851, 24.99035
509.9672, 25.46036
510.4493, 25.53036
510.9314, 25.27551
511.4135, 24.91680
511.8957, 24.42507
512.3778, 24.00772
512.8599, 23.95922
513.3420, 24.19541
513.8242, 24.46870
514.3063, 24.65654
514.7884, 24.83182
515.2705, 25.10044
515.7526, 25.46973
516.2347, 25.68925
516.7169, 25.63871
517.1990, 25.41055
517.6811, 25.06325
518.1632, 24.28980
518.6453, 23.82886
519.1274, 23.90182
519.6096, 24.30779
520.0917, 24.70194
520.5738, 25.15523
521.0559, 25.47894
521.5380, 25.62932
522.0201, 25.60781
522.5023, 25.37743
522.9844, 24.83394
523.4665, 24.37718
523.9486, 24.41022
524.4307, 24.89798
524.9128, 25.03544
525.3950, 24.67926
525.8771, 24.24612
526.3592, 24.37863
526.8413, 24.92583
527.3234, 25.33808
527.8055, 25.32592
528.2877, 25.16097
528.7698, 25.12001
529.2519, 25.19158
529.7340, 25.32514
530.2161, 25.59777
530.6982, 25.85007
531.1804, 25.98502
531.6625, 25.99552
532.1446, 25.84135
532.6267, 25.23520
533.1088, 24.59314
533.5909, 24.30792
534.0731, 24.90844
534.5552, 25.26695
535.0373, 25.13568
535.5194, 24.73536
536.0015, 24.62809
536.4836, 24.92112
536.9658, 25.30180
537.4479, 25.74606
537.9300, 26.23495
538.4121, 26.30407
538.8942, 25.89207
539.3763, 25.30970
539.8585, 24.68265
540.3406, 24.06680
540.8227, 23.84156
541.3048, 24.11935
541.7869, 24.55181
542.2690, 24.71677
542.7512, 24.69532
543.2333, 24.69143
543.7154, 24.84351
544.1975, 25.00263
544.6796, 25.04923
545.1617, 24.99765
545.6439, 24.90817
546.1260, 24.70984
546.6081, 24.55759
547.0902, 24.59334
547.5723, 24.91917
548.0544, 25.06021
548.5366, 24.58100
549.0187, 24.10256
549.5008, 24.21542
549.9829, 25.56415
550.4650, 26.30635
550.9471, 26.08951
551.4293, 25.28675
551.9114, 24.70533
552.3935, 24.33043
552.8756, 24.27069
553.3577, 24.76939
553.8398, 25.61646
554.3220, 25.68561
554.8041, 24.94955
555.2862, 24.24421
555.7683, 24.34273
556.2504, 24.91437
556.7325, 25.32548
557.2147, 25.49943
557.6968, 25.47258
558.1789, 25.09484
558.6610, 24.57874
559.1431, 24.24156
559.6252, 24.36253
560.1074, 24.51284
560.5895, 24.45630
561.0716, 24.28186
561.5537, 24.28761
562.0358, 24.80751
562.5179, 25.25076
563.0001, 25.37011
563.4822, 25.12625
563.9643, 24.98585
564.4464, 24.97926
564.9285, 25.03373
565.4106, 25.10967
565.8928, 25.21646
566.3749, 25.28554
566.8570, 25.31279
567.3391, 25.30027
567.8212, 25.22328
568.3033, 25.09451
568.7855, 25.01825
569.2676, 25.06921
569.7497, 25.15083
570.2318, 25.02495
570.7139, 24.76853
571.1960, 24.70840
571.6782, 25.55450
572.1603, 26.32850
572.6424, 25.94688
573.1245, 24.21896
573.6066, 23.01426
574.0887, 23.56204
574.5709, 24.60383
575.0530, 25.15573
575.5351, 24.71347
576.0172, 24.31539
576.4993, 23.83323
576.9814, 23.48320
577.4636, 23.70999
577.9457, 24.83526
578.4278, 25.67734
578.9099, 25.90625
579.3920, 25.64954
579.8741, 25.31165
580.3563, 24.88314
580.8384, 24.52340
581.3205, 24.28788
581.8026, 24.19515
582.2847, 24.37228
582.7668, 24.82744
583.2490, 25.28602
583.7311, 25.53865
584.2132, 25.64869
584.6953, 25.68192
585.1774, 25.60522
585.6595, 25.56749
586.1416, 25.79089
586.6237, 26.06653
587.1058, 26.08208
587.5880, 25.30698
588.0701, 24.76643
588.5522, 24.88959
589.0343, 25.49319
589.5164, 25.71583
589.9985, 25.35735
590.4807, 24.94904
590.9628, 24.65534
591.4449, 24.47328
591.9270, 24.62043
592.4091, 25.17164
592.8912, 25.73020
593.3734, 25.90281
593.8555, 25.76223
594.3376, 25.63032
594.8197, 25.53927
595.3018, 25.51700
595.7839, 25.68165
596.2661, 25.92867
596.7482, 26.05430
597.2303, 25.84223
597.7124, 25.62918
598.1945, 25.68597
598.6766, 25.90864
599.1588, 25.99330
599.6409, 25.80595
600.1230, 25.50719
600.6051, 25.02873
601.0872, 24.34072
601.5693, 24.15210
602.0515, 24.81369
602.5336, 25.49905
603.0157, 25.61831
603.4978, 25.01527
603.9799, 24.87546
604.4620, 25.34614
604.9442, 25.95264
605.4263, 26.03283
605.9084, 25.67953
606.3905, 25.42444
606.8726, 25.39174
607.3547, 25.50792
607.8369, 25.76313
608.3190, 26.09799
608.8011, 26.36828
609.2832, 26.56430
609.7653, 26.61918
610.2474, 26.41680
610.7296, 25.99302
611.2117, 25.63745
611.6938, 25.40799
612.1759, 25.28012
612.6580, 25.26611
613.1401, 25.40295
613.6223, 25.47633
614.1044, 25.46126
614.5865, 25.41576
615.0686, 25.36205
615.5507, 25.28382
616.0328, 25.39896
616.5150, 25.82435
616.9971, 26.21659
617.4792, 25.81837
617.9613, 24.85058
618.4434, 24.37260
618.9255, 25.00584
619.4077, 25.96989
619.8898, 26.43950
620.3719, 26.50293
620.8540, 26.44783
621.3361, 26.27828
621.8182, 26.15020
622.3004, 26.22102
622.7825, 26.49051
623.2646, 26.58621
623.7467, 26.30427
624.2288, 25.93549
624.7109, 25.58029
625.1931, 25.14225
625.6752, 25.10605
626.1573, 25.67103
626.6394, 26.30490
627.1215, 26.30174
627.6036, 25.64531
628.0858, 25.57074
628.5679, 26.44855
629.0500, 27.50935
629.5321, 27.36818
630.0142, 26.39795
630.4963, 25.79980
630.9785, 26.36589
631.4606, 27.18417
631.9427, 27.51658
632.4248, 27.45380
632.9069, 27.28431
633.3890, 26.94782
633.8712, 26.69552
634.3533, 26.65035
634.8354, 26.82961
635.3175, 27.07332
635.7996, 27.45918
636.2817, 27.81128
636.7639, 28.05882
637.2460, 28.21767
637.7281, 28.12261
638.2102, 27.68525
638.6923, 27.24118
639.1744, 27.19502
639.6566, 27.48921
640.1387, 27.83210
640.6208, 28.23071
641.1029, 28.45619
641.5850, 27.96441
642.0671, 27.12567
642.5493, 26.67165
643.0314, 27.36409
643.5135, 28.07614
643.9956, 28.08373
644.4777, 27.62713
644.9598, 27.45977
645.4420, 28.19491
645.9241, 28.78098
646.4062, 28.85477
646.8883, 28.44195
647.3704, 28.10390
647.8525, 27.84776
648.3347, 27.65605
648.8168, 27.56964
649.2989, 27.58023
649.7810, 27.35654
650.2631, 26.85234
650.7452, 26.49454
651.2274, 26.99078
651.7095, 27.89004
652.1916, 28.15954
652.6737, 27.43217
653.1558, 26.74313
653.6379, 27.02461
654.1201, 27.73934
654.6022, 28.17995
655.0843, 27.98294
655.5664, 27.67065
656.0485, 27.27410
656.5306, 26.85056
657.0128, 26.51815
657.4949, 26.29225
657.9770, 26.14101
658.4591, 26.11903
658.9412, 26.15816
659.4233, 25.88237
659.9055, 25.25284
660.3876, 24.72896
660.8697, 24.51265
661.3518, 24.59211
661.8339, 25.07555
662.3160, 25.93138
662.7982, 26.68746
663.2803, 27.04876
663.7624, 27.12473
664.2445, 26.94775
664.7266, 26.46903
665.2087, 26.08588
665.6909, 26.01600
666.1730, 26.04690
666.6551, 25.99600
667.1372, 25.71022
667.6193, 25.61431
668.1014, 25.82942
668.5836, 26.11189
669.0657, 26.08616
669.5478, 25.71955
670.0299, 25.42490
670.5120, 25.27445
670.9941, 25.25761
671.4763, 25.40321
671.9584, 25.67891
672.4405, 25.96031
672.9226, 26.31041
673.4047, 26.54742
673.8868, 26.37860
674.3690, 25.93348
674.8511, 25.66696
675.3332, 25.93092
675.8153, 26.24669
676.2974, 26.37633
676.7795, 26.30321
677.2617, 26.40834
677.7438, 26.86650
678.2259, 27.23603
678.7080, 27.20090
679.1901, 26.71510
679.6722, 26.67620
680.1544, 27.15052
680.6365, 27.67506
681.1186, 27.71946
681.6007, 27.48965
682.0828, 27.59971
682.5649, 28.21189
683.0471, 28.71000
683.5292, 28.37899
684.0113, 27.71451
684.4934, 27.31976
684.9755, 27.51214
685.4576, 27.73584
685.9398, 27.89998
686.4219, 27.99795
686.9040, 28.01774
687.3861, 27.88346
687.8682, 27.83193
688.3503, 27.93925
688.8325, 28.12397
689.3146, 28.12898
689.7967, 27.95033
690.2788, 27.88113
690.7609, 28.04898
691.2430, 28.39435
691.7252, 28.98180
692.2073, 29.71499
692.6894, 30.13301
693.1715, 29.72950
693.6536, 29.10743
694.1357, 28.60741
694.6179, 28.25628
695.1000, 28.13229
695.5821, 28.50425
696.0642, 28.88543
696.5463, 29.05077
697.0284, 28.97305
697.5106, 28.82951
697.9927, 28.55674
698.4748, 28.36700
698.9569, 28.57632
699.4390, 29.10038
699.9211, 29.10529
700.4033, 28.46378
700.8854, 27.85324
701.3675, 28.18419
701.8496, 28.93095
702.3317, 29.23580
702.8138, 28.76409
703.2960, 28.18126
703.7781, 27.74889
704.2602, 27.42071
704.7423, 27.14012
705.2244, 26.84548
705.7065, 26.66778
706.1887, 26.60106
706.6708, 26.66368
707.1529, 26.96343
707.6350, 27.57598
708.1171, 27.95490
708.5992, 27.90826
709.0814, 27.60727
709.5635, 27.36965
710.0456, 27.18758
710.5277, 27.02828
711.0098, 26.93934
711.4919, 26.81626
711.9741, 26.51840
712.4562, 26.09596
712.9383, 25.73968
713.4204, 25.46957
713.9025, 25.32676
714.3846, 25.37082
714.8668, 25.58925
715.3489, 25.79663
715.8310, 26.01801
716.3131, 26.18169
716.7952, 26.24446
717.2773, 26.21107
717.7595, 26.17451
718.2416, 26.13957
718.7237, 26.01450
719.2058, 25.59859
719.6879, 25.09085
720.1700, 24.82520
720.6522, 24.83971
721.1343, 24.95812
721.6164, 25.30271
722.0985, 25.56490
722.5806, 25.45617
723.0627, 24.66240
723.5449, 24.12677
724.0270, 23.91796
724.5091, 23.94766
724.9912, 24.23354
725.4733, 24.89179
725.9554, 25.04128
726.4376, 24.46659
726.9197, 23.79258
727.4018, 24.08025
727.8839, 24.99466
728.3660, 25.42912
728.8481, 24.93089
729.3303, 24.28485
729.8124, 24.20296
730.2945, 24.40524
730.7766, 24.46550
731.2587, 23.99290
731.7408, 23.67503
732.2230, 23.79483
732.7051, 24.13678
733.1872, 24.32830
733.6693, 24.37756
734.1514, 24.22219
734.6335, 23.75505
735.1157, 23.15977
735.5978, 22.86857
736.0799, 22.87434
736.5620, 23.12613
737.0441, 23.88211
737.5262, 24.64479
738.0084, 24.79698
738.4905, 24.46538
738.9726, 24.08114
739.4547, 23.54075
739.9368, 23.26593
740.4189, 23.71564
740.9011, 24.80693
741.3832, 25.10977
741.8653, 24.19527
742.3474, 23.26782
742.8295, 22.81741
743.3116, 22.79375
743.7938, 22.79885
744.2759, 22.82796
744.7580, 23.03849
745.2401, 23.83953
745.7222, 24.75584
746.2043, 24.91158
746.6865, 24.31550
747.1686, 23.84539
747.6507, 24.18551
748.1328, 24.66499
748.6149, 24.86707
749.0970, 24.72075
749.5792, 24.34262
750.0613, 23.37687
750.5434, 22.64137
751.0255, 22.82637
751.5076, 24.06229
751.9897, 24.59988
752.4719, 24.34429
752.9540, 23.83687
753.4361, 23.46918
753.9182, 23.24557
754.4003, 23.21066
754.8824, 23.39440
755.3646, 23.56339
755.8467, 23.47286
756.3288, 23.34450
756.8109, 23.40848
757.2930, 23.89746
757.7751, 24.17253
758.2573, 24.19588
758.7394, 24.00518
759.2215, 23.54174
759.7036, 22.71236
760.1857, 22.25672
760.6678, 22.27003
761.1500, 22.57855
761.6321, 23.21399
762.1142, 23.95737
762.5963, 24.21358
763.0784, 23.67974
763.5605, 23.07850
764.0427, 22.91801
764.5248, 22.98946
765.0069, 23.03131
765.4890, 22.79888
765.9711, 22.80017
766.4532, 23.27792
766.9354, 23.85898
767.4175, 23.95288
767.8996, 23.46656
768.3817, 23.07049
768.8638, 22.86925
769.3459, 22.82626
769.8281, 22.92439
770.3102, 23.13865
770.7923, 23.42021
771.2744, 23.91339
771.7565, 24.21331
772.2386, 23.84309
772.7208, 23.13337
773.2029, 22.65981
773.6850, 22.62493
774.1671, 22.77333
774.6492, 23.24204
775.1313, 23.78405
775.6135, 23.78089
776.0956, 23.12925
776.5777, 22.67668
777.0598, 22.66678
777.5419, 22.94859
778.0240, 23.49116
778.5062, 24.12658
778.9883, 24.32597
779.4704, 23.34741
779.9525, 22.36998
780.4346, 22.24049
780.9167, 22.66169
781.3989, 22.89071
781.8810, 22.51523
782.3631, 22.26275
782.8452, 22.28471
783.3273, 22.50762
783.8094, 22.73014
784.2916, 22.95324
784.7737, 23.18201
785.2558, 23.45185
785.7379, 23.69594
786.2200, 23.77754
786.7021, 23.72282
787.1843, 23.61737
787.6664, 23.43876
788.1485, 23.28205
788.6306, 23.15243
789.1127, 23.07982
789.5948, 23.19477
790.0770, 23.80758
790.5591, 24.15479
791.0412, 23.97346
791.5233, 23.42505
792.0054, 23.03965
792.4875, 22.81950
792.9697, 22.79674
793.4518, 23.09254
793.9339, 23.50252
794.4160, 23.66374
794.8981, 23.65098
795.3802, 23.71343
795.8624, 24.17158
796.3445, 24.53185
796.8266, 24.54172
797.3087, 24.23826
797.7908, 23.85315
798.2729, 23.29074
798.7551, 22.84059
799.2372, 22.55645
799.7193, 22.45296
800.2014, 22.71902
800.6835, 23.31393
801.1656, 23.66652
801.6478, 23.16480
802.1299, 22.51017
802.6120, 22.63836
803.0941, 23.32466
803.5762, 23.85445
804.0583, 23.97501
804.5405, 23.84436
805.0226, 23.29193
805.5047, 22.50072
805.9868, 22.18618
806.4689, 22.42186
806.9510, 22.94304
807.4332, 23.79544
807.9153, 24.77719
808.3974, 25.39945
808.8795, 25.64285
809.3616, 25.39493
809.8438, 23.98477
810.3259, 22.58222
810.8080, 22.18954
811.2901, 22.60604
811.7722, 23.13747
812.2543, 23.92974
812.7365, 24.41780
813.2186, 24.32738
813.7007, 23.85520
814.1828, 23.79085
814.6649, 24.21414
815.1470, 24.37764
815.6292, 23.81369
816.1113, 23.03045
816.5934, 23.11162
817.0755, 23.81828
817.5576, 24.35475
818.0397, 24.16117
818.5219, 23.87293
819.0040, 23.87787
819.4861, 24.05297
819.9682, 23.96151
820.4503, 23.29382
820.9324, 22.87607
821.4146, 22.96530
821.8967, 23.35316
822.3788, 23.47423
822.8609, 23.35010
823.3430, 23.34068
823.8251, 23.66540
824.3073, 24.04934
824.7894, 24.18247
825.2715, 24.12202
825.7536, 23.99892
826.2357, 23.71843
826.7178, 23.54517
827.2000, 23.70566
827.6821, 23.98494
828.1642, 23.93535
828.6463, 23.40440
829.1284, 23.10667
829.6105, 23.24345
830.0927, 23.58222
830.5748, 23.69497
831.0569, 23.64709
831.5390, 23.67567
832.0211, 23.93905
832.5032, 24.17468
832.9854, 24.15932
833.4675, 24.00596
833.9496, 23.88530
834.4317, 23.69652
834.9138, 23.76148
835.3959, 24.28335
835.8781, 24.89316
836.3602, 24.98886
836.8423, 24.57018
837.3244, 24.12337
837.8065, 23.71337
838.2886, 23.39680
838.7708, 23.26720
839.2529, 23.26631
839.7350, 23.28448
840.2171, 23.21600
840.6992, 23.31979
841.1813, 23.98128
841.6635, 24.68056
842.1456, 24.83933
842.6277, 24.20770
843.1098, 23.78912
843.5919, 23.63733
844.0740, 23.70281
844.5562, 24.14852
845.0383, 24.76119
845.5204, 24.81477
846.0025, 24.12935
846.4846, 23.38639
846.9667, 22.90886
847.4489, 22.70613
847.9310, 22.83318
848.4131, 23.47144
848.8952, 23.97375
849.3773, 24.33346
849.8594, 24.54354
850.3416, 24.60403
850.8237, 24.51425
851.3058, 24.13439
851.7879, 23.42590
852.2700, 22.91176
852.7521, 23.27390
853.2343, 23.92660
853.7164, 24.13989
854.1985, 23.82196
854.6806, 23.54168
855.1627, 23.49784
855.6448, 23.53184
856.1270, 23.55513
856.6091, 23.56562
857.0912, 23.69817
857.5733, 23.98663
858.0554, 24.19948
858.5375, 24.10638
859.0197, 23.85739
859.5018, 23.83025
859.9839, 23.98338
860.4660, 24.04642
860.9481, 23.77910
861.4302, 23.46622
861.9124, 23.24192
862.3945, 23.11507
862.8766, 23.03376
863.3587, 22.99478
863.8408, 23.02009
864.3229, 23.15271
864.8051, 23.33210
865.2872, 23.33933
865.7693, 23.20596
866.2514, 23.11907
866.7335, 23.37729
867.2156, 23.51593
867.6978, 22.82816
868.1799, 21.77035
868.6620, 21.37894
869.1441, 22.82432
869.6262, 23.71782
870.1083, 23.54203
870.5905, 22.80936
871.0726, 22.51662
871.5547, 22.65109
872.0368, 22.93924
872.5189, 23.39807
873.0010, 23.75228
873.4832, 23.57256
873.9653, 23.10336
874.4474, 22.74170
874.9295, 22.60277
875.4116, 22.56942
875.8937, 22.70372
876.3759, 22.87378
876.8580, 22.96548
877.3401, 22.97869
877.8222, 22.86195
878.3043, 22.55986
878.7864, 22.35586
879.2686, 22.75360
879.7507, 23.39902
880.2328, 23.59058
880.7149, 23.18520
881.1970, 22.77636
881.6791, 22.70469
882.1613, 22.69819
882.6434, 22.57068
883.1255, 22.31192
883.6076, 21.93187
884.0897, 21.31469
884.5718, 20.95077
885.0540, 21.41363
885.5361, 22.37165
886.0182, 22.67552
886.5003, 22.39670
886.9824, 22.14764
887.4645, 22.43670
887.9467, 22.74916
888.4288, 22.71639
888.9109, 22.36444
889.3930, 22.15147
889.8751, 22.12553
890.3572, 22.17228
890.8394, 22.29432
891.3215, 22.43520
891.8036, 22.38115
892.2857, 22.17688
892.7678, 22.06919
893.2499, 22.29988
893.7321, 22.50668
894.2142, 22.42118
894.6963, 22.11987
895.1784, 21.74634
895.6605, 21.00014
896.1426, 20.69279
896.6248, 21.03916
897.1069, 21.68040
897.5890, 22.19410
898.0711, 22.55884
898.5532, 22.42589
899.0353, 21.62872
899.5175, 20.83360
899.9996, 20.62475
900.4817, 20.79412
900.9638, 21.16879
901.4459, 21.93887
901.9280, 22.23498
902.4102, 21.61597
902.8923, 20.94547
903.3744, 20.86995
903.8565, 21.40321
904.3386, 21.79465
904.8207, 22.03641
905.3029, 22.13853
905.7850, 22.05058
906.2671, 21.86049
906.7492, 21.61582
907.2313, 21.33417
907.7134, 21.15186
908.1956, 21.14232
908.6777, 21.21191
909.1598, 21.36738
909.6419, 21.57556
910.1240, 21.66574
910.6061, 21.63676
911.0883, 21.55650
911.5704, 21.35885
912.0525, 21.24029
912.5346, 21.72103
913.0167, 22.44934
913.4988, 22.66226
913.9810, 21.40036
914.4631, 20.47407
914.9452, 20.36262
915.4273, 20.68959
915.9094, 20.97467
916.3915, 21.21821
916.8737, 21.40843
917.3558, 21.56521
917.8379, 21.56811
918.3200, 21.09571
918.8021, 20.45509
919.2842, 20.11349
919.7664, 20.21301
920.2485, 20.37173
920.7306, 20.40307
921.2127, 20.53108
921.6948, 21.01029
922.1769, 21.91095
922.6591, 21.97263
923.1412, 21.11185
923.6233, 20.23763
924.1054, 19.90515
924.5875, 19.98695
925.0696, 20.52042
925.5518, 21.37619
926.0339, 21.90401
926.5160, 21.55741
926.9981, 21.14708
927.4802, 20.90193
927.9623, 20.80626
928.4445, 20.82750
928.9266, 20.97299
929.4087, 21.16536
929.8908, 21.42247
930.3729, 21.63615
930.8550, 21.60933
931.3372, 21.44668
931.8193, 21.33541
932.3014, 21.35268
932.7835, 21.39302
933.2656, 21.60184
933.7477, 21.69361
934.2299, 21.23394
934.7120, 20.08567
935.1941, 19.90974
935.6762, 20.89143
936.1583, 21.93782
936.6404, 21.96913
937.1226, 21.48075
937.6047, 21.00432
938.0868, 20.59654
938.5689, 20.47641
939.0510, 21.16962
939.5331, 21.66439
940.0153, 21.43901
940.4974, 20.65234
940.9795, 20.51143
941.4616, 21.02745
941.9437, 21.37779
942.4258, 21.05842
942.9080, 20.52165
943.3901, 20.21593
943.8722, 20.12128
944.3543, 20.19473
944.8364, 20.72519
945.3185, 20.99776
945.8007, 20.70602
946.2828, 20.31294
946.7649, 20.56236
947.2470, 21.42913
947.7291, 21.89871
948.2112, 21.81577
948.6934, 21.49543
949.1755, 20.98334
949.6576, 20.54151
950.1397, 20.55637
950.6218, 21.20634
951.1039, 21.46362
951.5861, 20.88307
952.0682, 20.35654
952.5503, 20.35785
953.0324, 20.80193
953.5145, 21.16127
953.9966, 21.42860
954.4788, 21.54080
954.9609, 21.36007
955.4430, 21.10408
955.9251, 20.84951
956.4072, 20.65882
956.8893, 20.71634
957.3715, 21.37146
957.8536, 21.66722
958.3357, 21.32659
958.8178, 20.80738
959.2999, 20.94211
959.7820, 21.56486
960.2642, 21.92457
960.7463, 21.87330
961.2284, 21.59962
961.7105, 20.89885
962.1926, 20.26681
962.6747, 20.20005
963.1569, 20.87928
963.6390, 21.43720
964.1211, 21.89503
964.6032, 22.18386
965.0853, 22.18023
965.5674, 21.99261
966.0496, 21.94761
966.5317, 22.01307
967.0138, 22.03202
967.4959, 21.78844
967.9780, 21.61909
968.4601, 21.80457
968.9423, 22.15990
969.4244, 22.22974
969.9065, 21.91269
970.3886, 21.78362
970.8707, 22.00926
971.3528, 22.24451
971.8350, 21.87501
972.3171, 21.22769
972.7992, 20.92618
973.2813, 21.16471
973.7634, 21.38201
974.2455, 21.39087
974.7277, 21.28621
975.2098, 21.05956
975.6919, 20.70529
976.1740, 20.73455
976.6561, 21.16188
977.1382, 21.65389
977.6204, 22.17948
978.1025, 22.53550
978.5846, 22.32427
979.0667, 21.73273
979.5488, 21.30941
980.0309, 21.28827
980.5131, 21.39719
980.9952, 21.68016
981.4773, 21.97825
981.9594, 21.99996
982.4415, 21.77602
982.9236, 21.54570
983.4058, 21.34687
983.8879, 21.19278
984.3700, 21.12006
984.8521, 21.08176
985.3342, 21.02528
985.8163, 20.92927
986.2985, 20.90957
986.7806, 20.98689
987.2627, 21.09989
987.7448, 21.27177
988.2269, 21.43448
988.7090, 21.32588
989.1912, 21.00386
989.6733, 20.70940
990.1554, 20.44748
990.6375, 20.36860
991.1196, 20.69130
991.6017, 21.19666
992.0839, 21.53466
992.5660, 21.72552
993.0481, 21.58362
993.5302, 20.99769
994.0123, 20.43929
994.4944, 20.53722
994.9766, 20.97209
995.4587, 21.30413
995.9408, 21.47515
996.4229, 21.47644
996.9050, 21.13276
997.3871, 20.79229
997.8693, 20.58862
998.3514, 20.51178
998.8335, 20.57477
999.3156, 20.76327
999.7977, 20.81057
1000.280, 20.47550
1000.762, 20.11744
1001.244, 19.99029
1001.726, 20.09419
1002.208, 20.44461
1002.690, 21.54631
1003.173, 21.96128
1003.655, 21.40968
1004.137, 20.64415
1004.619, 20.45034
1005.101, 20.68608
1005.583, 20.89696
1006.065, 21.05314
1006.547, 21.16434
1007.029, 21.19181
1007.512, 21.21911
1007.994, 21.36469
1008.476, 21.56402
1008.958, 21.46932
1009.440, 21.01683
1009.922, 20.67038
1010.404, 20.59207
1010.886, 20.63270
1011.369, 20.56951
1011.851, 20.48287
1012.333, 20.50899
1012.815, 20.70228
1013.297, 20.97847
1013.779, 21.48513
1014.261, 21.87455
1014.743, 21.84046
1015.225, 21.41159
1015.708, 21.15355
1016.190, 21.05952
1016.672, 21.01641
1017.154, 20.90207
1017.636, 20.85692
1018.118, 21.10857
1018.600, 21.51482
1019.082, 21.59752
1019.565, 21.18703
1020.047, 20.85096
1020.529, 20.67795
1021.011, 20.60852
1021.493, 20.55961
1021.975, 20.54969
1022.457, 20.62847
1022.939, 20.81154
1023.421, 21.01552
1023.904, 21.36656
1024.386, 21.55252
1024.868, 21.33241
1025.350, 20.78108
1025.832, 20.60347
1026.314, 20.79711
1026.796, 21.16610
1027.278, 21.82302
1027.760, 22.34834
1028.243, 22.10538
1028.725, 21.50812
1029.207, 21.25809
1029.689, 22.03607
1030.171, 22.17517
1030.653, 21.42675
1031.135, 20.51403
1031.617, 20.03731
1032.100, 19.98196
1032.582, 20.47119
1033.064, 21.44500
1033.546, 22.17259
1034.028, 22.05190
1034.510, 21.82015
1034.992, 21.86176
1035.474, 22.05339
1035.957, 22.00936
1036.439, 21.71479
1036.921, 21.43778
1037.403, 21.23869
1037.885, 21.08178
1038.367, 20.91034
1038.849, 20.76699
1039.331, 20.72902
1039.813, 20.85379
1040.296, 20.86919
1040.778, 20.65631
1041.260, 20.54850
1041.742, 20.81114
1042.224, 21.29151
1042.706, 21.41997
1043.188, 21.28069
1043.670, 21.20834
1044.152, 21.38144
1044.635, 21.63360
1045.117, 22.07665
1045.599, 22.45838
1046.081, 22.39132
1046.563, 21.78596
1047.045, 21.49713
1047.527, 21.60729
1048.009, 21.70974
1048.492, 21.30210
1048.974, 20.79911
1049.456, 20.71693
1049.938, 21.03285
1050.420, 21.10949
1050.902, 20.68400
1051.384, 20.42581
1051.866, 20.55252
1052.349, 20.84888
1052.831, 20.81363
1053.313, 20.61385
1053.795, 20.80370
1054.277, 21.68148
1054.759, 22.25736
1055.241, 21.73608
1055.723, 21.04972
1056.205, 20.84650
1056.688, 21.10810
1057.170, 21.07838
1057.652, 20.75633
1058.134, 20.37803
1058.616, 19.90226
1059.098, 19.60223
1059.580, 19.93509
1060.062, 20.57779
1060.544, 20.90905
1061.027, 20.63172
1061.509, 20.48579
1061.991, 20.52701
1062.473, 20.62159
1062.955, 20.62196
1063.437, 20.58579
1063.919, 20.68965
1064.401, 20.91257
1064.884, 21.01130
1065.366, 20.70598
1065.848, 20.46481
1066.330, 20.43294
1066.812, 20.55333
1067.294, 20.70950
1067.776, 20.90287
1068.258, 21.23074
1068.740, 21.77495
1069.223, 22.08754
1069.705, 21.54186
1070.187, 20.80903
1070.669, 20.49986
1071.151, 20.66631
1071.633, 20.73266
1072.115, 20.68332
1072.597, 20.60240
1073.079, 20.47233
1073.562, 20.40364
1074.044, 20.67378
1074.526, 21.10296
1075.008, 21.36411
1075.490, 21.33962
1075.972, 21.14059
1076.454, 20.64894
1076.936, 20.21590
1077.419, 20.14191
1077.901, 20.36608
1078.383, 20.67691
1078.865, 21.04312
1079.347, 21.26836
1079.829, 21.25376
1080.311, 21.06388
1080.793, 20.55304
1081.275, 19.96049
1081.758, 19.66526
1082.240, 19.67649
1082.722, 19.80172
1083.204, 20.02929
1083.686, 20.26188
1084.168, 20.44749
1084.650, 20.57783
1085.132, 20.71029
1085.615, 20.82143
1086.097, 20.54444
1086.579, 19.68300
1087.061, 19.02143
1087.543, 18.78341
1088.025, 18.86240
1088.507, 19.28015
1088.989, 19.84318
1089.471, 20.20471
1089.953, 20.26695
1090.436, 20.18618
1090.918, 19.72597
1091.400, 19.51196
1091.882, 20.00825
1092.364, 20.99217
1092.846, 21.46254
1093.328, 21.47901
1093.810, 21.33996
1094.293, 21.05517
1094.775, 20.81679
1095.257, 20.79103
1095.739, 20.80493
1096.221, 20.67503
1096.703, 20.38771
1097.185, 19.98991
1097.667, 19.47153
1098.150, 19.16899
1098.632, 19.59291
1099.114, 20.11551
1099.596, 20.08507
1100.078, 19.70472
1100.560, 19.71188
1101.042, 20.37296
1101.524, 20.70536
1102.006, 20.52990
1102.489, 20.18912
1102.971, 19.97556
1103.453, 19.89926
1103.935, 20.08692
1104.417, 20.53095
1104.899, 20.67794
1105.381, 20.09499
1105.863, 19.64939
1106.345, 19.57685
1106.828, 19.75888
1107.310, 20.05090
1107.792, 20.38535
1108.274, 20.54130
1108.756, 20.45395
1109.238, 20.25951
1109.720, 19.79733
1110.202, 19.48680
1110.685, 19.65377
1111.167, 20.19636
1111.649, 20.30611
1112.131, 20.02116
1112.613, 19.70343
1113.095, 19.42469
1113.577, 19.31223
1114.059, 19.53777
1114.542, 19.94342
1115.024, 20.35846
1115.506, 20.80662
1115.988, 21.19665
1116.470, 21.56227
1116.952, 21.52879
1117.434, 20.41534
1117.916, 19.11976
1118.398, 18.62041
1118.880, 18.71301
1119.363, 18.90407
1119.845, 19.20412
1120.327, 19.42306
1120.809, 19.56219
1121.291, 19.57215
1121.773, 19.28175
1122.255, 18.88419
1122.737, 18.75843
1123.220, 18.87967
1123.702, 18.94783
1124.184, 18.57643
1124.666, 18.59764
1125.148, 19.36836
1125.630, 20.28554
1126.112, 20.25393
1126.594, 19.57444
1127.077, 19.14900
1127.559, 19.10679
1128.041, 19.22025
1128.523, 19.60241
1129.005, 19.85284
1129.487, 19.72300
1129.969, 19.37947
1130.451, 19.43758
1130.933, 19.81668
1131.416, 19.82919
1131.898, 19.17118
1132.380, 18.62938
1132.862, 18.83682
1133.344, 19.29542
1133.826, 19.62269
1134.308, 19.81542
1134.790, 20.08457
1135.272, 20.43725
1135.755, 20.54672
1136.237, 20.19363
1136.719, 19.70439
1137.201, 19.28069
1137.683, 18.95800
1138.165, 18.82507
1138.647, 18.95830
1139.129, 18.87083
1139.612, 18.50591
1140.094, 18.29902
1140.576, 18.61007
1141.058, 19.16095
1141.540, 19.82881
1142.022, 20.42541
1142.504, 20.53210
1142.986, 19.64419
1143.469, 19.08037
1143.951, 18.88090
1144.433, 18.96438
1144.915, 19.50449
1145.397, 20.15743
1145.879, 20.18758
1146.361, 19.73425
1146.843, 19.43833
1147.325, 19.75146
1147.807, 19.83784
1148.290, 19.44985
1148.772, 19.07380
1149.254, 19.58879
1149.736, 20.52475
1150.218, 20.49818
1150.700, 19.50205
1151.182, 18.74075
1151.664, 18.88340
1152.147, 19.17411
1152.629, 19.43916
1153.111, 19.67351
1153.593, 19.96494
1154.075, 20.22232
1154.557, 19.90734
1155.039, 18.88871
1155.521, 18.27370
1156.004, 19.23090
1156.486, 20.12709
1156.968, 20.15948
1157.450, 19.58627
1157.932, 19.10084
1158.414, 18.72380
1158.896, 18.64963
1159.378, 18.98537
1159.860, 19.33108
1160.343, 19.37686
1160.825, 19.37751
1161.307, 19.55000
1161.789, 19.85414
1162.271, 19.92413
1162.753, 19.77221
1163.235, 19.69818
1163.717, 19.86228
1164.199, 20.00062
1164.682, 19.88629
1165.164, 19.64486
1165.646, 19.35563
1166.128, 19.00998
1166.610, 18.97175
1167.092, 19.25797
1167.574, 19.37523
1168.056, 18.93739
1168.539, 18.44145
1169.021, 18.31050
1169.503, 18.41237
1169.985, 18.56895
1170.467, 18.73880
1170.949, 19.12136
1171.431, 19.75712
1171.913, 20.21777
1172.396, 20.21239
1172.878, 19.90393
1173.360, 19.17911
1173.842, 18.35004
1174.324, 18.04592
1174.806, 18.45204
1175.288, 19.04480
1175.770, 19.89308
1176.252, 20.49220
1176.734, 20.26921
1177.217, 19.70178
1177.699, 19.20573
1178.181, 18.86063
1178.663, 18.92207
1179.145, 19.72843
1179.627, 20.13745
1180.109, 20.01092
1180.591, 19.71169
1181.074, 19.59191
1181.556, 19.51320
1182.038, 19.13913
1182.520, 18.58844
1183.002, 18.51065
1183.484, 19.41670
1183.966, 19.84470
1184.448, 19.49873
1184.931, 19.00401
1185.413, 19.20747
1185.895, 19.66558
1186.377, 19.58704
1186.859, 18.99747
1187.341, 18.58571
1187.823, 18.55135
1188.305, 18.53904
1188.787, 18.43705
1189.270, 18.45054
1189.752, 19.04882
1190.234, 19.87692
1190.716, 20.31845
1191.198, 20.31685
1191.680, 20.25304
1192.162, 20.30239
1192.644, 20.08183
1193.126, 19.37045
1193.609, 18.60482
1194.091, 18.62691
1194.573, 19.06065
1195.055, 19.16940
1195.537, 18.82278
1196.019, 18.67278
1196.501, 19.03019
1196.983, 19.29363
1197.466, 19.28691
1197.948, 19.08972
1198.430, 18.70955
1198.912, 18.28995
1199.394, 18.12315
1199.876, 18.28067
1200.358, 18.58596
1200.840, 19.07744
1201.323, 19.59497
1201.805, 20.17546
1202.287, 20.61656
1202.769, 20.31215
1203.251, 19.58352
1203.733, 19.13753
1204.215, 19.19846
1204.697, 19.20391
1205.179, 19.02111
1205.661, 18.82651
1206.144, 18.68251
1206.626, 18.59455
1207.108, 18.53179
1207.590, 18.54580
1208.072, 18.77640
1208.554, 19.33552
1209.036, 19.85806
1209.518, 20.34351
1210.001, 20.68195
1210.483, 20.82478
1210.965, 20.77031
1211.447, 20.34518
1211.929, 19.75040
1212.411, 19.43046
1212.893, 19.62871
1213.375, 19.83064
1213.858, 20.07932
1214.340, 20.09913
1214.822, 19.62526
1215.304, 18.89688
1215.786, 18.29982
1216.268, 17.93683
1216.750, 18.11691
1217.232, 19.45143
1217.714, 20.14783
1218.197, 19.88169
1218.679, 19.42602
1219.161, 19.23769
1219.643, 19.22412
1220.125, 19.26032
1220.607, 19.29492
1221.089, 19.19479
1221.571, 18.61753
1222.053, 18.55701
1222.536, 19.27656
1223.018, 19.93464
1223.500, 19.92294
1223.982, 19.50143
1224.464, 19.00614
1224.946, 18.53229
1225.428, 18.29592
1225.910, 18.40755
1226.393, 18.75841
1226.875, 19.44742
1227.357, 20.05481
1227.839, 20.34092
1228.321, 20.30314
1228.803, 19.70138
1229.285, 18.81176
1229.767, 18.27058
1230.250, 18.28309
1230.732, 18.64118
1231.214, 19.48336
1231.696, 20.13174
1232.178, 19.77606
1232.660, 19.12518
1233.142, 19.31709
1233.624, 19.96046
1234.106, 20.08506
1234.589, 19.23162
1235.071, 18.73824
1235.553, 18.67565
1236.035, 18.75852
1236.517, 18.73998
1236.999, 18.77043
1237.481, 19.16349
1237.963, 19.70938
1238.445, 19.91179
1238.928, 19.65259
1239.410, 19.33509
1239.892, 18.94171
1240.374, 18.74115
1240.856, 19.16573
1241.338, 19.66274
1241.820, 19.60735
1242.302, 19.28963
1242.785, 19.37479
1243.267, 20.03517
1243.749, 20.23101
1244.231, 19.90455
1244.713, 19.57158
1245.195, 19.65759
1245.677, 19.82706
1246.159, 19.89325
1246.641, 19.83744
1247.124, 19.60457
1247.606, 19.15705
1248.088, 19.00780
1248.570, 19.17678
1249.052, 19.41664
1249.534, 19.73611
1250.016, 19.88865
1250.498, 19.55090
1250.980, 19.05935
1251.463, 18.89124
1251.945, 19.03960
1252.427, 18.92505
1252.909, 18.55924
1253.391, 18.34726
1253.873, 18.64179
1254.355, 19.02752
1254.837, 19.46960
1255.320, 19.78661
1255.802, 19.67182
1256.284, 19.21674
1256.766, 18.97302
1257.248, 18.95652
1257.730, 19.09458
1258.212, 19.48393
1258.694, 19.86525
1259.177, 20.32349
1259.659, 20.53800
1260.141, 19.85102
1260.623, 18.68060
1261.105, 18.65409
1261.587, 19.56087
1262.069, 20.15629
1262.551, 19.63535
1263.033, 19.15382
1263.516, 18.80467
1263.998, 18.65172
1264.480, 18.93368
1264.962, 19.37693
1265.444, 19.30482
1265.926, 18.86825
1266.408, 18.67727
1266.890, 19.17926
1267.372, 19.38538
1267.855, 19.18760
1268.337, 18.87823
1268.819, 18.69279
1269.301, 18.56049
1269.783, 18.24311
1270.265, 17.91106
1270.747, 18.12063
1271.229, 19.24833
1271.712, 19.72721
1272.194, 19.41766
1272.676, 19.00980
1273.158, 19.07871
1273.640, 19.25863
1274.122, 19.12023
1274.604, 18.88065
1275.086, 19.03538
1275.568, 19.73551
1276.051, 19.70773
1276.533, 18.91118
1277.015, 18.39932
1277.497, 19.27188
1277.979, 20.18677
1278.461, 20.31619
1278.943, 20.00781
1279.425, 19.64936
1279.907, 19.24142
1280.390, 18.99535
1280.872, 18.89621
1281.354, 18.79583
1281.836, 18.58458
1282.318, 18.39343
1282.800, 18.21005
1283.282, 18.13133
1283.764, 18.27761
1284.247, 18.60888
1284.729, 18.98154
1285.211, 19.35672
1285.693, 19.58782
1286.175, 19.48242
1286.657, 19.46142
1287.139, 19.74148
1287.621, 19.77165
1288.104, 18.77334
1288.586, 17.42982
1289.068, 17.32167
1289.550, 18.00235
1290.032, 18.42817
1290.514, 18.01415
1290.996, 17.96815
1291.478, 18.35589
1291.960, 18.84886
1292.443, 19.35203
1292.925, 19.73291
1293.407, 19.75306
1293.889, 19.56876
1294.371, 19.44314
1294.853, 19.42975
1295.335, 19.23363
1295.817, 18.84614
1296.299, 18.56941
1296.782, 18.57457
1297.264, 18.71930
1297.746, 19.00112
1298.228, 19.28670
1298.710, 19.41026
1299.192, 19.39197
1299.674, 19.71812
1300.156, 20.29395
1300.639, 20.50416
1301.121, 19.98082
1301.603, 19.33345
1302.085, 18.51862
1302.567, 18.02551
1303.049, 18.08837
1303.531, 18.70454
##END=



