##NAMES=Retgersite
##RRUFFID=R070665
##IDEAL CHEMISTRY=Ni^2+^S^6+^O_4_&#183;6H_2_O
##LOCALITY=Lovelock mine, Bolivia, Cottonwood Canyon, Table Mountain District, Churchill County, Nevada, USA
##OWNER=RRUFF
##SOURCE=Michael Scott
##DESCRIPTION=Blue-green crystalline coating on rock
##STATUS=The identification of this mineral has been confirmed by single-crystal X-ray diffraction.
##URL=rruff.info/R070665
117.3850, 4005.738
117.8671, 3980.397
118.3492, 3943.662
118.8313, 3914.568
119.3134, 3897.567
119.7955, 3891.442
120.2777, 3893.522
120.7598, 3904.433
121.2419, 3918.283
121.7240, 3933.312
122.2061, 3949.904
122.6882, 3960.013
123.1704, 3959.937
123.6525, 3951.866
124.1346, 3932.434
124.6167, 3897.118
125.0988, 3859.999
125.5809, 3850.625
126.0631, 3888.422
126.5452, 3919.314
127.0273, 3927.492
127.5094, 3922.125
127.9915, 3913.143
128.4736, 3905.542
128.9558, 3899.653
129.4379, 3899.061
129.9200, 3906.036
130.4021, 3916.841
130.8842, 3936.259
131.3663, 3960.006
131.8485, 3977.454
132.3306, 3975.804
132.8127, 3867.705
133.2948, 3956.450
133.7769, 4003.496
134.2590, 4011.083
134.7412, 3861.026
135.2233, 3914.533
135.7054, 3886.462
136.1875, 3855.045
136.6696, 3937.203
137.1517, 3810.076
137.6339, 3890.431
138.1160, 3887.964
138.5981, 3891.680
139.0802, 3875.584
139.5623, 3839.527
140.0444, 3816.448
140.5266, 3810.994
141.0087, 3803.913
141.4908, 3782.634
141.9729, 3751.238
142.4550, 3727.653
142.9371, 3725.095
143.4193, 3732.857
143.9014, 3729.753
144.3835, 3710.853
144.8656, 3685.957
145.3477, 3661.469
145.8298, 3636.006
146.3120, 3619.287
146.7941, 3623.929
147.2762, 3638.773
147.7583, 3652.120
148.2404, 3660.208
148.7225, 3663.751
149.2047, 3663.998
149.6868, 3659.000
150.1689, 3653.676
150.6510, 3651.395
151.1331, 3650.332
151.6152, 3646.948
152.0974, 3637.425
152.5795, 3621.807
153.0616, 3610.670
153.5437, 3605.693
154.0258, 3604.252
154.5080, 3608.295
154.9901, 3616.077
155.4722, 3622.890
155.9543, 3623.778
156.4364, 3617.438
156.9185, 3608.708
157.4007, 3594.225
157.8828, 3580.243
158.3649, 3570.796
158.8470, 3566.462
159.3291, 3564.521
159.8112, 3560.333
160.2934, 3547.527
160.7755, 3543.284
161.2576, 3557.727
161.7397, 3575.806
162.2218, 3581.843
162.7039, 3569.670
163.1861, 3546.201
163.6682, 3528.746
164.1503, 3518.637
164.6324, 3512.027
165.1145, 3510.829
165.5966, 3512.596
166.0788, 3512.471
166.5609, 3507.519
167.0430, 3499.498
167.5251, 3495.353
168.0072, 3490.314
168.4893, 3492.819
168.9715, 3515.782
169.4536, 3554.263
169.9357, 3581.830
170.4178, 3579.087
170.8999, 3551.469
171.3820, 3525.537
171.8642, 3497.654
172.3463, 3474.736
172.8284, 3466.315
173.3105, 3474.145
173.7926, 3483.307
174.2747, 3482.019
174.7569, 3474.667
175.2390, 3468.761
175.7211, 3466.840
176.2032, 3467.797
176.6853, 3470.365
177.1674, 3476.488
177.6496, 3479.983
178.1317, 3471.198
178.6138, 3456.339
179.0959, 3450.288
179.5780, 3466.356
180.0602, 3500.888
180.5423, 3530.328
181.0244, 3556.398
181.5065, 3573.691
181.9886, 3575.699
182.4707, 3565.907
182.9529, 3556.131
183.4350, 3555.160
183.9171, 3563.230
184.3992, 3577.812
184.8813, 3608.957
185.3634, 3639.260
185.8456, 3662.301
186.3277, 3677.341
186.8098, 3686.452
187.2919, 3690.080
187.7740, 3683.471
188.2561, 3685.489
188.7383, 3701.469
189.2204, 3721.574
189.7025, 3737.850
190.1846, 3749.396
190.6667, 3763.133
191.1488, 3791.561
191.6310, 3847.104
192.1131, 3896.752
192.5952, 3941.357
193.0773, 3979.492
193.5594, 4007.504
194.0415, 4024.388
194.5237, 4036.143
195.0058, 4056.432
195.4879, 4090.750
195.9700, 4128.372
196.4521, 4174.655
196.9342, 4222.492
197.4164, 4262.329
197.8985, 4289.446
198.3806, 4308.486
198.8627, 4335.409
199.3448, 4376.154
199.8270, 4417.240
200.3091, 4459.896
200.7912, 4500.969
201.2733, 4534.900
201.7554, 4558.188
202.2375, 4572.518
202.7197, 4586.877
203.2018, 4597.379
203.6839, 4611.709
204.1660, 4637.104
204.6481, 4669.773
205.1302, 4698.673
205.6124, 4719.466
206.0945, 4729.767
206.5766, 4724.478
207.0587, 4696.127
207.5408, 4660.313
208.0229, 4625.418
208.5051, 4591.252
208.9872, 4553.590
209.4693, 4508.261
209.9514, 4457.003
210.4335, 4408.523
210.9156, 4362.440
211.3978, 4319.420
211.8799, 4281.755
212.3620, 4249.753
212.8441, 4216.251
213.3262, 4172.112
213.8083, 4122.492
214.2905, 4082.873
214.7726, 4061.744
215.2547, 4049.289
215.7368, 4034.523
216.2189, 4017.469
216.7010, 3997.127
217.1832, 3966.846
217.6653, 3932.508
218.1474, 3906.522
218.6295, 3897.148
219.1116, 3897.857
219.5937, 3895.429
220.0759, 3886.592
220.5580, 3882.371
221.0401, 3893.939
221.5222, 3915.154
222.0043, 3933.718
222.4864, 3944.719
222.9686, 3948.765
223.4507, 3944.849
223.9328, 3922.746
224.4149, 3910.626
224.8970, 3928.611
225.3791, 3967.660
225.8613, 4007.154
226.3434, 4036.269
226.8255, 4055.851
227.3076, 4068.919
227.7897, 4066.999
228.2718, 4069.755
228.7540, 4087.914
229.2361, 4118.106
229.7182, 4151.535
230.2003, 4186.000
230.6824, 4220.847
231.1645, 4241.829
231.6467, 4234.701
232.1288, 4227.764
232.6109, 4234.552
233.0930, 4252.238
233.5751, 4270.823
234.0572, 4280.458
234.5394, 4280.608
235.0215, 4288.845
235.5036, 4313.521
235.9857, 4339.362
236.4678, 4362.026
236.9500, 4381.011
237.4321, 4396.629
237.9142, 4408.663
238.3963, 4416.750
238.8784, 4424.867
239.3605, 4433.726
239.8427, 4442.061
240.3248, 4452.771
240.8069, 4463.546
241.2890, 4467.286
241.7711, 4454.308
242.2532, 4419.927
242.7354, 4396.953
243.2175, 4395.053
243.6996, 4396.061
244.1817, 4392.210
244.6638, 4383.946
245.1459, 4376.910
245.6281, 4378.121
246.1102, 4390.869
246.5923, 4395.383
247.0744, 4393.902
247.5565, 4383.054
248.0386, 4356.749
248.5208, 4317.635
249.0029, 4275.090
249.4850, 4237.090
249.9671, 4201.034
250.4492, 4182.128
250.9313, 4196.906
251.4135, 4212.537
251.8956, 4213.148
252.3777, 4198.542
252.8598, 4178.163
253.3419, 4161.403
253.8240, 4148.234
254.3062, 4139.426
254.7883, 4148.064
255.2704, 4149.519
255.7525, 4125.554
256.2346, 4079.132
256.7167, 4029.806
257.1989, 3999.094
257.6810, 3993.793
258.1631, 3978.232
258.6452, 3935.878
259.1273, 3899.143
259.6094, 3895.204
260.0916, 3918.424
260.5737, 3935.796
261.0558, 3909.561
261.5379, 3822.540
262.0200, 3768.287
262.5021, 3771.836
262.9843, 3779.168
263.4664, 3755.580
263.9485, 3704.553
264.4306, 3656.943
264.9127, 3645.874
265.3948, 3682.097
265.8770, 3700.664
266.3591, 3703.144
266.8412, 3690.914
267.3233, 3659.552
267.8054, 3612.337
268.2875, 3559.219
268.7697, 3508.655
269.2518, 3460.230
269.7339, 3418.767
270.2160, 3381.047
270.6981, 3351.335
271.1802, 3338.184
271.6624, 3337.207
272.1445, 3331.628
272.6266, 3304.160
273.1087, 3249.409
273.5908, 3218.709
274.0729, 3229.427
274.5551, 3242.327
275.0372, 3239.876
275.5193, 3222.811
276.0014, 3199.745
276.4835, 3177.044
276.9656, 3154.167
277.4478, 3137.686
277.9299, 3129.774
278.4120, 3124.512
278.8941, 3119.581
279.3762, 3115.113
279.8583, 3112.970
280.3405, 3115.463
280.8226, 3122.843
281.3047, 3120.608
281.7868, 3098.902
282.2689, 3079.406
282.7510, 3073.157
283.2332, 3076.140
283.7153, 3076.110
284.1974, 3063.190
284.6795, 3038.653
285.1616, 3030.947
285.6437, 3057.532
286.1259, 3079.964
286.6080, 3086.386
287.0901, 3079.646
287.5722, 3065.373
288.0543, 3045.547
288.5364, 3022.302
289.0186, 3013.880
289.5007, 3041.264
289.9828, 3059.061
290.4649, 3049.731
290.9470, 3024.052
291.4291, 2999.580
291.9113, 2985.386
292.3934, 2981.528
292.8755, 2989.218
293.3576, 3029.492
293.8397, 3056.864
294.3218, 3059.773
294.8040, 3046.432
295.2861, 3026.291
295.7682, 3003.245
296.2503, 2980.422
296.7325, 2967.920
297.2146, 2976.833
297.6967, 2983.660
298.1788, 2988.540
298.6609, 2989.834
299.1430, 2983.822
299.6252, 2968.942
300.1073, 2950.400
300.5894, 2940.318
301.0715, 2951.854
301.5536, 2955.165
302.0357, 2944.792
302.5179, 2928.563
303.0000, 2912.536
303.4821, 2899.020
303.9642, 2888.833
304.4463, 2884.173
304.9284, 2891.875
305.4106, 2894.052
305.8927, 2883.818
306.3748, 2872.886
306.8569, 2871.255
307.3390, 2880.825
307.8211, 2895.645
308.3033, 2908.194
308.7854, 2921.704
309.2675, 2924.092
309.7496, 2909.353
310.2317, 2890.025
310.7138, 2870.971
311.1960, 2854.432
311.6781, 2843.125
312.1602, 2840.838
312.6423, 2850.143
313.1244, 2858.655
313.6065, 2869.512
314.0887, 2876.953
314.5708, 2873.902
315.0529, 2863.491
315.5350, 2857.062
316.0171, 2867.189
316.4992, 2896.542
316.9814, 2911.731
317.4635, 2899.382
317.9456, 2885.909
318.4277, 2880.547
318.9098, 2881.163
319.3919, 2880.167
319.8741, 2870.456
320.3562, 2853.356
320.8383, 2850.292
321.3204, 2882.857
321.8025, 2906.519
322.2846, 2908.122
322.7668, 2894.787
323.2489, 2876.689
323.7310, 2858.421
324.2131, 2842.148
324.6952, 2838.081
325.1773, 2858.494
325.6595, 2873.036
326.1416, 2872.195
326.6237, 2863.664
327.1058, 2855.048
327.5879, 2849.289
328.0700, 2847.338
328.5522, 2853.011
329.0343, 2873.031
329.5164, 2885.576
329.9985, 2882.446
330.4806, 2873.244
330.9627, 2864.204
331.4449, 2857.165
331.9270, 2853.770
332.4091, 2859.365
332.8912, 2878.377
333.3733, 2887.453
333.8554, 2872.049
334.3376, 2852.180
334.8197, 2838.537
335.3018, 2832.822
335.7839, 2832.157
336.2660, 2836.024
336.7481, 2844.727
337.2303, 2848.592
337.7124, 2839.056
338.1945, 2831.989
338.6766, 2842.800
339.1587, 2867.783
339.6408, 2884.884
340.1230, 2870.074
340.6051, 2831.048
341.0872, 2810.341
341.5693, 2816.976
342.0514, 2831.846
342.5335, 2847.808
343.0157, 2862.318
343.4978, 2867.996
343.9799, 2853.786
344.4620, 2829.845
344.9441, 2817.048
345.4262, 2816.033
345.9084, 2824.121
346.3905, 2853.062
346.8726, 2888.642
347.3547, 2905.458
347.8368, 2883.778
348.3189, 2852.659
348.8011, 2847.865
349.2832, 2869.975
349.7653, 2889.237
350.2474, 2887.518
350.7295, 2875.162
351.2116, 2873.359
351.6938, 2889.189
352.1759, 2905.160
352.6580, 2908.626
353.1401, 2902.000
353.6222, 2894.354
354.1043, 2886.566
354.5865, 2882.730
355.0686, 2892.295
355.5507, 2920.024
356.0328, 2942.532
356.5149, 2947.121
356.9970, 2941.917
357.4792, 2940.369
357.9613, 2945.810
358.4434, 2956.068
358.9255, 2969.581
359.4076, 2987.443
359.8897, 3002.466
360.3719, 3013.749
360.8540, 3022.050
361.3361, 3026.990
361.8182, 3028.880
362.3003, 3030.445
362.7824, 3033.881
363.2646, 3039.355
363.7467, 3047.526
364.2288, 3058.515
364.7109, 3071.831
365.1930, 3086.057
365.6751, 3102.122
366.1573, 3123.591
366.6394, 3153.623
367.1215, 3190.870
367.6036, 3222.800
368.0857, 3269.730
368.5678, 3288.850
369.0500, 3249.194
369.5321, 3181.011
370.0142, 3128.466
370.4963, 3112.158
370.9784, 3118.148
371.4605, 3110.896
371.9427, 3072.795
372.4248, 3047.577
372.9069, 3049.418
373.3890, 3056.643
373.8711, 3049.411
374.3532, 3023.782
374.8354, 2992.308
375.3175, 2970.837
375.7996, 2960.199
376.2817, 2957.738
376.7638, 2975.447
377.2459, 2990.808
377.7281, 2992.231
378.2102, 2980.632
378.6923, 2963.825
379.1744, 2947.132
379.6566, 2930.660
380.1387, 2916.645
380.6208, 2905.107
381.1029, 2896.416
381.5850, 2893.064
382.0671, 2892.055
382.5493, 2887.989
383.0314, 2877.073
383.5135, 2862.754
383.9956, 2852.095
384.4777, 2845.201
384.9598, 2841.596
385.4420, 2846.490
385.9241, 2852.252
386.4062, 2850.319
386.8883, 2837.273
387.3704, 2821.819
387.8525, 2813.003
388.3347, 2810.399
388.8168, 2805.279
389.2989, 2790.563
389.7810, 2777.889
390.2631, 2783.659
390.7452, 2809.399
391.2274, 2829.253
391.7095, 2826.497
392.1916, 2810.338
392.6737, 2797.065
393.1558, 2788.355
393.6379, 2786.988
394.1201, 2800.365
394.6022, 2826.911
395.0843, 2845.115
395.5664, 2847.361
396.0485, 2843.723
396.5306, 2840.699
397.0128, 2838.990
397.4949, 2839.834
397.9770, 2844.751
398.4591, 2852.869
398.9412, 2858.067
399.4233, 2854.115
399.9055, 2854.719
400.3876, 2869.269
400.8697, 2890.250
401.3518, 2904.861
401.8339, 2907.769
402.3160, 2903.173
402.7982, 2899.714
403.2803, 2897.504
403.7624, 2896.476
404.2445, 2894.176
404.7266, 2894.632
405.2087, 2903.681
405.6909, 2920.619
406.1730, 2937.403
406.6551, 2944.890
407.1372, 2941.966
407.6193, 2936.952
408.1014, 2922.318
408.5836, 2913.011
409.0657, 2916.004
409.5478, 2928.537
410.0299, 2944.402
410.5120, 2960.145
410.9941, 2975.746
411.4763, 2991.485
411.9584, 3009.279
412.4405, 3023.162
412.9226, 3031.247
413.4047, 3035.180
413.8868, 3035.540
414.3690, 3032.115
414.8511, 3028.140
415.3332, 3026.439
415.8153, 3026.896
416.2974, 3032.966
416.7795, 3051.600
417.2617, 3070.007
417.7438, 3074.407
418.2259, 3065.523
418.7080, 3060.382
419.1901, 3070.472
419.6722, 3090.304
420.1544, 3108.993
420.6365, 3125.695
421.1186, 3140.062
421.6007, 3152.127
422.0828, 3161.530
422.5649, 3166.940
423.0471, 3163.064
423.5292, 3159.440
424.0113, 3162.320
424.4934, 3171.264
424.9755, 3184.965
425.4576, 3204.442
425.9398, 3226.054
426.4219, 3238.165
426.9040, 3233.307
427.3861, 3232.269
427.8682, 3242.000
428.3503, 3255.804
428.8325, 3262.578
429.3146, 3260.655
429.7967, 3263.456
430.2788, 3290.363
430.7609, 3353.111
431.2430, 3397.323
431.7252, 3411.440
432.2073, 3421.809
432.6894, 3439.647
433.1715, 3464.419
433.6536, 3492.555
434.1357, 3523.094
434.6179, 3553.352
435.1000, 3568.379
435.5821, 3556.752
436.0642, 3546.769
436.5463, 3546.206
437.0284, 3549.359
437.5106, 3551.948
437.9927, 3552.807
438.4748, 3548.492
438.9569, 3531.696
439.4390, 3501.250
439.9211, 3476.201
440.4033, 3463.188
440.8854, 3452.899
441.3675, 3438.628
441.8496, 3420.666
442.3317, 3401.839
442.8138, 3378.749
443.2960, 3356.982
443.7781, 3348.778
444.2602, 3356.184
444.7423, 3367.357
445.2244, 3376.402
445.7065, 3383.100
446.1887, 3386.921
446.6708, 3380.744
447.1529, 3379.450
447.6350, 3395.528
448.1171, 3422.878
448.5992, 3446.646
449.0814, 3460.998
449.5635, 3469.784
450.0456, 3479.094
450.5277, 3485.039
451.0098, 3500.742
451.4919, 3533.632
451.9741, 3571.574
452.4562, 3604.743
452.9383, 3632.702
453.4204, 3661.999
453.9025, 3699.622
454.3846, 3745.604
454.8668, 3781.074
455.3489, 3793.228
455.8310, 3808.380
456.3131, 3831.319
456.7952, 3860.605
457.2773, 3895.546
457.7595, 3936.412
458.2416, 3977.624
458.7237, 4008.067
459.2058, 4024.052
459.6879, 4044.205
460.1700, 4074.054
460.6522, 4107.332
461.1343, 4145.821
461.6164, 4187.147
462.0985, 4216.974
462.5807, 4217.336
463.0628, 4199.521
463.5449, 4197.898
464.0270, 4219.472
464.5091, 4236.317
464.9912, 4228.404
465.4734, 4202.149
465.9555, 4173.097
466.4376, 4135.970
466.9197, 4104.565
467.4018, 4097.152
467.8839, 4103.229
468.3661, 4091.747
468.8482, 4049.838
469.3303, 3992.958
469.8124, 3947.670
470.2945, 3921.975
470.7766, 3886.445
471.2588, 3833.264
471.7409, 3774.867
472.2230, 3714.408
472.7051, 3656.177
473.1872, 3612.997
473.6693, 3598.402
474.1515, 3608.306
474.6336, 3592.891
475.1157, 3524.563
475.5978, 3463.366
476.0799, 3426.010
476.5620, 3397.885
477.0442, 3358.464
477.5263, 3301.213
478.0084, 3245.252
478.4905, 3221.364
478.9726, 3234.039
479.4547, 3233.754
479.9369, 3208.020
480.4190, 3174.882
480.9011, 3143.794
481.3832, 3115.254
481.8653, 3089.862
482.3474, 3068.069
482.8296, 3049.529
483.3117, 3034.909
483.7938, 3024.364
484.2759, 3012.779
484.7580, 2998.024
485.2401, 2980.198
485.7223, 2959.413
486.2044, 2931.941
486.6865, 2909.343
487.1686, 2897.603
487.6507, 2892.268
488.1328, 2889.055
488.6150, 2886.695
489.0971, 2881.724
489.5792, 2869.673
490.0613, 2849.089
490.5434, 2832.179
491.0255, 2820.145
491.5077, 2809.927
491.9898, 2801.420
492.4719, 2793.797
492.9540, 2785.196
493.4361, 2774.571
493.9182, 2764.230
494.4004, 2761.188
494.8825, 2771.578
495.3646, 2771.683
495.8467, 2743.863
496.3288, 2715.672
496.8109, 2705.997
497.2931, 2713.785
497.7752, 2722.198
498.2573, 2719.513
498.7394, 2708.905
499.2215, 2697.360
499.7036, 2683.793
500.1858, 2675.622
500.6679, 2684.355
501.1500, 2699.405
501.6321, 2695.622
502.1142, 2657.816
502.5963, 2624.778
503.0785, 2619.514
503.5606, 2631.425
504.0427, 2642.067
504.5248, 2646.631
505.0069, 2646.146
505.4890, 2641.141
505.9712, 2630.131
506.4533, 2621.677
506.9354, 2617.718
507.4175, 2614.084
507.8996, 2607.551
508.3817, 2600.044
508.8639, 2596.051
509.3460, 2598.160
509.8281, 2603.629
510.3102, 2605.134
510.7923, 2599.601
511.2744, 2598.125
511.7566, 2609.161
512.2387, 2619.321
512.7208, 2619.105
513.2029, 2608.998
513.6851, 2597.517
514.1672, 2590.500
514.6493, 2586.409
515.1314, 2580.636
515.6135, 2572.536
516.0956, 2539.545
516.5778, 2570.282
517.0599, 2587.120
517.5420, 2590.804
518.0241, 2541.941
518.5062, 2560.932
518.9883, 2552.730
519.4705, 2543.413
519.9526, 2571.954
520.4347, 2530.734
520.9168, 2558.675
521.3989, 2559.008
521.8810, 2571.976
522.3632, 2557.583
522.8453, 2551.642
523.3274, 2573.070
523.8095, 2579.344
524.2916, 2561.801
524.7737, 2575.573
525.2559, 2533.396
525.7380, 2540.315
526.2201, 2568.416
526.7022, 2552.250
527.1843, 2566.521
527.6664, 2569.201
528.1486, 2555.208
528.6307, 2554.025
529.1128, 2540.798
529.5949, 2527.420
530.0770, 2517.907
530.5591, 2512.455
531.0413, 2513.231
531.5234, 2519.943
532.0055, 2525.012
532.4876, 2525.047
532.9697, 2521.659
533.4518, 2517.340
533.9340, 2510.174
534.4161, 2507.662
534.8982, 2517.113
535.3803, 2528.041
535.8624, 2529.660
536.3445, 2522.116
536.8267, 2513.122
537.3088, 2508.403
537.7909, 2507.628
538.2730, 2507.903
538.7551, 2513.731
539.2372, 2514.069
539.7194, 2500.384
540.2015, 2484.828
540.6836, 2480.870
541.1657, 2490.507
541.6478, 2501.188
542.1299, 2499.243
542.6121, 2486.696
543.0942, 2478.280
543.5763, 2475.288
544.0584, 2474.943
544.5405, 2477.365
545.0226, 2480.964
545.5048, 2482.048
545.9869, 2475.801
546.4690, 2473.431
546.9511, 2487.111
547.4332, 2508.557
547.9153, 2519.567
548.3975, 2515.207
548.8796, 2505.070
549.3617, 2500.225
549.8438, 2501.871
550.3259, 2501.698
550.8080, 2494.871
551.2902, 2491.697
551.7723, 2501.222
552.2544, 2515.535
552.7365, 2521.214
553.2186, 2512.363
553.7007, 2497.360
554.1829, 2488.162
554.6650, 2484.472
555.1471, 2489.402
555.6292, 2511.148
556.1113, 2532.764
556.5934, 2541.707
557.0756, 2541.327
557.5577, 2543.117
558.0398, 2554.277
558.5219, 2566.880
559.0040, 2572.581
559.4861, 2572.386
559.9683, 2571.926
560.4504, 2574.067
560.9325, 2574.540
561.4146, 2565.316
561.8967, 2539.758
562.3788, 2523.149
562.8610, 2523.680
563.3431, 2526.131
563.8252, 2520.008
564.3073, 2508.093
564.7894, 2498.999
565.2715, 2497.811
565.7537, 2501.963
566.2358, 2505.284
566.7179, 2507.421
567.2000, 2509.756
567.6821, 2513.278
568.1642, 2516.410
568.6464, 2517.688
569.1285, 2517.456
569.6106, 2517.792
570.0927, 2519.325
570.5748, 2522.279
571.0569, 2528.857
571.5391, 2538.593
572.0212, 2543.630
572.5033, 2539.627
572.9854, 2530.293
573.4675, 2522.224
573.9496, 2513.088
574.4318, 2511.038
574.9139, 2526.433
575.3960, 2541.553
575.8781, 2539.023
576.3602, 2523.488
576.8423, 2513.945
577.3245, 2523.601
577.8066, 2545.651
578.2887, 2557.795
578.7708, 2555.820
579.2529, 2554.382
579.7350, 2553.527
580.2172, 2556.032
580.6993, 2565.824
581.1814, 2581.941
581.6635, 2596.960
582.1456, 2607.806
582.6277, 2614.516
583.1099, 2616.149
583.5920, 2612.904
584.0741, 2607.502
584.5562, 2599.564
585.0383, 2592.408
585.5204, 2594.081
586.0026, 2608.973
586.4847, 2621.540
586.9668, 2624.874
587.4489, 2629.937
587.9310, 2649.780
588.4131, 2679.326
588.8953, 2700.808
589.3774, 2702.090
589.8595, 2690.135
590.3416, 2685.453
590.8237, 2689.615
591.3058, 2696.488
591.7880, 2704.498
592.2701, 2715.527
592.7522, 2732.451
593.2343, 2754.466
593.7164, 2775.394
594.1985, 2794.988
594.6807, 2810.523
595.1628, 2814.527
595.6449, 2809.211
596.1270, 2811.567
596.6091, 2830.594
597.0912, 2856.771
597.5734, 2871.114
598.0555, 2863.660
598.5376, 2867.220
599.0197, 2889.653
599.5018, 2915.813
599.9839, 2938.415
600.4661, 2957.218
600.9482, 2975.152
601.4303, 2994.453
601.9124, 3010.223
602.3945, 3008.730
602.8766, 2985.504
603.3588, 2973.310
603.8409, 2983.138
604.3230, 2999.342
604.8051, 3008.594
605.2872, 3012.938
605.7693, 3021.727
606.2515, 3046.489
606.7336, 3069.195
607.2157, 3073.014
607.6978, 3062.810
608.1799, 3050.773
608.6620, 3040.704
609.1442, 3035.711
609.6263, 3042.212
610.1084, 3067.053
610.5905, 3074.548
611.0726, 3042.931
611.5547, 3018.960
612.0369, 3025.883
612.5190, 3049.090
613.0011, 3067.393
613.4832, 3073.403
613.9653, 3066.776
614.4474, 3041.675
614.9296, 3000.730
615.4117, 2966.126
615.8938, 2940.273
616.3759, 2922.782
616.8580, 2920.423
617.3401, 2927.158
617.8223, 2917.829
618.3044, 2873.789
618.7865, 2834.596
619.2686, 2818.181
619.7507, 2813.493
620.2328, 2808.506
620.7150, 2799.776
621.1971, 2786.035
621.6792, 2765.237
622.1613, 2737.962
622.6434, 2712.711
623.1255, 2688.334
623.6077, 2668.319
624.0898, 2655.916
624.5719, 2646.491
625.0540, 2636.623
625.5361, 2625.725
626.0182, 2612.011
626.5004, 2590.249
626.9825, 2566.528
627.4646, 2554.318
627.9467, 2553.275
628.4288, 2546.276
628.9109, 2521.810
629.3931, 2488.743
629.8752, 2470.303
630.3573, 2479.211
630.8394, 2482.130
631.3215, 2476.644
631.8036, 2467.261
632.2858, 2454.240
632.7679, 2439.780
633.2500, 2428.758
633.7321, 2424.574
634.2142, 2423.385
634.6964, 2417.046
635.1785, 2405.145
635.6606, 2397.037
636.1427, 2398.579
636.6248, 2398.671
637.1069, 2383.068
637.5891, 2355.299
638.0712, 2333.665
638.5533, 2320.084
639.0354, 2314.247
639.5175, 2322.262
639.9996, 2336.126
640.4818, 2339.974
640.9639, 2330.079
641.4460, 2319.715
641.9281, 2326.591
642.4102, 2351.838
642.8923, 2363.752
643.3745, 2355.226
643.8566, 2343.601
644.3387, 2333.966
644.8208, 2324.597
645.3029, 2313.129
645.7850, 2298.920
646.2672, 2285.304
646.7493, 2271.796
647.2314, 2261.275
647.7135, 2261.402
648.1956, 2271.602
648.6777, 2279.372
649.1599, 2277.062
649.6420, 2268.186
650.1241, 2262.616
650.6062, 2261.774
651.0883, 2262.163
651.5704, 2265.239
652.0526, 2268.197
652.5347, 2269.200
653.0168, 2268.702
653.4989, 2268.362
653.9810, 2269.322
654.4631, 2270.070
654.9453, 2266.955
655.4274, 2260.541
655.9095, 2258.947
656.3916, 2265.721
656.8737, 2272.574
657.3558, 2272.959
657.8380, 2266.434
658.3201, 2254.071
658.8022, 2220.409
659.2843, 2199.139
659.7664, 2213.458
660.2485, 2240.361
660.7307, 2251.430
661.2128, 2242.048
661.6949, 2228.167
662.1770, 2225.083
662.6591, 2230.579
663.1412, 2230.502
663.6234, 2222.528
664.1055, 2216.360
664.5876, 2215.990
665.0697, 2218.612
665.5518, 2220.754
666.0339, 2222.295
666.5161, 2224.850
666.9982, 2232.897
667.4803, 2238.837
667.9625, 2232.814
668.4446, 2219.413
668.9267, 2213.011
669.4088, 2219.879
669.8909, 2229.792
670.3730, 2224.114
670.8552, 2197.712
671.3373, 2182.082
671.8194, 2181.500
672.3015, 2186.869
672.7836, 2196.898
673.2657, 2209.093
673.7479, 2221.183
674.2300, 2234.220
674.7121, 2240.213
675.1942, 2228.423
675.6763, 2208.712
676.1584, 2196.432
676.6406, 2192.867
677.1227, 2193.913
677.6048, 2198.179
678.0869, 2202.616
678.5690, 2196.353
679.0511, 2167.735
679.5333, 2150.258
680.0154, 2148.452
680.4975, 2154.175
680.9796, 2170.034
681.4617, 2189.689
681.9438, 2197.596
682.4260, 2182.130
682.9081, 2162.755
683.3902, 2161.031
683.8723, 2172.717
684.3544, 2185.124
684.8365, 2196.062
685.3187, 2202.899
685.8008, 2202.661
686.2829, 2195.990
686.7650, 2190.682
687.2471, 2188.535
687.7292, 2185.431
688.2114, 2180.775
688.6935, 2175.133
689.1756, 2165.493
689.6577, 2154.267
690.1398, 2151.987
690.6219, 2172.645
691.1041, 2199.269
691.5862, 2199.493
692.0683, 2175.744
692.5504, 2155.224
693.0325, 2145.158
693.5146, 2142.409
693.9968, 2143.981
694.4789, 2150.109
694.9610, 2158.651
695.4431, 2178.148
695.9252, 2189.561
696.4073, 2180.269
696.8895, 2163.945
697.3716, 2156.443
697.8537, 2160.164
698.3358, 2165.397
698.8179, 2163.186
699.3000, 2156.405
699.7822, 2155.059
700.2643, 2159.657
700.7464, 2157.166
701.2285, 2140.394
701.7106, 2118.350
702.1927, 2102.897
702.6749, 2093.996
703.1570, 2093.834
703.6391, 2113.587
704.1212, 2129.930
704.6033, 2129.757
705.0854, 2121.165
705.5676, 2114.621
706.0497, 2113.577
706.5318, 2118.244
707.0139, 2134.356
707.4960, 2157.099
707.9781, 2162.349
708.4603, 2147.060
708.9424, 2135.751
709.4245, 2141.508
709.9066, 2154.592
710.3887, 2156.942
710.8708, 2144.790
711.3530, 2137.227
711.8351, 2141.353
712.3172, 2144.320
712.7993, 2137.085
713.2814, 2124.570
713.7635, 2114.418
714.2457, 2109.377
714.7278, 2109.905
715.2099, 2118.205
715.6920, 2132.938
716.1741, 2149.267
716.6563, 2168.794
717.1384, 2178.083
717.6205, 2167.333
718.1026, 2144.779
718.5847, 2126.265
719.0668, 2111.572
719.5490, 2101.273
720.0311, 2095.159
720.5132, 2093.772
720.9953, 2099.954
721.4774, 2110.414
721.9595, 2121.292
722.4417, 2131.075
722.9238, 2135.300
723.4059, 2123.636
723.8880, 2100.490
724.3701, 2090.832
724.8522, 2097.570
725.3344, 2106.341
725.8165, 2109.641
726.2986, 2110.284
726.7807, 2115.584
727.2628, 2132.266
727.7449, 2136.115
728.2271, 2111.990
728.7092, 2088.554
729.1913, 2084.620
729.6734, 2092.008
730.1555, 2093.239
730.6376, 2081.675
731.1198, 2070.063
731.6019, 2076.227
732.0840, 2094.330
732.5661, 2101.229
733.0482, 2094.748
733.5303, 2085.408
734.0125, 2076.349
734.4946, 2070.792
734.9767, 2076.685
735.4588, 2102.496
735.9409, 2120.246
736.4230, 2130.516
736.9052, 2132.290
737.3873, 2114.368
737.8694, 2091.109
738.3515, 2089.030
738.8336, 2117.502
739.3157, 2146.454
739.7979, 2142.650
740.2800, 2118.684
740.7621, 2107.542
741.2442, 2110.846
741.7263, 2114.372
742.2084, 2111.332
742.6906, 2103.770
743.1727, 2095.399
743.6548, 2085.142
744.1369, 2077.209
744.6190, 2072.704
745.1011, 2069.048
745.5833, 2065.172
746.0654, 2061.581
746.5475, 2057.849
747.0296, 2053.722
747.5117, 2054.648
747.9938, 2071.262
748.4760, 2092.180
748.9581, 2096.888
749.4402, 2087.042
749.9223, 2078.823
750.4044, 2079.529
750.8865, 2083.979
751.3687, 2083.500
751.8508, 2076.733
752.3329, 2072.829
752.8150, 2074.004
753.2971, 2075.263
753.7792, 2075.174
754.2614, 2050.200
754.7435, 2082.136
755.2256, 2100.173
755.7077, 2105.056
756.1898, 2057.392
756.6719, 2077.583
757.1541, 2070.580
757.6362, 2062.462
758.1183, 2092.203
758.6004, 2052.182
759.0825, 2081.322
759.5646, 2082.854
760.0468, 2097.021
760.5289, 2083.828
761.0110, 2079.086
761.4931, 2101.713
761.9752, 2109.186
762.4573, 2092.843
762.9395, 2107.814
763.4216, 2066.837
763.9037, 2074.955
764.3858, 2104.255
764.8679, 2089.288
765.3500, 2063.020
765.8322, 2042.094
766.3143, 2046.196
766.7964, 2078.529
767.2785, 2109.923
767.7606, 2113.458
768.2427, 2096.267
768.7249, 2079.969
769.2070, 2063.946
769.6891, 2057.333
770.1712, 2066.100
770.6533, 2077.980
771.1354, 2080.407
771.6176, 2073.404
772.0997, 2067.670
772.5818, 2063.777
773.0639, 2060.315
773.5460, 2056.214
774.0281, 2052.971
774.5103, 2051.060
774.9924, 2051.173
775.4745, 2055.976
775.9566, 2070.380
776.4387, 2084.004
776.9208, 2079.101
777.4030, 2060.903
777.8851, 2049.355
778.3672, 2048.223
778.8493, 2051.946
779.3314, 2056.796
779.8135, 2062.559
780.2957, 2068.439
780.7778, 2077.212
781.2599, 2080.754
781.7420, 2071.857
782.2241, 2064.310
782.7062, 2066.484
783.1884, 2075.120
783.6705, 2082.531
784.1526, 2086.376
784.6347, 2089.601
785.1168, 2092.866
785.5989, 2097.149
786.0811, 2108.458
786.5632, 2123.013
787.0453, 2123.713
787.5274, 2101.024
788.0095, 2069.295
788.4916, 2054.358
788.9738, 2057.352
789.4559, 2060.221
789.9380, 2063.155
790.4201, 2064.221
790.9022, 2059.345
791.3843, 2053.952
791.8665, 2060.027
792.3486, 2082.353
792.8307, 2092.469
793.3128, 2073.795
793.7949, 2054.928
794.2770, 2050.661
794.7592, 2056.460
795.2413, 2066.886
795.7234, 2079.465
796.2055, 2088.630
796.6876, 2086.813
797.1697, 2078.997
797.6519, 2076.860
798.1340, 2079.847
798.6161, 2082.347
799.0982, 2082.949
799.5803, 2080.396
800.0624, 2071.942
800.5446, 2057.767
801.0267, 2051.825
801.5088, 2061.921
801.9909, 2068.276
802.4730, 2066.564
802.9551, 2061.551
803.4373, 2053.620
803.9194, 2044.990
804.4015, 2043.849
804.8836, 2061.679
805.3657, 2074.662
805.8478, 2061.640
806.3300, 2036.973
806.8121, 2017.712
807.2942, 2007.311
807.7763, 2006.834
808.2584, 2017.675
808.7405, 2035.239
809.2227, 2052.318
809.7048, 2069.236
810.1869, 2075.128
810.6690, 2066.866
811.1511, 2053.350
811.6332, 2036.659
812.1154, 2019.923
812.5975, 2011.562
813.0796, 2015.186
813.5617, 2017.336
814.0438, 2017.394
814.5259, 2015.750
815.0081, 2012.983
815.4902, 2008.453
815.9723, 1998.542
816.4544, 1982.907
816.9365, 1973.543
817.4186, 1987.763
817.9008, 2008.765
818.3829, 2008.063
818.8650, 1991.064
819.3471, 1981.674
819.8292, 1987.459
820.3113, 1997.429
820.7935, 1999.685
821.2756, 1994.979
821.7577, 1991.910
822.2398, 1993.025
822.7219, 1987.935
823.2040, 1965.933
823.6862, 1946.157
824.1683, 1948.771
824.6504, 1968.536
825.1325, 1982.387
825.6146, 1984.732
826.0967, 1984.971
826.5789, 1986.081
827.0610, 1985.974
827.5431, 1975.052
828.0252, 1936.756
828.5073, 1966.755
828.9894, 1982.854
829.4716, 1985.800
829.9537, 1936.199
830.4358, 1954.452
830.9180, 1945.512
831.4001, 1935.457
831.8822, 1963.260
832.3643, 1921.302
832.8464, 1948.505
833.3286, 1948.099
833.8107, 1960.330
834.2928, 1945.199
834.7749, 1938.520
835.2570, 1911.381
835.7391, 1920.840
836.2213, 1942.458
836.7034, 1957.196
837.1855, 1964.163
837.6676, 1962.788
838.1497, 1939.729
838.6318, 1923.422
839.1140, 1936.399
839.5961, 1959.242
840.0782, 1967.221
840.5603, 1958.906
841.0424, 1947.857
841.5245, 1941.075
842.0067, 1940.170
842.4888, 1953.104
842.9709, 1975.163
843.4530, 1982.377
843.9351, 1971.149
844.4172, 1958.878
844.8994, 1956.351
845.3815, 1960.732
845.8636, 1965.540
846.3457, 1972.923
846.8278, 1973.739
847.3099, 1960.999
847.7921, 1951.217
848.2742, 1954.075
848.7563, 1962.231
849.2384, 1966.737
849.7205, 1966.753
850.2026, 1965.489
850.6848, 1963.229
851.1669, 1960.516
851.6490, 1956.457
852.1311, 1952.716
852.6132, 1952.892
853.0953, 1956.644
853.5775, 1958.151
854.0596, 1951.380
854.5417, 1942.407
855.0238, 1944.807
855.5059, 1954.300
855.9880, 1949.231
856.4702, 1925.887
856.9523, 1905.301
857.4344, 1902.932
857.9165, 1914.359
858.3986, 1928.176
858.8807, 1947.979
859.3629, 1957.035
859.8450, 1950.193
860.3271, 1939.243
860.8092, 1925.889
861.2913, 1913.851
861.7734, 1910.935
862.2556, 1920.558
862.7377, 1922.481
863.2198, 1902.651
863.7019, 1885.784
864.1840, 1889.484
864.6661, 1900.874
865.1483, 1901.432
865.6304, 1889.353
866.1125, 1878.587
866.5946, 1878.864
867.0767, 1884.584
867.5588, 1890.616
868.0410, 1896.008
868.5231, 1897.903
869.0052, 1896.001
869.4873, 1892.208
869.9694, 1887.378
870.4515, 1883.309
870.9337, 1886.516
871.4158, 1898.816
871.8979, 1900.604
872.3800, 1886.026
872.8621, 1873.077
873.3442, 1871.888
873.8264, 1877.062
874.3085, 1878.470
874.7906, 1874.238
875.2727, 1873.158
875.7548, 1876.463
876.2369, 1881.418
876.7191, 1888.930
877.2012, 1896.501
877.6833, 1901.939
878.1654, 1904.946
878.6475, 1906.027
879.1296, 1904.638
879.6118, 1902.333
880.0939, 1899.814
880.5760, 1897.353
881.0581, 1896.712
881.5402, 1896.889
882.0223, 1892.798
882.5045, 1881.097
882.9866, 1867.255
883.4687, 1861.172
883.9508, 1861.061
884.4329, 1854.541
884.9150, 1840.472
885.3972, 1831.663
885.8793, 1834.922
886.3614, 1842.208
886.8435, 1840.925
887.3256, 1829.931
887.8077, 1827.229
888.2899, 1836.974
888.7720, 1847.521
889.2541, 1861.215
889.7362, 1870.398
890.2183, 1865.923
890.7004, 1850.859
891.1826, 1840.134
891.6647, 1837.205
892.1468, 1836.390
892.6289, 1833.416
893.1110, 1834.292
893.5931, 1850.098
894.0753, 1872.227
894.5574, 1881.657
895.0395, 1871.491
895.5216, 1854.601
896.0037, 1836.872
896.4858, 1821.603
896.9680, 1811.492
897.4501, 1808.094
897.9322, 1820.501
898.4143, 1849.485
898.8964, 1872.946
899.3785, 1867.492
899.8607, 1841.630
900.3428, 1823.187
900.8249, 1812.341
901.3070, 1806.443
901.7891, 1806.020
902.2712, 1806.348
902.7534, 1803.296
903.2355, 1799.409
903.7176, 1802.673
904.1997, 1818.863
904.6818, 1827.626
905.1639, 1823.212
905.6461, 1818.442
906.1282, 1816.438
906.6103, 1817.231
907.0924, 1823.326
907.5745, 1834.821
908.0566, 1838.719
908.5388, 1825.591
909.0209, 1811.977
909.5030, 1802.089
909.9851, 1797.675
910.4672, 1806.153
910.9493, 1822.181
911.4315, 1825.134
911.9136, 1800.035
912.3957, 1777.574
912.8778, 1795.319
913.3599, 1831.468
913.8420, 1850.917
914.3242, 1852.872
914.8063, 1845.171
915.2884, 1831.270
915.7705, 1820.060
916.2526, 1825.720
916.7347, 1843.001
917.2169, 1840.873
917.6990, 1818.385
918.1811, 1809.213
918.6632, 1824.274
919.1453, 1842.094
919.6274, 1844.283
920.1096, 1834.341
920.5917, 1827.634
921.0738, 1824.876
921.5559, 1823.693
922.0380, 1826.653
922.5201, 1827.568
923.0023, 1819.585
923.4844, 1809.568
923.9665, 1809.241
924.4486, 1820.991
924.9307, 1827.280
925.4128, 1824.435
925.8950, 1817.435
926.3771, 1803.466
926.8592, 1789.620
927.3413, 1782.270
927.8234, 1781.837
928.3055, 1787.109
928.7877, 1801.451
929.2698, 1812.655
929.7519, 1810.448
930.2340, 1801.208
930.7161, 1787.845
931.1982, 1774.759
931.6804, 1772.587
932.1625, 1785.064
932.6446, 1801.792
933.1267, 1815.329
933.6088, 1823.572
934.0909, 1817.230
934.5731, 1799.452
935.0552, 1788.504
935.5373, 1788.730
936.0194, 1794.111
936.5015, 1800.299
936.9836, 1806.769
937.4658, 1813.124
937.9479, 1820.269
938.4300, 1818.094
938.9121, 1801.800
939.3942, 1790.121
939.8763, 1794.469
940.3585, 1805.235
940.8406, 1806.852
941.3227, 1797.935
941.8048, 1790.271
942.2869, 1782.506
942.7690, 1777.991
943.2512, 1779.708
943.7333, 1782.714
944.2154, 1782.998
944.6975, 1781.463
945.1796, 1781.238
945.6617, 1780.330
946.1439, 1785.844
946.6260, 1807.054
947.1081, 1827.675
947.5902, 1838.901
948.0723, 1841.898
948.5544, 1837.192
949.0366, 1825.798
949.5187, 1817.362
950.0008, 1820.223
950.4829, 1825.639
950.9650, 1825.884
951.4471, 1823.709
951.9293, 1822.887
952.4114, 1824.075
952.8935, 1826.356
953.3756, 1828.988
953.8577, 1834.417
954.3398, 1850.530
954.8220, 1870.620
955.3041, 1874.011
955.7862, 1862.855
956.2683, 1856.323
956.7504, 1860.918
957.2325, 1868.322
957.7147, 1869.845
958.1968, 1867.166
958.6789, 1867.346
959.1610, 1870.562
959.6431, 1871.711
960.1252, 1868.430
960.6074, 1871.613
961.0895, 1889.566
961.5716, 1915.530
962.0537, 1935.765
962.5358, 1950.217
963.0179, 1958.993
963.5001, 1954.925
963.9822, 1959.946
964.4643, 1987.859
964.9464, 2019.470
965.4285, 2031.709
965.9106, 2028.393
966.3928, 2042.196
966.8749, 2089.307
967.3570, 2129.145
967.8391, 2152.362
968.3212, 2174.283
968.8033, 2205.623
969.2855, 2239.791
969.7676, 2259.233
970.2497, 2260.134
970.7318, 2289.417
971.2139, 2385.932
971.6960, 2486.380
972.1782, 2541.959
972.6603, 2596.594
973.1424, 2693.501
973.6245, 2834.186
974.1066, 3002.772
974.5887, 3191.606
975.0709, 3409.212
975.5530, 3655.316
976.0351, 3937.657
976.5172, 4273.680
976.9993, 4651.282
977.4814, 5042.845
977.9636, 5442.251
978.4457, 5863.433
978.9278, 6311.986
979.4099, 6797.354
979.8920, 7330.015
980.3741, 7911.637
980.8563, 8571.363
981.3384, 9298.358
981.8205, 10025.79
982.3026, 10721.48
982.7847, 11404.00
983.2668, 12134.45
983.7490, 12877.95
984.2311, 13481.63
984.7132, 13940.42
985.1953, 14063.42
985.6774, 13798.54
986.1595, 13239.40
986.6417, 12428.77
987.1238, 11430.70
987.6059, 10401.76
988.0880, 9328.754
988.5701, 8344.450
989.0522, 7450.135
989.5344, 6642.456
990.0165, 5930.376
990.4986, 5289.794
990.9807, 4690.980
991.4628, 4132.980
991.9449, 3692.602
992.4271, 3406.373
992.9092, 3162.552
993.3913, 2955.780
993.8734, 2782.681
994.3555, 2648.481
994.8376, 2544.903
995.3198, 2458.789
995.8019, 2392.774
996.2841, 2331.751
996.7662, 2278.264
997.2483, 2225.875
997.7304, 2167.281
998.2125, 2114.222
998.6946, 2078.287
999.1768, 2056.128
999.6589, 2035.014
1000.141, 2011.817
1000.623, 1991.427
1001.105, 1979.193
1001.587, 1965.521
1002.069, 1939.696
1002.552, 1911.841
1003.034, 1894.963
1003.516, 1890.408
1003.998, 1892.122
1004.480, 1907.684
1004.962, 1913.434
1005.444, 1884.484
1005.926, 1848.379
1006.409, 1835.283
1006.891, 1837.671
1007.373, 1831.432
1007.855, 1809.931
1008.337, 1793.055
1008.819, 1802.064
1009.301, 1816.173
1009.783, 1812.172
1010.265, 1799.190
1010.748, 1791.984
1011.230, 1791.805
1011.712, 1794.762
1012.194, 1799.566
1012.676, 1799.097
1013.158, 1774.881
1013.640, 1745.860
1014.122, 1756.103
1014.604, 1791.331
1015.087, 1798.822
1015.569, 1770.832
1016.051, 1751.312
1016.533, 1774.269
1017.015, 1818.437
1017.497, 1858.443
1017.979, 1888.171
1018.461, 1875.400
1018.944, 1824.231
1019.426, 1781.629
1019.908, 1764.794
1020.390, 1758.928
1020.872, 1749.095
1021.354, 1737.985
1021.836, 1735.856
1022.318, 1741.919
1022.800, 1744.783
1023.283, 1743.000
1023.765, 1738.464
1024.247, 1731.637
1024.729, 1725.423
1025.211, 1724.519
1025.693, 1728.381
1026.175, 1731.021
1026.657, 1732.754
1027.140, 1729.354
1027.622, 1718.768
1028.104, 1709.009
1028.586, 1705.861
1029.068, 1706.149
1029.550, 1702.077
1030.032, 1692.275
1030.514, 1690.719
1030.996, 1700.131
1031.479, 1708.718
1031.961, 1714.604
1032.443, 1715.424
1032.925, 1707.342
1033.407, 1693.448
1033.889, 1685.290
1034.371, 1683.002
1034.853, 1686.699
1035.335, 1700.437
1035.818, 1712.084
1036.300, 1718.532
1036.782, 1719.224
1037.264, 1709.994
1037.746, 1692.986
1038.228, 1690.128
1038.710, 1713.691
1039.192, 1727.311
1039.675, 1723.540
1040.157, 1717.540
1040.639, 1715.666
1041.121, 1715.508
1041.603, 1713.978
1042.085, 1711.039
1042.567, 1707.367
1043.049, 1699.766
1043.531, 1696.128
1044.014, 1696.918
1044.496, 1702.139
1044.978, 1718.403
1045.460, 1736.432
1045.942, 1737.236
1046.424, 1716.178
1046.906, 1708.017
1047.388, 1731.010
1047.870, 1745.905
1048.353, 1737.748
1048.835, 1724.498
1049.317, 1717.425
1049.799, 1715.376
1050.281, 1715.160
1050.763, 1717.567
1051.245, 1716.695
1051.727, 1704.970
1052.210, 1698.291
1052.692, 1709.843
1053.174, 1722.342
1053.656, 1715.842
1054.138, 1697.445
1054.620, 1693.093
1055.102, 1712.923
1055.584, 1728.752
1056.067, 1733.017
1056.549, 1732.792
1057.031, 1726.992
1057.513, 1721.578
1057.995, 1722.067
1058.477, 1728.553
1058.959, 1739.580
1059.441, 1758.543
1059.923, 1772.912
1060.406, 1778.496
1060.888, 1778.767
1061.370, 1769.659
1061.852, 1760.199
1062.334, 1763.475
1062.816, 1778.301
1063.298, 1789.475
1063.780, 1790.284
1064.262, 1790.632
1064.745, 1794.253
1065.227, 1798.676
1065.709, 1804.347
1066.191, 1808.602
1066.673, 1805.076
1067.155, 1794.726
1067.637, 1791.742
1068.119, 1807.462
1068.602, 1821.847
1069.084, 1822.328
1069.566, 1822.046
1070.048, 1831.841
1070.530, 1847.779
1071.012, 1863.384
1071.494, 1877.213
1071.976, 1887.863
1072.458, 1893.355
1072.941, 1897.458
1073.423, 1900.824
1073.905, 1904.541
1074.387, 1910.111
1074.869, 1916.484
1075.351, 1920.251
1075.833, 1921.058
1076.315, 1927.586
1076.797, 1951.708
1077.280, 1972.181
1077.762, 1973.575
1078.244, 1970.811
1078.726, 1977.464
1079.208, 1990.708
1079.690, 2003.386
1080.172, 2013.889
1080.655, 2021.109
1081.137, 2019.014
1081.619, 2020.472
1082.101, 2041.002
1082.583, 2060.737
1083.065, 2057.476
1083.547, 2039.140
1084.029, 2024.882
1084.511, 2019.105
1084.994, 2019.755
1085.476, 2031.003
1085.958, 2042.197
1086.440, 2048.245
1086.922, 2051.209
1087.404, 2055.392
1087.886, 2057.646
1088.368, 2048.362
1088.850, 2024.106
1089.333, 2004.522
1089.815, 1993.828
1090.297, 1994.473
1090.779, 2025.552
1091.261, 2053.577
1091.743, 2038.733
1092.225, 1996.478
1092.707, 1969.315
1093.190, 1968.121
1093.672, 1970.140
1094.154, 1970.889
1094.636, 1968.054
1095.118, 1958.276
1095.600, 1946.299
1096.082, 1935.511
1096.564, 1926.351
1097.047, 1919.158
1097.529, 1914.275
1098.011, 1909.294
1098.493, 1904.312
1098.975, 1898.030
1099.457, 1889.419
1099.939, 1879.709
1100.421, 1869.424
1100.903, 1859.088
1101.385, 1849.238
1101.868, 1839.820
1102.350, 1832.293
1102.832, 1828.109
1103.314, 1824.522
1103.796, 1822.123
1104.278, 1818.437
1104.760, 1810.821
1105.242, 1800.475
1105.725, 1790.183
1106.207, 1780.153
1106.689, 1770.836
1107.171, 1761.638
1107.653, 1754.008
1108.135, 1746.562
1108.617, 1742.557
1109.099, 1749.255
1109.582, 1760.130
1110.064, 1759.086
1110.546, 1741.888
1111.028, 1728.659
1111.510, 1725.594
1111.992, 1720.610
1112.474, 1703.151
1112.956, 1690.743
1113.438, 1703.541
1113.921, 1727.553
1114.403, 1729.490
1114.885, 1701.945
1115.367, 1687.875
1115.849, 1694.683
1116.331, 1703.773
1116.813, 1718.648
1117.295, 1727.249
1117.777, 1718.183
1118.260, 1700.119
1118.742, 1689.547
1119.224, 1687.238
1119.706, 1686.281
1120.188, 1688.592
1120.670, 1687.787
1121.152, 1679.033
1121.634, 1674.000
1122.117, 1682.291
1122.599, 1695.314
1123.081, 1697.647
1123.563, 1688.827
1124.045, 1683.003
1124.527, 1679.138
1125.009, 1683.470
1125.491, 1702.823
1125.974, 1712.523
1126.456, 1694.983
1126.938, 1669.842
1127.420, 1667.268
1127.902, 1685.341
1128.384, 1696.894
1128.866, 1701.919
1129.348, 1699.520
1129.830, 1688.540
1130.313, 1675.885
1130.795, 1664.703
1131.277, 1653.762
1131.759, 1640.020
1132.241, 1626.228
1132.723, 1629.846
1133.205, 1650.654
1133.687, 1660.292
1134.169, 1655.810
1134.652, 1648.483
1135.134, 1642.553
1135.616, 1641.695
1136.098, 1652.135
1136.580, 1666.509
1137.062, 1661.602
1137.544, 1641.427
1138.026, 1628.253
1138.509, 1623.349
1138.991, 1622.698
1139.473, 1624.600
1139.955, 1624.037
1140.437, 1615.534
1140.919, 1605.227
1141.401, 1605.903
1141.883, 1612.430
1142.365, 1611.124
1142.848, 1603.513
1143.330, 1598.092
1143.812, 1596.774
1144.294, 1596.049
1144.776, 1593.997
1145.258, 1589.728
1145.740, 1578.130
1146.222, 1566.567
1146.704, 1569.390
1147.187, 1579.704
1147.669, 1582.509
1148.151, 1576.051
1148.633, 1566.427
1149.115, 1555.148
1149.597, 1549.457
1150.079, 1560.532
1150.561, 1574.065
1151.044, 1578.721
1151.526, 1576.543
1152.008, 1566.284
1152.490, 1552.918
1152.972, 1551.813
1153.454, 1570.227
1153.936, 1584.211
1154.418, 1580.533
1154.901, 1571.999
1155.383, 1563.695
1155.865, 1555.407
1156.347, 1544.570
1156.829, 1534.016
1157.311, 1531.533
1157.793, 1539.631
1158.275, 1543.045
1158.757, 1531.945
1159.240, 1525.077
1159.722, 1533.205
1160.204, 1540.868
1160.686, 1534.637
1161.168, 1523.042
1161.650, 1522.464
1162.132, 1533.950
1162.614, 1538.213
1163.096, 1529.662
1163.579, 1523.991
1164.061, 1521.748
1164.543, 1523.988
1165.025, 1534.599
1165.507, 1545.264
1165.989, 1544.438
1166.471, 1534.767
1166.953, 1535.967
1167.436, 1552.817
1167.918, 1556.722
1168.400, 1542.779
1168.882, 1532.308
1169.364, 1532.858
1169.846, 1538.034
1170.328, 1542.906
1170.810, 1546.308
1171.292, 1543.964
1171.775, 1536.422
1172.257, 1534.872
1172.739, 1538.729
1173.221, 1527.459
1173.703, 1497.350
1174.185, 1483.002
1174.667, 1508.596
1175.149, 1544.699
1175.631, 1543.190
1176.114, 1520.765
1176.596, 1522.198
1177.078, 1538.415
1177.560, 1537.553
1178.042, 1521.293
1178.524, 1523.856
1179.006, 1559.476
1179.488, 1589.411
1179.971, 1572.402
1180.453, 1539.339
1180.935, 1519.354
1181.417, 1507.977
1181.899, 1498.294
1182.381, 1492.447
1182.863, 1500.815
1183.345, 1523.492
1183.828, 1537.142
1184.310, 1524.534
1184.792, 1509.727
1185.274, 1499.621
1185.756, 1497.123
1186.238, 1512.083
1186.720, 1530.988
1187.202, 1535.193
1187.684, 1525.247
1188.167, 1515.376
1188.649, 1503.876
1189.131, 1501.577
1189.613, 1521.599
1190.095, 1535.612
1190.577, 1528.814
1191.059, 1517.946
1191.541, 1515.280
1192.023, 1518.434
1192.506, 1522.099
1192.988, 1527.369
1193.470, 1525.189
1193.952, 1511.360
1194.434, 1504.095
1194.916, 1508.911
1195.398, 1511.961
1195.880, 1503.878
1196.363, 1495.448
1196.845, 1504.418
1197.327, 1525.782
1197.809, 1531.247
1198.291, 1521.584
1198.773, 1510.318
1199.255, 1499.280
1199.737, 1496.780
1200.219, 1505.478
1200.702, 1513.146
1201.184, 1508.529
1201.666, 1498.727
1202.148, 1495.860
1202.630, 1496.387
1203.112, 1491.441
1203.594, 1483.803
1204.076, 1482.265
1204.558, 1487.384
1205.041, 1492.661
1205.523, 1494.853
1206.005, 1496.977
1206.487, 1501.842
1206.969, 1507.045
1207.451, 1511.661
1207.933, 1514.674
1208.415, 1516.913
1208.898, 1516.116
1209.380, 1503.743
1209.862, 1477.363
1210.344, 1464.431
1210.826, 1486.828
1211.308, 1502.625
1211.790, 1495.123
1212.272, 1485.281
1212.755, 1484.940
1213.237, 1488.678
1213.719, 1489.712
1214.201, 1488.374
1214.683, 1487.045
1215.165, 1485.873
1215.647, 1483.811
1216.129, 1479.127
1216.611, 1479.967
1217.094, 1491.235
1217.576, 1499.023
1218.058, 1491.414
1218.540, 1477.600
1219.022, 1476.205
1219.504, 1485.722
1219.986, 1493.830
1220.468, 1500.321
1220.950, 1502.188
1221.433, 1499.688
1221.915, 1500.359
1222.397, 1507.309
1222.879, 1510.471
1223.361, 1497.506
1223.843, 1479.634
1224.325, 1473.362
1224.807, 1473.042
1225.290, 1469.338
1225.772, 1464.145
1226.254, 1464.889
1226.736, 1471.242
1227.218, 1472.418
1227.700, 1460.037
1228.182, 1454.315
1228.664, 1476.982
1229.146, 1495.936
1229.629, 1485.648
1230.111, 1468.534
1230.593, 1467.761
1231.075, 1477.850
1231.557, 1481.105
1232.039, 1474.781
1232.521, 1470.322
1233.003, 1469.152
1233.485, 1467.756
1233.968, 1465.150
1234.450, 1463.951
1234.932, 1467.506
1235.414, 1468.123
1235.896, 1454.609
1236.378, 1433.295
1236.860, 1431.675
1237.342, 1449.911
1237.825, 1459.006
1238.307, 1458.349
1238.789, 1459.719
1239.271, 1465.734
1239.753, 1469.809
1240.235, 1467.944
1240.717, 1462.160
1241.199, 1452.955
1241.682, 1443.130
1242.164, 1435.254
1242.646, 1431.634
1243.128, 1440.692
1243.610, 1457.053
1244.092, 1466.625
1244.574, 1465.573
1245.056, 1457.122
1245.538, 1435.743
1246.021, 1420.978
1246.503, 1425.568
1246.985, 1436.176
1247.467, 1450.560
1247.949, 1461.678
1248.431, 1459.389
1248.913, 1447.598
1249.395, 1442.327
1249.878, 1446.368
1250.360, 1447.324
1250.842, 1443.359
1251.324, 1439.820
1251.806, 1434.843
1252.288, 1439.579
1252.770, 1464.145
1253.252, 1487.569
1253.734, 1482.490
1254.217, 1456.693
1254.699, 1435.456
1255.181, 1419.552
1255.663, 1417.445
1256.145, 1427.415
1256.627, 1436.457
1257.109, 1441.389
1257.591, 1446.025
1258.073, 1452.726
1258.556, 1458.330
1259.038, 1461.829
1259.520, 1460.253
1260.002, 1442.559
1260.484, 1423.691
1260.966, 1425.937
1261.448, 1441.880
1261.930, 1453.547
1262.413, 1457.183
1262.895, 1454.668
1263.377, 1442.135
1263.859, 1430.813
1264.341, 1421.432
1264.823, 1415.517
1265.305, 1413.790
1265.787, 1415.768
1266.270, 1423.459
1266.752, 1432.721
1267.234, 1432.412
1267.716, 1421.964
1268.198, 1421.415
1268.680, 1431.836
1269.162, 1438.703
1269.644, 1440.081
1270.126, 1439.206
1270.609, 1437.422
1271.091, 1431.742
1271.573, 1416.906
1272.055, 1404.037
1272.537, 1417.695
1273.019, 1441.602
1273.501, 1447.035
1273.983, 1439.800
1274.465, 1430.304
1274.948, 1422.840
1275.430, 1423.953
1275.912, 1436.306
1276.394, 1448.910
1276.876, 1464.483
1277.358, 1468.568
1277.840, 1444.249
1278.322, 1419.294
1278.805, 1410.624
1279.287, 1411.831
1279.769, 1415.893
1280.251, 1421.679
1280.733, 1423.388
1281.215, 1419.324
1281.697, 1418.659
1282.179, 1421.268
1282.661, 1429.860
1283.144, 1445.922
1283.626, 1456.236
1284.108, 1453.398
1284.590, 1444.498
1285.072, 1437.311
1285.554, 1430.975
1286.036, 1422.466
1286.518, 1414.450
1287.000, 1412.089
1287.483, 1414.760
1287.965, 1421.557
1288.447, 1430.996
1288.929, 1438.821
1289.411, 1443.377
1289.893, 1445.342
1290.375, 1444.329
1290.857, 1440.791
##END=



