##NAMES=Reyerite
##RRUFFID=R060749
##IDEAL CHEMISTRY=Na_2_Ca_14_Al_2_Si_22_O_58_(OH)_8_&#183;6H_2_O
##LOCALITY=Drynoch, Island of Skye, Scotland
##OWNER=RRUFF
##SOURCE=Michael Scott
##DESCRIPTION=Radiating aggregates of colorless thin hexagonal plates.
##STATUS=The identification of this mineral has been confirmed by single-crystal X-ray diffraction.
##URL=rruff.info/R060749
144.6643, 35701.60
145.1465, 35735.58
145.6286, 35752.01
146.1107, 35801.77
146.5928, 35908.20
147.0749, 36043.02
147.5570, 36132.85
148.0392, 36143.51
148.5213, 36142.46
149.0034, 36157.36
149.4855, 36203.01
149.9676, 36246.14
150.4497, 36273.94
150.9319, 36293.45
151.4140, 36350.57
151.8961, 36520.77
152.3782, 36687.69
152.8603, 36780.87
153.3424, 36684.04
153.8246, 36635.96
154.3067, 36704.71
154.7888, 36901.56
155.2709, 37055.95
155.7530, 37082.75
156.2351, 37076.60
156.7173, 37132.99
157.1994, 37325.88
157.6815, 37535.45
158.1636, 37716.23
158.6457, 37851.45
159.1278, 37996.84
159.6100, 38180.21
160.0921, 38377.65
160.5742, 38552.05
161.0563, 38675.28
161.5384, 38776.16
162.0205, 38869.62
162.5027, 38958.15
162.9848, 39035.91
163.4669, 39100.28
163.9490, 39150.88
164.4311, 39189.66
164.9132, 39207.41
165.3954, 39219.20
165.8775, 39238.64
166.3596, 39284.83
166.8417, 39327.86
167.3238, 39350.52
167.8059, 39355.09
168.2881, 39354.10
168.7702, 39352.48
169.2523, 39351.92
169.7344, 39354.16
170.2165, 39351.03
170.6986, 39357.79
171.1808, 39399.23
171.6629, 39478.57
172.1450, 39546.00
172.6271, 39546.95
173.1092, 39507.27
173.5913, 39478.11
174.0734, 39492.11
174.5556, 39526.66
175.0377, 39547.38
175.5198, 39543.80
176.0019, 39554.50
176.4840, 39630.85
176.9661, 39757.55
177.4483, 39882.95
177.9304, 39978.48
178.4125, 40051.21
178.8946, 40113.07
179.3767, 40161.35
179.8588, 40207.65
180.3410, 40277.63
180.8231, 40366.69
181.3052, 40443.61
181.7873, 40459.41
182.2694, 40441.68
182.7515, 40473.33
183.2337, 40599.81
183.7158, 40765.07
184.1979, 40845.19
184.6800, 40838.25
185.1621, 40832.47
185.6442, 40954.14
186.1264, 41165.34
186.6085, 41281.25
187.0906, 41167.65
187.5727, 40921.09
188.0548, 40862.73
188.5369, 41012.33
189.0191, 41229.57
189.5012, 41353.62
189.9833, 41391.45
190.4654, 41420.24
190.9475, 41478.59
191.4296, 41559.66
191.9118, 41608.51
192.3939, 41619.17
192.8760, 41613.70
193.3581, 41627.71
193.8402, 41662.39
194.3223, 41691.44
194.8045, 41699.84
195.2866, 41688.78
195.7687, 41677.80
196.2508, 41666.54
196.7329, 41659.47
197.2150, 41658.54
197.6972, 41660.77
198.1793, 41692.92
198.6614, 41796.37
199.1435, 41976.18
199.6256, 42095.30
200.1077, 42121.96
200.5899, 42086.12
201.0720, 42077.06
201.5541, 42095.51
202.0362, 42135.46
202.5183, 42193.55
203.0004, 42269.50
203.4826, 42358.60
203.9647, 42466.74
204.4468, 42586.57
204.9289, 42674.80
205.4110, 42726.03
205.8931, 42756.19
206.3753, 42778.97
206.8574, 42794.32
207.3395, 42801.02
207.8216, 42801.98
208.3037, 42796.96
208.7858, 42765.04
209.2679, 42696.29
209.7501, 42620.56
210.2322, 42575.32
210.7143, 42569.62
211.1964, 42570.37
211.6785, 42569.48
212.1606, 42567.38
212.6428, 42574.54
213.1249, 42595.72
213.6070, 42622.25
214.0891, 42634.26
214.5712, 42613.82
215.0533, 42622.11
215.5355, 42696.56
216.0176, 42866.95
216.4997, 42950.07
216.9818, 42898.96
217.4639, 42788.79
217.9460, 42776.94
218.4282, 42910.61
218.9103, 43043.57
219.3924, 43113.16
219.8745, 43096.21
220.3566, 43076.90
220.8387, 43045.59
221.3209, 43016.88
221.8030, 43039.50
222.2851, 43153.90
222.7672, 43254.34
223.2493, 43279.71
223.7314, 43186.27
224.2136, 43132.30
224.6957, 43137.87
225.1778, 43188.15
225.6599, 43227.48
226.1420, 43254.09
226.6241, 43271.53
227.1063, 43275.60
227.5884, 43242.05
228.0705, 43247.74
228.5526, 43311.47
229.0347, 43422.05
229.5168, 43513.07
229.9990, 43580.70
230.4811, 43633.15
230.9632, 43675.85
231.4453, 43708.31
231.9274, 43731.04
232.4095, 43733.04
232.8917, 43718.38
233.3738, 43750.19
233.8559, 43866.25
234.3380, 43987.40
234.8201, 44048.30
235.3022, 44019.73
235.7844, 43985.18
236.2665, 43949.27
236.7486, 43912.27
237.2307, 43912.68
237.7128, 43971.08
238.1949, 44047.64
238.6771, 44103.89
239.1592, 44126.30
239.6413, 44154.49
240.1234, 44197.97
240.6055, 44259.13
241.0876, 44313.63
241.5698, 44348.33
242.0519, 44388.18
242.5340, 44465.09
243.0161, 44608.07
243.4982, 44734.79
243.9803, 44821.34
244.4624, 44860.20
244.9446, 44903.23
245.4267, 44946.58
245.9088, 44993.38
246.3909, 45047.79
246.8730, 45110.32
247.3551, 45176.37
247.8373, 45249.44
248.3194, 45334.75
248.8015, 45390.60
249.2836, 45404.20
249.7657, 45398.77
250.2478, 45410.57
250.7300, 45461.70
251.2121, 45495.41
251.6942, 45493.36
252.1763, 45450.23
252.6584, 45404.88
253.1405, 45347.84
253.6227, 45298.61
254.1048, 45291.32
254.5869, 45346.71
255.0690, 45407.47
255.5511, 45452.40
256.0333, 45472.31
256.5154, 45512.20
256.9975, 45579.15
257.4796, 45659.94
257.9617, 45731.48
258.4438, 45781.94
258.9260, 45842.51
259.4081, 45926.68
259.8902, 46041.71
260.3723, 46150.09
260.8544, 46251.30
261.3365, 46344.42
261.8186, 46429.61
262.3008, 46496.90
262.7829, 46574.14
263.2650, 46683.98
263.7471, 46854.27
264.2292, 46947.30
264.7113, 46932.39
265.1935, 46862.06
265.6756, 46849.46
266.1577, 46910.39
266.6398, 46990.35
267.1219, 47069.09
267.6040, 47150.47
268.0862, 47221.01
268.5683, 47280.46
269.0504, 47331.16
269.5325, 47377.67
270.0146, 47425.64
270.4967, 47458.27
270.9789, 47450.14
271.4610, 47381.01
271.9431, 47399.92
272.4252, 47543.81
272.9073, 47747.85
273.3894, 47862.26
273.8716, 47858.79
274.3537, 47862.23
274.8358, 47946.58
275.3179, 48125.49
275.8000, 48267.24
276.2821, 48358.53
276.7643, 48417.20
277.2464, 48482.94
277.7285, 48558.80
278.2106, 48622.80
278.6927, 48659.54
279.1748, 48667.22
279.6570, 48666.17
280.1391, 48645.08
280.6212, 48630.81
281.1033, 48694.32
281.5854, 48844.39
282.0675, 48989.20
282.5497, 49084.90
283.0318, 49131.94
283.5139, 49137.69
283.9960, 49096.02
284.4781, 49025.99
284.9602, 48957.41
285.4424, 48890.18
285.9245, 48831.26
286.4066, 48798.48
286.8887, 48785.49
287.3708, 48723.64
287.8529, 48590.66
288.3351, 48445.66
288.8172, 48405.85
289.2993, 48469.42
289.7814, 48527.52
290.2635, 48520.04
290.7456, 48456.36
291.2278, 48369.84
291.7099, 48251.97
292.1920, 48139.63
292.6741, 48101.79
293.1562, 48131.16
293.6383, 48164.27
294.1205, 48153.42
294.6026, 48118.88
295.0847, 48127.50
295.5668, 48197.11
296.0489, 48273.18
296.5310, 48276.52
297.0132, 48220.32
297.4953, 48168.38
297.9774, 48156.66
298.4595, 48174.27
298.9416, 48196.18
299.4237, 48218.21
299.9059, 48255.31
300.3880, 48340.65
300.8701, 48458.97
301.3522, 48558.33
301.8343, 48590.71
302.3164, 48591.34
302.7986, 48607.57
303.2807, 48640.27
303.7628, 48692.11
304.2449, 48789.95
304.7270, 48909.82
305.2091, 48993.25
305.6913, 48984.11
306.1734, 48936.41
306.6555, 48908.18
307.1376, 48905.43
307.6197, 48908.20
308.1018, 48908.30
308.5840, 48904.37
309.0661, 48893.02
309.5482, 48866.13
310.0303, 48837.80
310.5124, 48826.23
310.9945, 48835.25
311.4767, 48830.22
311.9588, 48764.34
312.4409, 48676.39
312.9230, 48620.45
313.4051, 48645.82
313.8872, 48689.75
314.3694, 48720.24
314.8515, 48735.99
315.3336, 48737.75
315.8157, 48712.36
316.2978, 48677.96
316.7799, 48655.27
317.2621, 48662.50
317.7442, 48673.50
318.2263, 48680.25
318.7084, 48682.90
319.1905, 48678.18
319.6726, 48632.91
320.1548, 48594.60
320.6369, 48606.58
321.1190, 48758.70
321.6011, 48883.37
322.0832, 48914.13
322.5653, 48853.18
323.0475, 48809.26
323.5296, 48795.96
324.0117, 48809.51
324.4938, 48847.09
324.9759, 48911.53
325.4580, 48995.80
325.9402, 49118.32
326.4223, 49273.07
326.9044, 49384.20
327.3865, 49418.62
327.8686, 49426.66
328.3507, 49437.25
328.8329, 49452.62
329.3150, 49468.28
329.7971, 49479.77
330.2792, 49490.45
330.7613, 49518.77
331.2434, 49592.86
331.7255, 49656.48
332.2076, 49677.64
332.6898, 49620.53
333.1719, 49588.12
333.6540, 49585.73
334.1361, 49610.84
334.6182, 49658.61
335.1003, 49743.81
335.5825, 49827.06
336.0646, 49884.55
336.5467, 49899.30
337.0288, 49944.34
337.5109, 50036.43
337.9930, 50146.17
338.4752, 50209.77
338.9573, 50210.43
339.4394, 50213.28
339.9215, 50247.80
340.4036, 50316.48
340.8857, 50393.05
341.3679, 50483.88
341.8500, 50571.32
342.3321, 50623.28
342.8142, 50639.77
343.2963, 50641.27
343.7784, 50622.87
344.2606, 50591.91
344.7427, 50611.09
345.2248, 50689.91
345.7069, 50789.29
346.1890, 50853.90
346.6711, 50889.63
347.1533, 50946.82
347.6354, 51056.58
348.1175, 51196.84
348.5996, 51312.64
349.0817, 51400.88
349.5638, 51476.63
350.0460, 51543.19
350.5281, 51605.53
351.0102, 51681.27
351.4923, 51803.57
351.9744, 51918.89
352.4565, 51924.77
352.9387, 51830.08
353.4208, 51741.02
353.9029, 51764.77
354.3850, 51841.65
354.8671, 51881.70
355.3492, 51857.46
355.8314, 51797.68
356.3135, 51716.65
356.7956, 51620.08
357.2777, 51523.88
357.7598, 51413.57
358.2419, 51322.87
358.7241, 51288.36
359.2062, 51339.70
359.6883, 51403.04
360.1704, 51452.94
360.6525, 51485.24
361.1346, 51490.64
361.6168, 51408.56
362.0989, 51338.01
362.5810, 51352.51
363.0631, 51506.53
363.5452, 51606.20
364.0273, 51530.96
364.5095, 51377.78
364.9916, 51297.61
365.4737, 51427.66
365.9558, 51543.03
366.4379, 51551.73
366.9200, 51416.57
367.4022, 51331.23
367.8843, 51349.31
368.3664, 51411.55
368.8485, 51454.17
369.3306, 51433.51
369.8127, 51443.48
370.2949, 51512.26
370.7770, 51642.08
371.2591, 51743.76
371.7412, 51800.02
372.2233, 51842.12
372.7054, 51892.56
373.1876, 51948.07
373.6697, 52017.08
374.1518, 52113.70
374.6339, 52224.52
375.1160, 52269.34
375.5981, 52220.91
376.0803, 52165.02
376.5624, 52168.28
377.0445, 52248.38
377.5266, 52270.43
378.0087, 52203.76
378.4908, 52097.54
378.9730, 52061.02
379.4551, 52100.97
379.9372, 52161.84
380.4193, 52221.93
380.9014, 52281.45
381.3835, 52337.82
381.8657, 52391.80
382.3478, 52444.02
382.8299, 52494.64
383.3120, 52543.73
383.7941, 52591.79
384.2762, 52636.42
384.7584, 52679.16
385.2405, 52717.03
385.7226, 52747.43
386.2047, 52789.98
386.6868, 52874.60
387.1689, 52981.60
387.6511, 53070.54
388.1332, 53112.68
388.6153, 53139.86
389.0974, 53181.20
389.5795, 53235.19
390.0616, 53293.11
390.5438, 53361.09
391.0259, 53427.55
391.5080, 53483.17
391.9901, 53536.53
392.4722, 53566.19
392.9543, 53545.46
393.4365, 53491.82
393.9186, 53452.58
394.4007, 53463.58
394.8828, 53482.22
395.3649, 53482.82
395.8470, 53450.13
396.3292, 53430.89
396.8113, 53448.18
397.2934, 53481.77
397.7755, 53499.83
398.2576, 53443.11
398.7397, 53421.22
399.2219, 53482.60
399.7040, 53650.91
400.1861, 53760.49
400.6682, 53791.66
401.1503, 53776.86
401.6324, 53739.84
402.1145, 53644.08
402.5966, 53595.77
403.0788, 53628.72
403.5609, 53731.69
404.0430, 53803.89
404.5251, 53844.12
405.0072, 53857.13
405.4893, 53832.68
405.9715, 53758.73
406.4536, 53726.86
406.9357, 53752.70
407.4178, 53817.60
407.8999, 53885.82
408.3820, 53957.66
408.8642, 54018.86
409.3463, 54057.71
409.8284, 54077.47
410.3105, 54093.23
410.7926, 54102.85
411.2747, 54122.42
411.7569, 54181.27
412.2390, 54270.38
412.7211, 54354.08
413.2032, 54410.78
413.6853, 54454.96
414.1674, 54505.00
414.6496, 54561.10
415.1317, 54634.22
415.6138, 54758.57
416.0959, 54897.80
416.5780, 55002.10
417.0602, 55046.11
417.5423, 55061.23
418.0244, 55046.17
418.5065, 55014.01
418.9886, 55011.79
419.4707, 55108.46
419.9529, 55213.05
420.4350, 55255.03
420.9171, 55188.58
421.3992, 55150.44
421.8813, 55216.74
422.3634, 55333.24
422.8456, 55411.71
423.3277, 55390.36
423.8098, 55375.31
424.2919, 55412.55
424.7740, 55523.67
425.2561, 55574.43
425.7383, 55491.74
426.2204, 55397.16
426.7025, 55399.02
427.1846, 55558.53
427.6667, 55702.56
428.1488, 55808.39
428.6310, 55878.60
429.1131, 55928.66
429.5952, 55949.84
430.0773, 55966.05
430.5594, 55993.13
431.0415, 56032.68
431.5237, 56061.65
432.0058, 56073.31
432.4879, 56082.37
432.9700, 56119.76
433.4521, 56186.15
433.9342, 56249.41
434.4164, 56296.33
434.8985, 56330.24
435.3806, 56358.95
435.8627, 56382.04
436.3448, 56411.91
436.8269, 56482.95
437.3091, 56571.50
437.7912, 56614.02
438.2733, 56562.36
438.7554, 56486.05
439.2375, 56425.99
439.7196, 56393.51
440.2018, 56445.57
440.6839, 56757.88
441.1660, 57096.47
441.6481, 57222.26
442.1302, 57021.33
442.6123, 56789.69
443.0945, 56636.93
443.5766, 56550.70
444.0587, 56512.05
444.5408, 56567.70
445.0229, 56623.68
445.5050, 56646.60
445.9872, 56633.41
446.4693, 56603.32
446.9514, 56539.92
447.4335, 56472.28
447.9156, 56424.95
448.3977, 56422.74
448.8799, 56403.84
449.3620, 56339.07
449.8441, 56249.48
450.3262, 56241.76
450.8083, 56353.81
451.2904, 56473.31
451.7726, 56532.38
452.2547, 56515.63
452.7368, 56538.46
453.2189, 56618.51
453.7010, 56709.58
454.1831, 56731.92
454.6653, 56685.18
455.1474, 56643.43
455.6295, 56632.25
456.1116, 56647.86
456.5937, 56689.25
457.0758, 56758.00
457.5580, 56818.80
458.0401, 56838.74
458.5222, 56829.24
459.0043, 56810.10
459.4864, 56776.83
459.9685, 56753.46
460.4507, 56774.43
460.9328, 56827.33
461.4149, 56874.95
461.8970, 56903.45
462.3791, 56915.68
462.8612, 56901.61
463.3434, 56851.09
463.8255, 56831.64
464.3076, 56891.56
464.7897, 56989.30
465.2718, 57078.82
465.7539, 57141.21
466.2361, 57202.90
466.7182, 57265.27
467.2003, 57329.02
467.6824, 57409.05
468.1645, 57540.09
468.6466, 57653.18
469.1288, 57712.56
469.6109, 57689.95
470.0930, 57668.83
470.5751, 57646.43
471.0572, 57626.03
471.5393, 57613.25
472.0214, 57607.41
472.5035, 57609.72
472.9857, 57623.18
473.4678, 57646.00
473.9499, 57670.28
474.4320, 57699.41
474.9141, 57713.58
475.3962, 57676.17
475.8784, 57604.30
476.3605, 57573.98
476.8426, 57615.75
477.3247, 57683.63
477.8068, 57715.63
478.2889, 57720.86
478.7711, 57729.45
479.2532, 57772.59
479.7353, 57820.64
480.2174, 57833.45
480.6995, 57802.10
481.1816, 57786.17
481.6638, 57819.73
482.1459, 57885.06
482.6280, 57962.20
483.1101, 58062.46
483.5922, 58150.46
484.0743, 58203.29
484.5565, 58226.76
485.0386, 58260.79
485.5207, 58286.24
486.0028, 58342.57
486.4849, 58458.76
486.9670, 58694.95
487.4492, 58840.70
487.9313, 58861.23
488.4134, 58819.51
488.8955, 58801.82
489.3776, 58817.84
489.8597, 58839.07
490.3419, 58864.70
490.8240, 58892.77
491.3061, 58898.86
491.7882, 58880.62
492.2703, 58862.21
492.7524, 58853.09
493.2346, 58856.78
493.7167, 58902.83
494.1988, 59007.63
494.6809, 59113.18
495.1630, 59122.43
495.6451, 59065.27
496.1273, 59037.71
496.6094, 59126.96
497.0915, 59242.31
497.5736, 59290.40
498.0557, 59272.88
498.5378, 59242.36
499.0200, 59214.78
499.5021, 59196.72
499.9842, 59193.75
500.4663, 59206.25
500.9484, 59237.28
501.4305, 59322.79
501.9127, 59427.10
502.3948, 59471.58
502.8769, 59364.24
503.3590, 59276.90
503.8411, 59263.98
504.3232, 59334.43
504.8054, 59390.89
505.2875, 59428.35
505.7696, 59453.25
506.2517, 59467.07
506.7338, 59464.23
507.2159, 59472.55
507.6981, 59501.24
508.1802, 59537.53
508.6623, 59545.44
509.1444, 59524.82
509.6265, 59512.27
510.1086, 59552.96
510.5908, 59617.74
511.0729, 59601.31
511.5550, 59498.78
512.0371, 59388.30
512.5192, 59339.76
513.0013, 59334.36
513.4835, 59338.70
513.9656, 59331.24
514.4477, 59348.05
514.9298, 59445.70
515.4119, 59590.94
515.8940, 59694.16
516.3762, 59662.83
516.8583, 59622.19
517.3404, 59642.56
517.8225, 59743.05
518.3046, 59829.83
518.7867, 59884.63
519.2689, 59920.36
519.7510, 59948.21
520.2331, 59955.91
520.7152, 59976.38
521.1973, 60023.99
521.6794, 60084.75
522.1616, 60105.74
522.6437, 60068.54
523.1258, 60048.07
523.6079, 60100.36
524.0900, 60221.44
524.5721, 60244.60
525.0543, 60151.66
525.5364, 60050.33
526.0185, 60076.11
526.5006, 60194.85
526.9827, 60274.50
527.4648, 60265.86
527.9470, 60229.35
528.4291, 60254.23
528.9112, 60318.41
529.3933, 60349.27
529.8754, 60249.28
530.3575, 60141.02
530.8397, 60141.26
531.3218, 60271.16
531.8039, 60362.73
532.2860, 60303.41
532.7681, 60200.54
533.2502, 60146.12
533.7324, 60201.59
534.2145, 60255.28
534.6966, 60296.44
535.1787, 60329.11
535.6608, 60362.14
536.1429, 60403.29
536.6251, 60434.50
537.1072, 60447.99
537.5893, 60443.45
538.0714, 60438.66
538.5535, 60429.77
539.0356, 60431.02
539.5178, 60453.13
539.9999, 60495.98
540.4820, 60565.21
540.9641, 60671.23
541.4462, 60780.58
541.9283, 60829.81
542.4105, 60834.51
542.8926, 60858.60
543.3747, 60948.05
543.8568, 61064.56
544.3389, 61176.77
544.8210, 61282.70
545.3032, 61364.86
545.7853, 61400.25
546.2674, 61416.62
546.7495, 61436.04
547.2316, 61457.69
547.7137, 61493.45
548.1959, 61546.95
548.6780, 61617.30
549.1601, 61703.94
549.6422, 61854.55
550.1243, 61956.39
550.6064, 61956.14
551.0886, 61864.82
551.5707, 61876.06
552.0528, 62020.38
552.5349, 62189.72
553.0170, 62308.28
553.4991, 62376.63
553.9813, 62454.47
554.4634, 62546.54
554.9455, 62646.65
555.4276, 62736.54
555.9097, 62824.38
556.3918, 62943.09
556.8740, 63135.80
557.3561, 63337.74
557.8382, 63458.58
558.3203, 63517.48
558.8024, 63601.15
559.2845, 63780.61
559.7667, 63985.98
560.2488, 64162.95
560.7309, 64292.00
561.2130, 64451.33
561.6951, 64681.71
562.1772, 64942.52
562.6594, 65193.63
563.1415, 65420.37
563.6236, 65650.86
564.1057, 65898.21
564.5878, 66147.22
565.0699, 66333.69
565.5521, 66432.91
566.0342, 66544.80
566.5163, 66717.49
566.9984, 66946.96
567.4805, 67170.16
567.9626, 67386.63
568.4448, 67601.30
568.9269, 67852.21
569.4090, 68108.72
569.8911, 68273.80
570.3732, 68316.36
570.8553, 68302.58
571.3375, 68296.80
571.8196, 68284.03
572.3017, 68232.96
572.7838, 68110.27
573.2659, 67963.57
573.7480, 67818.52
574.2302, 67674.80
574.7123, 67504.52
575.1944, 67302.65
575.6765, 67073.38
576.1586, 66810.41
576.6407, 66478.44
577.1228, 66213.13
577.6049, 66041.31
578.0870, 65915.55
578.5692, 65777.10
579.0513, 65622.72
579.5334, 65474.81
580.0155, 65330.77
580.4976, 65201.06
580.9797, 65125.17
581.4619, 65100.21
581.9440, 65080.69
582.4261, 65034.59
582.9082, 64977.06
583.3903, 64947.29
583.8724, 64945.31
584.3546, 64916.04
584.8367, 64751.42
585.3188, 64570.59
585.8009, 64505.99
586.2830, 64672.50
586.7651, 64809.54
587.2473, 64790.13
587.7294, 64690.01
588.2115, 64639.89
588.6936, 64724.59
589.1757, 64779.92
589.6578, 64751.66
590.1400, 64656.34
590.6221, 64655.83
591.1042, 64793.29
591.5863, 64925.76
592.0684, 64962.55
592.5505, 64905.31
593.0327, 64868.77
593.5148, 64854.63
593.9969, 64866.48
594.4790, 64932.93
594.9611, 65029.89
595.4432, 65083.98
595.9254, 65049.13
596.4075, 65012.33
596.8896, 65072.11
597.3717, 65196.05
597.8538, 65306.33
598.3359, 65353.34
598.8181, 65391.94
599.3002, 65453.98
599.7823, 65540.91
600.2644, 65610.61
600.7465, 65638.71
601.2286, 65660.92
601.7108, 65689.44
602.1929, 65701.72
602.6750, 65786.77
603.1571, 65974.09
603.6392, 66193.98
604.1213, 66358.26
604.6035, 66467.23
605.0856, 66526.35
605.5677, 66517.21
606.0498, 66484.54
606.5319, 66518.45
607.0140, 66611.51
607.4962, 66723.21
607.9783, 66853.18
608.4604, 66977.33
608.9425, 67071.29
609.4246, 67133.42
609.9067, 67177.57
610.3889, 67177.88
610.8710, 67182.79
611.3531, 67233.48
611.8352, 67373.64
612.3173, 67485.69
612.7994, 67544.64
613.2816, 67575.12
613.7637, 67608.56
614.2458, 67665.23
614.7279, 67677.65
615.2100, 67616.80
615.6921, 67515.09
616.1743, 67482.13
616.6564, 67524.03
617.1385, 67550.59
617.6206, 67497.51
618.1027, 67395.48
618.5848, 67323.17
619.0670, 67280.28
619.5491, 67256.70
620.0312, 67274.04
620.5133, 67291.53
620.9954, 67248.27
621.4775, 67100.54
621.9597, 66986.93
622.4418, 66997.84
622.9239, 67067.28
623.4060, 67115.20
623.8881, 67131.61
624.3702, 67119.43
624.8524, 67067.10
625.3345, 66987.38
625.8166, 66921.83
626.2987, 66877.92
626.7808, 66830.23
627.2629, 66761.66
627.7451, 66678.98
628.2272, 66639.13
628.7093, 66645.54
629.1914, 66652.31
629.6735, 66600.86
630.1556, 66529.07
630.6378, 66526.27
631.1199, 66617.02
631.6020, 66697.34
632.0841, 66681.22
632.5662, 66610.64
633.0483, 66537.79
633.5305, 66441.05
634.0126, 66389.09
634.4947, 66436.38
634.9768, 66540.90
635.4589, 66592.05
635.9410, 66572.98
636.4232, 66516.96
636.9053, 66410.55
637.3874, 66262.56
637.8695, 66195.44
638.3516, 66223.15
638.8337, 66263.33
639.3159, 66264.92
639.7980, 66233.33
640.2801, 66186.77
640.7622, 66125.41
641.2443, 66067.98
641.7264, 66021.02
642.2086, 65995.56
642.6907, 66015.50
643.1728, 66117.19
643.6549, 66208.73
644.1370, 66218.41
644.6191, 66192.20
645.1013, 66205.34
645.5834, 66310.52
646.0655, 66414.89
646.5476, 66496.77
647.0297, 66560.69
647.5118, 66637.95
647.9940, 66733.95
648.4761, 66820.23
648.9582, 66871.75
649.4403, 66892.45
649.9224, 66951.12
650.4045, 67049.05
650.8867, 67149.06
651.3688, 67226.55
651.8509, 67283.20
652.3330, 67312.18
652.8151, 67303.16
653.2972, 67321.91
653.7794, 67453.62
654.2615, 67629.93
654.7436, 67764.75
655.2257, 67814.72
655.7078, 67844.92
656.1899, 67876.47
656.6721, 67897.59
657.1542, 67878.84
657.6363, 67798.66
658.1184, 67716.82
658.6005, 67646.07
659.0826, 67584.73
659.5648, 67536.44
660.0469, 67503.61
660.5290, 67457.91
661.0111, 67363.82
661.4932, 67246.89
661.9753, 67170.38
662.4575, 67138.08
662.9396, 67134.16
663.4217, 67156.64
663.9038, 67198.50
664.3859, 67250.16
664.8680, 67303.91
665.3502, 67384.24
665.8323, 67549.18
666.3144, 67725.11
666.7965, 67814.34
667.2786, 67747.95
667.7607, 67691.28
668.2429, 67640.20
668.7250, 67612.89
669.2071, 67677.41
669.6892, 67845.50
670.1713, 67989.87
670.6534, 68063.86
671.1356, 68078.05
671.6177, 68049.78
672.0998, 67983.31
672.5819, 67910.92
673.0640, 67857.13
673.5461, 67809.38
674.0283, 67766.80
674.5104, 67732.83
674.9925, 67666.51
675.4746, 67485.02
675.9567, 67314.55
676.4388, 67254.66
676.9210, 67401.18
677.4031, 67487.87
677.8852, 67489.55
678.3673, 67455.44
678.8494, 67431.44
679.3315, 67411.54
679.8137, 67436.83
680.2958, 67528.53
680.7779, 67635.53
681.2600, 67648.20
681.7421, 67591.63
682.2242, 67579.54
682.7064, 67717.08
683.1885, 67871.95
683.6706, 67905.73
684.1527, 67844.70
684.6348, 67786.16
685.1169, 67764.30
685.5991, 67760.95
686.0812, 67778.83
686.5633, 67822.69
687.0454, 67839.79
687.5275, 67806.80
688.0096, 67784.13
688.4918, 67814.83
688.9739, 67906.42
689.4560, 67977.02
689.9381, 68023.77
690.4202, 68056.38
690.9023, 68089.26
691.3845, 68115.12
691.8666, 68105.27
692.3487, 68038.49
692.8308, 67985.36
693.3129, 68022.64
693.7950, 68106.23
694.2772, 68172.66
694.7593, 68200.91
695.2414, 68209.25
695.7235, 68183.29
696.2056, 68141.73
696.6877, 68132.99
697.1699, 68171.29
697.6520, 68220.62
698.1341, 68283.36
698.6162, 68350.81
699.0983, 68373.95
699.5804, 68352.70
700.0626, 68318.19
700.5447, 68273.06
701.0268, 68232.61
701.5089, 68226.77
701.9910, 68255.14
702.4731, 68302.20
702.9553, 68401.19
703.4374, 68485.51
703.9195, 68488.06
704.4016, 68374.60
704.8837, 68282.89
705.3658, 68223.66
705.8480, 68205.12
706.3301, 68240.41
706.8122, 68354.77
707.2943, 68451.95
707.7764, 68534.74
708.2585, 68585.70
708.7407, 68565.52
709.2228, 68483.93
709.7049, 68403.88
710.1870, 68335.26
710.6691, 68288.52
711.1512, 68282.84
711.6334, 68308.13
712.1155, 68342.02
712.5976, 68383.74
713.0797, 68423.71
713.5618, 68456.64
714.0439, 68483.23
714.5261, 68506.84
715.0082, 68516.61
715.4903, 68536.08
715.9724, 68573.70
716.4545, 68626.80
716.9366, 68675.32
717.4188, 68716.31
717.9009, 68766.30
718.3829, 68867.32
718.8651, 68982.80
719.3472, 68979.42
719.8293, 68856.59
720.3114, 68754.51
720.7935, 68789.12
721.2756, 68885.61
721.7578, 68978.51
722.2399, 69058.23
722.7220, 69129.44
723.2041, 69214.90
723.6862, 69277.05
724.1683, 69280.44
724.6505, 69188.78
725.1326, 69129.35
725.6147, 69113.49
726.0968, 69119.91
726.5789, 69113.72
727.0610, 69098.97
727.5432, 69117.06
728.0253, 69191.70
728.5074, 69273.98
728.9895, 69299.16
729.4716, 69288.15
729.9537, 69283.81
730.4359, 69307.46
730.9180, 69339.61
731.4001, 69398.17
731.8822, 69462.71
732.3643, 69457.99
732.8464, 69301.13
733.3286, 69194.48
733.8107, 69202.12
734.2928, 69303.74
734.7749, 69387.57
735.2570, 69453.25
735.7391, 69501.80
736.2213, 69523.80
736.7034, 69531.63
737.1855, 69554.43
737.6676, 69591.63
738.1497, 69627.98
738.6318, 69653.80
739.1140, 69677.77
739.5961, 69706.02
740.0782, 69740.23
740.5603, 69783.77
741.0424, 69845.65
741.5245, 69912.60
742.0067, 69977.70
742.4888, 70038.59
742.9709, 70088.10
743.4530, 70108.66
743.9351, 70161.32
744.4172, 70361.21
744.8994, 70655.35
745.3815, 70821.45
745.8636, 70803.29
746.3457, 70739.33
746.8278, 70724.13
747.3099, 70747.56
747.7921, 70799.73
748.2742, 70936.44
748.7563, 71020.53
749.2384, 70996.28
749.7205, 70913.60
750.2026, 70849.63
750.6848, 70793.00
751.1669, 70883.27
751.6490, 70942.93
752.1311, 70973.62
752.6132, 70888.55
753.0953, 70952.95
753.5775, 70957.47
754.0596, 70959.52
754.5417, 71044.95
755.0238, 70976.73
755.5059, 71060.84
755.9880, 71084.15
756.4702, 71135.29
756.9523, 71126.16
757.4344, 71135.64
757.9165, 71205.41
758.3986, 71241.80
758.8807, 71225.73
759.3629, 71278.64
759.8450, 71204.63
760.3271, 71245.82
760.8092, 71248.19
761.2913, 71214.06
761.7734, 71195.98
762.2556, 71240.47
762.7377, 71319.65
763.2198, 71402.23
763.7019, 71486.21
764.1840, 71553.66
764.6661, 71577.43
765.1483, 71595.05
765.6304, 71636.56
766.1125, 71715.16
766.5946, 71742.79
767.0767, 71679.64
767.5588, 71617.13
768.0410, 71629.60
768.5231, 71715.36
769.0052, 71755.47
769.4873, 71738.84
769.9694, 71717.47
770.4515, 71760.91
770.9337, 71826.80
771.4158, 71844.72
771.8979, 71798.64
772.3800, 71725.63
772.8621, 71607.98
773.3442, 71496.14
773.8264, 71440.88
774.3085, 71498.09
774.7906, 71532.87
775.2727, 71541.65
775.7548, 71537.11
776.2369, 71530.91
776.7191, 71524.39
777.2012, 71531.33
777.6833, 71558.88
778.1654, 71585.70
778.6475, 71559.95
779.1296, 71516.63
779.6118, 71529.38
780.0939, 71676.47
780.5760, 71795.69
781.0581, 71803.66
781.5402, 71738.53
782.0223, 71660.77
782.5045, 71543.63
782.9866, 71468.89
783.4687, 71454.45
783.9508, 71480.66
784.4329, 71514.55
784.9150, 71556.27
785.3972, 71582.63
785.8793, 71585.10
786.3614, 71573.40
786.8435, 71535.77
787.3256, 71495.28
787.8077, 71506.79
788.2899, 71670.13
788.7720, 71811.91
789.2541, 71836.88
789.7362, 71778.30
790.2183, 71767.96
790.7004, 71826.80
791.1826, 71895.13
791.6647, 71958.60
792.1468, 72016.20
792.6289, 72060.17
793.1110, 72091.13
793.5931, 72137.00
794.0753, 72256.65
794.5574, 72368.10
795.0395, 72336.53
795.5216, 72199.13
796.0037, 72102.68
796.4858, 72155.79
796.9680, 72220.59
797.4501, 72243.06
797.9322, 72226.54
798.4143, 72186.89
798.8964, 72090.26
799.3785, 72060.95
799.8607, 72191.36
800.3428, 72427.64
800.8249, 72521.55
801.3070, 72483.70
801.7891, 72438.64
802.2712, 72483.63
802.7534, 72548.16
803.2355, 72541.76
803.7176, 72472.37
804.1997, 72450.90
804.6818, 72593.75
805.1639, 72715.05
805.6461, 72725.61
806.1282, 72625.17
806.6103, 72545.77
807.0924, 72485.76
807.5745, 72454.04
808.0566, 72459.55
808.5388, 72497.34
809.0209, 72559.06
809.5030, 72642.90
809.9851, 72723.37
810.4672, 72782.02
810.9493, 72830.48
811.4315, 72877.97
811.9136, 72925.00
812.3957, 72966.00
812.8778, 72985.43
813.3599, 73013.88
813.8420, 73070.24
814.3242, 73156.24
814.8063, 73229.20
815.2884, 73290.76
815.7705, 73323.68
816.2526, 73273.40
816.7347, 73198.66
817.2169, 73240.34
817.6990, 73402.73
818.1811, 73521.58
818.6632, 73443.24
819.1453, 73333.33
819.6274, 73315.02
820.1096, 73427.00
820.5917, 73476.66
821.0738, 73424.99
821.5559, 73377.69
822.0380, 73411.30
822.5201, 73519.19
823.0023, 73600.48
823.4844, 73653.55
823.9665, 73696.52
824.4486, 73716.30
824.9307, 73748.48
825.4128, 73861.58
825.8950, 74070.16
826.3771, 74211.00
826.8592, 74150.64
827.3413, 74068.56
827.8234, 74073.68
828.3055, 74181.20
828.7877, 74269.87
829.2698, 74340.52
829.7519, 74388.66
830.2340, 74396.76
830.7161, 74380.68
831.1982, 74402.91
831.6804, 74466.32
832.1625, 74494.80
832.6446, 74383.43
833.1267, 74250.96
833.6088, 74199.85
834.0909, 74259.72
834.5731, 74296.03
835.0552, 74271.05
835.5373, 74255.43
836.0194, 74298.12
836.5015, 74400.18
836.9836, 74464.93
837.4658, 74488.93
837.9479, 74505.91
838.4300, 74537.48
838.9121, 74581.29
839.3942, 74642.49
839.8763, 74721.01
840.3585, 74784.34
840.8406, 74827.83
841.3227, 74842.66
841.8048, 74800.01
842.2869, 74685.82
842.7690, 74690.43
843.2512, 74856.54
843.7333, 75016.87
844.2154, 75031.13
844.6975, 74944.73
845.1796, 74973.60
845.6617, 75113.97
846.1439, 75237.47
846.6260, 75235.22
847.1081, 75192.30
847.5902, 75167.20
848.0723, 75164.84
848.5544, 75192.73
849.0366, 75298.03
849.5187, 75373.35
850.0008, 75354.78
850.4829, 75251.66
850.9650, 75237.36
851.4471, 75318.67
851.9293, 75382.66
852.4114, 75312.89
852.8935, 75205.00
853.3756, 75190.81
853.8577, 75268.40
854.3398, 75376.91
854.8220, 75555.73
855.3041, 75697.95
855.7862, 75729.30
856.2683, 75662.63
856.7504, 75633.70
857.2325, 75648.69
857.7147, 75672.65
858.1968, 75675.88
858.6789, 75678.75
859.1610, 75741.13
859.6431, 75858.70
860.1252, 76005.12
860.6073, 76220.27
861.0894, 76410.27
861.5715, 76505.70
862.0536, 76516.85
862.5358, 76531.30
863.0179, 76586.84
863.5000, 76592.27
863.9821, 76487.91
864.4642, 76328.91
864.9464, 76336.55
865.4285, 76496.93
865.9106, 76616.92
866.3927, 76573.64
866.8748, 76480.80
867.3569, 76450.67
867.8391, 76470.05
868.3212, 76499.02
868.8033, 76552.84
869.2854, 76582.55
869.7675, 76552.63
870.2496, 76502.98
870.7318, 76544.10
871.2139, 76689.41
871.6960, 76815.24
872.1781, 76883.52
872.6602, 76921.27
873.1423, 76957.88
873.6245, 76996.41
874.1066, 77045.83
874.5887, 77126.95
875.0708, 77193.55
875.5529, 77193.68
876.0350, 77176.81
876.5172, 77232.03
876.9993, 77400.42
877.4814, 77516.00
877.9635, 77549.79
878.4456, 77537.94
878.9277, 77516.09
879.4099, 77494.26
879.8920, 77509.32
880.3741, 77586.01
880.8562, 77656.16
881.3383, 77666.32
881.8204, 77648.90
882.3026, 77639.59
882.7847, 77644.05
883.2668, 77661.33
883.7489, 77708.85
884.2310, 77740.91
884.7131, 77666.42
885.1953, 77512.34
885.6774, 77521.60
886.1595, 77735.76
886.6416, 77942.77
887.1237, 77924.61
887.6058, 77826.75
888.0880, 77804.94
888.5701, 77905.82
889.0522, 77982.30
889.5343, 77986.74
890.0164, 77994.63
890.4985, 78052.16
890.9807, 78159.67
891.4628, 78290.43
891.9449, 78445.61
892.4270, 78558.72
892.9091, 78517.44
893.3912, 78435.60
893.8734, 78472.96
894.3555, 78627.79
894.8376, 78747.48
895.3197, 78754.80
895.8018, 78737.48
896.2839, 78727.58
896.7661, 78725.08
897.2482, 78746.50
897.7303, 78803.38
898.2124, 78795.62
898.6945, 78616.50
899.1766, 78386.95
899.6588, 78321.76
900.1409, 78384.98
900.6230, 78444.22
901.1051, 78387.80
901.5872, 78375.28
902.0693, 78527.16
902.5515, 78763.53
903.0336, 78886.77
903.5157, 78876.35
903.9978, 78821.89
904.4799, 78719.02
904.9620, 78626.54
905.4442, 78679.39
905.9263, 78824.40
906.4084, 78928.34
906.8905, 78936.06
907.3726, 78906.64
907.8547, 78806.40
908.3369, 78711.15
908.8190, 78738.83
909.3011, 78985.91
909.7832, 79086.10
910.2653, 78974.17
910.7474, 78816.60
911.2296, 78848.93
911.7117, 78998.99
912.1938, 79054.42
912.6759, 78963.77
913.1580, 78884.29
913.6401, 78929.79
914.1223, 79018.04
914.6044, 79089.45
915.0865, 79151.76
915.5686, 79130.04
916.0507, 78981.06
916.5328, 78855.88
917.0150, 78892.96
917.4971, 79047.02
917.9792, 79149.27
918.4613, 79199.05
918.9434, 79221.88
919.4255, 79197.63
919.9077, 79184.54
920.3898, 79221.33
920.8719, 79310.05
921.3540, 79420.81
921.8361, 79553.65
922.3182, 79702.70
922.8004, 79877.20
923.2825, 80053.80
923.7646, 80165.12
924.2467, 80214.46
924.7288, 80236.45
925.2109, 80190.43
925.6931, 80179.53
926.1752, 80331.00
926.6573, 80558.31
927.1394, 80670.63
927.6215, 80614.23
928.1036, 80507.24
928.5858, 80320.32
929.0679, 80161.38
929.5500, 80258.81
930.0321, 80546.88
930.5142, 80709.00
930.9963, 80656.13
931.4785, 80573.70
931.9606, 80613.77
932.4427, 80691.45
932.9248, 80713.55
933.4069, 80621.23
933.8890, 80595.57
934.3712, 80658.23
934.8533, 80743.48
935.3354, 80811.88
935.8175, 80860.04
936.2996, 80844.88
936.7817, 80770.33
937.2639, 80755.72
937.7460, 80988.35
938.2281, 81222.61
938.7102, 81227.08
939.1923, 81000.80
939.6744, 80977.62
940.1566, 81271.77
940.6387, 81550.61
941.1208, 81702.11
941.6029, 81750.75
942.0850, 81722.34
942.5671, 81641.57
943.0493, 81627.66
943.5314, 81808.30
944.0135, 81988.39
944.4956, 82031.52
944.9777, 81995.95
945.4598, 81996.71
945.9420, 82046.50
946.4241, 82129.73
946.9062, 82268.03
947.3883, 82395.95
947.8704, 82367.59
948.3525, 82253.91
948.8347, 82322.93
949.3168, 82668.18
949.7989, 82935.76
950.2810, 82781.12
950.7631, 82526.73
951.2452, 82463.77
951.7274, 82648.52
952.2095, 82788.27
952.6916, 82879.77
953.1737, 82930.82
953.6558, 82912.23
954.1379, 82862.55
954.6201, 82920.49
955.1022, 83066.91
955.5843, 83166.16
956.0664, 83056.16
956.5485, 82966.59
957.0306, 83054.34
957.5128, 83269.18
957.9949, 83411.90
958.4770, 83487.02
958.9591, 83450.29
959.4412, 83229.61
959.9233, 82996.46
960.4055, 83107.31
960.8876, 83421.06
961.3697, 83611.67
961.8518, 83496.13
962.3339, 83378.62
962.8160, 83370.48
963.2982, 83412.70
963.7803, 83440.13
964.2624, 83439.59
964.7445, 83510.72
965.2266, 83672.91
965.7087, 83819.47
966.1909, 83878.91
966.6730, 83841.56
967.1551, 83619.43
967.6372, 83214.20
968.1193, 82964.09
968.6014, 83166.09
969.0836, 83375.48
969.5657, 83393.93
970.0478, 83259.18
970.5299, 83206.87
971.0120, 83237.10
971.4941, 83314.57
971.9763, 83462.23
972.4584, 83603.41
972.9405, 83622.54
973.4226, 83570.23
973.9047, 83549.27
974.3868, 83611.51
974.8690, 83677.08
975.3511, 83732.61
975.8332, 83790.25
976.3153, 83865.88
976.7974, 83958.29
977.2795, 84070.52
977.7617, 84206.54
978.2438, 84318.47
978.7259, 84336.92
979.2080, 84326.82
979.6901, 84348.01
980.1722, 84412.48
980.6544, 84472.24
981.1365, 84509.36
981.6186, 84576.21
982.1007, 84718.88
982.5828, 84906.86
983.0649, 85034.74
983.5471, 85109.04
984.0292, 85159.13
984.5113, 85178.65
984.9934, 85201.45
985.4755, 85240.76
985.9576, 85299.01
986.4398, 85374.13
986.9219, 85458.50
987.4040, 85592.63
987.8861, 85797.88
988.3682, 86010.75
988.8503, 86133.20
989.3325, 86207.51
989.8146, 86324.88
990.2967, 86513.86
990.7788, 86676.29
991.2609, 86726.86
991.7430, 86779.99
992.2252, 86913.58
992.7073, 87129.55
993.1894, 87286.89
993.6715, 87380.35
994.1536, 87491.75
994.6357, 87685.83
995.1179, 87916.20
995.6000, 88115.91
996.0821, 88300.66
996.5642, 88513.16
997.0463, 88836.59
997.5284, 89087.79
998.0106, 89213.57
998.4927, 89283.05
998.9748, 89424.53
999.4569, 89623.70
999.9390, 89760.90
1000.421, 89803.30
1000.903, 89842.02
1001.385, 89984.39
1001.867, 90133.41
1002.350, 90191.75
1002.832, 90125.47
1003.314, 90073.58
1003.796, 90033.72
1004.278, 90016.27
1004.760, 90065.48
1005.242, 90129.27
1005.724, 90014.05
1006.206, 89772.31
1006.689, 89615.37
1007.171, 89812.37
1007.653, 89929.36
1008.135, 89687.61
1008.617, 89294.65
1009.099, 89113.13
1009.581, 89171.55
1010.063, 89205.79
1010.546, 89173.56
1011.028, 89117.26
1011.510, 89071.84
1011.992, 89035.11
1012.474, 89012.02
1012.956, 89009.23
1013.438, 88971.84
1013.920, 88849.63
1014.402, 88747.04
1014.885, 88722.21
1015.367, 88757.91
1015.849, 88773.30
1016.331, 88767.52
1016.813, 88731.01
1017.295, 88612.44
1017.777, 88509.73
1018.259, 88499.81
1018.742, 88550.94
1019.224, 88601.82
1019.706, 88669.19
1020.188, 88672.95
1020.670, 88586.79
1021.152, 88493.63
1021.634, 88510.35
1022.116, 88584.41
1022.598, 88605.94
1023.081, 88556.91
1023.563, 88528.55
1024.045, 88571.91
1024.527, 88628.51
1025.009, 88672.86
1025.491, 88704.13
1025.973, 88727.14
1026.455, 88740.88
1026.938, 88729.66
1027.420, 88676.88
1027.902, 88610.28
1028.384, 88562.38
1028.866, 88519.41
1029.348, 88457.70
1029.830, 88348.38
1030.312, 88270.77
1030.794, 88234.38
1031.277, 88221.84
1031.759, 88229.40
1032.241, 88247.21
1032.723, 88227.13
1033.205, 88171.09
1033.687, 88149.44
1034.169, 88248.58
1034.651, 88342.59
1035.134, 88337.09
1035.616, 88269.80
1036.098, 88322.66
1036.580, 88511.02
1037.062, 88603.63
1037.544, 88496.81
1038.026, 88348.72
1038.508, 88365.55
1038.990, 88454.20
1039.473, 88482.50
1039.955, 88391.75
1040.437, 88303.69
1040.919, 88206.05
1041.401, 88153.85
1041.883, 88228.35
1042.365, 88389.71
1042.847, 88439.94
1043.329, 88390.67
1043.812, 88320.91
1044.294, 88232.98
1044.776, 88186.05
1045.258, 88245.69
1045.740, 88360.39
1046.222, 88407.00
1046.704, 88369.52
1047.186, 88370.70
1047.669, 88437.98
1048.151, 88512.93
1048.633, 88511.12
1049.115, 88488.11
1049.597, 88509.95
1050.079, 88585.48
1050.561, 88724.15
1051.043, 88976.84
1051.526, 89202.52
1052.008, 89330.47
1052.490, 89386.89
1052.972, 89471.17
1053.454, 89568.27
1053.936, 89616.00
1054.418, 89532.05
1054.900, 89459.29
1055.382, 89471.77
1055.865, 89529.20
1056.347, 89593.81
1056.829, 89681.73
1057.311, 89653.81
1057.793, 89490.79
1058.275, 89325.41
1058.757, 89293.80
1059.239, 89313.68
1059.721, 89316.57
1060.204, 89294.66
1060.686, 89204.24
1061.168, 88968.91
1061.650, 88809.92
1062.132, 88816.38
1062.614, 88876.41
1063.096, 88703.62
1063.578, 88396.73
1064.061, 88283.04
1064.543, 88490.75
1065.025, 88689.57
1065.507, 88713.20
1065.989, 88664.02
1066.471, 88606.16
1066.953, 88538.91
1067.435, 88534.73
1067.917, 88594.44
1068.400, 88640.52
1068.882, 88600.37
1069.364, 88550.47
1069.846, 88538.76
1070.328, 88575.39
1070.810, 88695.95
1071.292, 89013.35
1071.774, 89157.88
1072.256, 89056.42
1072.739, 88895.69
1073.221, 88888.32
1073.703, 88970.09
1074.185, 89005.57
1074.667, 88986.59
1075.149, 88967.11
1075.631, 88957.01
1076.113, 88972.60
1076.595, 89045.48
1077.078, 89137.91
1077.560, 89114.80
1078.042, 88994.55
1078.524, 88925.19
1079.006, 88954.85
1079.488, 89022.80
1079.970, 89127.22
1080.452, 89218.17
1080.935, 89226.37
1081.417, 89130.11
1081.899, 89117.54
1082.381, 89196.34
1082.863, 89302.52
1083.345, 89403.78
1083.827, 89501.50
1084.309, 89584.73
1084.792, 89665.32
1085.274, 89774.67
1085.756, 89970.80
1086.238, 90119.46
1086.720, 90199.90
1087.202, 90247.73
1087.684, 90298.73
1088.166, 90351.46
1088.648, 90402.11
1089.130, 90450.80
1089.613, 90483.73
1090.095, 90443.80
1090.577, 90445.84
1091.059, 90576.48
1091.541, 90778.88
1092.023, 90893.73
1092.505, 90921.82
1092.987, 90961.59
1093.470, 91033.19
1093.952, 91127.79
1094.434, 91272.02
1094.916, 91410.28
1095.398, 91473.59
1095.880, 91439.23
1096.362, 91449.53
1096.844, 91513.05
1097.327, 91583.77
1097.809, 91652.66
1098.291, 91701.80
1098.773, 91662.91
1099.255, 91587.23
1099.737, 91583.09
1100.219, 91800.59
1100.701, 91904.25
1101.183, 91808.31
1101.666, 91700.30
1102.148, 91771.15
1102.630, 91973.83
1103.112, 92124.38
1103.594, 92217.10
1104.076, 92268.35
1104.558, 92202.95
1105.040, 92190.26
1105.522, 92344.17
1106.005, 92570.93
1106.487, 92714.20
1106.969, 92773.38
1107.451, 92766.48
1107.933, 92683.51
1108.415, 92658.34
1108.897, 92917.05
1109.379, 93199.22
1109.862, 93247.29
1110.344, 93062.38
1110.826, 92999.33
1111.308, 93081.81
1111.790, 93168.75
1112.272, 93224.41
1112.754, 93238.13
1113.236, 93125.41
1113.719, 92985.58
1114.201, 92983.38
1114.683, 93227.91
1115.165, 93385.74
1115.647, 93415.47
1116.129, 93403.21
1116.611, 93360.08
1117.093, 93329.90
1117.575, 93488.28
1118.057, 93772.22
1118.540, 93979.67
1119.022, 93989.97
1119.504, 93957.66
1119.986, 93870.57
1120.468, 93810.63
1120.950, 93878.94
1121.432, 94063.82
1121.914, 94243.54
1122.397, 94414.96
1122.879, 94596.02
1123.361, 94817.76
1123.843, 95034.36
1124.325, 95228.18
1124.807, 95395.93
1125.289, 95511.06
1125.771, 95566.62
1126.254, 95673.15
1126.736, 95847.21
1127.218, 96073.54
1127.700, 96377.43
1128.182, 96694.03
1128.664, 96953.26
1129.146, 97143.82
1129.628, 97378.14
1130.110, 97667.97
1130.593, 97933.08
1131.075, 98143.48
1131.557, 98321.55
1132.039, 98476.69
1132.521, 98629.19
1133.003, 98808.64
1133.485, 99022.04
1133.967, 99284.34
1134.449, 99622.76
1134.932, 99960.33
1135.414, 100269.1
1135.896, 100542.7
1136.378, 100708.4
1136.860, 100828.7
1137.342, 101064.1
1137.824, 101593.4
1138.306, 102072.2
1138.789, 102433.2
1139.271, 102757.9
1139.753, 103081.9
1140.235, 103422.7
1140.717, 103906.6
1141.199, 104519.1
1141.681, 105117.0
1142.163, 105612.6
1142.646, 106096.2
1143.128, 106603.3
1143.610, 107127.9
1144.092, 107690.1
1144.574, 108284.9
1145.056, 108764.9
1145.538, 109119.5
1146.020, 109497.8
1146.502, 110052.2
1146.984, 110643.5
1147.467, 111161.7
1147.949, 111641.9
1148.431, 112182.9
1148.913, 112785.0
1149.395, 113415.8
1149.877, 114080.3
1150.359, 114682.8
1150.841, 115110.0
1151.324, 115436.5
1151.806, 115734.5
1152.288, 116006.5
1152.770, 116195.3
1153.252, 116308.2
1153.734, 116263.1
1154.216, 115976.4
1154.698, 115613.4
1155.181, 115430.1
1155.663, 115291.0
1156.145, 114993.0
1156.627, 114425.8
1157.109, 113917.1
1157.591, 113494.4
1158.073, 113052.6
1158.555, 112544.4
1159.037, 111974.0
1159.520, 111306.3
1160.002, 110589.0
1160.484, 109928.9
1160.966, 109367.2
1161.448, 108857.5
1161.930, 108411.3
1162.412, 107979.5
1162.894, 107494.5
1163.376, 106994.3
1163.859, 106585.3
1164.341, 106257.6
1164.823, 105962.9
1165.305, 105704.6
1165.787, 105451.5
1166.269, 105174.3
1166.751, 104938.6
1167.233, 104838.2
1167.716, 104842.9
1168.198, 104870.8
1168.680, 104908.9
1169.162, 104891.0
1169.644, 104685.2
1170.126, 104535.6
1170.608, 104516.1
1171.090, 104586.6
1171.573, 104728.2
1172.055, 104901.9
1172.537, 104891.0
1173.019, 104653.5
1173.501, 104398.5
1173.983, 104295.6
1174.465, 104150.4
1174.947, 103846.9
1175.429, 103442.6
1175.911, 103137.0
1176.394, 102916.6
1176.876, 102694.9
1177.358, 102450.8
1177.840, 102190.1
1178.322, 101842.6
1178.804, 101549.9
1179.286, 101460.3
1179.768, 101524.6
1180.251, 101283.0
1180.733, 100762.1
1181.215, 100408.0
##END=



