##NAMES=Rhodochrosite
##RRUFFID=R050019
##IDEAL CHEMISTRY=Mn^2+^CO_3_
##LOCALITY=Home Sweet Home mine, Colorado, USA
##OWNER=RRUFF
##SOURCE=Eugene Schlepp
##DESCRIPTION=Pink single crystal rhombs on quartz
##STATUS=The identification of this mineral has been confirmed by X-ray diffraction and chemical analysis
##URL=rruff.info/R050019
##MEASURED CHEMISTRY=Mn_1.00_CO_3_
108.9665, 9.804624
109.4486, 9.590351
109.9307, 8.720998
110.4128, 8.041943
110.8950, 7.850038
111.3771, 8.004680
111.8592, 8.131326
112.3413, 8.063771
112.8234, 8.428120
113.3055, 9.770152
113.7877, 12.00672
114.2698, 14.43123
114.7519, 17.32994
115.2340, 19.86367
115.7161, 21.00122
116.1982, 20.33468
116.6804, 19.10755
117.1625, 18.28993
117.6446, 17.83427
118.1267, 18.15576
118.6088, 20.41474
119.0909, 23.10584
119.5731, 25.00243
120.0552, 25.70093
120.5373, 25.70289
121.0194, 25.46977
121.5015, 24.52615
121.9836, 24.77410
122.4658, 28.28736
122.9479, 32.55274
123.4300, 34.87170
123.9121, 33.85855
124.3942, 31.21829
124.8763, 31.19672
125.3585, 35.55422
125.8406, 39.65261
126.3227, 42.56749
126.8048, 44.63058
127.2869, 46.12733
127.7690, 47.11684
128.2512, 47.80742
128.7333, 48.97431
129.2154, 50.34451
129.6975, 52.67216
130.1796, 56.15598
130.6617, 60.60859
131.1439, 65.91803
131.6260, 72.12734
132.1081, 79.02768
132.5902, 84.97089
133.0723, 88.06049
133.5544, 92.12270
134.0366, 99.34230
134.5187, 107.9621
135.0008, 114.9213
135.4829, 118.0365
135.9650, 117.4815
136.4471, 116.6486
136.9293, 115.6310
137.4114, 114.2810
137.8935, 112.1514
138.3756, 109.6080
138.8577, 107.4842
139.3398, 106.4654
139.8220, 106.5691
140.3041, 106.0863
140.7862, 105.2233
141.2683, 103.7492
141.7504, 100.3274
142.2325, 95.82938
142.7147, 93.25026
143.1968, 95.29287
143.6789, 102.0932
144.1610, 106.8552
144.6431, 108.1884
145.1252, 108.9035
145.6074, 110.2848
146.0895, 112.4480
146.5716, 115.2253
147.0537, 118.3783
147.5358, 122.0442
148.0179, 127.0627
148.5001, 133.8252
148.9822, 141.5991
149.4643, 150.5017
149.9464, 160.4634
150.4285, 169.8183
150.9106, 177.2312
151.3928, 182.6818
151.8749, 187.6463
152.3570, 194.7937
152.8391, 199.9033
153.3212, 198.0412
153.8033, 188.6928
154.2855, 177.5151
154.7676, 167.7693
155.2497, 159.6687
155.7318, 154.2293
156.2139, 154.2306
156.6960, 155.6994
157.1782, 153.1805
157.6603, 145.7307
158.1424, 139.0272
158.6245, 138.6903
159.1066, 142.6190
159.5887, 146.0317
160.0709, 146.1224
160.5530, 145.6232
161.0351, 149.2621
161.5172, 158.2659
161.9993, 167.1179
162.4814, 171.5348
162.9636, 172.9940
163.4457, 173.8316
163.9278, 173.1000
164.4099, 172.6974
164.8920, 176.9071
165.3741, 187.4278
165.8563, 197.7706
166.3384, 201.9147
166.8205, 203.2564
167.3026, 207.7898
167.7847, 219.8817
168.2668, 236.1082
168.7490, 248.7296
169.2311, 256.2525
169.7132, 263.6316
170.1953, 274.0884
170.6774, 286.0780
171.1595, 297.1574
171.6417, 305.7872
172.1238, 312.9683
172.6059, 321.1482
173.0880, 330.4737
173.5701, 340.6174
174.0522, 351.0206
174.5344, 362.1631
175.0165, 374.5879
175.4986, 388.3863
175.9807, 403.8001
176.4628, 420.8173
176.9449, 436.2480
177.4271, 460.0929
177.9092, 497.6372
178.3913, 543.9989
178.8734, 592.4264
179.3555, 639.5575
179.8376, 687.3727
180.3197, 742.2733
180.8019, 805.5981
181.2840, 874.4915
181.7661, 952.2325
182.2482, 1032.867
182.7303, 1112.235
183.2124, 1192.912
183.6946, 1263.894
184.1767, 1293.042
184.6588, 1271.232
185.1409, 1218.122
185.6230, 1130.915
186.1051, 1024.781
186.5873, 914.0308
187.0694, 803.6354
187.5515, 697.2249
188.0336, 601.4357
188.5157, 515.2578
188.9978, 445.0241
189.4800, 395.2264
189.9621, 358.0661
190.4442, 325.4256
190.9263, 294.1219
191.4084, 265.4032
191.8905, 242.5783
192.3727, 227.7218
192.8548, 215.5369
193.3369, 205.4053
193.8190, 196.7744
194.3011, 189.2359
194.7832, 182.6373
195.2654, 176.7872
195.7475, 171.2161
196.2296, 165.1932
196.7117, 160.9228
197.1938, 159.3611
197.6759, 158.9567
198.1581, 158.7322
198.6402, 158.3059
199.1223, 157.2831
199.6044, 154.6668
200.0865, 148.9483
200.5686, 144.6829
201.0508, 142.9018
201.5329, 142.0323
202.0150, 140.7922
202.4971, 138.8539
202.9792, 136.9896
203.4613, 136.7756
203.9435, 139.9386
204.4256, 140.7593
204.9077, 136.9184
205.3898, 132.4561
205.8719, 130.5084
206.3540, 131.5038
206.8362, 133.1763
207.3183, 132.1087
207.8004, 126.5109
208.2825, 122.7815
208.7646, 121.6021
209.2467, 121.5272
209.7289, 122.5295
210.2110, 124.1745
210.6931, 125.1292
211.1752, 123.4173
211.6573, 117.7754
212.1395, 114.1886
212.6216, 113.8156
213.1037, 114.3501
213.5858, 114.7942
214.0679, 115.0951
214.5500, 115.7693
215.0322, 117.5645
215.5143, 120.8571
215.9964, 122.6889
216.4785, 122.5894
216.9606, 121.5035
217.4427, 119.1364
217.9249, 115.9604
218.4070, 112.9178
218.8891, 110.6262
219.3712, 109.0593
219.8533, 109.2319
220.3354, 114.0890
220.8176, 117.8779
221.2997, 118.4678
221.7818, 116.7726
222.2639, 114.7347
222.7460, 113.6297
223.2281, 113.4160
223.7103, 113.7460
224.1924, 115.4530
224.6745, 116.8138
225.1566, 117.9009
225.6387, 118.3438
226.1208, 117.2988
226.6030, 114.0352
227.0851, 109.4863
227.5672, 107.7070
228.0493, 111.4661
228.5314, 114.3885
229.0135, 114.7510
229.4957, 113.9812
229.9778, 113.8867
230.4599, 115.3130
230.9420, 117.4019
231.4241, 117.8681
231.9062, 115.0581
232.3884, 113.4845
232.8705, 114.3962
233.3526, 116.2261
233.8347, 117.8133
234.3168, 118.7392
234.7989, 119.0033
235.2811, 118.4964
235.7632, 116.8203
236.2453, 115.2982
236.7274, 112.9645
237.2095, 111.5068
237.6916, 113.2322
238.1738, 118.0684
238.6559, 122.5228
239.1380, 121.1712
239.6201, 111.2751
240.1022, 105.7995
240.5843, 108.4747
241.0665, 112.9701
241.5486, 117.2506
242.0307, 120.7427
242.5128, 123.0602
242.9949, 123.6764
243.4770, 122.4802
243.9592, 120.8535
244.4413, 117.2427
244.9234, 114.7202
245.4055, 115.0881
245.8876, 117.5754
246.3697, 120.0625
246.8519, 120.8323
247.3340, 120.1786
247.8161, 120.8104
248.2982, 124.1054
248.7803, 126.8629
249.2624, 128.2356
249.7446, 128.3641
250.2267, 127.2523
250.7088, 124.3682
251.1909, 120.8252
251.6730, 120.2468
252.1551, 124.6749
252.6373, 127.9029
253.1194, 126.4785
253.6015, 123.5522
254.0836, 122.7320
254.5657, 125.5908
255.0478, 129.9502
255.5300, 132.1351
256.0121, 131.4013
256.4942, 131.3005
256.9763, 133.9925
257.4584, 137.0432
257.9406, 138.0241
258.4227, 136.3267
258.9048, 135.2845
259.3869, 140.1399
259.8690, 151.3507
260.3511, 157.6092
260.8333, 152.6691
261.3154, 145.6163
261.7975, 142.8129
262.2796, 144.4195
262.7617, 147.4322
263.2438, 149.7777
263.7260, 151.7001
264.2081, 154.5836
264.6902, 158.6463
265.1723, 163.6530
265.6544, 169.1191
266.1365, 175.2041
266.6187, 182.5023
267.1008, 193.1050
267.5829, 204.7911
268.0650, 211.7789
268.5471, 212.1518
269.0292, 213.6299
269.5114, 223.1844
269.9935, 237.3442
270.4756, 250.5802
270.9577, 260.3510
271.4398, 269.5337
271.9219, 280.3525
272.4041, 292.7731
272.8862, 309.4198
273.3683, 333.2242
273.8504, 361.6321
274.3325, 389.3958
274.8146, 416.9312
275.2968, 442.7161
275.7789, 463.3403
276.2610, 480.6061
276.7431, 502.4828
277.2252, 532.7043
277.7073, 567.7089
278.1895, 601.7776
278.6716, 634.6068
279.1537, 667.8065
279.6358, 700.8489
280.1179, 734.8347
280.6000, 770.8956
281.0822, 809.1431
281.5643, 850.8173
282.0464, 897.6550
282.5285, 949.3456
283.0106, 1007.020
283.4927, 1071.707
283.9749, 1141.869
284.4570, 1219.634
284.9391, 1304.115
285.4212, 1386.659
285.9033, 1460.099
286.3854, 1523.986
286.8676, 1585.021
287.3497, 1656.044
287.8318, 1712.372
288.3139, 1742.075
288.7960, 1747.487
289.2781, 1735.652
289.7603, 1710.495
290.2424, 1671.177
290.7245, 1613.462
291.2066, 1531.474
291.6887, 1439.901
292.1708, 1334.268
292.6530, 1222.500
293.1351, 1111.688
293.6172, 1004.583
294.0993, 904.8510
294.5814, 820.0330
295.0635, 757.2747
295.5457, 697.0789
296.0278, 637.6030
296.5099, 582.1162
296.9920, 532.9752
297.4741, 490.3865
297.9562, 454.3193
298.4384, 425.4522
298.9205, 405.2423
299.4026, 381.7468
299.8847, 346.4986
300.3668, 316.4928
300.8489, 299.9793
301.3311, 293.2678
301.8131, 287.9090
302.2953, 278.1999
302.7774, 265.4791
303.2595, 257.0461
303.7416, 258.4017
304.2237, 255.8207
304.7058, 243.0359
305.1880, 226.8186
305.6701, 214.1678
306.1522, 207.6704
306.6343, 205.5079
307.1164, 205.7223
307.5985, 209.6257
308.0807, 210.9894
308.5628, 206.2318
309.0449, 200.2693
309.5270, 196.0710
310.0091, 193.8361
310.4912, 191.6814
310.9734, 187.1568
311.4555, 180.6698
311.9376, 177.1551
312.4197, 178.8128
312.9018, 180.8688
313.3839, 180.3901
313.8661, 177.9614
314.3482, 175.0176
314.8303, 171.1363
315.3124, 167.6002
315.7945, 167.7477
316.2766, 172.5211
316.7588, 175.3699
317.2409, 170.8333
317.7230, 162.7084
318.2051, 157.3671
318.6872, 156.5009
319.1693, 156.8833
319.6515, 156.7663
320.1336, 156.0650
320.6157, 153.9910
321.0978, 149.4464
321.5799, 144.7495
322.0620, 144.3360
322.5442, 148.9663
323.0263, 152.1289
323.5084, 150.6415
323.9905, 147.2426
324.4726, 145.4508
324.9547, 145.8499
325.4369, 147.1539
325.9190, 148.3088
326.4011, 149.3049
326.8832, 149.7955
327.3653, 148.8849
327.8474, 148.3068
328.3296, 150.2519
328.8117, 153.5291
329.2938, 154.2080
329.7759, 149.5797
330.2580, 141.2899
330.7401, 136.9575
331.2223, 139.9969
331.7044, 142.7776
332.1865, 145.3883
332.6686, 146.9714
333.1507, 146.1518
333.6328, 142.6661
334.1150, 138.1813
334.5971, 135.0860
335.0792, 133.6013
335.5613, 133.0447
336.0434, 133.8130
336.5255, 135.0341
337.0077, 136.4764
337.4898, 138.0023
337.9719, 139.5330
338.4540, 141.2665
338.9361, 142.9823
339.4182, 142.4870
339.9004, 137.8234
340.3825, 133.8123
340.8646, 130.4839
341.3467, 128.9915
341.8288, 131.8412
342.3109, 140.7822
342.7931, 150.4948
343.2752, 152.0454
343.7573, 144.1108
344.2394, 137.4174
344.7215, 135.2450
345.2036, 134.6754
345.6858, 133.2684
346.1679, 130.9295
346.6500, 129.1510
347.1321, 128.9957
347.6142, 130.1132
348.0963, 131.9559
348.5785, 135.0186
349.0606, 137.0809
349.5427, 135.0053
350.0248, 130.3402
350.5069, 127.7765
350.9890, 130.5423
351.4712, 133.7878
351.9533, 132.5150
352.4354, 127.7271
352.9175, 124.8634
353.3996, 126.7785
353.8817, 131.8533
354.3639, 136.2376
354.8460, 141.0189
355.3281, 143.1900
355.8102, 139.6955
356.2923, 134.3023
356.7744, 131.7952
357.2566, 133.0823
357.7387, 135.4005
358.2208, 135.5402
358.7029, 132.8230
359.1850, 131.7567
359.6671, 133.6917
360.1493, 135.6781
360.6314, 136.9070
361.1135, 137.1317
361.5956, 135.7798
362.0777, 132.2995
362.5598, 127.7074
363.0420, 125.8974
363.5241, 129.6503
364.0062, 131.7349
364.4883, 129.7872
364.9704, 126.9530
365.4525, 125.9554
365.9347, 127.3256
366.4168, 129.5393
366.8989, 131.0054
367.3810, 131.7032
367.8631, 132.1849
368.3452, 132.5672
368.8274, 132.5817
369.3095, 131.3204
369.7916, 129.6008
370.2737, 129.5602
370.7558, 133.8048
371.2379, 138.9814
371.7201, 138.1026
372.2022, 130.3155
372.6843, 124.8986
373.1664, 127.8626
373.6485, 134.1909
374.1306, 135.6853
374.6128, 130.5477
375.0949, 126.2019
375.5770, 128.1068
376.0591, 133.2622
376.5412, 135.2537
377.0233, 132.4982
377.5055, 128.7467
377.9876, 127.8529
378.4697, 130.1909
378.9518, 131.9777
379.4339, 132.7046
379.9160, 133.2877
380.3982, 134.3022
380.8803, 135.6247
381.3624, 136.9443
381.8445, 138.1599
382.3266, 139.0284
382.8087, 138.7902
383.2909, 135.8472
383.7730, 133.8783
384.2551, 132.8818
384.7372, 132.9227
385.2193, 134.8425
385.7014, 138.3080
386.1836, 141.2304
386.6657, 141.2567
387.1478, 138.2325
387.6299, 135.2554
388.1120, 131.7165
388.5941, 128.9741
389.0763, 127.2208
389.5584, 126.5745
390.0405, 127.5131
390.5226, 130.6384
391.0047, 134.2607
391.4868, 135.4754
391.9690, 134.0034
392.4511, 132.7186
392.9332, 132.2812
393.4153, 132.4248
393.8974, 133.0449
394.3795, 134.1235
394.8617, 134.9454
395.3438, 135.3142
395.8259, 135.1538
396.3080, 133.9863
396.7901, 131.6941
397.2722, 129.7868
397.7544, 129.3290
398.2365, 130.1929
398.7186, 131.2856
399.2007, 133.8534
399.6828, 135.2566
400.1649, 132.7183
400.6471, 128.7461
401.1292, 128.2852
401.6113, 132.9871
402.0934, 138.9121
402.5755, 140.0413
403.0576, 134.0271
403.5398, 130.2609
404.0219, 129.6263
404.5040, 130.0440
404.9861, 131.0289
405.4682, 132.1690
405.9503, 132.7816
406.4325, 132.3589
406.9146, 131.2660
407.3967, 130.9127
407.8788, 132.0140
408.3609, 132.3664
408.8430, 130.7943
409.3252, 128.8649
409.8073, 127.7136
410.2894, 127.5358
410.7715, 127.9743
411.2536, 129.0639
411.7357, 130.6109
412.2179, 131.6883
412.7000, 132.4140
413.1821, 132.2314
413.6642, 129.9568
414.1463, 126.5377
414.6284, 123.8517
415.1106, 122.1187
415.5927, 121.3468
416.0748, 121.9316
416.5569, 123.5258
417.0390, 125.1694
417.5211, 126.6215
418.0033, 127.6773
418.4854, 127.9931
418.9675, 127.3923
419.4496, 126.5563
419.9317, 124.7539
420.4138, 123.3448
420.8960, 123.2060
421.3781, 124.2821
421.8602, 126.2648
422.3423, 129.0801
422.8244, 132.3994
423.3065, 134.8526
423.7887, 136.7740
424.2708, 137.1677
424.7529, 134.7901
425.2350, 131.7686
425.7171, 129.6765
426.1992, 128.7991
426.6814, 128.6680
427.1635, 128.8295
427.6456, 129.3150
428.1277, 130.7618
428.6098, 134.2250
429.0919, 136.5927
429.5741, 135.6908
430.0562, 132.8718
430.5383, 129.9060
431.0204, 126.9473
431.5025, 124.4860
431.9846, 122.6139
432.4668, 121.5224
432.9489, 122.3320
433.4310, 125.8089
433.9131, 129.5983
434.3952, 130.5945
434.8773, 128.4044
435.3595, 127.5612
435.8416, 130.5039
436.3237, 132.8721
436.8058, 130.9178
437.2879, 126.1638
437.7701, 122.7443
438.2522, 122.8194
438.7343, 125.2340
439.2164, 127.1466
439.6985, 128.7725
440.1806, 129.4230
440.6628, 128.0050
441.1449, 126.6297
441.6270, 127.1030
442.1091, 129.0401
442.5912, 130.4539
443.0733, 129.5364
443.5555, 127.0494
444.0376, 126.1796
444.5197, 127.7013
445.0018, 128.6667
445.4839, 127.4518
445.9660, 125.3645
446.4482, 123.1246
446.9303, 120.5776
447.4124, 119.8844
447.8945, 124.2260
448.3766, 131.0053
448.8587, 134.5657
449.3409, 134.0399
449.8230, 132.1743
450.3051, 130.8396
450.7872, 130.0181
451.2693, 129.3543
451.7514, 129.4830
452.2336, 129.0264
452.7157, 126.4209
453.1978, 123.3592
453.6799, 122.5379
454.1620, 124.6232
454.6441, 127.6911
455.1263, 129.2664
455.6084, 129.0848
456.0905, 128.9025
456.5726, 128.8176
457.0547, 128.6285
457.5368, 127.7517
458.0190, 126.8564
458.5011, 127.2831
458.9832, 129.8502
459.4653, 132.6992
459.9474, 132.9365
460.4295, 130.5210
460.9117, 128.2568
461.3938, 126.7486
461.8759, 125.4333
462.3580, 123.2120
462.8401, 120.4642
463.3222, 119.4352
463.8044, 122.8027
464.2865, 126.5154
464.7686, 126.2767
465.2507, 123.0349
465.7328, 120.9038
466.2149, 121.8258
466.6971, 124.2259
467.1792, 125.0215
467.6613, 123.1918
468.1434, 121.8269
468.6255, 120.7572
469.1076, 120.2817
469.5898, 121.0527
470.0719, 122.6213
470.5540, 123.6835
471.0361, 123.2866
471.5182, 122.1936
472.0003, 122.9595
472.4825, 126.7356
472.9646, 129.2088
473.4467, 128.1760
473.9288, 126.4381
474.4109, 125.6704
474.8930, 125.9502
475.3752, 126.5415
475.8573, 127.8362
476.3394, 128.8548
476.8215, 127.3193
477.3036, 123.1612
477.7857, 119.4564
478.2679, 117.3886
478.7500, 117.0381
479.2321, 119.1208
479.7142, 125.2657
480.1963, 129.4058
480.6784, 129.0298
481.1606, 127.0694
481.6427, 125.9118
482.1248, 125.8370
482.6069, 126.3949
483.0890, 127.4473
483.5711, 128.6308
484.0533, 127.7101
484.5354, 122.0680
485.0175, 118.6805
485.4996, 119.8694
485.9817, 122.4656
486.4638, 124.3562
486.9460, 125.1404
487.4281, 124.9765
487.9102, 123.0374
488.3923, 120.2879
488.8744, 120.1431
489.3565, 123.1448
489.8387, 125.7851
490.3208, 126.5186
490.8029, 125.5935
491.2850, 123.4407
491.7671, 119.0826
492.2492, 116.3017
492.7314, 117.0004
493.2135, 119.6115
493.6956, 123.1699
494.1777, 127.1528
494.6598, 129.9460
495.1419, 130.1679
495.6241, 128.2364
496.1062, 126.8643
496.5883, 126.5819
497.0704, 126.1432
497.5525, 125.5902
498.0346, 124.7266
498.5168, 123.1149
498.9989, 120.8801
499.4810, 118.8969
499.9631, 117.4977
500.4452, 116.9380
500.9273, 118.8777
501.4095, 124.2405
501.8916, 128.1351
502.3737, 127.5285
502.8558, 124.7094
503.3379, 123.5820
503.8200, 124.8046
504.3022, 125.2149
504.7843, 122.9241
505.2664, 119.6046
505.7485, 116.8296
506.2306, 114.8690
506.7127, 114.1438
507.1949, 115.1371
507.6770, 117.2926
508.1591, 118.1506
508.6412, 116.4850
509.1233, 115.2784
509.6054, 114.7339
510.0876, 114.6444
510.5697, 115.1617
511.0518, 116.0703
511.5339, 116.6733
512.0161, 116.5054
512.4982, 115.6525
512.9803, 113.8373
513.4624, 110.6392
513.9445, 109.2036
514.4266, 111.4323
514.9088, 115.3204
515.3909, 118.5952
515.8730, 121.3485
516.3551, 122.5745
516.8372, 119.7931
517.3193, 116.9612
517.8015, 118.7339
518.2836, 124.1163
518.7657, 128.3781
519.2478, 128.9565
519.7299, 127.1017
520.2120, 125.8489
520.6942, 126.3706
521.1763, 125.1865
521.6584, 120.6503
522.1405, 116.1607
522.6226, 113.5103
523.1047, 112.4189
523.5869, 111.8856
524.0690, 111.4975
524.5511, 111.1308
525.0332, 110.1650
525.5153, 108.6137
525.9974, 108.8907
526.4796, 112.5930
526.9617, 116.6282
527.4438, 116.9772
527.9259, 114.1767
528.4080, 112.9391
528.8901, 115.4287
529.3723, 118.1640
529.8544, 119.4143
530.3365, 119.3633
530.8186, 118.1011
531.3007, 115.7114
531.7828, 113.3431
532.2650, 112.6781
532.7471, 114.0402
533.2292, 115.1049
533.7113, 116.6711
534.1934, 116.9395
534.6755, 114.0254
535.1577, 110.0306
535.6398, 107.9109
536.1219, 108.6175
536.6040, 110.1636
537.0861, 110.5285
537.5682, 110.2366
538.0504, 111.4030
538.5325, 114.5356
539.0146, 116.9965
539.4967, 116.5226
539.9788, 113.8386
540.4609, 112.6131
540.9431, 114.2020
541.4252, 115.2059
541.9073, 114.0230
542.3894, 112.5416
542.8715, 112.7091
543.3536, 114.5720
543.8358, 116.8652
544.3179, 118.6805
544.8000, 120.0177
545.2821, 120.7342
545.7642, 120.4246
546.2463, 120.6236
546.7285, 122.9301
547.2106, 124.9556
547.6927, 124.7074
548.1748, 122.2521
548.6569, 119.2727
549.1390, 114.7385
549.6211, 111.3001
550.1032, 113.6419
550.5853, 120.1895
551.0674, 123.5773
551.5496, 120.5359
552.0317, 114.8485
552.5138, 112.6822
552.9959, 115.3228
553.4780, 117.1781
553.9601, 118.6015
554.4423, 118.9993
554.9244, 116.7132
555.4065, 113.6839
555.8886, 113.3579
556.3707, 117.0786
556.8528, 121.4085
557.3350, 121.5717
557.8171, 118.2195
558.2992, 117.0370
558.7813, 119.2979
559.2634, 121.3023
559.7455, 120.2162
560.2277, 117.0343
560.7098, 115.1528
561.1919, 115.4901
561.6740, 115.5539
562.1561, 114.2523
562.6382, 112.4852
563.1204, 110.5926
563.6025, 109.0240
564.0846, 109.2597
564.5667, 112.6919
565.0488, 118.2289
565.5309, 121.7185
566.0131, 123.0673
566.4952, 122.5969
566.9773, 118.4632
567.4594, 114.0060
567.9415, 110.9624
568.4236, 109.4020
568.9058, 109.0666
569.3879, 110.3108
569.8700, 112.3160
570.3521, 114.9744
570.8342, 117.7857
571.3163, 118.8787
571.7985, 117.6057
572.2806, 115.1420
572.7627, 112.6121
573.2448, 109.7839
573.7269, 109.0794
574.2090, 112.7847
574.6912, 115.7668
575.1733, 116.0978
575.6554, 115.3814
576.1375, 115.6137
576.6196, 117.1631
577.1017, 118.6054
577.5839, 118.4847
578.0660, 117.2266
578.5481, 115.9375
579.0302, 114.4875
579.5123, 114.5984
579.9944, 118.3365
580.4766, 122.9711
580.9587, 122.4514
581.4408, 115.2755
581.9229, 110.2687
582.4050, 110.3787
582.8871, 111.4651
583.3693, 110.4938
583.8514, 108.3451
584.3335, 107.4506
584.8156, 108.9367
585.2977, 111.5914
585.7798, 113.7413
586.2620, 115.4130
586.7441, 116.1276
587.2262, 115.5169
587.7083, 114.5166
588.1904, 112.8768
588.6725, 111.4030
589.1547, 111.7485
589.6368, 114.9966
590.1189, 117.7666
590.6010, 118.3644
591.0831, 117.6081
591.5652, 115.8795
592.0474, 113.6178
592.5295, 112.5089
593.0116, 113.8488
593.4937, 116.6316
593.9758, 117.4453
594.4579, 114.3667
594.9401, 113.8879
595.4222, 121.6507
595.9043, 127.4275
596.3864, 123.5573
596.8685, 113.6350
597.3506, 107.1938
597.8328, 108.6937
598.3149, 112.9411
598.7970, 116.3140
599.2791, 118.6888
599.7612, 119.4633
600.2433, 118.5195
600.7255, 117.2693
601.2076, 117.0378
601.6897, 117.5599
602.1718, 116.6210
602.6539, 110.4477
603.1360, 108.0916
603.6182, 113.7536
604.1003, 120.6278
604.5824, 123.9894
605.0645, 123.7231
605.5466, 121.8440
606.0287, 118.9622
606.5109, 115.8396
606.9930, 113.3988
607.4751, 111.6689
607.9572, 111.0296
608.4393, 111.7237
608.9214, 112.9699
609.4036, 114.1391
609.8857, 115.2294
610.3678, 115.7079
610.8499, 116.3772
611.3320, 115.4974
611.8141, 109.8072
612.2963, 104.1632
612.7784, 104.5189
613.2605, 110.6733
613.7426, 116.9019
614.2247, 119.0961
614.7068, 118.1285
615.1890, 115.1920
615.6711, 110.1055
616.1532, 107.4007
616.6353, 109.1765
617.1174, 112.3879
617.5995, 113.6975
618.0817, 113.0598
618.5638, 112.5417
619.0459, 112.3336
619.5280, 112.1276
620.0101, 111.0709
620.4922, 110.3162
620.9744, 111.9078
621.4565, 115.8365
621.9386, 119.4447
622.4207, 120.1055
622.9028, 118.6375
623.3849, 118.2765
623.8671, 119.2121
624.3492, 120.2329
624.8313, 121.4017
625.3134, 122.0166
625.7955, 120.8103
626.2776, 117.9050
626.7598, 115.6359
627.2419, 114.0771
627.7240, 113.4966
628.2061, 114.1593
628.6882, 115.8509
629.1703, 119.1192
629.6525, 123.6232
630.1346, 126.6762
630.6167, 125.1208
631.0988, 119.9232
631.5809, 116.5007
632.0630, 115.1379
632.5452, 114.3547
633.0273, 113.3301
633.5094, 113.0919
633.9915, 115.5261
634.4736, 120.4277
634.9557, 123.5130
635.4379, 122.9614
635.9200, 121.3846
636.4021, 120.2059
636.8842, 118.9745
637.3663, 116.3147
637.8484, 112.2098
638.3306, 109.0109
638.8127, 109.4035
639.2948, 112.6880
639.7769, 114.4160
640.2590, 114.0225
640.7411, 114.1716
641.2233, 116.4849
641.7054, 118.7974
642.1875, 118.1451
642.6696, 114.8794
643.1517, 113.5596
643.6339, 117.2876
644.1160, 120.8801
644.5981, 121.2370
645.0802, 119.7200
645.5623, 118.5647
646.0444, 118.1783
646.5266, 117.1730
647.0087, 113.8845
647.4908, 109.1318
647.9729, 106.8796
648.4550, 107.5249
648.9371, 109.2711
649.4193, 112.6370
649.9014, 115.8963
650.3835, 117.1571
650.8656, 116.7056
651.3477, 116.5527
651.8298, 117.5017
652.3120, 118.2893
652.7941, 118.2616
653.2762, 117.7515
653.7583, 117.1214
654.2404, 116.4819
654.7225, 115.9649
655.2047, 115.8286
655.6868, 115.6912
656.1689, 113.6377
656.6510, 108.9249
657.1331, 107.0886
657.6152, 110.4547
658.0974, 115.3259
658.5795, 119.4874
659.0616, 122.6097
659.5437, 122.7562
660.0258, 116.5400
660.5079, 111.3309
660.9901, 110.5533
661.4722, 111.4282
661.9543, 110.8458
662.4364, 108.8055
662.9185, 107.3004
663.4006, 107.6796
663.8828, 109.3387
664.3649, 111.1011
664.8470, 112.9696
665.3291, 114.8111
665.8112, 116.5288
666.2933, 118.4544
666.7755, 121.2359
667.2576, 124.4290
667.7397, 126.2443
668.2218, 126.8299
668.7039, 125.8280
669.1860, 121.3899
669.6682, 116.8007
670.1503, 114.5283
670.6324, 114.3897
671.1145, 115.5205
671.5966, 117.7324
672.0787, 119.2489
672.5609, 116.2805
673.0430, 109.7926
673.5251, 107.0433
674.0072, 109.1145
674.4893, 112.6617
674.9714, 116.1332
675.4536, 119.4147
675.9357, 122.1977
676.4178, 124.6979
676.8999, 126.2158
677.3820, 126.2026
677.8641, 125.7427
678.3463, 125.4959
678.8284, 125.1626
679.3105, 124.0151
679.7926, 121.8265
680.2747, 119.6334
680.7568, 118.4192
681.2390, 117.9361
681.7211, 117.7429
682.2032, 117.7955
682.6853, 117.6832
683.1674, 117.1976
683.6495, 116.5436
684.1317, 115.9245
684.6138, 115.1361
685.0959, 115.4866
685.5780, 119.4640
686.0601, 121.5843
686.5422, 117.8558
687.0244, 113.2529
687.5065, 114.1752
687.9886, 120.7971
688.4707, 125.6144
688.9528, 122.1366
689.4349, 116.3990
689.9171, 115.4795
690.3992, 118.0357
690.8813, 120.3170
691.3634, 121.2601
691.8455, 120.7351
692.3276, 118.0961
692.8098, 113.9406
693.2919, 114.1245
693.7740, 121.7325
694.2561, 126.8215
694.7382, 125.3786
695.2203, 122.8095
695.7025, 123.2458
696.1846, 125.7859
696.6667, 126.6922
697.1488, 123.5335
697.6309, 120.8235
698.1130, 121.4079
698.5952, 123.5498
699.0773, 124.9888
699.5594, 125.6953
700.0415, 126.9414
700.5236, 129.4917
701.0057, 133.2046
701.4879, 138.1364
701.9700, 144.3958
702.4521, 149.8996
702.9342, 154.7061
703.4163, 157.9461
703.8984, 157.1737
704.3806, 155.2549
704.8627, 159.3000
705.3448, 171.0870
705.8269, 183.2309
706.3090, 192.4240
706.7911, 204.0645
707.2733, 223.2926
707.7554, 246.5908
708.2375, 267.2575
708.7196, 283.5055
709.2017, 300.1757
709.6838, 320.1592
710.1660, 344.4849
710.6481, 377.6009
711.1302, 419.0334
711.6123, 458.7804
712.0944, 492.0876
712.5765, 527.6752
713.0587, 577.0876
713.5408, 641.0284
714.0229, 703.7720
714.5050, 755.9041
714.9871, 819.6680
715.4692, 900.4592
715.9514, 992.4110
716.4335, 1096.507
716.9156, 1208.215
717.3977, 1314.336
717.8798, 1430.132
718.3619, 1508.756
718.8441, 1513.932
719.3262, 1456.446
719.8083, 1338.030
720.2904, 1169.520
720.7725, 994.9718
721.2546, 843.1168
721.7368, 711.0198
722.2189, 590.7548
722.7010, 481.0108
723.1831, 392.8750
723.6652, 330.5008
724.1473, 283.3901
724.6295, 249.3248
725.1116, 225.9549
725.5937, 208.0140
726.0758, 196.6171
726.5579, 187.1133
727.0400, 179.8340
727.5222, 172.9829
728.0043, 164.4996
728.4864, 156.0368
728.9685, 150.9563
729.4506, 149.8574
729.9327, 148.9893
730.4149, 144.4761
730.8970, 138.0022
731.3791, 132.9616
731.8612, 129.3903
732.3433, 128.1103
732.8254, 129.6797
733.3076, 131.4563
733.7897, 130.6287
734.2718, 127.4284
734.7539, 124.8503
735.2360, 122.7840
735.7181, 121.5325
736.2003, 121.6152
736.6824, 122.0282
737.1645, 122.3854
737.6466, 122.5601
738.1287, 122.4357
738.6108, 122.3690
739.0930, 121.0402
739.5751, 115.9673
740.0572, 110.3941
740.5393, 107.8480
741.0214, 108.3792
741.5035, 111.4940
741.9857, 116.9735
742.4678, 122.2934
742.9499, 123.5376
743.4320, 120.9811
743.9141, 118.2472
744.3962, 115.1071
744.8784, 113.4009
745.3605, 114.4395
745.8426, 116.3197
746.3247, 116.3191
746.8068, 114.1285
747.2889, 112.9613
747.7711, 112.8880
748.2532, 113.6656
748.7353, 116.7405
749.2174, 119.5260
749.6995, 118.9022
750.1816, 115.6092
750.6638, 113.5986
751.1459, 115.3116
751.6280, 117.8572
752.1101, 118.8629
752.5922, 118.7035
753.0743, 117.9080
753.5565, 116.6228
754.0386, 115.1384
754.5207, 113.6416
755.0028, 111.9780
755.4849, 109.3370
755.9670, 105.3340
756.4492, 104.4584
756.9313, 108.2366
757.4134, 111.4032
757.8955, 110.7493
758.3776, 108.9427
758.8597, 110.7732
759.3419, 116.7864
759.8240, 120.1466
760.3061, 118.7454
760.7882, 116.4750
761.2703, 114.6175
761.7524, 112.7460
762.2346, 109.8181
762.7167, 106.1718
763.1988, 103.7754
763.6809, 104.2287
764.1630, 105.5470
764.6451, 105.5881
765.1273, 104.6786
765.6094, 102.9607
766.0915, 100.7516
766.5736, 100.7422
767.0557, 104.9317
767.5378, 110.7752
768.0200, 112.3808
768.5021, 108.8438
768.9842, 106.4198
769.4663, 105.1050
769.9484, 105.1892
770.4305, 108.2001
770.9127, 111.7408
771.3948, 112.0639
771.8769, 108.9222
772.3590, 106.2343
772.8411, 104.0264
773.3232, 102.8543
773.8054, 104.0929
774.2875, 105.7084
774.7696, 105.0452
775.2517, 102.4260
775.7338, 100.7645
776.2159, 102.1392
776.6981, 104.0933
777.1802, 103.3609
777.6623, 101.2288
778.1444, 101.0630
778.6265, 102.9616
779.1086, 104.3311
779.5908, 103.7410
780.0729, 101.6315
780.5550, 98.02553
781.0371, 92.38341
781.5192, 91.22052
782.0013, 96.18607
782.4835, 101.3333
782.9656, 105.0435
783.4477, 107.2511
783.9298, 107.4730
784.4119, 105.6694
784.8940, 104.0835
785.3762, 102.3442
785.8583, 101.4382
786.3404, 103.1780
786.8225, 104.6395
787.3046, 101.9867
787.7867, 96.69125
788.2689, 94.38860
788.7510, 98.36512
789.2331, 102.8463
789.7152, 102.0032
790.1973, 99.00816
790.6794, 99.51554
791.1616, 102.9645
791.6437, 104.8719
792.1258, 103.3129
792.6079, 100.5499
793.0900, 99.56316
793.5721, 100.1953
794.0543, 100.9734
794.5364, 101.9553
795.0185, 102.7091
795.5006, 103.0297
795.9827, 103.2531
796.4648, 103.6824
796.9470, 104.3098
797.4291, 105.0314
797.9112, 106.9350
798.3933, 107.3354
798.8754, 104.3545
799.3575, 101.5858
799.8397, 101.5930
800.3218, 103.1537
800.8039, 103.7243
801.2860, 102.5929
801.7681, 101.4314
802.2502, 101.0288
802.7324, 101.0058
803.2145, 101.2204
803.6966, 101.4906
804.1787, 101.4187
804.6608, 100.9722
805.1429, 100.6527
805.6251, 100.8732
806.1072, 101.5129
806.5893, 102.4898
807.0714, 103.7209
807.5535, 104.5129
808.0356, 104.7345
808.5178, 104.7094
808.9999, 104.5757
809.4820, 104.5109
809.9641, 105.2313
810.4462, 107.6532
810.9283, 107.3476
811.4105, 102.4499
811.8926, 97.82379
812.3747, 93.92664
812.8568, 92.21583
813.3389, 96.25053
813.8210, 105.9463
814.3032, 110.4461
814.7853, 102.3755
815.2674, 96.23413
815.7495, 99.07632
816.2316, 104.3329
816.7137, 106.1622
817.1959, 104.8252
817.6780, 103.3155
818.1601, 102.8649
818.6422, 102.6101
819.1243, 102.0131
819.6064, 101.0191
820.0886, 99.03955
820.5707, 96.54693
821.0528, 95.21211
821.5349, 95.60672
822.0170, 96.97270
822.4991, 98.65690
822.9813, 100.5192
823.4634, 102.2497
823.9455, 103.9289
824.4276, 103.6665
824.9097, 100.5557
825.3918, 97.52652
825.8740, 96.89740
826.3561, 97.95084
826.8382, 98.15910
827.3203, 96.16955
827.8024, 96.50900
828.2845, 102.1708
828.7667, 106.4783
829.2488, 105.9324
829.7309, 103.4308
830.2130, 102.6341
830.6951, 103.7462
831.1772, 103.7132
831.6594, 99.93472
832.1415, 97.15932
832.6236, 98.54881
833.1057, 101.1201
833.5878, 101.6502
834.0699, 100.4689
834.5521, 100.0051
835.0342, 101.5396
835.5163, 102.9126
835.9984, 101.7845
836.4805, 99.37509
836.9626, 96.96510
837.4448, 95.09005
837.9269, 95.90763
838.4090, 99.92406
838.8911, 103.1860
839.3732, 100.8692
839.8553, 95.01743
840.3375, 93.72419
840.8196, 97.10463
841.3017, 98.90602
841.7838, 97.78371
842.2659, 96.11987
842.7480, 95.28883
843.2302, 95.34248
843.7123, 96.61809
844.1944, 100.0304
844.6765, 101.5632
845.1586, 100.2541
845.6407, 98.50041
846.1229, 96.53575
846.6050, 94.88017
847.0871, 94.02439
847.5692, 93.96262
848.0513, 94.49148
848.5334, 96.45435
849.0156, 97.82693
849.4977, 97.44643
849.9798, 96.82243
850.4619, 97.53905
850.9440, 98.85775
851.4261, 98.52325
851.9083, 95.64969
852.3904, 94.16262
852.8725, 98.84211
853.3546, 104.3318
853.8367, 103.9757
854.3188, 100.3331
854.8010, 99.45570
855.2831, 102.0885
855.7652, 103.8421
856.2473, 101.2555
856.7294, 96.69489
857.2115, 94.06385
857.6937, 93.10584
858.1758, 92.54259
858.6579, 92.28679
859.1400, 93.74181
859.6221, 97.86087
860.1042, 101.8045
860.5864, 100.9705
861.0685, 95.64389
861.5506, 93.93100
862.0327, 96.74986
862.5148, 99.81147
862.9969, 102.9826
863.4791, 104.5537
863.9612, 102.0548
864.4433, 97.18913
864.9254, 96.36916
865.4075, 103.3232
865.8896, 106.5167
866.3718, 103.5328
866.8539, 99.85616
867.3360, 95.69334
867.8181, 92.90179
868.3002, 94.63108
868.7823, 100.5816
869.2645, 104.6239
869.7466, 104.5752
870.2287, 103.1432
870.7108, 100.0024
871.1929, 97.03162
871.6750, 95.86573
872.1572, 96.27615
872.6393, 97.82645
873.1214, 100.4629
873.6035, 102.0157
874.0856, 98.62623
874.5677, 95.23691
875.0499, 99.54023
875.5320, 107.5433
876.0141, 110.3497
876.4962, 106.8048
876.9783, 101.7639
877.4604, 98.06576
877.9426, 96.40665
878.4247, 100.1183
878.9068, 106.8384
879.3889, 106.0493
879.8710, 97.87687
880.3531, 92.67195
880.8353, 94.71888
881.3174, 99.87852
881.7995, 103.7498
882.2816, 106.1842
882.7637, 105.5620
883.2458, 101.2115
883.7280, 99.05497
884.2101, 100.5984
884.6922, 102.6567
885.1743, 103.2119
885.6564, 102.9204
886.1385, 103.3366
886.6207, 104.9218
887.1028, 105.0463
887.5849, 102.3843
888.0670, 100.4134
888.5491, 100.7767
889.0313, 101.5416
889.5134, 100.0987
889.9955, 97.41777
890.4776, 98.13232
890.9597, 106.2891
891.4418, 111.0534
891.9240, 108.2122
892.4061, 104.6382
892.8882, 103.5985
893.3703, 104.2354
893.8524, 105.6971
894.3345, 107.6511
894.8167, 108.3068
895.2988, 106.8535
895.7809, 104.0369
896.2630, 97.27689
896.7451, 91.60763
897.2272, 94.40714
897.7094, 102.6351
898.1915, 107.4184
898.6736, 105.5697
899.1557, 102.2859
899.6378, 101.1612
900.1199, 101.3285
900.6021, 102.3177
901.0842, 103.5815
901.5663, 104.0415
902.0484, 103.5536
902.5305, 102.4345
903.0126, 100.7442
903.4948, 99.40163
903.9769, 100.1968
904.4590, 102.3810
904.9411, 103.9731
905.4232, 104.7520
905.9053, 103.5484
906.3875, 100.0120
906.8696, 96.43511
907.3517, 94.94588
907.8338, 95.25231
908.3159, 97.19239
908.7980, 100.7980
909.2802, 100.4138
909.7623, 94.56216
910.2444, 92.00359
910.7265, 97.84949
911.2086, 106.4274
911.6907, 109.5322
912.1729, 107.2220
912.6550, 105.0813
913.1371, 103.3188
913.6192, 100.7857
914.1013, 95.89933
914.5834, 92.91162
915.0656, 95.47263
915.5477, 101.3282
916.0298, 105.3980
916.5119, 107.4195
916.9940, 108.6258
917.4761, 108.2788
917.9583, 108.1599
918.4404, 110.1375
918.9225, 111.2468
919.4046, 108.0321
919.8867, 101.8971
920.3688, 98.05228
920.8510, 97.17607
921.3331, 97.92088
921.8152, 101.7013
922.2973, 105.2102
922.7794, 107.5659
923.2615, 108.4234
923.7437, 106.5305
924.2258, 102.4336
924.7079, 99.98509
925.1900, 101.6517
925.6721, 102.9603
926.1542, 100.5921
926.6364, 98.56255
927.1185, 101.0773
927.6006, 105.8533
928.0827, 109.2274
928.5648, 110.2185
929.0469, 108.6317
929.5291, 101.0987
930.0112, 94.72491
930.4933, 95.54553
930.9754, 100.0800
931.4575, 105.1415
931.9396, 109.7747
932.4218, 113.3882
932.9039, 115.7632
933.3860, 115.8763
933.8681, 110.7503
934.3502, 104.5585
934.8323, 103.1231
935.3145, 104.6278
935.7966, 105.4468
936.2787, 105.1536
936.7608, 105.0802
937.2429, 105.9430
937.7250, 107.0701
938.2072, 107.7649
938.6893, 108.0677
939.1714, 108.2433
939.6535, 108.1292
940.1356, 106.2913
940.6177, 102.7880
941.0999, 101.5492
941.5820, 105.6874
942.0641, 111.8235
942.5462, 114.1365
943.0283, 113.0373
943.5104, 109.2466
943.9926, 103.2818
944.4747, 101.9931
944.9568, 107.6022
945.4389, 114.0734
945.9210, 116.0396
946.4031, 114.6947
946.8853, 112.9611
947.3674, 110.8426
947.8495, 109.8186
948.3316, 110.1515
948.8137, 109.2890
949.2958, 105.9227
949.7780, 102.7111
950.2601, 102.8935
950.7422, 105.6366
951.2243, 106.2460
951.7064, 104.2184
952.1885, 103.2321
952.6707, 103.5383
953.1528, 105.5352
953.6349, 110.2276
954.1170, 114.9317
954.5991, 115.6985
955.0812, 112.7768
955.5634, 112.0868
956.0455, 115.1123
956.5276, 115.5732
957.0097, 111.3462
957.4918, 107.4050
957.9739, 107.1064
958.4561, 107.8509
958.9382, 104.6343
959.4203, 96.77904
959.9024, 94.92457
960.3845, 103.9243
960.8666, 108.9875
961.3488, 104.2910
961.8309, 100.3188
962.3130, 105.5917
962.7951, 114.7797
963.2772, 117.0789
963.7593, 111.0067
964.2415, 105.9677
964.7236, 102.5584
965.2057, 99.31437
965.6878, 93.24374
966.1699, 89.93032
966.6520, 95.47025
967.1342, 105.8203
967.6163, 111.8164
968.0984, 112.5966
968.5805, 111.6262
969.0626, 106.5146
969.5447, 103.0990
970.0269, 103.9974
970.5090, 106.0628
970.9911, 107.6349
971.4732, 108.3556
971.9553, 107.2561
972.4374, 103.4039
972.9196, 100.7664
973.4017, 100.2308
973.8838, 100.5245
974.3659, 101.9545
974.8480, 103.3977
975.3301, 103.8998
975.8123, 103.5877
976.2944, 102.7587
976.7765, 100.7320
977.2586, 100.6367
977.7407, 104.8538
978.2228, 109.0956
978.7050, 112.9255
979.1871, 114.7550
979.6692, 111.9244
980.1513, 105.7546
980.6334, 100.6354
981.1155, 96.78166
981.5977, 96.34553
982.0798, 102.8588
982.5619, 109.5564
983.0440, 114.3342
983.5261, 116.5466
984.0082, 114.0316
984.4904, 108.3737
984.9725, 105.5737
985.4546, 108.3608
985.9367, 110.6275
986.4188, 108.7654
986.9009, 107.3582
987.3831, 109.5149
987.8652, 113.3248
988.3473, 117.2545
988.8294, 120.6091
989.3115, 121.9308
989.7936, 120.3806
990.2758, 117.9619
990.7579, 113.7629
991.2400, 110.8556
991.7221, 112.4929
992.2042, 115.7203
992.6863, 116.9475
993.1685, 116.1054
993.6506, 114.8921
994.1327, 113.0513
994.6148, 113.3067
995.0969, 119.6104
995.5790, 125.4838
996.0612, 125.6629
996.5433, 123.3307
997.0254, 122.6003
997.5075, 123.6381
997.9896, 124.1785
998.4717, 122.6881
998.9539, 122.9345
999.4360, 129.6907
999.9181, 135.5556
1000.400, 133.4756
1000.882, 128.6154
1001.364, 127.7242
1001.847, 130.8694
1002.329, 134.2678
1002.811, 136.8286
1003.293, 138.8616
1003.775, 140.1358
1004.257, 141.3578
1004.739, 143.5436
1005.221, 145.6030
1005.703, 145.2626
1006.186, 143.3338
1006.668, 143.9062
1007.150, 149.3995
1007.632, 153.8884
1008.114, 153.4361
1008.596, 152.4561
1009.078, 154.5358
1009.560, 157.2441
1010.043, 157.2242
1010.525, 154.8329
1011.007, 152.7767
1011.489, 151.8045
1011.971, 151.4885
1012.453, 151.3015
1012.935, 152.0977
1013.417, 155.1601
1013.899, 158.9269
1014.382, 161.6957
1014.864, 163.5115
1015.346, 165.4534
1015.828, 168.1485
1016.310, 169.4800
1016.792, 165.8313
1017.274, 163.9249
1017.756, 170.6110
1018.239, 178.3617
1018.721, 178.1060
1019.203, 172.0789
1019.685, 169.0439
1020.167, 171.5374
1020.649, 174.3845
1021.131, 176.8704
1021.613, 178.1442
1022.095, 176.8498
1022.578, 174.9996
1023.060, 174.2560
1023.542, 174.5311
1024.024, 175.3051
1024.506, 176.5878
1024.988, 177.6704
1025.470, 179.7127
1025.952, 179.7593
1026.435, 173.9382
1026.917, 168.2292
1027.399, 168.2386
1027.881, 171.8355
1028.363, 173.9118
1028.845, 173.5898
1029.327, 173.6934
1029.809, 174.7198
1030.292, 176.2474
1030.774, 180.4153
1031.256, 182.7973
1031.738, 178.0827
1032.220, 170.4608
1032.702, 167.8746
1033.184, 171.3067
1033.666, 173.6802
1034.148, 173.9939
1034.630, 173.6299
1035.113, 171.5765
1035.595, 170.2383
1036.077, 171.6224
1036.559, 174.1819
1037.041, 175.7074
1037.523, 176.1506
1038.005, 176.1511
1038.487, 174.8931
1038.970, 174.5253
1039.452, 175.2304
1039.934, 176.7835
1040.416, 179.4591
1040.898, 182.6142
1041.380, 185.5770
1041.862, 188.3328
1042.344, 190.8284
1042.826, 193.6483
1043.309, 194.7556
1043.791, 192.8048
1044.273, 191.4819
1044.755, 191.9625
1045.237, 193.9144
1045.719, 197.4149
1046.201, 202.0051
1046.683, 205.2251
1047.166, 205.5475
1047.648, 210.3309
1048.130, 221.7389
1048.612, 231.4602
1049.094, 237.2485
1049.576, 239.7692
1050.058, 238.7207
1050.540, 235.8942
1051.022, 236.4550
1051.505, 240.9037
1051.987, 243.1772
1052.469, 242.4502
1052.951, 245.1986
1053.433, 253.6148
1053.915, 261.9561
1054.397, 266.3116
1054.879, 268.6606
1055.361, 272.5018
1055.844, 277.7906
1056.326, 285.0613
1056.808, 294.3342
1057.290, 297.9323
1057.772, 294.4632
1058.254, 293.6264
1058.736, 300.6284
1059.218, 311.1291
1059.701, 319.6318
1060.183, 326.7878
1060.665, 334.1435
1061.147, 342.0816
1061.629, 352.7909
1062.111, 366.3401
1062.593, 381.4456
1063.075, 397.5149
1063.557, 412.9315
1064.040, 426.2821
1064.522, 437.3428
1065.004, 446.0962
1065.486, 451.9785
1065.968, 451.8197
1066.450, 447.4439
1066.932, 445.5056
1067.414, 447.5604
1067.896, 449.5321
1068.379, 447.3219
1068.861, 448.9450
1069.343, 466.1446
1069.825, 490.7179
1070.307, 511.3998
1070.789, 530.4658
1071.271, 550.8777
1071.753, 575.4136
1072.236, 610.7292
1072.718, 660.1469
1073.200, 720.0453
1073.682, 784.7676
1074.164, 862.5103
1074.646, 950.5372
1075.128, 1062.993
1075.610, 1214.692
1076.093, 1406.307
1076.575, 1635.952
1077.057, 1903.896
1077.539, 2198.188
1078.021, 2514.528
1078.503, 2853.666
1078.985, 3202.942
1079.467, 3587.302
1079.949, 3993.692
1080.432, 4466.172
1080.914, 5053.575
1081.396, 5764.323
1081.878, 6660.592
1082.360, 7752.935
1082.842, 9040.797
1083.324, 10562.67
1083.806, 12229.56
1084.288, 14314.80
1084.771, 16287.11
1085.253, 17745.19
1085.735, 18600.76
1086.217, 18374.10
1086.699, 16758.72
1087.181, 14845.70
1087.663, 12400.09
1088.145, 10133.23
1088.628, 8187.175
1089.110, 6547.054
1089.592, 5215.528
1090.074, 4156.443
1090.556, 3296.574
1091.038, 2639.688
1091.520, 2108.877
1092.002, 1714.423
1092.484, 1405.950
1092.967, 1180.551
1093.449, 1009.531
1093.931, 879.9916
1094.413, 779.7758
1094.895, 694.3357
1095.377, 622.9851
1095.859, 566.8173
1096.341, 524.2587
1096.823, 483.7165
1097.306, 444.6669
1097.788, 412.1100
1098.270, 387.4702
1098.752, 365.9441
1099.234, 343.7657
1099.716, 323.0420
1100.198, 307.6573
1100.680, 295.7292
1101.163, 282.8789
1101.645, 270.3233
1102.127, 263.2361
1102.609, 260.6294
1103.091, 253.6400
1103.573, 237.8526
1104.055, 223.1665
1104.537, 218.9460
1105.020, 218.3405
1105.502, 217.5306
1105.984, 214.7936
1106.466, 206.1305
1106.948, 194.5643
1107.430, 186.9770
1107.912, 184.7012
1108.394, 183.3887
1108.876, 181.5288
1109.359, 179.9163
1109.841, 179.3386
1110.323, 178.5556
1110.805, 177.6085
1111.287, 175.4719
1111.769, 169.4036
1112.251, 160.7260
1112.733, 156.5803
1113.215, 160.0150
1113.698, 162.0374
1114.180, 162.4230
1114.662, 161.2464
1115.144, 157.2556
1115.626, 153.4433
1116.108, 151.5898
1116.590, 151.5271
1117.072, 153.6668
1117.555, 158.0388
1118.037, 156.1942
1118.519, 146.0786
1119.001, 142.1251
1119.483, 147.0718
1119.965, 151.1311
1120.447, 150.0901
1120.929, 147.5222
1121.411, 147.3818
1121.894, 147.7888
1122.376, 142.0983
1122.858, 132.3812
1123.340, 130.5998
1123.822, 135.6048
1124.304, 138.1906
1124.786, 136.5638
1125.268, 135.3340
1125.750, 137.2242
1126.233, 138.7694
1126.715, 134.1681
1127.197, 128.5408
1127.679, 129.6658
1128.161, 134.2677
1128.643, 137.6017
1129.125, 139.4507
1129.607, 141.4397
1130.090, 143.7995
1130.572, 144.1272
1131.054, 139.6842
1131.536, 135.6644
1132.018, 134.3674
1132.500, 134.8366
1132.982, 138.4948
1133.464, 142.0246
1133.947, 140.3523
1134.429, 134.9507
1134.911, 132.9814
1135.393, 136.8183
1135.875, 138.8570
1136.357, 138.3676
1136.839, 135.9999
1137.321, 128.4416
1137.803, 124.3344
1138.286, 131.2992
1138.768, 141.2007
1139.250, 141.4225
1139.732, 133.2559
1140.214, 128.7796
1140.696, 128.1597
1141.178, 130.9556
1141.660, 137.7795
1142.142, 140.3529
1142.625, 135.8393
1143.107, 129.2942
1143.589, 124.1892
1144.071, 121.6981
1144.553, 125.3511
1145.035, 132.7587
1145.517, 137.2276
1145.999, 139.0007
1146.482, 138.6328
1146.964, 136.6227
1147.446, 133.7559
1147.928, 130.5031
1148.410, 128.8452
1148.892, 131.3347
1149.374, 134.1442
1149.856, 134.3216
1150.339, 132.7439
1150.821, 128.1826
1151.303, 123.7338
1151.785, 124.3656
1152.267, 129.5019
1152.749, 134.5286
1153.231, 139.0488
1153.713, 140.4916
1154.195, 134.5604
1154.677, 130.6614
1155.160, 133.5882
1155.642, 137.2178
1156.124, 137.8651
1156.606, 136.8620
1157.088, 135.9953
1157.570, 135.2543
1158.052, 134.5571
1158.534, 134.0134
1159.017, 132.8993
1159.499, 131.0172
1159.981, 129.3525
1160.463, 128.0495
1160.945, 128.6344
1161.427, 132.5986
1161.909, 137.0907
1162.391, 136.9312
1162.874, 133.5172
1163.356, 130.8618
1163.838, 129.1519
1164.320, 129.7382
1164.802, 131.9926
1165.284, 133.2116
1165.766, 132.5356
1166.248, 130.7602
1166.730, 127.7606
1167.213, 125.5336
1167.695, 125.6971
1168.177, 127.3938
1168.659, 130.1995
1169.141, 133.8347
1169.623, 139.7392
1170.105, 145.9639
1170.587, 146.7133
1171.069, 140.1888
1171.552, 134.8668
1172.034, 131.4947
1172.516, 130.5048
1172.998, 134.0963
1173.480, 136.9063
1173.962, 135.9205
1174.444, 134.2527
1174.926, 135.4286
1175.409, 138.3290
1175.891, 138.8107
1176.373, 136.6058
1176.855, 135.9686
1177.337, 136.9393
1177.819, 137.3819
1178.301, 136.9328
1178.783, 137.7960
1179.266, 141.0615
1179.748, 142.8461
1180.230, 137.7893
1180.712, 131.1374
1181.194, 132.0953
1181.676, 136.9598
1182.158, 141.0813
1182.640, 143.2449
1183.122, 140.8524
1183.604, 134.9178
1184.087, 130.5540
1184.569, 129.7371
1185.051, 129.7479
1185.533, 128.6217
1186.015, 129.0466
1186.497, 133.9450
1186.979, 138.8837
1187.461, 140.5529
1187.944, 140.5372
1188.426, 141.5355
1188.908, 143.1406
1189.390, 142.4730
1189.872, 138.3329
1190.354, 136.2130
1190.836, 136.4025
1191.318, 137.5227
1191.801, 139.4721
1192.283, 140.8949
1192.765, 140.9709
1193.247, 140.5671
1193.729, 140.9668
1194.211, 141.3818
1194.693, 139.0548
1195.175, 135.4761
1195.657, 134.9560
1196.140, 136.7181
1196.622, 137.6850
1197.104, 137.4865
1197.586, 138.1519
1198.068, 140.7939
1198.550, 142.0540
1199.032, 137.9408
1199.514, 134.2950
1199.996, 135.4630
1200.479, 137.3530
1200.961, 135.7534
1201.443, 133.3748
1201.925, 135.3288
1202.407, 140.9121
1202.889, 142.9937
1203.371, 139.8748
1203.853, 138.8400
1204.336, 141.0576
1204.818, 141.0075
1205.300, 136.5532
1205.782, 135.0269
1206.264, 140.8900
1206.746, 148.0574
1207.228, 149.4707
1207.710, 146.5218
1208.193, 140.3571
1208.675, 133.5062
1209.157, 134.8698
1209.639, 141.8580
1210.121, 146.3412
1210.603, 147.1602
1211.085, 146.9726
1211.567, 146.8325
1212.049, 146.0390
1212.531, 143.0078
1213.014, 140.7711
1213.496, 141.9707
1213.978, 143.3740
1214.460, 141.6378
1214.942, 139.6111
1215.424, 141.5011
1215.906, 146.2422
1216.388, 149.9151
1216.871, 153.0938
1217.353, 150.6671
1217.835, 140.1679
1218.317, 134.8394
1218.799, 137.0343
1219.281, 141.1093
1219.763, 144.9014
1220.245, 147.7311
1220.728, 148.9740
1221.210, 148.9828
1221.692, 148.5467
1222.174, 147.2235
1222.656, 142.0819
1223.138, 136.3199
1223.620, 137.9760
1224.102, 144.9044
1224.584, 148.8144
1225.067, 147.6046
1225.549, 144.7189
1226.031, 139.6862
1226.513, 137.0252
1226.995, 138.6245
1227.477, 142.4185
1227.959, 151.6350
1228.441, 158.1895
1228.923, 153.7488
1229.406, 145.1850
1229.888, 144.8149
1230.370, 151.6414
1230.852, 155.0246
1231.334, 154.9426
1231.816, 150.5565
1232.298, 142.1924
1232.780, 138.4037
1233.263, 141.0139
1233.745, 144.1602
1234.227, 144.5420
1234.709, 143.8202
##END=



