##NAMES=Rhodonite
##RRUFFID=R040041
##IDEAL CHEMISTRY=CaMn^2+^_3_Mn^2+^Si_5_O_15_
##LOCALITY=Franklin, Sussex County, New Jersey, USA
##OWNER=RRUFF
##SOURCE=University of Arizona Mineral Museum
##DESCRIPTION=Pink prismatic crystals
##STATUS=The identification of this mineral has been confirmed by X-ray diffraction and chemical analysis
##URL=rruff.info/R040041
##MEASURED CHEMISTRY=(Mn_0.63_Ca_0.21_Zn_0.12_Mg_0.02_Fe_0.02_)_Î£=1_Si_1.00_O_3_
120.0818, 242.6527
120.5639, 260.9307
121.0460, 285.1832
121.5281, 318.2670
122.0102, 358.3179
122.4924, 396.1614
122.9745, 431.7281
123.4566, 464.2295
123.9387, 492.1413
124.4208, 517.0698
124.9029, 541.7017
125.3851, 568.0016
125.8672, 596.0137
126.3493, 623.3841
126.8314, 647.5330
127.3135, 673.5729
127.7956, 703.6926
128.2778, 737.1619
128.7599, 773.0548
129.2420, 812.1048
129.7241, 856.7684
130.2062, 885.4008
130.6884, 892.6218
131.1705, 890.7483
131.6526, 879.8461
132.1347, 863.0388
132.6168, 847.4862
133.0989, 841.2820
133.5811, 847.8010
134.0632, 852.0316
134.5453, 843.5964
135.0274, 840.9191
135.5095, 855.8769
135.9916, 889.3474
136.4738, 934.1946
136.9559, 982.4554
137.4380, 1037.462
137.9201, 1086.048
138.4022, 1133.252
138.8843, 1171.650
139.3665, 1193.434
139.8486, 1197.286
140.3307, 1190.600
140.8128, 1183.667
141.2949, 1177.750
141.7770, 1168.248
142.2592, 1150.568
142.7413, 1131.314
143.2234, 1114.935
143.7055, 1102.617
144.1876, 1097.901
144.6697, 1108.240
145.1518, 1137.879
145.6340, 1171.408
146.1161, 1209.333
146.5982, 1249.373
147.0803, 1288.570
147.5624, 1326.212
148.0445, 1362.571
148.5267, 1398.016
149.0088, 1432.023
149.4909, 1466.451
149.9730, 1504.366
150.4551, 1542.980
150.9372, 1577.766
151.4194, 1608.290
151.9015, 1632.280
152.3836, 1645.102
152.8657, 1646.890
153.3478, 1641.716
153.8299, 1633.373
154.3121, 1619.522
154.7942, 1591.335
155.2763, 1540.345
155.7584, 1479.953
156.2405, 1435.980
156.7226, 1411.774
157.2048, 1392.436
157.6869, 1370.514
158.1690, 1347.160
158.6511, 1326.209
159.1332, 1307.815
159.6153, 1294.704
160.0975, 1289.874
160.5796, 1294.253
161.0617, 1303.974
161.5438, 1316.955
162.0259, 1333.193
162.5080, 1353.323
162.9902, 1378.567
163.4723, 1407.563
163.9544, 1437.692
164.4365, 1469.089
164.9186, 1500.844
165.4007, 1533.114
165.8829, 1565.791
166.3650, 1595.554
166.8471, 1620.116
167.3292, 1641.247
167.8113, 1662.516
168.2934, 1685.810
168.7756, 1705.176
169.2577, 1714.450
169.7398, 1713.558
170.2219, 1709.189
170.7040, 1705.148
171.1861, 1697.694
171.6683, 1681.250
172.1504, 1652.059
172.6325, 1621.594
173.1146, 1601.231
173.5967, 1591.450
174.0788, 1585.635
174.5610, 1584.447
175.0431, 1584.610
175.5252, 1581.983
176.0073, 1574.375
176.4894, 1568.022
176.9715, 1575.389
177.4537, 1600.182
177.9358, 1609.865
178.4179, 1582.333
178.9000, 1538.159
179.3821, 1492.373
179.8642, 1446.857
180.3464, 1404.044
180.8285, 1365.037
181.3106, 1328.793
181.7927, 1302.688
182.2748, 1298.826
182.7569, 1302.086
183.2391, 1299.718
183.7212, 1287.195
184.2033, 1274.667
184.6854, 1276.501
185.1675, 1295.597
185.6496, 1313.763
186.1318, 1321.682
186.6139, 1327.872
187.0960, 1340.436
187.5781, 1362.574
188.0602, 1385.175
188.5423, 1398.354
189.0245, 1402.170
189.5066, 1395.688
189.9887, 1367.109
190.4708, 1334.037
190.9529, 1309.749
191.4350, 1298.367
191.9172, 1291.068
192.3993, 1276.564
192.8814, 1253.505
193.3635, 1229.981
193.8456, 1205.714
194.3277, 1183.070
194.8099, 1164.312
195.2920, 1150.107
195.7741, 1138.081
196.2562, 1124.558
196.7383, 1108.375
197.2204, 1096.370
197.7026, 1093.963
198.1847, 1094.305
198.6668, 1092.632
199.1489, 1087.854
199.6310, 1083.421
200.1131, 1083.499
200.5953, 1088.605
201.0774, 1095.148
201.5595, 1104.945
202.0416, 1114.336
202.5237, 1119.805
203.0058, 1120.810
203.4880, 1122.023
203.9701, 1129.060
204.4522, 1142.693
204.9343, 1156.386
205.4164, 1163.754
205.8985, 1174.583
206.3807, 1197.386
206.8628, 1232.914
207.3449, 1270.433
207.8270, 1296.628
208.3091, 1309.769
208.7912, 1331.198
209.2734, 1374.996
209.7555, 1419.996
210.2376, 1453.569
210.7197, 1474.852
211.2018, 1490.028
211.6839, 1505.404
212.1661, 1521.241
212.6482, 1529.663
213.1303, 1525.286
213.6124, 1516.469
214.0945, 1508.264
214.5766, 1500.727
215.0588, 1491.189
215.5409, 1476.932
216.0230, 1458.143
216.5051, 1438.857
216.9872, 1417.696
217.4693, 1398.200
217.9515, 1384.327
218.4336, 1374.736
218.9157, 1362.743
219.3978, 1338.875
219.8799, 1305.540
220.3620, 1285.219
220.8442, 1286.138
221.3263, 1292.085
221.8084, 1294.409
222.2905, 1293.468
222.7726, 1291.005
223.2547, 1286.557
223.7369, 1280.998
224.2190, 1279.306
224.7011, 1284.642
225.1832, 1288.943
225.6653, 1285.504
226.1474, 1277.437
226.6296, 1272.235
227.1117, 1275.524
227.5938, 1284.506
228.0759, 1291.370
228.5580, 1295.780
229.0401, 1298.565
229.5223, 1296.856
230.0044, 1294.136
230.4865, 1297.053
230.9686, 1308.950
231.4507, 1327.844
231.9328, 1350.465
232.4150, 1377.082
232.8971, 1406.645
233.3792, 1439.622
233.8613, 1474.997
234.3434, 1512.102
234.8255, 1551.276
235.3077, 1591.360
235.7898, 1630.117
236.2719, 1666.875
236.7540, 1706.863
237.2361, 1756.665
237.7182, 1810.270
238.2004, 1861.393
238.6825, 1911.530
239.1646, 1954.266
239.6467, 1979.222
240.1288, 1986.295
240.6109, 1993.674
241.0931, 2007.596
241.5752, 2027.026
242.0573, 2050.980
242.5394, 2082.176
243.0215, 2111.444
243.5036, 2130.671
243.9858, 2141.097
244.4679, 2151.266
244.9500, 2163.720
245.4321, 2177.631
245.9142, 2192.247
246.3963, 2208.357
246.8785, 2221.826
247.3606, 2228.326
247.8427, 2230.140
248.3248, 2233.506
248.8069, 2238.894
249.2890, 2248.617
249.7712, 2266.440
250.2533, 2291.985
250.7354, 2321.235
251.2175, 2349.255
251.6996, 2380.531
252.1817, 2422.840
252.6639, 2477.624
253.1460, 2543.445
253.6281, 2620.082
254.1102, 2706.688
254.5923, 2804.260
255.0744, 2919.573
255.5566, 3043.255
256.0387, 3166.280
256.5208, 3286.987
257.0029, 3404.597
257.4850, 3520.476
257.9671, 3633.883
258.4492, 3730.851
258.9314, 3811.438
259.4135, 3874.645
259.8956, 3920.936
260.3777, 3950.046
260.8598, 3960.751
261.3419, 3953.880
261.8241, 3927.123
262.3062, 3868.263
262.7883, 3764.477
263.2704, 3646.033
263.7525, 3519.899
264.2346, 3389.069
264.7168, 3257.221
265.1989, 3125.749
265.6810, 2995.618
266.1631, 2875.587
266.6452, 2762.015
267.1273, 2659.979
267.6095, 2571.317
268.0916, 2494.740
268.5737, 2428.335
269.0558, 2371.371
269.5379, 2323.930
270.0201, 2287.208
270.5022, 2274.864
270.9843, 2256.995
271.4664, 2225.863
271.9485, 2192.919
272.4306, 2169.932
272.9128, 2159.997
273.3949, 2156.722
273.8770, 2151.005
274.3591, 2143.933
274.8412, 2131.203
275.3233, 2110.453
275.8055, 2086.708
276.2876, 2062.487
276.7697, 2038.309
277.2518, 2014.403
277.7339, 1991.717
278.2160, 1971.757
278.6982, 1943.900
279.1803, 1896.718
279.6624, 1852.631
280.1445, 1823.605
280.6266, 1805.026
281.1087, 1783.534
281.5909, 1748.127
282.0730, 1700.512
282.5551, 1659.142
283.0372, 1621.174
283.5193, 1593.904
284.0014, 1585.538
284.4836, 1586.900
284.9657, 1584.671
285.4478, 1571.479
285.9299, 1552.617
286.4120, 1541.330
286.8941, 1539.140
287.3763, 1541.350
287.8584, 1548.697
288.3405, 1558.449
288.8226, 1566.664
289.3047, 1571.560
289.7868, 1580.512
290.2690, 1605.363
290.7511, 1647.920
291.2332, 1687.955
291.7153, 1717.749
292.1974, 1745.702
292.6795, 1777.919
293.1617, 1814.802
293.6438, 1854.059
294.1259, 1893.286
294.6080, 1932.998
295.0901, 1976.795
295.5722, 2025.935
296.0544, 2078.099
296.5365, 2134.790
297.0186, 2194.442
297.5007, 2248.220
297.9828, 2289.005
298.4649, 2323.270
298.9471, 2362.451
299.4292, 2408.571
299.9113, 2452.738
300.3934, 2489.855
300.8755, 2519.604
301.3576, 2541.427
301.8398, 2555.361
302.3219, 2561.073
302.8040, 2552.440
303.2861, 2532.632
303.7682, 2519.943
304.2503, 2526.142
304.7325, 2544.686
305.2146, 2553.464
305.6967, 2548.473
306.1788, 2541.215
306.6609, 2532.870
307.1430, 2525.109
307.6252, 2523.779
308.1073, 2531.891
308.5894, 2538.771
309.0715, 2524.213
309.5536, 2466.999
310.0357, 2430.209
310.5179, 2430.803
311.0000, 2442.690
311.4821, 2441.467
311.9642, 2425.062
312.4463, 2410.071
312.9284, 2414.642
313.4106, 2441.905
313.8927, 2471.617
314.3748, 2508.794
314.8569, 2543.463
315.3390, 2562.079
315.8211, 2574.215
316.3033, 2603.916
316.7854, 2670.519
317.2675, 2766.176
317.7496, 2839.937
318.2317, 2868.531
318.7138, 2904.038
319.1960, 2964.982
319.6781, 3033.869
320.1602, 3091.394
320.6423, 3129.901
321.1244, 3153.454
321.6065, 3169.271
322.0887, 3178.412
322.5708, 3175.855
323.0529, 3156.267
323.5350, 3127.389
324.0171, 3093.145
324.4992, 3054.109
324.9814, 3009.189
325.4635, 2949.333
325.9456, 2877.131
326.4277, 2830.415
326.9098, 2827.658
327.3919, 2829.262
327.8741, 2805.970
328.3562, 2764.438
328.8383, 2725.159
329.3204, 2697.232
329.8025, 2676.752
330.2846, 2656.954
330.7668, 2637.445
331.2489, 2622.468
331.7310, 2615.359
332.2131, 2614.951
332.6952, 2617.179
333.1773, 2620.195
333.6595, 2627.946
334.1416, 2646.320
334.6237, 2672.091
335.1058, 2694.882
335.5879, 2711.008
336.0700, 2721.916
336.5522, 2730.553
337.0343, 2739.721
337.5164, 2740.089
337.9985, 2724.521
338.4806, 2702.234
338.9627, 2681.042
339.4449, 2662.908
339.9270, 2648.305
340.4091, 2636.430
340.8912, 2625.085
341.3733, 2632.653
341.8554, 2681.078
342.3376, 2724.058
342.8197, 2739.893
343.3018, 2732.957
343.7839, 2715.609
344.2660, 2694.182
344.7481, 2671.253
345.2303, 2660.103
345.7124, 2676.430
346.1945, 2682.877
346.6766, 2674.348
347.1587, 2654.412
347.6408, 2625.450
348.1230, 2588.329
348.6051, 2545.926
349.0872, 2500.230
349.5693, 2449.011
350.0514, 2404.942
350.5335, 2373.024
351.0157, 2345.917
351.4978, 2317.194
351.9799, 2288.660
352.4620, 2269.669
352.9441, 2270.573
353.4262, 2286.318
353.9084, 2299.421
354.3905, 2308.793
354.8726, 2318.131
355.3547, 2322.905
355.8368, 2330.153
356.3189, 2354.435
356.8011, 2411.401
357.2832, 2470.672
357.7653, 2501.836
358.2474, 2509.275
358.7295, 2520.483
359.2116, 2546.528
359.6938, 2581.033
360.1759, 2613.085
360.6580, 2642.911
361.1401, 2670.197
361.6222, 2699.314
362.1043, 2723.693
362.5865, 2732.681
363.0686, 2725.103
363.5507, 2712.761
364.0328, 2707.601
364.5149, 2710.794
364.9970, 2711.215
365.4792, 2709.451
365.9613, 2704.775
366.4434, 2697.824
366.9255, 2687.633
367.4076, 2672.229
367.8897, 2650.330
368.3719, 2622.999
368.8540, 2594.201
369.3361, 2569.164
369.8182, 2533.454
370.3003, 2481.327
370.7824, 2422.199
371.2646, 2361.004
371.7467, 2299.948
372.2288, 2242.842
372.7109, 2199.094
373.1930, 2170.299
373.6751, 2122.120
374.1573, 2032.442
374.6394, 1948.552
375.1215, 1899.017
375.6036, 1874.266
376.0857, 1849.879
376.5678, 1816.871
377.0500, 1776.286
377.5321, 1723.103
378.0142, 1654.709
378.4963, 1605.185
378.9784, 1601.551
379.4605, 1620.560
379.9427, 1616.306
380.4248, 1578.164
380.9069, 1542.755
381.3890, 1530.901
381.8711, 1532.894
382.3532, 1529.399
382.8354, 1515.454
383.3175, 1500.049
383.7996, 1493.452
384.2817, 1497.731
384.7638, 1501.764
385.2459, 1507.397
385.7281, 1511.163
386.2102, 1510.072
386.6923, 1505.312
387.1744, 1500.116
387.6565, 1496.345
388.1386, 1493.942
388.6208, 1493.083
389.1029, 1501.397
389.5850, 1499.868
390.0671, 1483.292
390.5492, 1458.830
391.0313, 1430.765
391.5135, 1400.938
391.9956, 1371.812
392.4777, 1347.805
392.9598, 1329.659
393.4419, 1305.441
393.9240, 1268.638
394.4062, 1233.365
394.8883, 1208.677
395.3704, 1190.895
395.8525, 1171.217
396.3346, 1143.650
396.8167, 1114.245
397.2989, 1092.774
397.7810, 1079.460
398.2631, 1066.980
398.7452, 1051.668
399.2273, 1036.339
399.7094, 1025.559
400.1916, 1020.201
400.6737, 1016.037
401.1558, 1010.993
401.6379, 1006.321
402.1200, 1004.008
402.6021, 1004.364
403.0843, 1006.200
403.5664, 1008.634
404.0485, 1011.771
404.5306, 1014.029
405.0127, 1015.541
405.4948, 1016.227
405.9770, 1015.770
406.4591, 1014.530
406.9412, 1011.918
407.4233, 1007.555
407.9054, 1004.649
408.3875, 1012.184
408.8697, 1040.455
409.3518, 1056.008
409.8339, 1045.437
410.3160, 1031.734
410.7981, 1029.422
411.2802, 1038.064
411.7624, 1047.498
412.2445, 1047.223
412.7266, 1041.144
413.2087, 1048.350
413.6908, 1075.357
414.1729, 1098.924
414.6551, 1102.298
415.1372, 1096.572
415.6193, 1095.625
416.1014, 1102.286
416.5835, 1112.952
417.0656, 1128.193
417.5478, 1145.570
418.0299, 1156.753
418.5120, 1158.561
418.9941, 1158.618
419.4762, 1168.109
419.9583, 1190.196
420.4405, 1199.715
420.9226, 1186.615
421.4047, 1168.846
421.8868, 1154.903
422.3689, 1145.774
422.8510, 1142.013
423.3332, 1144.396
423.8153, 1150.727
424.2974, 1153.486
424.7795, 1149.151
425.2616, 1146.789
425.7437, 1145.668
426.2259, 1147.478
426.7080, 1154.464
427.1901, 1166.323
427.6722, 1179.667
428.1543, 1190.336
428.6364, 1199.052
429.1186, 1214.202
429.6007, 1239.137
430.0828, 1264.240
430.5649, 1281.761
431.0470, 1297.181
431.5291, 1318.718
432.0113, 1348.731
432.4934, 1384.248
432.9755, 1427.740
433.4576, 1475.598
433.9397, 1514.300
434.4218, 1539.766
434.9040, 1557.097
435.3861, 1572.543
435.8682, 1586.677
436.3503, 1593.905
436.8324, 1588.661
437.3145, 1580.959
437.7967, 1580.685
438.2788, 1583.788
438.7609, 1577.755
439.2430, 1554.963
439.7251, 1519.988
440.2072, 1486.658
440.6894, 1454.749
441.1715, 1424.831
441.6536, 1395.653
442.1357, 1368.983
442.6178, 1346.630
443.0999, 1328.330
443.5821, 1311.747
444.0642, 1294.097
444.5463, 1276.324
445.0284, 1264.136
445.5105, 1258.847
445.9926, 1255.781
446.4748, 1254.365
446.9569, 1253.245
447.4390, 1249.745
447.9211, 1241.302
448.4032, 1236.203
448.8853, 1243.013
449.3675, 1256.598
449.8496, 1264.567
450.3317, 1263.669
450.8138, 1262.373
451.2959, 1269.955
451.7780, 1287.550
452.2602, 1302.019
452.7423, 1312.901
453.2244, 1321.296
453.7065, 1329.288
454.1886, 1334.769
454.6707, 1332.523
455.1528, 1320.230
455.6349, 1304.350
456.1171, 1298.614
456.5992, 1309.720
457.0813, 1310.562
457.5634, 1291.840
458.0455, 1268.934
458.5276, 1246.340
459.0098, 1225.364
459.4919, 1208.115
459.9740, 1197.152
460.4561, 1189.421
460.9382, 1178.812
461.4203, 1165.021
461.9025, 1154.074
462.3846, 1148.585
462.8667, 1146.896
463.3488, 1146.137
463.8309, 1146.033
464.3130, 1147.897
464.7952, 1151.906
465.2773, 1158.194
465.7594, 1168.731
466.2415, 1182.566
466.7236, 1193.994
467.2057, 1198.488
467.6879, 1197.464
468.1700, 1199.602
468.6521, 1209.816
469.1342, 1216.878
469.6163, 1215.989
470.0984, 1214.015
470.5806, 1219.207
471.0627, 1231.682
471.5448, 1241.927
472.0269, 1237.650
472.5090, 1221.074
472.9911, 1213.649
473.4733, 1217.708
473.9554, 1225.755
474.4375, 1236.603
474.9196, 1248.302
475.4017, 1258.895
475.8839, 1270.181
476.3660, 1275.257
476.8481, 1266.081
477.3302, 1248.245
477.8123, 1233.978
478.2944, 1225.973
478.7766, 1217.727
479.2587, 1202.147
479.7408, 1178.552
480.2229, 1160.687
480.7050, 1153.309
481.1871, 1145.339
481.6693, 1131.963
482.1514, 1116.394
482.6335, 1101.901
483.1156, 1089.956
483.5977, 1082.867
484.0798, 1084.722
484.5620, 1096.451
485.0441, 1110.633
485.5262, 1131.757
486.0083, 1149.059
486.4904, 1152.891
486.9725, 1149.605
487.4547, 1152.250
487.9368, 1165.127
488.4189, 1185.148
488.9010, 1213.813
489.3831, 1248.048
489.8652, 1274.135
490.3474, 1286.931
490.8295, 1295.586
491.3116, 1311.579
491.7937, 1336.916
492.2758, 1358.686
492.7579, 1376.248
493.2401, 1390.907
493.7222, 1406.618
494.2043, 1419.416
494.6864, 1421.719
495.1685, 1410.072
495.6506, 1389.046
496.1328, 1366.181
496.6149, 1340.920
497.0970, 1315.278
497.5791, 1289.482
498.0612, 1263.177
498.5433, 1236.500
499.0255, 1209.244
499.5076, 1180.903
499.9897, 1149.194
500.4718, 1118.798
500.9539, 1094.073
501.4360, 1075.153
501.9182, 1063.671
502.4003, 1061.658
502.8824, 1063.376
503.3645, 1060.547
503.8466, 1051.189
504.3287, 1047.595
504.8109, 1052.732
505.2930, 1061.163
505.7751, 1073.705
506.2572, 1086.729
506.7393, 1092.274
507.2214, 1086.233
507.7036, 1076.493
508.1857, 1079.559
508.6678, 1099.804
509.1499, 1115.232
509.6320, 1118.526
510.1141, 1122.332
510.5963, 1133.630
511.0784, 1150.787
511.5605, 1169.187
512.0426, 1190.438
512.5247, 1208.199
513.0068, 1212.356
513.4890, 1205.820
513.9711, 1203.727
514.4532, 1211.800
514.9353, 1222.137
515.4174, 1223.853
515.8995, 1214.273
516.3817, 1208.183
516.8638, 1211.796
517.3459, 1212.577
517.8280, 1204.236
518.3101, 1188.797
518.7922, 1169.573
519.2744, 1147.878
519.7565, 1125.932
520.2386, 1107.523
520.7207, 1093.346
521.2028, 1078.447
521.6849, 1063.448
522.1671, 1046.436
522.6492, 1024.310
523.1313, 999.6030
523.6134, 978.3161
524.0955, 963.6266
524.5776, 950.7959
525.0598, 934.5722
525.5419, 917.1197
526.0240, 905.0676
526.5061, 900.3183
526.9882, 898.2333
527.4703, 893.6887
527.9525, 886.2190
528.4346, 880.6449
528.9167, 879.8283
529.3988, 877.3981
529.8809, 869.8797
530.3630, 860.3394
530.8452, 852.8190
531.3273, 848.5424
531.8094, 845.3901
532.2915, 840.7836
532.7736, 834.8433
533.2557, 829.0837
533.7379, 821.7495
534.2200, 818.8111
534.7021, 826.0640
535.1842, 839.7804
535.6663, 852.9812
536.1484, 865.1482
536.6306, 876.4719
537.1127, 886.8182
537.5948, 896.4182
538.0769, 905.3713
538.5590, 913.7584
539.0411, 921.7001
539.5233, 929.1619
540.0054, 936.3082
540.4875, 945.2085
540.9696, 957.3051
541.4517, 968.9898
541.9338, 980.1231
542.4160, 990.3440
542.8981, 1000.455
543.3802, 1010.000
543.8623, 1015.990
544.3444, 1013.800
544.8265, 1007.233
545.3087, 1006.181
545.7908, 1011.021
546.2729, 1010.725
546.7550, 997.6810
547.2371, 979.6411
547.7192, 973.3106
548.2014, 983.9083
548.6835, 988.2986
549.1656, 978.6389
549.6477, 966.4403
550.1298, 959.7255
550.6119, 957.3378
551.0941, 954.0593
551.5762, 946.9171
552.0583, 938.3325
552.5404, 932.7888
553.0225, 929.8449
553.5046, 932.4636
553.9868, 944.1714
554.4689, 958.0939
554.9510, 971.3957
555.4331, 983.2616
555.9152, 991.4370
556.3973, 996.5562
556.8795, 996.1966
557.3616, 985.9421
557.8437, 969.0886
558.3258, 952.6898
558.8079, 938.5477
559.2900, 926.2665
559.7722, 915.6568
560.2543, 906.9306
560.7364, 896.3347
561.2185, 877.9146
561.7006, 864.6267
562.1827, 863.5144
562.6649, 866.4785
563.1470, 864.3265
563.6291, 855.2434
564.1112, 845.3542
564.5933, 841.0676
565.0754, 839.9852
565.5576, 833.2275
566.0397, 819.5602
566.5218, 811.3436
567.0039, 817.8484
567.4860, 831.9373
567.9681, 835.0727
568.4503, 821.2952
568.9324, 813.0111
569.4145, 818.3755
569.8966, 825.9626
570.3787, 828.1791
570.8608, 825.1857
571.3430, 819.7946
571.8251, 813.4944
572.3072, 806.5173
572.7893, 798.5141
573.2714, 788.7968
573.7535, 783.3855
574.2357, 785.9592
574.7178, 789.5029
575.1999, 787.9346
575.6820, 782.9689
576.1641, 780.1487
576.6462, 786.1455
577.1284, 788.3834
577.6105, 776.0353
578.0926, 755.7684
578.5747, 737.6891
579.0568, 724.4583
579.5389, 716.9642
580.0211, 717.3609
580.5032, 725.1146
580.9853, 725.4042
581.4674, 711.7304
581.9495, 700.5685
582.4316, 696.8309
582.9138, 695.9384
583.3959, 694.3863
583.8780, 691.6004
584.3601, 687.5791
584.8422, 681.1650
585.3243, 674.1117
585.8065, 669.2559
586.2886, 666.3942
586.7707, 662.9901
587.2528, 657.3902
587.7349, 652.6937
588.2170, 655.2016
588.6992, 670.0876
589.1813, 676.3724
589.6634, 666.6362
590.1455, 657.0616
590.6276, 653.6333
591.1097, 655.2106
591.5919, 659.9548
592.0740, 667.3580
592.5561, 675.0085
593.0382, 681.8589
593.5203, 686.9748
594.0024, 684.1196
594.4846, 670.8434
594.9667, 660.0330
595.4488, 660.1340
595.9309, 668.7556
596.4130, 677.8772
596.8951, 690.8656
597.3773, 698.6179
597.8594, 698.4675
598.3415, 693.6171
598.8236, 683.3299
599.3057, 670.3837
599.7878, 661.6925
600.2700, 661.7073
600.7521, 667.3606
601.2342, 673.4724
601.7163, 680.2347
602.1984, 684.1049
602.6805, 682.7007
603.1627, 681.1578
603.6448, 684.3751
604.1269, 691.3009
604.6090, 697.6912
605.0911, 704.8041
605.5732, 709.3478
606.0554, 707.3066
606.5375, 703.2292
607.0196, 703.3206
607.5017, 708.2258
607.9838, 713.6501
608.4659, 715.5228
608.9481, 715.0860
609.4302, 719.5010
609.9123, 731.6973
610.3944, 739.3323
610.8765, 735.3563
611.3586, 728.9788
611.8408, 728.9017
612.3229, 734.6381
612.8050, 739.8792
613.2871, 742.4595
613.7692, 744.2916
614.2513, 745.6756
614.7335, 747.5370
615.2156, 753.2885
615.6977, 763.4813
616.1798, 771.2186
616.6619, 766.5392
617.1440, 749.6558
617.6262, 745.9577
618.1083, 763.6830
618.5904, 779.9431
619.0725, 786.5806
619.5546, 789.1625
620.0367, 792.3012
620.5189, 796.4374
621.0010, 800.4833
621.4831, 801.4265
621.9652, 803.9539
622.4473, 816.6870
622.9294, 835.4729
623.4116, 845.4904
623.8937, 840.7296
624.3758, 831.0367
624.8579, 830.9822
625.3400, 842.0584
625.8221, 852.6227
626.3043, 863.8726
626.7864, 872.8754
627.2685, 876.7908
627.7506, 879.1180
628.2327, 884.2830
628.7148, 893.1813
629.1970, 902.0480
629.6791, 906.4991
630.1612, 911.1172
630.6433, 926.2147
631.1254, 948.4623
631.6075, 958.4469
632.0897, 945.9037
632.5718, 926.5909
633.0539, 931.1032
633.5360, 969.2383
634.0181, 993.1850
634.5002, 987.9064
634.9824, 985.8218
635.4645, 1001.849
635.9466, 1026.156
636.4287, 1044.727
636.9108, 1054.008
637.3929, 1061.922
637.8751, 1071.554
638.3572, 1083.855
638.8393, 1101.911
639.3214, 1124.705
639.8035, 1145.512
640.2856, 1160.663
640.7678, 1172.977
641.2499, 1187.909
641.7320, 1204.665
642.2141, 1226.327
642.6962, 1256.553
643.1783, 1287.902
643.6605, 1318.506
644.1426, 1348.193
644.6247, 1374.640
645.1068, 1395.528
645.5889, 1424.850
646.0710, 1480.026
646.5532, 1544.833
647.0353, 1593.801
647.5174, 1627.624
647.9995, 1660.926
648.4816, 1700.205
648.9637, 1749.609
649.4459, 1819.664
649.9280, 1916.827
650.4101, 2014.674
650.8922, 2108.290
651.3743, 2208.617
651.8564, 2316.446
652.3386, 2434.832
652.8207, 2569.112
653.3028, 2720.981
653.7849, 2887.052
654.2670, 3058.745
654.7491, 3247.037
655.2313, 3470.088
655.7134, 3725.619
656.1955, 3996.711
656.6776, 4273.852
657.1597, 4567.635
657.6418, 4898.622
658.1240, 5271.790
658.6061, 5668.287
659.0882, 6090.839
659.5703, 6534.220
660.0524, 6991.189
660.5345, 7471.030
661.0167, 7984.192
661.4988, 8537.844
661.9809, 9106.253
662.4630, 9693.808
662.9451, 10284.28
663.4272, 10881.84
663.9094, 11472.05
664.3915, 12023.98
664.8736, 12522.28
665.3557, 12959.35
665.8378, 13322.47
666.3199, 13617.15
666.8021, 13796.57
667.2842, 13870.40
667.7663, 13811.23
668.2484, 13580.77
668.7305, 13216.61
669.2126, 12751.38
669.6948, 12176.73
670.1769, 11570.31
670.6590, 10935.62
671.1411, 10299.00
671.6232, 9665.665
672.1053, 9046.604
672.5875, 8457.600
673.0696, 7904.384
673.5517, 7394.293
674.0338, 6938.654
674.5159, 6534.996
674.9980, 6167.366
675.4802, 5836.614
675.9623, 5535.274
676.4444, 5261.145
676.9265, 5015.878
677.4086, 4808.199
677.8907, 4641.493
678.3729, 4473.695
678.8550, 4295.824
679.3371, 4119.284
679.8192, 3954.239
680.3013, 3792.290
680.7834, 3621.574
681.2656, 3439.087
681.7477, 3254.230
682.2298, 3075.047
682.7119, 2901.907
683.1940, 2735.899
683.6761, 2577.799
684.1583, 2422.352
684.6404, 2263.827
685.1225, 2114.806
685.6046, 1990.212
686.0867, 1893.013
686.5688, 1801.432
687.0510, 1715.933
687.5331, 1635.314
688.0152, 1555.795
688.4973, 1482.486
688.9794, 1422.217
689.4615, 1374.306
689.9437, 1329.480
690.4258, 1280.790
690.9079, 1232.853
691.3900, 1192.857
691.8721, 1159.465
692.3542, 1126.835
692.8364, 1093.326
693.3185, 1063.485
693.8006, 1042.603
694.2827, 1029.661
694.7648, 1015.083
695.2469, 997.1393
695.7291, 980.4633
696.2112, 966.9808
696.6933, 953.7833
697.1754, 936.3163
697.6575, 917.2976
698.1396, 905.9767
698.6218, 908.1496
699.1039, 914.3403
699.5860, 919.5982
700.0681, 923.9686
700.5502, 926.7194
701.0323, 928.3082
701.5145, 931.1133
701.9966, 936.5362
702.4787, 944.8972
702.9608, 957.5244
703.4429, 975.0766
703.9250, 992.4254
704.4072, 1007.178
704.8893, 1025.037
705.3714, 1050.915
705.8535, 1082.410
706.3356, 1113.672
706.8177, 1142.595
707.2999, 1176.383
707.7820, 1219.112
708.2641, 1265.412
708.7462, 1312.386
709.2283, 1359.371
709.7104, 1406.385
710.1926, 1453.624
710.6747, 1498.935
711.1568, 1540.386
711.6389, 1577.901
712.1210, 1611.947
712.6031, 1642.683
713.0853, 1667.614
713.5674, 1688.071
714.0495, 1696.768
714.5316, 1680.806
715.0137, 1635.609
715.4958, 1588.133
715.9780, 1536.786
716.4601, 1485.529
716.9422, 1437.561
717.4243, 1389.215
717.9064, 1335.165
718.3885, 1275.531
718.8707, 1216.310
719.3528, 1157.566
719.8349, 1103.521
720.3170, 1060.378
720.7991, 1025.294
721.2813, 991.3655
721.7634, 956.8862
722.2455, 922.8633
722.7276, 889.2639
723.2097, 857.7914
723.6918, 838.4738
724.1740, 835.9284
724.6561, 828.1262
725.1382, 805.7591
725.6203, 784.4661
726.1024, 779.2911
726.5845, 785.2067
727.0667, 787.2580
727.5488, 781.0074
728.0309, 776.0870
728.5130, 777.0165
728.9951, 778.8978
729.4772, 775.2474
729.9594, 769.0341
730.4415, 769.6298
730.9236, 781.9730
731.4057, 796.5562
731.8878, 800.0423
732.3699, 795.8722
732.8521, 796.9648
733.3342, 804.2720
733.8163, 813.1816
734.2984, 821.9042
734.7805, 829.8734
735.2626, 835.7587
735.7448, 838.5054
736.2269, 843.9533
736.7090, 855.9103
737.1911, 865.8446
737.6732, 867.2998
738.1553, 868.3919
738.6375, 882.3423
739.1196, 908.8099
739.6017, 922.4772
740.0838, 902.9439
740.5659, 876.4852
741.0480, 863.8136
741.5302, 858.2449
742.0123, 848.1143
742.4944, 831.0640
742.9765, 810.2404
743.4586, 786.7349
743.9407, 763.6055
744.4229, 751.8099
744.9050, 752.2151
745.3871, 744.5266
745.8692, 722.8412
746.3513, 699.6959
746.8334, 684.1473
747.3156, 674.5944
747.7977, 664.9310
748.2798, 653.9620
748.7619, 644.7374
749.2440, 640.6291
749.7261, 634.9359
750.2083, 619.4020
750.6904, 601.1541
751.1725, 594.6571
751.6546, 604.8254
752.1367, 613.5825
752.6188, 605.7721
753.1010, 591.0379
753.5831, 581.5159
754.0652, 576.6727
754.5473, 572.2042
755.0294, 566.6423
755.5115, 562.0594
755.9937, 560.8372
756.4758, 562.8608
756.9579, 567.9803
757.4400, 577.8540
757.9221, 584.2404
758.4042, 585.6830
758.8864, 581.8611
759.3685, 568.3349
759.8506, 546.9877
760.3327, 537.9434
760.8148, 550.8573
761.2969, 563.0366
761.7791, 574.6710
762.2612, 580.3178
762.7433, 570.6362
763.2254, 551.8917
763.7075, 541.4838
764.1896, 548.3994
764.6718, 555.6006
765.1539, 542.5637
765.6360, 521.6490
766.1181, 516.9432
766.6002, 527.1868
767.0823, 535.7354
767.5645, 535.0556
768.0466, 530.3356
768.5287, 529.4205
769.0108, 532.3743
769.4929, 531.7938
769.9750, 525.5958
770.4572, 522.2933
770.9393, 525.2339
771.4214, 531.5784
771.9035, 540.3356
772.3856, 551.2764
772.8677, 554.8318
773.3499, 543.8590
773.8320, 534.2997
774.3141, 531.5232
774.7962, 530.6415
775.2783, 527.0690
775.7604, 521.4793
776.2426, 517.1390
776.7247, 515.0804
777.2068, 516.0007
777.6889, 523.7361
778.1710, 533.5518
778.6531, 535.7875
779.1353, 531.0193
779.6174, 526.8317
780.0995, 526.9259
780.5816, 528.3800
781.0637, 526.2537
781.5458, 520.5432
782.0280, 517.4817
782.5101, 517.6129
782.9922, 518.6721
783.4743, 521.0825
783.9564, 522.4683
784.4385, 519.3829
784.9207, 511.6310
785.4028, 505.6076
785.8849, 500.7420
786.3670, 498.3417
786.8491, 500.2234
787.3312, 503.3507
787.8134, 504.6375
788.2955, 505.0636
788.7776, 509.0547
789.2597, 520.7893
789.7418, 529.0823
790.2239, 521.6926
790.7061, 508.5643
791.1882, 503.1719
791.6703, 504.9702
792.1524, 507.6748
792.6345, 508.5531
793.1166, 508.4191
793.5988, 508.1921
794.0809, 507.8908
794.5630, 507.7371
795.0451, 507.7955
795.5272, 507.6483
796.0093, 507.8121
796.4915, 505.7874
796.9736, 497.9019
797.4557, 484.6001
797.9378, 475.6556
798.4199, 471.7934
798.9020, 471.2834
799.3842, 476.2299
799.8663, 482.1009
800.3484, 485.9565
800.8305, 488.6365
801.3126, 492.8760
801.7947, 500.4623
802.2769, 505.6664
802.7590, 505.4075
803.2411, 502.3055
803.7232, 496.8644
804.2053, 490.8381
804.6874, 486.7242
805.1696, 485.4221
805.6517, 486.8758
806.1338, 492.9020
806.6159, 500.6074
807.0980, 503.5697
807.5801, 502.4410
808.0623, 500.1228
808.5444, 497.2648
809.0265, 496.3957
809.5086, 500.1149
809.9907, 506.7712
810.4728, 509.8694
810.9550, 508.2756
811.4371, 507.8409
811.9192, 510.8681
812.4013, 511.7343
812.8834, 505.7245
813.3655, 496.2289
813.8477, 489.8168
814.3298, 486.5639
814.8119, 485.8382
815.2940, 491.8937
815.7761, 495.4231
816.2582, 490.5378
816.7404, 482.6012
817.2225, 476.2108
817.7046, 472.6365
818.1867, 473.7454
818.6688, 485.7503
819.1509, 495.4063
819.6331, 487.2846
820.1152, 472.1049
820.5973, 466.8009
821.0794, 471.6610
821.5615, 477.9732
822.0436, 481.2251
822.5258, 482.8544
823.0079, 485.4787
823.4900, 488.4671
823.9720, 487.6320
824.4542, 482.7649
824.9363, 479.0819
825.4184, 478.8879
825.9005, 479.1282
826.3826, 463.4934
826.8647, 476.4446
827.3469, 484.0417
827.8290, 486.5721
828.3111, 468.8608
828.7932, 477.2874
829.2753, 475.2392
829.7574, 472.7613
830.2396, 484.8668
830.7217, 470.0996
831.2038, 481.9737
831.6859, 483.2131
832.1680, 489.3197
832.6501, 484.8867
833.1323, 482.7570
833.6144, 474.7504
834.0965, 471.2614
834.5786, 473.9306
835.0607, 474.7385
835.5428, 465.6503
836.0250, 455.5607
836.5071, 452.4236
836.9892, 454.5617
837.4713, 461.0818
837.9534, 470.2480
838.4355, 475.3378
838.9177, 471.4759
839.3998, 465.2303
839.8819, 470.0097
840.3640, 482.8441
840.8461, 485.1995
841.3282, 475.8592
841.8104, 468.5759
842.2925, 469.7180
842.7746, 473.2911
843.2567, 470.7732
843.7388, 462.2948
844.2209, 457.8626
844.7031, 458.9356
845.1852, 460.3688
845.6673, 461.7155
846.1494, 462.3285
846.6315, 459.9955
847.1136, 456.4338
847.5958, 458.6794
848.0779, 472.7061
848.5600, 480.6409
849.0421, 473.5442
849.5242, 468.0582
850.0063, 476.6860
850.4885, 489.7647
850.9706, 492.8745
851.4527, 484.1120
851.9348, 475.0069
852.4169, 469.4784
852.8990, 466.8183
853.3812, 469.3945
853.8633, 472.8630
854.3454, 469.4973
854.8275, 460.8165
855.3096, 456.0077
855.7917, 460.1142
856.2739, 468.2667
856.7560, 475.0968
857.2381, 481.3351
857.7202, 490.7202
858.2023, 501.9038
858.6844, 504.8878
859.1666, 496.1001
859.6487, 486.7098
860.1308, 489.9037
860.6129, 502.5380
861.0950, 508.8112
861.5771, 508.2196
862.0593, 506.8690
862.5414, 504.8893
863.0235, 506.2442
863.5056, 515.6763
863.9877, 528.0849
864.4698, 528.7080
864.9520, 508.8347
865.4341, 506.7186
865.9162, 538.5076
866.3983, 564.2440
866.8804, 564.0051
867.3625, 556.2270
867.8447, 559.6942
868.3268, 573.3812
868.8089, 582.2686
869.2910, 577.5544
869.7731, 577.5278
870.2552, 591.1960
870.7374, 606.5891
871.2195, 615.4055
871.7016, 619.1964
872.1837, 622.8026
872.6658, 627.6140
873.1479, 630.6835
873.6301, 626.9188
874.1122, 624.0403
874.5943, 631.6202
875.0764, 643.5001
875.5585, 649.8116
876.0406, 648.9781
876.5228, 644.1621
877.0049, 636.7853
877.4870, 628.2103
877.9691, 619.0958
878.4512, 610.4225
878.9333, 604.1815
879.4155, 600.7450
879.8976, 602.0042
880.3797, 608.7313
880.8618, 615.6079
881.3439, 616.0765
881.8260, 611.0828
882.3082, 603.9824
882.7903, 594.6917
883.2724, 590.0558
883.7545, 592.2981
884.2366, 594.4932
884.7188, 591.3080
885.2009, 585.1436
885.6830, 582.7812
886.1651, 585.9816
886.6472, 585.5798
887.1293, 579.3288
887.6115, 574.1807
888.0936, 572.1940
888.5757, 572.8247
889.0578, 576.8853
889.5399, 584.1202
890.0220, 586.5876
890.5042, 578.6479
890.9863, 574.4332
891.4684, 578.4446
891.9505, 583.0514
892.4326, 583.6898
892.9147, 582.1252
893.3969, 581.5950
893.8790, 582.5991
894.3611, 584.0898
894.8432, 588.5410
895.3253, 590.1432
895.8074, 580.3908
896.2896, 570.2150
896.7717, 573.8415
897.2538, 588.6558
897.7359, 600.4947
898.2180, 603.2859
898.7001, 602.8688
899.1823, 602.8036
899.6644, 602.1167
900.1465, 597.2104
900.6286, 591.4390
901.1107, 592.4689
901.5928, 601.8293
902.0750, 614.3102
902.5571, 627.0789
903.0392, 639.0450
903.5213, 649.0728
904.0034, 657.0327
904.4855, 658.8309
904.9677, 656.6914
905.4498, 666.3294
905.9319, 695.7740
906.4140, 730.6536
906.8961, 750.0190
907.3782, 758.1081
907.8604, 774.6893
908.3425, 799.4088
908.8246, 826.7118
909.3067, 855.6933
909.7888, 880.9749
910.2709, 898.3672
910.7531, 909.7560
911.2352, 920.2128
911.7173, 929.9773
912.1994, 936.0456
912.6815, 937.1337
913.1636, 939.5964
913.6458, 946.7387
914.1279, 954.4210
914.6100, 959.0585
915.0921, 960.2499
915.5742, 952.7129
916.0563, 930.7844
916.5385, 913.4780
917.0206, 906.7324
917.5027, 898.5262
917.9848, 879.5749
918.4669, 856.9919
918.9490, 844.1182
919.4312, 842.9492
919.9133, 837.1771
920.3954, 825.7115
920.8775, 810.7861
921.3596, 787.3690
921.8417, 765.5938
922.3239, 753.1050
922.8060, 748.2208
923.2881, 747.2332
923.7702, 752.5544
924.2523, 751.1352
924.7344, 731.1631
925.2166, 713.5316
925.6987, 710.3407
926.1808, 714.0369
926.6629, 715.3619
927.1450, 714.4020
927.6271, 717.6056
928.1093, 729.2784
928.5914, 741.0828
929.0735, 747.6891
929.5556, 753.4587
930.0377, 761.5942
930.5198, 772.0909
931.0020, 785.2025
931.4841, 800.5662
931.9662, 814.5484
932.4483, 821.0165
932.9304, 830.5892
933.4125, 857.7977
933.8947, 891.5005
934.3768, 918.1667
934.8589, 936.0408
935.3410, 945.4223
935.8231, 946.6425
936.3052, 942.9524
936.7874, 938.3191
937.2695, 930.1738
937.7516, 912.4643
938.2337, 888.3416
938.7158, 865.0270
939.1979, 843.6839
939.6801, 823.3605
940.1622, 803.4252
940.6443, 784.8221
941.1264, 768.4845
941.6085, 754.5611
942.0906, 744.7411
942.5728, 738.3318
943.0549, 731.0488
943.5370, 721.9385
944.0191, 714.6572
944.5012, 712.5074
944.9833, 712.1600
945.4655, 704.2874
945.9476, 690.4637
946.4297, 686.7450
946.9118, 693.8985
947.3939, 701.0629
947.8760, 704.1924
948.3582, 708.9978
948.8403, 722.4895
949.3224, 740.7837
949.8045, 746.2783
950.2866, 737.6172
950.7687, 737.5128
951.2509, 749.1721
951.7330, 762.0185
952.2151, 770.7706
952.6972, 779.8536
953.1793, 795.3657
953.6614, 816.8813
954.1436, 838.1360
954.6257, 860.2540
955.1078, 876.5636
955.5899, 883.0516
956.0720, 892.1199
956.5541, 911.1013
957.0363, 936.0552
957.5184, 959.5867
958.0005, 980.7591
958.4826, 1012.570
958.9647, 1059.520
959.4468, 1105.462
959.9290, 1142.413
960.4111, 1185.795
960.8932, 1248.798
961.3753, 1323.875
961.8574, 1392.073
962.3395, 1448.166
962.8217, 1517.122
963.3038, 1595.449
963.7859, 1692.667
964.2680, 1821.111
964.7501, 1957.678
965.2322, 2082.409
965.7144, 2200.577
966.1965, 2333.734
966.6786, 2489.058
967.1607, 2641.106
967.6428, 2785.161
968.1249, 2933.739
968.6071, 3094.499
969.0892, 3257.993
969.5713, 3422.457
970.0534, 3584.229
970.5355, 3725.956
971.0176, 3854.545
971.4998, 3947.425
971.9819, 4002.399
972.4640, 4021.531
972.9461, 3995.686
973.4282, 3941.317
973.9103, 3867.485
974.3925, 3779.091
974.8746, 3699.626
975.3567, 3645.287
975.8388, 3579.305
976.3209, 3481.804
976.8030, 3385.748
977.2852, 3296.983
977.7673, 3226.088
978.2494, 3188.502
978.7315, 3183.682
979.2136, 3190.888
979.6957, 3200.575
980.1779, 3228.822
980.6600, 3287.678
981.1421, 3358.186
981.6242, 3426.783
982.1063, 3499.868
982.5884, 3586.801
983.0706, 3689.005
983.5527, 3806.071
984.0348, 3939.091
984.5169, 4085.333
984.9990, 4240.160
985.4811, 4411.492
985.9633, 4617.557
986.4454, 4839.287
986.9275, 5047.650
987.4096, 5236.769
987.8917, 5424.378
988.3738, 5621.859
988.8560, 5813.326
989.3381, 6011.824
989.8202, 6184.837
990.3023, 6309.333
990.7844, 6386.846
991.2665, 6416.275
991.7487, 6397.619
992.2308, 6375.685
992.7129, 6374.153
993.1950, 6366.239
993.6771, 6322.922
994.1592, 6281.285
994.6414, 6259.921
995.1235, 6271.687
995.6056, 6338.040
996.0877, 6464.595
996.5698, 6620.887
997.0519, 6796.122
997.5341, 6994.052
998.0162, 7226.882
998.4983, 7472.948
998.9804, 7731.200
999.4625, 7982.694
999.9446, 8197.163
1000.427, 8367.324
1000.909, 8491.719
1001.391, 8587.933
1001.873, 8617.007
1002.355, 8562.631
1002.837, 8426.375
1003.319, 8196.664
1003.802, 7889.995
1004.284, 7535.978
1004.766, 7142.059
1005.248, 6726.627
1005.730, 6280.204
1006.212, 5835.555
1006.694, 5398.871
1007.176, 4984.774
1007.659, 4605.595
1008.141, 4263.696
1008.623, 3963.534
1009.105, 3708.155
1009.587, 3480.721
1010.069, 3279.766
1010.551, 3097.659
1011.033, 2931.982
1011.515, 2782.825
1011.998, 2650.116
1012.480, 2534.352
1012.962, 2438.781
1013.444, 2366.087
1013.926, 2295.063
1014.408, 2214.137
1014.890, 2135.852
1015.372, 2066.512
1015.854, 2002.852
1016.337, 1945.784
1016.819, 1890.894
1017.301, 1827.120
1017.783, 1749.924
1018.265, 1683.635
1018.747, 1644.277
1019.229, 1608.210
1019.711, 1561.419
1020.194, 1515.737
1020.676, 1486.132
1021.158, 1465.476
1021.640, 1433.178
1022.122, 1383.051
1022.604, 1346.889
1023.086, 1349.576
1023.568, 1348.603
1024.051, 1321.298
1024.533, 1288.898
1025.015, 1267.264
1025.497, 1254.553
1025.979, 1245.672
1026.461, 1240.384
1026.943, 1231.648
1027.425, 1215.396
1027.907, 1198.562
1028.390, 1184.091
1028.872, 1169.136
1029.354, 1148.350
1029.836, 1126.665
1030.318, 1115.941
1030.800, 1118.951
1031.282, 1112.853
1031.764, 1078.919
1032.246, 1056.754
1032.729, 1070.643
1033.211, 1083.918
1033.693, 1067.866
1034.175, 1038.173
1034.657, 1022.540
1035.139, 1023.417
1035.621, 1024.655
1036.103, 1029.581
1036.586, 1028.068
1037.068, 1009.887
1037.550, 994.6115
1038.032, 995.0182
1038.514, 1003.466
1038.996, 1006.856
1039.478, 1004.720
1039.960, 1013.990
1040.443, 1042.810
1040.925, 1069.168
1041.407, 1089.315
1041.889, 1109.941
1042.371, 1136.662
1042.853, 1162.814
1043.335, 1176.574
1043.817, 1179.604
1044.299, 1200.871
1044.781, 1250.444
1045.264, 1294.533
1045.746, 1330.817
1046.228, 1361.699
1046.710, 1385.158
1047.192, 1407.892
1047.674, 1439.291
1048.156, 1476.417
1048.638, 1501.786
1049.121, 1513.149
1049.603, 1520.630
1050.085, 1523.785
1050.567, 1525.616
1051.049, 1527.209
1051.531, 1528.886
1052.013, 1534.434
1052.495, 1536.332
1052.978, 1505.231
1053.460, 1436.600
1053.942, 1375.785
1054.424, 1324.951
1054.906, 1269.769
1055.388, 1204.751
1055.870, 1145.961
1056.352, 1107.842
1056.834, 1081.990
1057.317, 1048.774
1057.799, 1009.064
1058.281, 976.7252
1058.763, 951.7010
1059.245, 928.5090
1059.727, 905.9118
1060.209, 887.3976
1060.691, 875.4196
1061.173, 866.5844
1061.656, 854.3582
1062.138, 840.7065
1062.620, 834.2111
1063.102, 833.7733
1063.584, 835.7977
1064.066, 838.8069
1064.548, 836.7197
1065.030, 826.4077
1065.513, 816.3022
1065.995, 817.5302
1066.477, 824.5488
1066.959, 826.2657
1067.441, 825.1275
1067.923, 827.0042
1068.405, 831.9860
1068.887, 838.0364
1069.370, 844.1464
1069.852, 847.9645
1070.334, 846.9355
1070.816, 843.4842
1071.298, 835.3483
1071.780, 830.0348
1072.262, 844.3647
1072.744, 869.0285
1073.226, 879.8685
1073.708, 872.6884
1074.191, 863.8322
1074.673, 859.9152
1075.155, 862.2206
1075.637, 880.8890
1076.119, 897.2790
1076.601, 890.2438
1077.083, 871.9660
1077.565, 859.5332
1078.047, 855.6061
1078.530, 856.9849
1079.012, 863.5693
1079.494, 872.5092
1079.976, 888.7325
1080.458, 899.7995
1080.940, 894.6387
1081.422, 884.6484
1081.904, 881.5494
1082.387, 883.7145
1082.869, 882.6358
1083.351, 875.1714
1083.833, 872.9077
1084.315, 881.4058
1084.797, 889.6891
1085.279, 894.5501
1085.761, 898.8462
1086.244, 906.3826
1086.726, 913.8004
1087.208, 913.9814
1087.690, 906.1097
1088.172, 901.9077
1088.654, 903.5321
1089.136, 903.7702
1089.618, 900.9104
1090.100, 898.3469
1090.583, 897.2821
1091.065, 898.1248
1091.547, 902.0121
1092.029, 908.0944
1092.511, 911.1853
1092.993, 911.3126
1093.475, 906.3584
1093.957, 894.6006
1094.439, 891.1742
1094.922, 901.6908
1095.404, 918.4870
1095.886, 936.5895
1096.368, 951.7877
1096.850, 951.6602
1097.332, 939.3854
1097.814, 934.8761
1098.296, 938.1617
1098.779, 949.0737
1099.261, 965.8719
1099.743, 972.5772
1100.225, 959.3963
1100.707, 941.9853
1101.189, 942.8578
1101.671, 951.1660
1102.153, 942.9654
1102.635, 927.8260
1103.118, 928.4879
1103.600, 942.8837
1104.082, 954.9456
1104.564, 958.8881
1105.046, 957.1702
1105.528, 947.3536
1106.010, 938.5820
1106.492, 938.7400
1106.974, 943.8687
1107.457, 957.2632
1107.939, 968.9585
1108.421, 956.4300
1108.903, 922.0211
1109.385, 902.8796
1109.867, 920.0464
1110.349, 934.2491
1110.831, 927.8978
1111.314, 918.9180
1111.796, 918.6014
1112.278, 918.6550
1112.760, 908.6541
1113.242, 891.7934
1113.724, 879.3428
1114.206, 872.3873
1114.688, 868.9400
1115.171, 873.2148
1115.653, 873.8387
1116.135, 868.3959
1116.617, 859.4540
1117.099, 845.6129
1117.581, 832.5768
1118.063, 830.9443
1118.545, 839.2123
1119.027, 833.4207
1119.510, 809.4235
1119.992, 797.5284
1120.474, 802.1626
1120.956, 806.2637
1121.438, 803.7830
1121.920, 796.3521
1122.402, 784.7517
1122.884, 771.3749
1123.366, 761.3492
1123.849, 754.3575
1124.331, 748.0590
1124.813, 743.1354
1125.295, 745.4649
1125.777, 754.7173
1126.259, 761.2862
1126.741, 759.9587
1127.223, 753.2918
1127.706, 742.4963
1128.188, 729.3505
1128.670, 711.9637
1129.152, 696.6678
1129.634, 696.5095
1130.116, 706.4701
1130.598, 713.3062
1131.080, 713.1751
1131.563, 707.1290
1132.045, 692.0688
1132.527, 677.7632
1133.009, 667.6436
1133.491, 661.7086
1133.973, 661.9541
1134.455, 664.9980
1134.937, 667.7006
1135.419, 669.5361
1135.901, 669.6308
1136.384, 666.4958
1136.866, 665.8511
1137.348, 673.0226
1137.830, 675.1088
1138.312, 666.1448
1138.794, 656.4574
1139.276, 651.1872
1139.758, 650.4014
1140.241, 656.1890
1140.723, 667.3893
1141.205, 663.6231
1141.687, 641.6838
1142.169, 630.2587
1142.651, 632.2700
1143.133, 641.7396
1143.615, 657.3303
1144.098, 667.3624
1144.580, 660.4459
1145.062, 646.4705
1145.544, 646.8354
1146.026, 655.5623
1146.508, 652.6924
1146.990, 641.5324
1147.472, 632.6867
1147.954, 628.7029
1148.437, 632.1410
1148.919, 643.9487
1149.401, 652.3065
1149.883, 640.6833
1150.365, 629.0137
1150.847, 640.6386
1151.329, 656.8577
1151.811, 654.1875
1152.293, 642.8302
1152.776, 646.2881
1153.258, 664.5612
1153.740, 672.1839
1154.222, 655.9828
1154.704, 643.2590
1155.186, 642.4035
1155.668, 643.4744
1156.150, 641.9036
1156.633, 641.7723
1157.115, 649.2665
1157.597, 658.6816
1158.079, 657.0024
1158.561, 643.3627
1159.043, 637.9747
1159.525, 643.5295
1160.007, 645.3967
1160.490, 641.0744
1160.972, 638.0648
1161.454, 639.5227
1161.936, 642.1777
1162.418, 642.7673
1162.900, 642.6052
1163.382, 643.9476
1163.864, 647.1764
1164.346, 656.8685
1164.828, 669.6487
1165.311, 671.1810
1165.793, 661.3569
1166.275, 652.1605
1166.757, 649.0436
1167.239, 650.7382
1167.721, 659.5141
1168.203, 668.8179
1168.685, 672.1040
1169.168, 673.5416
1169.650, 678.0426
1170.132, 683.5112
1170.614, 687.1173
1171.096, 687.8166
1171.578, 682.2432
1172.060, 664.7988
1172.542, 653.3617
1173.025, 654.2416
1173.507, 657.1359
1173.989, 658.3780
1174.471, 661.8745
1174.953, 672.8412
1175.435, 684.8796
1175.917, 686.3643
1176.399, 678.1314
1176.881, 673.5434
1177.364, 672.7184
1177.846, 675.6658
1178.328, 682.7239
1178.810, 683.1209
1179.292, 673.3536
1179.774, 662.0123
1180.256, 655.3359
1180.738, 653.2427
1181.220, 658.4628
1181.703, 666.4361
1182.185, 668.1078
1182.667, 665.3470
1183.149, 660.3318
1183.631, 655.1522
1184.113, 655.1895
1184.595, 661.4024
1185.077, 664.9389
1185.560, 658.8617
1186.042, 653.2593
1186.524, 653.6223
1187.006, 655.0943
1187.488, 657.3738
1187.970, 657.0323
1188.452, 647.0956
1188.934, 632.0035
1189.417, 627.6431
1189.899, 636.9201
1190.381, 637.1406
1190.863, 623.3833
1191.345, 615.2598
1191.827, 615.7206
1192.309, 621.9498
1192.791, 634.7142
1193.273, 641.9558
1193.755, 629.9028
1194.238, 608.6957
1194.720, 601.5634
1195.202, 605.8677
1195.684, 614.6231
1196.166, 625.5421
1196.648, 633.9793
1197.130, 637.6925
1197.612, 628.7047
1198.095, 604.6435
1198.577, 587.9437
1199.059, 601.5361
1199.541, 617.7220
1200.023, 620.4312
1200.505, 614.6057
1200.987, 596.9415
1201.469, 578.3469
1201.952, 573.7177
1202.434, 580.5275
1202.916, 584.0215
1203.398, 581.1474
1203.880, 581.8966
1204.362, 591.2087
1204.844, 591.8649
1205.326, 575.9105
1205.808, 566.8619
1206.291, 576.9836
1206.773, 594.0982
1207.255, 606.1012
1207.737, 613.1800
1208.219, 615.3927
1208.701, 613.1797
1209.183, 604.7739
1209.665, 593.9069
1210.147, 598.3306
1210.630, 616.5965
1211.112, 628.0257
1211.594, 624.3770
1212.076, 616.7313
1212.558, 610.2465
1213.040, 606.8936
1213.522, 609.5478
1214.004, 614.3197
1214.487, 618.8025
1214.969, 623.0072
1215.451, 628.9788
1215.933, 634.8829
1216.415, 633.0128
1216.897, 619.8698
1217.379, 614.4440
1217.861, 620.1456
1218.344, 624.7731
1218.826, 626.6093
1219.308, 628.4768
1219.790, 631.9846
1220.272, 633.1912
1220.754, 627.5308
1221.236, 619.8690
1221.718, 620.7484
1222.200, 628.1794
1222.682, 637.6748
1223.165, 647.6902
1223.647, 654.0883
1224.129, 657.0336
1224.611, 660.4123
1225.093, 664.8973
1225.575, 663.0556
1226.057, 643.2983
1226.539, 631.5710
1227.022, 646.8914
1227.504, 667.4031
1227.986, 683.2753
1228.468, 695.7357
1228.950, 709.3649
1229.432, 719.4312
1229.914, 713.8353
1230.396, 692.3977
1230.879, 679.7808
1231.361, 676.8284
1231.843, 678.5897
1232.325, 684.9023
1232.807, 694.4193
1233.289, 706.7833
1233.771, 717.8000
1234.253, 724.4299
1234.735, 730.0452
1235.218, 743.2043
1235.700, 754.9172
1236.182, 743.0371
1236.664, 725.2115
1237.146, 731.6058
1237.628, 753.2042
1238.110, 766.7395
1238.592, 769.6695
1239.074, 774.3795
1239.557, 783.1391
1240.039, 797.9478
1240.521, 828.6656
1241.003, 851.3037
1241.485, 857.2276
1241.967, 859.6053
1242.449, 864.8240
1242.931, 869.5689
1243.414, 868.3966
1243.896, 865.7856
1244.378, 879.6218
1244.860, 907.0714
1245.342, 921.9626
1245.824, 925.9181
1246.306, 930.4935
1246.788, 937.0361
1247.271, 940.4167
1247.753, 938.9935
1248.235, 938.1871
1248.717, 940.1729
1249.199, 947.1321
1249.681, 965.8273
1250.163, 983.9680
1250.645, 992.7137
1251.127, 996.7484
1251.609, 1001.548
1252.092, 1005.569
1252.574, 1002.542
1253.056, 992.5758
1253.538, 995.1769
1254.020, 1014.520
1254.502, 1026.203
1254.984, 1027.974
1255.466, 1031.159
1255.949, 1038.811
1256.431, 1046.639
1256.913, 1051.940
1257.395, 1057.246
1257.877, 1068.099
1258.359, 1077.458
1258.841, 1071.527
1259.323, 1060.874
1259.806, 1056.802
1260.288, 1059.837
1260.770, 1073.325
1261.252, 1092.713
1261.734, 1100.022
1262.216, 1087.782
1262.698, 1086.574
1263.180, 1107.856
1263.662, 1126.126
1264.145, 1139.355
1264.627, 1148.057
1265.109, 1151.277
##END=



