##NAMES=Rhodonite
##RRUFFID=R060196
##IDEAL CHEMISTRY=CaMn^2+^_3_Mn^2+^Si_5_O_15_
##LOCALITY=Morro da Mina, Minas Gerais, Brazil
##OWNER=RRUFF
##SOURCE=Marcus Origlieri
##DESCRIPTION=Pink transparent cleavage fragment
##STATUS=The identification of this mineral has been confirmed by X-ray diffraction and chemical analysis
##URL=rruff.info/R060196
##MEASURED CHEMISTRY=(Mn_0.82_Fe_0.06_Mg_0.05_Ca_0.10_)Si_0.99_O_3_
91.82715, 358.5691
92.30927, 344.5125
92.79138, 346.9066
93.27350, 363.1926
93.75562, 380.3055
94.23773, 395.5910
94.71985, 409.2593
95.20197, 417.5040
95.68408, 419.8695
96.16620, 416.0378
96.64832, 405.6003
97.13043, 387.9827
97.61255, 367.0005
98.09467, 346.8086
98.57678, 326.4192
99.05890, 308.5319
99.54102, 293.9755
100.0231, 282.4771
100.5052, 273.8420
100.9874, 267.8135
101.4695, 264.3476
101.9516, 263.8017
102.4337, 266.9098
102.9158, 272.5031
103.3979, 280.4556
103.8801, 290.7535
104.3622, 303.3350
104.8443, 318.0576
105.3264, 335.0855
105.8085, 355.2729
106.2906, 378.1713
106.7728, 403.6666
107.2549, 432.9631
107.7370, 465.7264
108.2191, 499.2022
108.7012, 531.6150
109.1833, 563.2844
109.6655, 586.7862
110.1476, 600.2327
110.6297, 605.1752
111.1118, 603.0807
111.5939, 592.9525
112.0760, 578.1283
112.5582, 561.7535
113.0403, 544.0682
113.5224, 526.0438
114.0045, 508.0399
114.4866, 490.0287
114.9688, 473.1301
115.4509, 457.7587
115.9330, 443.5367
116.4151, 430.0472
116.8972, 417.3185
117.3793, 405.5464
117.8615, 394.9497
118.3436, 385.7051
118.8257, 377.4576
119.3078, 370.4854
119.7899, 364.0587
120.2720, 357.5663
120.7542, 350.7670
121.2363, 343.9183
121.7184, 337.7029
122.2005, 333.0583
122.6826, 328.1064
123.1647, 322.4652
123.6468, 316.4730
124.1290, 310.6490
124.6111, 305.2313
125.0932, 300.1981
125.5753, 295.3738
126.0574, 290.9759
126.5395, 286.5077
127.0217, 281.4222
127.5038, 275.9120
127.9859, 270.9899
128.4680, 267.4597
128.9501, 265.2405
129.4323, 263.1330
129.9144, 261.6396
130.3965, 259.9353
130.8786, 256.9411
131.3607, 252.3858
131.8428, 247.6528
132.3250, 244.1628
132.8071, 241.2442
133.2892, 237.7042
133.7713, 232.6650
134.2534, 226.5614
134.7355, 220.8598
135.2177, 215.9719
135.6998, 210.9319
136.1819, 205.1529
136.6640, 198.8455
137.1461, 192.5947
137.6282, 186.8739
138.1104, 181.7415
138.5925, 176.4904
139.0746, 170.7255
139.5567, 165.1655
140.0388, 160.0088
140.5209, 155.3128
141.0031, 151.0049
141.4852, 146.9665
141.9673, 142.9723
142.4494, 139.9908
142.9315, 138.6640
143.4136, 137.7123
143.8958, 136.0401
144.3779, 133.4719
144.8600, 130.9111
145.3421, 129.8564
145.8242, 131.2189
146.3063, 132.5406
146.7885, 133.8474
147.2706, 135.0360
147.7527, 135.8731
148.2348, 136.2094
148.7169, 136.4211
149.1990, 137.3985
149.6812, 139.3238
150.1633, 141.1479
150.6454, 142.4460
151.1275, 143.3288
151.6096, 144.0553
152.0917, 144.4889
152.5739, 145.0784
153.0560, 146.3421
153.5381, 148.3028
154.0202, 150.8406
154.5023, 154.1472
154.9844, 158.2587
155.4665, 162.0236
155.9487, 164.4450
156.4308, 166.5850
156.9129, 169.2082
157.3950, 172.4795
157.8771, 176.3216
158.3592, 180.8060
158.8414, 186.3046
159.3235, 191.4651
159.8056, 196.5263
160.2877, 200.9112
160.7698, 203.9826
161.2519, 205.4111
161.7341, 205.6228
162.2162, 205.8569
162.6983, 206.4163
163.1804, 206.5482
163.6625, 206.2637
164.1446, 205.4976
164.6268, 204.2656
165.1089, 202.5955
165.5910, 200.3947
166.0731, 196.9389
166.5552, 191.0007
167.0373, 185.1485
167.5195, 180.0145
168.0016, 175.3276
168.4837, 170.4735
168.9658, 165.0603
169.4479, 159.0831
169.9300, 153.1828
170.4122, 145.9313
170.8943, 140.0407
171.3764, 137.3198
171.8585, 137.3117
172.3406, 137.8652
172.8227, 137.5585
173.3049, 136.4377
173.7870, 135.4537
174.2691, 134.5434
174.7512, 133.8041
175.2333, 133.4662
175.7154, 133.5521
176.1976, 133.4820
176.6797, 132.5697
177.1618, 131.1745
177.6439, 130.1960
178.1260, 130.2014
178.6081, 130.5860
179.0903, 130.3944
179.5724, 129.4420
180.0545, 128.4538
180.5366, 128.0367
181.0187, 127.8784
181.5008, 127.4613
181.9830, 126.3298
182.4651, 124.7970
182.9472, 123.8538
183.4293, 123.7684
183.9114, 123.9217
184.3935, 124.0378
184.8757, 124.1616
185.3578, 124.3755
185.8399, 124.7376
186.3220, 125.2412
186.8041, 125.7914
187.2862, 126.2854
187.7684, 126.9589
188.2505, 127.8530
188.7326, 128.9731
189.2147, 130.3449
189.6968, 132.0267
190.1789, 134.0445
190.6611, 135.8311
191.1432, 137.4055
191.6253, 138.7472
192.1074, 139.7511
192.5895, 140.4883
193.0716, 141.1134
193.5538, 141.7312
194.0359, 142.3163
194.5180, 143.1518
195.0001, 144.8295
195.4822, 146.1788
195.9643, 146.5934
196.4465, 146.1240
196.9286, 145.1925
197.4107, 144.1324
197.8928, 142.9161
198.3749, 141.8403
198.8570, 140.5873
199.3392, 139.6913
199.8213, 139.7955
200.3034, 140.8497
200.7855, 141.8536
201.2676, 141.8004
201.7497, 140.6149
202.2319, 139.8239
202.7140, 139.2757
203.1961, 139.2632
203.6782, 140.3631
204.1603, 142.6934
204.6424, 145.0370
205.1246, 146.2100
205.6067, 146.4318
206.0888, 146.6496
206.5709, 147.0282
207.0530, 147.5101
207.5351, 148.0398
208.0173, 148.6361
208.4994, 149.2075
208.9815, 149.9319
209.4636, 150.6088
209.9457, 150.6963
210.4278, 149.5377
210.9100, 147.7082
211.3921, 146.5517
211.8742, 146.3847
212.3563, 146.2689
212.8384, 145.5069
213.3205, 144.4040
213.8027, 143.5254
214.2848, 143.2942
214.7669, 143.5034
215.2490, 143.3809
215.7311, 142.6712
216.2132, 142.0170
216.6954, 141.7899
217.1775, 141.7890
217.6596, 141.6332
218.1417, 140.9755
218.6238, 139.9729
219.1059, 139.5788
219.5881, 140.1065
220.0702, 140.9398
220.5523, 142.0180
221.0344, 143.2330
221.5165, 144.5005
221.9986, 145.8349
222.4808, 147.1640
222.9629, 147.7881
223.4450, 146.8502
223.9271, 146.0558
224.4092, 145.8958
224.8913, 146.1098
225.3735, 146.2118
225.8556, 145.8625
226.3377, 145.1150
226.8198, 144.5525
227.3019, 144.4302
227.7840, 144.2338
228.2662, 143.8819
228.7483, 143.3764
229.2304, 142.6438
229.7125, 141.5716
230.1946, 140.2654
230.6767, 139.9427
231.1589, 141.3467
231.6410, 142.8262
232.1231, 143.9077
232.6052, 144.7767
233.0873, 145.9021
233.5694, 147.6165
234.0516, 149.7822
234.5337, 151.3643
235.0158, 151.7798
235.4979, 152.3837
235.9800, 153.6416
236.4621, 155.3877
236.9443, 157.2786
237.4264, 159.1547
237.9085, 161.0009
238.3906, 162.7515
238.8727, 164.3172
239.3548, 165.9017
239.8370, 167.5817
240.3191, 169.3295
240.8012, 171.0009
241.2833, 172.4202
241.7654, 173.8551
242.2475, 176.1143
242.7297, 179.6100
243.2118, 183.0978
243.6939, 186.1201
244.1760, 188.7115
244.6581, 190.9115
245.1402, 192.5978
245.6224, 194.0544
246.1045, 195.9352
246.5866, 198.4541
247.0687, 200.7597
247.5508, 202.5765
248.0329, 203.8625
248.5151, 204.4173
248.9972, 203.9348
249.4793, 202.9382
249.9614, 202.2312
250.4435, 201.8482
250.9256, 201.4811
251.4078, 201.1096
251.8899, 200.6567
252.3720, 199.6803
252.8541, 197.7060
253.3362, 195.6348
253.8183, 194.5157
254.3005, 194.3347
254.7826, 194.1986
255.2647, 193.4207
255.7468, 192.1676
256.2289, 191.3140
256.7110, 191.1729
257.1931, 191.2735
257.6753, 191.2145
258.1574, 191.0184
258.6395, 190.8284
259.1216, 190.6895
259.6037, 190.6168
260.0858, 190.7617
260.5680, 191.5031
261.0501, 191.9400
261.5322, 191.3469
262.0143, 190.0020
262.4964, 188.7519
262.9785, 188.3707
263.4607, 188.6399
263.9428, 188.2639
264.4249, 187.1550
264.9070, 185.4369
265.3891, 182.8598
265.8712, 179.8161
266.3534, 177.1331
266.8355, 175.5144
267.3176, 174.6216
267.7997, 172.8739
268.2818, 169.4255
268.7639, 166.4136
269.2461, 164.8219
269.7282, 164.0478
270.2103, 163.2297
270.6924, 161.9337
271.1745, 160.2665
271.6566, 158.5425
272.1388, 156.5509
272.6209, 154.9066
273.1030, 153.7672
273.5851, 152.9941
274.0672, 152.5135
274.5493, 152.3208
275.0315, 152.2472
275.5136, 151.8592
275.9957, 150.9642
276.4778, 150.1025
276.9599, 149.4099
277.4420, 148.7714
277.9242, 148.0752
278.4063, 147.2793
278.8884, 146.4427
279.3705, 145.7292
279.8526, 145.4395
280.3347, 144.5995
280.8169, 142.5555
281.2990, 140.3825
281.7811, 138.9984
282.2632, 138.5772
282.7453, 138.4734
283.2274, 137.6618
283.7096, 135.6476
284.1917, 134.1714
284.6738, 133.5855
285.1559, 133.2229
285.6380, 132.7463
286.1201, 132.0936
286.6023, 131.3477
287.0844, 130.5442
287.5665, 129.5750
288.0486, 129.0214
288.5307, 128.9062
289.0128, 129.1390
289.4950, 129.8853
289.9771, 131.0034
290.4592, 132.0711
290.9413, 132.6360
291.4234, 132.6115
291.9055, 133.2214
292.3877, 135.3374
292.8698, 137.2112
293.3519, 137.9985
293.8340, 138.0883
294.3161, 138.4436
294.7982, 139.8169
295.2804, 142.0807
295.7625, 143.5014
296.2446, 142.8670
296.7267, 142.6641
297.2088, 143.8918
297.6909, 145.7412
298.1731, 146.9704
298.6552, 146.8821
299.1373, 145.7762
299.6194, 144.7822
300.1015, 144.1438
300.5836, 143.3228
301.0658, 142.2515
301.5479, 140.9968
302.0300, 139.4837
302.5121, 137.7075
302.9942, 135.9926
303.4763, 135.0403
303.9585, 135.7487
304.4406, 135.8915
304.9227, 135.0620
305.4048, 133.9438
305.8869, 133.0147
306.3690, 132.4131
306.8512, 132.0515
307.3333, 131.8050
307.8154, 131.6302
308.2975, 131.7227
308.7796, 132.0663
309.2617, 132.6366
309.7439, 133.4891
310.2260, 134.5807
310.7081, 135.7597
311.1902, 136.8652
311.6723, 137.8851
312.1544, 138.9893
312.6366, 139.9684
313.1187, 141.2210
313.6008, 142.8101
314.0829, 144.8022
314.5650, 147.3222
315.0471, 150.4733
315.5293, 154.2265
316.0114, 158.2048
316.4935, 162.4538
316.9756, 166.9077
317.4577, 171.5742
317.9398, 176.4255
318.4220, 181.4642
318.9041, 186.6997
319.3862, 192.0369
319.8683, 197.2304
320.3504, 201.8654
320.8326, 206.8322
321.3147, 212.6082
321.7968, 218.5054
322.2789, 223.8115
322.7610, 228.2778
323.2431, 232.3788
323.7253, 236.9319
324.2074, 242.6389
324.6895, 247.3873
325.1716, 250.9696
325.6537, 253.9316
326.1358, 256.4969
326.6180, 258.7843
327.1001, 260.9964
327.5822, 263.3693
328.0643, 265.9561
328.5464, 268.4513
329.0285, 270.5770
329.5107, 272.8874
329.9928, 275.8862
330.4749, 279.3033
330.9570, 282.4911
331.4391, 285.0277
331.9212, 286.8935
332.4034, 287.7687
332.8855, 286.9555
333.3676, 285.8479
333.8497, 284.9007
334.3318, 283.7661
334.8139, 281.8736
335.2961, 278.9438
335.7782, 275.2347
336.2603, 271.5909
336.7424, 268.2987
337.2245, 264.5900
337.7066, 259.9895
338.1888, 255.2072
338.6709, 250.8257
339.1530, 247.0041
339.6351, 243.6457
340.1172, 240.5767
340.5993, 237.7113
341.0815, 235.4156
341.5636, 233.0441
342.0457, 231.6844
342.5278, 232.4004
343.0099, 234.8883
343.4920, 237.7884
343.9742, 239.8265
344.4563, 240.9406
344.9384, 242.3490
345.4205, 244.3976
345.9026, 246.4228
346.3847, 248.5736
346.8669, 250.5419
347.3490, 251.8946
347.8311, 252.3981
348.3132, 252.0258
348.7953, 250.6994
349.2774, 248.5882
349.7596, 245.0370
350.2417, 239.4905
350.7238, 232.8710
351.2059, 226.0296
351.6880, 219.2466
352.1701, 212.4377
352.6523, 205.4117
353.1344, 197.9438
353.6165, 190.9652
354.0986, 184.8253
354.5807, 178.9799
355.0628, 173.1611
355.5450, 167.3497
356.0271, 161.6936
356.5092, 156.1716
356.9913, 150.7880
357.4734, 146.2769
357.9555, 143.0575
358.4377, 140.3527
358.9198, 138.1556
359.4019, 136.2009
359.8840, 134.0000
360.3661, 131.2025
360.8482, 128.0124
361.3304, 124.8615
361.8125, 121.3704
362.2946, 118.8452
362.7767, 118.5250
363.2588, 118.9587
363.7409, 118.6725
364.2231, 117.1960
364.7052, 115.1052
365.1873, 112.8724
365.6694, 110.3904
366.1515, 108.7021
366.6336, 108.5927
367.1158, 108.9566
367.5979, 109.2025
368.0800, 109.2498
368.5621, 108.8375
369.0442, 107.3615
369.5263, 105.1438
370.0085, 103.8886
370.4906, 104.2850
370.9727, 104.6310
371.4548, 103.4268
371.9369, 101.3099
372.4190, 99.71409
372.9012, 99.54067
373.3833, 99.95515
373.8654, 99.64642
374.3475, 98.51820
374.8296, 97.48781
375.3117, 96.87171
375.7939, 96.71521
376.2760, 97.09923
376.7581, 98.16277
377.2402, 99.43318
377.7223, 100.6908
378.2044, 101.9017
378.6866, 102.8801
379.1687, 103.4911
379.6508, 103.9985
380.1329, 104.7993
380.6150, 105.8826
381.0971, 106.8076
381.5793, 106.8264
382.0614, 106.8579
382.5435, 108.5995
383.0256, 112.3374
383.5077, 115.8736
383.9898, 117.2544
384.4720, 116.7798
384.9541, 117.1559
385.4362, 119.4669
385.9183, 121.7288
386.4004, 122.7939
386.8825, 122.8073
387.3647, 122.2580
387.8468, 121.2771
388.3289, 120.0339
388.8110, 119.0056
389.2931, 118.4909
389.7752, 117.5200
390.2574, 115.4471
390.7395, 113.0089
391.2216, 110.9947
391.7037, 109.5960
392.1858, 108.7605
392.6679, 108.5480
393.1501, 109.1786
393.6322, 109.2389
394.1143, 108.1655
394.5964, 107.0827
395.0785, 106.4114
395.5606, 106.2483
396.0428, 106.7976
396.5249, 108.2901
397.0070, 110.4538
397.4891, 111.8629
397.9712, 111.1126
398.4533, 111.2948
398.9355, 113.1919
399.4176, 115.9799
399.8997, 118.7882
400.3818, 121.3372
400.8639, 123.9302
401.3460, 127.0688
401.8282, 131.0354
402.3103, 134.7585
402.7924, 137.9925
403.2745, 141.2590
403.7566, 144.7315
404.2387, 148.4630
404.7209, 152.5399
405.2030, 157.0761
405.6851, 161.9928
406.1672, 166.4525
406.6493, 169.9229
407.1314, 173.6665
407.6136, 177.9839
408.0957, 182.6844
408.5778, 187.6363
409.0599, 192.7849
409.5420, 197.9518
410.0241, 202.8460
410.5063, 207.3559
410.9884, 212.0862
411.4705, 216.8708
411.9526, 222.1332
412.4347, 228.1036
412.9168, 234.7499
413.3990, 241.9276
413.8811, 249.5996
414.3632, 257.7074
414.8453, 266.1058
415.3274, 274.9486
415.8095, 283.6995
416.2917, 292.8968
416.7738, 301.6016
417.2559, 308.4191
417.7380, 312.9323
418.2201, 315.6596
418.7022, 317.4436
419.1844, 318.1336
419.6665, 316.1852
420.1486, 310.8497
420.6307, 302.9564
421.1128, 293.4648
421.5949, 282.3686
422.0771, 270.5767
422.5592, 257.9373
423.0413, 245.0118
423.5234, 232.4541
424.0055, 220.3839
424.4876, 208.5472
424.9698, 196.6839
425.4519, 184.9742
425.9340, 174.1907
426.4161, 164.3011
426.8982, 155.3350
427.3803, 147.4532
427.8625, 140.5158
428.3446, 134.3081
428.8267, 128.7324
429.3088, 123.7939
429.7909, 119.5310
430.2730, 116.1806
430.7552, 113.0690
431.2373, 110.3333
431.7194, 107.7443
432.2015, 105.1271
432.6836, 102.4963
433.1657, 99.91267
433.6479, 97.38780
434.1300, 94.96684
434.6121, 93.22427
435.0942, 92.72280
435.5763, 92.27051
436.0584, 91.60925
436.5406, 90.93297
437.0227, 90.53516
437.5048, 90.50243
437.9869, 90.57199
438.4690, 90.25899
438.9511, 89.30694
439.4333, 88.81123
439.9154, 89.15181
440.3975, 89.63130
440.8796, 89.89676
441.3617, 90.03567
441.8438, 90.36870
442.3260, 91.17495
442.8081, 92.28075
443.2902, 93.05090
443.7723, 93.33691
444.2544, 93.66808
444.7365, 94.20438
445.2187, 94.88393
445.7008, 95.66781
446.1829, 96.54877
446.6650, 97.50668
447.1471, 98.56227
447.6292, 99.68880
448.1114, 100.7111
448.5935, 101.4892
449.0756, 102.3798
449.5577, 104.0580
450.0398, 106.1590
450.5219, 107.5095
451.0041, 107.4636
451.4862, 106.7698
451.9683, 106.0267
452.4504, 105.2404
452.9325, 104.4400
453.4146, 103.6413
453.8968, 102.8330
454.3789, 101.9501
454.8610, 100.9044
455.3431, 100.0701
455.8252, 99.89034
456.3073, 99.77034
456.7895, 98.96265
457.2716, 97.41435
457.7537, 95.72955
458.2358, 94.44878
458.7179, 93.57027
459.2000, 92.36669
459.6822, 90.45502
460.1643, 88.71325
460.6464, 87.56142
461.1285, 86.66744
461.6106, 85.51968
462.0927, 83.93545
462.5748, 82.21835
463.0569, 80.94691
463.5391, 80.51701
464.0212, 79.46396
464.5033, 76.85031
464.9854, 74.52900
465.4675, 73.62008
465.9496, 73.74559
466.4318, 73.80093
466.9139, 73.05324
467.3960, 71.76261
467.8781, 70.71663
468.3602, 69.92287
468.8423, 69.35003
469.3245, 69.41676
469.8066, 69.43076
470.2887, 68.61629
470.7708, 66.89336
471.2529, 65.37398
471.7350, 65.27910
472.2172, 66.14517
472.6993, 66.07629
473.1814, 64.60449
473.6635, 63.09609
474.1456, 62.62432
474.6277, 62.82723
475.1099, 62.95496
475.5920, 62.94703
476.0741, 62.76360
476.5562, 62.30825
477.0383, 61.65005
477.5204, 60.92668
478.0026, 60.14373
478.4847, 59.48441
478.9668, 59.24628
479.4489, 59.51892
479.9310, 59.80067
480.4131, 60.11739
480.8953, 60.39330
481.3774, 60.65126
481.8595, 60.83236
482.3416, 60.66148
482.8237, 59.89745
483.3058, 58.91143
483.7880, 58.99818
484.2701, 61.30601
484.7522, 63.07305
485.2343, 64.04337
485.7164, 64.59071
486.1985, 64.77457
486.6807, 64.75439
487.1628, 64.98971
487.6449, 65.99953
488.1270, 67.70480
488.6091, 68.93324
489.0912, 69.30506
489.5734, 69.80382
490.0555, 70.96701
490.5376, 72.29131
491.0197, 73.06162
491.5018, 73.04154
491.9839, 73.11351
492.4661, 74.37426
492.9482, 76.67397
493.4303, 78.61742
493.9124, 79.91952
494.3945, 81.02056
494.8766, 82.45283
495.3588, 83.98853
495.8409, 84.91172
496.3230, 84.56167
496.8051, 83.99561
497.2872, 84.06665
497.7693, 84.66112
498.2515, 85.37362
498.7336, 86.05895
499.2157, 86.77954
499.6978, 87.61095
500.1799, 88.50016
500.6620, 89.73606
501.1442, 91.33675
501.6263, 93.29057
502.1084, 95.66151
502.5905, 98.38894
503.0726, 101.3401
503.5547, 104.4405
504.0369, 107.6953
504.5190, 111.1603
505.0011, 115.2610
505.4832, 118.9004
505.9653, 121.8877
506.4474, 124.5572
506.9296, 127.4182
507.4117, 130.3096
507.8938, 132.3968
508.3759, 132.8497
508.8580, 131.9123
509.3401, 131.1461
509.8223, 131.1250
510.3044, 129.9866
510.7865, 126.2778
511.2686, 121.5571
511.7507, 117.2673
512.2328, 113.6785
512.7150, 110.1812
513.1971, 106.3099
513.6792, 102.1664
514.1613, 97.87830
514.6434, 93.35361
515.1255, 89.16696
515.6077, 85.72774
516.0898, 83.01657
516.5719, 80.77168
517.0540, 79.47666
517.5361, 78.06648
518.0182, 75.82077
518.5004, 73.20519
518.9825, 71.01458
519.4646, 69.45638
519.9467, 68.22871
520.4288, 66.97066
520.9109, 65.64634
521.3931, 64.53460
521.8752, 63.54470
522.3573, 62.81411
522.8394, 62.48781
523.3215, 62.42457
523.8036, 62.55418
524.2858, 62.83321
524.7679, 62.90868
525.2500, 62.03640
525.7321, 59.92305
526.2142, 58.34849
526.6964, 57.62258
527.1785, 57.26556
527.6606, 57.14857
528.1427, 57.21143
528.6248, 57.37776
529.1069, 57.70574
529.5891, 57.96690
530.0712, 57.62152
530.5533, 56.73616
531.0354, 56.54973
531.5175, 57.70009
531.9996, 59.20646
532.4818, 59.95188
532.9639, 59.99763
533.4460, 59.69965
533.9281, 58.58148
534.4102, 57.60113
534.8923, 57.53448
535.3745, 58.25697
535.8566, 59.31528
536.3387, 60.52601
536.8208, 61.79254
537.3029, 62.90253
537.7850, 63.81261
538.2672, 64.66110
538.7493, 65.27573
539.2314, 65.98530
539.7135, 66.83922
540.1956, 67.95338
540.6777, 69.72131
541.1599, 72.51630
541.6420, 75.59653
542.1241, 76.89776
542.6062, 75.80151
543.0883, 74.92867
543.5704, 74.76340
544.0526, 74.96606
544.5347, 75.51383
545.0168, 76.30469
545.4989, 76.93581
545.9810, 76.90714
546.4631, 76.76000
546.9453, 77.30778
547.4274, 78.54359
547.9095, 80.27631
548.3916, 82.53329
548.8737, 85.11195
549.3558, 87.66108
549.8380, 90.14980
550.3201, 92.73424
550.8022, 95.07518
551.2843, 97.78779
551.7664, 101.7853
552.2485, 106.6919
552.7307, 111.0802
553.2128, 114.1070
553.6949, 118.1373
554.1770, 119.2900
554.6591, 124.2446
555.1412, 127.7905
555.6234, 129.7731
556.1055, 130.6169
556.5876, 130.3712
557.0697, 129.2114
557.5518, 127.5348
558.0339, 125.6480
558.5161, 122.5242
558.9982, 119.7124
559.4803, 114.7431
559.9624, 109.5798
560.4445, 104.1247
560.9266, 99.04619
561.4088, 95.03339
561.8909, 92.02526
562.3730, 89.17628
562.8551, 86.29521
563.3372, 83.33790
563.8193, 79.91728
564.3015, 76.26284
564.7836, 73.63226
565.2657, 72.71316
565.7478, 72.69230
566.2299, 72.03836
566.7120, 70.23531
567.1942, 69.08882
567.6763, 69.31504
568.1584, 69.53532
568.6405, 68.81335
569.1226, 67.45380
569.6047, 66.27484
570.0869, 65.71409
570.5690, 65.49344
571.0511, 65.04473
571.5332, 64.29274
572.0153, 63.57980
572.4974, 62.77545
572.9796, 62.19564
573.4617, 62.26630
573.9438, 62.69083
574.4259, 62.68523
574.9080, 61.76910
575.3901, 60.53571
575.8723, 59.55011
576.3544, 58.81615
576.8365, 58.43639
577.3186, 58.56242
577.8007, 58.66676
578.2828, 57.94171
578.7650, 56.32298
579.2471, 55.72817
579.7292, 57.54061
580.2113, 58.98671
580.6934, 58.46760
581.1755, 56.78493
581.6577, 55.14479
582.1398, 54.00050
582.6219, 53.36269
583.1040, 53.35807
583.5861, 54.11473
584.0682, 54.49096
584.5504, 54.30578
585.0325, 53.93473
585.5146, 53.25292
585.9967, 52.55824
586.4788, 52.25750
586.9609, 52.47453
587.4431, 52.86995
587.9252, 53.19852
588.4073, 53.44763
588.8894, 53.53369
589.3715, 53.41307
589.8536, 53.29902
590.3358, 53.33778
590.8179, 53.49335
591.3000, 53.62378
591.7821, 53.70539
592.2642, 53.80581
592.7463, 54.07988
593.2285, 54.30663
593.7106, 54.14000
594.1927, 53.61373
594.6748, 53.10248
595.1569, 52.88116
595.6390, 52.95076
596.1212, 53.35444
596.6033, 54.45813
597.0854, 55.25600
597.5675, 55.66139
598.0496, 55.73539
598.5317, 55.28687
599.0139, 54.48168
599.4960, 53.94946
599.9781, 54.19260
600.4602, 54.88186
600.9423, 55.49111
601.4244, 56.02262
601.9066, 56.24597
602.3887, 55.96514
602.8708, 55.51088
603.3529, 55.29788
603.8350, 55.31104
604.3171, 55.50389
604.7993, 55.87020
605.2814, 56.41454
605.7635, 57.39518
606.2456, 58.52193
606.7277, 59.13603
607.2098, 58.99604
607.6920, 58.54934
608.1741, 58.42923
608.6562, 58.63789
609.1383, 59.17657
609.6204, 60.69043
610.1025, 61.77806
610.5847, 61.70018
611.0668, 61.06714
611.5489, 60.64460
612.0310, 60.63753
612.5131, 60.95535
612.9952, 61.71733
613.4774, 62.74099
613.9595, 63.35019
614.4416, 63.41325
614.9237, 63.64863
615.4058, 64.72321
615.8879, 66.21674
616.3701, 66.72379
616.8522, 65.58159
617.3343, 64.92202
617.8164, 65.43825
618.2985, 66.41729
618.7806, 67.29758
619.2628, 68.03279
619.7449, 68.78855
620.2270, 69.67152
620.7091, 70.63895
621.1912, 71.57233
621.6733, 72.49031
622.1555, 73.31816
622.6376, 74.07327
623.1197, 74.70444
623.6018, 74.97902
624.0839, 75.09665
624.5660, 75.61800
625.0482, 76.96217
625.5303, 78.45613
626.0124, 79.39022
626.4945, 79.90010
626.9766, 80.33509
627.4587, 80.73598
627.9409, 81.45508
628.4230, 82.97276
628.9051, 85.26138
629.3872, 86.95277
629.8693, 87.37903
630.3514, 88.14395
630.8336, 89.94835
631.3157, 92.04405
631.7978, 93.51158
632.2799, 94.34402
632.7620, 95.42500
633.2441, 97.66349
633.7263, 100.6412
634.2084, 102.4560
634.6905, 102.6600
635.1726, 103.4903
635.6547, 105.8015
636.1368, 108.8520
636.6190, 111.8906
637.1011, 114.9126
637.5832, 118.0832
638.0653, 121.5686
638.5474, 125.1269
639.0295, 128.3422
639.5117, 131.4624
639.9938, 135.1474
640.4759, 139.6040
640.9580, 144.6229
641.4401, 149.8919
641.9222, 155.3743
642.4044, 161.4570
642.8865, 168.6073
643.3686, 175.8352
643.8507, 182.5380
644.3328, 189.4073
644.8149, 197.1492
645.2971, 205.8871
645.7792, 215.4081
646.2613, 225.4317
646.7434, 236.0526
647.2255, 247.4756
647.7076, 259.6609
648.1898, 272.5764
648.6719, 286.0643
649.1540, 300.4716
649.6361, 316.1767
650.1182, 333.0498
650.6003, 352.0733
651.0825, 373.3387
651.5646, 396.8671
652.0467, 422.6684
652.5288, 450.6723
653.0109, 480.8477
653.4930, 513.1004
653.9752, 547.3016
654.4573, 582.9567
654.9394, 620.0424
655.4215, 659.6180
655.9036, 702.1526
656.3857, 746.1547
656.8679, 792.2467
657.3500, 838.6541
657.8321, 884.1203
658.3142, 928.6953
658.7963, 970.6830
659.2784, 1009.743
659.7606, 1045.526
660.2427, 1078.137
660.7248, 1107.318
661.2069, 1132.333
661.6890, 1152.706
662.1711, 1169.732
662.6533, 1185.508
663.1354, 1199.412
663.6175, 1214.454
664.0996, 1230.864
664.5817, 1248.301
665.0638, 1266.904
665.5460, 1286.397
666.0281, 1307.696
666.5102, 1331.195
666.9923, 1351.184
667.4744, 1364.363
667.9565, 1370.125
668.4387, 1367.355
668.9208, 1356.026
669.4029, 1335.349
669.8850, 1304.646
670.3671, 1264.945
670.8492, 1218.313
671.3314, 1162.816
671.8135, 1104.388
672.2956, 1040.398
672.7777, 976.4232
673.2598, 914.1520
673.7419, 854.7871
674.2241, 798.8315
674.7062, 746.8816
675.1883, 699.1236
675.6704, 655.9174
676.1525, 617.1873
676.6346, 582.4908
677.1168, 552.1160
677.5989, 524.3464
678.0810, 499.1923
678.5631, 475.6489
679.0452, 451.7996
679.5273, 427.1320
680.0095, 404.0167
680.4916, 383.7444
680.9737, 364.7098
681.4558, 345.9562
681.9379, 327.4560
682.4200, 309.2064
682.9022, 291.2708
683.3843, 274.0965
683.8664, 258.1959
684.3485, 243.6391
684.8306, 230.1788
685.3127, 217.9536
685.7949, 206.6855
686.2770, 196.4545
686.7591, 187.0772
687.2412, 178.2419
687.7233, 169.9107
688.2054, 162.7194
688.6876, 157.7861
689.1697, 153.4928
689.6518, 147.9687
690.1339, 141.6103
690.6160, 135.9957
691.0981, 131.7514
691.5803, 128.3518
692.0624, 125.0992
692.5445, 122.0936
693.0266, 118.5047
693.5087, 113.4280
693.9908, 109.0393
694.4730, 106.0956
694.9551, 103.9581
695.4372, 102.0776
695.9193, 100.3506
696.4014, 98.63735
696.8835, 96.91541
697.3657, 95.11820
697.8478, 92.89921
698.3299, 90.44164
698.8120, 88.73109
699.2941, 88.18293
699.7762, 87.91931
700.2584, 86.76768
700.7405, 84.60484
701.2226, 83.11593
701.7047, 82.91306
702.1868, 82.65366
702.6689, 82.17879
703.1511, 81.49961
703.6332, 80.42118
704.1153, 79.06931
704.5974, 78.10623
705.0795, 78.14482
705.5616, 78.67638
706.0438, 79.12427
706.5259, 79.41899
707.0080, 78.97641
707.4901, 77.51552
707.9722, 75.86428
708.4543, 74.81308
708.9365, 74.35765
709.4186, 74.30367
709.9007, 74.94419
710.3828, 75.57327
710.8649, 76.40688
711.3470, 76.94860
711.8292, 76.62749
712.3113, 75.58594
712.7934, 74.47224
713.2755, 73.60868
713.7576, 72.98286
714.2397, 72.70037
714.7219, 72.69109
715.2040, 72.42121
715.6861, 71.76587
716.1682, 70.94856
716.6503, 70.05875
717.1324, 69.16485
717.6146, 68.65253
718.0967, 68.85214
718.5788, 68.93671
719.0609, 69.15833
719.5430, 68.96829
720.0251, 67.52878
720.5073, 65.37926
720.9894, 63.94501
721.4715, 63.97825
721.9536, 64.42702
722.4357, 63.88545
722.9178, 62.50480
723.4000, 61.08683
723.8821, 59.63332
724.3642, 58.68111
724.8463, 58.79672
725.3284, 59.44175
725.8105, 59.19263
726.2927, 57.54675
726.7748, 56.29642
727.2569, 55.72531
727.7390, 55.37450
728.2211, 55.12956
728.7032, 54.88731
729.1854, 54.43518
729.6675, 53.72555
730.1496, 53.15757
730.6317, 53.31787
731.1138, 53.97113
731.5959, 54.20458
732.0781, 53.97536
732.5602, 53.71095
733.0423, 53.53480
733.5244, 53.49302
734.0065, 53.75532
734.4886, 54.45914
734.9708, 54.54189
735.4529, 53.36183
735.9350, 52.33319
736.4171, 52.15674
736.8992, 52.26035
737.3813, 51.88813
737.8635, 51.00516
738.3456, 50.27169
738.8277, 50.26713
739.3098, 50.63306
739.7919, 50.63963
740.2740, 50.30813
740.7562, 49.98439
741.2383, 49.79302
741.7204, 49.45034
742.2025, 48.55379
742.6846, 47.20815
743.1667, 46.57690
743.6489, 47.40345
744.1310, 47.84774
744.6131, 47.53324
745.0952, 46.91822
745.5773, 46.20403
746.0594, 45.49430
746.5416, 44.91064
747.0237, 44.51020
747.5058, 44.27177
747.9879, 44.27452
748.4700, 44.42881
748.9521, 44.32738
749.4343, 43.90926
749.9164, 43.69409
750.3985, 44.08117
750.8806, 44.70617
751.3627, 44.72102
751.8448, 43.81924
752.3270, 43.08672
752.8091, 42.47692
753.2912, 42.06944
753.7733, 42.02729
754.2554, 42.14390
754.7375, 42.17896
755.2197, 42.07269
755.7018, 41.85160
756.1839, 41.42586
756.6660, 40.95448
757.1481, 40.73566
757.6302, 40.73147
758.1124, 40.67021
758.5945, 40.44410
759.0766, 40.33836
759.5587, 40.72210
760.0408, 41.57850
760.5229, 42.18568
761.0051, 42.79107
761.4872, 42.74228
761.9693, 41.14252
762.4514, 39.59495
762.9335, 39.43040
763.4156, 40.34340
763.8978, 41.05658
764.3799, 41.03431
764.8620, 40.76754
765.3441, 40.46248
765.8262, 40.25922
766.3083, 40.57011
766.7905, 41.35068
767.2726, 41.94869
767.7547, 41.97081
768.2368, 41.55347
768.7189, 40.92630
769.2010, 39.89806
769.6832, 39.40081
770.1653, 39.91187
770.6474, 40.28633
771.1295, 39.75478
771.6116, 38.95972
772.0938, 38.80013
772.5759, 39.42176
773.0580, 39.87073
773.5401, 39.51520
774.0222, 39.09286
774.5043, 39.30479
774.9865, 39.87028
775.4686, 40.19939
775.9507, 40.13837
776.4328, 39.94435
776.9149, 39.86655
777.3970, 39.86469
777.8792, 39.72877
778.3613, 39.41494
778.8434, 39.21997
779.3255, 39.30608
779.8076, 39.37066
780.2897, 38.98241
780.7719, 38.32900
781.2540, 38.24396
781.7361, 39.31945
782.2182, 40.06421
782.7003, 39.73008
783.1824, 39.25414
783.6646, 39.48522
784.1467, 40.21261
784.6288, 40.76717
785.1109, 40.86259
785.5930, 40.71137
786.0751, 40.48888
786.5573, 40.23295
787.0394, 40.07659
787.5215, 40.02324
788.0036, 40.20358
788.4857, 40.79311
788.9678, 41.36206
789.4500, 41.25951
789.9321, 40.39706
790.4142, 39.56581
790.8963, 38.28911
791.3784, 37.65532
791.8605, 38.60237
792.3427, 39.75026
792.8248, 39.73478
793.3069, 38.69105
793.7890, 37.84291
794.2711, 37.84033
794.7532, 38.12707
795.2354, 38.12437
795.7175, 38.02298
796.1996, 38.45141
796.6817, 39.37816
797.1638, 39.67712
797.6459, 38.55049
798.1281, 36.86460
798.6102, 36.71222
799.0923, 38.57635
799.5744, 39.96961
800.0565, 40.91305
800.5386, 41.35121
801.0208, 40.83039
801.5029, 40.01751
801.9850, 39.70980
802.4671, 39.96892
802.9492, 40.15911
803.4313, 39.86775
803.9135, 39.70535
804.3956, 40.19637
804.8777, 40.97960
805.3598, 41.69456
805.8419, 42.16962
806.3240, 42.08052
806.8062, 41.05863
807.2883, 39.58875
807.7704, 38.70638
808.2525, 38.38791
808.7346, 38.26020
809.2167, 38.29144
809.6989, 38.41233
810.1810, 38.60670
810.6631, 38.83463
811.1452, 38.96734
811.6273, 38.85254
812.1094, 38.99951
812.5916, 39.84974
813.0737, 40.45815
813.5558, 40.25814
814.0379, 39.67983
814.5200, 39.30687
815.0021, 39.22780
815.4843, 39.07312
815.9664, 38.32429
816.4485, 37.61763
816.9306, 37.83075
817.4127, 38.66002
817.8948, 39.41696
818.3770, 39.92776
818.8591, 40.07733
819.3412, 39.69465
819.8233, 39.06925
820.3054, 39.27172
820.7875, 40.63050
821.2697, 41.30676
821.7518, 40.85607
822.2339, 40.19923
822.7160, 39.85788
823.1981, 39.64339
823.6802, 39.11371
824.1624, 38.06433
824.6445, 37.64673
825.1266, 38.61492
825.6087, 39.70749
826.0908, 40.45441
826.5729, 40.78282
827.0551, 40.42080
827.5372, 39.48680
828.0193, 38.81033
828.5014, 39.11568
828.9835, 39.87740
829.4656, 40.26841
829.9478, 40.33356
830.4299, 40.29491
830.9120, 40.19298
831.3941, 39.87894
831.8762, 39.17116
832.3583, 38.32892
832.8404, 38.09771
833.3225, 38.81548
833.8046, 39.16801
834.2867, 38.81956
834.7689, 38.53965
835.2510, 38.56542
835.7331, 38.82427
836.2152, 39.26627
836.6973, 39.88292
837.1794, 40.55404
837.6616, 41.59946
838.1437, 42.30006
838.6258, 41.95019
839.1079, 41.13300
839.5900, 40.61610
840.0721, 40.47986
840.5543, 40.41825
841.0364, 40.25119
841.5185, 39.99656
842.0006, 39.57421
842.4827, 39.05401
842.9648, 38.93732
843.4470, 39.28987
843.9291, 39.83969
844.4112, 40.54278
844.8933, 41.14881
845.3754, 41.16071
845.8575, 40.40592
846.3397, 40.15839
846.8218, 41.08625
847.3039, 41.61074
847.7860, 40.99179
848.2681, 40.21334
848.7502, 40.16590
849.2324, 40.72194
849.7145, 41.11587
850.1966, 41.01063
850.6787, 40.89425
851.1608, 41.19895
851.6429, 41.53202
852.1251, 41.15815
852.6072, 40.40495
853.0893, 40.53460
853.5714, 42.06083
854.0535, 43.65294
854.5356, 43.31092
855.0178, 41.59037
855.4999, 41.16235
855.9820, 42.05973
856.4641, 42.93842
856.9462, 43.42297
857.4283, 43.67566
857.9105, 43.81829
858.3926, 43.86987
858.8747, 43.97264
859.3568, 43.94583
859.8389, 44.29174
860.3210, 45.46132
860.8032, 46.55539
861.2853, 46.99418
861.7674, 47.11842
862.2495, 47.50471
862.7316, 48.26484
863.2137, 49.16012
863.6959, 50.13500
864.1780, 51.16933
864.6601, 52.33054
865.1422, 53.50413
865.6243, 54.46349
866.1064, 55.19454
866.5886, 55.83455
867.0707, 56.40211
867.5528, 57.14004
868.0349, 58.49063
868.5170, 60.41840
868.9991, 62.86763
869.4813, 65.86065
869.9634, 68.61558
870.4455, 70.71242
870.9276, 72.37354
871.4097, 73.95576
871.8918, 75.40132
872.3740, 77.18385
872.8561, 79.31924
873.3382, 81.78725
873.8203, 84.97668
874.3024, 88.17632
874.7845, 90.58236
875.2667, 92.44563
875.7488, 95.01035
876.2309, 99.28909
876.7130, 102.9337
877.1951, 104.7623
877.6772, 105.9169
878.1594, 107.4176
878.6415, 108.9795
879.1236, 109.8066
879.6057, 109.6518
880.0878, 109.0059
880.5699, 108.4085
881.0521, 107.5619
881.5342, 105.7066
882.0163, 103.0848
882.4984, 100.8071
882.9805, 99.10786
883.4626, 97.08030
883.9448, 93.93616
884.4269, 90.13208
884.9090, 86.94430
885.3911, 84.37942
885.8732, 82.43491
886.3553, 81.30797
886.8375, 80.34825
887.3196, 79.42232
887.8017, 78.35388
888.2838, 76.72076
888.7659, 74.43843
889.2480, 72.69699
889.7302, 71.63670
890.2123, 70.96437
890.6944, 71.10290
891.1765, 71.18400
891.6586, 70.23328
892.1407, 68.64804
892.6229, 67.67299
893.1050, 67.81656
893.5871, 68.13258
894.0692, 68.20568
894.5513, 67.95682
895.0334, 66.99297
895.5156, 65.68363
895.9977, 64.88472
896.4798, 64.83327
896.9619, 65.20485
897.4440, 65.78706
897.9261, 66.47713
898.4083, 67.04196
898.8904, 67.48061
899.3725, 67.74667
899.8546, 67.81014
900.3367, 67.93533
900.8188, 68.26174
901.3010, 68.78855
901.7831, 69.58703
902.2652, 70.79848
902.7473, 71.35623
903.2294, 70.74915
903.7115, 70.38734
904.1937, 70.75610
904.6758, 71.41618
905.1579, 72.11663
905.6400, 72.80700
906.1221, 73.27203
906.6042, 73.27621
907.0864, 73.44100
907.5685, 73.85294
908.0506, 74.53712
908.5327, 75.82021
909.0148, 77.25204
909.4969, 78.05141
909.9791, 78.08837
910.4612, 78.16341
910.9433, 78.95832
911.4254, 79.89065
911.9075, 80.37611
912.3896, 80.53078
912.8718, 80.46099
913.3539, 80.27299
913.8360, 80.42772
914.3181, 81.22051
914.8002, 81.95528
915.2823, 81.30157
915.7645, 81.04198
916.2466, 80.21834
916.7287, 78.45908
917.2108, 77.44808
917.6929, 74.55193
918.1750, 72.06535
918.6572, 72.57258
919.1393, 75.33615
919.6214, 75.95127
920.1035, 73.33892
920.5856, 71.17860
921.0677, 69.51815
921.5499, 68.55043
922.0320, 68.70195
922.5141, 69.43119
922.9962, 70.11915
923.4783, 70.75704
923.9604, 71.19032
924.4426, 71.13105
924.9247, 71.21194
925.4068, 71.59422
925.8889, 72.24464
926.3710, 73.20543
926.8531, 74.39554
927.3353, 75.56729
927.8174, 76.60175
928.2995, 77.92374
928.7816, 79.95578
929.2637, 82.31014
929.7458, 84.54696
930.2280, 86.79217
930.7101, 89.32504
931.1922, 92.23005
931.6743, 95.37078
932.1564, 98.57605
932.6385, 102.2164
933.1207, 107.3135
933.6028, 113.4354
934.0849, 118.6542
934.5670, 122.8380
935.0491, 127.0372
935.5313, 131.6661
936.0134, 136.6831
936.4955, 142.3441
936.9776, 148.3676
937.4597, 151.7922
937.9418, 152.0893
938.4240, 152.0894
938.9061, 152.3705
939.3882, 152.1406
939.8703, 151.0022
940.3524, 148.9449
940.8345, 145.9039
941.3167, 141.7304
941.7988, 137.0956
942.2809, 131.4503
942.7630, 126.1074
943.2451, 121.3855
943.7272, 117.0687
944.2094, 112.9136
944.6915, 109.0238
945.1736, 105.7983
945.6557, 103.4847
946.1378, 101.3941
946.6199, 99.12928
947.1021, 97.14980
947.5842, 96.02345
948.0663, 95.28654
948.5484, 93.93291
949.0305, 92.04141
949.5126, 91.18965
949.9948, 92.82964
950.4769, 94.81284
950.9590, 94.55207
951.4411, 93.49586
951.9232, 94.04544
952.4053, 96.09779
952.8875, 98.43688
953.3696, 100.5837
953.8517, 102.8425
954.3338, 105.4345
954.8159, 108.4406
955.2980, 112.2820
955.7802, 116.8105
956.2623, 120.8147
956.7444, 124.0863
957.2265, 128.2040
957.7086, 134.2047
958.1907, 139.3584
958.6729, 147.4350
959.1550, 152.8674
959.6371, 159.9142
960.1192, 168.8363
960.6013, 178.3840
961.0834, 188.2173
961.5656, 198.7353
962.0477, 210.2037
962.5298, 222.5960
963.0119, 235.8163
963.4940, 250.0328
963.9761, 264.7734
964.4583, 279.0848
964.9404, 295.2092
965.4225, 314.2925
965.9046, 335.0546
966.3867, 356.1800
966.8688, 377.8181
967.3510, 400.7848
967.8331, 425.2846
968.3152, 451.0751
968.7973, 478.7650
969.2794, 506.8300
969.7615, 534.6290
970.2437, 561.9172
970.7258, 588.8716
971.2079, 615.1982
971.6900, 639.4330
972.1721, 661.2347
972.6542, 680.1021
973.1364, 696.8651
973.6185, 709.7712
974.1006, 717.7637
974.5827, 720.0793
975.0648, 714.9280
975.5469, 701.9355
976.0291, 684.4453
976.5112, 663.9744
976.9933, 641.7387
977.4754, 618.6263
977.9575, 595.1731
978.4396, 571.7550
978.9218, 548.7606
979.4039, 527.5568
979.8860, 508.7466
980.3681, 492.2393
980.8502, 478.0543
981.3323, 466.1022
981.8145, 456.4283
982.2966, 448.9741
982.7787, 443.2061
983.2608, 439.0521
983.7429, 435.5738
984.2250, 432.0696
984.7072, 429.1333
985.1893, 428.2780
985.6714, 429.5973
986.1535, 429.9277
986.6356, 429.1436
987.1177, 427.9576
987.5999, 426.3057
988.0820, 425.1652
988.5641, 425.7384
989.0462, 427.1744
989.5283, 426.3986
990.0104, 422.3988
990.4926, 419.4676
990.9747, 418.3661
991.4568, 416.8267
991.9389, 413.1451
992.4210, 409.7328
992.9031, 409.0656
993.3853, 410.8703
993.8674, 413.3322
994.3495, 417.3975
994.8316, 420.5102
995.3137, 421.9301
995.7958, 423.2155
996.2780, 425.3610
996.7601, 427.4264
997.2422, 428.5662
997.7243, 428.6812
998.2064, 427.6055
998.6885, 425.6365
999.1707, 421.9533
999.6528, 416.0109
1000.135, 408.6242
1000.617, 400.1221
1001.099, 390.6210
1001.581, 380.2530
1002.063, 368.9878
1002.545, 357.0058
1003.028, 343.8771
1003.510, 330.7650
1003.992, 318.1080
1004.474, 305.9461
1004.956, 294.3553
1005.438, 283.3141
1005.920, 272.6056
1006.402, 262.2173
1006.885, 252.3333
1007.367, 243.3141
1007.849, 234.6012
1008.331, 225.8537
1008.813, 217.0385
1009.295, 207.9577
1009.777, 198.7733
1010.259, 189.6315
1010.741, 180.6779
1011.224, 172.3960
1011.706, 165.3504
1012.188, 159.0918
1012.670, 153.1945
1013.152, 147.4156
1013.634, 140.6821
1014.116, 133.3450
1014.598, 127.5094
1015.081, 124.0914
1015.563, 121.5176
1016.045, 118.0204
1016.527, 114.0940
1017.009, 110.7912
1017.491, 108.1398
1017.973, 106.5019
1018.455, 105.8179
1018.937, 104.8098
1019.420, 102.7973
1019.902, 100.5461
1020.384, 99.09719
1020.866, 98.28813
1021.348, 97.23984
1021.830, 95.97512
1022.312, 95.26815
1022.794, 95.27094
1023.276, 95.30111
1023.759, 94.95663
1024.241, 94.52640
1024.723, 94.56285
1025.205, 94.98840
1025.687, 94.49325
1026.169, 92.88161
1026.651, 92.03233
1027.133, 92.38205
1027.616, 93.03255
1028.098, 93.39474
1028.580, 93.85088
1029.062, 95.17188
1029.544, 97.39965
1030.026, 99.04607
1030.508, 99.93645
1030.990, 100.8717
1031.473, 101.9780
1031.955, 103.1934
1032.437, 104.4745
1032.919, 105.8531
1033.401, 107.3920
1033.883, 109.0806
1034.365, 111.0380
1034.847, 113.4721
1035.329, 115.7297
1035.812, 117.6772
1036.294, 119.4721
1036.776, 121.1353
1037.258, 122.7597
1037.740, 124.6199
1038.222, 126.8786
1038.704, 128.3176
1039.186, 128.3916
1039.668, 128.5313
1040.151, 129.3410
1040.633, 129.8426
1041.115, 129.5128
1041.597, 128.4345
1042.079, 126.6805
1042.561, 124.1437
1043.043, 121.6301
1043.525, 119.1499
1044.008, 116.7142
1044.490, 114.7252
1044.972, 112.3779
1045.454, 108.8262
1045.936, 104.7183
1046.418, 101.2193
1046.900, 98.46468
1047.382, 95.78517
1047.865, 93.47242
1048.347, 90.70139
1048.829, 86.75929
1049.311, 82.83511
1049.793, 79.58456
1050.275, 76.90931
1050.757, 74.80200
1051.239, 73.31524
1051.721, 71.12693
1052.203, 66.91228
1052.686, 63.47090
1053.168, 62.37051
1053.650, 61.53725
1054.132, 59.22283
1054.614, 56.35441
1055.096, 54.62659
1055.578, 54.25030
1056.060, 53.92754
1056.543, 53.65588
1057.025, 52.92421
1057.507, 51.05506
1057.989, 49.18306
1058.471, 48.25165
1058.953, 47.79303
1059.435, 46.93835
1059.917, 45.59812
1060.400, 44.49212
1060.882, 43.88440
1061.364, 43.49587
1061.846, 43.56628
1062.328, 43.47491
1062.810, 42.58733
1063.292, 41.33708
1063.774, 40.37851
1064.256, 39.79587
1064.739, 39.32209
1065.221, 38.79192
1065.703, 38.48426
1066.185, 38.75289
1066.667, 39.03735
1067.149, 38.90667
1067.631, 38.54979
1068.113, 38.39561
1068.595, 38.38424
1069.078, 37.78975
1069.560, 35.86181
1070.042, 34.39867
1070.524, 34.66976
1071.006, 35.18593
1071.488, 34.79255
1071.970, 34.06155
1072.452, 33.86503
1072.935, 34.19512
1073.417, 34.43341
1073.899, 34.37783
1074.381, 34.18912
1074.863, 33.97187
1075.345, 33.61470
1075.827, 32.85541
1076.309, 32.03921
1076.792, 31.56927
1077.274, 31.45027
1077.756, 31.52132
1078.238, 31.77952
1078.720, 31.99478
1079.202, 32.08757
1079.684, 32.07104
1080.166, 31.95669
1080.648, 31.73606
1081.130, 31.35233
1081.613, 30.85871
1082.095, 30.32427
1082.577, 29.72791
1083.059, 29.48295
1083.541, 30.10811
1084.023, 30.72641
1084.505, 30.64900
1084.987, 30.48469
1085.469, 31.08168
1085.952, 32.02927
1086.434, 32.25765
1086.916, 31.50908
1087.398, 30.67947
1087.880, 30.05559
1088.362, 29.54546
1088.844, 28.99640
1089.326, 28.64241
1089.809, 28.88300
1090.291, 29.38430
1090.773, 29.52662
1091.255, 29.22006
1091.737, 28.91599
1092.219, 28.78683
1092.701, 28.67772
1093.183, 28.43109
1093.666, 28.28225
1094.148, 28.59229
1094.630, 29.00360
1095.112, 28.90310
1095.594, 28.31388
1096.076, 27.94020
1096.558, 28.07831
1097.040, 28.26719
1097.522, 28.47136
1098.005, 28.55549
1098.487, 28.20534
1098.969, 27.85833
1099.451, 28.31961
1099.933, 29.29686
1100.415, 29.30182
1100.897, 27.45336
1101.379, 26.31671
1101.861, 27.31091
1102.344, 28.19237
1102.826, 27.90011
1103.308, 27.15245
1103.790, 26.34915
1104.272, 25.71482
1104.754, 25.75762
1105.236, 26.68775
1105.718, 27.52380
1106.201, 28.40592
1106.683, 28.74436
1107.165, 27.89749
1107.647, 26.92452
1108.129, 26.47372
1108.611, 26.45401
1109.093, 26.69950
1109.575, 27.21521
1110.057, 27.71347
1110.540, 28.44027
1111.022, 28.73807
1111.504, 28.22564
1111.986, 27.58958
1112.468, 27.02669
1112.950, 26.61738
1113.432, 26.50787
1113.914, 26.67990
1114.396, 26.81487
1114.879, 26.75012
1115.361, 26.93621
1115.843, 27.67341
1116.325, 28.24006
1116.807, 28.45499
1117.289, 28.32112
1117.771, 27.63954
1118.253, 26.63893
1118.736, 26.24355
1119.218, 26.72167
1119.700, 26.91476
1120.182, 26.67258
1120.664, 26.44322
1121.146, 26.21649
1121.628, 26.27226
1122.110, 27.02659
1122.593, 27.96511
1123.075, 27.90836
1123.557, 26.75661
1124.039, 26.31981
1124.521, 26.86199
1125.003, 27.17590
1125.485, 27.06405
1125.967, 26.70869
1126.449, 26.07508
1126.932, 25.57554
1127.414, 25.84613
1127.896, 26.72535
1128.378, 27.10737
1128.860, 26.93913
1129.342, 26.77192
1129.824, 26.64007
1130.306, 26.60907
1130.788, 26.73403
1131.271, 26.72385
1131.753, 26.25636
1132.235, 25.59516
1132.717, 25.58028
1133.199, 25.10621
1133.681, 24.53632
1134.163, 24.56725
1134.645, 23.67297
1135.128, 23.37823
1135.610, 23.66963
1136.092, 24.59008
1136.574, 25.62424
1137.056, 26.04292
1137.538, 25.94294
1138.020, 25.41935
1138.502, 24.65541
1138.984, 24.56442
1139.467, 25.15201
1139.949, 25.71733
1140.431, 25.96187
1140.913, 25.87102
1141.395, 25.35011
1141.877, 24.63803
1142.359, 23.96061
1142.841, 23.45585
1143.323, 23.58154
1143.806, 24.12521
1144.288, 24.49494
1144.770, 24.52218
1145.252, 24.16027
1145.734, 23.24453
1146.216, 22.62585
1146.698, 23.59744
1147.180, 24.88928
1147.663, 24.82916
1148.145, 24.17799
1148.627, 24.31715
1149.109, 25.12908
1149.591, 25.65145
1150.073, 25.56074
1150.555, 25.15262
1151.037, 24.16262
1151.520, 23.45704
1152.002, 24.00365
1152.484, 24.71664
1152.966, 24.37500
1153.448, 23.53641
1153.930, 23.30544
1154.412, 23.79716
1154.894, 24.33247
1155.376, 24.81846
1155.859, 25.09933
1156.341, 24.88291
1156.823, 24.74436
1157.305, 25.27645
1157.787, 25.78908
1158.269, 25.31350
1158.751, 24.22125
1159.233, 23.92974
1159.715, 24.92706
1160.198, 25.25122
1160.680, 24.22079
1161.162, 23.32818
1161.644, 22.73148
1162.126, 22.45188
1162.608, 22.68865
1163.090, 23.09125
1163.572, 23.14187
1164.055, 22.85425
1164.537, 22.48417
1165.019, 21.82559
1165.501, 21.81147
1165.983, 22.76539
1166.465, 23.48913
1166.947, 23.49501
1167.429, 23.35407
1167.911, 23.61334
1168.394, 23.36116
1168.876, 23.19372
1169.358, 23.06051
1169.840, 22.62090
1170.322, 22.51942
1170.804, 22.20877
1171.286, 21.58157
1171.768, 21.33676
1172.250, 21.85984
1172.733, 22.61203
1173.215, 23.04251
1173.697, 23.07577
1174.179, 22.16189
1174.661, 20.73497
1175.143, 20.36122
1175.625, 20.94271
1176.107, 21.64352
1176.590, 22.15622
1177.072, 22.21793
1177.554, 21.58697
1178.036, 20.87204
1178.518, 20.88576
1179.000, 20.37720
1179.482, 20.73227
1179.964, 20.15552
1180.447, 20.15196
1180.929, 20.61763
1181.411, 21.00538
1181.893, 21.13493
1182.375, 20.99391
1182.857, 20.25524
1183.339, 19.66964
1183.821, 19.78076
1184.303, 20.09044
1184.786, 20.25361
1185.268, 20.32923
1185.750, 20.39148
1186.232, 20.47768
1186.714, 20.70469
1187.196, 21.16068
1187.678, 21.56079
1188.160, 21.95140
1188.642, 22.14650
1189.125, 21.97574
1189.607, 21.70567
1190.089, 21.44616
1190.571, 21.25131
1191.053, 21.28900
1191.535, 21.55405
1192.017, 21.35112
1192.499, 20.33995
1192.982, 19.93085
1193.464, 20.40032
1193.946, 20.92058
1194.428, 21.25830
1194.910, 21.34527
1195.392, 21.09891
1195.874, 20.60526
1196.356, 19.94596
1196.839, 19.17227
1197.321, 19.19482
1197.803, 19.93929
1198.285, 20.27479
1198.767, 20.04561
1199.249, 19.76898
1199.731, 19.67944
1200.213, 19.69932
1200.695, 19.74428
1201.177, 19.86733
1201.660, 20.21345
1202.142, 20.67334
1202.624, 21.09723
1203.106, 21.43122
1203.588, 21.56282
1204.070, 21.50422
1204.552, 21.41166
1205.034, 21.36510
1205.517, 21.17229
1205.999, 20.45877
1206.481, 19.84115
1206.963, 20.03182
1207.445, 20.28818
1207.927, 19.50928
1208.409, 18.44705
1208.891, 18.70171
1209.374, 20.27571
1209.856, 21.29323
1210.338, 21.16111
1210.820, 20.84697
1211.302, 20.29940
1211.784, 19.85729
1212.266, 19.65767
1212.748, 19.59100
1213.230, 19.33037
1213.713, 19.87934
1214.195, 19.18845
1214.677, 19.35161
1215.159, 19.59454
1215.641, 19.13959
1216.123, 20.17290
1216.605, 20.34711
1217.087, 20.10734
1217.569, 19.53461
1218.052, 19.21380
1218.534, 19.73458
1219.016, 20.51626
1219.498, 20.06651
1219.980, 20.91042
1220.462, 19.47611
1220.944, 21.31247
1221.426, 21.76267
1221.909, 20.75295
1222.391, 19.98978
1222.873, 20.09132
1223.355, 20.15318
1223.837, 19.34488
1224.319, 18.52777
1224.801, 18.73519
1225.283, 19.27265
1225.766, 19.37130
1226.248, 19.25266
1226.730, 19.32967
1227.212, 19.56674
1227.694, 19.65038
1228.176, 19.48224
1228.658, 19.40944
1229.140, 19.52131
1229.622, 19.78055
1230.104, 20.46644
1230.587, 20.96115
1231.069, 20.84107
1231.551, 20.41116
1232.033, 20.03525
1232.515, 19.64339
1232.997, 18.86812
1233.479, 17.42793
1233.961, 17.23477
1234.444, 18.79562
1234.926, 19.49384
1235.408, 18.68973
1235.890, 17.94282
1236.372, 18.02742
1236.854, 18.45047
1237.336, 18.70975
1237.818, 18.77970
1238.301, 18.43685
1238.783, 18.59605
1239.265, 17.93265
1239.747, 18.45526
1240.229, 18.68800
1240.711, 18.53386
1241.193, 18.25187
1241.675, 17.96493
1242.157, 17.95007
1242.640, 18.66759
1243.122, 19.41905
1243.604, 19.68740
1244.086, 19.61892
1244.568, 19.13285
1245.050, 18.55039
1245.532, 18.34684
1246.014, 18.47337
1246.496, 18.49994
1246.979, 18.63099
1247.461, 18.31316
1247.943, 19.12450
1248.425, 19.67674
1248.907, 20.13310
1249.389, 19.73031
1249.871, 17.35798
1250.353, 15.02658
1250.836, 15.11317
1251.318, 16.90940
1251.800, 17.85815
1252.282, 17.90148
1252.764, 18.00368
1253.246, 18.16915
1253.728, 18.01314
1254.210, 17.48763
1254.693, 17.18742
1255.175, 17.38123
1255.657, 17.70751
1256.139, 17.72710
1256.621, 17.93462
1257.103, 19.73745
1257.585, 19.16641
1258.067, 21.21995
1258.549, 19.42917
1259.031, 18.94978
1259.514, 19.67585
1259.996, 19.93912
1260.478, 19.25111
1260.960, 18.66993
1261.442, 18.83531
1261.924, 18.91817
1262.406, 18.50861
1262.888, 18.09993
1263.371, 17.87937
1263.853, 17.85551
1264.335, 18.10502
1264.817, 18.51895
1265.299, 18.89454
1265.781, 19.26188
1266.263, 18.98312
1266.745, 17.81538
1267.228, 17.29701
1267.710, 17.65003
1268.192, 18.10301
1268.674, 18.38731
1269.156, 18.70919
1269.638, 19.27884
1270.120, 19.67735
1270.602, 18.93807
1271.084, 17.71004
1271.567, 17.41621
1272.049, 17.77378
1272.531, 18.53401
1273.013, 19.28225
1273.495, 18.84830
1273.977, 17.26178
1274.459, 16.43804
1274.941, 17.37338
1275.423, 18.62758
1275.906, 20.15815
1276.388, 21.01524
1276.870, 20.07321
1277.352, 18.97362
1277.834, 19.11646
1278.316, 19.83303
1278.798, 20.08408
1279.280, 19.91228
1279.763, 19.57954
1280.245, 18.97258
1280.727, 18.67079
1281.209, 18.69746
1281.691, 19.02131
1282.173, 19.68587
1282.655, 19.90504
1283.137, 19.25552
1283.620, 18.56549
1284.102, 18.76130
1284.584, 19.35129
1285.066, 19.60735
##END=



