##NAMES=Rhodochrosite
##RRUFFID=R050116
##IDEAL CHEMISTRY=Mn^2+^CO_3_
##LOCALITY=Wudong mine, Liubao, Guangxi Autonomous Region, China
##OWNER=RRUFF
##SOURCE=He Xin Jian
##DESCRIPTION=Pink crystal associated with colorless quartz
##STATUS=The identification of this mineral has been confirmed by X-ray diffraction and chemical analysis
##URL=rruff.info/R050116
##MEASURED CHEMISTRY=(Mn_0.81_Fe_0.17_Mg_0.01_Ca_0.01_)CO_3_
125.4375, 58.03254
125.9196, 58.26553
126.4017, 58.39734
126.8838, 58.30745
127.3659, 57.83519
127.8481, 57.66579
128.3302, 57.94880
128.8123, 58.48390
129.2944, 59.10342
129.7765, 59.78875
130.2586, 60.44427
130.7408, 60.96270
131.2229, 61.39274
131.7050, 61.54507
132.1871, 61.07431
132.6692, 60.18994
133.1513, 59.70248
133.6335, 60.04173
134.1156, 60.69442
134.5977, 61.08392
135.0798, 61.16808
135.5619, 61.20771
136.0440, 61.39717
136.5262, 61.72629
137.0083, 62.27691
137.4904, 63.50820
137.9725, 64.72658
138.4546, 65.41371
138.9367, 65.40311
139.4189, 65.00737
139.9010, 64.76495
140.3831, 64.59274
140.8652, 64.77905
141.3473, 65.65533
141.8294, 66.73176
142.3116, 67.47916
142.7937, 67.63010
143.2758, 67.36102
143.7579, 67.44292
144.2400, 68.23434
144.7221, 69.01797
145.2043, 69.63474
145.6864, 70.18176
146.1685, 70.84952
146.6506, 71.78728
147.1327, 72.96236
147.6148, 73.91180
148.0969, 74.19322
148.5791, 74.70937
149.0612, 75.93950
149.5433, 77.81518
150.0254, 79.92300
150.5075, 82.02312
150.9896, 84.08853
151.4718, 85.96111
151.9539, 87.32195
152.4360, 88.67882
152.9181, 90.67782
153.4002, 93.43980
153.8823, 96.13268
154.3645, 97.56186
154.8466, 98.35430
155.3287, 99.85995
155.8108, 102.9258
156.2929, 106.9842
156.7750, 110.6850
157.2572, 113.6817
157.7393, 116.9123
158.2214, 120.9932
158.7035, 125.6938
159.1856, 130.5103
159.6677, 135.1039
160.1499, 139.4843
160.6320, 143.9948
161.1141, 148.3097
161.5962, 153.1137
162.0783, 158.9897
162.5604, 165.6744
163.0426, 172.3538
163.5247, 178.4051
164.0068, 183.8858
164.4889, 188.2372
164.9710, 190.0154
165.4531, 191.9609
165.9353, 195.6160
166.4174, 200.9108
166.8995, 206.5842
167.3816, 210.9527
167.8637, 213.0446
168.3458, 216.4953
168.8279, 221.8344
169.3101, 227.9546
169.7922, 233.9662
170.2743, 239.7025
170.7564, 245.6888
171.2385, 252.8136
171.7206, 261.4531
172.2028, 270.4817
172.6849, 279.5488
173.1670, 289.0925
173.6491, 299.3891
174.1312, 310.4853
174.6133, 322.8513
175.0955, 337.7422
175.5776, 355.2970
176.0597, 373.3017
176.5418, 390.4122
177.0239, 407.5206
177.5060, 427.0965
177.9882, 450.4412
178.4703, 475.8063
178.9524, 501.2118
179.4345, 526.7751
179.9166, 551.6061
180.3987, 575.3803
180.8809, 598.1099
181.3630, 619.4021
181.8451, 641.6964
182.3272, 659.6346
182.8093, 670.3707
183.2914, 673.6727
183.7736, 667.8445
184.2557, 649.9213
184.7378, 619.0429
185.2199, 583.3229
185.7020, 540.2446
186.1841, 495.3412
186.6663, 450.7956
187.1484, 407.2115
187.6305, 365.6864
188.1126, 327.2147
188.5947, 291.8051
189.0768, 260.6935
189.5589, 234.1911
190.0411, 211.2454
190.5232, 191.2792
191.0053, 174.1064
191.4874, 159.3859
191.9695, 146.4098
192.4516, 136.0604
192.9338, 126.3619
193.4159, 116.5069
193.8980, 107.4189
194.3801, 100.0802
194.8622, 94.78941
195.3443, 90.90157
195.8265, 86.90519
196.3086, 82.56710
196.7907, 78.36454
197.2728, 73.95384
197.7549, 69.80186
198.2370, 66.52537
198.7192, 64.40086
199.2013, 63.07446
199.6834, 61.64845
200.1655, 60.00766
200.6476, 58.43371
201.1297, 56.95374
201.6119, 55.57285
202.0940, 54.34310
202.5761, 53.31570
203.0582, 52.39988
203.5403, 51.32969
204.0224, 49.93893
204.5046, 48.73858
204.9867, 48.08708
205.4688, 47.79035
205.9509, 47.31999
206.4330, 46.43063
206.9151, 45.28891
207.3972, 44.15135
207.8794, 42.84258
208.3615, 41.96686
208.8436, 42.20104
209.3257, 43.33143
209.8078, 44.11585
210.2899, 44.00084
210.7721, 43.35920
211.2542, 42.73770
211.7363, 42.15851
212.2184, 41.57658
212.7005, 40.92330
213.1826, 40.19677
213.6648, 39.56467
214.1469, 39.06338
214.6290, 38.70031
215.1111, 38.50529
215.5932, 38.49124
216.0753, 38.55185
216.5575, 38.59779
217.0396, 38.63505
217.5217, 38.61569
218.0038, 38.45729
218.4859, 38.27883
218.9680, 38.14968
219.4502, 38.08434
219.9323, 38.05676
220.4144, 38.05134
220.8965, 38.09592
221.3786, 38.06528
221.8607, 37.81850
222.3429, 37.57868
222.8250, 37.52608
223.3071, 37.68666
223.7892, 37.90242
224.2713, 37.94536
224.7534, 37.78127
225.2356, 37.50636
225.7177, 36.82958
226.1998, 36.25733
226.6819, 36.25984
227.1640, 36.88891
227.6461, 37.70646
228.1283, 37.99450
228.6104, 37.30014
229.0925, 36.93333
229.5746, 37.13449
230.0567, 37.44777
230.5388, 37.55608
231.0210, 37.38437
231.5031, 37.05803
231.9852, 36.74210
232.4673, 36.33200
232.9494, 36.18240
233.4315, 36.37239
233.9137, 36.74370
234.3958, 37.27350
234.8779, 37.92243
235.3600, 38.50803
235.8421, 38.76235
236.3242, 38.49300
236.8064, 38.30369
237.2885, 38.25504
237.7706, 38.24753
238.2527, 38.12970
238.7348, 37.88587
239.2169, 37.73941
239.6991, 38.01196
240.1812, 38.88923
240.6633, 39.56130
241.1454, 39.98117
241.6275, 40.20094
242.1096, 40.06890
242.5918, 39.57069
243.0739, 39.32053
243.5560, 40.25338
244.0381, 42.53333
244.5202, 44.03023
245.0023, 43.98446
245.4845, 43.36300
245.9666, 43.12548
246.4487, 43.41089
246.9308, 43.95506
247.4129, 44.57904
247.8950, 45.27378
248.3771, 45.91792
248.8593, 46.55429
249.3414, 47.10185
249.8235, 47.31739
250.3056, 47.12034
250.7877, 47.13926
251.2698, 48.13360
251.7520, 49.81020
252.2341, 51.28203
252.7162, 52.31585
253.1983, 53.07383
253.6804, 53.55509
254.1625, 53.65012
254.6447, 54.13113
255.1268, 55.99584
255.6089, 58.58044
256.0910, 60.73626
256.5731, 61.93983
257.0552, 62.74548
257.5374, 63.89233
258.0195, 65.43024
258.5016, 67.05186
258.9837, 68.39357
259.4658, 69.78416
259.9479, 71.67921
260.4301, 74.29929
260.9122, 77.33089
261.3943, 80.27123
261.8764, 83.01796
262.3585, 86.22711
262.8406, 90.29439
263.3228, 94.93149
263.8049, 100.0666
264.2870, 105.8012
264.7691, 111.6554
265.2512, 116.8155
265.7333, 121.0850
266.2155, 125.7141
266.6976, 131.0265
267.1797, 136.9395
267.6618, 143.6020
268.1439, 151.0577
268.6260, 158.8562
269.1082, 166.6511
269.5903, 174.6201
270.0724, 181.7648
270.5545, 187.1042
271.0366, 192.0049
271.5187, 197.2388
272.0009, 202.9296
272.4830, 208.7121
272.9651, 214.1276
273.4472, 219.0485
273.9293, 224.3142
274.4114, 230.5621
274.8936, 236.7892
275.3757, 242.2917
275.8578, 247.1429
276.3399, 252.2497
276.8220, 258.7501
277.3041, 266.8836
277.7863, 274.4466
278.2684, 280.2173
278.7505, 286.4290
279.2326, 293.8330
279.7147, 302.4183
280.1968, 311.9476
280.6789, 322.3962
281.1610, 333.8504
281.6432, 344.6873
282.1253, 353.8293
282.6074, 363.4451
283.0895, 374.5836
283.5716, 386.7421
284.0537, 398.7424
284.5359, 409.8005
285.0180, 419.9510
285.5001, 429.6659
285.9822, 440.3946
286.4643, 448.7441
286.9464, 454.2595
287.4286, 456.8507
287.9107, 456.4661
288.3928, 453.0813
288.8749, 446.7336
289.3570, 437.5739
289.8391, 425.0706
290.3213, 409.9305
290.8034, 390.8069
291.2855, 369.8084
291.7676, 349.0888
292.2497, 329.6864
292.7318, 311.3031
293.2140, 293.2646
293.6961, 275.9248
294.1782, 258.2531
294.6603, 238.6633
295.1424, 219.5896
295.6245, 203.3800
296.1067, 190.7024
296.5888, 180.2458
297.0709, 169.6953
297.5530, 158.5880
298.0351, 148.4232
298.5172, 138.8751
298.9994, 130.3520
299.4815, 123.2722
299.9636, 117.5981
300.4457, 112.6945
300.9278, 107.7066
301.4099, 102.3713
301.8921, 97.85716
302.3742, 94.72601
302.8563, 91.73656
303.3384, 88.00181
303.8205, 83.69197
304.3026, 79.75230
304.7848, 77.12099
305.2669, 75.92004
305.7490, 74.55870
306.2311, 73.19942
306.7132, 71.53144
307.1953, 69.17837
307.6775, 66.41739
308.1596, 63.83494
308.6417, 61.84056
309.1238, 60.39216
309.6059, 59.04884
310.0880, 57.66757
310.5702, 56.56160
311.0523, 56.02358
311.5344, 55.74852
312.0165, 55.29295
312.4986, 54.42443
312.9807, 53.27925
313.4629, 52.25715
313.9450, 51.21125
314.4271, 50.53507
314.9092, 50.62911
315.3913, 50.91486
315.8734, 50.80611
316.3556, 50.10892
316.8377, 49.08443
317.3198, 48.20259
317.8019, 47.60223
318.2840, 46.89722
318.7661, 45.84059
319.2483, 44.86353
319.7304, 44.28514
320.2125, 44.14027
320.6946, 44.25104
321.1767, 44.45536
321.6588, 44.86156
322.1409, 44.91114
322.6230, 44.37926
323.1052, 43.75947
323.5873, 43.17389
324.0694, 42.68792
324.5515, 42.44199
325.0336, 42.62417
325.5157, 43.23448
325.9979, 43.17043
326.4800, 41.60798
326.9621, 40.24208
327.4442, 39.62540
327.9263, 39.47737
328.4084, 39.25137
328.8906, 38.61453
329.3727, 37.75043
329.8548, 37.42167
330.3369, 38.14690
330.8190, 38.78779
331.3011, 39.50512
331.7833, 39.96571
332.2654, 39.65442
332.7475, 38.42023
333.2296, 36.85014
333.7117, 36.08380
334.1938, 36.66458
334.6760, 37.04207
335.1581, 37.11044
335.6402, 37.04790
336.1223, 37.00454
336.6044, 36.98371
337.0865, 36.84947
337.5687, 36.39308
338.0508, 35.49158
338.5329, 34.87438
339.0150, 34.71867
339.4971, 34.66885
339.9792, 34.71291
340.4614, 34.75710
340.9435, 34.60942
341.4256, 34.08136
341.9077, 33.21983
342.3898, 32.60482
342.8719, 32.30167
343.3541, 32.20006
343.8362, 32.42731
344.3183, 32.79535
344.8004, 33.06728
345.2825, 33.12754
345.7646, 33.02561
346.2468, 32.86116
346.7289, 32.49442
347.2110, 32.34153
347.6931, 32.77911
348.1752, 33.21866
348.6573, 33.02065
349.1395, 32.08551
349.6216, 31.07020
350.1037, 30.96172
350.5858, 32.09019
351.0679, 32.82474
351.5500, 32.85298
352.0322, 32.65623
352.5143, 32.33290
352.9964, 31.95507
353.4785, 31.65404
353.9606, 31.57989
354.4427, 31.71635
354.9249, 31.70457
355.4070, 31.38387
355.8891, 31.11851
356.3712, 31.03400
356.8533, 31.08304
357.3354, 31.23103
357.8176, 31.52552
358.2997, 31.79008
358.7818, 31.43821
359.2639, 29.96604
359.7460, 29.14024
360.2281, 30.03765
360.7103, 31.43313
361.1924, 32.31115
361.6745, 32.41042
362.1566, 32.13747
362.6387, 31.93514
363.1208, 31.81237
363.6029, 31.64342
364.0851, 31.36374
364.5672, 31.06985
365.0493, 30.80470
365.5314, 30.57624
366.0135, 30.40084
366.4956, 30.31846
366.9778, 30.30690
367.4599, 30.26105
367.9420, 30.16476
368.4241, 30.05881
368.9062, 29.97897
369.3883, 29.90530
369.8705, 29.80585
370.3526, 29.69188
370.8347, 29.52263
371.3168, 29.17400
371.7989, 28.60711
372.2810, 28.17579
372.7632, 28.07116
373.2453, 28.16812
373.7274, 28.35618
374.2095, 28.66194
374.6916, 28.89742
375.1737, 28.79440
375.6559, 28.45587
376.1380, 28.43822
376.6201, 29.02269
377.1022, 29.70792
377.5843, 30.02603
378.0664, 30.00404
378.5486, 29.68679
379.0307, 28.71177
379.5128, 27.59648
379.9949, 27.18952
380.4770, 27.60724
380.9591, 28.22128
381.4413, 28.67821
381.9234, 28.96341
382.4055, 29.06481
382.8876, 28.88243
383.3697, 28.61184
383.8518, 28.32768
384.3340, 28.05122
384.8161, 27.88688
385.2982, 27.92357
385.7803, 28.03561
386.2624, 27.89053
386.7445, 27.33706
387.2267, 27.01631
387.7088, 27.30484
388.1909, 27.84266
388.6730, 28.15133
389.1551, 28.12864
389.6372, 27.93567
390.1194, 27.70409
390.6015, 27.41188
391.0836, 27.32107
391.5657, 27.55582
392.0478, 27.87990
392.5299, 28.28381
393.0121, 28.67709
393.4942, 28.75741
393.9763, 28.26520
394.4584, 27.37987
394.9405, 27.06729
395.4226, 28.03811
395.9048, 28.65907
396.3869, 28.33477
396.8690, 27.66931
397.3511, 27.46895
397.8332, 27.96952
398.3153, 28.68641
398.7975, 28.86073
399.2796, 28.23088
399.7617, 27.70653
400.2438, 27.15664
400.7259, 26.80413
401.2080, 26.89796
401.6902, 27.33381
402.1723, 27.75775
402.6544, 27.87464
403.1365, 27.71992
403.6186, 27.74240
404.1007, 28.30006
404.5828, 28.60094
405.0649, 28.38224
405.5471, 27.88231
406.0292, 27.31376
406.5113, 26.76175
406.9934, 26.34978
407.4755, 26.34348
407.9576, 26.92170
408.4398, 27.36478
408.9219, 27.62037
409.4040, 27.71218
409.8861, 27.56023
410.3682, 27.21798
410.8503, 26.89804
411.3325, 26.83574
411.8146, 26.97207
412.2967, 26.79731
412.7788, 25.96799
413.2609, 25.42730
413.7430, 25.77210
414.2252, 26.56008
414.7073, 27.19950
415.1894, 27.49508
415.6715, 27.56088
416.1536, 27.47314
416.6357, 27.21869
417.1179, 27.07301
417.6000, 27.09422
418.0821, 27.28882
418.5642, 27.77485
419.0463, 28.54728
419.5284, 29.05328
420.0106, 28.69861
420.4927, 27.91558
420.9748, 27.77253
421.4569, 28.51267
421.9390, 29.19764
422.4211, 28.95724
422.9033, 28.08765
423.3854, 27.56182
423.8675, 27.77891
424.3496, 28.09417
424.8317, 27.99555
425.3138, 27.60495
425.7960, 27.38887
426.2781, 27.57952
426.7602, 27.95424
427.2423, 28.05084
427.7244, 27.76912
428.2065, 27.60610
428.6887, 27.72160
429.1708, 27.95317
429.6529, 28.18971
430.1350, 28.39598
430.6171, 28.47994
431.0992, 28.32283
431.5814, 27.92060
432.0635, 27.76037
432.5456, 28.15689
433.0277, 28.39372
433.5098, 28.09310
433.9919, 27.51868
434.4741, 27.08193
434.9562, 26.95587
435.4383, 27.06259
435.9204, 27.26195
436.4025, 27.66837
436.8846, 27.95147
437.3668, 28.02625
437.8489, 28.06719
438.3310, 28.21105
438.8131, 28.43345
439.2952, 28.59377
439.7773, 28.55857
440.2595, 28.35371
440.7416, 28.24294
441.2237, 28.29125
441.7058, 28.34312
442.1879, 28.33337
442.6700, 28.31602
443.1522, 28.36611
443.6343, 28.51034
444.1164, 28.67068
444.5985, 28.77698
445.0806, 28.83538
445.5627, 28.72739
446.0448, 28.21018
446.5269, 27.77596
447.0091, 27.85259
447.4912, 28.30861
447.9733, 28.62365
448.4554, 28.41890
448.9375, 27.95787
449.4196, 27.64228
449.9018, 27.45047
450.3839, 27.61951
450.8660, 28.63585
451.3481, 29.88714
451.8302, 30.24035
452.3123, 29.34847
452.7945, 28.48631
453.2766, 28.43805
453.7587, 28.87061
454.2408, 29.14892
454.7229, 29.14757
455.2050, 28.90945
455.6872, 28.35902
456.1693, 27.47374
456.6514, 27.04747
457.1335, 27.35254
457.6156, 27.87081
458.0977, 28.45710
458.5799, 29.02279
459.0620, 29.36013
459.5441, 29.35454
460.0262, 29.14132
460.5083, 29.05077
460.9904, 29.27493
461.4726, 29.32003
461.9547, 28.80062
462.4368, 28.38864
462.9189, 28.78936
463.4010, 29.88726
463.8831, 30.88070
464.3653, 31.03598
464.8474, 30.41917
465.3295, 30.12082
465.8116, 30.59381
466.2937, 30.79780
466.7758, 30.17996
467.2580, 29.36154
467.7401, 29.06481
468.2222, 29.51348
468.7043, 30.24106
469.1864, 30.64289
469.6685, 30.69033
470.1507, 30.78059
470.6328, 30.92381
471.1149, 31.15105
471.5970, 31.63344
472.0791, 32.21420
472.5612, 32.47199
473.0434, 32.02679
473.5255, 31.34289
474.0076, 31.18900
474.4897, 31.58279
474.9718, 31.81701
475.4539, 31.50241
475.9361, 31.00204
476.4182, 30.88379
476.9003, 31.19912
477.3824, 31.49071
477.8645, 31.52273
478.3466, 31.46053
478.8288, 31.58094
479.3109, 31.90557
479.7930, 32.13488
480.2751, 31.99425
480.7572, 31.55438
481.2393, 31.38468
481.7215, 31.59687
482.2036, 31.90540
482.6857, 32.38423
483.1678, 32.85567
483.6499, 33.07071
484.1320, 32.96206
484.6142, 32.66230
485.0963, 32.30144
485.5784, 31.79219
486.0605, 31.64767
486.5426, 32.12098
487.0247, 32.66074
487.5068, 33.26426
487.9890, 33.75470
488.4711, 33.79938
488.9532, 33.20640
489.4353, 32.32011
489.9174, 31.83852
490.3995, 31.81392
490.8817, 32.01963
491.3638, 32.77613
491.8459, 33.47723
492.3280, 33.71188
492.8101, 33.54853
493.2922, 33.40104
493.7744, 33.55855
494.2565, 33.89116
494.7386, 34.07081
495.2207, 34.05500
495.7028, 34.17769
496.1849, 34.81997
496.6671, 35.54395
497.1492, 35.58679
497.6313, 34.71453
498.1134, 34.05167
498.5955, 34.35104
499.0776, 35.11544
499.5598, 35.59549
500.0419, 35.67778
500.5240, 35.47044
501.0061, 34.97095
501.4882, 34.22480
501.9703, 33.82493
502.4525, 33.90580
502.9346, 34.13160
503.4167, 34.58223
503.8988, 35.05011
504.3809, 35.25086
504.8630, 35.10407
505.3452, 34.73053
505.8273, 34.21412
506.3094, 33.40937
506.7915, 33.23659
507.2736, 34.46831
507.7557, 35.50877
508.2379, 35.82050
508.7200, 35.59461
509.2021, 35.11478
509.6842, 34.47880
510.1663, 33.88003
510.6484, 33.64309
511.1306, 33.79277
511.6127, 34.17039
512.0948, 35.16267
512.5769, 35.93513
513.0590, 35.76834
513.5411, 34.89458
514.0233, 34.15469
514.5054, 33.96700
514.9875, 34.08214
515.4696, 34.19769
515.9517, 34.31495
516.4338, 34.51017
516.9160, 34.94389
517.3981, 35.30758
517.8802, 34.91859
518.3623, 33.62009
518.8444, 32.69651
519.3265, 32.69962
519.8087, 33.00830
520.2908, 33.03763
520.7729, 32.80152
521.2550, 32.67416
521.7371, 32.92039
522.2192, 33.41928
522.7014, 33.68797
523.1835, 33.39394
523.6656, 33.30541
524.1477, 33.75251
524.6298, 34.19397
525.1119, 34.10069
525.5941, 33.51254
526.0762, 32.93588
526.5583, 32.81007
527.0404, 33.07108
527.5225, 33.28652
528.0046, 33.47481
528.4868, 33.57923
528.9689, 33.61292
529.4510, 33.54398
529.9331, 33.29922
530.4152, 32.86945
530.8973, 32.42548
531.3795, 32.01533
531.8616, 31.69583
532.3437, 31.72009
532.8258, 32.18707
533.3079, 32.57674
533.7900, 32.50925
534.2722, 32.10764
534.7543, 31.78862
535.2364, 31.52760
535.7185, 31.39911
536.2006, 31.59137
536.6827, 31.87534
537.1649, 31.88155
537.6470, 31.54892
538.1291, 31.12314
538.6112, 30.83063
539.0933, 30.67283
539.5754, 30.53178
540.0576, 30.38638
540.5397, 30.28313
541.0218, 30.23849
541.5039, 30.23790
541.9860, 30.28420
542.4681, 30.36987
542.9503, 30.44286
543.4324, 30.42205
543.9145, 30.30135
544.3966, 30.28225
544.8787, 30.56001
545.3608, 30.63212
545.8430, 30.07127
546.3251, 29.27768
546.8071, 28.82001
547.2892, 28.89197
547.7714, 29.11255
548.2535, 29.20168
548.7356, 29.17489
549.2177, 29.08132
549.6998, 28.92544
550.1819, 28.70963
550.6641, 28.34398
551.1462, 27.89275
551.6283, 27.79132
552.1104, 28.52086
552.5925, 29.06277
553.0746, 28.97202
553.5568, 28.45107
554.0389, 27.61993
554.5210, 26.56474
555.0031, 25.77413
555.4852, 25.87424
555.9673, 26.96507
556.4495, 27.76439
556.9316, 28.31278
557.4137, 28.50500
557.8958, 27.99573
558.3779, 27.25378
558.8600, 26.86419
559.3422, 26.99068
559.8243, 27.26715
560.3064, 27.32157
560.7885, 27.15902
561.2706, 26.79646
561.7527, 26.04988
562.2349, 25.47950
562.7170, 25.75428
563.1991, 26.35508
563.6812, 26.38932
564.1633, 25.43344
564.6454, 24.55308
565.1276, 24.51935
565.6097, 25.00075
566.0918, 25.42756
566.5739, 25.69169
567.0560, 25.70424
567.5381, 25.29723
568.0203, 24.50661
568.5024, 24.18136
568.9845, 24.81570
569.4666, 25.22566
569.9487, 24.94994
570.4308, 24.44186
570.9130, 24.21210
571.3951, 24.34541
571.8772, 24.57913
572.3593, 24.69187
572.8414, 24.67709
573.3235, 24.37203
573.8057, 23.44573
574.2878, 22.83578
574.7699, 22.99636
575.2520, 23.50878
575.7341, 24.09275
576.2162, 24.70126
576.6984, 25.03146
577.1805, 24.72948
577.6626, 24.03872
578.1447, 23.36694
578.6268, 22.73200
579.1089, 22.48690
579.5911, 23.07583
580.0732, 24.06144
580.5553, 24.06049
581.0374, 22.47927
581.5195, 21.32492
582.0016, 21.18929
582.4838, 21.49375
582.9659, 21.85638
583.4480, 22.17711
583.9301, 22.38286
584.4122, 22.42157
584.8943, 22.31496
585.3765, 22.10266
585.8586, 21.56767
586.3407, 21.39123
586.8228, 22.02664
587.3049, 22.71243
587.7870, 22.96386
588.2692, 22.82322
588.7513, 22.61952
589.2334, 22.49587
589.7155, 22.45681
590.1976, 22.63726
590.6797, 23.02605
591.1619, 22.96118
591.6440, 21.97931
592.1261, 20.86773
592.6082, 20.82418
593.0903, 21.84328
593.5724, 22.50714
594.0546, 22.46672
594.5367, 22.17490
595.0188, 21.81610
595.5009, 21.43508
595.9830, 21.03909
596.4651, 20.63271
596.9473, 20.37348
597.4294, 20.55145
597.9115, 21.30622
598.3936, 21.81349
598.8757, 21.89727
599.3578, 21.90043
599.8400, 21.98045
600.3221, 22.01822
600.8042, 21.79445
601.2863, 21.22617
601.7684, 20.61272
602.2505, 20.24411
602.7327, 20.09100
603.2148, 20.03681
603.6969, 20.07935
604.1790, 20.18197
604.6611, 20.32394
605.1432, 20.51082
605.6254, 20.77034
606.1075, 21.26407
606.5896, 21.53242
607.0717, 21.32254
607.5538, 20.88000
608.0359, 20.38044
608.5181, 19.89723
609.0002, 19.56816
609.4823, 19.50888
609.9644, 19.66187
610.4465, 19.78217
610.9286, 19.87389
611.4108, 19.92239
611.8929, 19.82126
612.3750, 19.76736
612.8571, 19.99482
613.3392, 20.40359
613.8214, 20.61572
614.3035, 20.33097
614.7856, 19.84641
615.2677, 19.63677
615.7498, 19.67728
616.2319, 19.64874
616.7141, 19.42587
617.1962, 19.18373
617.6783, 19.14990
618.1604, 19.33037
618.6425, 19.42688
619.1246, 19.40860
619.6068, 19.32376
620.0889, 19.15333
620.5710, 18.94497
621.0531, 18.76922
621.5352, 18.64477
622.0173, 18.53008
622.4995, 18.34662
622.9816, 18.09417
623.4637, 18.11789
623.9458, 18.62684
624.4279, 19.07357
624.9100, 19.36218
625.3922, 19.47632
625.8743, 19.26841
626.3564, 18.73552
626.8385, 18.43025
627.3206, 19.02697
627.8027, 19.92483
628.2849, 19.98881
628.7670, 19.24517
629.2490, 18.66575
629.7311, 18.74278
630.2133, 19.18881
630.6954, 19.48166
631.1775, 19.63005
631.6596, 19.56133
632.1417, 18.96522
632.6238, 18.45541
633.1060, 18.39675
633.5881, 18.65968
634.0702, 19.03126
634.5523, 19.41975
635.0344, 19.69174
635.5165, 19.58979
635.9987, 19.09846
636.4808, 18.76339
636.9629, 18.72014
637.4450, 18.62742
637.9271, 18.09883
638.4092, 17.46258
638.8914, 17.26268
639.3735, 17.69885
639.8556, 18.10521
640.3377, 17.99520
640.8198, 17.74728
641.3019, 17.97572
641.7841, 18.64627
642.2662, 19.15436
642.7483, 19.10546
643.2304, 18.68029
643.7125, 18.39926
644.1946, 18.35806
644.6768, 18.28242
645.1589, 17.99384
645.6410, 17.84360
646.1231, 18.18866
646.6052, 18.78562
647.0873, 19.10542
647.5695, 18.87868
648.0516, 18.46106
648.5337, 18.23804
649.0158, 18.19806
649.4979, 18.32683
649.9800, 18.68438
650.4622, 18.94878
650.9443, 18.85285
651.4264, 18.46460
651.9085, 18.12016
652.3906, 17.82215
652.8727, 17.56007
653.3549, 17.31207
653.8370, 17.11122
654.3191, 16.94993
654.8012, 16.85799
655.2833, 16.94781
655.7654, 17.31592
656.2476, 17.82680
656.7297, 18.11808
657.2118, 18.13677
657.6939, 18.18050
658.1760, 18.35359
658.6581, 18.48223
659.1403, 18.45592
659.6224, 18.30399
660.1045, 18.06937
660.5866, 17.60050
661.0687, 17.33858
661.5508, 17.86923
662.0330, 18.72166
662.5151, 18.98315
662.9972, 18.53178
663.4793, 17.89964
663.9614, 17.47324
664.4435, 17.24272
664.9257, 17.15619
665.4078, 17.23172
665.8899, 17.43489
666.3720, 17.99445
666.8541, 18.46395
667.3362, 18.45885
667.8184, 18.11800
668.3005, 17.89510
668.7826, 18.04825
669.2647, 18.32385
669.7468, 18.40261
670.2289, 18.31543
670.7111, 18.18309
671.1932, 17.99854
671.6753, 17.94599
672.1574, 18.26820
672.6395, 18.87292
673.1216, 19.08055
673.6038, 18.51586
674.0859, 18.11412
674.5680, 18.11281
675.0501, 18.25661
675.5322, 18.31371
676.0143, 18.30301
676.4965, 18.42860
676.9786, 18.86339
677.4607, 19.35407
677.9428, 19.29396
678.4249, 18.63207
678.9070, 18.17148
679.3892, 18.02687
679.8713, 18.12575
680.3534, 18.68718
680.8355, 19.45111
681.3176, 19.64569
681.7997, 18.76482
682.2819, 18.02217
682.7640, 17.94343
683.2461, 18.21583
683.7282, 18.52111
684.2103, 18.81240
684.6924, 19.17544
685.1746, 19.68716
685.6567, 20.22208
686.1388, 20.34801
686.6209, 19.85267
687.1030, 19.73369
687.5851, 20.41749
688.0673, 21.11772
688.5494, 21.34544
689.0315, 21.28281
689.5136, 21.33071
689.9957, 21.65090
690.4778, 21.91501
690.9600, 21.74660
691.4421, 21.46050
691.9242, 21.61923
692.4063, 22.22882
692.8884, 22.82810
693.3705, 23.12243
693.8527, 23.22306
694.3348, 23.42243
694.8169, 23.70109
695.2990, 24.12526
695.7811, 24.69748
696.2632, 25.41997
696.7454, 26.37527
697.2275, 27.46303
697.7096, 28.44597
698.1917, 29.20767
698.6738, 30.19577
699.1559, 31.93390
699.6381, 34.11857
700.1202, 35.95036
700.6023, 37.41071
701.0844, 39.35193
701.5665, 42.24490
702.0486, 45.89564
702.5308, 49.89640
703.0129, 54.35324
703.4950, 58.96615
703.9771, 63.92467
704.4592, 68.83691
704.9413, 73.91910
705.4235, 78.70005
705.9056, 82.23183
706.3877, 84.29262
706.8698, 86.17401
707.3519, 89.12535
707.8340, 92.76170
708.3162, 95.90382
708.7983, 98.51586
709.2804, 101.9717
709.7625, 106.9008
710.2446, 112.9094
710.7267, 119.4529
711.2089, 126.5544
711.6909, 134.1209
712.1730, 141.5493
712.6552, 150.0858
713.1373, 160.1676
713.6194, 171.6518
714.1015, 184.2890
714.5836, 198.0868
715.0657, 213.5252
715.5479, 230.8662
716.0300, 250.1788
716.5121, 271.8875
716.9942, 296.1097
717.4763, 320.0596
717.9584, 344.1716
718.4406, 365.1259
718.9227, 380.0226
719.4048, 388.6621
719.8869, 386.9113
720.3690, 371.1761
720.8511, 349.9356
721.3333, 323.0183
721.8154, 293.4002
722.2975, 262.5653
722.7796, 231.7373
723.2617, 203.0955
723.7438, 178.0380
724.2260, 156.6180
724.7081, 139.4989
725.1902, 126.6660
725.6723, 115.2323
726.1544, 104.6003
726.6365, 95.22104
727.1187, 87.54514
727.6008, 81.45634
728.0829, 75.91434
728.5650, 71.15446
729.0471, 66.54714
729.5292, 61.82548
730.0114, 57.37718
730.4935, 53.38957
730.9756, 49.92878
731.4577, 47.19486
731.9398, 45.33721
732.4219, 43.75914
732.9041, 41.49288
733.3862, 38.65495
733.8683, 36.20940
734.3504, 34.24706
734.8325, 32.68359
735.3146, 31.56627
735.7968, 30.75603
736.2789, 29.94799
736.7610, 29.17562
737.2431, 28.30042
737.7252, 27.21728
738.2073, 26.11976
738.6895, 25.05107
739.1716, 24.06095
739.6537, 23.20312
740.1358, 22.49844
740.6179, 21.96252
741.1000, 21.71667
741.5822, 21.65131
742.0643, 21.31335
742.5464, 20.67568
743.0285, 20.17463
743.5106, 20.02919
743.9927, 19.94674
744.4749, 19.50003
744.9570, 18.63995
745.4391, 18.15213
745.9212, 18.48567
746.4033, 18.61332
746.8854, 17.87033
747.3676, 17.03223
747.8497, 16.96821
748.3318, 17.64560
748.8139, 18.42026
749.2960, 18.99284
749.7781, 19.21731
750.2603, 18.56389
750.7424, 17.20250
751.2245, 16.53768
751.7066, 16.92110
752.1887, 17.51793
752.6708, 17.76680
753.1530, 17.70780
753.6351, 17.49190
754.1172, 16.94093
754.5993, 16.52284
755.0814, 16.36427
755.5635, 16.22937
756.0457, 15.85293
756.5278, 15.43316
757.0099, 15.43131
757.4920, 16.01911
757.9741, 16.59546
758.4562, 16.45597
758.9384, 15.91419
759.4205, 15.80910
759.9026, 16.14782
760.3847, 16.27424
760.8668, 15.84517
761.3489, 15.31669
761.8311, 15.44936
762.3132, 16.41713
762.7953, 16.79192
763.2774, 15.89292
763.7595, 15.24270
764.2416, 15.24081
764.7238, 15.55390
765.2059, 15.96847
765.6880, 16.40747
766.1701, 16.72409
766.6522, 16.81951
767.1343, 16.78334
767.6165, 16.64858
768.0986, 16.46586
768.5807, 16.38422
769.0628, 16.42705
769.5449, 16.48536
770.0270, 16.48388
770.5092, 16.42017
770.9913, 16.27319
771.4734, 15.97917
771.9555, 15.75850
772.4376, 15.67017
772.9197, 15.60868
773.4019, 15.58945
773.8840, 15.54434
774.3661, 15.29008
774.8482, 14.71922
775.3303, 14.40486
775.8124, 14.93218
776.2946, 15.63254
776.7767, 15.69685
777.2588, 15.32673
777.7409, 15.24005
778.2230, 15.68129
778.7051, 16.20164
779.1873, 16.25426
779.6694, 15.87831
780.1515, 15.53452
780.6336, 15.19169
781.1157, 14.98396
781.5978, 14.99796
782.0800, 15.10573
782.5621, 15.25675
783.0442, 15.41651
783.5263, 15.39574
784.0084, 14.87155
784.4905, 14.54278
784.9727, 14.85093
785.4548, 15.33219
785.9369, 15.52548
786.4190, 15.44464
786.9011, 15.32496
787.3832, 15.28367
787.8654, 15.32556
788.3475, 15.52949
788.8296, 15.85628
789.3117, 15.89185
789.7938, 15.53715
790.2759, 15.44456
790.7581, 16.12796
791.2402, 16.98180
791.7223, 16.85225
792.2044, 15.36344
792.6865, 14.55768
793.1686, 14.88706
793.6507, 15.32895
794.1328, 15.64505
794.6149, 15.86256
795.0970, 16.06109
795.5792, 16.22159
796.0613, 16.19529
796.5434, 15.81125
797.0255, 15.31461
797.5076, 14.85942
797.9897, 14.54373
798.4719, 14.78823
798.9540, 15.63494
799.4361, 16.42714
799.9182, 16.70411
800.4003, 16.60009
800.8824, 16.46136
801.3646, 16.18527
801.8467, 16.18289
802.3288, 16.79024
802.8109, 17.24942
803.2930, 17.25905
803.7751, 16.95143
804.2573, 16.35920
804.7394, 15.45506
805.2215, 14.92730
805.7036, 15.29854
806.1857, 15.88097
806.6678, 16.22678
807.1500, 16.38289
807.6321, 16.42656
808.1142, 16.39985
808.5963, 16.40006
809.0784, 16.52335
809.5605, 16.70735
810.0427, 16.71403
810.5248, 16.52294
811.0069, 16.64672
811.4890, 17.25751
811.9711, 17.95956
812.4532, 18.59764
812.9354, 19.08453
813.4175, 19.11481
813.8996, 18.51266
814.3817, 17.89137
814.8638, 17.24070
815.3459, 16.62273
815.8281, 15.96432
816.3102, 15.40114
816.7923, 15.17006
817.2744, 15.29898
817.7565, 15.48849
818.2386, 15.55558
818.7208, 15.53914
819.2029, 15.52907
819.6850, 15.48529
820.1671, 15.13836
820.6492, 14.44541
821.1313, 14.04447
821.6135, 14.52692
822.0956, 15.63582
822.5777, 16.39725
823.0598, 16.79389
823.5419, 16.87172
824.0240, 16.41624
824.5062, 15.93015
824.9883, 15.58909
825.4704, 15.41955
825.9525, 15.54822
826.4346, 16.07453
826.9167, 16.35829
827.3989, 15.94029
827.8810, 15.50778
828.3631, 15.64874
828.8452, 16.00962
829.3273, 15.91167
829.8094, 15.30279
830.2916, 14.84883
830.7737, 15.14194
831.2558, 15.80464
831.7379, 16.08490
832.2200, 16.02123
832.7021, 15.92142
833.1843, 15.83316
833.6664, 15.73552
834.1485, 15.58590
834.6306, 15.45827
835.1127, 15.57843
835.5948, 16.13587
836.0770, 16.43800
836.5591, 16.18653
837.0412, 16.02307
837.5233, 16.31328
838.0054, 16.69218
838.4875, 16.70313
838.9697, 16.32083
839.4518, 15.96784
839.9339, 15.87500
840.4160, 15.80799
840.8981, 15.49743
841.3802, 15.15615
841.8624, 15.20050
842.3445, 15.59194
842.8266, 15.84518
843.3087, 15.63498
843.7908, 15.25173
844.2729, 15.28679
844.7551, 15.69615
845.2372, 15.82398
845.7193, 15.60675
846.2014, 15.20869
846.6835, 14.57484
847.1656, 14.02589
847.6478, 14.12526
848.1299, 15.00285
848.6120, 15.48824
849.0941, 15.29230
849.5762, 15.09639
850.0583, 14.92637
850.5405, 14.88187
851.0226, 15.11451
851.5047, 15.54341
851.9868, 15.91453
852.4689, 16.16664
852.9510, 16.27498
853.4332, 16.14927
853.9153, 15.91885
854.3974, 15.75708
854.8795, 15.64172
855.3616, 15.37670
855.8438, 14.90162
856.3259, 14.59447
856.8080, 15.03346
857.2901, 16.02087
857.7722, 16.51378
858.2543, 16.48444
858.7365, 16.24452
859.2186, 15.80260
859.7007, 15.33761
860.1828, 14.89714
860.6649, 14.57409
861.1470, 14.86864
861.6292, 16.63588
862.1113, 17.64577
862.5934, 17.46705
863.0755, 17.02036
863.5576, 16.51685
864.0397, 16.10835
864.5219, 16.00239
865.0040, 16.23096
865.4861, 16.53095
865.9682, 16.90265
866.4503, 17.16787
866.9324, 17.12525
867.4146, 16.89776
867.8967, 16.63338
868.3788, 16.39513
868.8609, 16.30190
869.3430, 16.45366
869.8251, 16.68614
870.3073, 16.70374
870.7894, 16.52069
871.2715, 16.24858
871.7536, 15.88163
872.2357, 15.56555
872.7178, 15.36704
873.2000, 15.25885
873.6821, 15.22031
874.1642, 15.26276
874.6463, 15.20842
875.1284, 14.96437
875.6105, 14.76387
876.0926, 14.52911
876.5747, 14.44900
877.0568, 14.84098
877.5389, 15.47589
878.0211, 15.68798
878.5032, 15.12016
878.9853, 14.78654
879.4674, 15.51722
879.9495, 16.29991
880.4316, 16.10846
880.9138, 15.37698
881.3959, 15.06183
881.8780, 15.37368
882.3601, 15.71245
882.8422, 15.50461
883.3243, 15.08974
883.8065, 15.21956
884.2886, 15.75278
884.7707, 15.94228
885.2528, 15.66623
885.7349, 15.43773
886.2170, 15.60524
886.6992, 15.96157
887.1813, 16.05358
887.6634, 15.82628
888.1455, 15.66183
888.6276, 15.55011
889.1097, 15.52861
889.5919, 15.67395
890.0740, 15.85830
890.5561, 15.97398
891.0382, 16.01812
891.5203, 15.96054
892.0024, 15.87031
892.4846, 15.57884
892.9667, 14.83713
893.4488, 14.07873
893.9309, 13.52436
894.4130, 13.21812
894.8951, 13.21780
895.3773, 13.53640
895.8594, 13.95203
896.3415, 14.41533
896.8236, 14.80640
897.3057, 14.96874
897.7878, 14.95213
898.2700, 14.80843
898.7521, 14.58631
899.2342, 14.49972
899.7163, 14.71911
900.1984, 15.06818
900.6805, 15.19281
901.1627, 15.09951
901.6448, 14.86042
902.1269, 14.42905
902.6090, 14.27543
903.0911, 14.70777
903.5732, 15.24998
904.0554, 15.24237
904.5375, 14.68566
905.0196, 14.37152
905.5017, 14.41581
905.9838, 14.51188
906.4659, 14.62723
906.9481, 14.78092
907.4302, 15.18218
907.9123, 15.57686
908.3944, 15.36293
908.8765, 14.29304
909.3586, 13.52085
909.8408, 13.44930
910.3229, 13.70424
910.8050, 14.34147
911.2871, 15.00707
911.7692, 15.25303
912.2513, 15.05817
912.7335, 14.64167
913.2156, 13.99582
913.6977, 13.55588
914.1798, 14.12556
914.6619, 15.12091
915.1440, 15.26251
915.6262, 14.63462
916.1083, 14.13252
916.5904, 14.11017
917.0725, 14.24145
917.5546, 14.13880
918.0367, 13.87516
918.5189, 13.85053
919.0010, 14.09370
919.4831, 14.12635
919.9652, 13.80804
920.4473, 13.46784
920.9294, 13.27719
921.4116, 13.27390
921.8937, 13.59084
922.3758, 14.39700
922.8579, 14.87833
923.3400, 14.77075
923.8221, 14.71017
924.3043, 14.97583
924.7864, 15.25551
925.2685, 15.24158
925.7506, 15.00016
926.2327, 14.85939
926.7148, 14.96685
927.1970, 14.99635
927.6791, 14.72382
928.1612, 14.46266
928.6433, 14.45313
929.1254, 14.60020
929.6075, 14.69274
930.0897, 14.70743
930.5718, 14.88928
931.0539, 15.63536
931.5360, 16.32642
932.0181, 16.23758
932.5002, 15.66030
932.9824, 14.96378
933.4645, 14.29598
933.9466, 13.97173
934.4287, 14.14413
934.9108, 14.53680
935.3929, 14.83850
935.8751, 15.04462
936.3572, 15.11699
936.8393, 15.05874
937.3214, 14.93117
937.8035, 14.73019
938.2856, 14.65202
938.7678, 14.89236
939.2499, 15.29718
939.7320, 15.37630
940.2141, 14.98194
940.6962, 14.87395
941.1783, 15.19779
941.6605, 15.50323
942.1426, 15.65868
942.6247, 15.69031
943.1068, 15.57278
943.5889, 15.32462
944.0710, 15.20127
944.5532, 15.12684
945.0353, 15.29180
945.5174, 16.01708
945.9995, 16.66242
946.4816, 16.92430
946.9637, 16.86890
947.4459, 16.49863
947.9280, 15.84125
948.4101, 15.43867
948.8922, 15.72986
949.3743, 16.06236
949.8564, 16.13723
950.3386, 16.00208
950.8207, 15.51741
951.3028, 14.89619
951.7849, 14.73520
952.2670, 15.27086
952.7491, 15.81140
953.2313, 15.59386
953.7134, 15.09499
954.1955, 15.01091
954.6776, 15.25160
955.1597, 15.61794
955.6418, 16.02946
956.1240, 16.31290
956.6061, 16.35397
957.0882, 16.22135
957.5703, 16.01235
958.0524, 15.73306
958.5345, 15.35808
959.0166, 14.88548
959.4987, 14.68974
959.9808, 14.90711
960.4630, 15.36774
960.9451, 16.00772
961.4272, 16.65369
961.9093, 16.46130
962.3914, 15.08625
962.8735, 14.36603
963.3557, 14.60112
963.8378, 15.01198
964.3199, 15.35232
964.8020, 15.60637
965.2841, 15.70570
965.7662, 15.65299
966.2484, 15.78489
966.7305, 16.45985
967.2126, 16.78960
967.6947, 16.54466
968.1768, 16.13202
968.6589, 15.62229
969.1411, 15.13943
969.6232, 14.81066
970.1053, 14.64534
970.5874, 14.78859
971.0695, 15.76613
971.5516, 16.43028
972.0338, 16.07269
972.5159, 15.41858
972.9980, 14.94614
973.4801, 14.75902
973.9622, 15.01612
974.4443, 15.78459
974.9265, 16.45014
975.4086, 16.56612
975.8907, 16.48661
976.3728, 16.55153
976.8549, 16.62611
977.3370, 16.37292
977.8192, 15.88223
978.3013, 15.68266
978.7834, 16.06047
979.2655, 16.54940
979.7476, 16.55875
980.2297, 16.35273
980.7119, 16.49759
981.1940, 16.88902
981.6761, 17.03583
982.1582, 16.87037
982.6403, 16.92669
983.1224, 17.63125
983.6046, 18.51835
984.0867, 18.61609
984.5688, 18.05854
985.0509, 17.85630
985.5330, 18.04145
986.0151, 18.03742
986.4973, 17.61835
986.9794, 17.41639
987.4615, 18.11010
987.9436, 19.32034
988.4257, 19.58996
988.9078, 18.70129
989.3900, 18.39751
989.8721, 18.89586
990.3542, 19.52535
990.8363, 20.14395
991.3184, 20.54386
991.8005, 20.35956
992.2827, 19.71477
992.7648, 19.72030
993.2469, 20.81308
993.7290, 21.59558
994.2111, 21.78643
994.6932, 21.97108
995.1754, 22.60793
995.6575, 23.23733
996.1396, 23.09637
996.6217, 22.22397
997.1038, 21.88857
997.5859, 22.58644
998.0681, 23.15760
998.5502, 23.34886
999.0323, 23.49769
999.5144, 23.81865
999.9965, 24.19730
1000.479, 24.33753
1000.961, 24.23799
1001.443, 24.58736
1001.925, 26.11517
1002.407, 27.39294
1002.889, 27.64980
1003.371, 27.68824
1003.853, 28.18521
1004.336, 28.93687
1004.818, 29.39466
1005.300, 29.46325
1005.782, 29.79878
1006.264, 31.27698
1006.746, 32.51095
1007.228, 32.10638
1007.710, 31.27916
1008.193, 31.49263
1008.675, 32.50906
1009.157, 33.40391
1009.639, 33.87471
1010.121, 34.16340
1010.603, 34.35920
1011.085, 34.56420
1011.567, 34.92461
1012.049, 35.35928
1012.532, 35.65562
1013.014, 35.87595
1013.496, 36.34074
1013.978, 37.17647
1014.460, 38.08595
1014.942, 38.76602
1015.424, 39.31287
1015.906, 39.76566
1016.388, 40.25366
1016.871, 41.38335
1017.353, 43.05943
1017.835, 44.20118
1018.317, 44.27102
1018.799, 43.90031
1019.281, 43.79913
1019.763, 43.93093
1020.245, 44.12467
1020.728, 44.41865
1021.210, 45.21106
1021.692, 46.53518
1022.174, 47.60375
1022.656, 47.95983
1023.138, 48.01435
1023.620, 48.42960
1024.102, 49.09762
1024.584, 49.10630
1025.067, 48.43523
1025.549, 48.40722
1026.031, 49.32599
1026.513, 50.19788
1026.995, 50.41232
1027.477, 50.31889
1027.959, 50.51763
1028.441, 50.99409
1028.923, 51.30366
1029.406, 51.36868
1029.888, 51.81009
1030.370, 52.95516
1030.852, 53.67034
1031.334, 53.08474
1031.816, 51.97478
1032.298, 51.73307
1032.780, 52.38953
1033.263, 53.32281
1033.745, 54.85889
1034.227, 55.64362
1034.709, 55.11827
1035.191, 54.45389
1035.673, 54.29687
1036.155, 54.52399
1036.637, 54.97912
1037.120, 55.71642
1037.602, 56.06224
1038.084, 55.52158
1038.566, 55.61385
1039.048, 57.01908
1039.530, 58.47143
1040.012, 59.17531
1040.494, 59.46843
1040.976, 59.85002
1041.458, 60.25520
1041.941, 61.31332
1042.423, 64.01543
1042.905, 65.85681
1043.387, 65.73696
1043.869, 65.54205
1044.351, 66.21474
1044.833, 67.49891
1045.315, 69.06129
1045.798, 70.93085
1046.280, 72.67619
1046.762, 74.26662
1047.244, 75.75781
1047.726, 76.83633
1048.208, 78.16328
1048.690, 80.21510
1049.172, 82.69109
1049.655, 85.26279
1050.137, 87.90530
1050.619, 90.06322
1051.101, 91.27254
1051.583, 92.52639
1052.065, 93.42485
1052.547, 95.05486
1053.029, 98.73674
1053.511, 103.1875
1053.994, 106.3698
1054.476, 108.1863
1054.958, 110.4444
1055.440, 113.9859
1055.922, 117.3474
1056.404, 119.6810
1056.886, 122.2445
1057.368, 125.8174
1057.850, 130.1036
1058.333, 134.7973
1058.815, 139.7946
1059.297, 144.6562
1059.779, 148.7649
1060.261, 153.6132
1060.743, 159.6186
1061.225, 166.5345
1061.707, 174.4793
1062.190, 183.0681
1062.672, 191.9613
1063.154, 201.0333
1063.636, 210.1387
1064.118, 219.0835
1064.600, 228.2864
1065.082, 237.4841
1065.564, 247.4583
1066.047, 258.3664
1066.529, 270.5573
1067.011, 283.9911
1067.493, 299.0595
1067.975, 316.8745
1068.457, 336.9334
1068.939, 362.3399
1069.421, 393.7864
1069.903, 431.8788
1070.385, 476.8017
1070.868, 528.5441
1071.350, 587.8258
1071.832, 653.8236
1072.314, 725.0353
1072.796, 801.8922
1073.278, 878.1282
1073.760, 950.6674
1074.242, 1021.629
1074.725, 1090.894
1075.207, 1159.483
1075.689, 1225.529
1076.171, 1292.238
1076.653, 1365.217
1077.135, 1445.057
1077.617, 1540.258
1078.099, 1651.600
1078.582, 1782.864
1079.064, 1934.541
1079.546, 2109.294
1080.028, 2310.776
1080.510, 2538.121
1080.992, 2783.559
1081.474, 3045.672
1081.956, 3355.206
1082.438, 3742.111
1082.921, 4157.372
1083.403, 4596.037
1083.885, 5032.135
1084.367, 5478.662
1084.849, 5885.012
1085.331, 6195.500
1085.813, 6389.970
1086.295, 6413.595
1086.777, 6251.239
1087.260, 5900.715
1087.742, 5264.667
1088.224, 4537.003
1088.706, 3797.331
1089.188, 3105.625
1089.670, 2524.288
1090.152, 2062.611
1090.634, 1693.811
1091.116, 1429.483
1091.599, 1214.087
1092.081, 1035.782
1092.563, 885.3221
1093.045, 760.3223
1093.527, 655.5379
1094.009, 566.1127
1094.491, 490.5683
1094.973, 426.9450
1095.456, 375.2376
1095.938, 331.2484
1096.420, 295.2505
1096.902, 264.2863
1097.384, 237.4921
1097.866, 214.4484
1098.348, 195.9595
1098.830, 180.8712
1099.313, 166.4974
1099.795, 152.2928
1100.277, 139.6853
1100.759, 129.4787
1101.241, 120.5099
1101.723, 112.7804
1102.205, 105.7468
1102.687, 98.73730
1103.169, 92.24929
1103.651, 87.49558
1104.134, 84.60721
1104.616, 81.52049
1105.098, 77.84862
1105.580, 73.83353
1106.062, 68.79926
1106.544, 64.25459
1107.026, 61.20504
1107.508, 59.03780
1107.991, 56.97349
1108.473, 54.98884
1108.955, 53.38137
1109.437, 52.59980
1109.919, 51.43073
1110.401, 49.33975
1110.883, 47.31326
1111.365, 45.77263
1111.848, 44.43696
1112.330, 43.04779
1112.812, 41.62540
1113.294, 40.29973
1113.776, 39.14371
1114.258, 37.88921
1114.740, 35.89441
1115.222, 34.67490
1115.704, 35.43916
1116.187, 36.18658
1116.669, 35.36787
1117.151, 33.71595
1117.633, 32.72389
1118.115, 32.49641
1118.597, 31.98252
1119.079, 30.84127
1119.561, 30.08564
1120.043, 30.18794
1120.526, 30.13432
1121.008, 29.34729
1121.490, 28.22725
1121.972, 27.19314
1122.454, 26.28031
1122.936, 25.86014
1123.418, 26.25269
1123.900, 26.16843
1124.383, 25.25556
1124.865, 24.65176
1125.347, 24.93380
1125.829, 25.25312
1126.311, 24.76408
1126.793, 23.78918
1127.275, 23.35464
1127.757, 23.57832
1128.240, 23.39298
1128.722, 22.63955
1129.204, 22.31658
1129.686, 22.76841
1130.168, 23.14506
1130.650, 22.89372
1131.132, 22.27407
1131.614, 21.67046
1132.096, 21.10614
1132.578, 20.86523
1133.061, 20.95752
1133.543, 20.99715
1134.025, 20.93406
1134.507, 20.79898
1134.989, 20.58556
1135.471, 20.58435
1135.953, 21.20113
1136.435, 22.04695
1136.918, 21.91825
1137.400, 20.99248
1137.882, 20.42678
1138.364, 20.25655
1138.846, 20.26461
1139.328, 20.36328
1139.810, 20.19081
1140.292, 19.46290
1140.775, 18.65347
1141.257, 18.54292
1141.739, 18.86997
1142.221, 19.04212
1142.703, 19.05385
1143.185, 18.80986
1143.667, 18.39042
1144.149, 18.22980
1144.631, 18.49761
1145.114, 18.79450
1145.596, 18.74516
1146.078, 18.53185
1146.560, 18.35088
1147.042, 18.20242
1147.524, 18.11315
1148.006, 18.04889
1148.488, 17.86547
1148.970, 17.58531
1149.453, 17.54932
1149.935, 18.04971
1150.417, 18.44688
1150.899, 18.09975
1151.381, 17.55049
1151.863, 17.13124
1152.345, 16.94683
1152.827, 17.35936
1153.310, 18.07290
1153.792, 18.11924
1154.274, 17.17775
1154.756, 16.49685
1155.238, 16.86813
1155.720, 17.35210
1156.202, 17.50143
1156.684, 17.58235
1157.167, 17.89866
1157.649, 18.24474
1158.131, 18.20782
1158.613, 17.80435
1159.095, 17.59167
1159.577, 17.84831
1160.059, 17.97253
1160.541, 17.80581
1161.023, 17.56842
1161.505, 17.21191
1161.988, 16.93788
1162.470, 17.02985
1162.952, 17.32446
1163.434, 17.32103
1163.916, 16.89255
1164.398, 16.85946
1164.880, 17.54788
1165.362, 17.95285
1165.844, 17.86598
1166.327, 17.56569
1166.809, 17.00236
1167.291, 16.63079
1167.773, 17.19377
1168.255, 18.42964
1168.737, 18.61126
1169.219, 17.46726
1169.701, 17.15107
1170.184, 17.90095
1170.666, 18.43235
1171.148, 18.36190
1171.630, 18.05117
1172.112, 17.74733
1172.594, 17.45993
1173.076, 17.21878
1173.558, 17.01096
1174.041, 16.71628
1174.523, 16.37137
1175.005, 16.27928
1175.487, 16.44907
1175.969, 16.57618
1176.451, 16.54317
1176.933, 16.58469
1177.415, 16.95806
1177.897, 17.40951
1178.380, 17.53360
1178.862, 17.45191
1179.344, 17.33724
1179.826, 17.24151
1180.308, 17.25018
1180.790, 17.37055
1181.272, 17.57912
1181.754, 17.87367
1182.236, 18.10101
1182.719, 18.15086
1183.201, 18.07806
1183.683, 17.81003
1184.165, 17.54489
1184.647, 17.52668
1185.129, 17.67257
1185.611, 17.82653
1186.093, 17.94412
1186.576, 17.95645
1187.058, 17.75654
1187.540, 17.62695
1188.022, 17.76250
1188.504, 17.86282
1188.986, 17.78028
1189.468, 17.59619
1189.950, 17.27880
1190.432, 16.94764
1190.915, 16.90486
1191.397, 17.19915
1191.879, 17.59029
1192.361, 18.33015
1192.843, 18.67897
1193.325, 18.34181
1193.807, 18.02479
1194.289, 18.11772
1194.771, 18.20727
1195.254, 17.74686
1195.736, 16.99957
1196.218, 17.06506
1196.700, 18.09176
1197.182, 18.35617
1197.664, 17.77780
1198.146, 17.28820
1198.628, 17.08016
1199.111, 17.00943
1199.593, 17.00779
1200.075, 16.95674
1200.557, 16.66090
1201.039, 16.27241
1201.521, 16.23219
1202.003, 16.42613
1202.485, 16.50977
1202.968, 16.46228
1203.450, 16.22475
1203.932, 15.86296
1204.414, 15.85322
1204.896, 16.51307
1205.378, 17.17714
1205.860, 17.16287
1206.342, 16.88668
1206.824, 16.65242
1207.307, 16.53213
1207.789, 16.66409
1208.271, 16.95624
1208.753, 17.27096
1209.235, 17.54581
1209.717, 17.55516
1210.199, 16.94015
1210.681, 16.62056
1211.163, 17.36121
1211.646, 17.92373
1212.128, 17.51268
1212.610, 16.80436
1213.092, 16.28819
1213.574, 16.00581
1214.056, 16.04076
1214.538, 16.43066
1215.020, 16.69208
1215.503, 16.86759
1215.985, 16.79124
1216.467, 16.30549
1216.949, 15.91594
1217.431, 15.81642
1217.913, 15.90787
1218.395, 16.14950
1218.877, 16.41464
1219.359, 16.28746
1219.842, 15.81245
1220.324, 15.97770
1220.806, 16.72512
1221.288, 17.11296
1221.770, 17.01274
1222.252, 16.69466
1222.734, 16.28268
1223.216, 15.95083
1223.698, 15.88121
1224.181, 15.90351
1224.663, 15.76015
1225.145, 15.54631
1225.627, 15.38663
1226.109, 15.29561
1226.591, 15.27531
1227.073, 15.33312
1227.555, 15.52431
1228.038, 15.86678
1228.520, 16.12913
1229.002, 16.26511
1229.484, 16.17832
1229.966, 15.46263
1230.448, 14.89919
1230.930, 15.12033
1231.412, 15.74290
1231.895, 16.50196
1232.377, 17.22261
1232.859, 17.32347
1233.341, 16.55078
1233.823, 15.97967
1234.305, 15.61852
1234.787, 15.45113
1235.269, 15.54888
1235.751, 15.67793
1236.234, 15.73924
1236.716, 15.74990
1237.198, 15.69504
1237.680, 15.65755
1238.162, 16.00854
1238.644, 16.70325
1239.126, 16.72422
1239.608, 16.14715
1240.090, 16.03114
1240.573, 16.49977
1241.055, 16.80905
1241.537, 16.62639
1242.019, 16.38692
1242.501, 16.54302
1242.983, 16.72360
1243.465, 16.40339
1243.947, 15.84097
1244.430, 15.20065
1244.912, 14.69493
1245.394, 14.70242
1245.876, 15.13531
1246.358, 15.60571
1246.840, 16.00821
1247.322, 16.29747
1247.804, 16.50886
1248.286, 16.53187
1248.769, 16.07037
1249.251, 15.71839
1249.733, 15.96793
1250.215, 16.34511
1250.697, 16.25724
1251.179, 15.92108
1251.661, 16.01166
1252.143, 16.61726
1252.625, 16.78644
1253.108, 16.38593
1253.590, 16.18560
1254.072, 16.34105
1254.554, 16.24385
1255.036, 15.61325
1255.518, 15.04882
1256.000, 15.10089
1256.482, 15.46844
1256.964, 15.60913
1257.447, 15.60382
1257.929, 15.68373
1258.411, 15.80979
1258.893, 15.88241
1259.375, 15.88745
1259.857, 15.76108
1260.339, 15.53240
1260.821, 15.55121
1261.304, 16.12161
1261.786, 16.66790
1262.268, 16.94678
1262.750, 16.92597
1263.232, 16.40119
1263.714, 15.73434
1264.196, 15.03221
1264.678, 14.54123
1265.161, 14.89025
1265.643, 16.09920
1266.125, 16.56521
1266.607, 15.93264
1267.089, 15.27079
1267.571, 14.36622
1268.053, 14.10730
1268.535, 14.89972
1269.017, 15.78011
1269.500, 16.16976
1269.982, 16.20203
1270.464, 15.99019
1270.946, 15.68255
1271.428, 15.90417
1271.910, 16.43566
1272.392, 16.20365
1272.874, 15.42898
1273.356, 15.23663
1273.839, 15.71303
1274.321, 16.02072
1274.803, 15.79267
1275.285, 15.41833
1275.767, 14.94698
1276.249, 14.76117
1276.731, 15.43003
1277.213, 16.17042
1277.696, 16.32306
1278.178, 16.19638
1278.660, 16.25771
1279.142, 16.42132
1279.624, 16.23630
1280.106, 15.55644
1280.588, 15.21924
1281.070, 15.37630
1281.552, 15.53647
1282.035, 15.68239
1282.517, 15.74438
1282.999, 15.68433
1283.481, 15.59708
1283.963, 15.55879
1284.445, 15.53968
1284.927, 15.52431
1285.409, 15.46221
1285.891, 14.96712
1286.374, 14.31696
1286.856, 14.27658
1287.338, 14.94860
1287.820, 0.0000000E+00
1288.302, 0.0000000E+00
1288.784, 0.0000000E+00
1289.266, 0.0000000E+00
1289.748, 0.0000000E+00
1290.231, 0.0000000E+00
1290.713, 0.0000000E+00
1291.195, 0.0000000E+00
1291.677, 0.0000000E+00
1292.159, 0.0000000E+00
##END=



