##NAMES=Rhodizite
##RRUFFID=R110072
##IDEAL CHEMISTRY=KAl_4_Be_5_B_11_O_28_
##LOCALITY=Sahanivotry, Sud Antzirabe, Madagascar
##OWNER=RRUFF
##SOURCE=Renato & Adriana Pagano
##DESCRIPTION=Pale yellow dodecahedra
##STATUS=The identification of this mineral has been confirmed by single-crystal X-ray diffraction.
##URL=rruff.info/R110072
186.9155, 1292.131
187.3976, 1280.171
187.8798, 1273.021
188.3619, 1272.132
188.8440, 1273.129
189.3261, 1270.139
189.8082, 1263.354
190.2903, 1255.500
190.7725, 1248.843
191.2546, 1242.608
191.7367, 1230.458
192.2188, 1209.220
192.7009, 1189.178
193.1830, 1191.670
193.6652, 1216.717
194.1473, 1241.086
194.6294, 1249.812
195.1115, 1244.391
195.5936, 1244.388
196.0757, 1252.196
196.5579, 1263.576
197.0400, 1269.430
197.5221, 1269.088
198.0042, 1270.341
198.4863, 1280.649
198.9684, 1300.184
199.4506, 1309.663
199.9327, 1305.431
200.4148, 1293.535
200.8969, 1286.361
201.3790, 1284.080
201.8611, 1285.100
202.3433, 1288.633
202.8254, 1294.678
203.3075, 1304.211
203.7896, 1319.790
204.2717, 1336.656
204.7538, 1341.410
205.2360, 1331.925
205.7181, 1318.286
206.2002, 1304.845
206.6823, 1290.802
207.1644, 1282.181
207.6465, 1280.431
208.1287, 1283.811
208.6108, 1287.615
209.0929, 1292.227
209.5750, 1296.196
210.0571, 1298.889
210.5392, 1300.588
211.0214, 1299.353
211.5035, 1293.139
211.9856, 1284.511
212.4677, 1283.442
212.9498, 1293.469
213.4319, 1303.217
213.9140, 1304.194
214.3962, 1292.063
214.8783, 1287.341
215.3604, 1294.385
215.8425, 1309.772
216.3246, 1319.486
216.8067, 1322.368
217.2889, 1322.025
217.7710, 1319.646
218.2531, 1313.037
218.7352, 1311.298
219.2173, 1317.547
219.6994, 1329.275
220.1816, 1332.989
220.6637, 1322.626
221.1458, 1314.717
221.6279, 1322.572
222.1100, 1357.813
222.5921, 1377.465
223.0743, 1373.206
223.5564, 1350.600
224.0385, 1335.249
224.5206, 1329.456
225.0027, 1327.747
225.4848, 1326.972
225.9670, 1326.731
226.4491, 1328.625
226.9312, 1333.774
227.4133, 1341.260
227.8954, 1347.005
228.3775, 1351.041
228.8597, 1353.173
229.3418, 1352.743
229.8239, 1347.757
230.3060, 1344.770
230.7881, 1344.217
231.2702, 1345.999
231.7524, 1350.648
232.2345, 1362.293
232.7166, 1370.850
233.1987, 1368.768
233.6808, 1347.339
234.1629, 1334.800
234.6451, 1335.817
235.1272, 1347.203
235.6093, 1354.890
236.0914, 1356.792
236.5735, 1357.866
237.0556, 1361.618
237.5378, 1372.416
238.0199, 1375.782
238.5020, 1366.236
238.9841, 1348.578
239.4662, 1343.981
239.9483, 1363.126
240.4305, 1380.815
240.9126, 1382.023
241.3947, 1354.020
241.8768, 1338.077
242.3589, 1340.310
242.8410, 1355.558
243.3232, 1365.784
243.8053, 1369.131
244.2874, 1369.891
244.7695, 1369.787
245.2516, 1367.497
245.7337, 1367.272
246.2159, 1369.871
246.6980, 1374.504
247.1801, 1378.901
247.6622, 1384.112
248.1443, 1387.522
248.6264, 1387.725
249.1086, 1383.734
249.5907, 1378.438
250.0728, 1369.208
250.5549, 1359.453
251.0370, 1359.140
251.5191, 1373.659
252.0013, 1389.137
252.4834, 1399.869
252.9655, 1404.980
253.4476, 1407.016
253.9297, 1403.584
254.4118, 1398.169
254.8940, 1399.468
255.3761, 1412.391
255.8582, 1423.318
256.3403, 1424.773
256.8224, 1410.912
257.3046, 1407.632
257.7867, 1419.666
258.2688, 1439.219
258.7509, 1451.578
259.2330, 1455.889
259.7151, 1454.395
260.1973, 1445.510
260.6794, 1425.637
261.1615, 1416.128
261.6436, 1421.775
262.1257, 1433.732
262.6078, 1436.299
263.0900, 1425.328
263.5721, 1414.921
264.0542, 1410.247
264.5363, 1412.192
265.0184, 1413.572
265.5005, 1413.346
265.9827, 1413.829
266.4648, 1419.645
266.9469, 1433.790
267.4290, 1444.281
267.9111, 1445.572
268.3932, 1436.672
268.8754, 1436.127
269.3575, 1448.053
269.8396, 1461.934
270.3217, 1462.408
270.8038, 1445.188
271.2859, 1431.146
271.7681, 1426.708
272.2502, 1431.526
272.7323, 1436.376
273.2144, 1441.727
273.6965, 1445.962
274.1786, 1444.942
274.6608, 1436.181
275.1429, 1436.349
275.6250, 1453.111
276.1071, 1483.237
276.5892, 1502.679
277.0714, 1509.819
277.5535, 1509.999
278.0356, 1505.566
278.5177, 1495.583
278.9998, 1490.868
279.4819, 1494.751
279.9641, 1505.334
280.4462, 1514.056
280.9283, 1520.380
281.4104, 1527.239
281.8925, 1538.953
282.3746, 1555.673
282.8568, 1565.843
283.3389, 1564.032
283.8210, 1557.321
284.3031, 1568.675
284.7852, 1600.335
285.2673, 1631.787
285.7495, 1645.726
286.2316, 1643.882
286.7137, 1649.234
287.1958, 1666.280
287.6779, 1689.565
288.1600, 1705.069
288.6422, 1712.543
289.1243, 1727.311
289.6064, 1764.152
290.0885, 1818.373
290.5706, 1863.345
291.0527, 1894.941
291.5349, 1920.705
292.0170, 1951.667
292.4991, 1987.335
292.9812, 2025.781
293.4633, 2068.236
293.9454, 2112.597
294.4276, 2153.555
294.9097, 2191.613
295.3918, 2221.051
295.8739, 2231.592
296.3560, 2225.683
296.8381, 2215.293
297.3203, 2208.003
297.8024, 2199.877
298.2845, 2182.677
298.7666, 2155.979
299.2487, 2121.969
299.7308, 2079.967
300.2130, 2031.562
300.6951, 1981.835
301.1772, 1925.770
301.6593, 1873.084
302.1414, 1839.846
302.6235, 1826.003
303.1057, 1817.486
303.5878, 1804.035
304.0699, 1787.669
304.5520, 1772.465
305.0341, 1760.897
305.5162, 1750.046
305.9984, 1734.234
306.4805, 1714.834
306.9626, 1700.222
307.4447, 1701.198
307.9268, 1708.943
308.4089, 1712.031
308.8911, 1706.462
309.3732, 1697.127
309.8553, 1685.799
310.3374, 1673.451
310.8195, 1663.156
311.3016, 1662.020
311.7838, 1661.095
312.2659, 1650.676
312.7480, 1624.161
313.2301, 1599.477
313.7122, 1586.769
314.1943, 1583.398
314.6765, 1584.146
315.1586, 1593.817
315.6407, 1601.840
316.1228, 1600.009
316.6049, 1584.766
317.0870, 1570.557
317.5692, 1566.488
318.0513, 1566.812
318.5334, 1563.513
319.0155, 1541.194
319.4976, 1525.682
319.9797, 1535.246
320.4619, 1574.038
320.9440, 1599.257
321.4261, 1581.853
321.9082, 1551.814
322.3903, 1537.579
322.8724, 1568.420
323.3546, 1592.221
323.8367, 1590.879
324.3188, 1565.201
324.8009, 1545.524
325.2830, 1538.175
325.7651, 1537.585
326.2473, 1540.208
326.7294, 1554.020
327.2115, 1561.522
327.6936, 1557.414
328.1757, 1544.400
328.6578, 1535.705
329.1400, 1531.866
329.6221, 1532.096
330.1042, 1536.607
330.5863, 1552.091
331.0684, 1560.526
331.5505, 1555.837
332.0327, 1545.153
332.5148, 1545.217
332.9969, 1567.282
333.4790, 1584.827
333.9611, 1587.134
334.4432, 1568.321
334.9254, 1557.695
335.4075, 1557.585
335.8896, 1563.715
336.3717, 1571.306
336.8538, 1582.402
337.3359, 1589.611
337.8180, 1589.530
338.3001, 1582.338
338.7823, 1577.753
339.2644, 1574.399
339.7465, 1576.459
340.2286, 1591.860
340.7107, 1624.317
341.1928, 1646.681
341.6750, 1650.291
342.1571, 1640.886
342.6392, 1640.581
343.1213, 1650.426
343.6034, 1663.794
344.0855, 1678.656
344.5677, 1694.590
345.0498, 1702.849
345.5319, 1700.738
346.0140, 1693.102
346.4961, 1688.240
346.9782, 1686.125
347.4604, 1686.006
347.9425, 1687.967
348.4246, 1691.678
348.9067, 1697.224
349.3888, 1705.515
349.8709, 1711.160
350.3531, 1704.395
350.8352, 1688.474
351.3173, 1675.528
351.7994, 1670.695
352.2815, 1672.022
352.7636, 1678.209
353.2458, 1689.217
353.7279, 1699.072
354.2100, 1700.988
354.6921, 1698.531
355.1742, 1698.041
355.6563, 1703.280
356.1385, 1709.324
356.6206, 1712.220
357.1027, 1712.050
357.5848, 1709.262
358.0669, 1702.363
358.5490, 1693.865
359.0312, 1685.491
359.5133, 1675.848
359.9954, 1670.223
360.4775, 1676.693
360.9596, 1689.427
361.4417, 1695.957
361.9239, 1686.861
362.4060, 1673.690
362.8881, 1660.874
363.3702, 1647.678
363.8523, 1641.532
364.3344, 1649.786
364.8166, 1664.638
365.2987, 1677.298
365.7808, 1685.385
366.2629, 1691.078
366.7450, 1694.377
367.2271, 1695.313
367.7093, 1695.743
368.1914, 1697.675
368.6735, 1698.015
369.1556, 1694.625
369.6377, 1677.662
370.1198, 1669.411
370.6020, 1675.052
371.0841, 1690.597
371.5662, 1701.901
372.0483, 1708.880
372.5304, 1711.507
373.0125, 1708.181
373.4947, 1693.704
373.9768, 1689.063
374.4589, 1699.122
374.9410, 1715.064
375.4231, 1722.344
375.9052, 1718.443
376.3874, 1713.173
376.8695, 1709.377
377.3516, 1706.990
377.8337, 1703.411
378.3158, 1697.737
378.7979, 1693.322
379.2801, 1694.458
379.7622, 1701.470
380.2443, 1707.405
380.7264, 1710.766
381.2085, 1712.396
381.6906, 1713.198
382.1728, 1713.049
382.6549, 1716.381
383.1370, 1731.669
383.6191, 1754.095
384.1012, 1761.229
384.5833, 1747.346
385.0655, 1729.827
385.5476, 1735.106
386.0297, 1757.489
386.5118, 1776.086
386.9939, 1778.468
387.4760, 1772.176
387.9582, 1766.698
388.4403, 1762.217
388.9224, 1760.520
389.4045, 1765.286
389.8866, 1773.185
390.3687, 1779.667
390.8509, 1784.207
391.3330, 1785.779
391.8151, 1779.681
392.2972, 1768.700
392.7793, 1763.967
393.2614, 1778.087
393.7436, 1795.995
394.2257, 1806.464
394.7078, 1803.941
395.1899, 1802.515
395.6720, 1806.593
396.1541, 1814.989
396.6363, 1825.809
397.1184, 1847.406
397.6005, 1863.130
398.0826, 1864.063
398.5647, 1847.368
399.0468, 1837.175
399.5290, 1839.345
400.0111, 1846.936
400.4932, 1854.485
400.9753, 1864.749
401.4574, 1870.972
401.9395, 1868.395
402.4217, 1860.422
402.9038, 1864.350
403.3859, 1888.781
403.8680, 1912.518
404.3501, 1924.215
404.8322, 1918.832
405.3144, 1918.747
405.7965, 1924.794
406.2786, 1935.120
406.7607, 1947.322
407.2428, 1961.700
407.7249, 1976.473
408.2071, 1991.652
408.6892, 2006.805
409.1713, 2016.691
409.6534, 2019.954
410.1355, 2026.140
410.6176, 2047.177
411.0998, 2080.304
411.5819, 2107.912
412.0640, 2124.000
412.5461, 2137.501
413.0282, 2166.137
413.5103, 2207.280
413.9925, 2246.003
414.4746, 2269.373
414.9567, 2286.558
415.4388, 2311.161
415.9209, 2344.694
416.4030, 2383.463
416.8852, 2426.120
417.3673, 2472.044
417.8494, 2520.278
418.3315, 2566.029
418.8136, 2618.031
419.2957, 2686.278
419.7779, 2767.984
420.2600, 2848.957
420.7421, 2917.930
421.2242, 2986.382
421.7063, 3060.862
422.1884, 3145.487
422.6706, 3233.093
423.1527, 3321.206
423.6348, 3411.826
424.1169, 3508.905
424.5990, 3620.806
425.0811, 3733.023
425.5633, 3841.755
426.0454, 3946.913
426.5275, 4048.984
427.0096, 4148.087
427.4917, 4244.961
427.9738, 4341.301
428.4560, 4440.886
428.9381, 4531.705
429.4202, 4613.333
429.9023, 4683.919
430.3844, 4743.528
430.8665, 4796.021
431.3487, 4825.198
431.8308, 4822.458
432.3129, 4787.606
432.7950, 4730.616
433.2771, 4652.451
433.7592, 4549.695
434.2414, 4410.176
434.7235, 4236.204
435.2056, 4054.404
435.6877, 3870.159
436.1698, 3686.279
436.6519, 3498.613
437.1341, 3308.531
437.6162, 3138.882
438.0983, 3012.198
438.5804, 2914.014
439.0625, 2818.876
439.5446, 2720.982
440.0268, 2631.129
440.5089, 2556.393
440.9910, 2496.616
441.4731, 2452.486
441.9552, 2435.409
442.4373, 2424.627
442.9195, 2406.753
443.4016, 2381.432
443.8837, 2356.324
444.3658, 2333.590
444.8479, 2312.754
445.3300, 2293.508
445.8122, 2270.502
446.2943, 2255.665
446.7764, 2255.259
447.2585, 2264.496
447.7406, 2271.153
448.2227, 2276.818
448.7049, 2277.285
449.1870, 2268.970
449.6691, 2249.099
450.1512, 2237.741
450.6333, 2237.034
451.1154, 2242.662
451.5976, 2249.494
452.0797, 2254.423
452.5618, 2271.624
453.0439, 2307.007
453.5260, 2354.074
454.0081, 2393.831
454.4903, 2425.039
454.9724, 2458.081
455.4545, 2498.036
455.9366, 2544.586
456.4187, 2600.307
456.9008, 2666.062
457.3830, 2734.211
457.8651, 2789.971
458.3472, 2838.967
458.8293, 2896.644
459.3114, 2968.902
459.7935, 3051.978
460.2757, 3144.444
460.7578, 3245.219
461.2399, 3350.774
461.7220, 3458.306
462.2041, 3570.057
462.6862, 3685.751
463.1684, 3803.707
463.6505, 3931.505
464.1326, 4070.165
464.6147, 4220.132
465.0968, 4384.717
465.5789, 4566.389
466.0611, 4756.740
466.5432, 4957.451
467.0253, 5167.030
467.5074, 5378.120
467.9895, 5595.004
468.4716, 5809.447
468.9538, 6017.832
469.4359, 6224.685
469.9180, 6411.976
470.4001, 6590.606
470.8822, 6743.815
471.3643, 6852.627
471.8465, 6925.670
472.3286, 6927.474
472.8107, 6839.819
473.2928, 6673.535
473.7749, 6477.978
474.2570, 6252.935
474.7392, 6003.896
475.2213, 5719.688
475.7034, 5408.298
476.1855, 5124.069
476.6676, 4873.371
477.1497, 4647.444
477.6319, 4441.977
478.1140, 4254.280
478.5961, 4078.662
479.0782, 3918.168
479.5603, 3765.065
480.0424, 3605.784
480.5246, 3441.977
481.0067, 3292.777
481.4888, 3175.950
481.9709, 3075.594
482.4530, 2977.478
482.9352, 2875.439
483.4173, 2784.033
483.8994, 2714.339
484.3815, 2657.416
484.8636, 2600.362
485.3457, 2540.057
485.8279, 2479.686
486.3100, 2416.941
486.7921, 2351.874
487.2742, 2299.326
487.7563, 2267.974
488.2384, 2239.824
488.7206, 2204.075
489.2027, 2154.290
489.6848, 2115.110
490.1669, 2089.014
490.6490, 2071.276
491.1311, 2054.757
491.6133, 2039.780
492.0954, 2024.676
492.5775, 2008.279
493.0596, 1991.523
493.5417, 1977.418
494.0238, 1965.981
494.5060, 1957.117
494.9881, 1952.885
495.4702, 1951.079
495.9523, 1944.832
496.4344, 1932.019
496.9165, 1920.539
497.3987, 1923.590
497.8808, 1933.132
498.3629, 1933.944
498.8450, 1907.097
499.3271, 1880.137
499.8092, 1871.927
500.2914, 1880.089
500.7735, 1891.444
501.2556, 1910.549
501.7377, 1924.298
502.2198, 1923.060
502.7019, 1897.873
503.1841, 1878.514
503.6662, 1872.053
504.1483, 1871.935
504.6304, 1870.656
505.1125, 1866.819
505.5946, 1864.092
506.0768, 1862.901
506.5589, 1863.225
507.0410, 1865.226
507.5231, 1869.423
508.0052, 1873.755
508.4873, 1877.112
508.9695, 1879.427
509.4516, 1882.315
509.9337, 1886.092
510.4158, 1889.072
510.8979, 1887.392
511.3800, 1882.613
511.8622, 1882.488
512.3443, 1891.540
512.8264, 1902.542
513.3085, 1904.813
513.7906, 1900.487
514.2728, 1897.212
514.7549, 1901.554
515.2370, 1907.362
515.7191, 1911.019
516.2012, 1912.443
516.6833, 1906.944
517.1655, 1882.005
517.6476, 1854.724
518.1297, 1839.794
518.6118, 1849.801
519.0939, 1860.438
519.5760, 1868.942
520.0582, 1875.511
520.5403, 1881.014
521.0224, 1885.654
521.5045, 1888.735
521.9866, 1889.011
522.4688, 1886.490
522.9509, 1888.520
523.4330, 1896.821
523.9151, 1905.631
524.3972, 1909.907
524.8793, 1909.489
525.3615, 1911.455
525.8436, 1917.438
526.3257, 1923.181
526.8078, 1921.892
527.2899, 1914.541
527.7720, 1905.262
528.2542, 1890.807
528.7363, 1879.220
529.2184, 1885.782
529.7005, 1907.123
530.1826, 1925.214
530.6647, 1928.982
531.1469, 1924.660
531.6290, 1914.664
532.1111, 1896.579
532.5932, 1887.068
533.0753, 1902.182
533.5574, 1925.091
534.0396, 1938.087
534.5217, 1924.850
535.0038, 1917.295
535.4859, 1921.932
535.9680, 1935.559
536.4501, 1948.792
536.9323, 1963.918
537.4144, 1974.680
537.8965, 1977.412
538.3786, 1971.862
538.8607, 1969.093
539.3428, 1969.456
539.8250, 1971.509
540.3071, 1972.302
540.7892, 1972.543
541.2713, 1981.170
541.7534, 2001.795
542.2355, 2024.747
542.7177, 2037.395
543.1998, 2041.284
543.6819, 2040.938
544.1640, 2034.042
544.6461, 2026.986
545.1282, 2026.350
545.6104, 2031.377
546.0925, 2037.145
546.5746, 2045.896
547.0567, 2051.161
547.5388, 2047.855
548.0209, 2033.102
548.5031, 2017.054
548.9852, 1996.955
549.4673, 1978.780
549.9494, 1969.048
550.4315, 1974.455
550.9136, 1977.923
551.3958, 1977.596
551.8779, 1974.201
552.3600, 1970.486
552.8421, 1967.427
553.3242, 1960.353
553.8063, 1944.287
554.2885, 1921.363
554.7706, 1910.409
555.2527, 1912.378
555.7348, 1916.279
556.2169, 1910.370
556.6990, 1899.064
557.1812, 1894.822
557.6633, 1901.277
558.1454, 1908.550
558.6275, 1904.685
559.1096, 1895.340
559.5917, 1890.405
560.0739, 1898.833
560.5560, 1908.000
561.0381, 1914.679
561.5202, 1917.633
562.0023, 1912.130
562.4844, 1882.937
562.9666, 1857.006
563.4487, 1847.965
563.9308, 1859.424
564.4129, 1869.770
564.8950, 1879.009
565.3771, 1887.091
565.8593, 1893.886
566.3414, 1899.097
566.8235, 1904.900
567.3056, 1912.911
567.7877, 1919.536
568.2698, 1916.386
568.7520, 1904.073
569.2341, 1893.351
569.7162, 1889.676
570.1983, 1889.170
570.6804, 1882.622
571.1625, 1871.381
571.6447, 1864.430
572.1268, 1871.536
572.6089, 1883.539
573.0910, 1891.694
573.5731, 1894.829
574.0552, 1896.216
574.5374, 1896.922
575.0195, 1896.826
575.5016, 1895.813
575.9837, 1893.084
576.4658, 1890.320
576.9479, 1886.794
577.4301, 1883.436
577.9122, 1882.171
578.3943, 1883.610
578.8764, 1885.746
579.3585, 1887.860
579.8406, 1890.127
580.3228, 1895.236
580.8049, 1904.104
581.2870, 1909.846
581.7691, 1906.832
582.2512, 1896.706
582.7333, 1884.371
583.2155, 1869.512
583.6975, 1858.425
584.1796, 1861.258
584.6617, 1870.721
585.1439, 1873.902
585.6260, 1862.706
586.1081, 1852.838
586.5902, 1855.729
587.0723, 1866.578
587.5544, 1876.012
588.0366, 1883.240
588.5187, 1886.860
589.0008, 1883.918
589.4829, 1874.990
589.9650, 1871.422
590.4471, 1876.351
590.9293, 1882.477
591.4114, 1886.029
591.8935, 1886.328
592.3756, 1889.392
592.8577, 1896.246
593.3398, 1903.081
593.8220, 1906.224
594.3041, 1905.876
594.7862, 1902.826
595.2683, 1896.134
595.7504, 1889.741
596.2325, 1890.767
596.7147, 1896.305
597.1968, 1898.751
597.6789, 1889.112
598.1610, 1879.943
598.6431, 1883.187
599.1252, 1895.875
599.6074, 1904.030
600.0895, 1897.116
600.5716, 1889.271
601.0537, 1888.892
601.5358, 1899.686
602.0179, 1901.993
602.5001, 1887.534
602.9822, 1872.560
603.4643, 1870.270
603.9464, 1885.044
604.4285, 1895.116
604.9106, 1898.658
605.3928, 1898.276
605.8749, 1897.426
606.3570, 1896.123
606.8391, 1894.719
607.3212, 1893.594
607.8033, 1892.069
608.2855, 1888.934
608.7676, 1884.439
609.2497, 1879.415
609.7318, 1868.305
610.2139, 1861.288
610.6960, 1870.897
611.1782, 1896.803
611.6603, 1915.943
612.1424, 1914.092
612.6245, 1907.582
613.1066, 1906.634
613.5887, 1915.118
614.0709, 1922.160
614.5530, 1927.918
615.0351, 1932.213
615.5172, 1935.263
615.9993, 1937.573
616.4814, 1935.857
616.9636, 1928.065
617.4457, 1918.440
617.9278, 1916.691
618.4099, 1921.879
618.8920, 1924.151
619.3741, 1915.061
619.8563, 1903.842
620.3384, 1907.319
620.8205, 1922.438
621.3026, 1933.987
621.7847, 1930.325
622.2668, 1921.792
622.7490, 1915.460
623.2311, 1912.059
623.7132, 1909.970
624.1953, 1912.384
624.6774, 1913.531
625.1595, 1908.804
625.6417, 1890.698
626.1238, 1881.552
626.6059, 1883.092
627.0880, 1891.824
627.5701, 1906.105
628.0522, 1927.398
628.5344, 1939.620
629.0165, 1937.564
629.4986, 1927.399
629.9807, 1918.768
630.4628, 1911.969
630.9449, 1908.810
631.4271, 1910.858
631.9092, 1916.442
632.3913, 1925.306
632.8734, 1936.781
633.3555, 1946.687
633.8376, 1950.574
634.3198, 1954.154
634.8019, 1962.302
635.2840, 1977.485
635.7661, 1986.474
636.2482, 1984.326
636.7303, 1978.730
637.2125, 1973.851
637.6946, 1967.283
638.1767, 1969.405
638.6588, 1982.804
639.1409, 2001.145
639.6230, 2014.068
640.1052, 2022.254
640.5873, 2036.770
641.0694, 2064.474
641.5515, 2092.571
642.0336, 2095.705
642.5157, 2082.084
642.9979, 2075.775
643.4800, 2098.047
643.9621, 2124.035
644.4442, 2134.520
644.9263, 2132.037
645.4084, 2132.920
645.8906, 2141.678
646.3727, 2155.583
646.8548, 2176.746
647.3369, 2207.605
647.8190, 2224.546
648.3011, 2219.475
648.7833, 2212.418
649.2654, 2220.153
649.7475, 2244.545
650.2296, 2261.901
650.7117, 2270.770
651.1938, 2273.383
651.6760, 2269.306
652.1581, 2260.818
652.6402, 2255.675
653.1223, 2257.841
653.6044, 2259.792
654.0865, 2257.302
654.5687, 2249.378
655.0508, 2234.243
655.5329, 2199.196
656.0150, 2168.988
656.4971, 2158.772
656.9792, 2163.330
657.4614, 2154.354
657.9435, 2120.054
658.4256, 2087.178
658.9077, 2064.106
659.3898, 2050.562
659.8719, 2040.369
660.3541, 2033.908
660.8362, 2029.029
661.3183, 2025.418
661.8004, 2022.282
662.2825, 2015.019
662.7646, 2003.072
663.2468, 1992.571
663.7289, 1991.094
664.2110, 1993.485
664.6931, 1992.042
665.1752, 1981.903
665.6573, 1976.386
666.1395, 1984.864
666.6216, 1999.832
667.1037, 2012.052
667.5858, 2020.280
668.0679, 2025.374
668.5500, 2026.131
669.0322, 2024.306
669.5143, 2024.116
669.9964, 2026.317
670.4785, 2026.128
670.9606, 2020.772
671.4427, 2012.926
671.9249, 2011.184
672.4070, 2014.732
672.8891, 2017.153
673.3712, 2012.485
673.8533, 2005.917
674.3354, 2004.671
674.8176, 2008.242
675.2997, 2009.673
675.7818, 2003.553
676.2639, 1995.669
676.7460, 1988.799
677.2281, 1982.587
677.7103, 1981.131
678.1924, 1988.429
678.6745, 1996.481
679.1566, 1998.821
679.6387, 1993.644
680.1208, 1991.886
680.6030, 1995.039
681.0851, 1999.125
681.5672, 1999.041
682.0493, 1995.505
682.5314, 1991.639
683.0135, 1988.362
683.4957, 1984.631
683.9778, 1976.986
684.4599, 1968.394
684.9420, 1964.685
685.4241, 1975.223
685.9063, 1983.300
686.3884, 1979.795
686.8705, 1968.461
687.3526, 1962.514
687.8347, 1964.340
688.3168, 1969.203
688.7990, 1977.217
689.2811, 1987.523
689.7632, 1992.241
690.2453, 1990.217
690.7274, 1990.518
691.2095, 2003.496
691.6917, 2022.459
692.1738, 2025.716
692.6559, 2013.497
693.1380, 1998.172
693.6201, 1984.452
694.1022, 1974.593
694.5844, 1970.836
695.0665, 1973.754
695.5486, 1981.079
696.0307, 1998.039
696.5128, 2015.174
696.9949, 2024.994
697.4771, 2024.111
697.9592, 2022.683
698.4413, 2020.078
698.9234, 2017.811
699.4055, 2016.682
699.8876, 2016.636
700.3698, 2024.040
700.8519, 2042.893
701.3340, 2061.615
701.8161, 2059.175
702.2982, 2043.589
702.7803, 2035.151
703.2625, 2046.635
703.7446, 2061.354
704.2267, 2069.149
704.7088, 2071.867
705.1909, 2073.457
705.6730, 2074.308
706.1552, 2074.748
706.6373, 2075.150
707.1194, 2075.222
707.6015, 2073.036
708.0836, 2067.067
708.5657, 2063.443
709.0479, 2065.177
709.5300, 2071.156
710.0121, 2077.335
710.4942, 2083.671
710.9763, 2088.996
711.4584, 2090.965
711.9406, 2092.381
712.4227, 2099.249
712.9048, 2111.499
713.3869, 2117.353
713.8690, 2103.774
714.3511, 2087.285
714.8333, 2079.144
715.3154, 2083.993
715.7975, 2086.653
716.2796, 2087.508
716.7617, 2085.734
717.2438, 2079.797
717.7260, 2069.228
718.2081, 2060.427
718.6902, 2053.951
719.1723, 2048.891
719.6544, 2045.153
720.1365, 2042.027
720.6187, 2037.289
721.1008, 2029.490
721.5829, 2022.743
722.0650, 2021.732
722.5471, 2023.030
723.0292, 2022.018
723.5114, 2011.044
723.9935, 2005.524
724.4756, 2012.380
724.9577, 2024.329
725.4398, 2029.239
725.9219, 2025.427
726.4041, 2018.336
726.8862, 2005.837
727.3683, 1994.262
727.8504, 2006.516
728.3325, 2037.949
728.8146, 2056.340
729.2968, 2035.959
729.7789, 2004.582
730.2610, 1993.420
730.7431, 1997.931
731.2252, 2003.043
731.7073, 2002.412
732.1895, 2000.882
732.6716, 1999.704
733.1537, 1999.167
733.6358, 2001.346
734.1179, 2008.253
734.6000, 2014.634
735.0822, 2018.941
735.5643, 2021.041
736.0464, 2017.014
736.5285, 2006.410
737.0106, 1998.903
737.4927, 2007.302
737.9749, 2021.168
738.4570, 2020.489
738.9391, 2004.711
739.4212, 1989.510
739.9033, 1981.715
740.3854, 1979.689
740.8676, 1983.231
741.3497, 1993.926
741.8318, 2003.942
742.3139, 2016.284
742.7960, 2024.051
743.2781, 2019.218
743.7603, 1997.879
744.2424, 1994.956
744.7245, 2015.238
745.2066, 2037.836
745.6887, 2039.812
746.1708, 2027.149
746.6530, 2014.425
747.1351, 2003.606
747.6172, 1995.838
748.0993, 1995.104
748.5814, 1996.528
749.0635, 1994.226
749.5457, 1978.855
750.0278, 1972.747
750.5099, 1984.873
750.9920, 2003.437
751.4741, 2015.069
751.9562, 2018.245
752.4384, 2019.981
752.9205, 2020.599
753.4026, 2021.212
753.8847, 2024.023
754.3668, 2028.450
754.8489, 2032.194
755.3311, 2034.129
755.8132, 2035.910
756.2953, 2040.973
756.7774, 2046.528
757.2595, 2047.573
757.7416, 2037.539
758.2238, 2028.774
758.7059, 2024.474
759.1880, 2023.182
759.6701, 2021.651
760.1522, 2019.039
760.6343, 2019.367
761.1165, 2024.973
761.5986, 2032.856
762.0807, 2034.284
762.5628, 2030.579
763.0449, 2029.462
763.5270, 2036.860
764.0092, 2046.329
764.4913, 2052.820
764.9734, 2056.504
765.4555, 2058.079
765.9376, 2056.997
766.4197, 2054.577
766.9019, 2048.744
767.3840, 2041.340
767.8661, 2042.319
768.3482, 2054.935
768.8303, 2066.199
769.3124, 2069.798
769.7946, 2068.428
770.2767, 2072.187
770.7588, 2080.566
771.2409, 2088.830
771.7230, 2091.906
772.2051, 2095.038
772.6873, 2106.686
773.1694, 2125.044
773.6515, 2135.912
774.1336, 2126.546
774.6157, 2116.228
775.0978, 2112.927
775.5800, 2116.485
776.0621, 2122.350
776.5442, 2131.432
777.0263, 2140.276
777.5084, 2146.217
777.9905, 2150.215
778.4727, 2158.199
778.9548, 2169.783
779.4369, 2178.304
779.9190, 2176.165
780.4011, 2170.458
780.8832, 2167.633
781.3654, 2168.184
781.8475, 2170.419
782.3296, 2177.773
782.8117, 2182.901
783.2938, 2179.646
783.7759, 2166.082
784.2581, 2168.317
784.7402, 2190.536
785.2223, 2215.536
785.7044, 2231.466
786.1865, 2240.392
786.6686, 2252.438
787.1508, 2267.838
787.6329, 2278.515
788.1150, 2272.020
788.5971, 2262.113
789.0792, 2261.949
789.5613, 2273.547
790.0435, 2288.881
790.5256, 2312.933
791.0077, 2334.052
791.4898, 2344.449
791.9719, 2341.217
792.4540, 2348.569
792.9362, 2368.809
793.4183, 2389.410
793.9004, 2397.079
794.3825, 2396.920
794.8646, 2404.399
795.3467, 2420.786
795.8289, 2435.964
796.3110, 2442.242
796.7931, 2444.298
797.2752, 2445.041
797.7573, 2444.018
798.2394, 2445.949
798.7216, 2452.281
799.2037, 2460.634
799.6858, 2470.718
800.1679, 2483.587
800.6500, 2489.697
801.1321, 2488.528
801.6143, 2484.581
802.0964, 2482.350
802.5785, 2480.165
803.0606, 2473.202
803.5427, 2460.464
804.0248, 2450.855
804.5070, 2451.626
804.9891, 2456.101
805.4712, 2459.901
805.9533, 2463.569
806.4354, 2462.324
806.9175, 2453.452
807.3997, 2443.577
807.8818, 2439.369
808.3639, 2440.572
808.8460, 2430.831
809.3281, 2408.534
809.8102, 2388.507
810.2924, 2387.150
810.7745, 2394.896
811.2566, 2398.737
811.7387, 2396.537
812.2208, 2394.645
812.7029, 2396.997
813.1851, 2399.604
813.6672, 2399.232
814.1493, 2394.510
814.6314, 2393.191
815.1135, 2396.542
815.5956, 2400.162
816.0778, 2400.421
816.5599, 2397.863
817.0420, 2393.757
817.5241, 2388.060
818.0062, 2385.333
818.4883, 2395.376
818.9705, 2406.161
819.4526, 2404.366
819.9347, 2386.547
820.4168, 2370.492
820.8989, 2357.547
821.3810, 2349.653
821.8632, 2349.775
822.3453, 2359.516
822.8274, 2360.384
823.3095, 2351.156
823.7916, 2340.740
824.2737, 2336.176
824.7559, 2335.618
825.2380, 2336.692
825.7201, 2339.090
826.2022, 2338.903
826.6843, 2329.245
827.1664, 2319.732
827.6486, 2317.176
828.1307, 2323.157
828.6128, 2330.385
829.0949, 2342.422
829.5770, 2349.396
830.0591, 2342.743
830.5413, 2324.363
831.0234, 2317.059
831.5055, 2320.675
831.9876, 2324.954
832.4697, 2320.764
832.9518, 2314.511
833.4340, 2313.616
833.9161, 2318.172
834.3982, 2322.651
834.8803, 2326.633
835.3624, 2328.501
835.8445, 2326.125
836.3267, 2319.922
836.8088, 2320.452
837.2909, 2328.873
837.7730, 2338.860
838.2551, 2348.478
838.7372, 2356.665
839.2194, 2358.845
839.7015, 2356.227
840.1836, 2355.768
840.6657, 2366.784
841.1478, 2376.459
841.6299, 2373.736
842.1121, 2360.352
842.5942, 2354.813
843.0763, 2362.261
843.5584, 2369.934
844.0405, 2373.019
844.5226, 2373.518
845.0048, 2381.300
845.4869, 2395.687
845.9690, 2406.393
846.4511, 2403.796
846.9332, 2398.576
847.4153, 2401.281
847.8975, 2410.822
848.3796, 2424.085
848.8617, 2449.607
849.3438, 2467.389
849.8259, 2466.023
850.3080, 2454.657
850.7902, 2458.765
851.2723, 2481.676
851.7544, 2499.590
852.2365, 2504.662
852.7186, 2502.917
853.2007, 2501.386
853.6829, 2501.732
854.1650, 2508.614
854.6471, 2529.469
855.1292, 2550.029
855.6113, 2563.232
856.0934, 2571.502
856.5756, 2579.771
857.0577, 2590.208
857.5398, 2596.533
858.0219, 2597.116
858.5040, 2594.936
858.9861, 2595.955
859.4683, 2598.951
859.9504, 2596.248
860.4325, 2584.261
860.9146, 2572.167
861.3967, 2567.141
861.8788, 2567.531
862.3610, 2572.137
862.8431, 2590.474
863.3252, 2594.589
863.8073, 2575.106
864.2894, 2548.759
864.7715, 2532.376
865.2537, 2526.576
865.7358, 2518.559
866.2179, 2507.071
866.7000, 2495.256
867.1821, 2486.773
867.6642, 2479.784
868.1464, 2472.234
868.6285, 2463.958
869.1106, 2453.402
869.5927, 2436.365
870.0748, 2419.700
870.5569, 2408.436
871.0391, 2403.694
871.5212, 2396.203
872.0033, 2385.317
872.4854, 2373.986
872.9675, 2363.108
873.4496, 2353.705
873.9318, 2350.000
874.4139, 2351.562
874.8960, 2352.505
875.3781, 2353.879
875.8602, 2349.629
876.3423, 2330.485
876.8245, 2296.997
877.3066, 2281.997
877.7887, 2295.720
878.2708, 2304.552
878.7529, 2291.858
879.2350, 2265.631
879.7172, 2253.764
880.1993, 2254.315
880.6814, 2253.326
881.1635, 2236.775
881.6456, 2221.722
882.1277, 2224.181
882.6099, 2238.620
883.0920, 2248.383
883.5741, 2248.818
884.0562, 2245.756
884.5383, 2237.767
885.0204, 2228.586
885.5026, 2229.273
885.9847, 2238.715
886.4668, 2239.924
886.9489, 2224.958
887.4310, 2206.941
887.9131, 2198.848
888.3953, 2197.916
888.8774, 2200.194
889.3595, 2210.944
889.8416, 2214.879
890.3237, 2203.093
890.8058, 2189.619
891.2880, 2192.313
891.7701, 2213.472
892.2522, 2219.109
892.7343, 2204.656
893.2164, 2185.631
893.6985, 2177.104
894.1807, 2174.841
894.6628, 2173.369
895.1449, 2172.208
895.6270, 2169.067
896.1091, 2159.548
896.5912, 2150.974
897.0734, 2149.046
897.5555, 2154.968
898.0376, 2151.796
898.5197, 2138.227
899.0018, 2123.845
899.4839, 2114.310
899.9661, 2109.106
900.4482, 2108.770
900.9303, 2112.512
901.4124, 2115.633
901.8945, 2114.255
902.3766, 2113.258
902.8588, 2116.585
903.3409, 2122.592
903.8230, 2123.207
904.3051, 2116.895
904.7872, 2111.218
905.2693, 2109.261
905.7515, 2108.525
906.2336, 2101.995
906.7157, 2092.268
907.1978, 2087.107
907.6799, 2096.162
908.1620, 2102.312
908.6442, 2092.428
909.1263, 2076.575
909.6084, 2072.101
910.0905, 2085.240
910.5726, 2093.957
911.0547, 2096.392
911.5369, 2093.977
912.0190, 2085.988
912.5011, 2074.841
912.9832, 2066.879
913.4653, 2062.988
913.9474, 2063.760
914.4296, 2076.078
914.9117, 2088.852
915.3938, 2091.501
915.8759, 2080.363
916.3580, 2072.150
916.8401, 2066.614
917.3223, 2064.542
917.8044, 2068.406
918.2865, 2076.173
918.7686, 2079.600
919.2507, 2079.177
919.7328, 2079.978
920.2150, 2092.655
920.6971, 2100.824
921.1792, 2088.558
921.6613, 2059.578
922.1434, 2045.553
922.6255, 2054.422
923.1077, 2060.536
923.5898, 2054.458
924.0719, 2043.357
924.5540, 2046.964
925.0361, 2061.082
925.5182, 2068.216
926.0004, 2057.761
926.4825, 2045.272
926.9646, 2040.552
927.4467, 2039.856
927.9288, 2037.468
928.4109, 2030.085
928.8931, 2027.133
929.3752, 2030.358
929.8573, 2035.438
930.3394, 2037.322
930.8215, 2036.957
931.3036, 2039.470
931.7858, 2045.994
932.2679, 2047.063
932.7500, 2029.384
933.2321, 2008.738
933.7142, 1996.973
934.1964, 1996.286
934.6785, 1997.387
935.1606, 2000.848
935.6427, 2004.851
936.1248, 2009.559
936.6069, 2013.755
937.0891, 2012.119
937.5712, 2005.592
938.0533, 1999.001
938.5354, 1993.161
939.0175, 1989.781
939.4996, 1990.965
939.9818, 1995.393
940.4639, 1999.269
940.9460, 2002.335
941.4281, 2005.264
941.9102, 2008.895
942.3923, 2010.913
942.8745, 2003.491
943.3566, 1991.368
943.8387, 1990.490
944.3208, 2008.569
944.8029, 2023.706
945.2850, 2021.579
945.7672, 2011.957
946.2493, 2003.078
946.7314, 1994.247
947.2135, 1991.678
947.6956, 1997.102
948.1777, 2002.950
948.6599, 2002.890
949.1420, 1998.956
949.6241, 1995.649
950.1062, 1993.057
950.5883, 1990.728
951.0704, 1986.187
951.5526, 1984.001
952.0347, 1988.661
952.5168, 1997.829
952.9989, 2002.500
953.4810, 2001.590
953.9631, 2001.525
954.4453, 2004.893
954.9274, 2008.671
955.4095, 2006.887
955.8916, 2001.825
956.3737, 1998.543
956.8558, 2000.348
957.3380, 2000.920
957.8201, 1994.233
958.3022, 1988.050
958.7843, 1991.056
959.2664, 2006.322
959.7485, 2012.286
960.2307, 2007.257
960.7128, 2000.824
961.1949, 2001.136
961.6770, 2005.517
962.1591, 2011.547
962.6412, 2018.773
963.1234, 2023.021
963.6055, 2014.933
964.0876, 2013.034
964.5697, 2028.338
965.0518, 2054.347
965.5339, 2061.628
966.0161, 2050.140
966.4982, 2033.450
966.9803, 2011.054
967.4624, 1995.078
967.9445, 2006.815
968.4266, 2032.650
968.9088, 2049.856
969.3909, 2045.534
969.8730, 2041.635
970.3551, 2038.499
970.8372, 2037.815
971.3193, 2043.564
971.8015, 2054.518
972.2836, 2058.873
972.7657, 2055.637
973.2478, 2048.790
973.7299, 2036.792
974.2120, 2025.985
974.6942, 2023.066
975.1763, 2028.569
975.6584, 2030.445
976.1405, 2024.805
976.6226, 2023.365
977.1047, 2033.639
977.5869, 2048.344
978.0690, 2042.798
978.5511, 2022.933
979.0332, 2011.244
979.5153, 2022.297
979.9974, 2035.495
980.4796, 2041.649
980.9617, 2042.411
981.4438, 2039.342
981.9259, 2028.310
982.4080, 2028.213
982.8901, 2042.504
983.3723, 2057.974
983.8544, 2060.571
984.3365, 2055.226
984.8186, 2051.240
985.3007, 2049.338
985.7828, 2045.478
986.2650, 2033.693
986.7471, 2023.941
987.2292, 2019.784
987.7113, 2021.094
988.1934, 2029.399
988.6755, 2045.141
989.1577, 2056.736
989.6398, 2058.233
990.1219, 2055.835
990.6040, 2058.201
991.0861, 2061.530
991.5682, 2059.280
992.0504, 2041.794
992.5325, 2030.691
993.0146, 2028.428
993.4967, 2031.572
993.9788, 2037.319
994.4609, 2045.655
994.9431, 2059.373
995.4252, 2078.580
995.9073, 2090.279
996.3894, 2078.299
996.8715, 2060.951
997.3536, 2050.707
997.8358, 2048.298
998.3179, 2048.305
998.8000, 2050.631
999.2821, 2056.070
999.7642, 2067.685
1000.246, 2078.515
1000.728, 2070.162
1001.211, 2049.707
1001.693, 2035.396
1002.175, 2033.400
1002.657, 2036.885
1003.139, 2044.342
1003.621, 2055.284
1004.103, 2070.566
1004.585, 2092.668
1005.068, 2104.322
1005.550, 2105.193
1006.032, 2099.533
1006.514, 2084.498
1006.996, 2068.702
1007.478, 2062.716
1007.960, 2065.988
1008.442, 2072.795
1008.924, 2086.248
1009.407, 2097.340
1009.889, 2105.750
1010.371, 2109.521
1010.853, 2101.137
1011.335, 2082.980
1011.817, 2071.703
1012.299, 2071.862
1012.781, 2076.100
1013.263, 2082.081
1013.746, 2087.528
1014.228, 2089.620
1014.710, 2087.194
1015.192, 2088.127
1015.674, 2094.125
1016.156, 2097.871
1016.638, 2090.742
1017.120, 2080.249
1017.603, 2085.002
1018.085, 2101.235
1018.567, 2115.572
1019.049, 2125.819
1019.531, 2128.172
1020.013, 2114.314
1020.495, 2096.821
1020.977, 2096.172
1021.459, 2112.855
1021.942, 2124.034
1022.424, 2126.858
1022.906, 2123.787
1023.388, 2113.199
1023.870, 2100.569
1024.352, 2090.526
1024.834, 2083.609
1025.316, 2082.057
1025.799, 2087.915
1026.281, 2095.017
1026.763, 2102.335
1027.245, 2108.152
1027.727, 2104.868
1028.209, 2096.054
1028.691, 2093.795
1029.173, 2106.115
1029.656, 2120.671
1030.138, 2137.028
1030.620, 2149.103
1031.102, 2149.203
1031.584, 2133.765
1032.066, 2126.734
1032.548, 2129.070
1033.030, 2134.621
1033.512, 2140.716
1033.995, 2145.515
1034.477, 2146.291
1034.959, 2143.394
1035.441, 2139.674
1035.923, 2133.719
1036.405, 2129.801
1036.887, 2127.949
1037.369, 2129.558
1037.851, 2142.324
1038.334, 2161.468
1038.816, 2167.400
1039.298, 2152.620
1039.780, 2138.721
1040.262, 2139.830
1040.744, 2146.624
1041.226, 2151.103
1041.708, 2152.680
1042.191, 2161.544
1042.673, 2179.033
1043.155, 2193.349
1043.637, 2197.788
1044.119, 2195.869
1044.601, 2188.240
1045.083, 2178.505
1045.565, 2175.177
1046.047, 2184.902
1046.530, 2195.641
1047.012, 2207.184
1047.494, 2218.011
1047.976, 2226.672
1048.458, 2233.223
1048.940, 2235.309
1049.422, 2233.049
1049.904, 2235.790
1050.386, 2258.663
1050.869, 2279.775
1051.351, 2281.478
1051.833, 2269.523
1052.315, 2268.378
1052.797, 2279.733
1053.279, 2288.889
1053.761, 2291.514
1054.243, 2291.712
1054.726, 2293.140
1055.208, 2296.160
1055.690, 2301.975
1056.172, 2312.955
1056.654, 2319.163
1057.136, 2316.385
1057.618, 2315.349
1058.100, 2324.532
1058.583, 2340.270
1059.065, 2347.565
1059.547, 2347.889
1060.029, 2348.029
1060.511, 2356.060
1060.993, 2359.336
1061.475, 2349.828
1061.957, 2333.686
1062.439, 2316.735
1062.922, 2297.384
1063.404, 2295.763
1063.886, 2315.604
1064.368, 2332.326
1064.850, 2318.763
1065.332, 2295.059
1065.814, 2281.488
1066.296, 2278.705
1066.778, 2273.141
1067.261, 2261.343
1067.743, 2251.736
1068.225, 2247.113
1068.707, 2244.648
1069.189, 2240.551
1069.671, 2234.385
1070.153, 2224.014
1070.635, 2206.902
1071.118, 2193.567
1071.600, 2191.232
1072.082, 2191.725
1072.564, 2192.083
1073.046, 2191.812
1073.528, 2181.108
1074.010, 2161.098
1074.492, 2146.415
1074.974, 2148.515
1075.457, 2154.844
1075.939, 2158.610
1076.421, 2159.469
1076.903, 2156.184
1077.385, 2145.849
1077.867, 2140.440
1078.349, 2140.683
1078.831, 2145.041
1079.313, 2155.584
1079.796, 2167.406
1080.278, 2175.680
1080.760, 2179.155
1081.242, 2171.832
1081.724, 2137.380
1082.206, 2110.493
1082.688, 2097.613
1083.170, 2096.835
1083.652, 2111.166
1084.135, 2135.378
1084.617, 2147.993
1085.099, 2143.805
1085.581, 2137.313
1086.063, 2137.307
1086.545, 2137.364
1087.027, 2132.331
1087.509, 2123.120
1087.992, 2120.546
1088.474, 2124.731
1088.956, 2124.627
1089.438, 2110.271
1089.920, 2099.410
1090.402, 2118.286
1090.884, 2147.589
1091.366, 2159.708
1091.849, 2142.692
1092.331, 2130.719
1092.813, 2123.473
1093.295, 2122.344
1093.777, 2134.308
1094.259, 2150.171
1094.741, 2148.896
1095.223, 2135.771
1095.705, 2129.874
1096.188, 2148.690
1096.670, 2160.697
1097.152, 2158.437
1097.634, 2150.631
1098.116, 2148.203
1098.598, 2150.109
1099.080, 2152.027
1099.562, 2153.531
1100.044, 2153.706
1100.527, 2146.583
1101.009, 2143.694
1101.491, 2156.338
1101.973, 2177.262
1102.455, 2180.407
1102.937, 2165.573
1103.419, 2159.992
1103.901, 2172.849
1104.384, 2186.867
1104.866, 2184.357
1105.348, 2175.139
1105.830, 2168.482
1106.312, 2165.611
1106.794, 2163.609
1107.276, 2161.938
1107.758, 2163.368
1108.240, 2170.087
1108.723, 2179.466
1109.205, 2189.881
1109.687, 2199.412
1110.169, 2204.111
1110.651, 2196.885
1111.133, 2196.879
1111.615, 2210.327
1112.097, 2222.090
1112.579, 2217.387
1113.062, 2201.808
1113.544, 2193.114
1114.026, 2191.409
1114.508, 2196.679
1114.990, 2222.498
1115.472, 2237.966
1115.954, 2226.070
1116.436, 2205.116
1116.919, 2198.742
1117.401, 2205.865
1117.883, 2211.855
1118.365, 2215.453
1118.847, 2219.178
1119.329, 2226.717
1119.811, 2233.254
1120.293, 2235.206
1120.776, 2233.444
1121.258, 2231.345
1121.740, 2229.177
1122.222, 2223.302
1122.704, 2212.234
1123.186, 2200.211
1123.668, 2185.587
1124.150, 2175.869
1124.632, 2181.650
1125.115, 2205.988
1125.597, 2223.972
1126.079, 2235.058
1126.561, 2240.384
1127.043, 2239.386
1127.525, 2234.500
1128.007, 2227.323
1128.489, 2219.973
1128.971, 2216.643
1129.454, 2221.074
1129.936, 2222.112
1130.418, 2217.714
1130.900, 2212.034
1131.382, 2207.514
1131.864, 2203.646
1132.346, 2197.192
1132.828, 2189.705
1133.311, 2186.327
1133.793, 2194.784
1134.275, 2200.124
1134.757, 2197.672
1135.239, 2192.275
1135.721, 2186.982
1136.203, 2182.251
1136.685, 2183.018
1137.167, 2188.931
1137.650, 2194.964
1138.132, 2198.473
1138.614, 2200.918
1139.096, 2205.242
1139.578, 2207.875
1140.060, 2200.120
1140.542, 2181.543
1141.024, 2175.437
1141.506, 2184.948
1141.989, 2193.750
1142.471, 2185.518
1142.953, 2174.559
1143.435, 2172.963
1143.917, 2178.718
1144.399, 2178.655
1144.881, 2171.385
1145.363, 2168.769
1145.846, 2174.768
1146.328, 2180.204
1146.810, 2171.086
1147.292, 2158.508
1147.774, 2155.104
1148.256, 2163.252
1148.738, 2168.140
1149.220, 2168.746
1149.703, 2169.151
1150.185, 2171.813
1150.667, 2172.903
1151.149, 2160.912
1151.631, 2145.677
1152.113, 2144.871
1152.595, 2169.389
1153.077, 2181.593
1153.559, 2174.939
1154.042, 2166.123
1154.524, 2163.796
1155.006, 2165.286
1155.488, 2164.892
1155.970, 2163.433
1156.452, 2163.034
1156.934, 2166.664
1157.416, 2167.220
1157.898, 2164.502
1158.381, 2158.050
1158.863, 2144.010
1159.345, 2126.049
1159.827, 2121.313
1160.309, 2126.793
1160.791, 2130.437
1161.273, 2120.015
1161.755, 2116.340
1162.238, 2128.926
1162.720, 2145.185
1163.202, 2151.604
1163.684, 2149.532
1164.166, 2148.219
1164.648, 2147.815
1165.130, 2145.576
1165.612, 2135.028
1166.094, 2128.145
1166.577, 2134.053
1167.059, 2143.916
1167.541, 2142.203
1168.023, 2130.220
1168.505, 2126.499
1168.987, 2133.016
1169.469, 2136.061
1169.951, 2118.419
1170.433, 2102.027
1170.916, 2103.086
1171.398, 2114.648
1171.880, 2120.010
1172.362, 2119.270
1172.844, 2117.811
1173.326, 2116.559
1173.808, 2115.152
1174.290, 2111.349
1174.773, 2108.877
1175.255, 2112.297
1175.737, 2120.046
1176.219, 2123.538
1176.701, 2122.552
1177.183, 2123.194
1177.665, 2128.254
1178.147, 2131.433
1178.630, 2124.287
1179.112, 2114.056
1179.594, 2107.248
1180.076, 2104.270
1180.558, 2105.617
1181.040, 2112.198
1181.522, 2113.878
1182.004, 2104.439
1182.486, 2093.638
1182.969, 2090.436
1183.451, 2092.815
1183.933, 2099.773
1184.415, 2112.510
1184.897, 2120.452
1185.379, 2123.824
1185.861, 2120.451
1186.343, 2103.727
1186.825, 2087.156
1187.308, 2089.275
1187.790, 2101.509
1188.272, 2111.122
1188.754, 2118.011
1189.236, 2114.907
1189.718, 2099.273
1190.200, 2086.963
1190.682, 2090.369
1191.165, 2101.143
1191.647, 2112.332
1192.129, 2121.841
1192.611, 2125.142
1193.093, 2118.799
1193.575, 2111.907
1194.057, 2104.115
1194.539, 2097.669
1195.021, 2091.314
1195.504, 2089.330
1195.986, 2105.215
1196.468, 2130.292
1196.950, 2137.857
1197.432, 2110.612
1197.914, 2095.086
1198.396, 2094.988
1198.878, 2103.422
1199.360, 2120.941
1199.843, 2138.437
1200.325, 2140.430
1200.807, 2129.906
1201.289, 2120.666
1201.771, 2114.984
1202.253, 2111.791
1202.735, 2112.039
1203.217, 2111.400
1203.700, 2100.993
1204.182, 2089.129
1204.664, 2089.980
1205.146, 2102.149
1205.628, 2110.069
1206.110, 2107.594
1206.592, 2109.884
1207.074, 2120.960
1207.557, 2132.576
1208.039, 2135.897
1208.521, 2132.315
1209.003, 2118.934
1209.485, 2097.052
1209.967, 2090.947
1210.449, 2112.719
1210.931, 2126.404
1211.413, 2123.178
1211.896, 2113.082
1212.378, 2107.194
1212.860, 2104.537
1213.342, 2105.340
1213.824, 2109.571
1214.306, 2109.083
1214.788, 2102.903
1215.270, 2092.667
1215.752, 2076.994
1216.235, 2062.175
1216.717, 2057.853
1217.199, 2059.805
1217.681, 2063.076
1218.163, 2067.244
1218.645, 2066.660
1219.127, 2058.017
1219.609, 2053.892
1220.092, 2058.696
1220.574, 2068.853
1221.056, 2087.621
1221.538, 2104.070
1222.020, 2098.156
1222.502, 2062.303
1222.984, 2042.989
1223.466, 2046.254
1223.948, 2051.830
1224.431, 2052.583
1224.913, 2051.502
1225.395, 2052.979
1225.877, 2055.388
1226.359, 2055.540
1226.841, 2051.429
1227.323, 2056.022
1227.805, 2073.003
1228.287, 2082.883
1228.770, 2073.410
1229.252, 2060.469
1229.734, 2070.492
1230.216, 2088.454
1230.698, 2091.888
1231.180, 2072.677
1231.662, 2067.348
1232.144, 2078.817
1232.627, 2087.052
1233.109, 2081.248
1233.591, 2070.727
1234.073, 2064.525
1234.555, 2061.613
1235.037, 2060.240
1235.519, 2059.513
1236.001, 2068.162
1236.484, 2088.610
1236.966, 2095.654
1237.448, 2068.388
1237.930, 2034.921
1238.412, 2019.588
1238.894, 2017.413
1239.376, 2024.949
1239.858, 2044.281
1240.340, 2048.225
1240.823, 2035.896
1241.305, 2025.894
1241.787, 2029.149
1242.269, 2037.130
1242.751, 2045.378
1243.233, 2052.448
1243.715, 2056.123
1244.197, 2055.958
1244.679, 2059.012
1245.162, 2065.128
1245.644, 2065.209
1246.126, 2047.997
1246.608, 2031.665
1247.090, 2035.458
1247.572, 2041.666
1248.054, 2026.090
1248.536, 1986.859
1249.019, 1982.237
1249.501, 2008.888
1249.983, 2030.374
1250.465, 2020.208
1250.947, 2007.671
1251.429, 2006.425
1251.911, 2011.089
1252.393, 2018.718
1252.875, 2028.759
1253.358, 2030.855
1253.840, 2025.574
1254.322, 2017.173
1254.804, 2002.679
1255.286, 1992.132
1255.768, 1989.629
1256.250, 1991.618
1256.732, 1998.594
1257.214, 2008.313
1257.697, 2000.827
1258.179, 1981.569
1258.661, 1975.543
1259.143, 2016.884
1259.625, 2038.600
1260.107, 2021.043
1260.589, 1994.061
1261.071, 1980.544
1261.554, 1978.213
1262.036, 1984.159
1262.518, 1995.153
1263.000, 2000.782
1263.482, 1986.993
1263.964, 1984.746
1264.446, 2001.769
1264.928, 2018.260
1265.411, 2014.483
1265.893, 2000.406
1266.375, 1995.469
1266.857, 1996.455
1267.339, 1994.020
1267.821, 1979.354
1268.303, 1973.816
1268.785, 1979.453
1269.267, 1988.292
1269.750, 1994.211
1270.232, 1999.495
1270.714, 2012.080
1271.196, 2025.563
1271.678, 2022.585
1272.160, 1992.311
1272.642, 1980.110
1273.124, 1989.231
1273.606, 1997.737
1274.089, 1984.040
1274.571, 1968.176
1275.053, 1969.630
1275.535, 1981.012
1276.017, 1988.704
1276.499, 1991.757
1276.981, 1996.713
1277.463, 2003.577
1277.946, 2002.949
1278.428, 1974.184
1278.910, 1952.243
1279.392, 1970.634
1279.874, 2000.320
1280.356, 2005.663
1280.838, 1987.338
1281.320, 1978.497
1281.802, 1978.647
1282.285, 1978.504
1282.767, 1968.349
1283.249, 1963.215
1283.731, 1973.331
1284.213, 1985.315
1284.695, 1986.168
1285.177, 1978.712
1285.659, 1975.270
1286.141, 1975.886
1286.624, 1980.316
1287.106, 1998.346
1287.588, 2003.560
1288.070, 1986.596
1288.552, 1969.998
1289.034, 1978.813
1289.516, 1998.624
1289.998, 1992.293
1290.481, 1970.037
1290.963, 1958.544
1291.445, 1978.794
1291.927, 1984.567
1292.409, 1971.802
1292.891, 1959.918
1293.373, 1967.885
1293.855, 1980.544
1294.338, 1975.290
1294.820, 1961.578
1295.302, 1958.479
1295.784, 1970.940
1296.266, 1977.209
1296.748, 1976.939
1297.230, 1976.623
1297.712, 1981.470
1298.194, 1986.309
1298.677, 1986.558
1299.159, 1984.600
1299.641, 1982.938
1300.123, 1981.477
1300.605, 1985.332
1301.087, 1993.213
1301.569, 1993.065
1302.051, 1969.658
1302.533, 1951.132
1303.016, 1946.949
##END=



