##NAMES=Rhodochrosite
##RRUFFID=R100002
##IDEAL CHEMISTRY=Mn^2+^CO_3_
##LOCALITY=Wudong mine, Liubao, Guangxi  Autonomous Region, China
##OWNER=RRUFF
##SOURCE=Marcus Origlieri
##DESCRIPTION=Red cleavage fragment
##STATUS=The identification of this mineral has been confirmed by X-ray diffraction.
##URL=rruff.info/R100002
89.60352, 42.82914
90.08563, 42.72633
90.56775, 42.48586
91.04987, 40.93438
91.53198, 40.34101
92.01410, 44.93908
92.49622, 54.46003
92.97833, 63.67714
93.46045, 68.01881
93.94257, 68.21101
94.42468, 66.59891
94.90680, 63.84751
95.38892, 59.92921
95.87103, 52.71373
96.35315, 40.82963
96.83527, 31.41800
97.31738, 38.08486
97.79950, 61.49099
98.28162, 79.84698
98.76373, 79.26020
99.24585, 58.97392
99.72797, 48.81665
100.2101, 52.32943
100.6922, 63.54871
101.1743, 67.93127
101.6564, 63.16130
102.1385, 57.95418
102.6207, 58.04770
103.1028, 66.01507
103.5849, 71.30135
104.0670, 73.00281
104.5491, 71.21577
105.0313, 66.28736
105.5134, 55.77076
105.9955, 44.60459
106.4776, 36.38604
106.9597, 31.75675
107.4418, 29.29694
107.9240, 29.20425
108.4061, 31.72092
108.8882, 34.73330
109.3703, 39.55030
109.8524, 44.37484
110.3345, 47.26046
110.8167, 45.42683
111.2988, 44.17107
111.7809, 44.71184
112.2630, 47.30903
112.7451, 51.14316
113.2272, 59.73658
113.7094, 69.07986
114.1915, 72.63210
114.6736, 61.34215
115.1557, 49.17970
115.6378, 43.41816
116.1199, 49.25986
116.6021, 54.48540
117.0842, 53.55532
117.5663, 48.38981
118.0484, 44.75658
118.5305, 45.57552
119.0126, 48.73019
119.4948, 52.72424
119.9769, 59.96010
120.4590, 65.08433
120.9411, 63.41941
121.4232, 55.70898
121.9053, 47.45655
122.3875, 39.97640
122.8696, 34.53305
123.3517, 32.88218
123.8338, 38.99556
124.3159, 47.56487
124.7980, 52.26982
125.2802, 52.97020
125.7623, 53.82823
126.2444, 59.63332
126.7265, 68.72987
127.2086, 76.70479
127.6907, 79.68181
128.1729, 80.38718
128.6550, 85.12993
129.1371, 95.12063
129.6192, 105.6623
130.1013, 110.9225
130.5834, 111.2015
131.0656, 109.3020
131.5477, 103.1362
132.0298, 94.79433
132.5119, 96.65580
132.9940, 113.3693
133.4761, 135.5106
133.9583, 143.8443
134.4404, 137.3756
134.9225, 128.1672
135.4046, 123.5732
135.8867, 123.5736
136.3688, 127.3209
136.8510, 135.6243
137.3331, 147.2679
137.8152, 159.0266
138.2973, 171.7719
138.7794, 182.2766
139.2615, 187.4346
139.7437, 186.1263
140.2258, 183.7634
140.7079, 180.0274
141.1900, 175.2287
141.6721, 176.6608
142.1542, 186.6579
142.6364, 199.7985
143.1185, 210.0951
143.6006, 215.4734
144.0827, 222.0815
144.5648, 232.2918
145.0469, 247.7171
145.5291, 258.0518
146.0112, 262.3187
146.4933, 262.2120
146.9754, 259.6531
147.4575, 249.1475
147.9396, 242.8907
148.4218, 245.2913
148.9039, 261.4978
149.3860, 273.8180
149.8681, 278.5991
150.3502, 279.6692
150.8323, 284.7334
151.3145, 297.0910
151.7966, 310.5873
152.2787, 323.4395
152.7608, 335.6519
153.2429, 346.9708
153.7250, 358.9862
154.2072, 370.3190
154.6893, 377.1043
155.1714, 366.4644
155.6535, 356.9131
156.1356, 359.9707
156.6177, 389.4339
157.0999, 416.0069
157.5820, 433.3821
158.0641, 443.3857
158.5462, 453.2879
159.0283, 464.2028
159.5104, 476.1009
159.9926, 488.9584
160.4747, 501.1003
160.9568, 515.7675
161.4389, 533.9127
161.9210, 555.2031
162.4031, 579.4982
162.8853, 602.4163
163.3674, 629.8058
163.8495, 667.0154
164.3316, 722.2247
164.8137, 782.0416
165.2958, 840.8071
165.7780, 898.6616
166.2601, 955.2629
166.7422, 1012.377
167.2243, 1068.455
167.7064, 1120.752
168.1885, 1165.479
168.6707, 1208.588
169.1528, 1254.167
169.6349, 1302.665
170.1170, 1352.164
170.5991, 1395.234
171.0812, 1439.440
171.5634, 1497.129
172.0455, 1583.073
172.5276, 1680.622
173.0097, 1771.156
173.4918, 1852.266
173.9739, 1937.910
174.4561, 2038.930
174.9382, 2154.862
175.4203, 2285.341
175.9024, 2424.409
176.3845, 2578.368
176.8666, 2752.672
177.3488, 2946.540
177.8309, 3168.628
178.3130, 3424.798
178.7951, 3717.609
179.2772, 4046.620
179.7593, 4423.991
180.2415, 4836.702
180.7236, 5276.952
181.2057, 5757.827
181.6878, 6233.017
182.1699, 6697.587
182.6520, 7129.267
183.1342, 7432.584
183.6163, 7566.393
184.0984, 7523.346
184.5805, 7257.587
185.0626, 6722.497
185.5447, 6028.635
186.0269, 5299.335
186.5090, 4541.175
186.9911, 3839.093
187.4732, 3255.895
187.9553, 2777.987
188.4374, 2372.584
188.9196, 2034.887
189.4017, 1758.423
189.8838, 1533.460
190.3659, 1358.131
190.8480, 1215.424
191.3301, 1096.197
191.8123, 998.0628
192.2944, 907.6263
192.7765, 820.2787
193.2586, 739.7352
193.7407, 683.2043
194.2228, 652.8138
194.7050, 630.5011
195.1871, 600.4791
195.6692, 562.8550
196.1513, 529.6567
196.6334, 504.3671
197.1155, 485.1942
197.5977, 464.1949
198.0798, 440.7393
198.5619, 418.3128
199.0440, 400.2446
199.5261, 386.4986
200.0082, 376.0840
200.4904, 369.7883
200.9725, 366.7699
201.4546, 361.2404
201.9367, 352.7693
202.4188, 342.9685
202.9009, 333.3460
203.3831, 323.8260
203.8652, 314.7017
204.3473, 306.3083
204.8294, 298.5085
205.3115, 288.8784
205.7936, 275.8722
206.2758, 264.2932
206.7579, 260.6456
207.2400, 267.1593
207.7221, 271.6968
208.2042, 270.4051
208.6863, 263.4470
209.1685, 259.3963
209.6506, 259.3297
210.1327, 260.2687
210.6148, 258.6848
211.0969, 253.9628
211.5790, 248.8001
212.0612, 243.1963
212.5433, 237.1169
213.0254, 234.7006
213.5075, 237.5451
213.9896, 241.8870
214.4717, 242.6838
214.9538, 238.1778
215.4360, 235.0528
215.9181, 235.9011
216.4002, 241.1875
216.8823, 243.1106
217.3644, 241.3373
217.8465, 236.5793
218.3287, 228.3665
218.8108, 212.8000
219.2929, 202.8076
219.7750, 203.0182
220.2571, 214.8687
220.7392, 224.1649
221.2214, 230.5061
221.7035, 234.8009
222.1856, 238.4470
222.6677, 242.0909
223.1498, 243.5837
223.6319, 241.5640
224.1141, 235.2645
224.5962, 231.4528
225.0783, 231.0419
225.5604, 232.3427
226.0425, 233.2935
226.5246, 234.1422
227.0068, 234.1201
227.4889, 232.7986
227.9710, 229.8870
228.4531, 227.2369
228.9352, 223.7161
229.4173, 221.3879
229.8995, 223.7916
230.3816, 235.0987
230.8637, 243.5697
231.3458, 245.0239
231.8279, 237.9377
232.3100, 233.8711
232.7922, 233.6325
233.2743, 235.7351
233.7564, 238.3455
234.2385, 241.3642
234.7206, 245.0397
235.2027, 249.4304
235.6849, 254.5390
236.1670, 260.7590
236.6491, 270.4568
237.1312, 279.3727
237.6133, 281.1753
238.0954, 269.9518
238.5776, 262.0509
239.0597, 262.8431
239.5418, 274.0922
240.0239, 281.2587
240.5060, 282.1775
240.9881, 280.8038
241.4703, 282.0128
241.9524, 286.5715
242.4345, 292.4008
242.9166, 299.9355
243.3987, 310.0003
243.8808, 315.0318
244.3630, 311.1668
244.8451, 305.6625
245.3272, 307.7372
245.8093, 322.1890
246.2914, 335.5365
246.7735, 344.9637
247.2557, 350.3297
247.7378, 352.8022
248.2199, 349.4644
248.7020, 346.0748
249.1841, 349.5466
249.6662, 363.7175
250.1484, 377.1641
250.6305, 386.6314
251.1126, 391.6175
251.5947, 400.7286
252.0768, 416.5981
252.5589, 433.6396
253.0411, 445.3425
253.5232, 447.9044
254.0053, 453.1431
254.4874, 464.1267
254.9695, 481.0281
255.4516, 496.7108
255.9338, 510.8322
256.4159, 524.1605
256.8980, 536.4346
257.3801, 545.3603
257.8622, 559.2950
258.3444, 581.5393
258.8265, 611.6989
259.3086, 636.1804
259.7907, 650.8052
260.2728, 665.1605
260.7549, 686.9830
261.2371, 717.0479
261.7192, 752.9973
262.2013, 795.1227
262.6834, 843.2867
263.1655, 891.1464
263.6476, 936.8459
264.1298, 986.2029
264.6119, 1045.375
265.0940, 1115.164
265.5761, 1189.654
266.0582, 1264.605
266.5403, 1342.409
267.0225, 1439.740
267.5046, 1556.652
267.9867, 1691.870
268.4688, 1844.406
268.9509, 2016.393
269.4330, 2202.359
269.9152, 2399.323
270.3973, 2610.917
270.8794, 2846.578
271.3615, 3109.706
271.8436, 3386.431
272.3257, 3664.505
272.8079, 3946.318
273.2900, 4221.572
273.7721, 4491.587
274.2542, 4755.812
274.7363, 5016.836
275.2184, 5274.692
275.7006, 5527.607
276.1827, 5764.721
276.6648, 5984.969
277.1469, 6216.691
277.6290, 6460.791
278.1111, 6718.743
278.5933, 6988.359
279.0754, 7269.181
279.5575, 7579.448
280.0396, 7932.483
280.5217, 8325.275
281.0038, 8742.594
281.4860, 9179.619
281.9681, 9647.860
282.4502, 10167.74
282.9323, 10739.69
283.4144, 11354.35
283.8965, 12027.36
284.3787, 12747.13
284.8608, 13453.90
285.3429, 14152.15
285.8250, 14821.55
286.3071, 15465.19
286.7892, 16080.99
287.2714, 16563.29
287.7535, 16887.06
288.2356, 17045.64
288.7177, 16995.95
289.1998, 16738.67
289.6819, 16284.60
290.1641, 15604.06
290.6462, 14713.58
291.1283, 13737.34
291.6104, 12693.65
292.0925, 11604.73
292.5746, 10555.59
293.0568, 9539.231
293.5389, 8578.741
294.0210, 7705.314
294.5031, 6913.677
294.9852, 6197.750
295.4673, 5566.554
295.9495, 5008.423
296.4316, 4521.573
296.9137, 4107.011
297.3958, 3742.370
297.8779, 3415.699
298.3600, 3127.504
298.8422, 2871.919
299.3243, 2651.405
299.8064, 2457.945
300.2885, 2279.868
300.7706, 2118.132
301.2527, 1973.537
301.7349, 1852.719
302.2170, 1749.519
302.6991, 1657.208
303.1812, 1575.508
303.6633, 1499.706
304.1454, 1422.708
304.6276, 1346.725
305.1097, 1278.017
305.5918, 1224.763
306.0739, 1179.816
306.5560, 1135.780
307.0381, 1090.808
307.5203, 1047.157
308.0024, 1005.867
308.4845, 967.1516
308.9666, 931.5176
309.4487, 901.7991
309.9308, 873.7010
310.4130, 842.8705
310.8951, 808.0594
311.3772, 775.9460
311.8593, 751.1014
312.3414, 732.0873
312.8235, 716.2302
313.3057, 707.1837
313.7878, 697.2140
314.2699, 680.1132
314.7520, 655.2489
315.2341, 631.6072
315.7162, 612.6256
316.1984, 597.5548
316.6805, 585.7655
317.1626, 580.0668
317.6447, 574.6459
318.1268, 568.1774
318.6089, 560.4371
319.0911, 549.6888
319.5732, 530.5683
320.0553, 510.6984
320.5374, 496.1468
321.0195, 494.3310
321.5016, 491.2285
321.9838, 481.4451
322.4659, 466.8868
322.9480, 456.8760
323.4301, 458.0223
323.9122, 460.7755
324.3943, 460.0742
324.8765, 453.4884
325.3586, 446.2017
325.8407, 438.3874
326.3228, 430.1644
326.8049, 421.8061
327.2870, 413.0335
327.7692, 404.4774
328.2513, 396.1126
328.7334, 387.1794
329.2155, 380.4489
329.6976, 377.8926
330.1797, 376.8660
330.6619, 373.1736
331.1440, 364.1259
331.6261, 355.9717
332.1082, 350.4914
332.5903, 348.1726
333.0724, 345.8444
333.5546, 344.0160
334.0367, 341.6982
334.5188, 337.8720
335.0009, 332.3348
335.4830, 325.4471
335.9651, 315.9522
336.4473, 304.3833
336.9294, 299.0471
337.4115, 301.7418
337.8936, 307.1053
338.3757, 312.0036
338.8578, 317.3294
339.3399, 317.2342
339.8221, 308.8494
340.3042, 295.6299
340.7863, 290.3707
341.2684, 294.8624
341.7505, 298.0510
342.2326, 291.1111
342.7148, 274.2181
343.1969, 262.9108
343.6790, 259.5112
344.1611, 259.8166
344.6432, 256.3015
345.1253, 249.0186
345.6075, 242.5713
346.0896, 239.3811
346.5717, 238.8923
347.0538, 239.4245
347.5359, 241.2326
348.0180, 242.4555
348.5002, 240.2789
348.9823, 235.4393
349.4644, 230.9665
349.9465, 227.7357
350.4286, 225.6890
350.9107, 225.7577
351.3929, 227.8287
351.8750, 228.4686
352.3571, 222.0777
352.8392, 212.6817
353.3213, 208.1210
353.8034, 213.0142
354.2856, 219.7865
354.7677, 220.5356
355.2498, 216.4218
355.7319, 212.2083
356.2140, 210.9098
356.6961, 210.8775
357.1783, 210.5438
357.6604, 209.7313
358.1425, 208.3134
358.6246, 205.4184
359.1067, 201.8813
359.5888, 199.3014
360.0710, 198.9237
360.5531, 199.2822
361.0352, 199.8037
361.5173, 200.5332
361.9994, 200.5284
362.4815, 198.1785
362.9637, 195.3851
363.4458, 194.1874
363.9279, 199.1826
364.4100, 201.8131
364.8921, 197.4787
365.3742, 186.8373
365.8564, 179.5530
366.3385, 178.0000
366.8206, 179.7508
367.3027, 183.3428
367.7848, 191.8239
368.2669, 198.3802
368.7491, 203.1641
369.2312, 205.8147
369.7133, 204.8356
370.1954, 196.5655
370.6775, 188.6081
371.1596, 183.8099
371.6418, 182.8210
372.1239, 183.1646
372.6060, 185.7357
373.0881, 188.9969
373.5702, 190.8683
374.0523, 191.3727
374.5345, 190.3758
375.0166, 187.4911
375.4987, 182.7303
375.9808, 178.2679
376.4629, 173.9240
376.9450, 170.1556
377.4272, 166.6528
377.9093, 163.0866
378.3914, 163.2797
378.8735, 169.1583
379.3556, 178.2450
379.8377, 184.1616
380.3199, 186.8261
380.8020, 186.7785
381.2841, 183.3568
381.7662, 177.1585
382.2483, 170.9230
382.7304, 164.2048
383.2126, 159.5646
383.6947, 162.6643
384.1768, 171.8739
384.6589, 178.9376
385.1410, 179.2466
385.6231, 175.3480
386.1053, 170.5221
386.5874, 164.7883
387.0695, 160.4961
387.5516, 160.6159
388.0337, 163.3536
388.5158, 165.5714
388.9980, 165.8148
389.4801, 165.7050
389.9622, 166.3407
390.4443, 167.6941
390.9264, 169.6895
391.4085, 174.5719
391.8907, 178.7434
392.3728, 178.6971
392.8549, 172.0382
393.3370, 165.7999
393.8191, 162.6068
394.3012, 161.8870
394.7834, 162.6766
395.2655, 166.9253
395.7476, 170.6322
396.2297, 172.2283
396.7118, 171.4680
397.1939, 169.7919
397.6761, 167.3381
398.1582, 164.1068
398.6403, 160.0985
399.1224, 153.1952
399.6045, 147.9498
400.0866, 143.5854
400.5688, 140.7679
401.0509, 144.0014
401.5330, 159.5001
402.0151, 173.5075
402.4972, 178.9335
402.9793, 171.8343
403.4615, 166.3101
403.9436, 162.8137
404.4257, 160.5415
404.9078, 157.7233
405.3899, 153.5241
405.8720, 152.0349
406.3542, 156.0698
406.8363, 164.9244
407.3184, 168.4165
407.8005, 165.7686
408.2826, 161.1088
408.7647, 159.0491
409.2469, 159.2186
409.7290, 155.9411
410.2111, 146.0995
410.6932, 134.8501
411.1753, 134.2348
411.6574, 143.1878
412.1396, 151.2275
412.6217, 149.3526
413.1038, 142.3908
413.5859, 139.6706
414.0680, 142.4034
414.5501, 147.1687
415.0323, 153.3202
415.5144, 158.9867
415.9965, 160.6409
416.4786, 152.4793
416.9607, 142.8428
417.4428, 137.2374
417.9250, 135.7281
418.4071, 137.7609
418.8892, 148.6517
419.3713, 159.9733
419.8534, 163.9642
420.3355, 153.7029
420.8177, 144.6393
421.2998, 142.3804
421.7819, 144.8211
422.2640, 147.3229
422.7461, 148.4740
423.2282, 149.8394
423.7104, 152.5678
424.1925, 157.6804
424.6746, 160.0074
425.1567, 157.3069
425.6388, 153.0361
426.1209, 150.1557
426.6031, 149.0900
427.0852, 148.7956
427.5673, 149.3452
428.0494, 150.5980
428.5315, 152.0441
429.0136, 154.3919
429.4958, 155.4135
429.9779, 153.1310
430.4600, 146.7372
430.9421, 142.5735
431.4242, 140.9058
431.9063, 141.2863
432.3885, 144.6490
432.8706, 151.0408
433.3527, 153.7226
433.8348, 148.0835
434.3169, 137.6352
434.7990, 133.8741
435.2812, 136.8381
435.7633, 140.3459
436.2454, 137.4221
436.7275, 131.1818
437.2096, 129.5158
437.6917, 135.4860
438.1739, 142.6294
438.6560, 143.0998
439.1381, 139.0864
439.6202, 136.3705
440.1023, 140.5312
440.5844, 145.4875
441.0666, 145.5782
441.5487, 140.2591
442.0308, 135.2184
442.5129, 132.5900
442.9950, 131.9490
443.4771, 132.8900
443.9593, 137.6874
444.4414, 141.4870
444.9235, 142.9027
445.4056, 142.3043
445.8877, 141.0814
446.3698, 136.1076
446.8520, 133.4075
447.3341, 136.7507
447.8162, 150.3998
448.2983, 156.7018
448.7804, 150.9687
449.2625, 141.1158
449.7447, 136.5967
450.2268, 140.2309
450.7089, 142.4819
451.1910, 140.8223
451.6731, 136.3099
452.1552, 134.7101
452.6374, 136.5781
453.1195, 139.4010
453.6016, 143.0298
454.0837, 147.2777
454.5658, 145.1609
455.0479, 134.6057
455.5301, 122.6989
456.0122, 120.4268
456.4943, 126.4493
456.9764, 132.8292
457.4585, 136.5555
457.9406, 138.8807
458.4228, 142.7037
458.9049, 147.6810
459.3870, 150.7582
459.8691, 147.3968
460.3512, 141.7064
460.8333, 139.4602
461.3155, 143.3809
461.7976, 146.2567
462.2797, 141.2276
462.7618, 132.2426
463.2439, 126.2838
463.7260, 129.8874
464.2082, 133.5436
464.6903, 130.7146
465.1724, 121.2668
465.6545, 118.3230
466.1366, 134.0520
466.6187, 151.0531
467.1009, 157.9109
467.5830, 141.1972
468.0651, 131.8578
468.5472, 134.5124
469.0293, 143.3111
469.5114, 145.8931
469.9936, 138.1913
470.4757, 132.2031
470.9578, 132.8018
471.4399, 139.8849
471.9220, 141.9530
472.4041, 137.9738
472.8863, 132.0405
473.3684, 127.0652
473.8505, 123.0758
474.3326, 121.4551
474.8147, 122.8062
475.2968, 125.8417
475.7790, 129.2012
476.2611, 132.6455
476.7432, 134.5185
477.2253, 131.7059
477.7074, 127.6770
478.1895, 129.4395
478.6717, 137.0360
479.1538, 143.0529
479.6359, 139.4499
480.1180, 131.8736
480.6001, 127.4818
481.0822, 129.6363
481.5644, 132.7089
482.0465, 134.2769
482.5286, 134.6251
483.0107, 134.3688
483.4928, 132.5814
483.9749, 131.2277
484.4571, 131.5181
484.9392, 133.8598
485.4213, 135.0614
485.9034, 132.2379
486.3855, 129.9127
486.8676, 131.3955
487.3498, 140.1893
487.8319, 146.5401
488.3140, 149.7263
488.7961, 150.1979
489.2782, 148.1833
489.7603, 142.4403
490.2425, 138.5141
490.7246, 139.7408
491.2067, 145.3898
491.6888, 146.7502
492.1709, 143.2437
492.6530, 138.7532
493.1352, 136.5952
493.6173, 136.4422
494.0994, 136.9267
494.5815, 137.6372
495.0636, 139.2769
495.5457, 144.3373
496.0279, 151.3450
496.5100, 155.8976
496.9921, 154.0924
497.4742, 150.0399
497.9563, 146.8561
498.4384, 144.6547
498.9206, 143.7560
499.4027, 146.0404
499.8848, 148.6955
500.3669, 149.3970
500.8490, 146.6348
501.3311, 143.5892
501.8133, 139.7980
502.2954, 136.3130
502.7775, 135.0995
503.2596, 137.8666
503.7417, 141.2046
504.2238, 144.9335
504.7060, 149.0213
505.1881, 151.1676
505.6702, 151.5575
506.1523, 149.6503
506.6344, 144.0553
507.1165, 133.8759
507.5987, 126.5414
508.0808, 122.6055
508.5629, 121.6492
509.0450, 124.5127
509.5271, 130.8163
510.0092, 135.4432
510.4914, 136.2775
510.9735, 134.4991
511.4556, 131.4277
511.9377, 127.3794
512.4199, 124.8058
512.9020, 126.6246
513.3841, 130.3478
513.8662, 132.9462
514.3483, 133.8457
514.8304, 134.3556
515.3126, 135.9799
515.7947, 137.4647
516.2768, 137.2412
516.7589, 133.1396
517.2410, 129.0323
517.7231, 125.8297
518.2053, 123.5297
518.6874, 122.0199
519.1695, 121.1600
519.6516, 121.2660
520.1337, 122.7146
520.6158, 125.9946
521.0980, 128.5979
521.5801, 131.0592
522.0622, 132.1591
522.5443, 129.6410
523.0264, 122.3393
523.5085, 118.7566
523.9907, 121.2665
524.4728, 127.0092
524.9549, 129.8403
525.4370, 129.8607
525.9191, 129.3846
526.4012, 128.5806
526.8834, 128.3398
527.3655, 132.3245
527.8476, 140.3615
528.3297, 145.7425
528.8118, 140.8516
529.2939, 131.1065
529.7761, 123.0996
530.2582, 118.6453
530.7403, 115.4851
531.2224, 112.7651
531.7045, 110.4928
532.1866, 108.6876
532.6688, 106.1305
533.1509, 105.2549
533.6330, 108.0275
534.1151, 114.1983
534.5972, 117.7644
535.0793, 117.2425
535.5615, 115.5045
536.0436, 113.4524
536.5257, 110.1286
537.0078, 110.3676
537.4899, 115.7464
537.9720, 122.1875
538.4542, 124.2817
538.9363, 121.8222
539.4184, 118.4770
539.9005, 114.1148
540.3826, 110.5389
540.8647, 114.5777
541.3469, 124.8299
541.8290, 130.5419
542.3111, 119.9319
542.7932, 103.4074
543.2753, 98.20565
543.7574, 104.7669
544.2396, 110.2120
544.7217, 101.6369
545.2038, 89.48657
545.6859, 85.05379
546.1680, 96.45314
546.6501, 105.5790
547.1323, 102.9943
547.6144, 94.69584
548.0965, 91.09432
548.5786, 99.28165
549.0607, 106.0859
549.5428, 107.9032
550.0250, 105.4068
550.5071, 106.4135
550.9892, 114.1454
551.4713, 119.5554
551.9534, 115.7325
552.4355, 101.0691
552.9177, 94.96024
553.3998, 99.17348
553.8819, 106.6736
554.3640, 109.2972
554.8461, 107.7836
555.3282, 106.2419
555.8104, 105.7143
556.2925, 105.5837
556.7746, 105.5182
557.2567, 105.2531
557.7388, 103.9540
558.2209, 98.71697
558.7031, 94.08881
559.1852, 94.25368
559.6673, 99.14304
560.1494, 104.3748
560.6315, 109.9868
561.1136, 114.0664
561.5958, 115.0865
562.0779, 110.7071
562.5600, 107.3586
563.0421, 105.8416
563.5242, 105.2766
564.0063, 104.6497
564.4885, 104.0442
564.9706, 103.0587
565.4527, 101.0349
565.9348, 98.81224
566.4169, 99.97585
566.8990, 105.0249
567.3812, 109.1590
567.8633, 109.0777
568.3454, 105.9973
568.8275, 104.6225
569.3096, 105.0312
569.7917, 105.3469
570.2739, 103.4762
570.7560, 100.6114
571.2381, 98.50182
571.7202, 97.44673
572.2023, 97.30090
572.6844, 98.26837
573.1666, 100.0010
573.6487, 101.9950
574.1308, 106.7127
574.6129, 108.8993
575.0950, 104.1128
575.5771, 94.21458
576.0593, 91.03669
576.5414, 101.7052
577.0235, 110.4820
577.5056, 110.6337
577.9877, 100.9784
578.4698, 94.06523
578.9520, 90.07691
579.4341, 88.37140
579.9162, 89.03592
580.3983, 91.89516
580.8804, 94.59136
581.3625, 96.99495
581.8447, 98.52596
582.3268, 98.04603
582.8089, 96.00838
583.2910, 93.59230
583.7731, 89.57394
584.2552, 86.95247
584.7373, 90.96902
585.2194, 99.36396
585.7015, 103.6606
586.1837, 98.24451
586.6658, 89.21513
587.1479, 77.14590
587.6300, 60.42011
588.1121, 53.07008
588.5942, 65.25097
589.0764, 81.14253
589.5585, 90.92876
590.0406, 93.16039
590.5227, 92.14837
591.0048, 86.30052
591.4869, 79.38501
591.9691, 78.01020
592.4512, 82.46542
592.9333, 86.54600
593.4154, 88.45844
593.8975, 89.06950
594.3796, 90.37276
594.8618, 92.15104
595.3439, 93.15677
595.8260, 92.78194
596.3081, 91.17136
596.7902, 87.05272
597.2723, 80.59007
597.7545, 77.21588
598.2366, 84.36372
598.7187, 92.97525
599.2008, 95.48332
599.6829, 86.15905
600.1650, 80.64365
600.6472, 86.03808
601.1293, 94.18465
601.6114, 95.57281
602.0935, 85.53026
602.5756, 78.56160
603.0577, 77.70250
603.5399, 80.45143
604.0220, 79.50891
604.5041, 74.38959
604.9862, 70.78078
605.4683, 72.04500
605.9504, 76.46043
606.4326, 79.13855
606.9147, 80.14571
607.3968, 80.45341
607.8789, 80.71985
608.3610, 80.69650
608.8431, 79.46300
609.3253, 76.50090
609.8074, 75.36064
610.2895, 80.22021
610.7716, 86.70337
611.2537, 90.66354
611.7358, 88.78921
612.2180, 87.37804
612.7001, 88.15590
613.1822, 89.49343
613.6643, 88.40560
614.1464, 83.49673
614.6285, 79.26111
615.1107, 76.62675
615.5928, 75.46540
616.0749, 75.21101
616.5570, 75.86112
617.0391, 77.38248
617.5212, 80.74892
618.0034, 84.84734
618.4855, 86.43813
618.9676, 85.51062
619.4497, 84.12422
619.9318, 83.06886
620.4139, 82.83646
620.8961, 84.27219
621.3782, 88.11086
621.8603, 91.70258
622.3424, 94.41347
622.8245, 96.06253
623.3066, 96.44221
623.7888, 95.64049
624.2709, 93.24529
624.7530, 87.58009
625.2351, 80.75797
625.7172, 78.25887
626.1993, 81.50175
626.6815, 84.53258
627.1636, 85.22637
627.6457, 84.31999
628.1278, 85.29585
628.6099, 88.16254
629.0920, 90.55482
629.5742, 89.83928
630.0563, 87.92633
630.5384, 89.00972
631.0205, 93.32066
631.5026, 96.78526
631.9847, 97.26279
632.4669, 95.09286
632.9490, 89.59904
633.4311, 77.09106
633.9132, 69.91228
634.3953, 76.46584
634.8774, 87.99807
635.3596, 93.44548
635.8417, 86.55968
636.3238, 84.22240
636.8059, 90.92439
637.2880, 101.8375
637.7701, 104.1217
638.2523, 96.42330
638.7344, 90.30218
639.2165, 91.07146
639.6986, 95.88353
640.1807, 95.94661
640.6628, 91.84719
641.1450, 89.08743
641.6271, 93.54364
642.1092, 100.0056
642.5913, 102.3612
643.0734, 100.1721
643.5555, 97.10918
644.0377, 93.89040
644.5198, 91.19466
645.0019, 89.69186
645.4840, 90.39142
645.9661, 90.23201
646.4482, 87.53604
646.9304, 85.04523
647.4125, 86.33001
647.8946, 93.38960
648.3767, 97.06273
648.8588, 95.10572
649.3409, 90.69090
649.8231, 90.34920
650.3052, 93.64846
650.7873, 96.05141
651.2694, 95.42597
651.7515, 93.39641
652.2336, 91.83389
652.7158, 90.83945
653.1979, 90.70972
653.6800, 93.51390
654.1621, 95.69309
654.6442, 93.75832
655.1263, 87.59472
655.6085, 84.36545
656.0906, 88.65223
656.5727, 93.77000
657.0548, 96.27941
657.5369, 95.43775
658.0190, 95.26482
658.5012, 96.45834
658.9833, 97.02882
659.4654, 93.82465
659.9475, 87.10509
660.4296, 84.55817
660.9117, 87.94987
661.3939, 92.93530
661.8760, 94.55061
662.3581, 93.51201
662.8402, 91.28525
663.3223, 86.91924
663.8044, 83.60480
664.2866, 85.08881
664.7687, 89.16888
665.2508, 91.18438
665.7329, 85.91081
666.2150, 82.43042
666.6971, 85.57875
667.1793, 93.55516
667.6614, 96.32752
668.1435, 91.05252
668.6256, 86.45885
669.1077, 86.85833
669.5898, 91.57375
670.0720, 92.67547
670.5541, 89.89571
671.0362, 86.60521
671.5183, 84.37606
672.0004, 83.68709
672.4825, 87.00688
672.9647, 94.93721
673.4468, 100.4124
673.9289, 96.02866
674.4110, 87.87642
674.8931, 81.91924
675.3752, 78.97554
675.8574, 79.03719
676.3395, 84.90362
676.8216, 92.48629
677.3037, 97.14723
677.7858, 97.84843
678.2679, 97.80555
678.7501, 97.24371
679.2322, 96.26087
679.7143, 94.16377
680.1964, 91.02611
680.6785, 90.91673
681.1606, 96.99531
681.6428, 104.9636
682.1249, 107.0111
682.6070, 104.4399
683.0891, 101.9204
683.5712, 102.2092
684.0533, 103.1706
684.5355, 103.1292
685.0176, 102.2208
685.4997, 102.2434
685.9818, 104.7351
686.4639, 107.2594
686.9460, 108.7973
687.4282, 109.2405
687.9103, 109.3641
688.3924, 108.6293
688.8745, 108.8074
689.3566, 112.2922
689.8387, 118.6292
690.3209, 120.9735
690.8030, 118.4987
691.2851, 116.0288
691.7672, 118.8495
692.2493, 124.9296
692.7314, 131.3398
693.2136, 138.1031
693.6957, 143.0822
694.1778, 141.4386
694.6599, 138.6163
695.1420, 141.3223
695.6241, 159.5790
696.1063, 172.0997
696.5884, 174.0252
697.0705, 170.7361
697.5526, 172.0177
698.0347, 178.3956
698.5168, 187.5073
698.9990, 199.7098
699.4811, 213.3405
699.9632, 222.1923
700.4453, 227.6111
700.9274, 237.8875
701.4095, 255.7351
701.8917, 281.5288
702.3738, 316.3519
702.8559, 359.8935
703.3380, 409.5959
703.8201, 452.8875
704.3022, 512.9774
704.7844, 602.6771
705.2665, 724.5167
705.7486, 859.1688
706.2307, 1019.809
706.7128, 1174.559
707.1949, 1306.225
707.6771, 1414.091
708.1592, 1507.668
708.6413, 1585.502
709.1234, 1658.568
709.6055, 1727.652
710.0876, 1800.336
710.5698, 1893.041
711.0519, 2006.320
711.5340, 2148.896
712.0161, 2331.947
712.4982, 2546.156
712.9803, 2783.514
713.4625, 3042.249
713.9446, 3320.127
714.4267, 3606.453
714.9088, 3914.698
715.3909, 4259.281
715.8730, 4627.263
716.3552, 5069.606
716.8373, 5608.392
717.3194, 6190.527
717.8015, 6808.013
718.2836, 7426.890
718.7657, 7750.156
719.2479, 7690.124
719.7300, 7296.065
720.2121, 6458.175
720.6942, 5337.206
721.1763, 4271.862
721.6584, 3345.397
722.1406, 2573.500
722.6227, 2009.302
723.1048, 1625.995
723.5869, 1317.698
724.0690, 1097.140
724.5511, 923.6624
725.0333, 794.9229
725.5154, 705.5247
725.9975, 627.7703
726.4796, 560.8369
726.9617, 505.0751
727.4438, 462.8016
727.9260, 430.1928
728.4081, 402.0811
728.8902, 377.9351
729.3723, 353.8782
729.8544, 322.6146
730.3365, 294.2116
730.8187, 278.2474
731.3008, 276.4789
731.7829, 271.3915
732.2650, 257.1402
732.7471, 241.2768
733.2292, 226.7724
733.7114, 213.5705
734.1935, 202.4815
734.6756, 193.6919
735.1577, 186.1475
735.6398, 179.3034
736.1219, 172.9676
736.6041, 165.7350
737.0862, 157.2043
737.5683, 150.7099
738.0504, 152.3964
738.5325, 156.2240
739.0146, 154.6004
739.4968, 142.8792
739.9789, 133.9935
740.4610, 134.4226
740.9431, 137.8028
741.4252, 137.4728
741.9073, 131.1199
742.3895, 127.0257
742.8716, 126.1728
743.3537, 126.8559
743.8358, 127.6787
744.3179, 128.3067
744.8000, 125.2696
745.2822, 116.2588
745.7643, 107.3715
746.2464, 106.5434
746.7285, 110.5182
747.2106, 113.7052
747.6927, 113.7995
748.1749, 113.1307
748.6570, 112.0969
749.1391, 110.9008
749.6212, 110.1690
750.1033, 111.4545
750.5854, 109.9103
751.0676, 103.2502
751.5497, 94.39921
752.0318, 91.52031
752.5139, 94.41719
752.9960, 96.77782
753.4781, 95.87096
753.9603, 93.50878
754.4424, 91.52046
754.9245, 90.17660
755.4066, 90.32524
755.8887, 95.38571
756.3708, 99.04711
756.8530, 96.94550
757.3351, 90.36774
757.8172, 86.34402
758.2993, 86.20925
758.7814, 87.04002
759.2635, 87.94604
759.7457, 89.11157
760.2278, 92.53059
760.7099, 98.38933
761.1920, 102.0748
761.6741, 99.96214
762.1563, 94.51281
762.6384, 89.15766
763.1205, 84.09868
763.6026, 80.24125
764.0847, 79.48503
764.5668, 78.94234
765.0490, 75.38172
765.5311, 68.70586
766.0132, 68.39117
766.4953, 80.44600
766.9774, 90.78696
767.4595, 92.90263
767.9417, 87.13453
768.4238, 80.53054
768.9059, 72.83062
769.3880, 68.11360
769.8701, 72.02562
770.3522, 79.88581
770.8344, 83.29861
771.3165, 82.04335
771.7986, 79.53652
772.2807, 77.50368
772.7628, 75.13338
773.2449, 71.28368
773.7271, 65.24794
774.2092, 61.96436
774.6913, 63.11318
775.1734, 64.89895
775.6555, 64.45238
776.1376, 61.51665
776.6198, 63.31650
777.1019, 70.34525
777.5840, 77.33023
778.0661, 78.70010
778.5482, 77.31935
779.0303, 78.60798
779.5125, 83.23741
779.9946, 87.11903
780.4767, 87.95738
780.9588, 87.08094
781.4409, 85.41699
781.9230, 83.10638
782.4052, 79.61539
782.8873, 73.87949
783.3694, 68.42591
783.8515, 65.09584
784.3336, 63.89372
784.8157, 64.46761
785.2979, 66.95970
785.7800, 69.83974
786.2621, 72.12810
786.7442, 73.65369
787.2263, 73.56379
787.7084, 71.25085
788.1906, 70.65984
788.6727, 75.71669
789.1548, 81.95742
789.6369, 85.61998
790.1190, 85.31370
790.6011, 85.86603
791.0833, 88.57510
791.5654, 89.96962
792.0475, 85.10394
792.5296, 74.74612
793.0117, 69.31914
793.4938, 69.92905
793.9760, 72.93014
794.4581, 77.05922
794.9402, 80.45511
795.4223, 79.87086
795.9044, 73.50218
796.3865, 68.39877
796.8687, 67.46682
797.3508, 68.62022
797.8329, 70.32584
798.3150, 73.87964
798.7971, 73.91277
799.2792, 68.68289
799.7614, 63.83128
800.2435, 67.15593
800.7256, 76.40828
801.2077, 79.68837
801.6898, 75.10662
802.1719, 69.11570
802.6541, 67.19271
803.1362, 67.15170
803.6183, 66.22679
804.1004, 62.82066
804.5825, 61.74104
805.0646, 66.47642
805.5468, 72.12761
806.0289, 75.15858
806.5110, 75.12211
806.9931, 74.14220
807.4752, 72.06049
807.9573, 69.84905
808.4395, 68.43478
808.9216, 67.70972
809.4037, 67.34666
809.8858, 67.26978
810.3679, 67.82149
810.8500, 70.76951
811.3322, 73.53957
811.8143, 73.18172
812.2964, 66.18378
812.7785, 64.35650
813.2606, 71.77867
813.7427, 80.15620
814.2249, 82.54589
814.7070, 78.71712
815.1891, 73.94091
815.6712, 68.08180
816.1533, 63.95775
816.6354, 65.72804
817.1176, 70.54163
817.5997, 74.80749
818.0818, 78.39709
818.5639, 78.26035
819.0460, 66.04210
819.5281, 54.43739
820.0103, 54.92915
820.4924, 72.59373
820.9745, 82.26821
821.4566, 82.22475
821.9387, 77.86494
822.4208, 72.26239
822.9030, 65.91220
823.3851, 61.95976
823.8672, 60.54840
824.3493, 61.08216
824.8314, 65.32355
825.3135, 69.89849
825.7957, 70.63811
826.2778, 66.33714
826.7599, 64.06950
827.2420, 67.70866
827.7241, 71.71947
828.2062, 73.19363
828.6884, 71.82977
829.1705, 71.86070
829.6526, 73.63924
830.1347, 74.73167
830.6168, 71.73761
831.0989, 67.23104
831.5811, 67.04979
832.0632, 71.20164
832.5453, 74.97343
833.0274, 74.91425
833.5095, 74.07760
833.9916, 75.02940
834.4738, 78.29213
834.9559, 77.94450
835.4380, 72.09678
835.9201, 66.20673
836.4022, 62.37072
836.8843, 60.76121
837.3665, 64.38367
837.8486, 72.84102
838.3307, 78.64182
838.8128, 73.47209
839.2949, 65.62650
839.7770, 63.25266
840.2592, 66.07222
840.7413, 70.11076
841.2234, 76.45184
841.7055, 81.24447
842.1876, 83.13277
842.6697, 82.40456
843.1519, 80.77521
843.6340, 78.21642
844.1161, 74.71648
844.5982, 68.19009
845.0803, 62.27043
845.5624, 66.75658
846.0446, 78.73015
846.5267, 87.88684
847.0088, 88.41589
847.4909, 85.55374
847.9730, 79.78790
848.4551, 72.47978
848.9373, 68.25141
849.4194, 67.76429
849.9015, 69.11697
850.3836, 72.30721
850.8657, 76.59058
851.3478, 81.42845
851.8300, 86.23348
852.3121, 86.93330
852.7942, 78.89579
853.2763, 70.98765
853.7584, 72.18110
854.2405, 78.70475
854.7227, 83.95750
855.2048, 86.86252
855.6869, 87.17669
856.1690, 83.94741
856.6511, 78.98651
857.1332, 74.11265
857.6154, 69.12225
858.0975, 68.40693
858.5796, 73.72031
859.0617, 80.09498
859.5438, 80.21164
860.0259, 77.22444
860.5081, 76.69231
860.9902, 80.97801
861.4723, 85.57450
861.9544, 91.04009
862.4365, 94.54625
862.9186, 92.77528
863.4008, 82.24984
863.8829, 77.53922
864.3650, 80.16204
864.8471, 85.09813
865.3292, 87.99394
865.8113, 89.03897
866.2935, 88.65128
866.7756, 86.83781
867.2577, 84.27278
867.7398, 80.41964
868.2219, 76.67091
868.7040, 74.17565
869.1862, 73.35537
869.6683, 72.28966
870.1504, 70.04103
870.6325, 69.23610
871.1146, 72.70784
871.5967, 79.64446
872.0789, 82.20476
872.5610, 80.62414
873.0431, 78.80190
873.5252, 79.91036
874.0073, 81.69855
874.4894, 81.40168
874.9716, 79.32947
875.4537, 79.51757
875.9358, 85.21323
876.4179, 90.68414
876.9000, 94.28622
877.3821, 96.37099
877.8643, 98.97087
878.3464, 102.1032
878.8285, 103.5332
879.3106, 101.9539
879.7927, 98.36706
880.2748, 93.02013
880.7570, 86.73089
881.2391, 81.54755
881.7212, 77.59724
882.2033, 75.64705
882.6854, 76.24892
883.1675, 78.84642
883.6497, 83.39837
884.1318, 90.66383
884.6139, 95.25239
885.0960, 96.08533
885.5781, 93.95305
886.0602, 86.68570
886.5424, 77.80616
887.0245, 75.87428
887.5066, 87.16168
887.9887, 95.70827
888.4708, 91.32300
888.9529, 82.57509
889.4351, 78.35789
889.9172, 81.03291
890.3993, 82.01591
890.8814, 80.94051
891.3635, 78.99156
891.8456, 78.62868
892.3278, 78.15714
892.8099, 70.05824
893.2920, 53.62484
893.7741, 43.01488
894.2562, 53.56166
894.7383, 68.49707
895.2205, 75.26494
895.7026, 71.74331
896.1847, 73.98514
896.6668, 85.48323
897.1489, 94.57090
897.6310, 94.21683
898.1132, 86.82353
898.5953, 80.89549
899.0774, 76.41087
899.5595, 73.24261
900.0416, 69.88594
900.5237, 69.09300
901.0059, 75.56224
901.4880, 86.59450
901.9701, 91.94383
902.4522, 87.53825
902.9343, 83.01335
903.4164, 79.94761
903.8986, 78.14120
904.3807, 77.20071
904.8628, 77.10654
905.3449, 77.70683
905.8270, 79.02600
906.3091, 80.85929
906.7913, 84.13375
907.2734, 87.36023
907.7555, 88.61836
908.2376, 86.11488
908.7197, 83.73868
909.2018, 82.00511
909.6840, 79.92708
910.1661, 74.86915
910.6482, 67.52394
911.1303, 67.78044
911.6124, 76.76517
912.0945, 85.87489
912.5767, 89.62465
913.0588, 88.70164
913.5409, 80.63855
914.0230, 64.09410
914.5051, 57.88284
914.9872, 72.28722
915.4694, 87.20820
915.9515, 94.50459
916.4336, 94.85186
916.9157, 92.18800
917.3978, 86.68947
917.8799, 81.56342
918.3621, 77.45411
918.8442, 75.51812
919.3263, 79.15921
919.8084, 86.02468
920.2905, 89.44695
920.7726, 83.85121
921.2548, 79.51215
921.7369, 78.60592
922.2190, 79.39313
922.7011, 77.75281
923.1832, 73.94311
923.6653, 73.50761
924.1475, 78.53343
924.6296, 84.30583
925.1117, 86.13991
925.5938, 85.74093
926.0759, 85.30737
926.5580, 85.55491
927.0402, 85.10469
927.5223, 83.81942
928.0044, 81.83357
928.4865, 78.31824
928.9686, 73.34300
929.4507, 73.78053
929.9329, 79.81329
930.4150, 84.77105
930.8971, 80.40227
931.3792, 74.62843
931.8613, 76.75600
932.3434, 86.25682
932.8256, 93.06287
933.3077, 94.18179
933.7898, 93.04462
934.2719, 89.62913
934.7540, 84.97624
935.2361, 83.14941
935.7183, 83.94585
936.2004, 84.50846
936.6825, 82.86971
937.1646, 82.04338
937.6467, 88.07736
938.1288, 96.05341
938.6110, 98.10942
939.0931, 83.18034
939.5752, 75.59832
940.0573, 78.92024
940.5394, 86.83549
941.0215, 93.08759
941.5037, 97.73627
941.9858, 101.6683
942.4679, 105.0811
942.9500, 106.3369
943.4321, 101.5729
943.9142, 95.78236
944.3964, 93.38274
944.8785, 95.06403
945.3606, 97.65720
945.8427, 101.5241
946.3248, 105.1477
946.8069, 108.5633
947.2891, 111.0552
947.7712, 108.3797
948.2533, 101.3165
948.7354, 94.84198
949.2175, 90.10085
949.6996, 88.27740
950.1818, 92.76340
950.6639, 100.4147
951.1460, 104.3046
951.6281, 103.3944
952.1102, 99.24550
952.5923, 90.22517
953.0745, 81.31609
953.5566, 80.37161
954.0387, 85.38740
954.5208, 89.63984
955.0029, 92.21797
955.4850, 92.31567
955.9672, 86.76523
956.4493, 80.42430
956.9314, 77.13499
957.4135, 77.35937
957.8956, 78.44763
958.3777, 80.50087
958.8599, 83.21237
959.3420, 87.50661
959.8241, 91.84975
960.3062, 90.53914
960.7883, 85.22218
961.2704, 82.65886
961.7526, 90.04608
962.2347, 96.65743
962.7168, 97.62025
963.1989, 94.62325
963.6810, 90.68572
964.1631, 85.11498
964.6453, 82.23147
965.1274, 83.23743
965.6095, 85.27721
966.0916, 84.37466
966.5737, 82.06515
967.0558, 81.01851
967.5380, 81.78880
968.0201, 83.27757
968.5022, 86.87572
968.9843, 89.35301
969.4664, 88.33334
969.9485, 83.87199
970.4307, 81.27896
970.9128, 80.55841
971.3949, 82.01064
971.8770, 87.75824
972.3591, 94.37615
972.8412, 98.69263
973.3234, 100.4898
973.8055, 99.27367
974.2876, 88.99809
974.7697, 83.87487
975.2518, 88.37479
975.7339, 96.72000
976.2161, 99.10114
976.6982, 96.13747
977.1803, 95.65141
977.6624, 99.40698
978.1445, 102.6280
978.6266, 100.3963
979.1088, 96.08332
979.5909, 92.02556
980.0730, 87.75566
980.5551, 90.27944
981.0372, 105.2321
981.5193, 115.5157
982.0015, 108.4534
982.4836, 91.33913
982.9657, 92.19643
983.4478, 107.3246
983.9299, 119.3941
984.4120, 115.3874
984.8942, 110.3634
985.3763, 111.5773
985.8584, 117.2755
986.3405, 124.1015
986.8226, 133.7508
987.3047, 137.6827
987.7869, 133.6980
988.2690, 128.1662
988.7511, 130.8985
989.2332, 136.7271
989.7153, 134.5016
990.1974, 121.9425
990.6796, 114.1594
991.1617, 121.4508
991.6438, 131.0331
992.1259, 136.9124
992.6080, 139.4322
993.0901, 141.4530
993.5723, 142.9514
994.0544, 146.3414
994.5365, 154.1378
995.0186, 162.6202
995.5007, 165.9669
995.9828, 167.4212
996.4650, 172.9954
996.9471, 190.9562
997.4292, 203.0568
997.9113, 206.7908
998.3934, 206.8179
998.8755, 206.0114
999.3577, 205.4966
999.8398, 213.3403
1000.322, 230.0987
1000.804, 245.8405
1001.286, 253.2230
1001.768, 257.8279
1002.250, 262.4735
1002.732, 267.5905
1003.215, 274.9216
1003.697, 285.3513
1004.179, 294.6353
1004.661, 301.0504
1005.143, 306.4002
1005.625, 314.8235
1006.107, 324.5466
1006.589, 331.5782
1007.072, 332.3558
1007.554, 335.0758
1008.036, 343.8530
1008.518, 354.3984
1009.000, 364.4240
1009.482, 374.1034
1009.964, 378.8621
1010.446, 378.5334
1010.928, 379.8780
1011.411, 390.7787
1011.893, 403.3038
1012.375, 409.0286
1012.857, 409.3075
1013.339, 411.9554
1013.821, 419.9402
1014.303, 426.9112
1014.785, 431.0011
1015.268, 434.5782
1015.750, 442.9959
1016.232, 454.4056
1016.714, 462.3419
1017.196, 465.1128
1017.678, 467.1650
1018.160, 469.9095
1018.642, 474.0219
1019.124, 480.3835
1019.607, 489.0269
1020.089, 497.0977
1020.571, 504.5797
1021.053, 511.7290
1021.535, 520.2065
1022.017, 526.9991
1022.499, 524.6509
1022.981, 517.6241
1023.464, 516.0558
1023.946, 531.5767
1024.428, 540.5609
1024.910, 536.3216
1025.392, 529.8416
1025.874, 536.3109
1026.356, 553.0628
1026.838, 560.7512
1027.320, 557.8458
1027.803, 553.9710
1028.285, 558.3719
1028.767, 562.2994
1029.249, 558.8773
1029.731, 548.6102
1030.213, 538.1965
1030.695, 526.6415
1031.177, 518.9125
1031.660, 516.8586
1032.142, 518.2352
1032.624, 520.6397
1033.106, 523.6057
1033.588, 526.0670
1034.070, 527.1608
1034.552, 529.4496
1035.034, 533.9724
1035.516, 539.4598
1035.999, 545.6227
1036.481, 552.2939
1036.963, 557.6468
1037.445, 561.6600
1037.927, 565.1594
1038.409, 565.7921
1038.891, 568.7985
1039.373, 580.9194
1039.855, 597.7677
1040.338, 608.1135
1040.820, 606.9929
1041.302, 613.5191
1041.784, 631.4009
1042.266, 651.5867
1042.748, 660.9847
1043.230, 666.6318
1043.712, 682.6061
1044.195, 710.6115
1044.677, 737.6132
1045.159, 762.6082
1045.641, 780.9803
1046.123, 787.7839
1046.605, 788.0585
1047.087, 800.2238
1047.569, 823.1790
1048.052, 844.9174
1048.534, 861.0269
1049.016, 876.5931
1049.498, 896.2878
1049.980, 917.3527
1050.462, 936.0450
1050.944, 950.1813
1051.426, 970.9474
1051.908, 999.8198
1052.391, 1029.329
1052.873, 1055.354
1053.355, 1078.940
1053.837, 1100.816
1054.319, 1121.934
1054.801, 1145.278
1055.283, 1172.647
1055.765, 1201.651
1056.247, 1232.150
1056.730, 1263.794
1057.212, 1296.623
1057.694, 1330.357
1058.176, 1361.605
1058.658, 1389.896
1059.140, 1422.696
1059.622, 1464.402
1060.104, 1512.371
1060.587, 1563.724
1061.069, 1619.351
1061.551, 1685.713
1062.033, 1763.444
1062.515, 1849.319
1062.997, 1943.653
1063.479, 2040.942
1063.961, 2144.688
1064.443, 2243.319
1064.926, 2322.424
1065.408, 2383.042
1065.890, 2402.129
1066.372, 2357.549
1066.854, 2310.057
1067.336, 2288.621
1067.818, 2293.675
1068.300, 2327.779
1068.782, 2390.443
1069.265, 2480.046
1069.747, 2590.781
1070.229, 2733.898
1070.711, 2905.986
1071.193, 3116.810
1071.675, 3370.638
1072.157, 3661.365
1072.639, 4033.662
1073.122, 4485.231
1073.604, 5048.563
1074.086, 5729.418
1074.568, 6544.673
1075.050, 7559.259
1075.532, 8736.699
1076.014, 9885.807
1076.496, 10952.81
1076.979, 12051.35
1077.461, 13161.98
1077.943, 14393.94
1078.425, 15816.30
1078.907, 17506.61
1079.389, 19582.41
1079.871, 22071.25
1080.353, 25034.46
1080.835, 28203.30
1081.318, 32243.88
1081.800, 37335.02
1082.282, 43482.90
1082.764, 50597.02
1083.246, 58751.39
1083.728, 68141.22
1084.210, 79426.39
1084.692, 90814.48
1085.174, 104343.2
1085.656, 115154.6
1086.139, 119011.1
1086.621, 115772.6
1087.103, 105202.0
1087.585, 86738.23
1088.067, 67539.20
1088.549, 50883.42
1089.031, 37223.65
1089.513, 27369.02
1089.996, 20686.33
1090.478, 15688.72
1090.960, 12611.46
1091.442, 10189.77
1091.924, 8411.357
1092.406, 7065.733
1092.888, 5998.536
1093.370, 5169.253
1093.853, 4493.651
1094.335, 3959.395
1094.817, 3506.221
1095.299, 3141.170
1095.781, 2828.358
1096.263, 2560.165
1096.745, 2331.760
1097.227, 2130.144
1097.709, 1953.738
1098.192, 1800.045
1098.674, 1669.021
1099.156, 1550.413
1099.638, 1436.078
1100.120, 1332.640
1100.602, 1246.456
1101.084, 1175.392
1101.566, 1109.544
1102.048, 1048.717
1102.531, 990.5704
1103.013, 933.5876
1103.495, 881.1224
1103.977, 839.0328
1104.459, 803.6630
1104.941, 769.9357
1105.423, 737.7007
1105.905, 705.9316
1106.388, 673.9489
1106.870, 644.4128
1107.352, 619.9891
1107.834, 598.3551
1108.316, 573.0618
1108.798, 546.0582
1109.280, 522.5271
1109.762, 504.6208
1110.245, 490.0971
1110.727, 480.5203
1111.209, 470.8438
1111.691, 454.4456
1112.173, 433.4698
1112.655, 415.7216
1113.137, 401.4444
1113.619, 390.2852
1114.101, 385.7608
1114.583, 379.9802
1115.066, 369.4294
1115.548, 355.9836
1116.030, 342.5515
1116.512, 329.0749
1116.994, 315.7042
1117.476, 302.1417
1117.958, 292.5392
1118.440, 295.7095
1118.923, 299.3868
1119.405, 292.0253
1119.887, 275.8521
1120.369, 267.2505
1120.851, 267.3438
1121.333, 265.5244
1121.815, 258.4649
1122.297, 249.5866
1122.780, 240.6763
1123.262, 233.1274
1123.744, 229.0220
1124.226, 229.5329
1124.708, 229.1926
1125.190, 228.2227
1125.672, 225.4360
1126.154, 219.8035
1126.636, 212.6003
1127.119, 203.9230
1127.601, 195.8891
1128.083, 193.0539
1128.565, 200.2123
1129.047, 205.2137
1129.529, 207.6027
1130.011, 206.4994
1130.493, 199.9794
1130.975, 189.7808
1131.458, 180.0157
1131.940, 171.4681
1132.422, 167.1092
1132.904, 171.2720
1133.386, 176.1010
1133.868, 181.2757
1134.350, 184.5664
1134.832, 182.3672
1135.315, 175.5660
1135.797, 172.4884
1136.279, 173.1626
1136.761, 173.5567
1137.243, 170.8056
1137.725, 167.5294
1138.207, 164.7428
1138.689, 162.4142
1139.172, 160.6808
1139.654, 159.5508
1140.136, 158.2206
1140.618, 156.6403
1141.100, 154.1389
1141.582, 148.5334
1142.064, 143.2133
1142.546, 141.2222
1143.028, 138.5179
1143.510, 137.3585
1143.993, 138.6186
1144.475, 138.9372
1144.957, 143.7985
1145.439, 149.2882
1145.921, 153.0179
1146.403, 153.8769
1146.885, 149.2477
1147.367, 138.5811
1147.850, 132.0521
1148.332, 130.4616
1148.814, 130.7785
1149.296, 132.6207
1149.778, 134.5506
1150.260, 133.9960
1150.742, 132.4060
1151.224, 132.1281
1151.707, 134.0754
1152.189, 135.1404
1152.671, 135.3438
1153.153, 134.0657
1153.635, 130.2982
1154.117, 125.6717
1154.599, 122.0062
1155.081, 120.3342
1155.563, 123.8355
1156.046, 139.0378
1156.528, 145.5655
1157.010, 137.4796
1157.492, 127.6002
1157.974, 124.6059
1158.456, 126.1697
1158.938, 124.2117
1159.420, 120.0235
1159.902, 117.7247
1160.385, 119.7046
1160.867, 123.0696
1161.349, 130.0492
1161.831, 134.6903
1162.313, 129.2306
1162.795, 116.2982
1163.277, 111.0628
1163.759, 113.0367
1164.242, 118.3109
1164.724, 130.5435
1165.206, 138.6176
1165.688, 136.9331
1166.170, 130.6440
1166.652, 123.7401
1167.134, 116.7181
1167.616, 116.9331
1168.099, 124.1285
1168.581, 129.3914
1169.063, 125.3128
1169.545, 119.9155
1170.027, 115.5775
1170.509, 113.3686
1170.991, 115.3865
1171.473, 121.5217
1171.955, 130.7499
1172.438, 143.0272
1172.920, 150.6275
1173.402, 142.3750
1173.884, 132.7592
1174.366, 133.2452
1174.848, 127.8187
1175.330, 124.8699
1175.812, 127.0823
1176.294, 123.0482
1176.777, 127.8047
1177.259, 133.0201
1177.741, 128.7220
1178.223, 124.7231
1178.705, 131.0643
1179.187, 144.8129
1179.669, 151.7994
1180.151, 151.7572
1180.634, 149.6181
1181.116, 146.1542
1181.598, 142.7699
1182.080, 141.4488
1182.562, 140.3212
1183.044, 136.9236
1183.526, 131.5290
1184.008, 129.3484
1184.490, 130.6965
1184.973, 132.0472
1185.455, 132.2421
1185.937, 132.2688
1186.419, 134.1467
1186.901, 135.7489
1187.383, 134.0847
1187.865, 128.7375
1188.347, 125.8421
1188.829, 125.7350
1189.312, 125.3641
1189.794, 122.7915
1190.276, 121.1057
1190.758, 126.2961
1191.240, 133.0092
1191.722, 133.7086
1192.204, 126.1184
1192.686, 123.6151
1193.169, 126.9733
1193.651, 130.5425
1194.133, 131.7580
1194.615, 131.8072
1195.097, 131.9318
1195.579, 131.8746
1196.061, 131.2761
1196.543, 130.1400
1197.026, 127.9803
1197.508, 124.4423
1197.990, 121.9406
1198.472, 121.6272
1198.954, 123.3360
1199.436, 129.7887
1199.918, 137.0596
1200.400, 137.7211
1200.882, 126.2799
1201.365, 124.1806
1201.847, 133.2195
1202.329, 141.6361
1202.811, 141.8104
1203.293, 137.0751
1203.775, 127.4642
1204.257, 116.9839
1204.739, 113.7039
1205.221, 122.5223
1205.704, 127.5074
1206.186, 128.0664
1206.668, 127.8340
1207.150, 130.3469
1207.632, 132.7749
1208.114, 131.6341
1208.596, 127.9333
1209.078, 123.8743
1209.561, 119.3117
1210.043, 115.3889
1210.525, 111.9851
1211.007, 109.8962
1211.489, 110.2096
1211.971, 111.7177
1212.453, 112.8262
1212.935, 114.0793
1213.417, 117.6478
1213.900, 126.6156
1214.382, 126.3657
1214.864, 114.3810
1215.346, 104.7597
1215.828, 115.4579
1216.310, 129.4473
1216.792, 123.9272
1217.274, 107.0473
1217.756, 105.5708
1218.239, 126.8854
1218.721, 139.0116
1219.203, 139.2069
1219.685, 134.1516
1220.167, 125.7214
1220.649, 118.2185
1221.131, 117.5150
1221.613, 121.2160
1222.096, 121.1395
1222.578, 115.9802
1223.060, 112.1306
1223.542, 110.2840
1224.024, 108.8715
1224.506, 105.2666
1224.988, 102.5768
1225.470, 104.3390
1225.953, 109.3646
1226.435, 113.2367
1226.917, 115.9286
1227.399, 117.1410
1227.881, 116.7141
1228.363, 116.2868
1228.845, 116.8091
1229.327, 118.3402
1229.809, 123.2958
1230.292, 128.8736
1230.774, 126.4958
1231.256, 115.2557
1231.738, 106.6075
1232.220, 101.8055
1232.702, 101.1779
1233.184, 109.7009
1233.666, 117.9046
1234.148, 118.0366
1234.631, 112.9364
1235.113, 108.9640
1235.595, 106.1266
1236.077, 107.0568
1236.559, 112.2812
1237.041, 116.1054
1237.523, 113.1827
1238.005, 108.7256
1238.488, 103.8853
1238.970, 100.7274
1239.452, 106.2476
1239.934, 119.2088
1240.416, 122.5409
1240.898, 113.9549
1241.380, 105.4109
1241.862, 103.4313
1242.344, 105.3548
1242.827, 112.3250
1243.309, 120.3296
1243.791, 121.0848
1244.273, 115.7530
1244.755, 109.8867
1245.237, 104.1874
1245.719, 102.6027
1246.201, 111.3288
1246.683, 119.8358
1247.166, 124.5707
1247.648, 126.3722
1248.130, 126.1776
1248.612, 124.2363
1249.094, 120.3724
1249.576, 114.7178
1250.058, 111.7654
1250.540, 117.6239
1251.023, 120.7919
1251.505, 117.4766
1251.987, 111.5211
1252.469, 108.3240
1252.951, 107.4105
1253.433, 107.5714
1253.915, 108.7071
1254.397, 111.6324
1254.880, 120.4840
1255.362, 124.0241
1255.844, 118.3843
1256.326, 110.2684
1256.808, 107.8229
1257.290, 109.8645
1257.772, 117.4957
1258.254, 129.5954
1258.736, 131.4480
1259.219, 115.6174
1259.701, 104.6433
1260.183, 102.6496
1260.665, 106.4672
1261.147, 117.9595
1261.629, 129.3002
1262.111, 128.6094
1262.593, 117.0974
1263.075, 111.4078
1263.558, 113.9037
1264.040, 115.4163
1264.522, 114.3668
1265.004, 112.3324
1265.486, 109.4517
1265.968, 107.4775
1266.450, 108.4030
1266.932, 111.8379
1267.415, 115.3771
1267.897, 119.0490
1268.379, 123.2757
1268.861, 128.3038
1269.343, 130.9096
1269.825, 125.7583
1270.307, 119.9898
1270.789, 119.6729
1271.271, 121.9938
1271.754, 121.3214
1272.236, 117.7798
1272.718, 112.3439
1273.200, 105.2361
1273.682, 101.9493
1274.164, 110.6279
1274.646, 118.4087
1275.128, 119.6542
1275.610, 117.1096
1276.093, 114.5773
1276.575, 112.0930
1277.057, 108.6941
1277.539, 104.7216
1278.021, 104.6501
1278.503, 114.8710
1278.985, 123.6083
1279.467, 128.8022
1279.950, 130.6711
1280.432, 128.0891
1280.914, 123.0637
1281.396, 119.7506
1281.878, 118.2661
1282.360, 117.7107
1282.842, 119.8177
1283.324, 118.4901
1283.807, 111.9335
1284.289, 105.5749
1284.771, 105.9800
1285.253, 109.3414
1285.735, 112.0250
1286.217, 113.1892
1286.699, 109.9832
1287.181, 100.2584
1287.663, 94.81847
1288.146, 94.75180
1288.628, 97.51855
1289.110, 103.5914
1289.592, 109.1230
1290.074, 109.5833
1290.556, 107.4672
1291.038, 109.4326
1291.520, 116.2667
1292.002, 112.2197
1292.485, 97.09241
1292.967, 87.52205
1293.449, 102.1652
1293.931, 116.3190
1294.413, 114.1640
1294.895, 106.9633
1295.377, 106.6885
1295.859, 112.0661
1296.342, 112.6199
1296.824, 109.2617
1297.306, 108.6587
1297.788, 119.3728
1298.270, 125.1914
1298.752, 121.8608
1299.234, 115.6414
1299.716, 111.3101
1300.198, 108.4310
1300.681, 104.9079
1301.163, 101.9496
1301.645, 102.7019
1302.127, 108.1633
##END=



