##NAMES=Rhodochrosite
##RRUFFID=R050019
##IDEAL CHEMISTRY=Mn^2+^CO_3_
##LOCALITY=Home Sweet Home mine, Colorado, USA
##OWNER=RRUFF
##SOURCE=Eugene Schlepp
##DESCRIPTION=Pink single crystal rhombs on quartz
##STATUS=The identification of this mineral has been confirmed by X-ray diffraction and chemical analysis
##URL=rruff.info/R050019
##MEASURED CHEMISTRY=Mn_1.00_CO_3_
133.2699, 32.24170
133.7520, 37.40723
134.2341, 42.36438
134.7162, 45.56134
135.1983, 47.01415
135.6804, 48.35968
136.1626, 49.61210
136.6447, 50.71714
137.1268, 51.57124
137.6089, 52.16756
138.0910, 52.51126
138.5731, 52.40442
139.0553, 51.59499
139.5374, 51.59172
140.0195, 52.81862
140.5016, 54.86445
140.9837, 56.13909
141.4658, 56.65181
141.9480, 56.39859
142.4301, 55.02656
142.9122, 51.10503
143.3943, 49.15130
143.8764, 50.14730
144.3585, 54.02052
144.8407, 57.94769
145.3228, 63.32113
145.8049, 67.65475
146.2870, 68.27074
146.7691, 60.44948
147.2512, 55.10598
147.7334, 55.16362
148.2155, 62.36983
148.6976, 67.10993
149.1797, 67.17357
149.6618, 65.40733
150.1439, 65.56739
150.6261, 70.40637
151.1082, 74.69907
151.5903, 76.78867
152.0724, 75.02787
152.5545, 74.67865
153.0366, 77.60982
153.5188, 82.15054
154.0009, 85.00468
154.4830, 83.68015
154.9651, 82.10699
155.4472, 82.07763
155.9293, 85.01415
156.4115, 87.73596
156.8936, 89.39545
157.3757, 90.29986
157.8578, 91.54168
158.3399, 94.05416
158.8221, 96.64575
159.3042, 98.56561
159.7863, 99.44861
160.2684, 99.81359
160.7505, 99.00689
161.2326, 97.33215
161.7148, 97.21296
162.1969, 99.61382
162.6790, 104.0984
163.1611, 110.1941
163.6432, 120.9554
164.1253, 130.7878
164.6075, 135.5918
165.0896, 135.1802
165.5717, 135.6645
166.0538, 140.5316
166.5359, 148.4438
167.0180, 157.4571
167.5002, 167.7641
167.9823, 178.3152
168.4644, 188.0253
168.9465, 196.6157
169.4286, 205.7530
169.9107, 216.7173
170.3929, 229.0835
170.8750, 242.2514
171.3571, 256.3208
171.8392, 270.7076
172.3213, 284.2758
172.8034, 296.1152
173.2856, 309.2095
173.7677, 325.9131
174.2498, 346.1411
174.7319, 369.2277
175.2140, 394.1078
175.6961, 421.7232
176.1783, 453.6281
176.6604, 490.0983
177.1425, 530.2629
177.6246, 571.7604
178.1067, 614.8793
178.5888, 664.4206
179.0710, 723.3575
179.5531, 790.4894
180.0352, 863.1415
180.5173, 942.0078
180.9994, 1023.998
181.4815, 1104.933
181.9637, 1185.323
182.4458, 1258.838
182.9279, 1335.751
183.4100, 1405.978
183.8921, 1432.904
184.3742, 1400.862
184.8564, 1321.156
185.3385, 1212.020
185.8206, 1070.663
186.3027, 922.3962
186.7848, 782.7469
187.2669, 653.7292
187.7491, 545.5424
188.2312, 465.7827
188.7133, 410.0392
189.1954, 361.7049
189.6775, 321.2661
190.1596, 287.5423
190.6418, 259.8167
191.1239, 238.1477
191.6060, 219.2125
192.0881, 201.4788
192.5702, 185.1637
193.0524, 172.4576
193.5345, 163.7775
194.0166, 157.6751
194.4987, 152.7077
194.9808, 148.9658
195.4629, 144.9738
195.9451, 139.5630
196.4272, 132.7202
196.9093, 127.7254
197.3914, 124.9839
197.8735, 123.6138
198.3556, 122.2908
198.8378, 121.1368
199.3199, 119.3073
199.8020, 115.6348
200.2841, 109.8860
200.7662, 106.4930
201.2483, 106.3526
201.7305, 108.1190
202.2126, 108.5310
202.6947, 107.3916
203.1768, 105.6324
203.6589, 103.8176
204.1410, 102.0270
204.6232, 99.54148
205.1053, 95.71735
205.5874, 91.40984
206.0695, 89.77821
206.5516, 91.56707
207.0337, 94.07706
207.5159, 95.45683
207.9980, 95.41545
208.4801, 95.56446
208.9622, 96.31310
209.4443, 97.39709
209.9264, 97.31989
210.4086, 95.54420
210.8907, 93.68209
211.3728, 93.17525
211.8549, 94.57384
212.3370, 95.37496
212.8191, 94.92113
213.3013, 93.45087
213.7834, 93.28071
214.2655, 95.47755
214.7476, 97.25636
215.2297, 95.63433
215.7118, 88.70789
216.1940, 83.74501
216.6761, 82.80564
217.1582, 85.61829
217.6403, 85.86535
218.1224, 81.99615
218.6045, 77.63036
219.0867, 76.49188
219.5688, 80.01491
220.0509, 83.43663
220.5330, 85.84488
221.0151, 87.26509
221.4972, 87.92326
221.9794, 87.42692
222.4615, 86.61387
222.9436, 86.40116
223.4257, 87.07120
223.9078, 87.74985
224.3899, 88.08790
224.8721, 88.00140
225.3542, 88.87028
225.8363, 91.47381
226.3184, 94.30199
226.8005, 95.48974
227.2827, 94.21207
227.7648, 92.86047
228.2469, 92.20480
228.7290, 92.47973
229.2111, 91.42875
229.6932, 87.67792
230.1754, 83.72564
230.6575, 83.18800
231.1396, 88.48314
231.6217, 92.90665
232.1038, 94.31941
232.5859, 91.97934
233.0681, 90.63567
233.5502, 90.65163
234.0323, 91.40186
234.5144, 92.02267
234.9965, 92.51093
235.4786, 92.85732
235.9608, 92.95325
236.4429, 92.62531
236.9250, 92.85873
237.4071, 93.83582
237.8892, 95.26205
238.3713, 96.77367
238.8535, 98.79259
239.3356, 100.1850
239.8177, 100.4930
240.2998, 99.42757
240.7819, 98.23363
241.2640, 96.09837
241.7462, 94.28653
242.2283, 95.35120
242.7104, 101.6964
243.1925, 106.9532
243.6746, 108.7527
244.1567, 105.9059
244.6389, 103.5339
245.1210, 101.2981
245.6031, 99.73289
246.0852, 100.0080
246.5673, 103.2132
247.0494, 106.3931
247.5316, 108.2974
248.0137, 108.1461
248.4958, 109.5386
248.9779, 113.5118
249.4600, 118.4393
249.9421, 121.0392
250.4243, 120.0718
250.9064, 119.0330
251.3885, 119.2427
251.8706, 121.1262
252.3527, 122.8666
252.8348, 124.4171
253.3170, 125.8499
253.7991, 127.1587
254.2812, 127.8678
254.7633, 129.3453
255.2454, 132.4231
255.7275, 137.8372
256.2097, 141.9879
256.6918, 144.5401
257.1739, 146.0147
257.6560, 147.1375
258.1381, 147.2378
258.6202, 148.3942
259.1024, 151.7115
259.5845, 157.8482
260.0666, 163.2376
260.5487, 167.6142
261.0308, 171.4332
261.5129, 175.6202
261.9951, 180.0086
262.4772, 185.0910
262.9593, 191.3178
263.4414, 199.2494
263.9235, 205.4713
264.4056, 208.5635
264.8878, 211.3538
265.3699, 219.3685
265.8520, 234.2481
266.3341, 249.8555
266.8162, 263.5508
267.2983, 274.4774
267.7805, 288.1283
268.2626, 304.3685
268.7447, 323.3939
269.2268, 344.9657
269.7089, 368.3043
270.1910, 396.8927
270.6732, 433.7992
271.1553, 479.8697
271.6374, 524.0624
272.1195, 565.1599
272.6016, 606.2657
273.0837, 650.3588
273.5659, 697.3659
274.0480, 748.5001
274.5301, 804.5082
275.0122, 865.1495
275.4943, 931.5360
275.9764, 1003.914
276.4586, 1081.577
276.9407, 1162.753
277.4228, 1245.748
277.9049, 1337.478
278.3870, 1440.264
278.8691, 1553.928
279.3513, 1673.719
279.8334, 1798.747
280.3155, 1932.193
280.7976, 2080.856
281.2798, 2243.900
281.7619, 2411.667
282.2440, 2581.196
282.7261, 2752.426
283.2082, 2925.757
283.6903, 3101.954
284.1725, 3277.437
284.6546, 3448.929
285.1367, 3615.022
285.6188, 3778.203
286.1009, 3949.690
286.5830, 4119.790
287.0652, 4252.035
287.5473, 4346.819
288.0294, 4394.489
288.5115, 4382.516
288.9936, 4311.777
289.4757, 4192.566
289.9579, 4019.563
290.4400, 3802.585
290.9221, 3555.547
291.4042, 3276.645
291.8863, 2990.206
292.3684, 2711.474
292.8506, 2443.661
293.3327, 2195.924
293.8148, 1967.615
294.2969, 1761.447
294.7790, 1579.068
295.2611, 1419.846
295.7433, 1280.956
296.2254, 1161.579
296.7075, 1058.503
297.1896, 967.1749
297.6717, 886.1489
298.1538, 813.6182
298.6360, 748.1930
299.1181, 689.3310
299.6002, 637.6901
300.0823, 594.9148
300.5644, 559.0258
301.0465, 525.9266
301.5287, 494.6555
302.0108, 465.6232
302.4929, 439.9992
302.9750, 417.4188
303.4571, 397.2446
303.9392, 378.9812
304.4214, 362.6957
304.9035, 348.2127
305.3856, 336.3078
305.8677, 325.4289
306.3498, 314.1599
306.8319, 302.9123
307.3141, 292.9009
307.7962, 286.0919
308.2783, 280.4384
308.7604, 273.4926
309.2425, 263.8505
309.7246, 255.2037
310.2068, 251.8207
310.6889, 251.4966
311.1710, 248.4807
311.6531, 236.5564
312.1352, 222.9705
312.6173, 213.3734
313.0995, 209.7982
313.5816, 207.2211
314.0637, 202.8871
314.5458, 197.9279
315.0279, 194.4327
315.5100, 195.1767
315.9922, 196.1075
316.4743, 194.7791
316.9564, 190.2868
317.4385, 186.1225
317.9206, 183.8127
318.4027, 182.4346
318.8849, 180.6981
319.3670, 178.3193
319.8491, 175.4690
320.3312, 171.7210
320.8133, 166.6344
321.2954, 163.1486
321.7776, 163.5636
322.2597, 165.1644
322.7418, 165.0572
323.2239, 160.0253
323.7060, 156.0439
324.1881, 155.3685
324.6703, 158.4774
325.1524, 159.4781
325.6345, 156.7735
326.1166, 152.4277
326.5987, 148.0565
327.0808, 142.6361
327.5630, 138.4111
328.0451, 135.6904
328.5272, 134.4506
329.0093, 134.3134
329.4914, 136.9972
329.9735, 139.2328
330.4557, 138.6136
330.9378, 132.1291
331.4199, 128.1279
331.9020, 128.2643
332.3841, 131.5344
332.8662, 132.9558
333.3484, 131.6503
333.8305, 129.8066
334.3126, 128.5689
334.7947, 128.0951
335.2768, 127.8995
335.7589, 128.4167
336.2411, 128.9460
336.7232, 127.3110
337.2053, 122.6419
337.6874, 118.3837
338.1695, 116.4967
338.6516, 117.3814
339.1338, 116.9832
339.6159, 114.5937
340.0980, 111.9327
340.5801, 112.9120
341.0622, 118.1387
341.5443, 121.4123
342.0265, 119.0139
342.5086, 111.7566
342.9907, 107.0298
343.4728, 105.0313
343.9549, 104.9520
344.4370, 106.9031
344.9192, 110.5537
345.4013, 112.7048
345.8834, 111.1853
346.3655, 107.6246
346.8476, 106.5904
347.3297, 108.1484
347.8119, 110.3119
348.2940, 111.7813
348.7761, 112.4311
349.2582, 111.7177
349.7403, 108.5750
350.2225, 104.9275
350.7046, 103.7988
351.1867, 104.9143
351.6688, 106.2359
352.1509, 105.8264
352.6331, 104.8036
353.1152, 105.1659
353.5973, 108.4006
354.0794, 111.1519
354.5615, 109.5657
355.0436, 104.8467
355.5258, 100.6612
356.0079, 99.44035
356.4900, 99.40342
356.9721, 98.93439
357.4542, 97.55662
357.9363, 96.52325
358.4185, 96.67406
358.9006, 97.63042
359.3827, 98.73713
359.8648, 100.6860
360.3469, 101.9687
360.8290, 101.1881
361.3112, 97.77545
361.7933, 95.67596
362.2754, 97.40156
362.7575, 100.5959
363.2396, 102.7068
363.7217, 102.8070
364.2039, 102.0933
364.6860, 100.3462
365.1681, 97.56012
365.6502, 95.77900
366.1323, 95.28288
366.6144, 95.81154
367.0966, 97.21943
367.5787, 101.9657
368.0608, 104.5082
368.5429, 103.2768
369.0250, 99.17236
369.5071, 96.91655
369.9893, 97.96841
370.4714, 99.17493
370.9535, 98.96040
371.4356, 96.58109
371.9177, 94.39936
372.3998, 92.11095
372.8820, 90.20147
373.3641, 89.98151
373.8462, 92.07676
374.3283, 94.23652
374.8104, 95.56581
375.2925, 96.01578
375.7747, 96.22668
376.2568, 96.02824
376.7389, 95.93089
377.2210, 96.96912
377.7031, 99.27677
378.1852, 100.7595
378.6674, 100.5577
379.1495, 99.03484
379.6316, 97.36198
380.1137, 95.44169
380.5958, 94.38169
381.0779, 96.28577
381.5601, 100.3622
382.0422, 102.3939
382.5243, 100.7949
383.0064, 97.59360
383.4885, 95.89980
383.9706, 95.60955
384.4528, 96.06770
384.9349, 98.02136
385.4170, 100.1302
385.8991, 99.66532
386.3812, 95.36799
386.8633, 91.24966
387.3455, 91.58465
387.8276, 94.97993
388.3097, 98.26824
388.7918, 100.1166
389.2739, 101.0190
389.7560, 101.1233
390.2382, 100.3685
390.7203, 99.70192
391.2024, 100.0530
391.6845, 100.6331
392.1666, 100.5339
392.6487, 97.65891
393.1309, 95.73380
393.6130, 97.55215
394.0951, 102.6237
394.5772, 105.1381
395.0593, 100.6449
395.5414, 95.01172
396.0236, 91.94866
396.5057, 94.01326
396.9878, 96.23588
397.4699, 99.14847
397.9520, 102.0236
398.4341, 102.5377
398.9163, 98.53803
399.3984, 94.39671
399.8805, 91.53951
400.3626, 89.96665
400.8447, 89.84566
401.3268, 92.26615
401.8090, 95.33279
402.2911, 96.06236
402.7732, 93.15829
403.2553, 91.33088
403.7374, 92.19328
404.2195, 95.55667
404.7017, 98.21426
405.1838, 100.3990
405.6659, 101.2419
406.1480, 99.00235
406.6301, 93.59495
407.1122, 90.29319
407.5944, 90.48579
408.0765, 92.87258
408.5586, 94.58029
409.0407, 95.62482
409.5228, 96.35458
410.0049, 97.50329
410.4871, 98.52168
410.9692, 97.42477
411.4513, 93.55775
411.9334, 89.39125
412.4155, 87.85355
412.8976, 88.29803
413.3798, 88.88871
413.8619, 88.56075
414.3440, 88.08217
414.8261, 88.48709
415.3082, 89.78905
415.7903, 90.76299
416.2725, 90.41622
416.7546, 89.37814
417.2367, 88.30534
417.7188, 86.46197
418.2009, 85.69263
418.6830, 87.96833
419.1652, 92.33792
419.6473, 95.22292
420.1294, 93.66438
420.6115, 91.63154
421.0937, 91.57446
421.5758, 95.62093
422.0579, 97.72697
422.5400, 95.39872
423.0221, 91.02580
423.5042, 88.48961
423.9864, 89.52934
424.4685, 90.61530
424.9506, 90.77250
425.4327, 89.84677
425.9148, 90.07390
426.3969, 92.25575
426.8791, 94.67574
427.3612, 95.70234
427.8433, 94.77386
428.3254, 94.25951
428.8075, 94.69804
429.2896, 95.68922
429.7718, 95.85411
430.2539, 95.11746
430.7360, 93.98496
431.2181, 92.16280
431.7002, 89.81426
432.1823, 89.74742
432.6645, 92.57217
433.1466, 96.11566
433.6287, 97.60925
434.1108, 97.24298
434.5929, 95.84509
435.0750, 92.51250
435.5572, 88.90437
436.0393, 88.28697
436.5214, 90.55524
437.0035, 93.48669
437.4856, 96.31877
437.9677, 98.42769
438.4499, 98.67416
438.9320, 95.64434
439.4141, 92.60434
439.8962, 92.28563
440.3783, 93.81290
440.8604, 94.92028
441.3426, 94.58553
441.8247, 93.55318
442.3068, 91.91439
442.7889, 89.35466
443.2710, 87.77582
443.7531, 88.65398
444.2353, 90.39575
444.7174, 91.25430
445.1995, 88.93480
445.6816, 87.95632
446.1637, 89.95682
446.6458, 94.52483
447.1280, 97.42696
447.6101, 97.96329
448.0922, 97.60345
448.5743, 97.00141
449.0564, 95.78991
449.5385, 95.45570
450.0207, 96.61294
450.5028, 98.13924
450.9849, 97.46439
451.4670, 93.99936
451.9491, 91.38802
452.4312, 91.53664
452.9134, 93.96482
453.3955, 94.54931
453.8776, 93.02290
454.3597, 91.54901
454.8418, 92.78964
455.3239, 96.05229
455.8061, 98.44192
456.2882, 99.32709
456.7703, 99.05721
457.2524, 97.36358
457.7345, 94.70001
458.2166, 92.89178
458.6988, 93.86907
459.1809, 95.86646
459.6630, 97.21654
460.1451, 97.82641
460.6272, 97.28133
461.1093, 94.06244
461.5915, 89.92631
462.0736, 87.12391
462.5557, 87.12366
463.0378, 87.86553
463.5199, 89.08866
464.0020, 90.62590
464.4842, 91.41448
464.9663, 90.33349
465.4484, 89.10204
465.9305, 88.62563
466.4126, 89.28023
466.8947, 90.10277
467.3769, 91.37392
467.8590, 92.68771
468.3411, 93.41751
468.8232, 93.55553
469.3053, 93.05547
469.7874, 91.58118
470.2696, 89.23821
470.7517, 88.02416
471.2338, 88.07592
471.7159, 88.83270
472.1980, 90.21189
472.6801, 92.18222
473.1623, 93.11341
473.6444, 92.53823
474.1265, 91.31383
474.6086, 90.63946
475.0907, 90.53392
475.5728, 91.11830
476.0550, 93.73643
476.5371, 96.64466
477.0192, 96.18069
477.5013, 92.17332
477.9834, 88.75397
478.4655, 90.04659
478.9477, 93.55491
479.4298, 96.00812
479.9119, 96.20815
480.3940, 95.45266
480.8761, 93.41894
481.3582, 90.82070
481.8404, 89.74936
482.3225, 92.60465
482.8046, 95.72628
483.2867, 97.52917
483.7688, 97.72209
484.2509, 97.13261
484.7331, 94.84353
485.2152, 92.31301
485.6973, 90.84499
486.1794, 90.68070
486.6615, 91.22182
487.1436, 92.69457
487.6258, 94.82549
488.1079, 96.36937
488.5900, 97.31679
489.0721, 97.66772
489.5542, 97.49432
490.0363, 96.80264
490.5185, 94.68599
491.0006, 90.57444
491.4827, 86.92303
491.9648, 88.17973
492.4470, 93.31413
492.9291, 96.57417
493.4112, 95.03034
493.8933, 91.33414
494.3754, 89.06735
494.8575, 88.17324
495.3397, 88.42628
495.8218, 91.18005
496.3039, 94.27755
496.7860, 95.13428
497.2681, 92.92171
497.7502, 90.32980
498.2324, 87.41354
498.7145, 85.35363
499.1966, 85.70325
499.6787, 93.01363
500.1608, 98.69234
500.6429, 98.76247
501.1251, 93.66348
501.6072, 91.18275
502.0893, 95.68987
502.5714, 99.50649
503.0535, 98.57458
503.5356, 89.37631
504.0178, 83.99409
504.4999, 83.69714
504.9820, 86.12611
505.4641, 87.83044
505.9462, 88.67108
506.4283, 89.52367
506.9105, 90.81512
507.3926, 92.26099
507.8747, 92.60307
508.3568, 91.79743
508.8389, 90.67513
509.3210, 89.43658
509.8032, 88.34880
510.2853, 88.43042
510.7674, 90.11539
511.2495, 91.65035
511.7316, 90.86499
512.2137, 88.61469
512.6959, 86.65770
513.1780, 85.36777
513.6601, 84.89676
514.1422, 85.71819
514.6243, 87.64369
515.1064, 89.41185
515.5886, 90.64424
516.0707, 91.48997
516.5528, 91.95576
517.0349, 91.68308
517.5170, 91.79636
517.9991, 93.01062
518.4813, 94.42948
518.9634, 94.91821
519.4455, 94.24947
519.9276, 92.97311
520.4097, 90.74780
520.8918, 87.91722
521.3740, 86.64710
521.8561, 87.24089
522.3382, 88.39059
522.8203, 89.39283
523.3024, 90.23959
523.7845, 91.06046
524.2667, 91.98303
524.7488, 92.41645
525.2309, 90.61558
525.7130, 87.51369
526.1951, 86.53979
526.6772, 90.78774
527.1594, 95.90703
527.6415, 96.36480
528.1236, 93.00513
528.6057, 89.52073
529.0878, 87.41789
529.5699, 86.41309
530.0521, 86.73250
530.5342, 88.89582
531.0163, 90.11839
531.4984, 88.12119
531.9805, 85.33659
532.4626, 84.34130
532.9448, 87.12508
533.4269, 89.77332
533.9090, 92.10659
534.3911, 94.01582
534.8732, 94.99989
535.3553, 95.00764
535.8375, 94.16634
536.3196, 92.10785
536.8017, 88.67291
537.2838, 87.08181
537.7659, 87.70684
538.2480, 88.90163
538.7302, 88.30235
539.2123, 86.36323
539.6944, 86.61860
540.1765, 90.78309
540.6586, 95.72534
541.1407, 97.08669
541.6229, 95.49002
542.1050, 93.22545
542.5871, 91.04616
543.0692, 89.05890
543.5513, 86.79398
544.0334, 84.27862
544.5156, 83.82011
544.9977, 89.38052
545.4798, 95.78871
545.9619, 98.82085
546.4440, 95.21363
546.9261, 91.89000
547.4083, 89.49526
547.8904, 88.02505
548.3725, 87.59418
548.8546, 89.18550
549.3367, 90.17137
549.8188, 89.68056
550.3010, 87.88186
550.7831, 86.73400
551.2652, 86.29565
551.7473, 86.31361
552.2294, 86.59548
552.7115, 87.15778
553.1937, 88.44001
553.6758, 90.71742
554.1579, 92.71468
554.6400, 92.43386
555.1221, 90.54324
555.6042, 88.92950
556.0864, 87.93945
556.5685, 87.82736
557.0506, 89.82755
557.5327, 93.19305
558.0148, 95.10093
558.4969, 91.99203
558.9791, 88.64489
559.4612, 88.41385
559.9433, 92.41636
560.4254, 95.47632
560.9075, 96.28233
561.3896, 95.93280
561.8718, 95.45358
562.3539, 95.11012
562.8360, 94.07222
563.3181, 91.62605
563.8002, 88.76952
564.2823, 88.06153
564.7645, 89.87957
565.2466, 92.23923
565.7287, 94.90147
566.2108, 97.49966
566.6929, 97.84796
567.1750, 95.87634
567.6572, 93.17419
568.1393, 89.94308
568.6214, 87.15154
569.1035, 87.33239
569.5856, 91.50273
570.0677, 96.08431
570.5499, 98.37656
571.0320, 99.09850
571.5141, 99.41331
571.9962, 100.3353
572.4783, 100.3479
572.9604, 98.17875
573.4426, 94.32662
573.9247, 91.31110
574.4068, 89.50024
574.8889, 88.70053
575.3710, 89.18784
575.8531, 91.44518
576.3353, 92.24014
576.8174, 90.69036
577.2995, 88.97577
577.7816, 89.65224
578.2637, 93.07629
578.7458, 94.88751
579.2280, 94.13567
579.7101, 92.09161
580.1922, 90.54198
580.6743, 89.55587
581.1564, 89.52270
581.6385, 91.58259
582.1207, 94.18476
582.6028, 95.06840
583.0849, 94.42472
583.5670, 93.81645
584.0491, 94.77628
584.5313, 95.74722
585.0134, 95.33431
585.4955, 92.80272
585.9776, 90.62615
586.4597, 89.60701
586.9418, 89.20134
587.4240, 88.81488
587.9061, 88.42778
588.3882, 88.02899
588.8703, 87.53347
589.3524, 87.04819
589.8345, 86.87299
590.3167, 87.00802
590.7988, 87.44585
591.2809, 88.01845
591.7630, 88.86063
592.2451, 91.25985
592.7272, 95.31191
593.2094, 98.57665
593.6915, 98.22347
594.1736, 95.80069
594.6557, 94.35323
595.1378, 94.61027
595.6199, 94.94833
596.1021, 93.67716
596.5842, 91.85067
597.0663, 90.96889
597.5485, 92.64091
598.0306, 94.17809
598.5127, 94.78951
598.9948, 94.57400
599.4769, 93.99060
599.9590, 92.34615
600.4412, 91.22337
600.9233, 91.34603
601.4054, 92.83465
601.8875, 93.68536
602.3696, 93.85737
602.8517, 93.47014
603.3339, 92.02728
603.8160, 89.70681
604.2981, 89.59651
604.7802, 92.60447
605.2623, 95.87840
605.7444, 94.69019
606.2266, 90.71462
606.7087, 88.55653
607.1908, 91.60541
607.6729, 95.30909
608.1550, 95.86076
608.6371, 94.03891
609.1193, 92.39381
609.6014, 91.34930
610.0835, 91.24457
610.5656, 93.01289
611.0477, 97.25367
611.5298, 98.74055
612.0120, 94.82028
612.4941, 90.59985
612.9762, 89.92707
613.4583, 94.49262
613.9404, 96.22033
614.4225, 93.97923
614.9047, 90.24324
615.3868, 88.08308
615.8689, 87.48280
616.3510, 88.65740
616.8331, 92.45258
617.3152, 97.01357
617.7974, 99.94360
618.2795, 101.2617
618.7616, 101.2333
619.2437, 98.81311
619.7258, 95.98764
620.2079, 94.27377
620.6901, 93.75703
621.1722, 93.31700
621.6543, 91.92879
622.1364, 90.93615
622.6185, 91.45275
623.1006, 95.07671
623.5828, 96.66054
624.0649, 95.11618
624.5470, 92.52967
625.0291, 91.73945
625.5112, 93.37215
625.9933, 93.19351
626.4755, 89.80116
626.9576, 85.07068
627.4397, 82.62788
627.9218, 82.36855
628.4039, 83.49578
628.8860, 87.22086
629.3682, 91.27411
629.8503, 91.64565
630.3324, 88.89790
630.8145, 87.28987
631.2966, 91.10236
631.7787, 95.70123
632.2609, 97.50475
632.7430, 95.17628
633.2251, 93.53824
633.7072, 94.68870
634.1893, 96.18336
634.6714, 95.83384
635.1536, 92.10126
635.6357, 89.99160
636.1178, 90.27403
636.5999, 91.92632
637.0820, 93.43079
637.5641, 94.80862
638.0463, 95.19888
638.5284, 93.97012
639.0105, 91.89642
639.4926, 90.04472
639.9747, 88.54472
640.4568, 88.16724
640.9390, 90.06017
641.4211, 92.83972
641.9032, 95.49026
642.3853, 97.92593
642.8674, 99.68655
643.3495, 100.6605
643.8317, 100.8373
644.3138, 99.99454
644.7959, 96.17939
645.2780, 95.35453
645.7601, 99.85462
646.2422, 105.2947
646.7244, 105.9972
647.2065, 100.8025
647.6886, 96.94811
648.1707, 96.06644
648.6528, 96.66613
649.1349, 95.16598
649.6171, 92.03682
650.0992, 90.54707
650.5813, 94.71049
651.0634, 99.79992
651.5455, 98.77283
652.0276, 92.82709
652.5098, 88.44676
652.9919, 90.61572
653.4740, 94.23855
653.9561, 96.17834
654.4382, 95.85123
654.9203, 95.52070
655.4025, 95.77496
655.8846, 95.86034
656.3667, 95.14658
656.8488, 93.10500
657.3309, 91.98147
657.8130, 92.19384
658.2952, 92.70596
658.7773, 91.78915
659.2594, 89.59451
659.7415, 88.02492
660.2236, 87.62328
660.7057, 87.99506
661.1879, 88.58458
661.6700, 89.48234
662.1521, 90.94231
662.6342, 94.26585
663.1163, 97.17223
663.5984, 97.59772
664.0806, 95.91721
664.5627, 95.38041
665.0448, 98.83679
665.5269, 101.7159
666.0090, 102.0570
666.4911, 99.60206
666.9733, 96.17191
667.4554, 90.82443
667.9375, 86.37027
668.4196, 85.55755
668.9017, 88.27283
669.3839, 91.02008
669.8660, 93.60242
670.3481, 95.60688
670.8302, 96.09025
671.3123, 95.65839
671.7944, 95.75005
672.2766, 97.63498
672.7587, 98.80630
673.2408, 96.69135
673.7229, 92.80126
674.2050, 90.05527
674.6871, 88.69499
675.1693, 89.23507
675.6514, 93.58380
676.1335, 100.4550
676.6156, 102.5470
677.0977, 97.43906
677.5798, 93.11597
678.0620, 94.03306
678.5441, 99.35567
679.0262, 100.1624
679.5083, 96.18925
679.9904, 92.13615
680.4725, 91.93948
680.9547, 94.16592
681.4368, 96.53837
681.9189, 98.82853
682.4010, 100.7702
682.8831, 102.5184
683.3652, 103.6412
683.8474, 103.5987
684.3295, 101.1080
684.8116, 99.29621
685.2937, 98.99557
685.7758, 99.44426
686.2579, 99.54298
686.7401, 98.67049
687.2222, 99.41418
687.7043, 103.1469
688.1864, 107.8901
688.6685, 107.8932
689.1506, 103.5135
689.6328, 100.5411
690.1149, 102.5745
690.5970, 106.8520
691.0791, 109.9657
691.5612, 111.8398
692.0433, 112.0538
692.5255, 107.7710
693.0076, 103.8720
693.4897, 104.2059
693.9718, 109.5223
694.4539, 113.0653
694.9360, 112.7503
695.4182, 111.5146
695.9003, 110.7164
696.3824, 110.2782
696.8645, 110.5607
697.3466, 111.4094
697.8287, 113.3850
698.3109, 117.9953
698.7930, 124.5687
699.2751, 129.1291
699.7572, 130.3597
700.2393, 131.6164
700.7214, 136.9592
701.2036, 144.6033
701.6857, 151.5157
702.1678, 153.4605
702.6499, 158.1774
703.1320, 166.6355
703.6141, 180.0549
704.0963, 201.7769
704.5784, 233.6462
705.0605, 270.6351
705.5426, 311.4535
706.0247, 356.7992
706.5068, 410.9628
706.9890, 475.6396
707.4711, 537.1841
707.9532, 585.1712
708.4353, 625.3635
708.9174, 673.5422
709.3995, 728.6772
709.8817, 778.7800
710.3638, 808.2041
710.8459, 833.3434
711.3280, 869.5324
711.8101, 920.2194
712.2922, 967.9296
712.7744, 1002.238
713.2565, 1036.377
713.7386, 1078.824
714.2207, 1128.824
714.7028, 1188.627
715.1849, 1256.803
715.6671, 1338.375
716.1492, 1451.790
716.6313, 1592.094
717.1134, 1721.007
717.5955, 1842.901
718.0776, 1912.443
718.5598, 1860.776
719.0419, 1716.621
719.5240, 1534.729
720.0061, 1300.661
720.4882, 1072.898
720.9703, 864.3348
721.4525, 680.9363
721.9346, 535.1573
722.4167, 441.3005
722.8988, 366.6852
723.3809, 307.6171
723.8630, 263.0901
724.3452, 230.3760
724.8273, 210.3338
725.3094, 196.6231
725.7915, 189.0493
726.2736, 184.9082
726.7557, 176.5485
727.2379, 164.5570
727.7200, 153.5565
728.2021, 146.9915
728.6842, 142.3918
729.1663, 137.4422
729.6484, 131.9292
730.1306, 128.1717
730.6127, 128.4734
731.0948, 129.3792
731.5769, 128.9553
732.0590, 126.8316
732.5411, 124.8909
733.0233, 123.1718
733.5054, 121.5494
733.9875, 120.1436
734.4696, 118.8279
734.9517, 116.3415
735.4338, 112.2472
735.9160, 108.7032
736.3981, 108.4177
736.8802, 109.9363
737.3623, 111.1577
737.8444, 111.5570
738.3266, 111.5197
738.8087, 111.2258
739.2908, 110.5701
739.7729, 109.3738
740.2551, 107.2956
740.7372, 105.2925
741.2193, 103.4047
741.7014, 101.7062
742.1835, 100.2303
742.6656, 98.98111
743.1478, 98.61220
743.6299, 100.0557
744.1120, 101.5787
744.5941, 99.36867
745.0762, 94.76960
745.5583, 91.88686
746.0405, 94.50669
746.5226, 97.79849
747.0047, 99.09133
747.4868, 98.66242
747.9689, 98.43618
748.4510, 98.74225
748.9332, 99.17902
749.4153, 99.84988
749.8974, 100.6498
750.3795, 100.2279
750.8616, 98.45976
751.3438, 96.47070
751.8259, 95.04056
752.3080, 93.90333
752.7901, 91.81177
753.2722, 88.87986
753.7543, 87.44188
754.2365, 90.72997
754.7186, 94.99821
755.2007, 97.08321
755.6828, 96.24911
756.1649, 95.60918
756.6470, 95.75249
757.1292, 96.16898
757.6113, 96.47108
758.0934, 96.44203
758.5755, 97.59100
759.0576, 100.3816
759.5397, 102.8327
760.0219, 102.4903
760.5040, 100.1015
760.9861, 97.93446
761.4682, 96.32996
761.9503, 95.14235
762.4324, 94.28308
762.9146, 93.75857
763.3967, 93.59155
763.8788, 94.06286
764.3609, 94.44250
764.8430, 94.42385
765.3251, 94.36111
765.8073, 94.69887
766.2894, 95.56511
766.7715, 96.43741
767.2536, 97.47148
767.7357, 98.04136
768.2178, 96.50508
768.7000, 93.42693
769.1821, 91.14825
769.6642, 90.28065
770.1463, 90.68167
770.6284, 93.25259
771.1105, 96.87000
771.5927, 99.36214
772.0748, 100.2332
772.5569, 99.63394
773.0390, 96.44112
773.5211, 92.05288
774.0032, 90.11530
774.4854, 91.10480
774.9675, 92.88766
775.4496, 95.31031
775.9317, 97.69599
776.4138, 98.04428
776.8959, 96.65638
777.3781, 95.18451
777.8602, 93.96732
778.3423, 93.45918
778.8244, 94.78324
779.3065, 97.34621
779.7886, 98.66424
780.2708, 96.90047
780.7529, 94.87083
781.2350, 93.34521
781.7171, 92.32384
782.1992, 91.96562
782.6813, 92.49843
783.1635, 92.77606
783.6456, 91.51090
784.1277, 89.64664
784.6098, 91.28271
785.0919, 95.95689
785.5740, 99.17592
786.0562, 95.58065
786.5383, 91.10765
787.0204, 91.97032
787.5025, 98.45959
787.9846, 101.7680
788.4667, 96.01264
788.9489, 90.25813
789.4310, 88.47169
789.9131, 90.92768
790.3952, 92.54328
790.8773, 93.30685
791.3594, 93.22331
791.8416, 91.50337
792.3237, 89.03258
792.8058, 88.43226
793.2879, 89.79715
793.7700, 91.31084
794.2521, 92.06078
794.7343, 92.19129
795.2164, 91.61125
795.6985, 90.03150
796.1806, 89.03277
796.6627, 88.39265
797.1448, 88.74527
797.6270, 91.00056
798.1091, 95.63599
798.5912, 98.22292
799.0733, 98.60214
799.5554, 97.73646
800.0375, 95.93505
800.5197, 93.73645
801.0018, 92.20626
801.4839, 91.54762
801.9660, 91.13613
802.4481, 89.80865
802.9302, 89.04831
803.4124, 90.45016
803.8945, 96.63940
804.3766, 99.24026
804.8587, 96.21525
805.3408, 92.28794
805.8229, 92.39575
806.3051, 96.49960
806.7872, 97.98955
807.2693, 95.92513
807.7514, 93.57820
808.2335, 95.29639
808.7156, 98.59368
809.1978, 99.23807
809.6799, 95.18608
810.1620, 92.40638
810.6441, 95.03078
811.1262, 99.17443
811.6083, 100.9657
812.0905, 99.24423
812.5726, 97.65507
813.0547, 96.29680
813.5368, 95.05097
814.0189, 93.89782
814.5010, 92.77827
814.9832, 91.19347
815.4653, 88.92595
815.9474, 86.91249
816.4295, 85.25922
816.9116, 84.67062
817.3937, 86.33858
817.8759, 92.64601
818.3580, 97.05585
818.8401, 96.97529
819.3222, 95.20016
819.8043, 94.08688
820.2864, 93.59542
820.7686, 94.21120
821.2507, 96.33570
821.7328, 98.47634
822.2149, 98.06062
822.6970, 96.15484
823.1791, 95.78996
823.6613, 98.34903
824.1434, 100.1738
824.6255, 97.13898
825.1076, 92.80494
825.5897, 91.17988
826.0718, 97.18961
826.5540, 99.65282
827.0361, 96.98120
827.5182, 92.59206
828.0003, 90.41607
828.4824, 90.44961
828.9645, 91.07301
829.4467, 92.13468
829.9288, 93.39788
830.4109, 95.18626
830.8930, 96.80592
831.3751, 97.08804
831.8572, 95.18756
832.3394, 93.16379
832.8215, 90.74049
833.3036, 89.11643
833.7857, 89.71707
834.2678, 93.72507
834.7499, 96.38042
835.2321, 97.09657
835.7142, 97.07946
836.1963, 98.69028
836.6784, 100.9660
837.1605, 99.52814
837.6426, 92.59418
838.1248, 86.31606
838.6069, 86.59624
839.0890, 89.61440
839.5711, 91.06336
840.0532, 88.17562
840.5353, 87.28620
841.0175, 89.87665
841.4996, 93.40638
841.9817, 95.49937
842.4638, 96.16215
842.9459, 95.13379
843.4280, 92.01063
843.9102, 89.17774
844.3923, 89.91254
844.8744, 92.48251
845.3565, 93.86664
845.8386, 92.91978
846.3207, 92.86397
846.8029, 96.53848
847.2850, 100.6758
847.7671, 102.3323
848.2492, 100.3528
848.7313, 98.97977
849.2134, 98.39508
849.6956, 97.97797
850.1777, 96.79785
850.6598, 95.24194
851.1419, 94.84703
851.6240, 95.89368
852.1061, 97.07706
852.5883, 97.66030
853.0704, 97.76707
853.5525, 97.34487
854.0346, 95.91235
854.5167, 95.51700
854.9988, 96.55114
855.4810, 98.23674
855.9631, 100.4510
856.4452, 103.2292
856.9273, 104.1871
857.4094, 103.1856
857.8915, 101.5226
858.3737, 100.1840
858.8558, 98.94701
859.3379, 97.11868
859.8200, 94.50156
860.3021, 93.44016
860.7842, 96.93874
861.2664, 100.4207
861.7485, 101.1456
862.2306, 98.78585
862.7127, 97.05290
863.1948, 96.04051
863.6769, 95.18156
864.1591, 93.78403
864.6412, 92.29766
865.1233, 91.81292
865.6054, 92.31743
866.0875, 93.21843
866.5696, 94.20695
867.0518, 95.44861
867.5339, 97.34348
868.0160, 99.96905
868.4981, 101.4243
868.9802, 101.2472
869.4623, 100.8955
869.9445, 101.2115
870.4266, 101.9009
870.9087, 101.2393
871.3908, 99.38223
871.8729, 98.05323
872.3550, 98.71152
872.8372, 99.99182
873.3193, 100.9053
873.8014, 101.4517
874.2835, 101.7989
874.7656, 102.0663
875.2477, 101.9680
875.7299, 101.0042
876.2120, 99.70898
876.6941, 100.8737
877.1762, 104.4873
877.6583, 106.4822
878.1404, 104.2296
878.6226, 100.2983
879.1047, 97.41440
879.5869, 95.60217
880.0690, 94.84771
880.5511, 96.48188
881.0332, 97.63145
881.5153, 96.73515
881.9974, 95.04350
882.4796, 95.32796
882.9617, 98.03834
883.4438, 100.1280
883.9259, 100.7003
884.4080, 100.6626
884.8901, 101.3275
885.3723, 102.5113
885.8544, 103.8427
886.3365, 105.6027
886.8186, 106.7934
887.3007, 106.7882
887.7828, 105.9993
888.2650, 104.9993
888.7471, 103.7416
889.2292, 102.3234
889.7113, 100.4434
890.1934, 99.10383
890.6755, 100.2153
891.1577, 102.9412
891.6398, 104.4812
892.1219, 104.0273
892.6040, 103.7924
893.0861, 106.2831
893.5682, 109.1453
894.0504, 109.9812
894.5325, 107.2200
895.0146, 105.7294
895.4967, 106.2556
895.9788, 106.6784
896.4609, 105.0879
896.9431, 101.7638
897.4252, 97.97964
897.9073, 93.78722
898.3894, 90.78584
898.8715, 91.07273
899.3536, 92.36334
899.8358, 92.38597
900.3179, 90.72020
900.8000, 90.77147
901.2821, 93.74831
901.7642, 97.13522
902.2463, 100.0515
902.7285, 102.4264
903.2106, 104.0605
903.6927, 104.9493
904.1748, 105.2385
904.6569, 104.7537
905.1390, 103.9128
905.6212, 103.0045
906.1033, 102.0889
906.5854, 101.3216
907.0675, 99.96976
907.5496, 99.83447
908.0317, 101.8776
908.5139, 105.1951
908.9960, 107.3473
909.4781, 108.3198
909.9602, 107.5112
910.4423, 103.6187
910.9244, 99.62713
911.4066, 100.1083
911.8887, 102.9443
912.3708, 104.2388
912.8529, 99.93226
913.3350, 97.54375
913.8171, 99.50144
914.2993, 103.1855
914.7814, 104.9637
915.2635, 104.6182
915.7456, 105.6600
916.2277, 109.0288
916.7098, 111.9383
917.1920, 110.2522
917.6741, 106.3505
918.1562, 103.9552
918.6383, 104.5465
919.1204, 104.0960
919.6025, 99.21471
920.0847, 94.68875
920.5668, 94.07018
921.0489, 98.11150
921.5310, 100.4807
922.0131, 100.9475
922.4952, 101.5872
922.9774, 105.3997
923.4595, 109.8022
923.9416, 109.8661
924.4237, 105.7254
924.9058, 103.5276
925.3879, 108.2496
925.8701, 112.8571
926.3522, 114.4741
926.8343, 113.3764
927.3164, 111.4537
927.7985, 108.5317
928.2806, 106.2508
928.7628, 105.0520
929.2449, 105.2494
929.7270, 108.7222
930.2091, 114.0382
930.6912, 117.4151
931.1733, 117.1142
931.6555, 114.7656
932.1376, 108.5213
932.6197, 101.5276
933.1018, 99.74562
933.5839, 104.0725
934.0660, 106.3119
934.5482, 104.2135
935.0303, 102.0389
935.5124, 107.2099
935.9945, 115.6622
936.4766, 119.9544
936.9587, 116.9780
937.4409, 113.8180
937.9230, 113.1195
938.4051, 112.7966
938.8872, 111.0640
939.3693, 107.4382
939.8514, 105.1471
940.3336, 104.2648
940.8157, 104.3678
941.2978, 105.9013
941.7799, 107.8069
942.2620, 108.0521
942.7441, 106.6818
943.2263, 106.4823
943.7084, 111.5223
944.1905, 114.6565
944.6726, 112.0985
945.1547, 105.0850
945.6368, 101.1772
946.1190, 100.4038
946.6011, 101.9793
947.0832, 107.3503
947.5653, 112.9008
948.0474, 112.8915
948.5295, 109.3571
949.0117, 107.0319
949.4938, 108.6615
949.9759, 110.2824
950.4580, 111.2221
950.9401, 111.6941
951.4222, 111.8067
951.9044, 111.5426
952.3865, 112.2769
952.8686, 114.5975
953.3507, 116.1709
953.8328, 112.8412
954.3149, 108.0765
954.7971, 106.8881
955.2792, 111.9092
955.7613, 113.9687
956.2434, 109.9860
956.7255, 104.7738
957.2076, 100.5375
957.6898, 97.32336
958.1719, 97.63245
958.6540, 101.4202
959.1361, 105.4552
959.6182, 107.6384
960.1003, 108.9870
960.5825, 110.3484
961.0646, 111.7300
961.5467, 112.9900
962.0288, 115.0672
962.5109, 115.4012
962.9930, 112.7330
963.4752, 108.5092
963.9573, 106.2368
964.4394, 105.7469
964.9215, 105.8964
965.4036, 106.3461
965.8857, 107.2556
966.3679, 109.8602
966.8500, 112.5364
967.3321, 113.0475
967.8142, 108.7677
968.2963, 106.7604
968.7784, 107.8843
969.2606, 109.6384
969.7427, 109.1236
970.2248, 107.1085
970.7069, 106.3578
971.1890, 107.0756
971.6711, 108.4871
972.1533, 110.5410
972.6354, 112.7327
973.1175, 115.3487
973.5996, 118.2628
974.0817, 117.7201
974.5638, 112.3556
975.0460, 108.4691
975.5281, 109.4033
976.0102, 112.7645
976.4923, 113.4124
976.9744, 112.1551
977.4565, 111.3666
977.9387, 112.4464
978.4208, 113.7451
978.9029, 114.8515
979.3850, 115.7667
979.8671, 116.6055
980.3492, 117.4960
980.8314, 117.2125
981.3135, 115.2965
981.7956, 113.6630
982.2777, 115.0089
982.7598, 117.6955
983.2419, 119.4353
983.7241, 119.8384
984.2062, 119.7256
984.6883, 118.5163
985.1704, 117.6839
985.6525, 117.8957
986.1346, 119.0908
986.6168, 121.0604
987.0989, 123.7501
987.5810, 125.4607
988.0631, 124.5886
988.5452, 122.8133
989.0273, 121.0964
989.5095, 119.7591
989.9916, 119.6766
990.4737, 122.1543
990.9558, 123.9996
991.4379, 124.3259
991.9200, 124.5856
992.4022, 127.9142
992.8843, 133.3087
993.3664, 136.3433
993.8485, 135.9299
994.3306, 134.6862
994.8127, 134.4348
995.2949, 134.1248
995.7770, 131.7216
996.2591, 125.9631
996.7412, 128.3054
997.2233, 141.3496
997.7054, 152.9171
998.1876, 153.5828
998.6697, 148.3832
999.1518, 149.0366
999.6339, 154.0634
1000.116, 157.5372
1000.598, 153.8611
1001.080, 151.6350
1001.562, 154.8811
1002.044, 160.9321
1002.527, 165.5420
1003.009, 168.6903
1003.491, 169.6731
1003.973, 167.7391
1004.455, 166.1561
1004.937, 169.2043
1005.419, 174.4408
1005.901, 178.6329
1006.384, 180.7000
1006.866, 184.0898
1007.348, 191.0320
1007.830, 196.5329
1008.312, 197.4800
1008.794, 194.5247
1009.276, 190.2507
1009.758, 185.0865
1010.240, 182.3868
1010.723, 186.2994
1011.205, 191.1348
1011.687, 191.8661
1012.169, 190.9489
1012.651, 195.7394
1013.133, 210.4391
1013.615, 218.1928
1014.097, 214.8949
1014.580, 208.1713
1015.062, 208.5851
1015.544, 213.2581
1016.026, 216.8536
1016.508, 218.2825
1016.990, 219.1283
1017.472, 218.3069
1017.954, 218.8297
1018.436, 223.5584
1018.919, 232.0421
1019.401, 234.1018
1019.883, 229.7209
1020.365, 225.0574
1020.847, 222.8113
1021.329, 222.6819
1021.811, 225.7864
1022.293, 230.6783
1022.776, 233.8311
1023.258, 233.4009
1023.740, 233.0551
1024.222, 232.9726
1024.704, 233.3852
1025.186, 235.4093
1025.668, 238.2200
1026.150, 238.3955
1026.632, 235.2395
1027.115, 232.6434
1027.597, 234.8369
1028.079, 236.7697
1028.561, 233.6681
1029.043, 225.9198
1029.525, 224.5253
1030.007, 230.3398
1030.489, 235.6109
1030.972, 236.5755
1031.454, 235.2601
1031.936, 233.4367
1032.418, 231.6721
1032.900, 231.1972
1033.382, 233.4864
1033.864, 235.6702
1034.346, 237.8665
1034.828, 239.3087
1035.311, 237.9364
1035.793, 234.5950
1036.275, 236.1564
1036.757, 243.2137
1037.239, 248.7645
1037.721, 245.3938
1038.203, 240.8599
1038.685, 240.5879
1039.167, 244.4533
1039.650, 248.9462
1040.132, 254.4059
1040.614, 258.7662
1041.096, 260.8614
1041.578, 262.1443
1042.060, 264.9650
1042.542, 268.5934
1043.024, 271.6061
1043.507, 272.6468
1043.989, 274.9142
1044.471, 279.5845
1044.953, 284.9617
1045.435, 289.1322
1045.917, 292.4030
1046.399, 300.6993
1046.881, 313.7668
1047.364, 324.8813
1047.846, 327.4537
1048.328, 328.4040
1048.810, 332.8188
1049.292, 339.7614
1049.774, 344.2282
1050.256, 345.1758
1050.738, 347.2486
1051.220, 351.4764
1051.703, 356.8809
1052.185, 361.8626
1052.667, 366.9825
1053.149, 373.2850
1053.631, 381.2083
1054.113, 389.2056
1054.595, 397.2036
1055.077, 404.7332
1055.559, 410.7271
1056.042, 415.8638
1056.524, 426.1710
1057.006, 441.0345
1057.488, 455.4315
1057.970, 467.0240
1058.452, 476.8762
1058.934, 483.6091
1059.416, 489.8492
1059.899, 500.3908
1060.381, 516.2456
1060.863, 532.9506
1061.345, 550.0534
1061.827, 568.6266
1062.309, 589.2568
1062.791, 612.6835
1063.273, 643.2862
1063.755, 681.1120
1064.238, 708.3101
1064.720, 716.9027
1065.202, 717.6287
1065.684, 710.7940
1066.166, 699.9993
1066.648, 693.5551
1067.130, 691.9985
1067.612, 697.2596
1068.094, 709.9517
1068.577, 729.7736
1069.059, 761.0314
1069.541, 796.5652
1070.023, 827.4726
1070.505, 849.8491
1070.987, 891.3090
1071.469, 952.8776
1071.951, 1027.762
1072.434, 1104.008
1072.916, 1196.975
1073.398, 1316.758
1073.880, 1469.714
1074.362, 1673.280
1074.844, 1924.392
1075.326, 2241.547
1075.808, 2626.565
1076.291, 3086.866
1076.773, 3638.714
1077.255, 4277.090
1077.737, 4978.056
1078.219, 5729.995
1078.701, 6540.747
1079.183, 7398.888
1079.665, 8321.457
1080.147, 9307.825
1080.630, 10363.35
1081.112, 11527.02
1081.594, 12800.69
1082.076, 14226.64
1082.558, 15759.31
1083.040, 17568.61
1083.522, 19923.26
1084.004, 22594.88
1084.486, 25415.82
1084.969, 29192.62
1085.451, 30907.65
1085.933, 30433.84
1086.415, 28335.21
1086.897, 24198.36
1087.379, 19141.65
1087.861, 14894.63
1088.343, 11469.01
1088.826, 8697.578
1089.308, 6776.123
1089.790, 5274.464
1090.272, 4167.607
1090.754, 3356.357
1091.236, 2728.515
1091.718, 2266.580
1092.200, 1898.812
1092.682, 1620.504
1093.165, 1399.185
1093.647, 1236.814
1094.129, 1107.391
1094.611, 995.7210
1095.093, 900.0315
1095.575, 816.5971
1096.057, 745.5371
1096.539, 683.5839
1097.022, 631.4566
1097.504, 586.8718
1097.986, 549.9148
1098.468, 518.3957
1098.950, 489.9888
1099.432, 464.5462
1099.914, 440.9733
1100.396, 419.8492
1100.879, 400.0490
1101.361, 380.6427
1101.843, 362.2495
1102.325, 344.9183
1102.807, 329.1535
1103.289, 317.0948
1103.771, 313.8638
1104.253, 308.1661
1104.735, 296.5182
1105.218, 283.4563
1105.700, 276.2433
1106.182, 273.4188
1106.664, 267.9534
1107.146, 258.9594
1107.628, 250.4280
1108.110, 243.6621
1108.592, 239.1592
1109.074, 238.7438
1109.557, 240.7325
1110.039, 238.3307
1110.521, 231.4707
1111.003, 223.5204
1111.485, 214.9706
1111.967, 207.4058
1112.449, 202.7532
1112.931, 199.8327
1113.414, 197.3997
1113.896, 195.3063
1114.378, 194.0111
1114.860, 193.8105
1115.342, 193.0803
1115.824, 190.2272
1116.306, 186.8665
1116.788, 186.2904
1117.271, 187.1464
1117.753, 186.3982
1118.235, 180.5589
1118.717, 176.9909
1119.199, 176.7348
1119.681, 177.6476
1120.163, 178.5506
1120.645, 178.7788
1121.127, 175.0445
1121.609, 167.8425
1122.092, 163.0000
1122.574, 165.6730
1123.056, 168.6306
1123.538, 169.8947
1124.020, 169.6497
1124.502, 167.3756
1124.984, 163.5141
1125.466, 162.2337
1125.949, 164.5896
1126.431, 167.0116
1126.913, 167.5653
1127.395, 166.7624
1127.877, 164.4331
1128.359, 160.9125
1128.841, 158.7689
1129.323, 158.1138
1129.806, 156.4455
1130.288, 152.0303
1130.770, 148.0213
1131.252, 148.9195
1131.734, 151.5473
1132.216, 151.3372
1132.698, 146.1776
1133.180, 144.7166
1133.662, 148.0065
1134.145, 150.5753
1134.627, 147.0042
1135.109, 141.8561
1135.591, 143.7626
1136.073, 149.9031
1136.555, 153.0841
1137.037, 146.3821
1137.519, 144.5132
1138.001, 150.1097
1138.484, 156.9076
1138.966, 158.4167
1139.448, 156.0535
1139.930, 151.5054
1140.412, 145.5296
1140.894, 143.5927
1141.376, 153.7656
1141.858, 160.6970
1142.341, 159.9365
1142.823, 154.4547
1143.305, 148.2335
1143.787, 141.8970
1144.269, 138.2106
1144.751, 137.7180
1145.233, 138.9491
1145.715, 143.5959
1146.198, 147.1256
1146.680, 146.8873
1147.162, 143.6242
1147.644, 140.4355
1148.126, 137.3533
1148.608, 134.7676
1149.090, 132.2130
1149.572, 131.6456
1150.054, 137.5150
1150.536, 143.9484
1151.019, 144.9472
1151.501, 140.0042
1151.983, 135.9488
1152.465, 132.7760
1152.947, 130.0900
1153.429, 126.6732
1153.911, 124.7757
1154.393, 128.0265
1154.876, 133.8586
1155.358, 137.9113
1155.840, 140.2265
1156.322, 139.1299
1156.804, 133.8060
1157.286, 129.3808
1157.768, 131.3878
1158.250, 135.6848
1158.733, 136.8804
1159.215, 135.7312
1159.697, 135.8723
1160.179, 139.7234
1160.661, 140.4510
1161.143, 136.4498
1161.625, 131.4788
1162.107, 130.1076
1162.589, 130.5845
1163.072, 129.6263
1163.554, 127.1474
1164.036, 126.2771
1164.518, 128.1333
1165.000, 131.2166
1165.482, 135.6908
1165.964, 140.4412
1166.446, 143.8436
1166.928, 145.8146
1167.411, 145.6534
1167.893, 142.7833
1168.375, 141.1886
1168.857, 144.5323
1169.339, 146.2452
1169.821, 142.9574
1170.303, 136.9114
1170.785, 134.5454
1171.268, 135.0483
1171.750, 135.6392
1172.232, 135.1585
1172.714, 135.4302
1173.196, 137.9730
1173.678, 140.7770
1174.160, 142.9308
1174.642, 144.3223
1175.125, 143.6750
1175.607, 141.2579
1176.089, 138.5577
1176.571, 135.2078
1177.053, 133.1140
1177.535, 134.2741
1178.017, 136.2357
1178.499, 136.7581
1178.981, 135.8612
1179.464, 134.9027
1179.946, 133.9113
1180.428, 133.0555
1180.910, 132.0848
1181.392, 131.6651
1181.874, 132.0933
1182.356, 133.3570
1182.838, 135.6620
1183.320, 139.0792
1183.803, 142.6781
1184.285, 146.4758
1184.767, 147.2119
1185.249, 136.8676
1185.731, 127.9490
1186.213, 132.4166
1186.695, 144.8179
1187.177, 149.6100
1187.660, 146.4055
1188.142, 140.1478
1188.624, 130.8773
1189.106, 125.1597
1189.588, 133.0583
1190.070, 143.4172
1190.552, 146.5283
1191.034, 143.1428
1191.516, 142.2212
1191.999, 144.1831
1192.481, 144.1235
1192.963, 140.1582
1193.445, 136.2462
1193.927, 137.7298
1194.409, 140.3256
1194.891, 138.8601
1195.373, 132.9053
1195.855, 130.8349
1196.338, 133.0662
1196.820, 135.5812
1197.302, 137.1995
1197.784, 137.6341
1198.266, 134.5115
1198.748, 131.0901
1199.230, 132.4089
1199.712, 140.2342
1200.195, 143.2863
1200.677, 140.8155
1201.159, 138.9098
1201.641, 141.9372
1202.123, 145.7620
1202.605, 144.4529
1203.087, 141.1076
1203.569, 141.3175
1204.052, 148.5310
1204.534, 149.7487
1205.016, 143.9890
1205.498, 138.1678
1205.980, 137.9408
1206.462, 139.4701
1206.944, 137.3752
1207.426, 133.7277
1207.908, 133.7547
1208.391, 139.6904
1208.873, 144.1475
1209.355, 147.0251
1209.837, 147.5160
1210.319, 142.1804
1210.801, 136.2160
1211.283, 137.0183
1211.765, 142.4837
1212.247, 144.3018
1212.730, 139.9226
1213.212, 138.5998
1213.694, 141.9304
1214.176, 145.2799
1214.658, 143.2915
1215.140, 139.4991
1215.622, 137.5396
1216.104, 137.5358
1216.587, 138.8920
1217.069, 142.2128
1217.551, 144.3129
1218.033, 144.5141
1218.515, 144.0886
1218.997, 144.9036
1219.479, 145.5680
1219.961, 143.8338
1220.443, 139.8629
1220.926, 138.1213
1221.408, 139.3544
1221.890, 140.3688
1222.372, 140.2290
1222.854, 140.3212
1223.336, 143.3495
1223.818, 146.8753
1224.300, 148.0759
1224.782, 146.4677
1225.265, 143.8679
1225.747, 139.7221
1226.229, 137.6216
1226.711, 139.3845
1227.193, 141.6478
1227.675, 139.0215
1228.157, 135.3397
1228.639, 135.7341
1229.122, 141.2466
1229.604, 144.8509
1230.086, 146.5416
1230.568, 146.2694
1231.050, 143.1208
1231.532, 139.8912
1232.014, 140.0233
1232.496, 141.8364
1232.979, 143.6943
1233.461, 145.7071
1233.943, 144.5709
1234.425, 139.9163
1234.907, 135.8167
1235.389, 133.7019
1235.871, 133.7685
1236.353, 139.1231
1236.835, 145.1586
1237.318, 144.6512
1237.800, 136.0182
1238.282, 133.0942
1238.764, 136.1388
1239.246, 140.0323
1239.728, 142.4842
1240.210, 143.8912
1240.692, 144.6293
1241.175, 144.3874
1241.657, 142.1828
1242.139, 137.0136
1242.621, 137.7131
1243.103, 144.3520
1243.585, 149.6352
1244.067, 147.8031
1244.549, 144.5684
1245.031, 143.6111
1245.514, 143.7074
1245.996, 143.2127
1246.478, 142.1353
1246.960, 139.2218
1247.442, 134.6566
1247.924, 132.8017
1248.406, 139.7456
1248.888, 146.5846
1249.370, 148.1731
1249.853, 146.7847
1250.335, 144.7070
1250.817, 142.0484
1251.299, 142.6138
1251.781, 146.2626
1252.263, 148.5356
1252.745, 145.0945
1253.227, 141.5406
1253.710, 140.8759
1254.192, 141.0331
1254.674, 138.8302
1255.156, 134.8652
1255.638, 133.9540
1256.120, 136.1098
1256.602, 137.9595
1257.084, 135.7260
1257.567, 135.5863
1258.049, 140.7632
1258.531, 147.2034
1259.013, 149.2481
1259.495, 147.7539
1259.977, 145.0901
1260.459, 141.6778
1260.941, 139.5753
1261.423, 141.2372
1261.906, 142.2356
1262.388, 141.1933
1262.870, 139.7155
1263.352, 140.2894
1263.834, 142.1630
1264.316, 143.8775
1264.798, 145.2305
1265.280, 145.7908
1265.762, 144.8987
1266.245, 143.9517
1266.727, 142.9910
1267.209, 142.5285
1267.691, 143.9926
1268.173, 146.0827
1268.655, 146.1298
1269.137, 144.1157
1269.619, 144.1147
1270.102, 148.1888
1270.584, 149.6330
1271.066, 146.6894
1271.548, 141.9341
1272.030, 136.4518
1272.512, 132.5232
1272.994, 134.0854
1273.476, 140.9764
1273.958, 145.6276
1274.441, 147.6897
1274.923, 147.6407
1275.405, 144.9936
1275.887, 142.9466
1276.369, 146.4254
1276.851, 150.8714
1277.333, 151.1767
1277.815, 148.0882
1278.297, 148.1699
1278.780, 151.6687
1279.262, 152.5027
1279.744, 148.7335
1280.226, 145.5281
1280.708, 148.5421
1281.190, 152.2988
1281.672, 151.9578
1282.154, 149.2273
1282.637, 151.0599
1283.119, 156.8957
1283.601, 161.6749
1284.083, 164.5800
1284.565, 164.8138
1285.047, 158.8540
1285.529, 153.5205
1286.011, 152.4510
1286.494, 154.0806
1286.976, 154.8661
1287.458, 154.5900
1287.940, 151.5933
1288.422, 144.8768
1288.904, 141.1467
1289.386, 145.6787
1289.868, 149.9174
1290.350, 150.8734
1290.833, 150.2916
1291.315, 152.1420
1291.797, 154.8963
1292.279, 155.1519
1292.761, 151.8889
1293.243, 149.9324
1293.725, 150.4520
1294.207, 150.3517
1294.689, 147.9337
1295.172, 146.0253
1295.654, 150.5337
1296.136, 157.1019
1296.618, 159.8552
1297.100, 157.5529
1297.582, 154.9566
1298.064, 151.9762
1298.546, 149.0693
1299.029, 145.9858
1299.511, 144.2961
1299.993, 147.4068
1300.475, 151.4320
1300.957, 151.9062
1301.439, 149.4676
1301.921, 149.3321
1302.403, 151.3944
1302.885, 152.5710
1303.368, 152.0050
1303.850, 150.4461
1304.332, 145.7992
1304.814, 143.2611
1305.296, 146.8271
1305.778, 154.2273
1306.260, 157.7346
1306.742, 157.9444
1307.224, 157.0443
1307.707, 155.2513
1308.189, 154.1527
1308.671, 155.5996
1309.153, 156.1659
##END=



