##NAMES=Rhodonite
##RRUFFID=R060363
##IDEAL CHEMISTRY=CaMn^2+^_3_Mn^2+^Si_5_O_15_
##LOCALITY=2600' level, Broken Hill mine, New South Wales, Australia
##OWNER=RRUFF
##SOURCE=Herb Obodda
##DESCRIPTION=Reddish brown cleavage fragment
##STATUS=The identification of this mineral has been confirmed by X-ray diffraction and chemical analysis
##URL=rruff.info/R060363
##MEASURED CHEMISTRY=(Mn_0.75_Fe_0.18_Ca_0.09_)Si_0.99_O_3_
91.53320, 266.6357
92.01532, 263.4039
92.49744, 261.6623
92.97955, 266.7215
93.46167, 273.0571
93.94379, 274.4583
94.42590, 271.9165
94.90802, 267.3068
95.39014, 261.7099
95.87225, 254.8809
96.35437, 248.2547
96.83649, 242.4437
97.31860, 237.2770
97.80072, 232.6154
98.28284, 228.1539
98.76495, 223.7019
99.24707, 219.4856
99.72919, 214.3477
100.2113, 210.8548
100.6934, 209.6379
101.1755, 210.4066
101.6577, 212.5926
102.1398, 215.8147
102.6219, 220.1822
103.1040, 224.8996
103.5861, 229.6946
104.0682, 234.8935
104.5504, 240.1952
105.0325, 245.7128
105.5146, 252.4333
105.9967, 261.8072
106.4788, 274.8021
106.9609, 288.2140
107.4431, 303.3156
107.9252, 318.4317
108.4073, 331.4311
108.8894, 341.7893
109.3715, 349.2832
109.8536, 353.4708
110.3358, 354.3889
110.8179, 353.5977
111.3000, 351.4136
111.7821, 347.9494
112.2642, 344.2727
112.7463, 340.5012
113.2285, 336.8798
113.7106, 333.8294
114.1927, 331.6606
114.6748, 329.4356
115.1569, 325.7428
115.6390, 319.9457
116.1212, 314.1732
116.6033, 308.9673
117.0854, 304.0944
117.5675, 299.2758
118.0496, 294.3088
118.5317, 289.3396
119.0139, 285.1248
119.4960, 281.8499
119.9781, 279.2828
120.4602, 277.6960
120.9423, 276.7616
121.4244, 275.9791
121.9066, 274.9704
122.3887, 273.7152
122.8708, 272.4730
123.3529, 271.4763
123.8350, 270.2895
124.3171, 268.6846
124.7993, 266.6634
125.2814, 264.4265
125.7635, 262.1996
126.2456, 260.0226
126.7277, 257.3444
127.2098, 253.6484
127.6920, 249.6751
128.1741, 246.2115
128.6562, 243.4753
129.1383, 241.0201
129.6204, 238.5061
130.1025, 235.9515
130.5847, 232.8638
131.0668, 228.9526
131.5489, 224.3309
132.0310, 219.3883
132.5131, 214.0583
132.9952, 208.4763
133.4774, 202.7078
133.9595, 196.7624
134.4416, 190.8675
134.9237, 185.3199
135.4058, 180.1765
135.8879, 174.8197
136.3701, 168.9157
136.8522, 162.9227
137.3343, 156.9590
137.8164, 151.0441
138.2985, 145.4728
138.7806, 140.8319
139.2628, 138.1143
139.7449, 134.4755
140.2270, 128.8491
140.7091, 122.6979
141.1912, 117.1879
141.6733, 112.8717
142.1555, 109.6349
142.6376, 107.1828
143.1197, 106.1103
143.6018, 105.2271
144.0839, 104.2544
144.5660, 103.4125
145.0482, 103.1040
145.5303, 103.6082
146.0124, 104.8130
146.4945, 105.8810
146.9766, 106.9308
147.4587, 107.7667
147.9409, 108.1030
148.4230, 108.0644
148.9051, 108.2420
149.3872, 109.2125
149.8693, 110.7677
150.3514, 111.6829
150.8336, 111.6309
151.3157, 111.1214
151.7978, 110.4351
152.2799, 109.5143
152.7620, 108.8589
153.2441, 108.8866
153.7263, 109.4395
154.2084, 110.3866
154.6905, 111.6480
155.1726, 113.2753
155.6547, 115.4014
156.1368, 118.0481
156.6190, 121.2129
157.1011, 124.9729
157.5832, 129.1587
158.0653, 133.5017
158.5474, 137.8090
159.0295, 142.0946
159.5117, 146.5608
159.9938, 151.6787
160.4759, 156.5309
160.9580, 160.9477
161.4401, 164.8466
161.9222, 168.1169
162.4044, 170.7348
162.8865, 172.8149
163.3686, 173.5147
163.8507, 172.6286
164.3328, 170.6882
164.8149, 167.6883
165.2971, 163.7323
165.7792, 159.1243
166.2613, 154.1006
166.7434, 148.3670
167.2255, 143.1668
167.7076, 138.6068
168.1898, 134.3933
168.6719, 130.2524
169.1540, 126.1383
169.6361, 122.3752
170.1182, 119.4396
170.6003, 117.6181
171.0825, 116.0457
171.5646, 114.6672
172.0467, 113.5363
172.5288, 112.8056
173.0109, 112.5580
173.4930, 112.4829
173.9752, 112.0567
174.4573, 111.2690
174.9394, 110.4221
175.4215, 109.7265
175.9036, 109.0299
176.3857, 108.0310
176.8679, 106.6842
177.3500, 104.8767
177.8321, 102.5140
178.3142, 99.58919
178.7963, 96.36874
179.2784, 92.69111
179.7606, 88.64990
180.2427, 85.27975
180.7248, 83.12193
181.2069, 81.57132
181.6890, 80.07994
182.1711, 78.59935
182.6533, 77.28593
183.1354, 76.31270
183.6175, 75.70772
184.0996, 75.22218
184.5817, 74.89397
185.0638, 74.61824
185.5460, 74.32378
186.0281, 73.99776
186.5102, 73.71033
186.9923, 73.55888
187.4744, 73.56215
187.9565, 73.66468
188.4387, 73.88951
188.9208, 74.17647
189.4029, 74.39718
189.8850, 74.53382
190.3671, 74.79585
190.8492, 75.70539
191.3314, 78.30565
191.8135, 79.76814
192.2956, 79.43030
192.7777, 78.27846
193.2598, 77.06544
193.7419, 76.10349
194.2241, 75.35802
194.7062, 74.74668
195.1883, 74.26863
195.6704, 73.95303
196.1525, 73.93227
196.6346, 74.03311
197.1168, 74.05188
197.5989, 73.89854
198.0810, 73.63233
198.5631, 73.42101
199.0452, 73.20867
199.5273, 73.11562
200.0095, 73.06254
200.4916, 73.15453
200.9737, 73.59518
201.4558, 74.51276
201.9379, 75.77041
202.4200, 77.03342
202.9022, 78.45325
203.3843, 79.63577
203.8664, 80.26641
204.3485, 80.52773
204.8306, 80.93443
205.3127, 81.75433
205.7949, 82.80125
206.2770, 83.66673
206.7591, 84.36684
207.2412, 84.89456
207.7233, 85.16641
208.2054, 85.22285
208.6876, 85.28751
209.1697, 85.35588
209.6518, 85.57130
210.1339, 86.16656
210.6160, 87.29461
211.0981, 88.37940
211.5803, 88.95014
212.0624, 89.00605
212.5445, 88.85069
213.0266, 88.23567
213.5087, 87.68505
213.9908, 87.85925
214.4730, 88.98558
214.9551, 90.11320
215.4372, 89.97614
215.9193, 88.30711
216.4014, 87.03921
216.8836, 86.97196
217.3657, 87.38379
217.8478, 87.93495
218.3299, 88.54839
218.8120, 89.10207
219.2941, 89.33560
219.7763, 89.05494
220.2584, 89.10537
220.7405, 89.69057
221.2226, 90.60094
221.7047, 91.72439
222.1868, 93.02821
222.6690, 94.53191
223.1511, 96.31547
223.6332, 98.58718
224.1153, 100.6835
224.5974, 102.2733
225.0795, 103.8523
225.5617, 105.8587
226.0438, 108.3887
226.5259, 111.1082
227.0080, 113.4211
227.4901, 115.0099
227.9722, 116.7379
228.4544, 118.4926
228.9365, 120.4533
229.4186, 122.7895
229.9007, 125.5278
230.3828, 128.5193
230.8649, 131.4598
231.3471, 134.0753
231.8292, 137.1534
232.3113, 141.2083
232.7934, 145.3783
233.2755, 148.8636
233.7576, 151.4615
234.2398, 153.7449
234.7219, 156.6440
235.2040, 160.8744
235.6861, 164.4407
236.1682, 167.0000
236.6503, 169.1015
237.1325, 171.1214
237.6146, 173.1701
238.0967, 175.3369
238.5788, 177.8036
239.0609, 180.8820
239.5430, 183.4641
240.0252, 184.9295
240.5073, 186.1554
240.9894, 188.0915
241.4715, 190.9707
241.9536, 194.1544
242.4357, 196.7803
242.9179, 198.6593
243.4000, 200.7904
243.8821, 203.3875
244.3642, 206.2185
244.8463, 209.2089
245.3284, 212.3860
245.8106, 215.2337
246.2927, 216.9907
246.7748, 217.6236
247.2569, 218.2741
247.7390, 219.1616
248.2211, 220.1316
248.7033, 221.0095
249.1854, 221.7692
249.6675, 222.4491
250.1496, 223.0868
250.6317, 223.6853
251.1138, 224.2008
251.5960, 224.5872
252.0781, 224.9026
252.5602, 225.1566
253.0423, 225.3089
253.5244, 225.6240
254.0065, 226.3498
254.4887, 227.4184
254.9708, 228.7369
255.4529, 230.6026
255.9350, 232.5770
256.4171, 233.8475
256.8992, 234.1893
257.3813, 234.7544
257.8635, 236.9106
258.3456, 239.8252
258.8277, 242.1040
259.3098, 243.1532
259.7919, 243.4553
260.2740, 243.6076
260.7562, 243.5778
261.2383, 243.5299
261.7204, 244.1359
262.2025, 244.6308
262.6846, 243.8924
263.1667, 241.2578
263.6489, 237.6691
264.1310, 234.4701
264.6131, 231.8196
265.0952, 228.8612
265.5773, 224.9478
266.0594, 220.6482
266.5416, 216.4096
267.0237, 212.3118
267.5058, 208.4143
267.9879, 204.7424
268.4700, 201.2920
268.9521, 198.1414
269.4343, 195.6627
269.9164, 193.3189
270.3985, 190.7058
270.8806, 187.7141
271.3627, 184.5620
271.8448, 181.4697
272.3270, 178.3990
272.8091, 175.5165
273.2912, 173.5791
273.7733, 171.3748
274.2554, 167.8628
274.7375, 162.8924
275.2197, 157.6336
275.7018, 153.4363
276.1839, 150.5110
276.6660, 147.3747
277.1481, 143.6057
277.6302, 139.7389
278.1124, 135.9371
278.5945, 132.2589
279.0766, 128.8976
279.5587, 126.2063
280.0408, 124.2928
280.5229, 122.0150
281.0051, 118.8475
281.4872, 115.7160
281.9693, 112.9682
282.4514, 110.6067
282.9335, 108.4721
283.4156, 106.4155
283.8978, 104.4310
284.3799, 102.8071
284.8620, 101.8367
285.3441, 100.9647
285.8262, 99.94523
286.3083, 98.87084
286.7905, 97.97630
287.2726, 97.47607
287.7547, 97.31784
288.2368, 96.98277
288.7189, 95.94772
289.2010, 95.39245
289.6832, 95.86398
290.1653, 96.95298
290.6474, 98.04549
291.1295, 98.77904
291.6116, 99.26402
292.0938, 99.92933
292.5759, 100.7306
293.0580, 101.8170
293.5401, 103.6441
294.0222, 105.5831
294.5043, 106.8529
294.9865, 107.0904
295.4686, 106.7101
295.9507, 106.7950
296.4328, 108.0631
296.9149, 108.4604
297.3970, 107.1446
297.8792, 105.3239
298.3613, 104.1178
298.8434, 103.8408
299.3255, 103.8913
299.8076, 103.2775
300.2897, 101.7926
300.7719, 100.0562
301.2540, 97.73402
301.7361, 95.47244
302.2182, 93.60686
302.7003, 92.22733
303.1824, 91.26248
303.6646, 90.71065
304.1467, 90.76599
304.6288, 90.53096
305.1109, 89.67314
305.5930, 88.83054
306.0751, 88.15970
306.5573, 87.75191
307.0394, 87.74775
307.5215, 88.33578
308.0036, 89.56824
308.4857, 90.68578
308.9678, 91.58974
309.4500, 92.47334
309.9321, 93.40462
310.4142, 94.36130
310.8963, 95.26714
311.3784, 96.05389
311.8605, 96.76081
312.3427, 97.68086
312.8248, 99.01994
313.3069, 100.3611
313.7890, 101.2073
314.2711, 102.1334
314.7532, 103.9870
315.2354, 107.2063
315.7175, 111.3381
316.1996, 115.0264
316.6817, 117.8996
317.1638, 120.9313
317.6459, 124.0797
318.1281, 127.4928
318.6102, 131.3094
319.0923, 135.5674
319.5744, 140.1531
320.0565, 144.9437
320.5386, 150.1591
321.0208, 155.0414
321.5029, 159.3013
321.9850, 163.4551
322.4671, 167.8870
322.9492, 172.6191
323.4313, 177.3523
323.9135, 181.8896
324.3956, 186.3077
324.8777, 190.0773
325.3598, 193.0661
325.8419, 195.5360
326.3240, 197.5202
326.8062, 199.0612
327.2883, 200.2501
327.7704, 201.1570
328.2525, 201.7794
328.7346, 202.1041
329.2167, 201.8902
329.6989, 201.6289
330.1810, 201.6588
330.6631, 201.6747
331.1452, 201.2279
331.6273, 200.0707
332.1094, 198.3217
332.5916, 196.3043
333.0737, 193.7930
333.5558, 191.3965
334.0379, 189.4949
334.5200, 187.5950
335.0021, 185.1528
335.4843, 182.0006
335.9664, 178.6146
336.4485, 175.8528
336.9306, 174.0254
337.4127, 171.8695
337.8948, 168.5091
338.3770, 165.3626
338.8591, 163.4695
339.3412, 162.7951
339.8233, 162.3996
340.3055, 161.3553
340.7876, 159.6133
341.2697, 157.7297
341.7518, 154.8562
342.2339, 152.7401
342.7160, 152.4135
343.1982, 153.4024
343.6803, 154.5386
344.1624, 155.0830
344.6445, 155.1315
345.1266, 155.1636
345.6087, 155.2399
346.0909, 155.1900
346.5730, 155.1496
347.0551, 154.9162
347.5372, 154.1951
348.0193, 152.8147
348.5014, 151.0509
348.9836, 149.4588
349.4657, 148.2335
349.9478, 146.5417
350.4299, 143.7438
350.9120, 140.6485
351.3941, 137.7525
351.8763, 135.1628
352.3584, 132.8617
352.8405, 130.9623
353.3226, 129.4717
353.8047, 127.8288
354.2868, 125.7408
354.7690, 123.7179
355.2511, 122.0793
355.7332, 120.7819
356.2153, 119.6303
356.6974, 118.5775
357.1795, 117.5806
357.6617, 116.4254
358.1438, 114.9792
358.6259, 113.6669
359.1080, 112.8460
359.5901, 112.2922
360.0722, 111.6497
360.5544, 110.7853
361.0365, 109.7875
361.5186, 108.7205
362.0007, 107.5690
362.4828, 106.5167
362.9649, 105.7602
363.4471, 105.0689
363.9292, 104.1585
364.4113, 102.9616
364.8934, 101.7111
365.3755, 100.5925
365.8576, 99.57936
366.3398, 98.49677
366.8219, 97.19582
367.3040, 95.97623
367.7861, 95.23199
368.2682, 94.91253
368.7503, 94.50217
369.2325, 93.90676
369.7146, 93.05404
370.1967, 91.69240
370.6788, 89.71017
371.1609, 87.76965
371.6430, 86.48000
372.1252, 85.65630
372.6073, 84.70182
373.0894, 83.56784
373.5715, 82.25925
374.0536, 80.63735
374.5357, 78.78233
375.0179, 77.16148
375.5000, 76.09930
375.9821, 75.34769
376.4642, 74.25683
376.9463, 72.59673
377.4284, 71.17558
377.9106, 70.36172
378.3927, 69.97031
378.8748, 69.75155
379.3569, 69.66253
379.8390, 69.54729
380.3211, 69.11911
380.8033, 68.25731
381.2854, 67.85314
381.7675, 68.48682
382.2496, 69.23244
382.7317, 69.37483
383.2138, 68.88516
383.6960, 68.03922
384.1781, 66.89606
384.6602, 65.53955
385.1423, 65.13364
385.6244, 66.58475
386.1065, 67.78478
386.5887, 67.95348
387.0708, 67.42018
387.5529, 66.72375
388.0350, 66.08865
388.5171, 65.51476
388.9992, 65.00240
389.4814, 64.64172
389.9635, 64.20477
390.4456, 63.68689
390.9277, 63.09797
391.4098, 62.34371
391.8919, 61.47175
392.3741, 60.74053
392.8562, 60.45814
393.3383, 60.70876
393.8204, 60.75599
394.3025, 60.53273
394.7846, 60.19323
395.2668, 59.82648
395.7489, 59.37591
396.2310, 58.66338
396.7131, 57.54522
397.1952, 56.23299
397.6773, 55.45119
398.1595, 55.31495
398.6416, 55.57703
399.1237, 56.46642
399.6058, 57.52439
400.0879, 58.42271
400.5700, 59.06393
401.0522, 59.46157
401.5343, 59.47303
402.0164, 58.93470
402.4985, 59.00095
402.9806, 60.18941
403.4627, 61.57385
403.9449, 62.82692
404.4270, 63.95461
404.9091, 65.04538
405.3912, 66.13798
405.8733, 67.24287
406.3554, 68.40959
406.8376, 69.72304
407.3197, 70.90474
407.8018, 71.63856
408.2839, 72.27961
408.7660, 73.24210
409.2481, 74.68804
409.7303, 76.15769
410.2124, 77.16364
410.6945, 77.73232
411.1766, 78.24870
411.6587, 78.52959
412.1408, 79.15565
412.6230, 80.79243
413.1051, 83.30859
413.5872, 85.76434
414.0693, 87.66078
414.5514, 89.29598
415.0335, 91.28356
415.5157, 93.72644
415.9978, 95.75224
416.4799, 96.70440
416.9620, 96.78056
417.4441, 96.77928
417.9262, 96.97365
418.4084, 96.76567
418.8905, 95.74039
419.3726, 94.04996
419.8547, 92.06723
420.3368, 89.90573
420.8189, 87.54236
421.3011, 84.94878
421.7832, 82.14567
422.2653, 79.06128
422.7474, 75.34795
423.2295, 71.58076
423.7116, 68.18003
424.1938, 65.19981
424.6759, 62.53947
425.1580, 60.12051
425.6401, 57.94432
426.1222, 55.96859
426.6043, 54.08805
427.0865, 52.49361
427.5686, 51.39121
428.0507, 50.54879
428.5328, 49.61615
429.0149, 48.46131
429.4970, 47.27356
429.9792, 46.39767
430.4613, 46.03706
430.9434, 45.54010
431.4255, 44.79797
431.9076, 44.03894
432.3897, 43.38457
432.8719, 42.83033
433.3540, 42.30042
433.8361, 41.72399
434.3182, 41.12572
434.8003, 40.69965
435.2824, 40.66510
435.7646, 40.46307
436.2467, 39.88723
436.7288, 39.13064
437.2109, 38.32175
437.6930, 37.49621
438.1751, 36.85300
438.6573, 36.72176
439.1394, 37.14455
439.6215, 37.52114
440.1036, 37.95461
440.5857, 38.09894
441.0678, 37.48800
441.5500, 36.35774
442.0321, 35.58988
442.5142, 35.92140
442.9963, 36.77825
443.4784, 37.02188
443.9605, 36.55420
444.4427, 36.25051
444.9248, 36.70662
445.4069, 37.51988
445.8890, 37.93807
446.3711, 37.76824
446.8532, 37.66261
447.3354, 38.18385
447.8175, 39.00521
448.2996, 39.29714
448.7817, 38.80061
449.2638, 38.25330
449.7459, 38.55547
450.2281, 39.77390
450.7102, 40.52706
451.1923, 40.29747
451.6744, 40.00442
452.1565, 40.30674
452.6386, 41.04474
453.1208, 41.65826
453.6029, 41.85057
454.0850, 41.75672
454.5671, 41.75097
455.0492, 42.01662
455.5313, 42.11573
456.0135, 41.79547
456.4956, 41.47329
456.9777, 41.52549
457.4598, 41.96901
457.9419, 42.53184
458.4240, 42.96054
458.9062, 43.25190
459.3883, 43.58469
459.8704, 43.90571
460.3525, 44.34130
460.8346, 45.08295
461.3167, 45.89393
461.7989, 46.39860
462.2810, 46.44876
462.7631, 46.43209
463.2452, 47.00930
463.7273, 48.29618
464.2094, 49.49189
464.6916, 50.50527
465.1737, 51.38498
465.6558, 52.10630
466.1379, 52.70740
466.6200, 53.32913
467.1021, 54.15245
467.5843, 54.99921
468.0664, 55.50427
468.5485, 55.64972
469.0306, 55.59496
469.5127, 55.40246
469.9948, 55.03811
470.4770, 54.41098
470.9591, 53.40426
471.4412, 52.56773
471.9233, 52.48775
472.4054, 52.68822
472.8875, 52.22423
473.3697, 50.90316
473.8518, 49.31028
474.3339, 47.86641
474.8160, 46.60380
475.2981, 45.74963
475.7802, 45.78135
476.2624, 45.71138
476.7445, 45.09088
477.2266, 44.05225
477.7087, 42.81653
478.1908, 41.45794
478.6729, 40.09346
479.1551, 38.94732
479.6372, 38.13896
480.1193, 37.26693
480.6014, 36.01330
481.0835, 34.98225
481.5656, 34.63035
482.0478, 34.80595
482.5299, 35.07096
483.0120, 35.16331
483.4941, 35.07791
483.9762, 34.74109
484.4583, 33.89949
484.9405, 33.33317
485.4226, 33.33597
485.9047, 33.54995
486.3868, 33.73712
486.8689, 33.85537
487.3510, 33.94924
487.8332, 34.01370
488.3153, 34.07405
488.7974, 34.28092
489.2795, 34.69659
489.7616, 35.11780
490.2437, 35.42036
490.7259, 35.64830
491.2080, 35.85415
491.6901, 36.00616
492.1722, 36.21476
492.6543, 36.56265
493.1364, 37.02985
493.6186, 37.57885
494.1007, 38.22237
494.5828, 38.87306
495.0649, 39.45540
495.5470, 39.96846
496.0291, 40.33152
496.5113, 40.34277
496.9934, 40.39059
497.4755, 40.80742
497.9576, 41.44279
498.4397, 41.79859
498.9218, 41.59968
499.4040, 41.31360
499.8861, 42.03865
500.3682, 44.63006
500.8503, 46.66784
501.3324, 47.77941
501.8145, 48.73118
502.2967, 49.97741
502.7788, 51.50126
503.2609, 53.05586
503.7430, 54.46013
504.2251, 55.78666
504.7072, 57.31560
505.1894, 59.13653
505.6715, 60.97221
506.1536, 62.90290
506.6357, 64.72543
507.1178, 66.36079
507.5999, 67.77405
508.0821, 68.71904
508.5642, 68.85061
509.0463, 68.37827
509.5284, 67.95280
510.0105, 67.67136
510.4926, 67.16518
510.9748, 66.16862
511.4569, 64.78294
511.9390, 63.26157
512.4211, 61.53996
512.9032, 59.84157
513.3853, 58.38391
513.8674, 56.99754
514.3495, 55.41119
514.8317, 53.54982
515.3138, 51.49028
515.7959, 49.22770
516.2780, 46.71014
516.7601, 44.75493
517.2422, 43.76082
517.7244, 42.77616
518.2065, 41.41818
518.6886, 39.88997
519.1707, 38.51034
519.6528, 37.39280
520.1349, 36.39969
520.6171, 35.30245
521.0992, 34.01587
521.5813, 32.97499
522.0634, 32.44152
522.5455, 31.90470
523.0276, 31.14855
523.5098, 30.26017
523.9919, 29.40241
524.4740, 28.61651
524.9561, 27.96625
525.4382, 27.58388
525.9203, 27.47654
526.4025, 27.35165
526.8846, 27.12369
527.3667, 26.88461
527.8488, 26.80730
528.3309, 26.84307
528.8130, 26.63519
529.2952, 25.65919
529.7773, 24.71656
530.2594, 24.76181
530.7415, 25.57501
531.2236, 26.05461
531.7057, 25.65311
532.1879, 24.83804
532.6700, 24.49783
533.1521, 24.79889
533.6342, 25.24585
534.1163, 26.21066
534.5984, 26.99466
535.0806, 26.89186
535.5627, 26.18576
536.0448, 25.77814
536.5269, 26.25914
537.0090, 27.28257
537.4911, 27.75342
537.9733, 27.31936
538.4554, 27.11601
538.9375, 27.45005
539.4196, 27.89883
539.9017, 28.33715
540.3839, 28.68235
540.8660, 28.72392
541.3481, 28.12832
541.8302, 27.24889
542.3123, 26.92767
542.7944, 27.22518
543.2766, 27.55561
543.7587, 27.72197
544.2408, 27.77806
544.7229, 27.74504
545.2050, 27.58437
545.6871, 27.65833
546.1693, 28.36286
546.6514, 29.19537
547.1335, 29.50664
547.6156, 29.34208
548.0977, 29.29488
548.5798, 29.73905
549.0620, 30.53969
549.5441, 31.23730
550.0262, 31.98147
550.5083, 32.39610
550.9904, 31.87494
551.4725, 31.48161
551.9547, 32.18553
552.4368, 33.84096
552.9189, 35.60409
553.4010, 36.89145
553.8831, 37.73751
554.3652, 38.20041
554.8474, 38.10180
555.3295, 38.06581
555.8116, 38.36564
556.2937, 38.70582
556.7758, 38.82811
557.2579, 38.73802
557.7401, 38.72078
558.2222, 39.16628
558.7043, 39.70426
559.1864, 39.56210
559.6685, 38.71787
560.1506, 37.98259
560.6328, 37.75454
561.1149, 37.87384
561.5970, 38.01344
562.0791, 38.16034
562.5612, 38.35640
563.0433, 38.46551
563.5255, 38.73140
564.0076, 39.40553
564.4897, 40.44855
564.9718, 41.67411
565.4539, 42.98789
565.9360, 44.31867
566.4182, 45.40053
566.9003, 46.08954
567.3824, 46.81079
567.8645, 47.55181
568.3466, 48.36790
568.8287, 49.40958
569.3109, 50.58187
569.7930, 51.56936
570.2751, 52.24603
570.7572, 52.55435
571.2393, 52.26612
571.7214, 51.33613
572.2036, 50.39988
572.6857, 49.76032
573.1678, 49.08796
573.6499, 47.92476
574.1320, 46.29133
574.6141, 44.73138
575.0963, 43.46360
575.5784, 42.27849
576.0605, 40.93589
576.5426, 39.51044
577.0247, 38.32113
577.5068, 37.54766
577.9890, 36.88318
578.4711, 35.70191
578.9532, 33.55509
579.4353, 32.05375
579.9174, 31.64141
580.3995, 31.34377
580.8817, 30.57196
581.3638, 29.58848
581.8459, 29.05159
582.3280, 29.31828
582.8101, 29.77087
583.2922, 29.21359
583.7744, 27.53792
584.2565, 26.50937
584.7386, 26.68672
585.2207, 27.08036
585.7029, 27.04441
586.1850, 26.67551
586.6671, 26.17584
587.1492, 25.35011
587.6313, 24.73303
588.1135, 24.88821
588.5956, 25.53003
589.0777, 25.99105
589.5598, 26.10092
590.0419, 26.08566
590.5240, 26.21720
591.0062, 26.51840
591.4883, 26.41682
591.9704, 25.26864
592.4525, 24.54483
592.9346, 24.97033
593.4167, 25.82719
593.8989, 26.28216
594.3810, 26.15767
594.8631, 25.87774
595.3452, 25.88876
595.8273, 26.15855
596.3094, 26.29717
596.7916, 26.23682
597.2737, 26.20180
597.7558, 26.34829
598.2379, 26.53966
598.7200, 26.58167
599.2021, 26.42330
599.6843, 26.41521
600.1664, 26.93024
600.6485, 27.60693
601.1306, 27.80518
601.6127, 27.55050
602.0948, 27.53292
602.5770, 28.18395
603.0591, 29.28265
603.5412, 30.23904
604.0233, 31.32585
604.5054, 31.76548
604.9875, 31.08713
605.4697, 30.18664
605.9518, 29.47660
606.4339, 29.03506
606.9160, 28.90369
607.3981, 29.12736
607.8802, 29.56627
608.3624, 29.96891
608.8445, 30.33605
609.3266, 30.63796
609.8087, 30.75331
610.2908, 30.95696
610.7729, 31.64079
611.2551, 32.58687
611.7372, 33.11956
612.2193, 32.76742
612.7014, 32.32837
613.1835, 32.41712
613.6656, 32.83438
614.1478, 33.05805
614.6299, 32.96228
615.1120, 33.06397
615.5941, 33.98620
616.0762, 35.73649
616.5583, 36.80219
617.0405, 36.64254
617.5226, 36.47928
618.0047, 36.51300
618.4868, 36.63128
618.9689, 36.64746
619.4510, 36.57694
619.9332, 36.69415
620.4153, 37.34844
620.8974, 38.34972
621.3795, 38.94069
621.8616, 39.02221
622.3438, 39.22573
622.8259, 39.81710
623.3080, 40.62072
623.7901, 41.44855
624.2722, 42.31421
624.7543, 43.00188
625.2365, 43.25690
625.7186, 43.48188
626.2007, 44.08003
626.6828, 44.92693
627.1649, 45.58072
627.6470, 45.85221
628.1292, 46.06003
628.6113, 46.77878
629.0934, 48.23182
629.5755, 49.26334
630.0576, 49.29220
630.5397, 49.50997
631.0219, 50.39038
631.5040, 51.62030
631.9861, 52.76541
632.4682, 53.69954
632.9503, 54.57529
633.4324, 55.34816
633.9146, 56.17676
634.3967, 57.69855
634.8788, 60.03526
635.3609, 62.32323
635.8430, 64.04142
636.3251, 65.36816
636.8073, 66.75546
637.2894, 68.15464
637.7715, 69.72001
638.2536, 71.51823
638.7357, 73.46068
639.2178, 75.39836
639.7000, 77.41703
640.1821, 79.79391
640.6642, 82.70482
641.1463, 85.93264
641.6284, 89.04375
642.1105, 91.95683
642.5927, 95.11571
643.0748, 98.49808
643.5569, 102.2043
644.0390, 106.3773
644.5211, 110.8852
645.0032, 115.3802
645.4854, 119.5717
645.9675, 124.2735
646.4496, 130.1240
646.9317, 136.8655
647.4138, 144.0797
647.8959, 151.6991
648.3781, 159.5326
648.8602, 167.2696
649.3423, 175.2184
649.8244, 184.5054
650.3065, 195.5324
650.7886, 207.4593
651.2708, 220.1159
651.7529, 233.7828
652.2350, 248.4100
652.7171, 264.1709
653.1992, 281.4588
653.6813, 300.6545
654.1635, 321.2831
654.6456, 342.7062
655.1277, 364.9384
655.6098, 388.1540
656.0919, 412.3215
656.5740, 437.5982
657.0562, 464.2914
657.5383, 492.2577
658.0204, 520.0289
658.5025, 548.1290
658.9846, 575.2305
659.4667, 600.5782
659.9489, 624.7097
660.4310, 648.3438
660.9131, 671.3682
661.3952, 692.9191
661.8773, 712.4730
662.3594, 730.3865
662.8416, 747.8734
663.3237, 764.7357
663.8058, 782.0847
664.2879, 799.4525
664.7700, 818.2567
665.2521, 840.1447
665.7343, 864.2870
666.2164, 887.8325
666.6985, 910.1420
667.1806, 931.5960
667.6627, 954.3815
668.1448, 976.0438
668.6270, 992.6000
669.1091, 1002.996
669.5912, 1006.625
670.0733, 1002.774
670.5554, 991.6490
671.0375, 974.4627
671.5197, 950.0786
672.0018, 921.2462
672.4839, 887.6200
672.9660, 850.8630
673.4481, 810.9324
673.9302, 769.0243
674.4124, 727.4284
674.8945, 687.2000
675.3766, 648.6675
675.8587, 611.9681
676.3408, 577.2617
676.8229, 545.4071
677.3051, 516.5204
677.7872, 490.1804
678.2693, 466.3174
678.7514, 444.7490
679.2335, 423.4373
679.7156, 401.7807
680.1978, 380.9839
680.6799, 360.9813
681.1620, 341.9585
681.6441, 324.4751
682.1262, 308.1614
682.6083, 292.2846
683.0905, 276.2731
683.5726, 260.3918
684.0547, 244.7241
684.5368, 229.3274
685.0189, 215.2896
685.5010, 203.0003
685.9832, 191.8301
686.4653, 181.3757
686.9474, 171.6780
687.4295, 162.9790
687.9116, 155.7954
688.3937, 148.9098
688.8759, 141.8251
689.3580, 134.9635
689.8401, 128.7886
690.3222, 123.3035
690.8043, 118.3120
691.2864, 113.6794
691.7686, 109.3768
692.2507, 105.2802
692.7328, 101.3290
693.2149, 98.00054
693.6970, 95.62843
694.1791, 93.53061
694.6613, 91.20480
695.1434, 88.80573
695.6255, 86.69238
696.1076, 85.11110
696.5897, 83.44201
697.0718, 81.31535
697.5540, 78.98631
698.0361, 76.56907
698.5182, 74.21371
699.0003, 72.43352
699.4824, 71.58730
699.9645, 71.27858
700.4467, 70.51025
700.9288, 69.08479
701.4109, 67.95043
701.8930, 67.27908
702.3751, 66.76961
702.8572, 66.32012
703.3394, 65.91241
703.8215, 65.52272
704.3036, 65.15366
704.7857, 64.78134
705.2678, 64.48548
705.7499, 64.13065
706.2321, 63.39268
706.7142, 62.36290
707.1963, 61.57916
707.6784, 61.32044
708.1605, 61.44476
708.6426, 61.73320
709.1248, 62.36147
709.6069, 62.51563
710.0890, 61.65981
710.5711, 60.95631
711.0532, 60.93547
711.5353, 61.22972
712.0175, 61.41764
712.4996, 61.42241
712.9817, 61.16621
713.4638, 60.38236
713.9459, 59.43438
714.4280, 58.88309
714.9102, 58.67262
715.3923, 58.41017
715.8744, 57.93279
716.3565, 57.33857
716.8386, 56.76134
717.3207, 56.20509
717.8029, 55.65752
718.2850, 55.09684
718.7671, 54.57891
719.2492, 54.08079
719.7313, 53.65398
720.2134, 53.47065
720.6956, 53.49120
721.1777, 53.24027
721.6598, 52.12193
722.1419, 50.79456
722.6240, 50.27865
723.1061, 50.33779
723.5883, 49.98008
724.0704, 48.89599
724.5525, 47.57808
725.0346, 46.51815
725.5167, 45.71097
725.9988, 44.94196
726.4810, 44.28086
726.9631, 43.55327
727.4452, 42.68857
727.9273, 41.78645
728.4094, 40.83968
728.8915, 39.90993
729.3737, 39.18687
729.8558, 38.76580
730.3379, 38.56559
730.8200, 38.64481
731.3021, 38.86483
731.7842, 38.79710
732.2664, 38.37194
732.7485, 37.89759
733.2306, 37.59562
733.7127, 37.44156
734.1948, 37.35908
734.6769, 37.58484
735.1591, 37.44127
735.6412, 36.51896
736.1233, 35.64508
736.6054, 35.29847
737.0875, 35.28930
737.5696, 35.20218
738.0518, 34.87817
738.5339, 34.64001
739.0160, 34.98979
739.4981, 35.50457
739.9802, 35.32729
740.4623, 34.46589
740.9445, 33.51410
741.4266, 32.75361
741.9087, 32.13557
742.3908, 31.56518
742.8729, 31.00727
743.3550, 30.64549
743.8372, 30.91031
744.3193, 30.84634
744.8014, 29.88300
745.2835, 28.64757
745.7656, 27.89396
746.2477, 27.69743
746.7299, 27.41548
747.2120, 26.40891
747.6941, 25.34434
748.1762, 25.17943
748.6583, 25.62186
749.1404, 25.71347
749.6226, 25.18442
750.1047, 24.47108
750.5868, 24.01606
751.0689, 23.79272
751.5510, 23.47701
752.0331, 22.94320
752.5153, 22.56262
752.9974, 22.53065
753.4795, 22.54910
753.9616, 22.40159
754.4437, 22.14551
754.9258, 22.00515
755.4080, 22.16077
755.8901, 22.22616
756.3722, 21.79951
756.8543, 21.18406
757.3364, 20.75576
757.8185, 20.59178
758.3007, 20.81773
758.7828, 21.55665
759.2649, 22.44878
759.7470, 22.66785
760.2291, 22.04847
760.7112, 21.56511
761.1934, 21.33892
761.6755, 21.09200
762.1576, 20.52365
762.6397, 19.94064
763.1218, 19.82920
763.6039, 20.29806
764.0861, 20.57556
764.5682, 20.15477
765.0503, 19.66594
765.5324, 19.66887
766.0145, 19.96014
766.4966, 20.13601
766.9788, 20.06854
767.4609, 19.79339
767.9430, 19.26324
768.4251, 18.58955
768.9072, 18.38932
769.3893, 18.75677
769.8715, 19.13404
770.3536, 19.48769
770.8357, 19.66213
771.3178, 19.29418
771.7999, 18.55617
772.2820, 18.35806
772.7642, 19.43867
773.2463, 20.13333
773.7284, 19.63390
774.2105, 18.84035
774.6926, 18.51801
775.1747, 18.63681
775.6569, 18.86849
776.1390, 19.06538
776.6211, 19.15042
777.1032, 18.89745
777.5853, 18.40460
778.0674, 18.31062
778.5496, 18.71589
779.0317, 19.02997
779.5138, 18.96267
779.9959, 18.63958
780.4780, 18.22557
780.9601, 17.60837
781.4423, 17.38236
781.9244, 17.82976
782.4065, 18.30566
782.8886, 18.80727
783.3707, 19.10891
783.8528, 18.81005
784.3350, 17.98512
784.8171, 17.35376
785.2992, 17.42924
785.7813, 17.83741
786.2634, 18.27204
786.7455, 18.63208
787.2277, 18.40232
787.7098, 17.49916
788.1919, 16.86989
788.6740, 17.34170
789.1561, 18.53766
789.6382, 19.02670
790.1204, 18.37171
790.6025, 18.06671
791.0846, 18.59661
791.5667, 19.03150
792.0488, 18.84309
792.5309, 18.34772
793.0131, 18.02750
793.4952, 17.96544
793.9773, 18.05279
794.4594, 18.40721
794.9415, 18.74693
795.4236, 18.76650
795.9058, 18.56201
796.3879, 18.35520
796.8700, 18.22446
797.3521, 18.18241
797.8342, 18.26058
798.3163, 18.43101
798.7985, 18.53518
799.2806, 18.55274
799.7627, 18.62306
800.2448, 18.78435
800.7269, 19.00445
801.2090, 19.41467
801.6912, 19.88684
802.1733, 19.77323
802.6554, 18.39736
803.1375, 17.50986
803.6196, 17.75210
804.1017, 18.30184
804.5839, 18.65166
805.0660, 18.81780
805.5481, 18.98496
806.0302, 19.22359
806.5123, 19.35715
806.9944, 19.10704
807.4766, 18.64892
807.9587, 18.39120
808.4408, 18.34097
808.9229, 18.41377
809.4050, 18.58700
809.8871, 18.82778
810.3693, 19.12215
810.8514, 19.46774
811.3335, 19.64299
811.8156, 19.60597
812.2977, 19.46652
812.7798, 18.92389
813.2620, 18.57208
813.7441, 19.07946
814.2262, 20.09344
814.7083, 20.57424
815.1904, 20.08643
815.6725, 19.43182
816.1547, 18.87855
816.6368, 18.51814
817.1189, 18.59145
817.6010, 18.95594
818.0831, 19.16925
818.5652, 19.04370
819.0474, 18.76328
819.5295, 18.52644
820.0116, 18.34206
820.4937, 18.31288
820.9758, 18.46298
821.4579, 18.65694
821.9401, 18.96540
822.4222, 19.09650
822.9043, 18.61799
823.3864, 17.56860
823.8685, 16.91366
824.3506, 16.62355
824.8328, 16.74956
825.3149, 17.73519
825.7970, 18.75387
826.2791, 19.32175
826.7612, 19.41926
827.2433, 19.04580
827.7255, 18.12860
828.2076, 17.30906
828.6897, 17.23966
829.1718, 17.56421
829.6539, 17.78382
830.1360, 17.84976
830.6182, 17.61648
831.1003, 17.02469
831.5824, 16.55151
832.0645, 16.83861
832.5466, 17.79971
833.0287, 18.34108
833.5109, 18.37719
833.9930, 18.21777
834.4751, 17.68979
834.9572, 17.26871
835.4393, 17.52726
835.9214, 18.20413
836.4036, 18.53357
836.8857, 18.36177
837.3678, 18.03677
837.8499, 17.32483
838.3320, 16.78506
838.8141, 16.97646
839.2963, 17.59739
839.7784, 18.10738
840.2605, 18.32642
840.7426, 18.32477
841.2247, 18.00440
841.7068, 17.58210
842.1890, 17.50730
842.6711, 17.73458
843.1532, 18.06008
843.6353, 18.43832
844.1174, 18.66715
844.5995, 18.51612
845.0817, 18.12291
845.5638, 18.18324
846.0459, 19.05778
846.5280, 19.35267
847.0101, 18.49271
847.4922, 17.65743
847.9744, 17.44315
848.4565, 17.63218
848.9386, 17.97449
849.4207, 18.49822
849.9028, 18.82055
850.3849, 18.63670
850.8671, 18.43824
851.3492, 18.62716
851.8313, 18.92196
852.3134, 18.81430
852.7955, 18.32689
853.2776, 18.05640
853.7598, 18.46925
854.2419, 18.46540
854.7240, 19.43949
855.2061, 19.45762
855.6882, 19.98592
856.1703, 21.10063
856.6525, 21.86278
857.1346, 21.68196
857.6167, 21.07608
858.0988, 21.06209
858.5809, 21.78046
859.0630, 22.12655
859.5452, 21.77326
860.0273, 21.63247
860.5094, 22.26490
860.9915, 22.99593
861.4736, 23.15029
861.9557, 22.82736
862.4379, 22.68207
862.9200, 22.76019
863.4021, 23.13089
863.8842, 24.08765
864.3663, 25.12134
864.8484, 25.73637
865.3306, 26.05725
865.8127, 26.50536
866.2948, 27.23637
866.7769, 27.99847
867.2590, 28.55625
867.7411, 28.95622
868.2233, 29.14715
868.7054, 29.22288
869.1875, 29.75488
869.6696, 30.91280
870.1517, 32.18509
870.6339, 33.07625
871.1160, 33.69041
871.5981, 34.53526
872.0802, 35.75137
872.5623, 36.68053
873.0444, 37.07595
873.5266, 37.47785
874.0087, 38.21761
874.4908, 39.14504
874.9729, 39.95384
875.4550, 40.60668
875.9371, 41.36441
876.4193, 42.46189
876.9014, 43.42832
877.3835, 43.96523
877.8656, 44.32994
878.3477, 44.92458
878.8298, 45.65520
879.3120, 45.96667
879.7941, 45.47810
880.2762, 44.75371
880.7583, 44.26387
881.2404, 43.94712
881.7225, 43.80391
882.2047, 43.75014
882.6868, 43.47396
883.1689, 42.83931
883.6510, 41.95296
884.1331, 40.89962
884.6152, 39.71006
885.0974, 38.61840
885.5795, 37.61235
886.0616, 36.84784
886.5437, 36.42777
887.0258, 36.09614
887.5079, 35.65425
887.9901, 35.13060
888.4722, 34.64653
888.9543, 34.38783
889.4364, 33.80474
889.9185, 32.30384
890.4006, 31.17598
890.8828, 31.26223
891.3649, 31.80643
891.8470, 31.83602
892.3291, 31.27423
892.8112, 30.81984
893.2933, 30.82298
893.7755, 30.93689
894.2576, 30.97380
894.7397, 30.97948
895.2218, 31.03109
895.7039, 31.11054
896.1860, 31.13248
896.6682, 31.05565
897.1503, 30.94803
897.6324, 30.73170
898.1145, 30.52019
898.5966, 30.20527
899.0787, 29.83346
899.5609, 29.92553
900.0430, 30.67480
900.5251, 31.49441
901.0072, 31.78898
901.4893, 32.34373
901.9714, 32.75494
902.4536, 32.81906
902.9357, 33.29447
903.4178, 33.05983
903.8999, 32.94865
904.3820, 33.49278
904.8641, 34.37626
905.3463, 35.11401
905.8284, 35.72329
906.3105, 36.05052
906.7926, 35.61278
907.2747, 35.49536
907.7568, 36.34290
908.2390, 37.39381
908.7211, 38.04737
909.2032, 38.29964
909.6853, 38.33601
910.1674, 38.14407
910.6495, 38.06132
911.1317, 38.43603
911.6138, 38.94172
912.0959, 39.25350
912.5780, 39.37615
913.0601, 39.33931
913.5422, 39.17515
914.0244, 39.02168
914.5065, 39.00452
914.9886, 38.92765
915.4707, 39.04568
915.9528, 38.97702
916.4349, 39.02708
916.9171, 39.21912
917.3992, 39.45950
917.8813, 39.70066
918.3634, 39.95346
918.8455, 40.25321
919.3276, 40.60992
919.8098, 40.81731
920.2919, 40.76436
920.7740, 40.87537
921.2561, 41.51870
921.7382, 42.00694
922.2203, 41.50793
922.7025, 40.37740
923.1846, 40.02594
923.6667, 40.85150
924.1488, 41.57854
924.6309, 42.17909
925.1130, 42.55674
925.5952, 42.35680
926.0773, 42.10040
926.5594, 42.52529
927.0415, 43.61201
927.5236, 44.53892
928.0057, 44.78526
928.4879, 45.03555
928.9700, 45.71519
929.4521, 46.65743
929.9342, 47.77342
930.4163, 48.96425
930.8984, 49.91432
931.3806, 50.54133
931.8627, 51.55365
932.3448, 54.12890
932.8269, 57.31635
933.3090, 58.91002
933.7911, 59.31328
934.2733, 60.26037
934.7554, 62.07123
935.2375, 63.98259
935.7196, 65.50056
936.2017, 66.69752
936.6838, 67.68159
937.1660, 68.45092
937.6481, 69.07726
938.1302, 69.53737
938.6123, 70.00246
939.0944, 70.65777
939.5765, 71.05511
940.0587, 70.64037
940.5408, 69.54746
941.0229, 68.77720
941.5050, 68.57327
941.9871, 68.24586
942.4692, 67.66354
942.9514, 67.08376
943.4335, 66.73186
943.9156, 66.37091
944.3977, 65.61421
944.8798, 64.45344
945.3619, 63.49723
945.8441, 62.81758
946.3262, 62.43861
946.8083, 62.29432
947.2904, 62.51802
947.7725, 63.51279
948.2546, 64.90180
948.7368, 65.88606
949.2189, 66.22580
949.7010, 66.29861
950.1831, 65.89743
950.6652, 65.76562
951.1473, 66.77617
951.6295, 68.55137
952.1116, 70.55515
952.5937, 72.60054
953.0758, 74.37717
953.5579, 75.67429
954.0400, 77.01981
954.5222, 78.97604
955.0043, 81.58576
955.4864, 85.37701
955.9685, 90.11834
956.4506, 94.06413
956.9327, 96.69504
957.4149, 99.36390
957.8970, 103.2313
958.3791, 108.1927
958.8612, 114.1909
959.3433, 121.2881
959.8254, 128.1294
960.3076, 134.4841
960.7897, 141.2025
961.2718, 148.5589
961.7539, 156.5632
962.2360, 165.1910
962.7181, 174.4651
963.2003, 184.1662
963.6824, 194.1730
964.1645, 204.8525
964.6466, 216.0904
965.1287, 228.1834
965.6108, 241.5951
966.0930, 255.7874
966.5751, 270.1392
967.0572, 284.6690
967.5393, 298.7459
968.0214, 311.6744
968.5035, 324.9297
968.9857, 339.3326
969.4678, 353.8602
969.9499, 368.5973
970.4320, 382.7287
970.9141, 394.8610
971.3962, 404.5196
971.8784, 412.9034
972.3605, 420.6003
972.8426, 427.0280
973.3247, 432.5260
973.8068, 436.0432
974.2889, 435.6968
974.7711, 432.0254
975.2532, 427.6893
975.7353, 423.9959
976.2174, 419.3315
976.6995, 411.9005
977.1816, 402.8502
977.6638, 393.1237
978.1459, 383.2530
978.6280, 374.4388
979.1101, 366.8354
979.5922, 359.8511
980.0743, 353.1232
980.5565, 346.6612
981.0386, 340.0357
981.5207, 333.7608
982.0028, 330.0746
982.4849, 328.8707
982.9670, 327.7525
983.4492, 325.9095
983.9313, 325.2695
984.4134, 327.8561
984.8955, 332.7058
985.3776, 336.7495
985.8597, 339.9510
986.3419, 343.3699
986.8240, 346.9979
987.3061, 351.4740
987.7882, 357.0341
988.2703, 363.7388
988.7524, 371.8301
989.2346, 381.2170
989.7167, 390.4996
990.1988, 399.8453
990.6809, 408.5721
991.1630, 415.9975
991.6451, 424.0402
992.1273, 433.9069
992.6094, 444.7560
993.0915, 455.7774
993.5736, 467.0704
994.0557, 476.1551
994.5378, 482.0967
995.0200, 487.0867
995.5021, 492.7216
995.9842, 495.9838
996.4663, 494.9336
996.9484, 490.5937
997.4305, 484.5451
997.9127, 476.9079
998.3948, 467.7794
998.8769, 457.3655
999.3590, 445.1359
999.8411, 430.1707
1000.323, 413.9450
1000.805, 397.2516
1001.287, 380.3002
1001.770, 363.4722
1002.252, 346.8480
1002.734, 330.6609
1003.216, 314.9261
1003.698, 299.8568
1004.180, 285.8116
1004.662, 272.4077
1005.144, 259.1329
1005.627, 246.1960
1006.109, 234.5067
1006.591, 224.4107
1007.073, 214.7500
1007.555, 204.6356
1008.037, 194.7342
1008.519, 185.8314
1009.001, 177.5795
1009.483, 169.2752
1009.966, 161.0643
1010.448, 153.9018
1010.930, 148.3299
1011.412, 143.1130
1011.894, 136.8333
1012.376, 130.3096
1012.858, 124.5672
1013.340, 119.6331
1013.823, 115.6250
1014.305, 112.4271
1014.787, 109.4120
1015.269, 106.2425
1015.751, 103.0516
1016.233, 99.88224
1016.715, 96.89439
1017.197, 94.61446
1017.679, 92.96181
1018.162, 91.48180
1018.644, 90.07415
1019.126, 88.78268
1019.608, 87.64539
1020.090, 86.62067
1020.572, 85.63729
1021.054, 84.70232
1021.536, 83.83008
1022.018, 83.02146
1022.501, 82.25718
1022.983, 81.52600
1023.465, 80.83041
1023.947, 80.15295
1024.429, 79.57445
1024.911, 79.32277
1025.393, 79.40807
1025.875, 79.27090
1026.358, 78.87404
1026.840, 78.57036
1027.322, 78.46463
1027.804, 78.40568
1028.286, 78.26697
1028.768, 78.10913
1029.250, 78.07040
1029.732, 78.14040
1030.214, 78.45244
1030.697, 79.12740
1031.179, 79.62167
1031.661, 79.77182
1032.143, 79.74171
1032.625, 79.58460
1033.107, 79.40677
1033.589, 79.50770
1034.071, 79.90571
1034.553, 80.49779
1035.036, 81.29358
1035.518, 82.30691
1036.000, 83.81503
1036.482, 85.13322
1036.964, 85.60727
1037.446, 85.52406
1037.928, 85.72652
1038.410, 86.33212
1038.893, 86.80424
1039.375, 86.88867
1039.857, 87.26299
1040.339, 88.72253
1040.821, 89.86333
1041.303, 89.41641
1041.785, 87.85815
1042.267, 86.51693
1042.750, 85.42964
1043.232, 84.43855
1043.714, 83.76105
1044.196, 82.88671
1044.678, 81.89127
1045.160, 80.48476
1045.642, 78.24210
1046.124, 75.47636
1046.606, 72.90378
1047.089, 70.58635
1047.571, 68.40000
1048.053, 66.53690
1048.535, 64.54649
1049.017, 62.30695
1049.499, 59.88251
1049.981, 57.00402
1050.463, 54.07000
1050.945, 52.04746
1051.428, 51.21333
1051.910, 50.16630
1052.392, 48.40926
1052.874, 46.72812
1053.356, 45.36620
1053.838, 44.17160
1054.320, 42.99680
1054.802, 41.91193
1055.285, 41.12038
1055.767, 40.68562
1056.249, 40.13812
1056.731, 39.29094
1057.213, 38.39869
1057.695, 37.42412
1058.177, 36.56847
1058.659, 36.17554
1059.141, 35.94031
1059.624, 35.17466
1060.106, 33.76378
1060.588, 32.70493
1061.070, 32.61825
1061.552, 32.53584
1062.034, 32.04562
1062.516, 31.44635
1062.998, 30.87940
1063.480, 30.41675
1063.963, 30.23649
1064.445, 30.33513
1064.927, 30.20216
1065.409, 29.42139
1065.891, 28.68492
1066.373, 28.24813
1066.855, 27.99035
1067.337, 28.01480
1067.820, 28.05625
1068.302, 27.65090
1068.784, 26.79019
1069.266, 26.02623
1069.748, 25.54780
1070.230, 25.24078
1070.712, 25.12756
1071.194, 25.09215
1071.677, 25.14769
1072.159, 25.16622
1072.641, 24.83892
1073.123, 24.25117
1073.605, 24.09688
1074.087, 24.96984
1074.569, 25.48438
1075.051, 24.63134
1075.533, 23.57467
1076.016, 23.11455
1076.498, 22.97787
1076.980, 22.73458
1077.462, 22.39154
1077.944, 22.27452
1078.426, 22.59833
1078.908, 22.77297
1079.390, 22.35670
1079.873, 21.88806
1080.355, 21.74641
1080.837, 21.73413
1081.319, 21.63188
1081.801, 21.42828
1082.283, 21.20097
1082.765, 20.98332
1083.247, 20.66760
1083.729, 19.92165
1084.212, 19.40173
1084.694, 19.60066
1085.176, 20.12811
1085.658, 20.83138
1086.140, 21.45411
1086.622, 21.43671
1087.104, 20.61761
1087.586, 19.91956
1088.068, 19.94947
1088.551, 19.91433
1089.033, 19.16873
1089.515, 18.41705
1089.997, 18.30746
1090.479, 18.65075
1090.961, 19.12827
1091.443, 19.64876
1091.925, 19.81198
1092.408, 19.08322
1092.890, 18.49528
1093.372, 18.68990
1093.854, 18.93933
1094.336, 18.59550
1094.818, 18.02478
1095.300, 17.83751
1095.782, 18.06020
1096.265, 18.24287
1096.747, 18.28882
1097.229, 18.21383
1097.711, 17.82193
1098.193, 17.53827
1098.675, 17.68883
1099.157, 18.03085
1099.639, 18.34089
1100.121, 18.57051
1100.604, 18.66731
1101.086, 18.63733
1101.568, 18.42279
1102.050, 17.57249
1102.532, 17.07965
1103.014, 17.86369
1103.496, 18.77631
1103.978, 18.67858
1104.460, 17.86701
1104.943, 17.22833
1105.425, 16.86621
1105.907, 16.78947
1106.389, 17.27203
1106.871, 17.66442
1107.353, 17.77768
1107.835, 17.74084
1108.317, 17.52700
1108.800, 17.27718
1109.282, 17.29116
1109.764, 17.60624
1110.246, 17.65333
1110.728, 17.09003
1111.210, 16.69217
1111.692, 16.70028
1112.174, 16.73648
1112.656, 16.59631
1113.139, 16.39968
1113.621, 16.27456
1114.103, 16.22496
1114.585, 16.26902
1115.067, 16.48551
1115.549, 16.65197
1116.031, 16.70210
1116.513, 16.80232
1116.995, 17.18531
1117.478, 17.44263
1117.960, 17.10621
1118.442, 16.38508
1118.924, 15.93996
1119.406, 15.81624
1119.888, 15.82167
1120.370, 16.23285
1120.852, 16.13142
1121.335, 14.83735
1121.817, 13.88084
1122.299, 14.49492
1122.781, 15.80529
1123.263, 16.18565
1123.745, 15.61057
1124.227, 15.38579
1124.709, 15.65787
1125.192, 15.73782
1125.674, 15.46295
1126.156, 15.25993
1126.638, 15.39620
1127.120, 15.48603
1127.602, 14.96971
1128.084, 15.20200
1128.566, 15.32782
1129.048, 15.18291
1129.531, 15.76402
1130.013, 15.71654
1130.495, 15.63284
1130.977, 15.70164
1131.459, 15.75424
1131.941, 15.65225
1132.423, 15.44722
1132.905, 15.23007
1133.387, 15.00601
1133.870, 14.86558
1134.352, 14.80472
1134.834, 14.71495
1135.316, 14.57571
1135.798, 14.40562
1136.280, 14.20974
1136.762, 14.05809
1137.244, 13.99914
1137.727, 14.09542
1138.209, 14.70778
1138.691, 15.64744
1139.173, 16.13202
1139.655, 16.09590
1140.137, 15.55313
1140.619, 14.57172
1141.101, 13.88896
1141.583, 14.18787
1142.066, 14.83249
1142.548, 14.86940
1143.030, 14.52704
1143.512, 14.17331
1143.994, 13.86764
1144.476, 13.69141
1144.958, 13.65427
1145.440, 13.71122
1145.922, 13.83926
1146.405, 14.06358
1146.887, 14.57259
1147.369, 15.03362
1147.851, 15.01184
1148.333, 14.72867
1148.815, 14.45477
1149.297, 14.23815
1149.779, 14.09604
1150.262, 14.02594
1150.744, 13.93737
1151.226, 13.67026
1151.708, 13.55365
1152.190, 14.08063
1152.672, 14.56728
1153.154, 14.23365
1153.636, 13.59928
1154.119, 13.51851
1154.601, 13.94722
1155.083, 14.15593
1155.565, 13.85739
1156.047, 13.64110
1156.529, 13.66886
1157.011, 13.85866
1157.493, 14.51921
1157.975, 15.00775
1158.458, 14.59956
1158.940, 13.68174
1159.422, 13.02916
1159.904, 12.70375
1160.386, 12.72745
1160.868, 13.67641
1161.350, 14.08769
1161.832, 13.37090
1162.314, 12.66025
1162.797, 12.44341
1163.279, 12.42833
1163.761, 12.30761
1164.243, 12.11906
1164.725, 12.04406
1165.207, 12.10497
1165.689, 12.22825
1166.171, 12.51652
1166.654, 12.52624
1167.136, 12.05183
1167.618, 11.56673
1168.100, 11.35129
1168.582, 11.40175
1169.064, 11.79762
1169.546, 12.45242
1170.028, 12.43447
1170.510, 11.71805
1170.993, 11.54738
1171.475, 12.06531
1171.957, 12.29268
1172.439, 11.85202
1172.921, 11.30663
1173.403, 11.16124
1173.885, 11.25841
1174.367, 11.36414
1174.849, 11.43314
1175.332, 11.23657
1175.814, 10.85919
1176.296, 10.64174
1176.778, 10.63198
1177.260, 10.69627
1177.742, 10.76975
1178.224, 10.87549
1178.706, 11.13388
1179.189, 11.32596
1179.671, 11.13803
1180.153, 10.72185
1180.635, 10.12895
1181.117, 9.556826
1181.599, 9.410551
1182.081, 9.725022
1182.563, 10.20196
1183.046, 10.81220
1183.528, 11.18435
1184.010, 10.93123
1184.492, 10.55667
1184.974, 10.25357
1185.456, 10.12914
1185.938, 10.43574
1186.420, 10.95389
1186.902, 11.13504
1187.385, 10.87088
1187.867, 10.71932
1188.349, 11.02180
1188.831, 11.09307
1189.313, 10.47847
1189.795, 9.997585
1190.277, 10.21476
1190.759, 10.61537
1191.241, 10.72782
1191.724, 10.58322
1192.206, 10.26029
1192.688, 9.602527
1193.170, 9.474987
1193.652, 10.10565
1194.134, 10.55853
1194.616, 10.61543
1195.098, 10.57331
1195.581, 10.57671
1196.063, 10.64233
1196.545, 10.80780
1197.027, 11.04022
1197.509, 11.21367
1197.991, 11.32638
1198.473, 11.41419
1198.955, 11.44844
1199.438, 10.85525
1199.920, 9.552251
1200.402, 8.646642
1200.884, 8.904157
1201.366, 9.647593
1201.848, 10.17023
1202.330, 10.42830
1202.812, 10.13041
1203.294, 9.599175
1203.776, 9.569604
1204.259, 9.921552
1204.741, 10.03931
1205.223, 9.786684
1205.705, 9.619547
1206.187, 9.873576
1206.669, 10.08005
1207.151, 9.675770
1207.633, 9.356589
1208.116, 10.02473
1208.598, 10.81315
1209.080, 10.50877
1209.562, 9.480124
1210.044, 8.917257
1210.526, 9.053344
1211.008, 9.291850
1211.490, 9.682446
1211.973, 9.917720
1212.455, 9.828298
1212.937, 9.711617
1213.419, 9.695539
1213.901, 9.717265
1214.383, 9.767209
1214.865, 9.781905
1215.347, 9.489151
1215.829, 8.773443
1216.312, 8.572872
1216.794, 8.972453
1217.276, 9.538070
1217.758, 10.26586
1218.240, 10.63312
1218.722, 10.33490
1219.204, 9.965073
1219.686, 10.24524
1220.168, 9.988420
1220.651, 9.965488
1221.133, 10.02918
1221.615, 9.863448
1222.097, 10.07003
1222.579, 10.00718
1223.061, 9.601957
1223.543, 9.185762
1224.025, 8.918170
1224.508, 8.947589
1224.990, 9.675063
1225.472, 10.42482
1225.954, 10.57128
1226.436, 10.31705
1226.918, 9.633509
1227.400, 8.862796
1227.882, 8.507841
1228.365, 8.594348
1228.847, 8.876332
1229.329, 9.377713
1229.811, 9.679204
1230.293, 9.453362
1230.775, 9.307608
1231.257, 9.750704
1231.739, 9.996846
1232.221, 9.145434
1232.703, 8.098277
1233.186, 8.102712
1233.668, 8.982894
1234.150, 9.594273
1234.632, 9.953897
1235.114, 9.887064
1235.596, 9.228903
1236.078, 9.010267
1236.560, 9.558701
1237.043, 9.874227
1237.525, 9.322642
1238.007, 8.650242
1238.489, 8.860912
1238.971, 9.637418
1239.453, 10.26426
1239.935, 10.68189
1240.417, 10.58380
1240.900, 10.07768
1241.382, 9.434428
1241.864, 8.823716
1242.346, 8.696012
1242.828, 9.280432
1243.310, 10.08337
1243.792, 11.12005
1244.274, 11.73119
1244.756, 10.92989
1245.239, 9.894529
1245.721, 9.923277
1246.203, 9.387427
1246.685, 9.101280
1247.167, 9.322515
1247.649, 8.963840
1248.131, 9.447189
1248.613, 9.912013
1249.095, 10.39556
1249.578, 10.63796
1250.060, 10.58888
1250.542, 10.28073
1251.024, 9.586248
1251.506, 8.863065
1251.988, 8.542319
1252.470, 8.549520
1252.952, 8.591130
1253.435, 8.664464
1253.917, 9.008265
1254.399, 9.031814
1254.881, 9.082627
1255.363, 9.376047
1255.845, 9.187550
1256.327, 9.522279
1256.809, 9.891496
1257.292, 9.804896
1257.774, 9.960822
1258.256, 9.651378
1258.738, 9.816600
1259.220, 9.680236
1259.702, 9.411135
1260.184, 9.343290
1260.666, 9.446299
1261.148, 9.474784
1261.630, 9.361725
1262.113, 9.245305
1262.595, 9.208006
1263.077, 9.125897
1263.559, 8.882710
1264.041, 8.686996
1264.523, 8.559462
1265.005, 8.610532
1265.487, 9.053657
1265.970, 9.668528
1266.452, 9.938447
1266.934, 9.859055
1267.416, 9.766778
1267.898, 9.655302
1268.380, 9.605498
1268.862, 9.634912
1269.344, 9.478225
1269.827, 9.044722
1270.309, 8.804724
1270.791, 9.119457
1271.273, 9.620081
1271.755, 9.852768
1272.237, 9.864566
1272.719, 9.596498
1273.201, 9.255129
1273.683, 9.205572
1274.166, 9.405029
1274.648, 9.760278
1275.130, 10.17932
1275.612, 10.38826
1276.094, 10.25360
1276.576, 10.04179
1277.058, 9.669279
1277.540, 9.501675
1278.022, 10.07768
1278.505, 10.46806
1278.987, 9.631803
1279.469, 8.627175
1279.951, 8.825698
1280.433, 9.861154
1280.915, 10.18053
1281.397, 9.660467
1281.879, 9.389759
1282.362, 9.388653
1282.844, 9.412310
1283.326, 9.421247
1283.808, 9.443081
1284.290, 9.489088
1284.772, 9.577473
1285.254, 9.716732
1285.736, 9.907003
##END=



