##NAMES=Rhodochrosite
##RRUFFID=R100162
##IDEAL CHEMISTRY=Mn^2+^CO_3_
##LOCALITY=N'Chwaning mine, Kuruman, Kalahari manganese field, Cape Province, South Africa
##OWNER=RRUFF
##SOURCE=William W. Pinch
##DESCRIPTION=Reddish-purple cut gemstone
##STATUS=The identification of this mineral has been confirmed by single-crystal X-ray diffraction.
##URL=rruff.info/R100162
148.4594, 83.00260
148.9415, 83.03503
149.4237, 83.16642
149.9058, 83.25108
150.3879, 83.35391
150.8700, 83.70936
151.3521, 84.58410
151.8342, 85.39661
152.3164, 85.68755
152.7985, 85.49613
153.2806, 85.12456
153.7627, 84.67284
154.2448, 84.13216
154.7269, 83.88168
155.2091, 84.12112
155.6912, 84.58487
156.1733, 85.18375
156.6554, 85.89838
157.1375, 86.70384
157.6196, 87.55880
158.1018, 88.42614
158.5839, 89.46658
159.0660, 90.68220
159.5481, 92.04922
160.0302, 93.53592
160.5123, 95.14145
160.9945, 96.91114
161.4766, 98.89844
161.9587, 101.0728
162.4408, 103.6080
162.9229, 106.8016
163.4050, 110.1765
163.8871, 113.2964
164.3693, 116.0076
164.8514, 118.4054
165.3335, 120.7089
165.8156, 122.9630
166.2977, 125.0491
166.7798, 126.7594
167.2620, 128.3363
167.7441, 130.1619
168.2262, 132.4266
168.7083, 134.9819
169.1904, 137.3083
169.6725, 138.8761
170.1547, 141.1242
170.6368, 144.8212
171.1189, 149.7065
171.6010, 154.9074
172.0831, 160.0857
172.5652, 165.3311
173.0474, 170.7984
173.5295, 176.3314
174.0116, 182.3435
174.4937, 189.1190
174.9758, 196.6686
175.4579, 204.7345
175.9401, 212.6315
176.4222, 221.4134
176.9043, 231.8981
177.3864, 244.0099
177.8685, 258.5446
178.3506, 276.3348
178.8328, 297.2052
179.3149, 322.4169
179.7970, 353.0216
180.2791, 387.6618
180.7612, 426.1053
181.2433, 468.9287
181.7255, 513.8353
182.2076, 557.6745
182.6897, 606.9441
183.1718, 641.4730
183.6539, 661.8647
184.1360, 666.9617
184.6181, 653.8408
185.1003, 620.6615
185.5824, 571.0115
186.0645, 517.5983
186.5466, 452.3911
187.0287, 393.1671
187.5108, 342.1172
187.9930, 298.5233
188.4751, 261.7874
188.9572, 231.8833
189.4393, 208.1633
189.9214, 187.6753
190.4035, 171.0405
190.8857, 156.9795
191.3678, 146.1931
191.8499, 137.8602
192.3320, 130.6239
192.8141, 123.6764
193.2962, 117.1481
193.7784, 112.1072
194.2605, 109.0560
194.7426, 106.5353
195.2247, 104.2654
195.7068, 102.1589
196.1889, 99.99927
196.6711, 97.60564
197.1532, 95.07893
197.6353, 92.89445
198.1174, 90.93679
198.5995, 89.36476
199.0816, 88.54366
199.5638, 88.33957
200.0459, 87.82871
200.5280, 86.20357
201.0101, 83.95044
201.4922, 82.54750
201.9743, 82.62881
202.4565, 82.97733
202.9386, 82.53199
203.4207, 81.27333
203.9028, 79.90756
204.3849, 78.58229
204.8670, 77.48027
205.3492, 76.95674
205.8313, 77.38383
206.3134, 78.01331
206.7955, 77.76024
207.2776, 76.37578
207.7597, 75.27060
208.2419, 75.48469
208.7240, 76.16171
209.2061, 76.52090
209.6882, 76.30859
210.1703, 75.68427
210.6524, 74.80016
211.1346, 73.42046
211.6167, 72.42388
212.0988, 72.21192
212.5809, 72.41640
213.0630, 72.73653
213.5451, 73.06554
214.0273, 73.39512
214.5094, 73.71044
214.9915, 74.03442
215.4736, 74.29532
215.9557, 74.55899
216.4378, 74.73524
216.9200, 74.72879
217.4021, 74.49559
217.8842, 74.07890
218.3663, 73.55434
218.8484, 72.43908
219.3305, 71.97575
219.8127, 72.74093
220.2948, 73.99352
220.7769, 75.02662
221.2590, 75.51905
221.7411, 75.53367
222.2232, 75.23884
222.7054, 73.85335
223.1875, 73.12167
223.6696, 73.58094
224.1517, 74.58633
224.6338, 75.45171
225.1159, 75.87624
225.5980, 75.92814
226.0802, 75.79404
226.5623, 75.25010
227.0444, 74.78172
227.5265, 74.34356
228.0086, 74.02275
228.4907, 73.97378
228.9729, 74.26978
229.4550, 74.78725
229.9371, 75.20783
230.4192, 75.45264
230.9013, 75.73069
231.3834, 75.98056
231.8656, 76.30235
232.3477, 76.94067
232.8298, 78.04457
233.3119, 79.28149
233.7940, 79.89095
234.2761, 79.79771
234.7583, 79.46478
235.2404, 78.59699
235.7225, 77.62279
236.2046, 77.37950
236.6867, 78.26221
237.1688, 79.67529
237.6510, 80.56035
238.1331, 80.83606
238.6152, 81.21960
239.0973, 82.04089
239.5794, 83.13477
240.0615, 84.17802
240.5437, 85.13525
241.0258, 85.91637
241.5079, 86.30471
241.9900, 86.30253
242.4721, 86.42640
242.9542, 86.98721
243.4364, 87.83780
243.9185, 88.58132
244.4006, 89.08061
244.8827, 89.57312
245.3648, 90.38023
245.8469, 91.45051
246.3290, 92.36800
246.8112, 92.73415
247.2933, 92.77009
247.7754, 93.14725
248.2575, 93.94202
248.7396, 95.13595
249.2217, 96.86929
249.7039, 98.98789
250.1860, 100.9556
250.6681, 102.4391
251.1502, 103.5303
251.6323, 104.5579
252.1144, 105.4056
252.5966, 106.4049
253.0787, 107.9383
253.5608, 109.7565
254.0429, 111.2871
254.5250, 111.8110
255.0071, 111.7658
255.4893, 112.9915
255.9714, 116.2571
256.4535, 119.6069
256.9356, 121.8964
257.4177, 123.6914
257.8998, 125.9249
258.3820, 129.1003
258.8641, 133.0708
259.3462, 137.3421
259.8283, 141.9704
260.3104, 146.8446
260.7925, 151.8287
261.2747, 157.0455
261.7568, 162.5957
262.2389, 168.5229
262.7210, 174.8868
263.2031, 181.8456
263.6852, 188.9087
264.1674, 197.6235
264.6495, 208.2688
265.1316, 220.4338
265.6137, 233.5840
266.0958, 247.4534
266.5779, 262.3170
267.0601, 278.8117
267.5422, 297.0839
268.0243, 316.8893
268.5064, 338.4387
268.9885, 361.0655
269.4706, 384.2033
269.9528, 407.6475
270.4349, 431.3050
270.9170, 454.9341
271.3991, 477.7536
271.8812, 501.9184
272.3633, 527.2351
272.8455, 553.8376
273.3276, 581.4533
273.8097, 610.1836
274.2918, 640.5410
274.7739, 672.9170
275.2560, 705.6052
275.7382, 744.7208
276.2202, 790.4731
276.7024, 840.9991
277.1845, 894.3983
277.6666, 951.0361
278.1487, 1013.385
278.6308, 1084.463
279.1129, 1164.435
279.5951, 1253.052
280.0772, 1344.775
280.5593, 1447.996
281.0414, 1566.388
281.5235, 1700.521
282.0056, 1849.409
282.4878, 2011.338
282.9699, 2186.466
283.4520, 2382.959
283.9341, 2607.640
284.4162, 2844.208
284.8983, 3094.951
285.3805, 3353.264
285.8626, 3608.186
286.3447, 3854.094
286.8268, 4089.696
287.3089, 4287.591
287.7910, 4472.725
288.2732, 4597.940
288.7553, 4649.233
289.2374, 4628.996
289.7195, 4539.273
290.2016, 4379.192
290.6837, 4156.271
291.1659, 3903.086
291.6480, 3594.946
292.1301, 3287.383
292.6122, 2978.623
293.0943, 2678.401
293.5764, 2398.533
294.0586, 2143.000
294.5407, 1911.915
295.0228, 1704.671
295.5049, 1527.385
295.9870, 1368.704
296.4691, 1231.835
296.9513, 1111.915
297.4334, 1004.289
297.9155, 907.8248
298.3976, 822.4034
298.8797, 748.4561
299.3618, 690.4544
299.8440, 637.7260
300.3261, 590.6888
300.8082, 548.8643
301.2903, 512.0314
301.7724, 480.1356
302.2545, 451.8910
302.7367, 425.6684
303.2188, 401.5868
303.7009, 380.3497
304.1830, 362.7973
304.6651, 346.9904
305.1472, 331.6128
305.6294, 316.7041
306.1115, 303.2853
306.5936, 292.4622
307.0757, 284.3837
307.5578, 275.5121
308.0399, 264.6568
308.5221, 254.3125
309.0042, 245.8469
309.4863, 238.8209
309.9684, 232.0723
310.4505, 224.8680
310.9326, 217.3245
311.4148, 210.5103
311.8969, 204.2537
312.3790, 198.7486
312.8611, 194.5397
313.3432, 191.0378
313.8253, 187.2631
314.3075, 182.7787
314.7896, 177.8423
315.2717, 173.0697
315.7538, 168.3476
316.2359, 163.9417
316.7180, 159.6834
317.2001, 155.8352
317.6823, 152.8069
318.1644, 150.6855
318.6465, 149.0495
319.1286, 147.2647
319.6107, 145.2095
320.0928, 143.3298
320.5750, 141.9132
321.0571, 140.4612
321.5392, 138.5274
322.0213, 136.1022
322.5034, 133.5032
322.9855, 131.0251
323.4677, 128.6278
323.9498, 126.6302
324.4319, 125.2861
324.9140, 124.0335
325.3961, 122.4797
325.8782, 120.7491
326.3604, 119.2955
326.8425, 118.4962
327.3246, 118.2598
327.8067, 117.5067
328.2888, 115.8036
328.7709, 114.1571
329.2531, 112.9993
329.7352, 112.0401
330.2173, 110.7033
330.6994, 108.6905
331.1815, 106.3581
331.6636, 104.6605
332.1458, 104.3922
332.6279, 103.8034
333.1100, 102.5794
333.5921, 101.1470
334.0742, 99.95669
334.5563, 99.13038
335.0385, 98.39424
335.5206, 97.33784
336.0027, 95.71823
336.4848, 94.40128
336.9669, 93.47090
337.4490, 92.72700
337.9312, 92.22409
338.4133, 91.84545
338.8954, 91.20482
339.3775, 89.89703
339.8596, 87.84286
340.3417, 86.07687
340.8239, 84.43084
341.3060, 83.19638
341.7881, 82.91465
342.2702, 83.10842
342.7523, 82.73846
343.2344, 81.09435
343.7166, 78.56918
344.1987, 77.09736
344.6808, 77.97449
345.1629, 78.49096
345.6450, 78.24336
346.1271, 77.58157
346.6093, 76.91538
347.0914, 76.39835
347.5735, 75.87498
348.0556, 75.01847
348.5377, 73.36640
349.0198, 72.23426
349.5020, 71.69151
349.9841, 71.53140
350.4662, 71.78642
350.9483, 72.35918
351.4304, 72.94641
351.9125, 73.23946
352.3947, 73.23405
352.8768, 72.95383
353.3589, 72.12361
353.8410, 71.29589
354.3231, 70.70472
354.8052, 70.26759
355.2874, 69.76091
355.7695, 69.01613
356.2516, 68.09963
356.7337, 67.39388
357.2158, 67.23429
357.6979, 66.82034
358.1800, 65.48521
358.6621, 64.05717
359.1443, 63.59092
359.6264, 64.48301
360.1085, 65.97702
360.5906, 66.69505
361.0727, 66.33207
361.5548, 65.97214
362.0370, 65.70696
362.5191, 65.49278
363.0012, 65.39896
363.4833, 65.37886
363.9654, 65.20796
364.4475, 64.53472
364.9297, 63.30567
365.4118, 62.47659
365.8939, 62.26642
366.3760, 62.25426
366.8581, 62.42170
367.3402, 62.64704
367.8224, 62.69181
368.3045, 62.34807
368.7866, 61.78451
369.2687, 61.54819
369.7508, 61.85268
370.2329, 62.00973
370.7151, 61.69799
371.1972, 61.18104
371.6793, 60.66033
372.1614, 60.18166
372.6435, 59.82473
373.1256, 59.79555
373.6078, 60.13434
374.0899, 60.20007
374.5720, 59.45451
375.0541, 58.76402
375.5362, 58.87828
376.0183, 59.73650
376.5005, 60.58681
376.9826, 60.89551
377.4647, 60.79510
377.9468, 60.83834
378.4289, 61.22521
378.9110, 61.37406
379.3932, 60.45378
379.8753, 59.05213
380.3574, 58.36852
380.8395, 59.27642
381.3216, 60.60330
381.8037, 60.76210
382.2859, 59.72602
382.7680, 58.88379
383.2501, 58.96418
383.7322, 59.51625
384.2143, 59.81798
384.6964, 59.84720
385.1786, 59.65365
385.6607, 59.00895
386.1428, 58.15710
386.6249, 57.87266
387.1070, 58.51385
387.5891, 59.25170
388.0713, 58.92857
388.5534, 57.65733
389.0355, 56.68938
389.5176, 56.32427
389.9997, 56.34729
390.4818, 56.78614
390.9640, 57.57949
391.4461, 57.99706
391.9282, 57.40973
392.4103, 56.03423
392.8924, 55.12843
393.3745, 54.76184
393.8567, 54.73745
394.3388, 55.22003
394.8209, 55.96574
395.3030, 56.46429
395.7851, 56.51126
396.2672, 56.35170
396.7494, 56.43325
397.2315, 56.92553
397.7136, 57.25055
398.1957, 57.33076
398.6778, 57.27232
399.1599, 57.05794
399.6420, 56.74450
400.1241, 56.61982
400.6063, 57.03529
401.0884, 58.03352
401.5705, 58.10600
402.0526, 56.26033
402.5347, 54.72440
403.0168, 54.34914
403.4990, 54.69960
403.9811, 55.06336
404.4632, 55.10030
404.9453, 54.90844
405.4274, 54.70738
405.9095, 54.40013
406.3917, 54.26366
406.8738, 54.65686
407.3559, 54.95473
407.8380, 54.47617
408.3201, 53.29683
408.8022, 52.26243
409.2844, 52.35788
409.7665, 53.69793
410.2486, 54.30208
410.7307, 53.48956
411.2128, 52.63378
411.6949, 51.89473
412.1771, 51.42966
412.6592, 51.55016
413.1413, 52.51281
413.6234, 53.79141
414.1055, 54.20210
414.5876, 53.48568
415.0698, 52.68879
415.5519, 51.75049
416.0340, 51.02768
416.5161, 50.92580
416.9982, 51.44648
417.4803, 51.98882
417.9625, 51.93404
418.4446, 51.39811
418.9267, 51.22570
419.4088, 51.66959
419.8909, 52.12712
420.3730, 52.21487
420.8552, 52.03620
421.3373, 51.76683
421.8194, 51.37566
422.3015, 51.01235
422.7836, 50.89805
423.2657, 51.02973
423.7479, 51.13792
424.2300, 51.07800
424.7121, 50.97431
425.1942, 51.07573
425.6763, 51.46082
426.1584, 51.65170
426.6406, 51.30363
427.1227, 50.66800
427.6048, 50.15334
428.0869, 49.82428
428.5690, 49.61203
429.0511, 49.48108
429.5333, 49.43202
430.0154, 49.35011
430.4975, 49.02489
430.9796, 48.86457
431.4617, 49.23530
431.9438, 49.96064
432.4260, 50.60467
432.9081, 50.96856
433.3902, 51.09669
433.8723, 51.08394
434.3544, 50.89136
434.8365, 50.60789
435.3187, 49.99018
435.8008, 49.44506
436.2829, 49.45393
436.7650, 49.97609
437.2471, 50.46026
437.7292, 50.35929
438.2114, 49.65163
438.6935, 49.20219
439.1756, 49.28559
439.6577, 49.32526
440.1398, 49.10759
440.6219, 48.79686
441.1040, 48.66115
441.5862, 48.81262
442.0683, 49.05595
442.5504, 48.99257
443.0325, 48.45965
443.5146, 48.12190
443.9967, 48.10616
444.4789, 48.24274
444.9610, 48.53825
445.4431, 48.93142
445.9252, 49.26501
446.4073, 49.42513
446.8894, 49.43379
447.3716, 49.37284
447.8537, 49.24129
448.3358, 49.04079
448.8179, 48.74699
449.3000, 48.39391
449.7821, 47.96973
450.2643, 47.43333
450.7464, 47.00946
451.2285, 46.93618
451.7106, 47.15902
452.1927, 47.44011
452.6748, 47.78835
453.1570, 48.06684
453.6391, 48.09861
454.1212, 47.92907
454.6033, 47.72076
455.0854, 47.37528
455.5675, 47.10741
456.0497, 47.20679
456.5318, 47.60891
457.0139, 47.94640
457.4960, 48.08232
457.9781, 47.97156
458.4602, 47.39872
458.9424, 45.96665
459.4245, 44.97137
459.9066, 44.97258
460.3887, 45.33517
460.8708, 45.36000
461.3529, 44.97417
461.8351, 44.64600
462.3172, 44.87813
462.7993, 45.70450
463.2814, 45.96552
463.7635, 45.22157
464.2456, 44.45997
464.7278, 43.97350
465.2099, 43.59703
465.6920, 42.98959
466.1741, 42.03106
466.6562, 41.09546
467.1383, 40.88956
467.6205, 41.73073
468.1026, 42.30991
468.5847, 42.45887
469.0668, 42.44751
469.5489, 42.29929
470.0310, 42.08055
470.5132, 41.93237
470.9953, 41.97638
471.4774, 42.11504
471.9595, 42.09062
472.4416, 41.87154
472.9237, 41.60681
473.4059, 41.27491
473.8880, 40.96723
474.3701, 40.75584
474.8522, 40.64894
475.3343, 40.65420
475.8164, 40.92418
476.2986, 41.29716
476.7807, 41.29668
477.2628, 40.79730
477.7449, 40.31221
478.2270, 40.18114
478.7091, 40.39568
479.1913, 40.83981
479.6734, 41.79556
480.1555, 42.65918
480.6376, 43.23449
481.1197, 43.47919
481.6018, 43.17806
482.0839, 42.22705
482.5660, 41.12974
483.0482, 40.60954
483.5303, 40.89435
484.0124, 40.96343
484.4945, 40.46299
484.9766, 40.09118
485.4587, 40.31037
485.9409, 40.96538
486.4230, 41.73841
486.9051, 42.49271
487.3872, 43.00452
487.8693, 42.49855
488.3514, 39.85985
488.8336, 38.31797
489.3157, 38.68414
489.7978, 39.58365
490.2799, 40.26018
490.7620, 40.59974
491.2441, 40.73481
491.7263, 40.72346
492.2084, 40.59712
492.6905, 40.51144
493.1726, 40.49031
493.6547, 40.45322
494.1368, 40.39715
494.6190, 40.29431
495.1011, 40.10698
495.5832, 39.82566
496.0653, 39.48674
496.5474, 38.98481
497.0295, 38.44350
497.5117, 38.32441
497.9938, 38.78856
498.4759, 39.27618
498.9580, 39.24580
499.4401, 38.82060
499.9222, 38.68221
500.4044, 39.19556
500.8865, 39.66928
501.3686, 39.79705
501.8507, 39.62257
502.3328, 39.20327
502.8149, 38.55328
503.2971, 37.76905
503.7792, 36.94888
504.2613, 35.97017
504.7434, 35.42768
505.2255, 35.68866
505.7076, 35.97387
506.1898, 35.85144
506.6719, 35.47367
507.1540, 35.20898
507.6361, 35.25384
508.1182, 35.48196
508.6003, 35.60822
509.0825, 35.61422
509.5646, 35.56720
510.0467, 35.28645
510.5288, 35.11420
511.0109, 35.37043
511.4930, 35.93520
511.9752, 36.36532
512.4573, 36.40563
512.9394, 36.11293
513.4215, 35.48532
513.9036, 34.41748
514.3857, 33.69403
514.8679, 33.91690
515.3500, 34.41390
515.8321, 34.16770
516.3142, 33.03333
516.7963, 32.31960
517.2784, 33.06939
517.7606, 34.34597
518.2427, 34.73892
518.7248, 34.16189
519.2069, 33.55221
519.6890, 33.55150
520.1711, 34.01574
520.6533, 34.22567
521.1354, 33.94644
521.6175, 33.76945
522.0996, 33.86141
522.5817, 34.06015
523.0638, 34.24251
523.5460, 34.36671
524.0281, 34.40081
524.5102, 34.31178
524.9923, 34.10193
525.4744, 33.80730
525.9565, 33.29614
526.4387, 32.87810
526.9208, 32.43707
527.4029, 32.20423
527.8850, 32.64605
528.3671, 33.82240
528.8492, 34.83475
529.3314, 34.57108
529.8135, 33.17589
530.2956, 32.06328
530.7777, 31.37803
531.2598, 30.84425
531.7419, 30.17710
532.2241, 29.57333
532.7062, 29.39971
533.1883, 29.83815
533.6704, 30.48468
534.1525, 31.31100
534.6346, 32.11745
535.1168, 32.33299
535.5989, 31.78721
536.0810, 31.07957
536.5631, 30.79589
537.0452, 30.95963
537.5273, 31.17365
538.0095, 31.54481
538.4916, 31.84337
538.9737, 31.87902
539.4558, 31.82472
539.9379, 32.01496
540.4200, 32.53414
540.9022, 33.04264
541.3843, 33.00930
541.8664, 32.28719
542.3485, 31.85540
542.8306, 31.90751
543.3127, 32.06115
543.7948, 32.29519
544.2769, 32.52602
544.7590, 32.61751
545.2411, 32.50574
545.7233, 32.34813
546.2054, 32.35384
546.6875, 32.51060
547.1696, 32.61061
547.6517, 32.54243
548.1339, 32.56348
548.6160, 33.08109
549.0981, 33.88406
549.5802, 34.35167
550.0623, 34.08390
550.5444, 33.75176
551.0266, 33.91435
551.5087, 34.32793
551.9908, 34.39948
552.4729, 33.94248
552.9550, 33.25322
553.4371, 32.66372
553.9193, 32.15152
554.4014, 31.89456
554.8835, 32.20072
555.3656, 32.38428
555.8477, 31.92140
556.3298, 31.26805
556.8120, 31.24264
557.2941, 32.11324
557.7762, 33.16016
558.2583, 33.29049
558.7404, 32.37553
559.2225, 31.60700
559.7047, 30.96069
560.1868, 30.56011
560.6689, 30.33862
561.1510, 30.39501
561.6331, 30.99600
562.1152, 32.42316
562.5974, 33.83583
563.0795, 34.49998
563.5616, 34.50837
564.0437, 34.09987
564.5258, 33.23668
565.0079, 32.34500
565.4901, 31.79133
565.9722, 31.58362
566.4543, 31.48782
566.9364, 31.40501
567.4185, 31.54403
567.9006, 32.30050
568.3828, 33.20685
568.8649, 33.57911
569.3470, 33.25567
569.8291, 32.57908
570.3112, 31.87240
570.7933, 31.10521
571.2755, 30.83393
571.7576, 31.66378
572.2397, 32.23302
572.7218, 32.04584
573.2039, 31.52338
573.6860, 30.97995
574.1682, 30.51460
574.6503, 30.53953
575.1324, 31.98672
575.6145, 34.36206
576.0966, 35.27494
576.5787, 34.25939
577.0609, 33.02829
577.5430, 32.47830
578.0251, 32.49408
578.5072, 32.76639
578.9893, 33.46529
579.4714, 34.02360
579.9536, 34.25732
580.4357, 34.21535
580.9178, 33.84426
581.3999, 33.20070
581.8820, 32.60976
582.3641, 32.32731
582.8463, 32.30175
583.3284, 32.23932
583.8105, 32.36940
584.2926, 32.10485
584.7747, 30.67663
585.2568, 29.40358
585.7390, 29.48240
586.2211, 30.78868
586.7032, 32.24612
587.1853, 33.22468
587.6674, 33.70825
588.1495, 33.47882
588.6317, 32.38907
589.1138, 31.50625
589.5959, 31.27358
590.0780, 31.30388
590.5601, 31.05568
591.0422, 30.53512
591.5244, 30.33061
592.0065, 30.99225
592.4886, 31.75605
592.9707, 31.97449
593.4528, 31.69046
593.9349, 31.04628
594.4171, 30.06138
594.8992, 29.08650
595.3813, 28.78011
595.8634, 29.49549
596.3455, 29.83531
596.8276, 29.35641
597.3098, 29.02017
597.7919, 29.38183
598.2740, 30.12392
598.7561, 30.70914
599.2382, 30.92183
599.7203, 30.87170
600.2025, 30.60117
600.6846, 30.12109
601.1667, 29.93215
601.6488, 30.28666
602.1309, 30.52958
602.6130, 30.02259
603.0952, 29.10670
603.5773, 28.46582
604.0594, 28.21877
604.5415, 28.19018
605.0236, 28.36280
605.5057, 28.66788
605.9879, 29.08826
606.4700, 29.58621
606.9521, 29.89124
607.4342, 29.74623
607.9163, 29.22010
608.3984, 28.82537
608.8806, 28.36056
609.3627, 28.33952
609.8448, 29.31654
610.3269, 30.35605
610.8090, 30.71921
611.2911, 30.40389
611.7733, 29.83877
612.2554, 29.18540
612.7375, 28.60432
613.2196, 28.54537
613.7017, 29.06187
614.1838, 29.54917
614.6660, 29.87192
615.1481, 30.03877
615.6302, 30.01148
616.1123, 29.80560
616.5944, 29.63760
617.0765, 29.58724
617.5587, 29.55486
618.0408, 29.39243
618.5229, 29.20703
619.0050, 29.29203
619.4871, 29.74293
619.9692, 30.25637
620.4514, 30.38111
620.9335, 30.02155
621.4156, 30.01296
621.8977, 30.85268
622.3798, 31.45602
622.8619, 31.53756
623.3441, 31.24475
623.8262, 30.60260
624.3083, 29.64177
624.7904, 28.87567
625.2725, 28.86583
625.7546, 29.37409
626.2367, 29.76179
626.7188, 29.99255
627.2009, 30.18210
627.6830, 30.42185
628.1652, 30.63524
628.6473, 30.59187
629.1294, 30.15323
629.6115, 29.94401
630.0936, 30.12535
630.5757, 30.50476
631.0579, 31.11679
631.5400, 31.80341
632.0221, 32.12490
632.5042, 31.83916
632.9863, 31.44332
633.4684, 32.13777
633.9506, 34.41803
634.4327, 35.27380
634.9148, 33.52361
635.3969, 31.61002
635.8790, 30.64665
636.3611, 30.37242
636.8433, 30.38449
637.3254, 30.66553
637.8075, 30.95322
638.2896, 31.06602
638.7717, 31.04988
639.2538, 30.93588
639.7360, 30.73832
640.2181, 30.70675
640.7002, 31.12427
641.1823, 31.75389
641.6644, 31.61958
642.1465, 29.28099
642.6287, 28.19088
643.1108, 29.51470
643.5929, 31.12586
644.0750, 31.62475
644.5571, 31.15281
645.0392, 30.49968
645.5214, 30.05190
646.0035, 29.81769
646.4856, 29.86913
646.9677, 30.20511
647.4498, 30.56063
647.9319, 30.95443
648.4141, 31.22582
648.8962, 31.24395
649.3783, 31.02461
649.8604, 30.61035
650.3425, 29.63565
650.8246, 28.96784
651.3068, 29.11644
651.7889, 29.67323
652.2710, 30.14907
652.7531, 30.48082
653.2352, 30.89138
653.7173, 31.58158
654.1995, 32.44410
654.6816, 33.03820
655.1637, 33.32358
655.6458, 33.43137
656.1279, 33.64120
656.6100, 33.43886
657.0922, 31.95911
657.5743, 29.72319
658.0564, 28.51650
658.5385, 29.52451
659.0206, 31.11494
659.5027, 31.94193
659.9849, 32.09644
660.4670, 31.68221
660.9491, 30.70190
661.4312, 29.76417
661.9133, 29.41980
662.3954, 29.63666
662.8776, 29.95527
663.3597, 30.66727
663.8418, 31.09402
664.3239, 31.11116
664.8060, 30.86507
665.2881, 30.24311
665.7703, 29.42963
666.2524, 29.03703
666.7345, 29.62604
667.2166, 30.59110
667.6987, 30.73149
668.1808, 30.07253
668.6630, 29.58772
669.1451, 29.57861
669.6272, 29.61952
670.1093, 29.19546
670.5914, 28.37811
671.0735, 28.03625
671.5557, 28.30606
672.0378, 28.90088
672.5199, 30.21793
673.0020, 31.52550
673.4841, 31.87810
673.9662, 31.28511
674.4484, 30.56212
674.9305, 30.31343
675.4126, 30.44446
675.8947, 30.69204
676.3768, 31.12001
676.8589, 31.39209
677.3411, 31.51835
677.8232, 31.37029
678.3053, 30.66201
678.7874, 29.58177
679.2695, 28.82455
679.7516, 28.55507
680.2338, 28.63760
680.7159, 29.45182
681.1980, 30.39096
681.6801, 30.25616
682.1622, 28.98035
682.6443, 27.77089
683.1265, 27.62005
683.6086, 28.35001
684.0907, 29.15192
684.5728, 30.25807
685.0549, 30.92221
685.5370, 30.86758
686.0192, 30.48975
686.5013, 29.76293
686.9834, 28.88674
687.4655, 28.36496
687.9476, 28.45216
688.4297, 28.83534
688.9119, 29.44433
689.3940, 30.10440
689.8761, 30.31618
690.3582, 30.00540
690.8403, 29.67542
691.3224, 29.70935
691.8046, 30.04812
692.2867, 30.41619
692.7688, 30.84368
693.2509, 31.25361
693.7330, 31.78701
694.2151, 32.17000
694.6973, 32.09462
695.1794, 31.74781
695.6615, 31.57252
696.1436, 31.75428
696.6257, 32.18388
697.1078, 32.82720
697.5900, 33.62325
698.0721, 34.35491
698.5542, 34.98096
699.0363, 35.61599
699.5184, 36.27508
700.0005, 37.04376
700.4827, 38.21482
700.9648, 39.85540
701.4469, 41.80798
701.9290, 44.03004
702.4111, 46.60178
702.8932, 49.75148
703.3754, 53.24994
703.8575, 56.79290
704.3396, 60.25899
704.8217, 63.36663
705.3038, 65.70621
705.7859, 67.34470
706.2681, 68.47237
706.7502, 69.00137
707.2323, 69.64961
707.7144, 70.52849
708.1965, 72.02601
708.6786, 75.18236
709.1607, 80.49785
709.6428, 85.89604
710.1249, 90.44878
710.6071, 95.88025
711.0892, 102.5200
711.5713, 110.8957
712.0534, 121.3467
712.5355, 134.1348
713.0176, 150.1051
713.4998, 169.1694
713.9819, 192.0115
714.4640, 222.6275
714.9461, 260.8085
715.4282, 307.7946
715.9103, 366.4471
716.3925, 431.0836
716.8746, 497.0490
717.3567, 566.5646
717.8388, 618.1635
718.3209, 659.5825
718.8030, 671.9747
719.2852, 638.6750
719.7673, 574.5458
720.2494, 491.5255
720.7315, 396.9468
721.2136, 307.2802
721.6957, 236.5724
722.1779, 183.1294
722.6600, 142.9365
723.1421, 116.5441
723.6242, 96.81322
724.1063, 83.14614
724.5884, 73.37330
725.0706, 65.99870
725.5527, 60.85271
726.0348, 56.37768
726.5169, 52.16857
726.9990, 48.98564
727.4811, 47.74271
727.9633, 47.23009
728.4454, 46.33889
728.9275, 44.88026
729.4096, 42.95823
729.8917, 40.45922
730.3738, 38.02685
730.8560, 37.35663
731.3381, 38.51947
731.8202, 38.89266
732.3023, 37.81690
732.7844, 36.48488
733.2665, 35.80767
733.7487, 35.57188
734.2308, 34.90733
734.7129, 33.27453
735.1950, 32.24074
735.6771, 32.67316
736.1592, 33.35286
736.6414, 33.22252
737.1235, 32.53197
737.6056, 32.19606
738.0877, 32.63876
738.5698, 33.16975
739.0519, 32.60566
739.5341, 31.12799
740.0162, 30.47778
740.4983, 30.90447
740.9804, 31.38769
741.4625, 31.42389
741.9446, 31.23074
742.4268, 31.17811
742.9089, 31.25113
743.3910, 31.50749
743.8731, 32.31128
744.3552, 32.91068
744.8373, 32.83302
745.3195, 32.37434
745.8016, 31.93646
746.2837, 31.62665
746.7658, 31.33235
747.2479, 30.88114
747.7300, 30.41162
748.2122, 30.35273
748.6943, 30.71050
749.1764, 31.13050
749.6585, 31.55844
750.1406, 31.90968
750.6227, 32.17419
751.1049, 32.33288
751.5870, 31.95506
752.0691, 30.38994
752.5512, 29.21247
753.0333, 28.72380
753.5154, 28.70850
753.9976, 29.27203
754.4797, 30.14810
754.9618, 30.62612
755.4439, 30.24939
755.9260, 29.66765
756.4081, 29.82285
756.8903, 30.52231
757.3724, 31.00895
757.8545, 31.19613
758.3366, 31.02880
758.8187, 30.32300
759.3008, 29.44445
759.7830, 29.35847
760.2651, 30.70155
760.7472, 31.32632
761.2293, 30.78333
761.7114, 30.07605
762.1935, 29.38966
762.6757, 28.88564
763.1578, 28.84263
763.6399, 29.29987
764.1220, 29.70994
764.6041, 29.63372
765.0862, 29.30047
765.5684, 29.01194
766.0505, 28.77532
766.5326, 28.59600
767.0147, 28.47513
767.4968, 28.41111
767.9789, 28.41764
768.4611, 28.48783
768.9432, 28.45347
769.4253, 28.18847
769.9074, 28.03530
770.3895, 27.83569
770.8716, 27.94096
771.3538, 28.90064
771.8359, 30.38692
772.3180, 31.37949
772.8001, 31.52426
773.2822, 31.16549
773.7643, 30.03587
774.2465, 28.79780
774.7286, 28.62689
775.2107, 29.42427
775.6928, 30.05051
776.1749, 29.85285
776.6570, 29.31805
777.1392, 29.52795
777.6213, 30.69654
778.1034, 30.99249
778.5855, 29.94064
779.0676, 28.90764
779.5497, 28.45493
780.0319, 28.37176
780.5140, 28.42229
780.9961, 28.60558
781.4782, 28.83520
781.9603, 29.15426
782.4424, 29.44533
782.9246, 29.61565
783.4067, 29.72684
783.8888, 29.93317
784.3709, 30.21933
784.8530, 30.32477
785.3351, 29.99811
785.8173, 29.41699
786.2994, 28.95928
786.7815, 28.62620
787.2636, 28.66113
787.7457, 29.25938
788.2278, 29.71286
788.7100, 29.33374
789.1921, 28.41462
789.6742, 28.14249
790.1563, 28.99914
790.6384, 29.58416
791.1205, 29.85436
791.6026, 29.80505
792.0847, 29.12841
792.5668, 28.23864
793.0490, 27.74327
793.5311, 27.82585
794.0132, 28.35131
794.4953, 29.67829
794.9774, 31.14990
795.4595, 31.44276
795.9417, 30.71034
796.4238, 29.86555
796.9059, 29.17554
797.3880, 28.95749
797.8701, 29.69986
798.3522, 31.29999
798.8344, 31.99660
799.3165, 31.33587
799.7986, 30.64815
800.2807, 29.95896
800.7628, 29.46769
801.2449, 29.30599
801.7271, 29.44536
802.2092, 29.86695
802.6913, 30.79707
803.1734, 31.42611
803.6555, 31.10162
804.1376, 30.43110
804.6198, 30.06126
805.1019, 29.94680
805.5840, 29.72115
806.0661, 29.23285
806.5482, 28.76470
807.0303, 28.66023
807.5125, 28.91152
807.9946, 29.65240
808.4767, 31.10565
808.9588, 31.71458
809.4409, 30.56128
809.9230, 29.00574
810.4052, 28.60227
810.8873, 29.36113
811.3694, 29.98044
811.8515, 30.58931
812.3336, 30.88481
812.8157, 30.39512
813.2979, 29.90914
813.7800, 30.22665
814.2621, 31.08988
814.7442, 31.65874
815.2263, 31.55559
815.7084, 31.20295
816.1906, 30.88585
816.6727, 30.65722
817.1548, 30.74076
817.6369, 31.08000
818.1190, 31.15814
818.6011, 30.72542
819.0833, 30.13776
819.5654, 29.91806
820.0475, 30.08142
820.5296, 30.14699
821.0117, 29.91187
821.4938, 30.00995
821.9760, 31.14058
822.4581, 32.19285
822.9402, 32.00805
823.4223, 30.88089
823.9044, 30.22909
824.3865, 30.63020
824.8687, 31.07318
825.3508, 31.23123
825.8329, 31.20421
826.3150, 30.98114
826.7971, 30.66692
827.2792, 30.54268
827.7614, 30.73640
828.2435, 30.90232
828.7256, 30.48132
829.2077, 29.67644
829.6898, 29.23592
830.1719, 29.18158
830.6541, 29.52861
831.1362, 30.41684
831.6183, 31.20062
832.1004, 31.02755
832.5825, 29.91772
833.0646, 29.25337
833.5468, 29.04321
834.0289, 29.29368
834.5110, 30.53405
834.9931, 31.70799
835.4752, 32.16560
835.9573, 32.02869
836.4395, 31.68830
836.9216, 31.22920
837.4037, 30.62294
837.8858, 29.46612
838.3679, 28.45027
838.8500, 28.41658
839.3322, 29.12922
839.8143, 30.02526
840.2964, 30.86013
840.7785, 31.35249
841.2606, 31.09198
841.7427, 30.26933
842.2249, 29.56868
842.7070, 28.98636
843.1891, 28.67208
843.6712, 28.64869
844.1533, 28.98876
844.6354, 29.91298
845.1176, 31.22544
845.5997, 31.95092
846.0818, 31.63209
846.5639, 31.43644
847.0460, 31.43776
847.5281, 31.47749
848.0103, 31.81406
848.4924, 31.99675
848.9745, 31.06083
849.4566, 28.82144
849.9387, 27.25770
850.4208, 27.82705
850.9030, 29.12244
851.3851, 30.23471
851.8672, 30.99737
852.3493, 30.96769
852.8314, 30.20282
853.3135, 29.53988
853.7957, 29.65743
854.2778, 30.15732
854.7599, 30.08493
855.2420, 29.45548
855.7241, 28.99233
856.2062, 28.74028
856.6884, 28.84445
857.1705, 29.52091
857.6526, 30.42285
858.1347, 30.92188
858.6168, 30.96163
859.0989, 30.83843
859.5811, 30.64828
860.0632, 30.17730
860.5453, 28.74231
861.0274, 27.48527
861.5095, 27.67311
861.9916, 29.04913
862.4738, 30.15525
862.9559, 30.41373
863.4380, 30.43631
863.9201, 30.58256
864.4022, 30.73355
864.8843, 30.61881
865.3665, 30.37093
865.8486, 30.60517
866.3307, 31.55231
866.8128, 32.27185
867.2949, 31.17112
867.7770, 28.86630
868.2592, 28.31529
868.7413, 29.54926
869.2234, 30.48855
869.7055, 30.56111
870.1876, 30.15506
870.6697, 29.53059
871.1519, 28.76640
871.6340, 28.31475
872.1161, 28.26134
872.5981, 28.35632
873.0803, 28.64758
873.5624, 29.02655
874.0445, 29.52938
874.5266, 30.05531
875.0087, 30.51387
875.4908, 30.89973
875.9730, 31.03188
876.4551, 30.59752
876.9372, 30.16255
877.4193, 30.05467
877.9014, 30.17047
878.3835, 30.49638
878.8657, 30.91306
879.3478, 31.05474
879.8299, 30.67577
880.3120, 30.03486
880.7941, 29.46020
881.2762, 28.91982
881.7584, 28.23229
882.2405, 27.41613
882.7226, 26.90574
883.2047, 26.92176
883.6868, 27.10718
884.1689, 26.91382
884.6511, 26.37060
885.1332, 26.55987
885.6153, 27.97007
886.0974, 28.71992
886.5795, 27.95477
887.0616, 27.06327
887.5438, 27.30889
888.0259, 28.24420
888.5080, 28.45302
888.9901, 27.39297
889.4722, 26.83305
889.9543, 27.45597
890.4365, 28.16615
890.9186, 28.46212
891.4007, 28.45404
891.8828, 28.30627
892.3649, 28.06077
892.8470, 27.73022
893.3292, 27.21316
893.8113, 26.75075
894.2934, 26.68974
894.7755, 26.79663
895.2576, 26.53650
895.7397, 25.98121
896.2219, 25.85083
896.7040, 26.54022
897.1861, 27.34605
897.6682, 27.02328
898.1503, 25.77721
898.6324, 25.36945
899.1146, 25.87264
899.5967, 26.17924
900.0788, 25.90961
900.5609, 25.48439
901.0430, 25.27411
901.5251, 25.27554
902.0073, 25.49050
902.4894, 26.13467
902.9715, 26.55057
903.4536, 26.60135
903.9357, 26.53795
904.4178, 26.33192
904.9000, 26.14888
905.3821, 26.28629
905.8642, 26.78881
906.3463, 27.11930
906.8284, 27.06733
907.3105, 26.91341
907.7927, 26.71015
908.2748, 26.52299
908.7569, 26.43206
909.2390, 26.41690
909.7211, 26.39923
910.2032, 26.35137
910.6854, 26.25037
911.1675, 26.07636
911.6496, 25.83401
912.1317, 25.47128
912.6138, 25.04631
913.0959, 24.70712
913.5781, 24.51051
914.0602, 24.56496
914.5423, 25.04638
915.0244, 25.73235
915.5065, 25.91514
915.9886, 25.59066
916.4708, 25.30770
916.9529, 25.16232
917.4350, 24.84602
917.9171, 24.07033
918.3992, 23.24439
918.8813, 23.14297
919.3635, 23.90346
919.8456, 24.32183
920.3277, 24.15687
920.8098, 24.04675
921.2919, 24.16733
921.7740, 24.34937
922.2562, 24.49886
922.7383, 24.61444
923.2204, 24.71399
923.7025, 24.86489
924.1846, 24.82980
924.6667, 24.12440
925.1489, 23.66644
925.6310, 24.36881
926.1131, 25.47124
926.5952, 25.93444
927.0773, 25.62028
927.5594, 25.00937
928.0416, 24.07676
928.5237, 23.43242
929.0058, 23.89202
929.4879, 24.86532
929.9700, 25.69648
930.4521, 26.14519
930.9343, 25.53998
931.4164, 23.64712
931.8985, 21.76799
932.3806, 21.47449
932.8627, 22.39426
933.3448, 23.65991
933.8270, 25.16587
934.3091, 25.41054
934.7912, 23.97525
935.2733, 23.07684
935.7554, 24.49772
936.2375, 26.97743
936.7197, 27.25534
937.2018, 24.72722
937.6839, 23.53240
938.1660, 24.17168
938.6481, 24.88390
939.1302, 25.15419
939.6124, 25.19057
940.0945, 25.08626
940.5766, 24.89075
941.0587, 25.08282
941.5408, 26.30255
942.0229, 26.91650
942.5051, 26.65606
942.9872, 25.98620
943.4693, 24.60962
943.9514, 23.23412
944.4335, 22.92553
944.9156, 23.77317
945.3978, 24.61310
945.8799, 25.04316
946.3620, 25.37680
946.8441, 25.85920
947.3262, 26.25363
947.8083, 26.24599
948.2905, 25.94176
948.7726, 25.61281
949.2547, 25.35633
949.7368, 25.30506
950.2189, 25.85794
950.7010, 26.46561
951.1832, 26.25333
951.6653, 25.52124
952.1474, 25.01913
952.6295, 24.86827
953.1116, 24.76742
953.5938, 24.52749
954.0759, 24.19614
954.5580, 23.74220
955.0400, 23.24814
955.5222, 23.20421
956.0043, 23.61913
956.4864, 24.17722
956.9685, 24.80789
957.4506, 25.27147
957.9327, 25.34501
958.4149, 25.04447
958.8970, 24.26843
959.3791, 22.72334
959.8612, 22.32651
960.3433, 23.77080
960.8254, 24.83376
961.3076, 24.24905
961.7897, 23.06972
962.2718, 22.78638
962.7539, 23.42560
963.2360, 23.55645
963.7181, 22.83695
964.2003, 22.13257
964.6824, 21.17570
965.1645, 20.61670
965.6466, 21.01525
966.1287, 21.95492
966.6108, 22.77921
967.0930, 23.43966
967.5751, 23.89290
968.0572, 24.13988
968.5393, 24.16514
969.0214, 23.97980
969.5035, 23.55499
969.9857, 22.46363
970.4678, 21.16749
970.9499, 20.95768
971.4320, 22.40486
971.9141, 23.62353
972.3962, 23.13997
972.8784, 22.31484
973.3605, 22.48431
973.8426, 23.05947
974.3247, 22.90787
974.8068, 22.05944
975.2889, 21.49851
975.7711, 21.79638
976.2532, 22.40305
976.7353, 22.76739
977.2174, 22.98568
977.6995, 23.19679
978.1816, 23.42783
978.6638, 23.80358
979.1459, 24.32291
979.6280, 24.62398
980.1101, 24.36373
980.5922, 23.87330
981.0743, 23.82936
981.5565, 24.18138
982.0386, 24.75650
982.5207, 25.52130
983.0028, 25.78341
983.4849, 25.21658
983.9670, 24.65922
984.4492, 25.11032
984.9313, 26.27451
985.4134, 26.72128
985.8955, 26.35509
986.3776, 25.88052
986.8597, 25.20346
987.3419, 25.10991
987.8240, 26.23070
988.3061, 27.65606
988.7882, 28.01673
989.2703, 27.31953
989.7524, 27.18980
990.2346, 28.12746
990.7167, 28.49847
991.1988, 27.71695
991.6809, 26.86656
992.1630, 26.21183
992.6451, 26.05014
993.1273, 27.26406
993.6094, 30.22443
994.0915, 31.81769
994.5736, 30.80021
995.0557, 30.09694
995.5378, 30.53782
996.0200, 31.18409
996.5021, 31.29059
996.9842, 31.17664
997.4663, 31.60591
997.9484, 32.77922
998.4305, 33.71755
998.9127, 33.73554
999.3948, 34.01866
999.8769, 35.33154
1000.359, 36.92416
1000.841, 38.24997
1001.323, 39.21165
1001.805, 39.64652
1002.287, 39.39823
1002.770, 39.46889
1003.252, 40.66903
1003.734, 42.05258
1004.216, 42.99562
1004.698, 43.66928
1005.180, 44.23175
1005.662, 44.79470
1006.144, 45.57152
1006.627, 46.67150
1007.109, 47.89815
1007.591, 49.45989
1008.073, 50.74990
1008.555, 50.59839
1009.037, 49.78822
1009.519, 50.01451
1010.001, 51.36705
1010.483, 52.67244
1010.966, 53.29129
1011.448, 53.35601
1011.930, 52.40619
1012.412, 51.31733
1012.894, 52.25981
1013.376, 54.59910
1013.858, 56.06528
1014.340, 56.17298
1014.823, 55.72418
1015.305, 55.19312
1015.787, 54.90321
1016.269, 55.68711
1016.751, 57.15290
1017.233, 57.46830
1017.715, 56.81995
1018.197, 57.45351
1018.679, 59.96434
1019.162, 62.27440
1019.644, 62.63276
1020.126, 61.86865
1020.608, 61.91766
1021.090, 62.68897
1021.572, 62.75443
1022.054, 62.02541
1022.536, 61.94276
1023.018, 63.02905
1023.501, 64.37849
1023.983, 65.26276
1024.465, 65.63709
1024.947, 65.14372
1025.429, 63.64227
1025.911, 63.11909
1026.393, 63.88713
1026.875, 64.27764
1027.358, 63.64307
1027.840, 62.67216
1028.322, 61.98707
1028.804, 61.55713
1029.286, 61.31506
1029.768, 61.34886
1030.250, 61.20176
1030.732, 60.84917
1031.214, 60.33877
1031.697, 59.61481
1032.179, 58.84900
1032.661, 58.12497
1033.143, 57.52240
1033.625, 57.48172
1034.107, 58.31925
1034.589, 58.92170
1035.071, 59.18179
1035.553, 59.37646
1036.036, 59.46416
1036.518, 59.67632
1037.000, 60.21971
1037.482, 61.08775
1037.964, 62.27848
1038.446, 64.12656
1038.928, 65.62953
1039.410, 66.91639
1039.893, 67.66929
1040.375, 67.01215
1040.857, 66.38271
1041.339, 67.33325
1041.821, 69.59339
1042.303, 71.66493
1042.785, 73.18584
1043.267, 75.18944
1043.750, 78.71613
1044.232, 81.48723
1044.714, 81.74734
1045.196, 81.61708
1045.678, 83.40557
1046.160, 86.69506
1046.642, 89.24659
1047.124, 90.47768
1047.606, 91.81161
1048.089, 93.48386
1048.571, 95.21813
1049.053, 96.92866
1049.535, 98.63332
1050.017, 100.4243
1050.499, 102.2444
1050.981, 103.8462
1051.463, 104.8788
1051.945, 106.5212
1052.428, 109.2277
1052.910, 112.3517
1053.392, 116.2943
1053.874, 119.9773
1054.356, 121.8385
1054.838, 122.5047
1055.320, 124.3236
1055.802, 128.0594
1056.285, 131.9397
1056.767, 135.9335
1057.249, 139.3877
1057.731, 141.3003
1058.213, 143.0361
1058.695, 145.8948
1059.177, 149.8016
1059.659, 154.0803
1060.141, 158.4911
1060.624, 163.7093
1061.106, 169.4126
1061.588, 176.6799
1062.070, 186.0129
1062.552, 197.2631
1063.034, 211.4312
1063.516, 227.1472
1063.998, 241.7838
1064.480, 255.2137
1064.963, 263.9135
1065.445, 264.9170
1065.927, 262.7753
1066.409, 257.4328
1066.891, 252.0969
1067.373, 248.5955
1067.855, 247.9193
1068.337, 251.1773
1068.820, 258.6003
1069.302, 270.7431
1069.784, 287.7371
1070.266, 309.6558
1070.748, 334.4254
1071.230, 365.9913
1071.712, 408.0631
1072.194, 460.1388
1072.677, 522.2569
1073.159, 594.0681
1073.641, 667.5833
1074.123, 746.7307
1074.605, 817.3405
1075.087, 867.3370
1075.569, 910.1396
1076.051, 949.7844
1076.533, 994.5515
1077.016, 1054.096
1077.498, 1131.062
1077.980, 1228.624
1078.462, 1343.110
1078.944, 1486.673
1079.426, 1656.420
1079.908, 1866.803
1080.390, 2112.828
1080.872, 2416.955
1081.354, 2790.679
1081.837, 3248.369
1082.319, 3847.887
1082.801, 4540.783
1083.283, 5522.017
1083.765, 6932.922
1084.247, 8609.836
1084.729, 10872.56
1085.211, 13055.53
1085.694, 14521.56
1086.176, 15073.62
1086.658, 14367.63
1087.140, 11894.13
1087.622, 9278.692
1088.104, 6876.588
1088.586, 4890.057
1089.068, 3535.149
1089.551, 2609.871
1090.033, 1967.847
1090.515, 1536.726
1090.997, 1219.152
1091.479, 1001.033
1091.961, 831.1138
1092.443, 705.4097
1092.925, 604.1223
1093.407, 524.6148
1093.890, 459.8763
1094.372, 405.7151
1094.854, 360.6411
1095.336, 323.2379
1095.818, 293.7327
1096.300, 267.9337
1096.782, 245.0863
1097.264, 224.9769
1097.746, 207.9445
1098.229, 192.9700
1098.711, 179.5715
1099.193, 167.4997
1099.675, 156.2148
1100.157, 145.6473
1100.639, 136.7101
1101.121, 130.7659
1101.603, 124.9144
1102.086, 117.6693
1102.568, 110.9985
1103.050, 106.6291
1103.532, 103.3248
1104.014, 99.30080
1104.496, 94.50002
1104.978, 90.03467
1105.460, 86.08916
1105.943, 82.50624
1106.425, 79.35170
1106.907, 76.43339
1107.389, 73.77734
1107.871, 71.21113
1108.353, 68.52055
1108.835, 65.75658
1109.317, 63.19221
1109.799, 60.80444
1110.281, 58.72075
1110.764, 56.99991
1111.246, 55.53139
1111.728, 54.39825
1112.210, 53.39175
1112.692, 52.56133
1113.174, 51.69838
1113.656, 50.12629
1114.138, 47.51220
1114.621, 45.72839
1115.103, 45.17633
1115.585, 44.82928
1116.067, 44.93610
1116.549, 44.65525
1117.031, 43.23600
1117.513, 41.33424
1117.995, 40.00449
1118.478, 39.25897
1118.960, 38.46936
1119.442, 37.32551
1119.924, 36.97243
1120.406, 38.14677
1120.888, 38.77784
1121.370, 37.79596
1121.852, 36.13285
1122.334, 34.76283
1122.817, 33.67595
1123.299, 32.79280
1123.781, 32.03509
1124.263, 31.91608
1124.745, 32.76365
1125.227, 33.01144
1125.709, 31.96392
1126.191, 30.92278
1126.673, 31.07530
1127.156, 30.21935
1127.638, 29.89611
1128.120, 29.85815
1128.602, 29.36008
1129.084, 30.06134
1129.566, 30.27136
1130.048, 29.59318
1130.530, 28.94462
1131.013, 28.84728
1131.495, 29.13491
1131.977, 29.69073
1132.459, 30.34498
1132.941, 30.10703
1133.423, 29.05811
1133.905, 28.33587
1134.387, 28.06335
1134.870, 28.03012
1135.352, 28.15322
1135.834, 28.19467
1136.316, 27.86724
1136.798, 27.46885
1137.280, 27.83385
1137.762, 28.64172
1138.244, 28.70081
1138.726, 28.07977
1139.208, 27.40949
1139.691, 26.84172
1140.173, 26.10722
1140.655, 24.97294
1141.137, 24.13601
1141.619, 25.06539
1142.101, 24.11661
1142.583, 25.79253
1143.065, 23.92849
1143.548, 23.11078
1144.030, 23.46276
1144.512, 24.15001
1144.994, 24.82312
1145.476, 25.27762
1145.958, 25.27961
1146.440, 25.08027
1146.922, 24.91665
1147.405, 24.71374
1147.887, 24.22218
1148.369, 23.67115
1148.851, 23.69090
1149.333, 24.25506
1149.815, 24.40149
1150.297, 23.47597
1150.779, 22.60254
1151.261, 22.64776
1151.744, 22.76016
1152.226, 22.25718
1152.708, 21.50705
1153.190, 20.75791
1153.672, 20.21910
1154.154, 20.43060
1154.636, 21.66379
1155.118, 22.56854
1155.600, 22.17188
1156.083, 22.17227
1156.565, 23.99122
1157.047, 25.55600
1157.529, 24.93821
1158.011, 23.34844
1158.493, 22.97059
1158.975, 23.87722
1159.457, 23.96784
1159.940, 21.97136
1160.422, 21.04826
1160.904, 22.30313
1161.386, 23.15756
1161.868, 22.38960
1162.350, 21.28304
1162.832, 20.97181
1163.314, 21.24824
1163.796, 21.48541
1164.279, 21.68212
1164.761, 21.81393
1165.243, 21.79112
1165.725, 22.10905
1166.207, 23.08808
1166.689, 23.58388
1167.171, 22.81112
1167.653, 21.57976
1168.135, 21.02220
1168.618, 21.04740
1169.100, 21.14286
1169.582, 21.31048
1170.064, 21.85309
1170.546, 22.78027
1171.028, 23.31037
1171.510, 23.18310
1171.992, 22.75500
1172.474, 22.26704
1172.957, 21.88408
1173.439, 22.00315
1173.921, 22.42340
1174.403, 22.58097
1174.885, 22.50501
1175.367, 22.28456
1175.849, 21.97410
1176.331, 21.74352
1176.814, 21.66039
1177.296, 21.52265
1177.778, 20.98178
1178.260, 20.52354
1178.742, 20.85072
1179.224, 21.50665
1179.706, 21.98043
1180.188, 22.23531
1180.671, 22.34625
1181.153, 22.29869
1181.635, 21.83011
1182.117, 20.51842
1182.599, 19.88827
1183.081, 21.57388
1183.563, 23.23229
1184.045, 23.06089
1184.527, 22.44034
1185.010, 22.93245
1185.492, 24.07563
1185.974, 24.59830
1186.456, 24.31227
1186.938, 23.68918
1187.420, 22.17520
1187.902, 21.28842
1188.384, 21.74893
1188.866, 22.29616
1189.349, 22.32462
1189.831, 22.24282
1190.313, 22.55793
1190.795, 22.40627
1191.277, 23.12516
1191.759, 22.43670
1192.241, 22.16945
1192.723, 22.44728
1193.206, 22.74812
1193.688, 23.02869
1194.170, 23.01516
1194.652, 22.46414
1195.134, 21.83719
1195.616, 21.77915
1196.098, 22.20691
1196.580, 22.97243
1197.063, 23.97863
1197.545, 24.11770
1198.027, 23.41587
1198.509, 22.93475
1198.991, 22.96798
1199.473, 23.10625
1199.955, 23.08547
1200.437, 22.89391
1200.919, 22.32373
1201.401, 21.70578
1201.884, 21.75089
1202.366, 22.11914
1202.848, 22.08811
1203.330, 21.73574
1203.812, 21.58825
1204.294, 21.78415
1204.776, 21.96514
1205.258, 21.81701
1205.741, 21.80608
1206.223, 22.51457
1206.705, 23.16955
1207.187, 23.11399
1207.669, 22.70327
1208.151, 22.20967
1208.633, 21.80577
1209.115, 21.87107
1209.598, 22.54191
1210.080, 23.25319
1210.562, 24.36757
1211.044, 24.85934
1211.526, 24.30496
1212.008, 23.33070
1212.490, 21.82490
1212.972, 20.45927
1213.454, 20.08193
1213.937, 20.52279
1214.419, 21.03592
1214.901, 21.75223
1215.383, 21.77120
1215.865, 20.92389
1216.347, 20.37942
1216.829, 20.39797
1217.311, 20.86783
1217.793, 21.80261
1218.276, 22.52257
1218.758, 21.92118
1219.240, 22.39226
1219.722, 22.37570
1220.204, 22.03125
1220.686, 22.36305
1221.168, 21.96581
1221.650, 21.83825
1222.133, 22.19382
1222.615, 22.63814
1223.097, 22.97378
1223.579, 23.11484
1224.061, 22.93890
1224.543, 22.57790
1225.025, 22.05807
1225.507, 21.51189
1225.990, 20.91265
1226.472, 20.48470
1226.954, 20.69177
1227.436, 21.54743
1227.918, 22.46051
1228.400, 23.55196
1228.882, 24.06045
1229.364, 23.65421
1229.846, 22.83479
1230.328, 21.05044
1230.811, 19.69771
1231.293, 20.29602
1231.775, 21.69751
1232.257, 21.63545
1232.739, 20.12543
1233.221, 19.51865
1233.703, 20.04590
1234.185, 20.48026
1234.668, 20.75163
1235.150, 20.78827
1235.632, 20.55654
1236.114, 20.08900
1236.596, 19.32427
1237.078, 18.79439
1237.560, 19.80462
1238.042, 21.65808
1238.525, 21.95344
1239.007, 21.12486
1239.489, 20.28595
1239.971, 19.73211
1240.453, 19.99635
1240.935, 21.11969
1241.417, 22.21661
1241.899, 22.82025
1242.381, 22.95897
1242.864, 22.44250
1243.346, 21.71164
1243.828, 20.75485
1244.310, 20.09656
1244.792, 20.67103
1245.274, 21.87601
1245.756, 22.28449
1246.238, 21.69225
1246.720, 21.19733
1247.203, 21.11251
1247.685, 20.90073
1248.167, 20.27417
1248.649, 19.91377
1249.131, 20.16673
1249.613, 20.51380
1250.095, 20.53091
1250.577, 20.42445
1251.059, 20.57903
1251.542, 20.99294
1252.024, 21.77337
1252.506, 22.91690
1252.988, 23.52406
1253.470, 23.52408
1253.952, 23.18275
1254.434, 22.60735
1254.916, 21.99099
1255.399, 21.46183
1255.881, 21.04990
1256.363, 20.72012
1256.845, 20.59795
1257.327, 21.06876
1257.809, 21.73761
1258.291, 22.05450
1258.773, 22.03650
1259.255, 21.89739
1259.738, 21.65967
1260.220, 21.08875
1260.702, 19.80395
1261.184, 19.01331
1261.666, 19.27665
1262.148, 19.87046
1262.630, 20.93644
1263.112, 21.78272
1263.594, 21.86313
1264.077, 21.46432
1264.559, 20.83211
1265.041, 20.07312
1265.523, 20.23755
1266.005, 21.59290
1266.487, 22.17128
1266.969, 21.79761
1267.451, 21.94773
1267.934, 22.99383
1268.416, 23.70679
1268.898, 23.38414
1269.380, 22.71560
1269.862, 22.53171
1270.344, 22.50726
1270.826, 21.80290
1271.308, 20.97191
1271.791, 21.13122
1272.273, 21.98961
1272.755, 23.17755
1273.237, 24.28071
1273.719, 24.04977
1274.201, 21.93943
1274.683, 20.61397
1275.165, 21.98692
1275.647, 23.32320
1276.130, 23.72873
1276.612, 23.65545
1277.094, 22.99504
1277.576, 22.31167
1278.058, 22.21024
1278.540, 22.53998
1279.022, 22.98448
1279.504, 23.61371
1279.986, 23.12892
1280.469, 23.34376
1280.951, 23.61341
1281.433, 22.67319
1281.915, 23.67794
1282.397, 22.81375
1282.879, 21.80768
1283.361, 22.01947
1283.843, 22.79947
1284.326, 23.37973
1284.808, 23.75880
##END=



