##NAMES=Rhodochrosite
##RRUFFID=R100002
##IDEAL CHEMISTRY=Mn^2+^CO_3_
##LOCALITY=Wudong mine, Liubao, Guangxi  Autonomous Region, China
##OWNER=RRUFF
##SOURCE=Marcus Origlieri
##DESCRIPTION=Red cleavage fragment
##STATUS=The identification of this mineral has been confirmed by X-ray diffraction.
##URL=rruff.info/R100002
91.18097, 0.0000000E+00
91.66309, 279.0010
92.14520, 286.8173
92.62732, 290.7761
93.10944, 285.9917
93.59155, 277.5195
94.07367, 269.8373
94.55579, 263.4978
95.03790, 257.5229
95.52002, 251.0687
96.00214, 244.3937
96.48425, 236.3666
96.96637, 225.3720
97.44849, 214.2854
97.93060, 204.9620
98.41272, 197.8341
98.89484, 192.1471
99.37695, 186.8621
99.85907, 182.7983
100.3412, 178.0649
100.8233, 171.4703
101.3054, 164.2431
101.7875, 158.1099
102.2697, 154.1169
102.7518, 152.1589
103.2339, 150.2180
103.7160, 148.0630
104.1981, 146.0913
104.6802, 144.7647
105.1624, 143.9363
105.6445, 142.8067
106.1266, 140.7774
106.6087, 137.7218
107.0908, 133.5904
107.5729, 126.8642
108.0551, 119.6201
108.5372, 114.4784
109.0193, 112.0248
109.5014, 110.9218
109.9835, 110.0739
110.4656, 109.4558
110.9478, 109.1567
111.4299, 109.4133
111.9120, 110.1365
112.3941, 110.6001
112.8762, 110.2730
113.3583, 110.0708
113.8405, 110.6409
114.3226, 111.9597
114.8047, 113.4500
115.2868, 114.6033
115.7689, 115.6387
116.2510, 115.6098
116.7332, 113.4553
117.2153, 110.9851
117.6974, 109.3989
118.1795, 109.0722
118.6616, 109.5685
119.1437, 109.8876
119.6259, 109.5955
120.1080, 109.6595
120.5901, 110.3134
121.0722, 111.2854
121.5543, 112.4245
122.0364, 113.7364
122.5186, 114.9651
123.0007, 114.5493
123.4828, 111.8673
123.9649, 108.6704
124.4470, 104.8699
124.9291, 100.8157
125.4113, 97.85162
125.8934, 97.06643
126.3755, 98.24073
126.8576, 99.30551
127.3397, 100.4071
127.8218, 101.2865
128.3040, 101.6391
128.7861, 101.3995
129.2682, 100.9716
129.7503, 100.1587
130.2324, 99.36185
130.7145, 99.40010
131.1967, 101.4900
131.6788, 104.6910
132.1609, 106.0091
132.6430, 104.4506
133.1251, 102.2378
133.6072, 99.66314
134.0894, 97.25902
134.5715, 96.20121
135.0536, 98.23625
135.5357, 103.8365
136.0178, 106.5130
136.4999, 103.0171
136.9821, 99.18137
137.4642, 96.64552
137.9463, 95.69427
138.4284, 96.06071
138.9105, 97.61982
139.3926, 101.2579
139.8748, 103.6896
140.3569, 104.7745
140.8390, 105.0325
141.3211, 104.7248
141.8032, 103.9432
142.2853, 102.6923
142.7675, 100.8709
143.2496, 97.40628
143.7317, 95.50260
144.2138, 96.17336
144.6959, 98.23830
145.1780, 100.3614
145.6602, 102.1445
146.1423, 103.5334
146.6244, 104.2525
147.1065, 104.0425
147.5886, 104.0815
148.0707, 105.3801
148.5529, 107.4488
149.0350, 108.3245
149.5171, 106.1867
149.9992, 103.3865
150.4813, 103.6304
150.9634, 107.8687
151.4456, 112.8508
151.9277, 115.8637
152.4098, 116.7753
152.8919, 117.2789
153.3740, 117.5771
153.8561, 117.9737
154.3383, 118.7682
154.8204, 120.0803
155.3025, 121.7010
155.7846, 123.5072
156.2667, 126.1124
156.7488, 127.4192
157.2310, 125.3002
157.7131, 122.4416
158.1952, 121.6253
158.6773, 124.3194
159.1594, 129.7070
159.6415, 134.6582
160.1237, 138.3200
160.6058, 142.6127
161.0879, 147.9047
161.5700, 153.9781
162.0521, 160.5573
162.5342, 167.4869
163.0164, 174.7758
163.4985, 181.8884
163.9806, 188.7192
164.4627, 195.5453
164.9448, 201.9790
165.4269, 208.4186
165.9091, 215.8412
166.3912, 225.4029
166.8733, 237.0900
167.3554, 245.6247
167.8375, 249.0495
168.3196, 251.5794
168.8018, 254.7223
169.2839, 258.8040
169.7660, 264.6417
170.2481, 273.2731
170.7302, 284.7585
171.2123, 296.4661
171.6945, 307.8439
172.1766, 319.6099
172.6587, 331.7776
173.1408, 344.0732
173.6229, 358.7964
174.1050, 378.3405
174.5872, 402.0222
175.0693, 429.4518
175.5514, 460.1584
176.0335, 494.7394
176.5156, 532.9523
176.9977, 572.5950
177.4799, 622.0240
177.9620, 683.6198
178.4441, 757.4161
178.9262, 845.0044
179.4083, 946.8783
179.8904, 1063.735
180.3726, 1195.593
180.8547, 1351.886
181.3368, 1513.403
181.8189, 1684.756
182.3010, 1856.097
182.7831, 2002.114
183.2653, 2111.471
183.7474, 2186.432
184.2295, 2190.722
184.7116, 2078.640
185.1937, 1926.966
185.6758, 1740.678
186.1580, 1531.855
186.6401, 1322.635
187.1222, 1132.937
187.6043, 961.4423
188.0864, 818.3414
188.5685, 708.0029
189.0507, 617.1875
189.5328, 544.5832
190.0149, 487.3409
190.4970, 440.4901
190.9791, 397.7755
191.4612, 359.5055
191.9434, 326.9191
192.4255, 301.1078
192.9076, 279.3946
193.3897, 260.9537
193.8718, 245.3436
194.3539, 231.0948
194.8361, 216.1448
195.3182, 198.9971
195.8003, 186.1007
196.2824, 180.5304
196.7645, 177.6815
197.2466, 173.0487
197.7288, 165.5888
198.2109, 157.6308
198.6930, 152.6759
199.1751, 151.2531
199.6572, 148.7591
200.1393, 143.5237
200.6215, 137.0819
201.1036, 131.3408
201.5857, 126.5835
202.0678, 122.9545
202.5499, 121.2294
203.0320, 121.2379
203.5142, 120.8243
203.9963, 119.0773
204.4784, 116.3585
204.9605, 113.4149
205.4426, 110.1377
205.9247, 107.1271
206.4069, 105.2622
206.8890, 104.3663
207.3711, 103.1179
207.8532, 99.83855
208.3353, 95.22433
208.8174, 93.14410
209.2996, 95.96674
209.7817, 99.27918
210.2638, 99.57551
210.7459, 97.26741
211.2280, 94.95123
211.7101, 95.00844
212.1923, 97.34489
212.6744, 98.36268
213.1565, 96.82413
213.6386, 94.69060
214.1207, 92.48545
214.6028, 90.45383
215.0850, 89.11325
215.5671, 89.43849
216.0492, 91.79379
216.5313, 92.84763
217.0134, 90.62457
217.4955, 88.62673
217.9777, 88.59359
218.4598, 90.25155
218.9419, 92.03358
219.4240, 92.45308
219.9061, 91.42590
220.3882, 89.38774
220.8704, 83.88220
221.3525, 79.49019
221.8346, 78.81492
222.3167, 81.50557
222.7988, 85.24400
223.2809, 87.60059
223.7631, 88.15193
224.2452, 89.13408
224.7273, 91.54448
225.2094, 93.46916
225.6915, 93.66255
226.1736, 92.27152
226.6558, 90.42220
227.1379, 89.24065
227.6200, 88.80897
228.1021, 88.85086
228.5842, 90.00197
229.0663, 91.02926
229.5485, 91.10092
230.0306, 90.24901
230.5127, 89.08408
230.9948, 88.09373
231.4769, 87.17730
231.9590, 87.47938
232.4412, 90.46526
232.9233, 93.41341
233.4054, 94.30936
233.8875, 93.15896
234.3696, 91.62145
234.8517, 91.18246
235.3339, 92.00382
235.8160, 93.01575
236.2981, 94.26013
236.7802, 95.65619
237.2623, 97.02904
237.7444, 98.39261
238.2266, 100.2038
238.7087, 103.3173
239.1908, 107.5170
239.6729, 109.7720
240.1550, 107.9353
240.6371, 105.4593
241.1193, 105.5855
241.6014, 108.4534
242.0835, 111.3635
242.5656, 112.0254
243.0477, 111.0121
243.5298, 110.8971
244.0120, 112.4385
244.4941, 114.6533
244.9762, 116.9126
245.4583, 119.2446
245.9404, 120.9074
246.4225, 120.4870
246.9047, 119.2130
247.3868, 119.8216
247.8689, 123.9239
248.3510, 129.0466
248.8331, 132.7627
249.3152, 135.0329
249.7974, 136.2535
250.2795, 135.2393
250.7616, 133.7564
251.2437, 134.4734
251.7258, 138.7386
252.2079, 144.1491
252.6901, 147.6846
253.1722, 148.9797
253.6543, 151.0121
254.1364, 155.8354
254.6185, 161.7498
255.1006, 167.2164
255.5828, 171.8435
256.0649, 176.0719
256.5470, 180.2432
257.0291, 184.2841
257.5112, 188.7160
257.9933, 193.9710
258.4755, 199.5973
258.9576, 204.9350
259.4397, 209.6629
259.9218, 215.4284
260.4039, 224.9393
260.8860, 239.0654
261.3682, 251.9135
261.8503, 258.7438
262.3324, 266.0016
262.8145, 277.8449
263.2966, 295.0250
263.7787, 315.3483
264.2609, 336.4900
264.7430, 358.2344
265.2251, 382.0546
265.7072, 407.0982
266.1893, 435.1280
266.6714, 467.8925
267.1536, 505.3754
267.6357, 545.4969
268.1178, 585.6033
268.5999, 624.6493
269.0820, 669.3987
269.5641, 726.3190
270.0463, 784.4257
270.5284, 840.2090
271.0105, 892.9142
271.4926, 942.3618
271.9747, 987.1848
272.4568, 1026.714
272.9390, 1069.164
273.4211, 1117.548
273.9032, 1166.451
274.3853, 1212.934
274.8674, 1258.474
275.3495, 1306.106
275.8317, 1358.361
276.3138, 1415.019
276.7959, 1477.033
277.2780, 1542.980
277.7601, 1616.345
278.2422, 1696.771
278.7244, 1785.297
279.2065, 1882.628
279.6886, 1988.854
280.1707, 2104.380
280.6528, 2231.881
281.1349, 2367.079
281.6171, 2520.886
282.0992, 2693.282
282.5813, 2885.547
283.0634, 3101.325
283.5455, 3342.406
284.0276, 3606.561
284.5098, 3884.198
284.9919, 4188.334
285.4740, 4491.183
285.9561, 4812.312
286.4382, 5122.210
286.9203, 5395.511
287.4025, 5619.554
287.8846, 5787.036
288.3667, 5877.454
288.8488, 5887.224
289.3309, 5808.833
289.8130, 5624.202
290.2952, 5368.137
290.7773, 5059.449
291.2594, 4708.966
291.7415, 4332.437
292.2236, 3956.002
292.7057, 3563.166
293.1879, 3203.629
293.6700, 2875.585
294.1521, 2576.994
294.6342, 2309.964
295.1163, 2073.821
295.5984, 1864.418
296.0806, 1677.014
296.5627, 1514.529
297.0448, 1369.875
297.5269, 1243.460
298.0090, 1131.093
298.4911, 1032.790
298.9733, 947.1008
299.4554, 871.2120
299.9375, 802.4663
300.4196, 740.6823
300.9017, 687.6711
301.3839, 646.3613
301.8660, 609.0972
302.3481, 571.9669
302.8302, 535.8321
303.3123, 503.6810
303.7944, 477.8282
304.2766, 458.1797
304.7587, 439.5540
305.2408, 422.5146
305.7229, 405.6801
306.2050, 387.5875
306.6871, 369.6241
307.1693, 354.4673
307.6514, 343.8146
308.1335, 336.5364
308.6156, 327.8569
309.0977, 317.1457
309.5798, 305.6358
310.0620, 291.6080
310.5441, 277.4049
311.0262, 266.4421
311.5083, 260.0264
311.9904, 255.9236
312.4725, 249.2117
312.9547, 235.6315
313.4368, 225.1891
313.9189, 218.9004
314.4010, 214.9763
314.8831, 212.6500
315.3652, 211.4325
315.8474, 209.9324
316.3295, 206.0624
316.8116, 198.3889
317.2937, 192.0044
317.7758, 187.0670
318.2579, 183.0809
318.7401, 180.0761
319.2222, 177.8597
319.7043, 175.9346
320.1864, 173.9087
320.6685, 171.8850
321.1506, 168.8900
321.6328, 163.4684
322.1149, 158.6705
322.5970, 156.2530
323.0791, 155.4839
323.5612, 154.3404
324.0433, 151.2751
324.5255, 146.6017
325.0076, 143.7504
325.4897, 144.6660
325.9718, 145.1974
326.4539, 144.7429
326.9360, 143.3997
327.4182, 141.2458
327.9003, 138.2895
328.3824, 134.8628
328.8645, 131.8733
329.3466, 129.1756
329.8287, 127.1958
330.3109, 126.7042
330.7930, 126.5026
331.2751, 125.3993
331.7572, 123.0972
332.2393, 120.2938
332.7214, 118.0548
333.2036, 116.6060
333.6857, 115.2458
334.1678, 113.5823
334.6499, 112.2871
335.1320, 112.2454
335.6141, 113.1954
336.0963, 113.8585
336.5784, 112.9268
337.0605, 110.2342
337.5426, 107.3436
338.0247, 102.9308
338.5068, 99.63568
338.9890, 98.77838
339.4711, 99.74718
339.9532, 101.3858
340.4353, 103.0852
340.9174, 104.6359
341.3995, 104.6612
341.8817, 101.1834
342.3638, 98.51421
342.8459, 98.32737
343.3280, 98.89978
343.8101, 97.94057
344.2922, 94.47611
344.7744, 89.80583
345.2565, 86.82881
345.7386, 86.68568
346.2207, 86.06525
346.7028, 83.92754
347.1849, 81.82868
347.6671, 80.91069
348.1492, 81.36050
348.6313, 82.63418
349.1134, 84.49093
349.5955, 87.50687
350.0776, 88.49819
350.5598, 85.36273
351.0419, 82.03268
351.5240, 79.92384
352.0061, 78.99944
352.4882, 78.72144
352.9703, 78.96217
353.4525, 79.55900
353.9346, 78.66819
354.4167, 74.00725
354.8988, 70.97598
355.3809, 72.72600
355.8630, 76.45157
356.3452, 78.10358
356.8273, 75.54546
357.3094, 70.85466
357.7915, 68.73729
358.2736, 70.31520
358.7557, 71.60288
359.2379, 71.63953
359.7200, 71.09796
360.2021, 70.33121
360.6842, 69.43700
361.1663, 68.61897
361.6484, 68.07481
362.1306, 67.81232
362.6127, 67.78904
363.0948, 68.27650
363.5769, 68.74153
364.0590, 68.87077
364.5411, 68.70690
365.0233, 68.47601
365.5054, 68.49439
365.9875, 68.60091
366.4696, 67.95945
366.9517, 66.06129
367.4338, 64.40924
367.9160, 63.60230
368.3981, 63.53556
368.8802, 64.16901
369.3623, 65.65676
369.8444, 67.59984
370.3265, 69.84396
370.8087, 72.59137
371.2908, 73.88094
371.7729, 71.93758
372.2550, 68.78551
372.7371, 66.37677
373.2192, 64.88336
373.7014, 64.24816
374.1835, 64.77920
374.6656, 66.24056
375.1477, 67.69858
375.6298, 69.25636
376.1119, 70.23384
376.5941, 69.70946
377.0762, 67.93739
377.5583, 66.21005
378.0404, 65.04498
378.5225, 64.18192
379.0046, 62.88771
379.4868, 60.98544
379.9689, 60.20795
380.4510, 62.45775
380.9331, 66.73500
381.4152, 69.87743
381.8973, 71.90206
382.3795, 72.46208
382.8616, 70.49645
383.3437, 66.61925
383.8258, 63.17239
384.3079, 60.86719
384.7900, 59.82708
385.2722, 60.81039
385.7543, 64.56401
386.2364, 67.22166
386.7185, 67.30537
387.2006, 65.87722
387.6827, 63.90078
388.1649, 61.56976
388.6470, 59.79908
389.1291, 59.76090
389.6112, 61.77281
390.0933, 62.75814
390.5754, 61.71246
391.0576, 60.54273
391.5397, 60.30585
392.0218, 60.94732
392.5039, 62.16856
392.9860, 63.94317
393.4681, 65.96193
393.9503, 66.65131
394.4324, 64.67686
394.9145, 63.14303
395.3966, 62.36710
395.8787, 62.32298
396.3608, 63.16203
396.8430, 64.88807
397.3251, 66.99319
397.8072, 68.77645
398.2893, 70.39590
398.7714, 71.17474
399.2535, 70.73549
399.7357, 69.92319
400.2178, 69.21871
400.6999, 68.58714
401.1820, 67.56568
401.6641, 65.55751
402.1462, 62.80618
402.6284, 62.40046
403.1105, 68.08999
403.5926, 71.68379
404.0747, 70.29606
404.5568, 66.65542
405.0389, 64.08282
405.5211, 63.86549
406.0032, 64.65060
406.4853, 63.82953
406.9674, 60.41105
407.4495, 58.43266
407.9316, 59.85910
408.4138, 61.55774
408.8959, 61.65620
409.3780, 60.27175
409.8601, 58.87907
410.3422, 59.32313
410.8243, 61.10717
411.3065, 59.65063
411.7886, 51.90326
412.2707, 46.15461
412.7528, 47.93026
413.2349, 53.22170
413.7170, 56.11275
414.1992, 53.87297
414.6813, 50.03386
415.1634, 49.51297
415.6455, 52.49751
416.1276, 55.22244
416.6097, 57.01003
417.0919, 57.62180
417.5740, 56.51295
418.0561, 53.64803
418.5382, 51.21795
419.0203, 50.33488
419.5024, 50.73404
419.9846, 52.33516
420.4667, 55.51878
420.9488, 58.03875
421.4309, 57.57566
421.9130, 54.87499
422.3951, 52.76036
422.8773, 51.16426
423.3594, 50.57352
423.8415, 51.93868
424.3236, 54.75144
424.8057, 57.14075
425.2878, 58.35844
425.7700, 58.65781
426.2521, 58.45065
426.7342, 57.60456
427.2163, 56.73881
427.6984, 55.67923
428.1805, 54.80023
428.6627, 54.65332
429.1448, 55.24744
429.6269, 55.94160
430.1090, 56.19852
430.5911, 56.01877
431.0732, 55.30515
431.5554, 53.26200
432.0375, 51.66030
432.5196, 51.08025
433.0017, 51.34990
433.4838, 52.49773
433.9659, 54.55748
434.4481, 56.59160
434.9302, 56.30870
435.4123, 51.20708
435.8944, 48.38374
436.3765, 49.66782
436.8586, 51.60596
437.3408, 51.71445
437.8229, 50.10024
438.3050, 48.70476
438.7871, 49.46995
439.2692, 52.19936
439.7513, 53.33912
440.2335, 51.32890
440.7156, 49.94093
441.1977, 51.00981
441.6798, 52.99263
442.1619, 53.86005
442.6440, 52.82586
443.1262, 51.01900
443.6083, 49.80884
444.0904, 49.19927
444.5725, 49.19037
445.0546, 50.33723
445.5367, 51.53098
446.0189, 52.02800
446.5010, 51.85579
446.9831, 51.25778
447.4652, 49.39784
447.9473, 47.48849
448.4294, 48.60444
448.9116, 53.31408
449.3937, 56.73599
449.8758, 55.07786
450.3579, 50.57938
450.8400, 48.42138
451.3221, 49.87825
451.8043, 51.44390
452.2864, 50.90975
452.7685, 49.19880
453.2506, 48.32159
453.7327, 48.82582
454.2148, 49.98267
454.6970, 51.29165
455.1791, 52.94979
455.6612, 52.63703
456.1433, 47.73939
456.6254, 43.17798
457.1075, 42.26477
457.5897, 44.25245
458.0718, 46.51471
458.5539, 47.62391
459.0360, 47.94077
459.5181, 48.60189
460.0002, 50.39433
460.4824, 51.46229
460.9645, 51.11407
461.4466, 50.49423
461.9287, 50.92306
462.4108, 52.28994
462.8929, 52.99168
463.3751, 51.09942
463.8572, 46.57621
464.3393, 44.24498
464.8214, 46.30887
465.3035, 47.94598
465.7856, 46.82310
466.2678, 44.93209
466.7499, 45.35860
467.2320, 49.41819
467.7141, 54.14431
468.1962, 54.70060
468.6783, 50.58353
469.1605, 47.95034
469.6426, 48.96469
470.1247, 50.43780
470.6068, 49.70475
471.0889, 47.33814
471.5710, 45.82434
472.0532, 47.49038
472.5353, 50.20633
473.0174, 50.34137
473.4995, 47.79676
473.9816, 45.05206
474.4637, 43.02736
474.9459, 41.71958
475.4280, 40.96384
475.9101, 40.74018
476.3922, 41.08530
476.8743, 42.66404
477.3564, 44.56725
477.8386, 45.11990
478.3207, 44.09844
478.8028, 43.39476
479.2849, 45.06186
479.7670, 49.10971
480.2491, 50.78331
480.7313, 48.15975
481.2134, 45.69714
481.6955, 45.06724
482.1776, 45.54350
482.6597, 46.01598
483.1418, 46.06092
483.6240, 45.81741
484.1061, 45.47259
484.5882, 44.89616
485.0703, 44.59710
485.5524, 44.78572
486.0345, 45.02467
486.5167, 44.85392
486.9988, 44.57980
487.4809, 44.99863
487.9630, 46.74445
488.4451, 49.14071
488.9272, 50.51237
489.4094, 50.71687
489.8915, 50.31487
490.3736, 48.54220
490.8557, 46.82380
491.3378, 46.42588
491.8199, 47.34121
492.3021, 48.03535
492.7842, 47.08586
493.2663, 45.24154
493.7484, 44.41763
494.2305, 44.84588
494.7126, 45.42419
495.1948, 45.16178
495.6769, 44.70911
496.1590, 45.77229
496.6411, 49.68991
497.1232, 52.71441
497.6053, 52.33138
498.0875, 50.05952
498.5696, 48.46979
499.0517, 48.15961
499.5338, 48.40802
500.0159, 48.55188
500.4980, 48.60428
500.9802, 48.27385
501.4623, 47.35306
501.9444, 46.32619
502.4265, 44.93034
502.9086, 43.66361
503.3907, 43.39681
503.8729, 44.46349
504.3550, 46.25426
504.8371, 47.75417
505.3192, 48.98211
505.8013, 49.87309
506.2834, 51.13442
506.7656, 51.39160
507.2477, 49.28539
507.7298, 45.68838
508.2119, 42.49355
508.6940, 40.62202
509.1761, 39.97420
509.6583, 40.79635
510.1404, 43.50349
510.6225, 45.24352
511.1046, 44.71832
511.5867, 43.30984
512.0688, 42.05945
512.5510, 41.02725
513.0331, 40.49633
513.5152, 40.76842
513.9973, 41.54477
514.4794, 42.52939
514.9615, 43.70034
515.4437, 44.74387
515.9258, 45.63485
516.4079, 46.17060
516.8900, 45.61118
517.3721, 43.24505
517.8542, 41.41462
518.3364, 41.07008
518.8185, 41.24430
519.3006, 40.67813
519.7827, 39.39328
520.2648, 38.69467
520.7469, 39.85387
521.2291, 42.69101
521.7112, 44.50526
522.1933, 45.12115
522.6754, 44.80379
523.1575, 42.21873
523.6396, 39.47321
524.1218, 38.97757
524.6039, 41.08960
525.0860, 43.81170
525.5681, 45.03688
526.0502, 44.78817
526.5323, 44.55085
527.0145, 43.99468
527.4966, 44.04973
527.9787, 46.24812
528.4608, 48.93341
528.9429, 49.55965
529.4250, 47.06561
529.9072, 43.98628
530.3893, 42.48240
530.8714, 42.08369
531.3535, 41.13979
531.8356, 39.22966
532.3177, 37.17405
532.7999, 35.41825
533.2820, 34.09152
533.7641, 34.24821
534.2462, 38.03179
534.7283, 41.04686
535.2104, 40.56746
535.6926, 38.12030
536.1747, 36.16569
536.6568, 35.55857
537.1389, 36.09205
537.6210, 37.65393
538.1031, 40.71285
538.5853, 42.75840
539.0674, 43.53327
539.5495, 43.62778
540.0316, 42.45839
540.5137, 40.94280
540.9958, 40.89257
541.4780, 43.17598
541.9601, 45.52437
542.4422, 43.67780
542.9243, 37.16803
543.4064, 33.25621
543.8885, 34.61517
544.3707, 36.47772
544.8528, 34.64620
545.3349, 30.73273
545.8170, 29.17591
546.2991, 33.35921
546.7813, 38.16290
547.2634, 37.94690
547.7455, 34.01954
548.2276, 31.81791
548.7097, 33.27658
549.1918, 36.13673
549.6740, 37.48325
550.1561, 36.93061
550.6382, 36.87745
551.1203, 38.78475
551.6024, 39.76568
552.0845, 36.83764
552.5667, 32.10384
553.0488, 30.01686
553.5309, 32.50584
554.0130, 36.97882
554.4951, 38.63192
554.9772, 36.20468
555.4594, 34.78445
555.9415, 35.38851
556.4236, 36.04398
556.9057, 36.13332
557.3878, 35.69622
557.8699, 34.78233
558.3521, 33.21039
558.8342, 31.77253
559.3163, 31.72901
559.7984, 33.03053
560.2805, 34.35788
560.7626, 35.74288
561.2448, 36.55063
561.7269, 35.53691
562.2090, 33.18337
562.6911, 31.78846
563.1732, 32.55283
563.6553, 33.66511
564.1375, 34.15743
564.6196, 34.06237
565.1017, 33.24225
565.5838, 31.60915
566.0659, 30.16737
566.5480, 30.48722
567.0302, 33.23636
567.5123, 34.78776
567.9944, 34.56884
568.4765, 33.95284
568.9586, 33.17075
569.4407, 32.40110
569.9229, 31.85762
570.4050, 31.61934
570.8871, 31.57258
571.3692, 31.52260
571.8513, 31.45536
572.3334, 31.69854
572.8156, 32.42452
573.2977, 33.24103
573.7798, 34.52586
574.2619, 35.64280
574.7440, 35.01894
575.2261, 30.91892
575.7083, 27.70038
576.1904, 30.43642
576.6725, 36.38234
577.1546, 38.39741
577.6367, 34.74937
578.1188, 29.55198
578.6010, 26.41117
579.0831, 25.34119
579.5652, 25.21442
580.0473, 26.59492
580.5294, 28.09131
581.0115, 29.70376
581.4937, 31.04437
581.9758, 31.67430
582.4579, 31.50593
582.9400, 30.71127
583.4221, 29.12494
583.9042, 26.85196
584.3864, 26.65611
584.8685, 30.54615
585.3506, 32.92887
585.8327, 31.21894
586.3148, 27.52804
586.7969, 23.08852
587.2791, 18.00865
587.7612, 15.22284
588.2433, 18.42171
588.7254, 24.73440
589.2075, 28.70410
589.6896, 29.91431
590.1718, 29.60067
590.6539, 27.96393
591.1360, 25.68920
591.6181, 24.91729
592.1002, 26.34960
592.5823, 27.65796
593.0645, 28.47766
593.5466, 29.11469
594.0287, 29.86101
594.5108, 30.67090
594.9929, 31.40280
595.4750, 32.03419
595.9572, 32.28080
596.4393, 30.93637
596.9214, 26.74938
597.4035, 24.44481
597.8856, 26.92500
598.3677, 29.63029
598.8499, 29.50105
599.3320, 27.28765
599.8141, 26.13488
600.2962, 28.58079
600.7783, 31.53659
601.2604, 30.47300
601.7426, 26.17175
602.2247, 23.37822
602.7068, 23.76062
603.1889, 25.22209
603.6710, 25.24931
604.1531, 23.59150
604.6353, 22.62026
605.1174, 22.46830
605.5995, 22.84009
606.0816, 24.03202
606.5637, 25.51939
607.0458, 26.56827
607.5280, 26.95696
608.0101, 26.93699
608.4922, 26.64572
608.9743, 26.04821
609.4564, 26.37333
609.9385, 28.63008
610.4207, 30.14874
610.9028, 29.27375
611.3849, 27.55232
611.8670, 26.85427
612.3491, 27.58094
612.8312, 28.21185
613.3134, 27.57923
613.7955, 26.24385
614.2776, 25.13594
614.7597, 24.33836
615.2418, 23.80517
615.7239, 23.50689
616.2061, 23.46348
616.6882, 23.76572
617.1703, 24.81729
617.6524, 25.45071
618.1345, 25.23693
618.6166, 24.91823
619.0988, 24.94586
619.5809, 25.30527
620.0630, 25.83601
620.5451, 26.46195
621.0272, 27.12820
621.5093, 27.81260
621.9915, 28.59046
622.4736, 28.85615
622.9557, 28.47686
623.4378, 27.61876
623.9199, 25.96212
624.4020, 23.95656
624.8842, 22.77374
625.3663, 22.91390
625.8484, 23.57938
626.3305, 24.30294
626.8126, 25.13646
627.2947, 26.47696
627.7769, 28.36310
628.2590, 29.49416
628.7411, 28.42137
629.2232, 25.45487
629.7053, 24.47528
630.1874, 28.45354
630.6696, 30.67465
631.1517, 29.60752
631.6338, 27.22454
632.1159, 24.41825
632.5980, 21.77773
633.0801, 20.61553
633.5623, 22.52292
634.0444, 25.93738
634.5265, 26.64982
635.0086, 24.37271
635.4907, 23.53925
635.9728, 26.33675
636.4550, 29.91061
636.9371, 30.41569
637.4192, 28.18464
637.9013, 26.85608
638.3834, 27.99077
638.8655, 29.14657
639.3477, 28.37737
639.8298, 26.77987
640.3119, 26.60489
640.7940, 28.42540
641.2761, 30.64414
641.7582, 31.40286
642.2404, 30.67599
642.7225, 29.90722
643.2046, 29.02626
643.6867, 28.22020
644.1688, 27.53582
644.6509, 26.93625
645.1331, 26.20749
645.6152, 25.37472
646.0973, 25.15366
646.5794, 26.84167
647.0615, 28.99090
647.5436, 28.71854
648.0258, 26.30783
648.5079, 25.18071
648.9900, 27.09247
649.4721, 30.06348
649.9542, 30.76440
650.4363, 28.30108
650.9185, 26.77878
651.4006, 26.72112
651.8827, 26.96859
652.3648, 27.41332
652.8469, 27.70968
653.3290, 27.11165
653.8112, 25.47612
654.2933, 24.10290
654.7754, 24.91400
655.2575, 27.56346
655.7396, 28.91897
656.2217, 28.61000
656.7039, 28.18125
657.1860, 28.74151
657.6681, 29.34291
658.1502, 28.09847
658.6323, 24.43525
659.1144, 22.13546
659.5966, 23.41120
660.0787, 25.57296
660.5608, 26.62642
661.0429, 26.61230
661.5250, 25.99394
662.0071, 24.96502
662.4893, 23.93700
662.9714, 23.73238
663.4535, 24.66703
663.9356, 24.67437
664.4177, 22.27328
664.8998, 20.92161
665.3820, 23.06870
665.8641, 26.39067
666.3462, 27.65814
666.8283, 26.09019
667.3104, 24.27656
667.7925, 24.09896
668.2747, 24.66029
668.7568, 24.42365
669.2389, 23.38838
669.7210, 22.38384
670.2031, 21.72944
670.6852, 21.69209
671.1674, 23.02247
671.6495, 27.06130
672.1316, 28.80031
672.6137, 26.58789
673.0958, 24.08967
673.5779, 22.31159
674.0601, 21.45064
674.5422, 21.87597
675.0243, 23.71391
675.5064, 25.70717
675.9885, 26.58734
676.4706, 26.55260
676.9528, 26.35186
677.4349, 26.04197
677.9170, 25.30741
678.3991, 23.55862
678.8812, 21.66125
679.3633, 21.76604
679.8455, 24.72201
680.3276, 26.53456
680.8097, 25.97164
681.2918, 24.96224
681.7739, 24.58566
682.2560, 24.66365
682.7382, 24.61799
683.2203, 24.23669
683.7024, 23.96070
684.1845, 24.58131
684.6666, 26.04734
685.1487, 26.79832
685.6309, 26.64903
686.1130, 26.20181
686.5951, 25.33699
687.0772, 24.57327
687.5593, 24.88234
688.0414, 26.54325
688.5236, 27.59513
689.0057, 26.88532
689.4878, 25.85371
689.9699, 25.33270
690.4520, 25.48004
690.9341, 26.82371
691.4163, 29.51869
691.8984, 32.12143
692.3805, 32.18874
692.8626, 29.41685
693.3447, 29.16101
693.8268, 33.47498
694.3090, 36.71105
694.7911, 35.76549
695.2732, 33.33958
695.7553, 31.96284
696.2374, 31.89931
696.7195, 32.56011
697.2017, 34.39149
697.6838, 36.28748
698.1659, 36.52780
698.6480, 35.82950
699.1301, 36.43223
699.6122, 39.14074
700.0944, 43.31255
700.5765, 48.27229
701.0586, 54.07531
701.5407, 59.25797
702.0228, 61.40441
702.5049, 66.60246
702.9871, 76.26332
703.4692, 89.27838
703.9513, 105.7582
704.4334, 125.1040
704.9155, 144.0788
705.3976, 163.1909
705.8798, 179.2136
706.3619, 187.2107
706.8440, 188.6109
707.3261, 187.7227
707.8082, 185.6869
708.2903, 184.2010
708.7725, 185.1049
709.2546, 188.3837
709.7367, 192.6732
710.2188, 197.1566
710.7009, 203.9530
711.1830, 214.8435
711.6652, 226.9150
712.1473, 238.9336
712.6294, 250.1837
713.1115, 258.5256
713.5936, 261.1313
714.0757, 262.7274
714.5579, 269.1154
715.0400, 279.3798
715.5221, 290.5190
716.0042, 301.8580
716.4863, 313.7392
716.9684, 327.2837
717.4506, 341.5289
717.9327, 350.2780
718.4148, 356.8328
718.8969, 352.3188
719.3790, 333.1360
719.8611, 305.9108
720.3433, 271.4264
720.8254, 232.6551
721.3075, 194.6031
721.7896, 158.5344
722.2717, 127.1832
722.7538, 104.5155
723.2360, 89.24300
723.7181, 77.82713
724.2002, 69.83934
724.6823, 63.90518
725.1644, 59.23790
725.6465, 55.75662
726.1287, 53.29720
726.6108, 53.09187
727.0929, 51.55442
727.5750, 46.38498
728.0571, 42.30934
728.5392, 42.84081
729.0214, 45.70516
729.5035, 46.99085
729.9856, 45.42623
730.4677, 42.77323
730.9498, 40.27729
731.4319, 37.98000
731.9141, 35.89643
732.3962, 34.04601
732.8783, 32.83545
733.3604, 32.58489
733.8425, 32.70301
734.3246, 32.09266
734.8068, 30.28553
735.2889, 29.85847
735.7710, 32.75832
736.2531, 34.58558
736.7352, 33.00333
737.2173, 30.27782
737.6995, 28.92747
738.1816, 29.31632
738.6637, 30.12595
739.1458, 30.65465
739.6279, 30.90996
740.1100, 30.75216
740.5922, 30.27919
741.0743, 30.27060
741.5564, 31.07367
742.0385, 31.30237
742.5206, 29.12548
743.0027, 24.75265
743.4849, 23.10424
743.9670, 27.06407
744.4491, 29.82351
744.9312, 30.00985
745.4133, 29.43424
745.8954, 29.27777
746.3776, 29.52870
746.8597, 29.82190
747.3418, 30.27298
747.8239, 30.04058
748.3060, 27.32347
748.7881, 23.39411
749.2703, 21.70995
749.7524, 22.66593
750.2345, 24.28568
750.7166, 25.41687
751.1987, 26.05957
751.6808, 26.13993
752.1630, 25.07036
752.6451, 24.79631
753.1272, 26.52554
753.6093, 27.74041
754.0914, 27.01797
754.5735, 25.38983
755.0557, 24.31921
755.5378, 24.12569
756.0199, 24.34196
756.5020, 24.58636
756.9841, 25.12907
757.4662, 26.80739
757.9484, 29.17592
758.4305, 30.57832
758.9126, 30.38288
759.3947, 29.12484
759.8768, 27.29938
760.3589, 24.88278
760.8411, 23.57929
761.3232, 24.24372
761.8053, 24.46197
762.2874, 22.15461
762.7695, 20.36060
763.2516, 22.40534
763.7338, 27.45508
764.2159, 30.64175
764.6980, 29.61234
765.1801, 27.25071
765.6622, 24.26015
766.1443, 21.67959
766.6265, 21.62846
767.1086, 23.94868
767.5907, 26.17546
768.0728, 26.65057
768.5549, 25.86454
769.0370, 25.01304
769.5192, 24.16775
770.0013, 22.69163
770.4834, 19.79017
770.9655, 17.55440
771.4476, 17.65977
771.9297, 19.05124
772.4119, 19.83208
772.8940, 19.60405
773.3761, 20.09825
773.8582, 22.70921
774.3403, 25.32021
774.8224, 26.06247
775.3046, 25.78106
775.7867, 26.31113
776.2688, 28.14670
776.7509, 30.05951
777.2330, 30.95223
777.7151, 30.85351
778.1973, 29.61757
778.6794, 27.11615
779.1615, 24.86722
779.6436, 23.27035
780.1257, 22.09988
780.6078, 21.03980
781.0900, 20.13422
781.5721, 20.08982
782.0542, 21.47220
782.5363, 22.88889
783.0184, 24.59561
783.5005, 25.84159
783.9827, 25.42098
784.4648, 24.05353
784.9469, 23.85718
785.4290, 25.96938
785.9111, 28.57162
786.3932, 29.59674
786.8754, 29.51373
787.3575, 29.94213
787.8396, 30.94402
788.3217, 30.41169
788.8038, 26.89314
789.2859, 22.55113
789.7681, 21.35224
790.2502, 24.02680
790.7323, 26.15902
791.2144, 28.15717
791.6965, 29.02474
792.1786, 27.69954
792.6608, 25.72490
793.1429, 24.46501
793.6250, 24.03599
794.1071, 24.01476
794.5892, 24.84959
795.0714, 25.36477
795.5535, 23.70169
796.0356, 21.36615
796.5177, 21.75894
796.9998, 24.94546
797.4819, 27.24520
797.9641, 25.87670
798.4462, 22.45527
798.9283, 21.37411
799.4104, 23.08435
799.8925, 23.78895
800.3746, 22.35859
800.8568, 21.57100
801.3389, 23.78631
801.8210, 27.27512
802.3031, 28.63175
802.7852, 27.35228
803.2673, 26.24656
803.7495, 25.83913
804.2316, 25.72940
804.7137, 25.84792
805.1958, 26.05241
805.6779, 26.14103
806.1600, 26.09125
806.6422, 26.11202
807.1243, 26.58219
807.6064, 27.01128
808.0885, 25.67059
808.5706, 22.99618
809.0527, 23.25960
809.5349, 27.77480
810.0170, 31.75323
810.4991, 31.17789
810.9812, 27.20616
811.4633, 24.59075
811.9454, 23.56871
812.4276, 23.48023
812.9097, 25.36594
813.3918, 27.01354
813.8739, 27.80829
814.3560, 27.60032
814.8381, 25.45527
815.3203, 21.00982
815.8024, 18.67885
816.2845, 22.88816
816.7666, 28.56603
817.2487, 31.02446
817.7308, 30.80453
818.2130, 29.10273
818.6951, 26.44854
819.1772, 23.87886
819.6593, 22.24169
820.1414, 21.58993
820.6235, 22.55576
821.1057, 25.54188
821.5878, 27.02463
822.0699, 25.75120
822.5520, 24.29383
823.0341, 24.63286
823.5162, 26.14886
823.9984, 26.77459
824.4805, 25.86086
824.9626, 25.62707
825.4447, 27.52412
825.9268, 28.89684
826.4089, 27.33644
826.8911, 24.71566
827.3732, 24.18901
827.8553, 26.33781
828.3374, 28.58225
828.8195, 28.85119
829.3016, 28.13373
829.7838, 28.02736
830.2659, 28.23640
830.7480, 27.48713
831.2301, 25.50991
831.7122, 23.53911
832.1943, 22.51320
832.6765, 22.44985
833.1586, 23.81091
833.6407, 27.67531
834.1228, 29.17074
834.6049, 26.17503
835.0870, 23.30088
835.5692, 23.09224
836.0513, 24.54261
836.5334, 26.61704
837.0155, 29.54821
837.4976, 31.19827
837.9797, 30.19289
838.4619, 28.67295
838.9440, 27.98948
839.4261, 27.50559
839.9082, 25.50831
840.3903, 22.29358
840.8724, 21.07394
841.3546, 24.88091
841.8367, 30.44387
842.3188, 32.55543
842.8009, 31.71531
843.2830, 29.78999
843.7651, 27.04142
844.2473, 24.67307
844.7294, 23.37117
845.2115, 23.10488
845.6936, 23.96900
846.1757, 26.38032
846.6578, 28.24456
847.1400, 30.04636
847.6221, 30.55154
848.1042, 27.66743
848.5863, 24.48675
849.0684, 24.43549
849.5505, 27.36772
850.0327, 29.81331
850.5148, 31.38542
850.9969, 31.62818
851.4790, 29.28451
851.9611, 26.20475
852.4432, 24.09085
852.9254, 23.21559
853.4075, 23.62779
853.8896, 25.47090
854.3717, 27.36460
854.8538, 26.98986
855.3359, 25.22735
855.8181, 25.58584
856.3002, 28.12317
856.7823, 30.18338
857.2644, 30.78326
857.7465, 30.11018
858.2286, 28.05378
858.7108, 24.69393
859.1929, 23.42623
859.6750, 25.53230
860.1571, 27.21683
860.6392, 27.77118
861.1213, 27.82951
861.6035, 27.64626
862.0856, 27.28538
862.5677, 26.91142
863.0498, 26.65508
863.5319, 26.05849
864.0140, 24.58831
864.4962, 23.08854
864.9783, 21.85194
865.4604, 21.15558
865.9425, 21.64471
866.4246, 23.30631
866.9067, 24.91838
867.3889, 25.43885
867.8710, 25.30567
868.3531, 25.15300
868.8352, 25.02734
869.3173, 25.07519
869.7994, 25.32619
870.2816, 26.10917
870.7637, 27.76812
871.2458, 29.77925
871.7279, 30.72058
872.2100, 30.13191
872.6921, 30.52459
873.1743, 32.87551
873.6564, 34.41594
874.1385, 33.94408
874.6206, 32.22557
875.1027, 29.83690
875.5848, 26.83511
876.0670, 24.55601
876.5491, 23.47041
877.0312, 22.75936
877.5133, 21.32424
877.9954, 20.85622
878.4775, 24.10901
878.9597, 29.45949
879.4418, 32.66017
879.9239, 31.96617
880.4060, 29.75108
880.8881, 26.81577
881.3702, 24.43161
881.8524, 25.75889
882.3345, 29.62885
882.8166, 31.15944
883.2987, 28.95512
883.7808, 26.06215
884.2629, 25.39789
884.7451, 26.35664
885.2272, 26.66556
885.7093, 26.26751
886.1914, 25.90255
886.6735, 26.20390
887.1556, 24.80567
887.6378, 18.67610
888.1199, 11.14510
888.6020, 9.740605
889.0841, 16.89277
889.5662, 21.49956
890.0483, 20.86853
890.5305, 21.14794
891.0126, 26.08964
891.4947, 31.16314
891.9768, 31.64192
892.4589, 28.12086
892.9410, 24.89536
893.4232, 23.48028
893.9053, 22.59889
894.3874, 20.92572
894.8695, 19.80161
895.3516, 21.69155
895.8337, 25.33741
896.3159, 27.12335
896.7980, 25.84382
897.2801, 23.65569
897.7622, 22.58646
898.2443, 22.34256
898.7264, 22.23096
899.2086, 22.25199
899.6907, 22.39974
900.1728, 22.67244
900.6549, 23.15245
901.1370, 23.97865
901.6191, 24.88574
902.1013, 25.10970
902.5834, 24.50038
903.0655, 23.82792
903.5476, 23.29654
904.0297, 22.24510
904.5118, 19.23092
904.9940, 16.53370
905.4761, 17.76687
905.9582, 22.59507
906.4403, 25.15784
906.9224, 24.13065
907.4045, 22.05189
907.8867, 17.10440
908.3688, 13.48177
908.8509, 15.44219
909.3330, 20.73082
909.8151, 24.64823
910.2972, 25.84774
910.7794, 25.59483
911.2615, 23.56676
911.7436, 21.44326
912.2257, 20.93468
912.7078, 21.67135
913.1899, 23.31078
913.6721, 25.45617
914.1542, 26.67817
914.6363, 25.87285
915.1184, 24.11488
915.6005, 23.44059
916.0826, 23.54919
916.5648, 22.21756
917.0469, 19.28392
917.5290, 18.11947
918.0111, 20.42400
918.4932, 23.69372
918.9753, 24.73973
919.4575, 23.70913
919.9396, 23.13078
920.4217, 23.13179
920.9038, 23.31709
921.3859, 24.39742
921.8680, 24.51521
922.3502, 21.04356
922.8323, 16.21211
923.3144, 15.42303
923.7965, 20.12978
924.2786, 23.07417
924.7607, 21.71044
925.2429, 20.77748
925.7250, 23.00411
926.2071, 25.76875
926.6892, 26.31972
927.1713, 24.83693
927.6534, 23.17761
928.1356, 21.78756
928.6177, 20.96733
929.0998, 21.48056
929.5819, 22.21077
930.0640, 21.38382
930.5461, 19.90137
931.0283, 20.59133
931.5104, 23.88296
931.9925, 26.03831
932.4746, 23.11026
932.9567, 18.08745
933.4388, 16.31791
933.9210, 17.21125
934.4031, 18.84749
934.8852, 20.86951
935.3673, 22.74863
935.8494, 24.24830
936.3315, 25.00938
936.8137, 24.13549
937.2958, 21.70188
937.7779, 20.62764
938.2600, 21.07955
938.7421, 22.15808
939.2242, 23.88554
939.7064, 25.68558
940.1885, 27.35855
940.6706, 28.63043
941.1527, 28.36454
941.6348, 25.59253
942.1169, 23.52838
942.5991, 21.98046
943.0812, 21.40734
943.5633, 22.67628
944.0454, 24.48741
944.5275, 25.89840
945.0096, 26.73031
945.4918, 26.24566
945.9739, 22.72505
946.4560, 20.22611
946.9381, 20.63833
947.4202, 21.93717
947.9023, 23.16140
948.3845, 23.94735
948.8666, 23.82553
949.3487, 22.73040
949.8308, 21.37568
950.3129, 19.44958
950.7950, 18.19108
951.2772, 19.35069
951.7593, 21.68866
952.2414, 23.57615
952.7235, 24.62537
953.2056, 24.22513
953.6877, 22.05109
954.1699, 20.09011
954.6520, 21.52355
955.1341, 24.88043
955.6162, 26.12270
956.0983, 25.38292
956.5804, 23.38218
957.0626, 20.33012
957.5447, 17.87985
958.0268, 17.31538
958.5089, 18.00167
958.9910, 18.52431
959.4731, 18.88596
959.9553, 18.93885
960.4374, 18.56175
960.9195, 18.47264
961.4016, 19.05505
961.8837, 19.72542
962.3658, 19.89134
962.8480, 19.59273
963.3301, 19.00963
963.8122, 17.08648
964.2943, 17.21077
964.7764, 21.42576
965.2585, 25.19196
965.7407, 26.62497
966.2228, 26.41219
966.7049, 24.75386
967.1870, 21.69106
967.6691, 19.98430
968.1512, 20.97063
968.6334, 21.88069
969.1155, 21.90159
969.5976, 21.83507
970.0797, 22.57351
970.5618, 23.50590
971.0439, 23.41805
971.5261, 22.05437
972.0082, 20.48105
972.4903, 17.72015
972.9724, 16.55728
973.4545, 21.37060
973.9366, 26.98260
974.4188, 25.81035
974.9009, 19.73456
975.3830, 17.07997
975.8651, 21.40432
976.3472, 26.35810
976.8293, 26.00630
977.3115, 23.39034
977.7936, 21.90732
978.2757, 21.67547
978.7578, 23.45013
979.2399, 26.78147
979.7220, 28.65897
980.2042, 27.04835
980.6863, 24.23797
981.1684, 24.22741
981.6505, 21.78776
982.1326, 24.04049
982.6147, 19.35467
983.0969, 16.79016
983.5790, 17.81817
984.0611, 20.00455
984.5432, 21.45071
985.0253, 22.14547
985.5074, 21.68319
985.9896, 20.00341
986.4717, 20.02556
986.9538, 22.21695
987.4359, 23.76892
987.9180, 23.27640
988.4001, 22.97361
988.8823, 25.67796
989.3644, 30.61634
989.8465, 32.51764
990.3286, 30.36002
990.8107, 28.20787
991.2928, 25.48372
991.7750, 24.47185
992.2571, 27.18227
992.7392, 31.18598
993.2213, 33.45959
993.7034, 34.00559
994.1855, 33.79200
994.6677, 31.47122
995.1498, 30.43661
995.6319, 31.98526
996.1140, 33.65480
996.5961, 33.64256
997.0782, 33.32948
997.5604, 35.43593
998.0425, 40.19708
998.5246, 42.51064
999.0067, 38.63505
999.4888, 36.21297
999.9709, 38.81226
1000.453, 42.23013
1000.935, 43.68228
1001.417, 43.58598
1001.899, 42.52456
1002.382, 40.61000
1002.864, 40.54584
1003.346, 45.55382
1003.828, 50.18832
1004.310, 50.94051
1004.792, 50.13586
1005.274, 49.91958
1005.756, 50.35916
1006.238, 50.72052
1006.721, 50.76425
1007.203, 51.44325
1007.685, 54.13715
1008.167, 57.03281
1008.649, 58.52488
1009.131, 59.01092
1009.613, 58.70042
1010.095, 58.01970
1010.578, 58.05465
1011.060, 59.29380
1011.542, 60.77229
1012.024, 61.15528
1012.506, 61.45182
1012.988, 64.03884
1013.470, 67.61488
1013.952, 68.39299
1014.434, 66.39326
1014.917, 65.35595
1015.399, 67.36423
1015.881, 69.98241
1016.363, 68.94920
1016.845, 66.33635
1017.327, 69.29592
1017.809, 76.25957
1018.291, 78.94952
1018.773, 76.07387
1019.256, 74.11214
1019.738, 77.31038
1020.220, 82.36086
1020.702, 83.94383
1021.184, 82.40492
1021.666, 79.50520
1022.148, 75.37057
1022.630, 73.52590
1023.113, 74.86893
1023.595, 76.70081
1024.077, 77.07130
1024.559, 78.94669
1025.041, 78.38560
1025.523, 81.48885
1026.005, 83.29888
1026.487, 83.60222
1026.969, 84.74897
1027.452, 87.78584
1027.934, 89.49443
1028.416, 87.06367
1028.898, 82.31501
1029.380, 79.61237
1029.862, 79.11352
1030.344, 79.68027
1030.826, 82.04543
1031.309, 82.76828
1031.791, 80.41293
1032.273, 77.52193
1032.755, 76.12270
1033.237, 75.55695
1033.719, 73.71134
1034.201, 69.51871
1034.683, 69.29090
1035.166, 75.06877
1035.648, 80.53160
1036.130, 85.20418
1036.612, 87.36952
1037.094, 84.09913
1037.576, 77.90961
1038.058, 76.41898
1038.540, 81.51073
1039.022, 84.61147
1039.505, 83.74504
1039.987, 84.05437
1040.469, 87.97397
1040.951, 92.19199
1041.433, 93.68684
1041.915, 93.58315
1042.397, 95.23463
1042.879, 99.46125
1043.361, 102.7381
1043.844, 104.3330
1044.326, 105.9018
1044.808, 107.9187
1045.290, 109.9427
1045.772, 111.1397
1046.254, 112.1651
1046.736, 114.8884
1047.218, 120.0399
1047.700, 124.3617
1048.183, 127.3921
1048.665, 129.6990
1049.147, 130.7644
1049.629, 131.7980
1050.111, 133.9587
1050.593, 136.7483
1051.075, 138.5346
1051.557, 138.5569
1052.040, 140.9489
1052.522, 148.9198
1053.004, 156.1335
1053.486, 159.4763
1053.968, 162.2284
1054.450, 167.5742
1054.932, 174.1865
1055.414, 179.0565
1055.896, 181.6603
1056.379, 182.9183
1056.861, 180.4825
1057.343, 180.1224
1057.825, 184.5271
1058.307, 191.3714
1058.789, 199.8975
1059.271, 209.0659
1059.753, 216.6986
1060.236, 222.2651
1060.718, 230.2808
1061.200, 243.6970
1061.682, 257.8672
1062.164, 270.1561
1062.646, 283.0869
1063.128, 298.7679
1063.610, 316.5154
1064.093, 336.2011
1064.575, 357.5146
1065.057, 374.0509
1065.539, 384.9284
1066.021, 388.6072
1066.503, 378.3577
1066.985, 366.3760
1067.467, 359.9016
1067.949, 359.7879
1068.432, 366.4610
1068.914, 379.7424
1069.396, 397.0689
1069.878, 414.4991
1070.360, 439.9800
1070.842, 476.5008
1071.324, 523.1436
1071.806, 578.2042
1072.288, 643.6980
1072.771, 722.8844
1073.253, 816.3854
1073.735, 921.3594
1074.217, 1043.037
1074.699, 1163.446
1075.181, 1278.055
1075.663, 1384.323
1076.145, 1473.736
1076.627, 1557.652
1077.110, 1641.396
1077.592, 1733.524
1078.074, 1859.566
1078.556, 2025.881
1079.038, 2235.583
1079.520, 2475.396
1080.002, 2776.248
1080.484, 3129.247
1080.967, 3574.113
1081.449, 4115.948
1081.931, 4791.053
1082.413, 5679.575
1082.895, 6780.331
1083.377, 8221.475
1083.859, 10114.43
1084.341, 12301.58
1084.823, 15215.50
1085.306, 17973.83
1085.788, 20000.15
1086.270, 20968.62
1086.752, 20181.72
1087.234, 17291.52
1087.716, 14021.71
1088.198, 10564.39
1088.680, 7587.855
1089.163, 5500.245
1089.645, 4019.856
1090.127, 3008.252
1090.609, 2338.482
1091.091, 1852.317
1091.573, 1514.901
1092.055, 1252.354
1092.537, 1059.964
1093.020, 905.5057
1093.502, 784.4276
1093.984, 686.5322
1094.466, 608.6633
1094.948, 545.2261
1095.430, 488.4352
1095.912, 437.0591
1096.394, 393.1494
1096.876, 359.8510
1097.359, 330.0570
1097.841, 301.3190
1098.323, 275.3795
1098.805, 253.1625
1099.287, 234.5585
1099.769, 220.1808
1100.251, 209.4443
1100.733, 199.1919
1101.215, 188.8888
1101.698, 178.4904
1102.180, 166.9041
1102.662, 156.4961
1103.144, 148.7061
1103.626, 142.4261
1104.108, 137.1057
1104.590, 132.1927
1105.072, 125.9320
1105.554, 117.3738
1106.037, 109.8627
1106.519, 102.8165
1107.001, 98.42857
1107.483, 100.6682
1107.965, 102.8991
1108.447, 98.72518
1108.929, 90.80156
1109.411, 85.78655
1109.894, 84.81828
1110.376, 82.54440
1110.858, 76.70238
1111.340, 72.00233
1111.822, 69.82137
1112.304, 68.49489
1112.786, 67.23834
1113.268, 66.11459
1113.750, 65.55411
1114.233, 65.59551
1114.715, 64.30598
1115.197, 60.58857
1115.679, 57.31153
1116.161, 53.75439
1116.643, 51.85395
1117.125, 53.50844
1117.607, 56.17465
1118.090, 57.67807
1118.572, 57.83422
1119.054, 55.42948
1119.536, 48.45771
1120.018, 43.99533
1120.500, 43.21946
1120.982, 42.53737
1121.464, 40.15717
1121.947, 38.95980
1122.429, 42.33366
1122.911, 47.70763
1123.393, 48.03176
1123.875, 42.24185
1124.357, 39.66171
1124.839, 41.29589
1125.321, 42.92696
1125.803, 44.11018
1126.286, 44.06068
1126.768, 41.91167
1127.250, 39.16228
1127.732, 38.27237
1128.214, 38.99834
1128.696, 38.48291
1129.178, 36.53656
1129.660, 34.76687
1130.142, 33.27917
1130.625, 32.32927
1131.107, 32.07554
1131.589, 32.06168
1132.071, 31.71498
1132.553, 31.44764
1133.035, 32.98792
1133.517, 36.18555
1133.999, 37.53288
1134.481, 36.91994
1134.964, 35.28028
1135.446, 32.86646
1135.928, 30.60625
1136.410, 29.09089
1136.892, 28.48090
1137.374, 29.61236
1137.856, 29.14202
1138.338, 29.56298
1138.821, 30.51009
1139.303, 30.42131
1139.785, 31.87193
1140.267, 32.86932
1140.749, 32.49701
1141.231, 31.34902
1141.713, 29.74109
1142.195, 28.18079
1142.677, 27.16717
1143.160, 27.07438
1143.642, 30.05591
1144.124, 34.66693
1144.606, 35.62107
1145.088, 32.02963
1145.570, 28.48505
1146.052, 28.02426
1146.534, 25.68320
1147.017, 26.56658
1147.499, 24.57435
1147.981, 24.67098
1148.463, 26.25683
1148.945, 29.27397
1149.427, 32.54177
1149.909, 32.27319
1150.391, 26.83812
1150.874, 22.12576
1151.356, 22.15144
1151.838, 23.97885
1152.320, 27.18091
1152.802, 29.73598
1153.284, 28.99032
1153.766, 26.36459
1154.248, 24.48903
1154.730, 23.90790
1155.213, 24.51914
1155.695, 27.72162
1156.177, 29.59314
1156.659, 27.67505
1157.141, 25.41606
1157.623, 24.17917
1158.105, 24.05077
1158.587, 25.18463
1159.069, 27.41832
1159.552, 30.51500
1160.034, 35.39391
1160.516, 37.83375
1160.998, 35.50539
1161.480, 33.48548
1161.962, 34.01638
1162.444, 33.79517
1162.926, 29.44463
1163.408, 24.15437
1163.891, 23.42133
1164.373, 27.15697
1164.855, 29.11824
1165.337, 28.19012
1165.819, 28.89224
1166.301, 32.65263
1166.783, 34.76147
1167.265, 32.86427
1167.748, 30.33744
1168.230, 30.40706
1168.712, 32.14677
1169.194, 33.05532
1169.676, 33.13400
1170.158, 32.14260
1170.640, 29.99003
1171.122, 28.82604
1171.604, 29.10166
1172.087, 29.51375
1172.569, 29.33194
1173.051, 29.20143
1173.533, 30.20096
1174.015, 31.58364
1174.497, 31.02305
1174.979, 28.99375
1175.461, 27.09870
1175.944, 25.56304
1176.426, 24.43593
1176.908, 23.80739
1177.390, 24.53915
1177.872, 27.61021
1178.354, 30.16897
1178.836, 27.61784
1179.318, 23.48966
1179.801, 22.96469
1180.283, 24.61592
1180.765, 25.90516
1181.247, 26.56402
1181.729, 27.28424
1182.211, 28.27415
1182.693, 28.76379
1183.175, 27.84982
1183.657, 26.86915
1184.140, 26.61993
1184.622, 26.68304
1185.104, 26.40094
1185.586, 26.38264
1186.068, 28.31769
1186.550, 31.57743
1187.032, 32.18592
1187.514, 27.58318
1187.996, 25.51100
1188.479, 30.36101
1188.961, 34.11728
1189.443, 33.87447
1189.925, 31.95079
1190.407, 28.63568
1190.889, 25.49524
1191.371, 25.46953
1191.853, 28.58423
1192.335, 30.85184
1192.818, 32.03106
1193.300, 33.07051
1193.782, 34.22553
1194.264, 34.71025
1194.746, 34.29292
1195.228, 32.86486
1195.710, 30.02208
1196.192, 26.70274
1196.675, 25.28264
1197.157, 25.67470
1197.639, 25.69006
1198.121, 25.36427
1198.603, 25.77025
1199.085, 27.06919
1199.567, 29.45803
1200.049, 32.98568
1200.531, 34.52337
1201.014, 29.89174
1201.496, 32.65326
1201.978, 25.25434
1202.460, 30.59892
1202.942, 29.02096
1203.424, 23.59183
1203.906, 24.88937
1204.388, 32.95672
1204.871, 38.48148
1205.353, 37.15556
1205.835, 33.79838
1206.317, 30.40409
1206.799, 28.24926
1207.281, 29.44404
1207.763, 31.36277
1208.245, 31.59098
1208.728, 30.46338
1209.210, 28.81825
1209.692, 26.83222
1210.174, 24.45716
1210.656, 20.42352
1211.138, 18.95924
1211.620, 23.11809
1212.102, 27.01267
1212.584, 28.67685
1213.067, 29.18849
1213.549, 28.86607
1214.031, 28.27834
1214.513, 28.46508
1214.995, 29.42407
1215.477, 30.73184
1215.959, 33.12201
1216.441, 32.80977
1216.923, 28.78355
1217.406, 25.06262
1217.888, 22.82811
1218.370, 22.44898
1218.852, 24.50135
1219.334, 27.57589
1219.816, 29.06437
1220.298, 29.09573
1220.780, 27.74008
1221.262, 25.50005
1221.745, 25.33982
1222.227, 27.16436
1222.709, 28.19109
1223.191, 27.46515
1223.673, 26.15263
1224.155, 24.69427
1224.637, 24.42607
1225.119, 28.72244
1225.602, 33.32221
1226.084, 32.31861
1226.566, 28.57850
1227.048, 26.02754
1227.530, 25.29513
1228.012, 26.81337
1228.494, 30.73438
1228.976, 32.49346
1229.458, 28.39957
1229.941, 24.74047
1230.423, 22.52368
1230.905, 22.34505
1231.387, 26.13069
1231.869, 30.83803
1232.351, 33.42484
1232.833, 34.20552
1233.315, 34.16729
1233.798, 33.28077
1234.280, 31.54155
1234.762, 28.19840
1235.244, 26.82066
1235.726, 28.55185
1236.208, 29.60679
1236.690, 28.09942
1237.172, 26.18474
1237.655, 26.06772
1238.137, 26.11310
1238.619, 27.87050
1239.101, 28.44663
1239.583, 30.45837
1240.065, 33.19801
1240.547, 32.75750
1241.029, 29.30801
1241.511, 26.99870
1241.994, 27.49604
1242.476, 29.37779
1242.958, 32.68642
1243.440, 34.64565
1243.922, 30.97351
1244.404, 26.19935
1244.886, 24.27393
1245.368, 24.75612
1245.850, 27.97629
1246.333, 32.45481
1246.815, 34.08961
1247.297, 31.71415
1247.779, 29.47363
1248.261, 28.03308
1248.743, 27.17627
1249.225, 27.46894
1249.707, 27.54079
1250.189, 26.29125
1250.672, 25.26792
1251.154, 26.14744
1251.636, 28.24261
1252.118, 29.49316
1252.600, 29.83344
1253.082, 31.12649
1253.564, 31.03055
1254.046, 33.72083
1254.529, 31.19162
1255.011, 29.57740
1255.493, 30.31206
1255.975, 31.02671
1256.457, 29.64860
1256.939, 27.23296
1257.421, 24.38758
1257.903, 22.34527
1258.385, 24.27983
1258.868, 28.15455
1259.350, 30.57306
1259.832, 31.13836
1260.314, 30.04772
1260.796, 27.54924
1261.278, 25.36710
1261.760, 23.67010
1262.242, 23.63974
1262.725, 27.27366
1263.207, 30.78349
1263.689, 32.41291
1264.171, 32.90665
1264.653, 32.75988
1265.135, 32.08195
1265.617, 30.79360
1266.099, 28.91168
1266.582, 28.53943
1267.064, 27.71305
1267.546, 26.86749
1268.028, 27.81278
1268.510, 26.64471
1268.992, 28.25929
1269.474, 30.29760
1269.956, 31.31549
1270.438, 30.95161
1270.921, 28.01795
1271.403, 24.07418
1271.885, 22.44991
1272.367, 22.82821
1272.849, 25.67788
1273.331, 29.57902
1273.813, 30.54446
1274.295, 28.63995
1274.777, 28.42431
1275.260, 32.20613
1275.742, 33.99355
1276.224, 27.40873
1276.706, 22.31155
1277.188, 25.57467
1277.670, 29.71089
1278.152, 28.66945
1278.634, 31.08879
1279.116, 27.33016
1279.599, 31.23997
1280.081, 32.53841
1280.563, 30.52715
1281.045, 30.47175
1281.527, 33.15692
1282.009, 34.08786
1282.491, 32.47654
1282.973, 30.11811
1283.456, 27.65969
1283.938, 25.71175
1284.420, 24.72480
1284.902, 24.91954
1285.384, 26.59642
##END=



