##NAMES=Rhodonite
##RRUFFID=R100038
##IDEAL CHEMISTRY=CaMn^2+^_3_Mn^2+^Si_5_O_15_
##LOCALITY=Langban, Filipstad, Varmland, Sweden
##OWNER=RRUFF
##SOURCE=William W Pinch
##DESCRIPTION=Pale red, tabular to blocky crystals associated with black langbanite R100037
##STATUS=The identification of this mineral has been confirmed by single-crystal X-ray diffraction.
##URL=rruff.info/R100038
92.49744, 1656.643
92.97955, 1681.383
93.46167, 1715.148
93.94379, 1730.928
94.42590, 1738.034
94.90802, 1739.970
95.39014, 1735.904
95.87225, 1725.042
96.35437, 1712.756
96.83649, 1702.735
97.31860, 1693.822
97.80072, 1684.380
98.28284, 1671.219
98.76495, 1653.995
99.24707, 1639.432
99.72919, 1628.336
100.2113, 1619.773
100.6934, 1614.191
101.1755, 1610.549
101.6577, 1607.102
102.1398, 1602.021
102.6219, 1594.343
103.1040, 1589.849
103.5861, 1589.849
104.0682, 1590.681
104.5504, 1590.331
105.0325, 1588.451
105.5146, 1585.888
105.9967, 1583.516
106.4788, 1580.923
106.9609, 1579.300
107.4431, 1579.396
107.9252, 1580.223
108.4073, 1580.249
108.8894, 1578.674
109.3715, 1576.715
109.8536, 1576.716
110.3358, 1579.006
110.8179, 1581.195
111.3000, 1581.839
111.7821, 1581.085
112.2642, 1580.357
112.7463, 1579.957
113.2285, 1580.022
113.7106, 1580.987
114.1927, 1583.286
114.6748, 1585.466
115.1569, 1585.100
115.6390, 1580.832
116.1212, 1577.451
116.6033, 1576.895
117.0854, 1577.561
117.5675, 1577.920
118.0496, 1577.190
118.5317, 1575.602
119.0139, 1574.291
119.4960, 1573.116
119.9781, 1572.416
120.4602, 1572.078
120.9423, 1572.243
121.4244, 1573.343
121.9066, 1575.927
122.3887, 1580.266
122.8708, 1582.023
123.3529, 1579.357
123.8350, 1576.403
124.3171, 1575.016
124.7993, 1575.282
125.2814, 1576.255
125.7635, 1577.086
126.2456, 1577.757
126.7277, 1578.132
127.2098, 1577.993
127.6920, 1577.638
128.1741, 1577.084
128.6562, 1576.160
129.1383, 1575.842
129.6204, 1578.175
130.1025, 1582.849
130.5847, 1586.628
131.0668, 1587.700
131.5489, 1586.732
132.0310, 1585.982
132.5131, 1585.699
132.9952, 1586.094
133.4774, 1587.670
133.9595, 1590.407
134.4416, 1592.747
134.9237, 1593.047
135.4058, 1590.998
135.8879, 1589.166
136.3701, 1588.008
136.8522, 1587.274
137.3343, 1586.914
137.8164, 1586.911
138.2985, 1587.206
138.7806, 1587.869
139.2628, 1589.846
139.7449, 1590.335
140.2270, 1587.891
140.7091, 1584.655
141.1912, 1582.650
141.6733, 1582.789
142.1555, 1584.365
142.6376, 1584.973
143.1197, 1583.542
143.6018, 1582.228
144.0839, 1580.786
144.5660, 1579.638
145.0482, 1579.640
145.5303, 1581.488
146.0124, 1584.741
146.4945, 1586.122
146.9766, 1583.823
147.4587, 1581.848
147.9409, 1582.224
148.4230, 1584.566
148.9051, 1586.928
149.3872, 1587.902
149.8693, 1587.724
150.3514, 1588.179
150.8336, 1590.258
151.3157, 1592.397
151.7978, 1593.096
152.2799, 1592.200
152.7620, 1590.802
153.2441, 1588.840
153.7263, 1586.961
154.2084, 1586.520
154.6905, 1589.529
155.1726, 1594.075
155.6547, 1595.544
156.1368, 1592.165
156.6190, 1588.828
157.1011, 1587.955
157.5832, 1589.002
158.0653, 1591.035
158.5474, 1594.027
159.0295, 1597.811
159.5117, 1600.137
159.9938, 1599.406
160.4759, 1598.682
160.9580, 1599.079
161.4401, 1600.417
161.9222, 1602.040
162.4044, 1603.460
162.8865, 1604.752
163.3686, 1605.358
163.8507, 1604.725
164.3328, 1603.934
164.8149, 1603.574
165.2971, 1603.595
165.7792, 1603.461
166.2613, 1602.427
166.7434, 1599.766
167.2255, 1598.468
167.7076, 1599.637
168.1898, 1601.216
168.6719, 1601.577
169.1540, 1600.459
169.6361, 1599.002
170.1182, 1598.850
170.6003, 1600.698
171.0825, 1602.214
171.5646, 1603.273
172.0467, 1603.967
172.5288, 1604.391
173.0109, 1604.571
173.4930, 1604.489
173.9752, 1603.824
174.4573, 1602.350
174.9394, 1601.645
175.4215, 1603.025
175.9036, 1605.493
176.3857, 1606.617
176.8679, 1605.168
177.3500, 1602.966
177.8321, 1602.637
178.3142, 1604.325
178.7963, 1605.920
179.2784, 1605.697
179.7606, 1603.959
180.2427, 1603.301
180.7248, 1605.398
181.2069, 1607.990
181.6890, 1608.868
182.1711, 1607.816
182.6533, 1606.569
183.1354, 1606.924
183.6175, 1609.105
184.0996, 1611.139
184.5817, 1613.417
185.0638, 1614.866
185.5460, 1614.057
186.0281, 1610.789
186.5102, 1607.290
186.9923, 1607.129
187.4744, 1612.183
187.9565, 1615.559
188.4387, 1615.302
188.9208, 1613.956
189.4029, 1613.173
189.8850, 1613.483
190.3671, 1614.488
190.8492, 1615.461
191.3314, 1616.347
191.8135, 1617.277
192.2956, 1618.383
192.7777, 1619.467
193.2598, 1620.287
193.7419, 1620.755
194.2241, 1621.078
194.7062, 1621.755
195.1883, 1623.629
195.6704, 1624.866
196.1525, 1625.004
196.6346, 1624.619
197.1168, 1624.352
197.5989, 1624.477
198.0810, 1624.890
198.5631, 1625.285
199.0452, 1625.365
199.5273, 1625.809
200.0095, 1626.959
200.4916, 1628.507
200.9737, 1630.042
201.4558, 1631.454
201.9379, 1632.598
202.4200, 1633.001
202.9022, 1632.390
203.3843, 1631.716
203.8664, 1630.894
204.3485, 1630.205
204.8306, 1630.574
205.3127, 1632.746
205.7949, 1635.860
206.2770, 1638.007
206.7591, 1639.054
207.2412, 1639.585
207.7233, 1639.877
208.2054, 1639.922
208.6876, 1639.610
209.1697, 1638.559
209.6518, 1637.382
210.1339, 1636.995
210.6160, 1637.614
211.0981, 1638.498
211.5803, 1639.071
212.0624, 1639.334
212.5445, 1639.617
213.0266, 1640.278
213.5087, 1640.843
213.9908, 1640.753
214.4730, 1639.835
214.9551, 1638.797
215.4372, 1638.458
215.9193, 1638.924
216.4014, 1639.453
216.8836, 1639.727
217.3657, 1640.062
217.8478, 1640.688
218.3299, 1641.658
218.8120, 1642.853
219.2941, 1644.105
219.7763, 1645.391
220.2584, 1646.794
220.7405, 1648.926
221.2226, 1650.803
221.7047, 1651.790
222.1868, 1651.700
222.6690, 1650.661
223.1511, 1648.478
223.6332, 1643.692
224.1153, 1641.212
224.5974, 1643.080
225.0795, 1646.032
225.5617, 1647.765
226.0438, 1647.631
226.5259, 1646.515
227.0080, 1645.910
227.4901, 1645.999
227.9722, 1646.367
228.4544, 1647.609
228.9365, 1648.734
229.4186, 1648.628
229.9007, 1647.105
230.3828, 1645.233
230.8649, 1644.922
231.3471, 1647.457
231.8292, 1649.606
232.3113, 1651.612
232.7934, 1653.129
233.2755, 1653.429
233.7576, 1652.440
234.2398, 1651.344
234.7219, 1652.195
235.2040, 1657.037
235.6861, 1660.166
236.1682, 1660.525
236.6503, 1659.787
237.1325, 1659.113
237.6146, 1658.871
238.0967, 1659.349
238.5788, 1661.179
239.0609, 1665.581
239.5430, 1668.375
240.0252, 1668.450
240.5073, 1667.325
240.9894, 1666.187
241.4715, 1665.327
241.9536, 1665.076
242.4357, 1666.177
242.9179, 1669.183
243.4000, 1671.031
243.8821, 1670.452
244.3642, 1669.034
244.8463, 1668.560
245.3284, 1669.412
245.8106, 1670.687
246.2927, 1671.314
246.7748, 1671.264
247.2569, 1671.395
247.7390, 1672.396
248.2211, 1673.402
248.7033, 1672.993
249.1854, 1670.763
249.6675, 1668.637
250.1496, 1669.060
250.6317, 1671.600
251.1138, 1673.338
251.5960, 1673.049
252.0781, 1671.904
252.5602, 1671.474
253.0423, 1672.004
253.5244, 1672.648
254.0065, 1672.366
254.4887, 1671.569
254.9708, 1671.477
255.4529, 1673.060
255.9350, 1675.259
256.4171, 1676.654
256.8992, 1677.165
257.3813, 1677.066
257.8635, 1675.620
258.3456, 1673.745
258.8277, 1673.130
259.3098, 1674.674
259.7919, 1677.478
260.2740, 1680.707
260.7562, 1684.693
261.2383, 1687.615
261.7204, 1687.286
262.2025, 1685.521
262.6846, 1684.548
263.1667, 1685.413
263.6489, 1686.828
264.1310, 1686.807
264.6131, 1684.993
265.0952, 1683.294
265.5773, 1682.559
266.0594, 1682.398
266.5416, 1682.627
267.0237, 1683.349
267.5058, 1684.073
267.9879, 1683.941
268.4700, 1682.677
268.9521, 1681.905
269.4343, 1683.192
269.9164, 1684.688
270.3985, 1684.707
270.8806, 1682.739
271.3627, 1680.358
271.8448, 1679.607
272.3270, 1680.789
272.8091, 1681.971
273.2912, 1682.454
273.7733, 1682.936
274.2554, 1683.986
274.7375, 1685.675
275.2197, 1687.368
275.7018, 1688.359
276.1839, 1688.557
276.6660, 1688.557
277.1481, 1688.155
277.6302, 1687.762
278.1124, 1687.699
278.5945, 1687.934
279.0766, 1688.088
279.5587, 1687.559
280.0408, 1686.186
280.5229, 1685.652
281.0051, 1686.969
281.4872, 1688.404
281.9693, 1689.468
282.4514, 1690.058
282.9335, 1690.098
283.4156, 1689.234
283.8978, 1687.426
284.3799, 1686.561
284.8620, 1687.588
285.3441, 1688.659
285.8262, 1689.003
286.3083, 1688.877
286.7905, 1688.900
287.2726, 1689.481
287.7547, 1690.594
288.2368, 1692.054
288.7189, 1694.446
289.2010, 1696.469
289.6832, 1697.853
290.1653, 1698.639
290.6474, 1698.905
291.1295, 1698.670
291.6116, 1697.986
292.0938, 1697.002
292.5759, 1695.358
293.0580, 1693.958
293.5401, 1692.985
294.0222, 1692.329
294.5043, 1691.885
294.9865, 1691.605
295.4686, 1691.502
295.9507, 1691.536
296.4328, 1691.350
296.9149, 1692.041
297.3970, 1694.706
297.8792, 1697.626
298.3613, 1699.189
298.8434, 1698.945
299.3255, 1697.804
299.8076, 1697.211
300.2897, 1697.241
300.7719, 1697.689
301.2540, 1698.713
301.7361, 1699.942
302.2182, 1701.187
302.7003, 1702.395
303.1824, 1703.602
303.6646, 1704.922
304.1467, 1706.506
304.6288, 1707.613
305.1109, 1708.096
305.5930, 1708.271
306.0751, 1708.089
306.5573, 1707.678
307.0394, 1707.330
307.5215, 1707.289
308.0036, 1707.550
308.4857, 1708.147
308.9678, 1709.151
309.4500, 1710.443
309.9321, 1712.511
310.4142, 1714.844
310.8963, 1716.493
311.3784, 1716.813
311.8605, 1715.905
312.3427, 1714.530
312.8248, 1710.750
313.3069, 1708.879
313.7890, 1711.239
314.2711, 1715.465
314.7532, 1718.490
315.2354, 1718.760
315.7175, 1717.167
316.1996, 1716.229
316.6817, 1716.267
317.1638, 1716.532
317.6459, 1717.321
318.1281, 1718.075
318.6102, 1717.957
319.0923, 1716.799
319.5744, 1715.654
320.0565, 1716.335
320.5386, 1719.528
321.0208, 1723.047
321.5029, 1727.760
321.9850, 1731.997
322.4671, 1734.981
322.9492, 1736.484
323.4313, 1736.421
323.9135, 1734.276
324.3956, 1729.344
324.8777, 1725.912
325.3598, 1724.188
325.8419, 1723.748
326.3240, 1725.029
326.8062, 1727.560
327.2883, 1730.370
327.7704, 1732.928
328.2525, 1735.165
328.7346, 1735.851
329.2167, 1732.738
329.6989, 1730.617
330.1810, 1731.312
330.6631, 1733.585
331.1452, 1735.583
331.6273, 1736.314
332.1094, 1736.143
332.5916, 1736.119
333.0737, 1735.927
333.5558, 1736.519
334.0379, 1738.769
334.5200, 1741.385
335.0021, 1743.073
335.4843, 1743.434
335.9664, 1743.154
336.4485, 1743.449
336.9306, 1744.797
337.4127, 1745.249
337.8948, 1743.479
338.3770, 1741.649
338.8591, 1741.108
339.3412, 1741.907
339.8233, 1743.144
340.3055, 1743.961
340.7876, 1744.314
341.2697, 1744.622
341.7518, 1744.902
342.2339, 1745.106
342.7160, 1745.045
343.1982, 1744.886
343.6803, 1745.060
344.1624, 1746.084
344.6445, 1747.643
345.1266, 1748.024
345.6087, 1746.325
346.0909, 1744.907
346.5730, 1744.471
347.0551, 1744.744
347.5372, 1745.516
348.0193, 1746.817
348.5014, 1748.208
348.9836, 1748.796
349.4657, 1748.285
349.9478, 1747.960
350.4299, 1748.010
350.9120, 1748.467
351.3941, 1749.428
351.8763, 1750.904
352.3584, 1752.735
352.8405, 1755.066
353.3226, 1757.945
353.8047, 1759.930
354.2868, 1760.973
354.7690, 1760.789
355.2511, 1758.485
355.7332, 1754.621
356.2153, 1751.469
356.6974, 1750.765
357.1795, 1752.000
357.6617, 1753.308
358.1438, 1754.883
358.6259, 1756.062
359.1080, 1756.374
359.5901, 1756.092
360.0722, 1755.539
360.5544, 1754.533
361.0365, 1753.649
361.5186, 1753.774
362.0007, 1754.999
362.4828, 1756.545
362.9649, 1758.781
363.4471, 1760.756
363.9292, 1761.292
364.4113, 1760.060
364.8934, 1758.307
365.3755, 1756.764
365.8576, 1755.446
366.3398, 1754.440
366.8219, 1753.703
367.3040, 1753.399
367.7861, 1753.581
368.2682, 1754.231
368.7503, 1755.562
369.2325, 1759.193
369.7146, 1763.123
370.1967, 1763.135
370.6788, 1758.249
371.1609, 1753.382
371.6430, 1753.125
372.1252, 1756.010
372.6073, 1757.100
373.0894, 1754.047
373.5715, 1750.350
374.0536, 1748.945
374.5357, 1749.496
375.0179, 1750.017
375.5000, 1749.680
375.9821, 1748.588
376.4642, 1746.820
376.9463, 1743.614
377.4284, 1741.540
377.9106, 1742.528
378.3927, 1745.066
378.8748, 1746.324
379.3569, 1745.432
379.8390, 1744.105
380.3211, 1744.628
380.8033, 1747.383
381.2854, 1749.901
381.7675, 1752.350
382.2496, 1754.252
382.7317, 1755.085
383.2138, 1754.898
383.6960, 1754.225
384.1781, 1753.339
384.6602, 1752.288
385.1423, 1751.778
385.6244, 1752.137
386.1065, 1752.531
386.5887, 1752.400
387.0708, 1752.158
387.5529, 1752.735
388.0350, 1754.587
388.5171, 1756.890
388.9992, 1757.803
389.4814, 1755.534
389.9635, 1754.631
390.4456, 1756.169
390.9277, 1758.348
391.4098, 1760.012
391.8919, 1760.850
392.3741, 1760.803
392.8562, 1759.611
393.3383, 1756.958
393.8204, 1755.659
394.3025, 1757.227
394.7846, 1758.494
395.2668, 1758.012
395.7489, 1756.478
396.2310, 1755.282
396.7131, 1755.235
397.1952, 1756.086
397.6773, 1757.023
398.1595, 1758.383
398.6416, 1759.225
399.1237, 1758.642
399.6058, 1758.026
400.0879, 1758.818
400.5700, 1761.245
401.0522, 1764.029
401.5343, 1765.629
402.0164, 1765.863
402.4985, 1765.906
402.9806, 1765.415
403.4627, 1765.090
403.9449, 1765.290
404.4270, 1765.898
404.9091, 1766.525
405.3912, 1766.692
405.8733, 1766.820
406.3554, 1768.551
406.8376, 1772.872
407.3197, 1776.342
407.8018, 1777.036
408.2839, 1776.459
408.7660, 1776.167
409.2481, 1776.660
409.7303, 1776.754
410.2124, 1774.260
410.6945, 1769.497
411.1766, 1767.651
411.6587, 1771.540
412.1408, 1776.505
412.6230, 1777.990
413.1051, 1776.429
413.5872, 1774.861
414.0693, 1774.222
414.5514, 1774.486
415.0335, 1776.111
415.5157, 1779.300
415.9978, 1781.823
416.4799, 1781.742
416.9620, 1779.935
417.4441, 1779.272
417.9262, 1780.418
418.4084, 1781.963
418.8905, 1783.075
419.3726, 1783.964
419.8547, 1785.349
420.3368, 1787.644
420.8189, 1789.984
421.3011, 1790.885
421.7832, 1790.092
422.2653, 1789.092
422.7474, 1787.775
423.2295, 1786.503
423.7116, 1785.434
424.1938, 1784.658
424.6759, 1784.512
425.1580, 1785.384
425.6401, 1787.185
426.1222, 1788.300
426.6043, 1788.665
427.0865, 1788.520
427.5686, 1787.169
428.0507, 1785.562
428.5328, 1785.244
429.0149, 1786.771
429.4970, 1788.969
429.9792, 1789.696
430.4613, 1787.817
430.9434, 1786.932
431.4255, 1787.367
431.9076, 1788.313
432.3897, 1789.520
432.8719, 1790.853
433.3540, 1792.164
433.8361, 1793.380
434.3182, 1794.467
434.8003, 1795.152
435.2824, 1795.388
435.7646, 1795.265
436.2467, 1794.039
436.7288, 1792.880
437.2109, 1793.460
437.6930, 1796.327
438.1751, 1799.377
438.6573, 1799.569
439.1394, 1796.634
439.6215, 1794.596
440.1036, 1794.594
440.5857, 1794.944
441.0678, 1794.087
441.5500, 1792.495
442.0321, 1791.983
442.5142, 1794.205
442.9963, 1797.789
443.4784, 1800.559
443.9605, 1802.588
444.4427, 1803.147
444.9248, 1800.842
445.4069, 1797.308
445.8890, 1795.314
446.3711, 1795.077
446.8532, 1796.075
447.3354, 1799.138
447.8175, 1803.107
448.2996, 1805.213
448.7817, 1804.674
449.2638, 1803.302
449.7459, 1803.000
450.2281, 1803.850
450.7102, 1804.464
451.1923, 1804.529
451.6744, 1804.575
452.1565, 1805.027
452.6386, 1805.750
453.1208, 1806.243
453.6029, 1806.203
454.0850, 1805.910
454.5671, 1806.147
455.0492, 1807.356
455.5313, 1808.530
456.0135, 1810.010
456.4956, 1811.222
456.9777, 1811.473
457.4598, 1810.839
457.9419, 1810.220
458.4240, 1810.602
458.9062, 1812.017
459.3883, 1812.356
459.8704, 1809.922
460.3525, 1808.328
460.8346, 1808.513
461.3167, 1809.917
461.7989, 1812.241
462.2810, 1815.410
462.7631, 1818.113
463.2452, 1817.884
463.7273, 1814.084
464.2094, 1811.089
464.6916, 1809.526
465.1737, 1808.869
465.6558, 1809.008
466.1379, 1809.794
466.6200, 1810.799
467.1021, 1811.811
467.5843, 1812.874
468.0664, 1814.247
468.5485, 1816.053
469.0306, 1817.313
469.5127, 1817.508
469.9948, 1816.914
470.4770, 1815.816
470.9591, 1813.908
471.4412, 1812.744
471.9233, 1813.650
472.4054, 1815.707
472.8875, 1817.352
473.3697, 1818.331
473.8518, 1818.667
474.3339, 1818.102
474.8160, 1816.682
475.2981, 1816.299
475.7802, 1817.780
476.2624, 1819.384
476.7445, 1820.208
477.2266, 1820.611
477.7087, 1821.466
478.1908, 1823.132
478.6729, 1824.910
479.1551, 1825.558
479.6372, 1824.821
480.1193, 1823.390
480.6014, 1819.158
481.0835, 1816.178
481.5656, 1817.883
482.0478, 1822.898
482.5299, 1827.211
483.0120, 1828.107
483.4941, 1826.465
483.9762, 1825.550
484.4583, 1825.758
484.9405, 1825.922
485.4226, 1825.645
485.9047, 1825.374
486.3868, 1825.409
486.8689, 1825.810
487.3510, 1826.542
487.8332, 1827.665
488.3153, 1829.115
488.7974, 1830.759
489.2795, 1832.900
489.7616, 1834.453
490.2437, 1833.647
490.7259, 1832.065
491.2080, 1832.344
491.6901, 1835.688
492.1722, 1839.472
492.6543, 1842.245
493.1364, 1843.963
493.6186, 1844.234
494.1007, 1842.734
494.5828, 1840.709
495.0649, 1839.413
495.5470, 1838.891
496.0291, 1839.190
496.5113, 1840.778
496.9934, 1842.767
497.4755, 1845.297
497.9576, 1847.809
498.4397, 1848.899
498.9218, 1847.830
499.4040, 1845.568
499.8861, 1844.247
500.3682, 1844.189
500.8503, 1844.579
501.3324, 1846.112
501.8145, 1847.445
502.2967, 1847.369
502.7788, 1846.279
503.2609, 1845.518
503.7430, 1845.918
504.2251, 1847.472
504.7072, 1850.612
505.1894, 1857.076
505.6715, 1861.113
506.1536, 1859.537
506.6357, 1856.164
507.1178, 1853.465
507.5999, 1851.857
508.0821, 1851.304
508.5642, 1852.772
509.0463, 1855.265
509.5284, 1855.312
510.0105, 1852.063
510.4926, 1849.345
510.9748, 1850.033
511.4569, 1852.829
511.9390, 1854.610
512.4211, 1854.986
512.9032, 1854.728
513.3853, 1853.227
513.8674, 1851.593
514.3495, 1852.576
514.8317, 1856.774
515.3138, 1860.322
515.7959, 1858.750
516.2780, 1851.474
516.7601, 1848.009
517.2422, 1852.026
517.7244, 1855.074
518.2065, 1853.550
518.6886, 1849.542
519.1707, 1846.015
519.6528, 1844.077
520.1349, 1843.167
520.6171, 1842.382
521.0992, 1841.481
521.5813, 1841.759
522.0634, 1845.217
522.5455, 1847.893
523.0276, 1847.902
523.5098, 1846.160
523.9919, 1844.303
524.4740, 1842.842
524.9561, 1842.154
525.4382, 1843.273
525.9203, 1846.235
526.4025, 1848.306
526.8846, 1848.664
527.3667, 1848.137
527.8488, 1847.071
528.3309, 1845.638
528.8130, 1845.140
529.2952, 1846.923
529.7773, 1849.054
530.2594, 1849.811
530.7415, 1849.322
531.2236, 1848.187
531.7057, 1846.462
532.1879, 1844.840
532.6700, 1844.718
533.1521, 1846.897
533.6342, 1848.853
534.1163, 1850.879
534.5984, 1852.381
535.0806, 1852.396
535.5627, 1851.500
536.0448, 1851.453
536.5269, 1853.455
537.0090, 1856.549
537.4911, 1857.661
537.9733, 1855.580
538.4554, 1854.178
538.9375, 1854.622
539.4196, 1855.252
539.9017, 1854.760
540.3839, 1853.397
540.8660, 1852.595
541.3481, 1853.453
541.8302, 1855.397
542.3123, 1857.583
542.7944, 1860.209
543.2766, 1861.210
543.7587, 1858.446
544.2408, 1854.750
544.7229, 1854.525
545.2050, 1858.205
545.6871, 1861.311
546.1693, 1862.438
546.6514, 1862.150
547.1335, 1860.152
547.6156, 1856.932
548.0977, 1855.145
548.5798, 1856.638
549.0620, 1860.352
549.5441, 1862.711
550.0262, 1862.285
550.5083, 1862.312
550.9904, 1863.319
551.4725, 1864.367
551.9547, 1864.327
552.4368, 1863.533
552.9189, 1863.632
553.4010, 1866.189
553.8831, 1870.203
554.3652, 1871.263
554.8474, 1867.817
555.3295, 1865.354
555.8116, 1866.252
556.2937, 1867.992
556.7758, 1868.888
557.2579, 1868.834
557.7401, 1868.605
558.2222, 1868.699
558.7043, 1868.892
559.1864, 1868.697
559.6685, 1868.096
560.1506, 1867.634
560.6328, 1867.569
561.1149, 1867.793
561.5970, 1868.133
562.0791, 1868.661
562.5612, 1869.003
563.0433, 1868.737
563.5255, 1868.501
564.0076, 1869.369
564.4897, 1870.910
564.9718, 1871.222
565.4539, 1868.942
565.9360, 1865.042
566.4182, 1862.742
566.9003, 1862.113
567.3824, 1863.081
567.8645, 1867.465
568.3466, 1871.736
568.8287, 1873.638
569.3109, 1873.368
569.7930, 1872.292
570.2751, 1870.942
570.7572, 1869.656
571.2393, 1869.453
571.7214, 1870.488
572.2036, 1870.660
572.6857, 1868.621
573.1678, 1866.184
573.6499, 1865.565
574.1320, 1866.700
574.6141, 1867.961
575.0963, 1869.104
575.5784, 1870.026
576.0605, 1870.698
576.5426, 1871.078
577.0247, 1870.960
577.5068, 1870.207
577.9890, 1869.197
578.4711, 1868.630
578.9532, 1868.565
579.4353, 1868.851
579.9174, 1870.100
580.3995, 1871.061
580.8817, 1870.797
581.3638, 1869.856
581.8459, 1869.179
582.3280, 1869.161
582.8101, 1869.996
583.2922, 1872.639
583.7744, 1877.333
584.2565, 1880.000
584.7386, 1879.132
585.2207, 1877.512
585.7029, 1876.918
586.1850, 1877.116
586.6671, 1877.606
587.1492, 1878.611
587.6313, 1879.393
588.1135, 1879.196
588.5956, 1878.381
589.0777, 1877.643
589.5598, 1877.140
590.0419, 1877.287
590.5240, 1878.797
591.0062, 1881.797
591.4883, 1883.122
591.9704, 1881.461
592.4525, 1879.948
592.9346, 1879.190
593.4167, 1879.084
593.8989, 1879.975
594.3810, 1881.682
594.8631, 1882.708
595.3452, 1881.038
595.8273, 1877.008
596.3094, 1874.318
596.7916, 1872.958
597.2737, 1872.961
597.7558, 1876.107
598.2379, 1879.763
598.7200, 1880.685
599.2021, 1878.204
599.6843, 1876.182
600.1664, 1877.352
600.6485, 1879.757
601.1306, 1880.234
601.6127, 1878.802
602.0948, 1878.220
602.5770, 1880.343
603.0591, 1883.902
603.5412, 1885.387
604.0233, 1883.076
604.5054, 1881.400
604.9875, 1879.986
605.4697, 1879.511
605.9518, 1881.274
606.4339, 1884.341
606.9160, 1886.281
607.3981, 1885.600
607.8802, 1883.746
608.3624, 1883.718
608.8445, 1885.800
609.3266, 1887.522
609.8087, 1888.352
610.2908, 1888.944
610.7729, 1889.965
611.2551, 1891.174
611.7372, 1891.789
612.2193, 1891.033
612.7014, 1890.350
613.1835, 1891.320
613.6656, 1893.043
614.1478, 1893.114
614.6299, 1890.953
615.1120, 1888.995
615.5941, 1889.977
616.0762, 1893.911
616.5583, 1895.765
617.0405, 1892.995
617.5226, 1891.317
618.0047, 1893.260
618.4868, 1895.732
618.9689, 1895.046
619.4510, 1891.103
619.9332, 1887.485
620.4153, 1887.509
620.8974, 1890.203
621.3795, 1892.153
621.8616, 1893.320
622.3438, 1894.030
622.8259, 1894.270
623.3080, 1894.244
623.7901, 1894.064
624.2722, 1893.697
624.7543, 1893.943
625.2365, 1895.794
625.7186, 1897.697
626.2007, 1898.226
626.6828, 1897.709
627.1649, 1897.085
627.6470, 1896.730
628.1292, 1896.760
628.6113, 1897.436
629.0934, 1898.952
629.5755, 1900.223
630.0576, 1900.888
630.5397, 1901.647
631.0219, 1902.828
631.5040, 1904.160
631.9861, 1905.225
632.4682, 1905.892
632.9503, 1906.531
633.4324, 1907.669
633.9146, 1909.058
634.3967, 1909.885
634.8788, 1910.074
635.3609, 1909.785
635.8430, 1908.744
636.3251, 1907.511
636.8073, 1907.871
637.2894, 1910.641
637.7715, 1912.807
638.2536, 1913.411
638.7357, 1913.664
639.2178, 1914.571
639.7000, 1915.957
640.1821, 1917.077
640.6642, 1917.523
641.1463, 1917.508
641.6284, 1917.187
642.1105, 1916.217
642.5927, 1916.892
643.0748, 1921.113
643.5569, 1924.804
644.0390, 1925.191
644.5211, 1923.582
645.0032, 1922.659
645.4854, 1923.337
645.9675, 1924.134
646.4496, 1923.284
646.9317, 1922.120
647.4138, 1923.610
647.8959, 1928.021
648.3781, 1932.518
648.8602, 1934.968
649.3423, 1935.801
649.8244, 1936.908
650.3065, 1938.478
650.7886, 1940.074
651.2708, 1940.522
651.7529, 1941.984
652.2350, 1947.339
652.7171, 1955.004
653.1992, 1960.068
653.6813, 1959.096
654.1635, 1956.465
654.6456, 1959.800
655.1277, 1968.487
655.6098, 1974.645
656.0919, 1976.204
656.5740, 1976.607
657.0562, 1978.687
657.5383, 1982.203
658.0204, 1985.149
658.5025, 1986.354
658.9846, 1988.432
659.4667, 1993.254
659.9489, 1998.618
660.4310, 2002.164
660.9131, 2003.725
661.3952, 2004.418
661.8773, 2004.870
662.3594, 2005.494
662.8416, 2007.957
663.3237, 2013.048
663.8058, 2017.099
664.2879, 2018.778
664.7700, 2019.955
665.2521, 2022.201
665.7343, 2025.117
666.2164, 2027.275
666.6985, 2027.904
667.1806, 2028.182
667.6627, 2029.388
668.1448, 2030.723
668.6270, 2030.749
669.1091, 2029.164
669.5912, 2026.153
670.0733, 2021.741
670.5554, 2016.110
671.0375, 2010.428
671.5197, 2004.659
672.0018, 1998.927
672.4839, 1993.413
672.9660, 1987.825
673.4481, 1981.260
673.9302, 1974.396
674.4124, 1969.339
674.8945, 1967.723
675.3766, 1967.558
675.8587, 1966.673
676.3408, 1965.115
676.8229, 1962.937
677.3051, 1960.031
677.7872, 1957.227
678.2693, 1955.192
678.7514, 1953.916
679.2335, 1953.295
679.7156, 1954.574
680.1978, 1954.782
680.6799, 1953.049
681.1620, 1950.432
681.6441, 1947.128
682.1262, 1943.701
682.6083, 1941.635
683.0905, 1942.083
683.5726, 1943.831
684.0547, 1945.064
684.5368, 1945.771
685.0189, 1944.208
685.5010, 1939.036
685.9832, 1933.811
686.4653, 1931.482
686.9474, 1931.709
687.4295, 1932.435
687.9116, 1934.303
688.3937, 1935.716
688.8759, 1936.623
689.3580, 1936.601
689.8401, 1933.988
690.3222, 1929.722
690.8043, 1927.784
691.2864, 1931.094
691.7686, 1937.159
692.2507, 1939.907
692.7328, 1938.901
693.2149, 1937.290
693.6970, 1934.789
694.1791, 1932.771
694.6613, 1932.053
695.1434, 1932.503
695.6255, 1934.152
696.1076, 1938.083
696.5897, 1940.975
697.0718, 1940.504
697.5540, 1938.635
698.0361, 1937.846
698.5182, 1938.135
699.0003, 1937.801
699.4824, 1935.696
699.9645, 1932.923
700.4467, 1932.523
700.9288, 1935.540
701.4109, 1937.036
701.8930, 1936.052
702.3751, 1934.317
702.8572, 1931.643
703.3394, 1929.165
703.8215, 1929.036
704.3036, 1932.160
704.7857, 1935.737
705.2678, 1938.797
705.7499, 1940.992
706.2321, 1941.385
706.7142, 1940.259
707.1963, 1939.092
707.6784, 1938.586
708.1605, 1938.869
708.6426, 1940.365
709.1248, 1943.680
709.6069, 1946.063
710.0890, 1947.901
710.5711, 1948.259
711.0532, 1945.089
711.5353, 1941.089
712.0175, 1940.246
712.4996, 1943.472
712.9817, 1946.376
713.4638, 1945.422
713.9459, 1943.021
714.4280, 1942.652
714.9102, 1944.093
715.3923, 1945.611
715.8744, 1946.537
716.3565, 1946.624
716.8386, 1945.219
717.3207, 1941.835
717.8029, 1940.515
718.2850, 1942.879
718.7671, 1945.382
719.2492, 1947.693
719.7313, 1949.475
720.2134, 1950.209
720.6956, 1949.944
721.1777, 1949.655
721.6598, 1950.165
722.1419, 1950.793
722.6240, 1950.739
723.1061, 1950.039
723.5883, 1948.519
724.0704, 1946.044
724.5525, 1944.022
725.0346, 1944.021
725.5167, 1945.988
725.9988, 1947.840
726.4810, 1950.348
726.9631, 1951.574
727.4452, 1950.056
727.9273, 1948.242
728.4094, 1948.067
728.8915, 1949.330
729.3737, 1950.671
729.8558, 1951.572
730.3379, 1952.119
730.8200, 1952.113
731.3021, 1951.858
731.7842, 1952.453
732.2664, 1954.068
732.7485, 1955.328
733.2306, 1955.173
733.7127, 1953.873
734.1948, 1952.413
734.6769, 1950.137
735.1591, 1948.938
735.6412, 1949.813
736.1233, 1950.740
736.6054, 1950.644
737.0875, 1949.875
737.5696, 1949.090
738.0518, 1948.425
738.5339, 1948.178
739.0160, 1949.059
739.4981, 1950.326
739.9802, 1950.432
740.4623, 1949.403
740.9445, 1948.426
741.4266, 1948.058
741.9087, 1948.223
742.3908, 1948.921
742.8729, 1950.512
743.3550, 1951.042
743.8372, 1948.972
744.3193, 1947.679
744.8014, 1949.389
745.2835, 1951.557
745.7656, 1950.713
746.2477, 1946.624
746.7299, 1943.622
747.2120, 1944.988
747.6941, 1947.998
748.1762, 1949.922
748.6583, 1950.837
749.1404, 1950.962
749.6226, 1950.382
750.1047, 1949.479
750.5868, 1948.515
751.0689, 1947.588
751.5510, 1947.798
752.0331, 1949.962
752.5153, 1951.687
752.9974, 1952.737
753.4795, 1953.099
753.9616, 1952.211
754.4437, 1950.572
754.9258, 1949.715
755.4080, 1950.350
755.8901, 1951.352
756.3722, 1952.149
756.8543, 1952.716
757.3364, 1953.131
757.8185, 1953.318
758.3007, 1952.848
758.7828, 1951.416
759.2649, 1949.448
759.7470, 1947.774
760.2291, 1946.327
760.7112, 1945.441
761.1934, 1944.847
761.6755, 1945.272
762.1576, 1948.694
762.6397, 1952.561
763.1218, 1953.210
763.6039, 1949.982
764.0861, 1947.077
764.5682, 1945.953
765.0503, 1945.692
765.5324, 1946.127
766.0145, 1946.757
766.4966, 1946.308
766.9788, 1944.610
767.4609, 1943.544
767.9430, 1945.425
768.4251, 1949.396
768.9072, 1950.821
769.3893, 1949.101
769.8715, 1947.892
770.3536, 1948.140
770.8357, 1949.078
771.3178, 1950.117
771.7999, 1951.255
772.2820, 1952.530
772.7642, 1954.955
773.2463, 1956.136
773.7284, 1954.763
774.2105, 1952.392
774.6926, 1949.777
775.1747, 1947.444
775.6569, 1946.323
776.1390, 1946.923
776.6211, 1948.475
777.1032, 1950.447
777.5853, 1952.576
778.0674, 1953.001
778.5496, 1951.365
779.0317, 1950.144
779.5138, 1950.783
779.9959, 1952.167
780.4780, 1952.228
780.9601, 1950.402
781.4423, 1949.564
781.9244, 1950.382
782.4065, 1951.330
782.8886, 1952.140
783.3707, 1952.693
783.8528, 1952.569
784.3350, 1951.935
784.8171, 1951.944
785.2992, 1953.512
785.7813, 1955.845
786.2634, 1958.331
786.7455, 1960.714
787.2277, 1961.943
787.7098, 1961.826
788.1919, 1961.547
788.6740, 1962.011
789.1561, 1963.042
789.6382, 1964.091
790.1204, 1965.551
790.6025, 1966.034
791.0846, 1964.127
791.5667, 1962.713
792.0488, 1963.348
792.5309, 1965.158
793.0131, 1967.089
793.4952, 1969.168
793.9773, 1969.834
794.4594, 1966.722
794.9415, 1963.261
795.4236, 1962.750
795.9058, 1964.507
796.3879, 1967.231
796.8700, 1970.266
797.3521, 1971.722
797.8342, 1968.998
798.3163, 1963.267
798.7985, 1960.673
799.2806, 1961.492
799.7627, 1964.117
800.2448, 1969.934
800.7269, 1974.524
801.2090, 1973.122
801.6912, 1966.911
802.1733, 1962.800
802.6554, 1961.727
803.1375, 1961.263
803.6196, 1960.497
804.1017, 1960.616
804.5839, 1963.684
805.0660, 1968.082
805.5481, 1970.115
806.0302, 1968.421
806.5123, 1966.176
806.9944, 1966.944
807.4766, 1969.458
807.9587, 1970.510
808.4408, 1970.154
808.9229, 1970.274
809.4050, 1971.701
809.8871, 1972.946
810.3693, 1971.941
810.8514, 1968.736
811.3335, 1967.588
811.8156, 1970.158
812.2977, 1972.016
812.7798, 1972.475
813.2620, 1972.072
813.7441, 1970.607
814.2262, 1968.562
814.7083, 1967.017
815.1904, 1965.779
815.6725, 1966.252
816.1547, 1970.936
816.6368, 1976.548
817.1189, 1979.141
817.6010, 1979.157
818.0831, 1979.039
818.5652, 1979.827
819.0474, 1980.636
819.5295, 1979.885
820.0116, 1980.850
820.4937, 1978.319
820.9758, 1981.664
821.4579, 1984.108
821.9401, 1984.650
822.4222, 1983.416
822.9043, 1979.605
823.3864, 1973.461
823.8685, 1970.443
824.3506, 1972.183
824.8328, 1974.632
825.3149, 1979.063
825.7970, 1982.358
826.2791, 1980.549
826.7612, 1976.068
827.2433, 1975.284
827.7255, 1981.005
828.2076, 1986.725
828.6897, 1986.289
829.1718, 1982.608
829.6539, 1979.693
830.1360, 1977.996
830.6182, 1978.462
831.1003, 1981.467
831.5824, 1985.211
832.0645, 1987.648
832.5466, 1988.809
833.0287, 1988.588
833.5109, 1985.976
833.9930, 1985.109
834.4751, 1988.241
834.9572, 1991.639
835.4393, 1991.436
835.9214, 1989.054
836.4036, 1988.892
836.8857, 1993.147
837.3678, 1995.800
837.8499, 1993.881
838.3320, 1991.255
838.8141, 1990.467
839.2963, 1991.148
839.7784, 1992.325
840.2605, 1993.661
840.7426, 1995.023
841.2247, 1996.921
841.7068, 1998.495
842.1890, 1997.439
842.6711, 1994.285
843.1532, 1992.105
843.6353, 1991.711
844.1174, 1991.821
844.5995, 1991.260
845.0817, 1990.299
845.5638, 1990.264
846.0459, 1991.519
846.5280, 1992.650
847.0101, 1993.715
847.4922, 1994.394
847.9744, 1994.385
848.4565, 1993.945
848.9386, 1993.299
849.4207, 1992.345
849.9028, 1992.088
850.3849, 1993.327
850.8671, 1994.795
851.3492, 1995.794
851.8313, 1996.553
852.3134, 1998.004
852.7955, 1999.834
853.2776, 1999.843
853.7598, 1995.972
854.2419, 1990.784
854.7240, 1987.381
855.2061, 1985.953
855.6882, 1988.516
856.1703, 1995.161
856.6525, 1999.692
857.1346, 1998.111
857.6167, 1994.353
858.0988, 1996.645
858.5809, 2006.872
859.0630, 2010.139
859.5452, 2001.969
860.0273, 1994.814
860.5094, 1993.614
860.9915, 1994.061
861.4736, 1991.934
861.9557, 1987.828
862.4379, 1985.645
862.9200, 1987.850
863.4021, 1989.622
863.8842, 1988.151
864.3663, 1986.528
864.8484, 1988.479
865.3306, 1992.421
865.8127, 1993.826
866.2948, 1990.984
866.7769, 1987.409
867.2590, 1986.612
867.7411, 1987.522
868.2233, 1987.939
868.7054, 1987.952
869.1875, 1988.712
869.6696, 1990.563
870.1517, 1991.458
870.6339, 1989.053
871.1160, 1984.577
871.5981, 1984.240
872.0802, 1990.165
872.5623, 1992.223
873.0444, 1986.745
873.5266, 1981.826
874.0087, 1982.870
874.4908, 1986.992
874.9729, 1988.756
875.4550, 1987.672
875.9371, 1987.049
876.4193, 1987.772
876.9014, 1988.504
877.3835, 1988.613
877.8656, 1988.488
878.3477, 1988.541
878.8298, 1988.795
879.3120, 1989.100
879.7941, 1989.430
880.2762, 1989.621
880.7583, 1989.845
881.2404, 1989.656
881.7225, 1987.448
882.2047, 1983.839
882.6868, 1982.383
883.1689, 1984.604
883.6510, 1987.513
884.1331, 1987.003
884.6152, 1983.718
885.0974, 1982.947
885.5795, 1985.204
886.0616, 1986.057
886.5437, 1983.811
887.0258, 1981.701
887.5079, 1982.940
887.9901, 1986.314
888.4722, 1986.858
888.9543, 1982.059
889.4364, 1979.243
889.9185, 1979.865
890.4006, 1980.765
890.8828, 1980.680
891.3649, 1980.207
891.8470, 1980.097
892.3291, 1980.437
892.8112, 1980.930
893.2933, 1981.918
893.7755, 1982.509
894.2576, 1981.504
894.7397, 1980.182
895.2218, 1980.703
895.7039, 1982.522
896.1860, 1982.823
896.6682, 1980.174
897.1503, 1977.198
897.6324, 1977.231
898.1145, 1979.440
898.5966, 1981.726
899.0787, 1983.935
899.5609, 1985.489
900.0430, 1986.209
900.5251, 1985.905
901.0072, 1984.107
901.4893, 1981.407
901.9714, 1980.912
902.4536, 1983.342
902.9357, 1985.435
903.4178, 1987.459
903.8999, 1988.104
904.3820, 1985.717
904.8641, 1982.075
905.3463, 1980.297
905.8284, 1980.609
906.3105, 1980.958
906.7926, 1980.933
907.2747, 1981.325
907.7568, 1983.444
908.2390, 1985.246
908.7211, 1984.558
909.2032, 1981.978
909.6853, 1979.687
910.1674, 1978.446
910.6495, 1977.670
911.1317, 1976.529
911.6138, 1975.979
912.0959, 1977.935
912.5780, 1981.212
913.0601, 1982.650
913.5422, 1981.612
914.0244, 1980.698
914.5065, 1982.340
914.9886, 1982.432
915.4707, 1983.688
915.9528, 1985.702
916.4349, 1986.968
916.9171, 1990.442
917.3992, 1992.908
917.8813, 1992.582
918.3634, 1990.357
918.8455, 1987.416
919.3276, 1983.619
919.8098, 1981.756
920.2919, 1982.525
920.7740, 1983.493
921.2561, 1984.240
921.7382, 1984.871
922.2203, 1986.054
922.7025, 1987.217
923.1846, 1986.041
923.6667, 1980.743
924.1488, 1977.048
924.6309, 1976.236
925.1130, 1976.293
925.5952, 1976.260
926.0773, 1976.601
926.5594, 1978.338
927.0415, 1981.296
927.5236, 1983.567
928.0057, 1984.038
928.4879, 1984.044
928.9700, 1984.321
929.4521, 1984.693
929.9342, 1984.785
930.4163, 1984.797
930.8984, 1985.522
931.3806, 1987.200
931.8627, 1988.617
932.3448, 1988.170
932.8269, 1986.833
933.3090, 1986.710
933.7911, 1987.527
934.2733, 1988.342
934.7554, 1988.918
935.2375, 1988.657
935.7196, 1987.093
936.2017, 1984.771
936.6838, 1982.559
937.1660, 1980.381
937.6481, 1979.975
938.1302, 1981.604
938.6123, 1984.158
939.0944, 1988.078
939.5765, 1991.085
940.0587, 1990.490
940.5408, 1986.869
941.0229, 1984.417
941.5050, 1983.658
941.9871, 1983.111
942.4692, 1982.593
942.9514, 1982.444
943.4335, 1983.133
943.9156, 1984.067
944.3977, 1984.648
944.8798, 1984.817
945.3619, 1984.212
945.8441, 1981.469
946.3262, 1979.599
946.8083, 1980.119
947.2904, 1981.540
947.7725, 1983.011
948.2546, 1984.244
948.7368, 1985.053
949.2189, 1985.399
949.7010, 1984.967
950.1831, 1982.654
950.6652, 1980.294
951.1473, 1979.697
951.6295, 1980.429
952.1116, 1982.202
952.5937, 1984.540
953.0758, 1985.964
953.5579, 1985.607
954.0400, 1984.310
954.5222, 1982.788
955.0043, 1981.333
955.4864, 1980.810
955.9685, 1981.199
956.4506, 1982.204
956.9327, 1983.729
957.4149, 1985.386
957.8970, 1986.830
958.3791, 1988.157
958.8612, 1989.705
959.3433, 1991.461
959.8254, 1993.652
960.3076, 1996.713
960.7897, 1997.987
961.2718, 1995.439
961.7539, 1992.474
962.2360, 1993.659
962.7181, 1998.783
963.2003, 2002.791
963.6824, 2005.920
964.1645, 2007.410
964.6466, 2005.865
965.1287, 2004.340
965.6108, 2004.007
966.0930, 2004.916
966.5751, 2007.761
967.0572, 2012.883
967.5393, 2016.181
968.0214, 2016.088
968.5035, 2015.629
968.9857, 2014.679
969.4678, 2014.510
969.9499, 2016.461
970.4320, 2019.845
970.9141, 2022.984
971.3962, 2025.375
971.8784, 2028.376
972.3605, 2034.473
972.8426, 2039.328
973.3247, 2038.879
973.8068, 2036.079
974.2889, 2034.603
974.7711, 2034.663
975.2532, 2034.551
975.7353, 2033.419
976.2174, 2032.378
976.6995, 2033.470
977.1816, 2034.542
977.6638, 2031.336
978.1459, 2025.794
978.6280, 2023.365
979.1101, 2024.871
979.5922, 2026.908
980.0743, 2027.165
980.5565, 2026.331
981.0386, 2025.266
981.5207, 2024.070
982.0028, 2022.619
982.4849, 2021.152
982.9670, 2022.232
983.4492, 2026.750
983.9313, 2030.684
984.4134, 2029.867
984.8955, 2026.177
985.3776, 2025.918
985.8597, 2029.211
986.3419, 2031.528
986.8240, 2032.269
987.3061, 2033.869
987.7882, 2037.857
988.2703, 2041.562
988.7524, 2041.279
989.2346, 2037.626
989.7167, 2037.368
990.1988, 2041.806
990.6809, 2045.852
991.1630, 2049.804
991.6451, 2051.767
992.1273, 2049.532
992.6094, 2045.894
993.0915, 2045.230
993.5736, 2047.756
994.0557, 2049.281
994.5378, 2048.698
995.0200, 2048.732
995.5021, 2050.234
995.9842, 2051.776
996.4663, 2052.636
996.9484, 2053.018
997.4305, 2053.181
997.9127, 2053.104
998.3948, 2053.324
998.8769, 2054.595
999.3590, 2055.271
999.8411, 2053.854
1000.323, 2052.561
1000.805, 2053.779
1001.287, 2056.258
1001.770, 2057.308
1002.252, 2056.328
1002.734, 2054.491
1003.216, 2051.509
1003.698, 2048.732
1004.180, 2047.376
1004.662, 2046.345
1005.144, 2044.560
1005.627, 2042.003
1006.109, 2038.951
1006.591, 2035.476
1007.073, 2032.146
1007.555, 2029.243
1008.037, 2026.809
1008.519, 2024.863
1009.001, 2023.457
1009.483, 2023.086
1009.966, 2023.376
1010.448, 2022.910
1010.930, 2020.999
1011.412, 2018.786
1011.894, 2017.461
1012.376, 2016.544
1012.858, 2015.198
1013.340, 2013.647
1013.823, 2012.449
1014.305, 2011.706
1014.787, 2011.312
1015.269, 2011.212
1015.751, 2011.361
1016.233, 2012.177
1016.715, 2013.065
1017.197, 2011.800
1017.679, 2008.941
1018.162, 2006.997
1018.644, 2006.590
1019.126, 2008.172
1019.608, 2012.288
1020.090, 2016.670
1020.572, 2016.838
1021.054, 2013.492
1021.536, 2011.862
1022.018, 2011.909
1022.501, 2011.158
1022.983, 2008.926
1023.465, 2007.373
1023.947, 2008.282
1024.429, 2010.109
1024.911, 2009.020
1025.393, 2009.603
1025.875, 2009.952
1026.358, 2007.915
1026.840, 2009.419
1027.322, 2006.604
1027.804, 2004.178
1028.286, 2006.099
1028.768, 2010.442
1029.250, 2012.329
1029.732, 2011.455
1030.214, 2010.490
1030.697, 2009.510
1031.179, 2008.017
1031.661, 2005.321
1032.143, 2003.470
1032.625, 2004.611
1033.107, 2007.309
1033.589, 2007.091
1034.071, 2002.422
1034.553, 2002.004
1035.036, 2008.307
1035.518, 2013.529
1036.000, 2015.812
1036.482, 2016.174
1036.964, 2014.628
1037.446, 2012.071
1037.928, 2011.278
1038.410, 2012.973
1038.893, 2013.917
1039.375, 2013.568
1039.857, 2013.365
1040.339, 2013.453
1040.821, 2014.026
1041.303, 2015.472
1041.785, 2017.493
1042.267, 2019.356
1042.750, 2021.482
1043.232, 2022.050
1043.714, 2018.961
1044.196, 2017.099
1044.678, 2018.570
1045.160, 2020.671
1045.642, 2021.753
1046.124, 2021.857
1046.606, 2020.847
1047.089, 2017.956
1047.571, 2017.187
1048.053, 2021.771
1048.535, 2024.711
1049.017, 2022.608
1049.499, 2019.579
1049.981, 2018.500
1050.463, 2018.991
1050.945, 2020.329
1051.428, 2022.910
1051.910, 2023.286
1052.392, 2018.113
1052.874, 2014.298
1053.356, 2015.057
1053.838, 2017.053
1054.320, 2018.832
1054.802, 2019.515
1055.285, 2016.821
1055.767, 2009.933
1056.249, 2006.260
1056.731, 2010.384
1057.213, 2014.537
1057.695, 2016.355
1058.177, 2016.682
1058.659, 2015.383
1059.141, 2013.430
1059.624, 2012.425
1060.106, 2012.648
1060.588, 2013.224
1061.070, 2014.852
1061.552, 2015.487
1062.034, 2013.605
1062.516, 2011.119
1062.998, 2008.736
1063.480, 2007.173
1063.963, 2007.888
1064.445, 2010.938
1064.927, 2013.305
1065.409, 2013.434
1065.891, 2013.278
1066.373, 2014.115
1066.855, 2014.476
1067.337, 2012.397
1067.820, 2009.476
1068.302, 2008.402
1068.784, 2009.400
1069.266, 2010.325
1069.748, 2010.117
1070.230, 2010.131
1070.712, 2010.848
1071.194, 2012.123
1071.677, 2014.922
1072.159, 2017.600
1072.641, 2017.464
1073.123, 2014.672
1073.605, 2012.189
1074.087, 2011.215
1074.569, 2010.401
1075.051, 2008.586
1075.533, 2007.282
1076.016, 2008.236
1076.498, 2009.938
1076.980, 2009.951
1077.462, 2008.650
1077.944, 2008.962
1078.426, 2012.689
1078.908, 2015.152
1079.390, 2012.290
1079.873, 2009.573
1080.355, 2011.699
1080.837, 2015.200
1081.319, 2015.453
1081.801, 2013.224
1082.283, 2012.473
1082.765, 2014.581
1083.247, 2016.671
1083.729, 2017.720
1084.212, 2018.031
1084.694, 2017.066
1085.176, 2016.010
1085.658, 2016.490
1086.140, 2017.782
1086.622, 2017.544
1087.104, 2015.102
1087.586, 2014.095
1088.068, 2017.778
1088.551, 2021.061
1089.033, 2021.237
1089.515, 2020.094
1089.997, 2018.763
1090.479, 2017.517
1090.961, 2016.321
1091.443, 2015.234
1091.925, 2015.274
1092.408, 2017.816
1092.890, 2020.216
1093.372, 2021.622
1093.854, 2022.310
1094.336, 2022.616
1094.818, 2022.281
1095.300, 2020.319
1095.782, 2017.035
1096.265, 2015.158
1096.747, 2016.045
1097.229, 2017.324
1097.711, 2019.065
1098.193, 2020.008
1098.675, 2018.341
1099.157, 2016.222
1099.639, 2016.546
1100.121, 2018.844
1100.604, 2020.166
1101.086, 2019.686
1101.568, 2018.840
1102.050, 2016.844
1102.532, 2015.986
1103.014, 2018.222
1103.496, 2021.190
1103.978, 2022.848
1104.460, 2023.438
1104.943, 2024.109
1105.425, 2025.171
1105.907, 2025.318
1106.389, 2022.096
1106.871, 2020.972
1107.353, 2026.285
1107.835, 2031.435
1108.317, 2031.112
1108.800, 2027.858
1109.282, 2026.193
1109.764, 2026.482
1110.246, 2026.849
1110.728, 2027.113
1111.210, 2027.461
1111.692, 2029.118
1112.174, 2029.494
1112.656, 2024.850
1113.139, 2019.897
1113.621, 2022.049
1114.103, 2030.327
1114.585, 2033.412
1115.067, 2026.847
1115.549, 2023.002
1116.031, 2023.307
1116.513, 2024.354
1116.995, 2025.791
1117.478, 2026.818
1117.960, 2026.602
1118.442, 2025.445
1118.924, 2024.167
1119.406, 2022.376
1119.888, 2022.108
1120.370, 2024.172
1120.852, 2026.066
1121.335, 2027.122
1121.817, 2028.151
1122.299, 2029.728
1122.781, 2031.549
1123.263, 2033.145
1123.745, 2034.519
1124.227, 2034.994
1124.709, 2034.232
1125.192, 2033.727
1125.674, 2033.655
1126.156, 2033.842
1126.638, 2034.252
1127.120, 2034.765
1127.602, 2035.307
1128.084, 2035.775
1128.566, 2035.378
1129.048, 2036.377
1129.531, 2037.751
1130.013, 2037.918
1130.495, 2040.730
1130.977, 2041.883
1131.459, 2041.871
1131.941, 2040.972
1132.423, 2039.582
1132.905, 2038.096
1133.387, 2036.686
1133.870, 2038.648
1134.352, 2043.802
1134.834, 2046.338
1135.316, 2045.177
1135.798, 2044.390
1136.280, 2046.235
1136.762, 2045.742
1137.244, 2048.876
1137.727, 2047.870
1138.209, 2049.069
1138.691, 2051.979
1139.173, 2054.358
1139.655, 2056.183
1140.137, 2059.527
1140.619, 2064.840
1141.101, 2068.229
1141.583, 2066.025
1142.066, 2061.870
1142.548, 2061.440
1143.030, 2063.103
1143.512, 2063.562
1143.994, 2063.197
1144.476, 2063.790
1144.958, 2065.362
1145.440, 2065.956
1145.922, 2064.482
1146.405, 2063.433
1146.887, 2066.426
1147.369, 2069.854
1147.851, 2068.498
1148.333, 2065.589
1148.815, 2066.445
1149.297, 2070.079
1149.779, 2072.406
1150.262, 2072.395
1150.744, 2072.629
1151.226, 2075.302
1151.708, 2077.417
1152.190, 2076.104
1152.672, 2074.363
1153.154, 2074.910
1153.636, 2076.607
1154.119, 2077.828
1154.601, 2078.328
1155.083, 2078.215
1155.565, 2077.201
1156.047, 2076.701
1156.529, 2077.225
1157.011, 2078.283
1157.493, 2080.316
1157.975, 2082.175
1158.458, 2082.645
1158.940, 2082.305
1159.422, 2082.549
1159.904, 2083.563
1160.386, 2083.978
1160.868, 2083.615
1161.350, 2082.715
1161.832, 2080.544
1162.314, 2078.828
1162.797, 2078.259
1163.279, 2078.546
1163.761, 2079.925
1164.243, 2081.863
1164.725, 2081.669
1165.207, 2078.462
1165.689, 2076.202
1166.171, 2074.921
1166.654, 2074.657
1167.136, 2075.768
1167.618, 2076.951
1168.100, 2077.479
1168.582, 2077.227
1169.064, 2075.705
1169.546, 2073.204
1170.028, 2072.990
1170.510, 2075.164
1170.993, 2073.990
1171.475, 2068.758
1171.957, 2067.056
1172.439, 2071.836
1172.921, 2077.580
1173.403, 2079.393
1173.885, 2078.568
1174.367, 2077.355
1174.849, 2075.738
1175.332, 2072.993
1175.814, 2069.832
1176.296, 2069.919
1176.778, 2073.012
1177.260, 2073.594
1177.742, 2069.036
1178.224, 2064.473
1178.706, 2065.186
1179.189, 2068.220
1179.671, 2071.261
1180.153, 2073.108
1180.635, 2070.891
1181.117, 2066.312
1181.599, 2063.296
1182.081, 2062.521
1182.563, 2062.150
1183.046, 2061.487
1183.528, 2060.565
1184.010, 2058.712
1184.492, 2057.412
1184.974, 2058.183
1185.456, 2059.604
1185.938, 2059.659
1186.420, 2059.242
1186.902, 2061.597
1187.385, 2067.517
1187.867, 2069.651
1188.349, 2062.722
1188.831, 2057.679
1189.313, 2056.832
1189.795, 2057.901
1190.277, 2060.870
1190.759, 2064.376
1191.241, 2068.076
1191.724, 2071.056
1192.206, 2069.339
1192.688, 2061.037
1193.170, 2056.132
1193.652, 2055.580
1194.134, 2055.481
1194.616, 2054.872
1195.098, 2055.618
1195.581, 2059.349
1196.063, 2063.161
1196.545, 2062.829
1197.027, 2059.435
1197.509, 2057.810
1197.991, 2057.784
1198.473, 2056.155
1198.955, 2052.922
1199.438, 2050.917
1199.920, 2050.848
1200.402, 2050.923
1200.884, 2049.925
1201.366, 2048.805
1201.848, 2049.132
1202.330, 2049.989
1202.812, 2048.720
1203.294, 2051.136
1203.776, 2049.460
1204.259, 2054.740
1204.741, 2058.530
1205.223, 2059.620
1205.705, 2059.686
1206.187, 2059.662
1206.669, 2058.949
1207.151, 2057.479
1207.633, 2054.804
1208.116, 2047.342
1208.598, 2040.996
1209.080, 2045.098
1209.562, 2055.569
1210.044, 2059.782
1210.526, 2054.902
1211.008, 2052.700
1211.490, 2058.353
1211.973, 2062.385
1212.455, 2062.624
1212.937, 2061.319
1213.419, 2058.047
1213.901, 2055.168
1214.383, 2055.646
1214.865, 2058.185
1215.347, 2058.365
1215.829, 2055.890
1216.312, 2052.819
1216.794, 2048.715
1217.276, 2046.634
1217.758, 2047.389
1218.240, 2048.726
1218.722, 2049.724
1219.204, 2049.585
1219.686, 2047.023
1220.168, 2047.703
1220.651, 2043.778
1221.133, 2046.493
1221.615, 2047.252
1222.097, 2046.263
1222.579, 2044.736
1223.061, 2043.297
1223.543, 2043.527
1224.025, 2046.158
1224.508, 2049.719
1224.990, 2053.528
1225.472, 2056.847
1225.954, 2059.312
1226.436, 2060.499
1226.918, 2058.870
1227.400, 2056.166
1227.882, 2055.336
1228.365, 2056.400
1228.847, 2057.248
1229.329, 2057.249
1229.811, 2057.198
1230.293, 2056.580
1230.775, 2056.976
1231.257, 2060.602
1231.739, 2063.562
1232.221, 2063.073
1232.703, 2060.706
1233.186, 2058.199
1233.668, 2055.615
1234.150, 2053.156
1234.632, 2050.276
1235.114, 2049.869
1235.596, 2052.310
1236.078, 2056.070
1236.560, 2061.247
1237.043, 2064.352
1237.525, 2063.143
1238.007, 2060.538
1238.489, 2060.572
1238.971, 2058.055
1239.453, 2059.324
1239.935, 2054.636
1240.417, 2052.090
1240.900, 2051.552
1241.382, 2051.440
1241.864, 2051.429
1242.346, 2052.264
1242.828, 2054.371
1243.310, 2055.706
1243.792, 2053.714
1244.274, 2051.389
1244.756, 2050.719
1245.239, 2051.238
1245.721, 2053.081
1246.203, 2055.432
1246.685, 2057.421
1247.167, 2058.830
1247.649, 2059.231
1248.131, 2058.143
1248.613, 2057.412
1249.095, 2057.929
1249.578, 2057.748
1250.060, 2055.831
1250.542, 2054.300
1251.024, 2054.381
1251.506, 2055.120
1251.988, 2055.435
1252.470, 2055.403
1252.952, 2055.112
1253.435, 2054.527
1253.917, 2055.620
1254.399, 2058.331
1254.881, 2059.757
1255.363, 2059.455
1255.845, 2059.123
1256.327, 2059.559
1256.809, 2060.320
1257.292, 2060.927
1257.774, 2061.772
1258.256, 2063.869
1258.738, 2066.157
1259.220, 2067.211
1259.702, 2067.290
1260.184, 2066.797
1260.666, 2065.930
1261.148, 2064.818
1261.630, 2063.489
1262.113, 2062.630
1262.595, 2061.599
1263.077, 2062.413
1263.559, 2067.737
1264.041, 2072.449
1264.523, 2074.522
1265.005, 2074.375
1265.487, 2071.526
1265.970, 2067.345
1266.452, 2065.085
1266.934, 2064.784
1267.416, 2063.481
1267.898, 2060.716
1268.380, 2061.256
1268.862, 2065.852
1269.344, 2067.931
1269.827, 2065.339
1270.309, 2062.152
1270.791, 2061.200
1271.273, 2062.316
1271.755, 2066.910
1272.237, 2072.200
1272.719, 2071.874
1273.201, 2074.632
1273.683, 2075.447
1274.166, 2074.425
1274.648, 2075.003
1275.130, 2071.918
1275.612, 2069.488
1276.094, 2069.271
1276.576, 2069.963
1277.058, 2072.138
1277.540, 2073.598
1278.022, 2072.958
1278.505, 2071.868
1278.987, 2070.938
1279.469, 2070.579
1279.951, 2071.383
1280.433, 2073.124
1280.915, 2075.001
1281.397, 2077.369
1281.879, 2079.778
1282.362, 2082.302
1282.844, 2083.857
1283.326, 2084.268
1283.808, 2083.139
1284.290, 2080.183
1284.772, 2077.465
1285.254, 2075.554
1285.736, 2074.391
##END=



