##NAMES=Rhomboclase
##RRUFFID=R070507
##IDEAL CHEMISTRY=(H_5_O_2_)Fe^3+^(S^6+^O_4_)_2_&#183;2H_2_O
##LOCALITY=Alcaparrosa, Antofogasta, Chile
##OWNER=RRUFF
##SOURCE=James Shigley
##DESCRIPTION=Colorless tabular crystals, associated with pale yellow-brown r√∂merite and colorless prismatic or acicular ferrinatrite (R170042)..
##STATUS=The identification of this mineral has been confirmed by single-crystal X-ray diffraction.
##URL=rruff.info/R070507
148.3985, 14229.32
148.8806, 14584.61
149.3628, 14910.57
149.8449, 15208.28
150.3270, 15481.08
150.8091, 15742.75
151.2912, 16015.60
151.7733, 16237.21
152.2555, 16396.27
152.7376, 16501.33
153.2197, 16563.60
153.7018, 16587.13
154.1839, 16574.12
154.6660, 16532.42
155.1481, 16417.54
155.6303, 16330.42
156.1124, 16295.92
156.5945, 16302.70
157.0766, 16331.67
157.5587, 16370.42
158.0408, 16421.31
158.5230, 16502.39
159.0051, 16628.76
159.4872, 16774.56
159.9693, 16926.41
160.4514, 17022.08
160.9335, 17082.94
161.4157, 17158.37
161.8978, 17246.76
162.3799, 17329.39
162.8620, 17402.70
163.3441, 17475.65
163.8262, 17564.67
164.3084, 17655.79
164.7905, 17724.34
165.2726, 17752.43
165.7547, 17743.28
166.2368, 17731.03
166.7189, 17733.60
167.2011, 17718.82
167.6832, 17670.44
168.1653, 17600.05
168.6474, 17530.96
169.1295, 17480.68
169.6116, 17449.25
170.0938, 17407.20
170.5759, 17352.03
171.0580, 17291.29
171.5401, 17225.38
172.0222, 17155.56
172.5043, 17080.84
172.9865, 16997.47
173.4686, 16904.81
173.9507, 16843.40
174.4328, 16835.38
174.9149, 16828.43
175.3970, 16800.89
175.8792, 16758.29
176.3613, 16719.03
176.8434, 16697.01
177.3255, 16691.90
177.8076, 16678.86
178.2897, 16632.92
178.7719, 16603.63
179.2540, 16618.85
179.7361, 16667.35
180.2182, 16720.14
180.7003, 16758.53
181.1824, 16782.78
181.6646, 16780.14
182.1467, 16711.17
182.6288, 16661.08
183.1109, 16679.68
183.5930, 16747.92
184.0751, 16809.01
184.5573, 16819.11
185.0394, 16780.01
185.5215, 16774.62
186.0036, 16818.04
186.4857, 16870.98
186.9678, 16930.41
187.4500, 16988.48
187.9321, 17023.75
188.4142, 17016.25
188.8963, 16969.69
189.3784, 16966.75
189.8605, 17033.64
190.3427, 17106.49
190.8248, 17164.33
191.3069, 17207.93
191.7890, 17243.34
192.2711, 17272.50
192.7532, 17296.62
193.2354, 17331.24
193.7175, 17381.07
194.1996, 17433.94
194.6817, 17478.91
195.1638, 17522.42
195.6459, 17585.36
196.1281, 17685.56
196.6102, 17814.21
197.0923, 17899.95
197.5744, 17927.91
198.0565, 17940.37
198.5386, 17931.55
199.0208, 17917.49
199.5029, 17939.54
199.9850, 18029.39
200.4671, 18168.58
200.9492, 18249.12
201.4313, 18237.29
201.9135, 18219.85
202.3956, 18219.22
202.8777, 18232.21
203.3598, 18252.21
203.8419, 18276.95
204.3240, 18304.19
204.8061, 18324.19
205.2883, 18326.95
205.7704, 18334.93
206.2525, 18358.28
206.7346, 18390.13
207.2167, 18419.17
207.6988, 18440.53
208.1810, 18453.62
208.6631, 18455.03
209.1452, 18418.67
209.6273, 18403.99
210.1094, 18446.53
210.5915, 18513.97
211.0737, 18555.17
211.5558, 18548.08
212.0379, 18505.15
212.5200, 18454.78
213.0021, 18380.14
213.4842, 18324.13
213.9664, 18304.20
214.4485, 18303.65
214.9306, 18299.36
215.4127, 18282.76
215.8948, 18261.76
216.3769, 18253.51
216.8591, 18278.43
217.3412, 18279.91
217.8233, 18222.07
218.3054, 18150.41
218.7875, 18123.40
219.2696, 18158.80
219.7518, 18220.20
220.2339, 18246.23
220.7160, 18202.44
221.1981, 18193.61
221.6802, 18247.74
222.1623, 18325.44
222.6445, 18383.67
223.1266, 18413.92
223.6087, 18445.37
224.0908, 18519.85
224.5729, 18667.57
225.0550, 18783.76
225.5372, 18832.06
226.0193, 18873.70
226.5014, 18956.95
226.9835, 19088.79
227.4656, 19247.67
227.9477, 19411.61
228.4298, 19584.03
228.9120, 19749.80
229.3941, 19917.32
229.8762, 20073.25
230.3583, 20200.07
230.8404, 20302.23
231.3225, 20406.18
231.8047, 20536.67
232.2868, 20697.99
232.7689, 20859.53
233.2510, 21015.42
233.7331, 21175.99
234.2152, 21350.19
234.6974, 21535.51
235.1795, 21717.93
235.6616, 21885.79
236.1437, 22038.78
236.6258, 22212.96
237.1079, 22455.98
237.5901, 22669.12
238.0722, 22817.95
238.5543, 22911.24
239.0364, 22977.78
239.5185, 23039.67
240.0006, 23088.84
240.4828, 23055.56
240.9649, 22923.15
241.4470, 22727.13
241.9291, 22431.74
242.4112, 22084.88
242.8933, 21755.05
243.3755, 21475.65
243.8576, 21235.89
244.3397, 20991.10
244.8218, 20733.14
245.3039, 20480.60
245.7860, 20239.41
246.2682, 20001.09
246.7503, 19751.26
247.2324, 19483.95
247.7145, 19216.42
248.1966, 18987.30
248.6787, 18797.44
249.1609, 18647.58
249.6430, 18565.42
250.1251, 18500.13
250.6072, 18406.39
251.0893, 18274.65
251.5714, 18133.73
252.0535, 18028.61
252.5357, 17974.66
253.0178, 17918.45
253.4999, 17853.70
253.9820, 17790.68
254.4641, 17735.74
254.9462, 17689.35
255.4284, 17647.84
255.9105, 17606.29
256.3926, 17563.01
256.8747, 17529.60
257.3568, 17507.57
257.8390, 17494.87
258.3211, 17500.31
258.8032, 17516.45
259.2853, 17523.65
259.7674, 17504.19
260.2495, 17459.22
260.7317, 17415.27
261.2138, 17362.34
261.6959, 17323.66
262.1780, 17320.63
262.6601, 17335.78
263.1422, 17336.76
263.6244, 17301.09
264.1065, 17240.67
264.5886, 17195.44
265.0707, 17172.09
265.5528, 17152.60
266.0349, 17130.99
266.5170, 17109.17
266.9991, 17089.75
267.4813, 17074.66
267.9634, 17060.56
268.4455, 17045.05
268.9276, 17031.59
269.4097, 17002.67
269.8918, 16934.66
270.3740, 16856.36
270.8561, 16790.39
271.3382, 16741.95
271.8203, 16701.11
272.3024, 16658.88
272.7845, 16615.10
273.2667, 16570.53
273.7488, 16522.58
274.2309, 16476.55
274.7130, 16438.27
275.1951, 16407.96
275.6772, 16378.66
276.1594, 16349.25
276.6415, 16317.94
277.1236, 16277.03
277.6057, 16221.64
278.0878, 16162.96
278.5699, 16110.64
279.0521, 16064.15
279.5342, 16022.12
280.0163, 15983.04
280.4984, 15948.69
280.9805, 15929.23
281.4626, 15929.66
281.9448, 15915.98
282.4269, 15848.17
282.9090, 15739.86
283.3911, 15654.53
283.8732, 15615.75
284.3553, 15591.08
284.8375, 15552.71
285.3196, 15502.13
285.8017, 15457.55
286.2838, 15433.54
286.7659, 15422.58
287.2480, 15393.10
287.7302, 15323.42
288.2123, 15261.33
288.6944, 15228.39
289.1765, 15217.01
289.6586, 15212.67
290.1407, 15210.84
290.6229, 15208.41
291.1050, 15198.62
291.5871, 15187.54
292.0692, 15159.12
292.5513, 15093.67
293.0334, 15017.61
293.5156, 14959.13
293.9977, 14925.50
294.4798, 14907.67
294.9619, 14894.19
295.4440, 14884.51
295.9261, 14881.85
296.4083, 14892.31
296.8904, 14904.10
297.3725, 14914.57
297.8546, 14920.46
298.3367, 14912.61
298.8188, 14879.57
299.3010, 14818.33
299.7831, 14782.68
300.2652, 14801.36
300.7473, 14814.22
301.2294, 14796.33
301.7115, 14760.93
302.1937, 14733.89
302.6758, 14731.46
303.1579, 14746.44
303.6400, 14749.68
304.1221, 14726.75
304.6042, 14714.79
305.0864, 14730.55
305.5685, 14753.71
306.0506, 14762.88
306.5327, 14751.01
307.0148, 14731.08
307.4969, 14725.29
307.9791, 14740.84
308.4612, 14743.93
308.9433, 14715.76
309.4254, 14684.24
309.9075, 14665.26
310.3896, 14659.63
310.8718, 14656.77
311.3539, 14647.94
311.8360, 14633.69
312.3181, 14619.09
312.8002, 14599.40
313.2823, 14587.07
313.7644, 14591.52
314.2466, 14608.25
314.7287, 14625.99
315.2108, 14644.13
315.6929, 14658.37
316.1750, 14659.31
316.6571, 14645.01
317.1393, 14627.36
317.6214, 14607.89
318.1035, 14590.66
318.5856, 14582.92
319.0677, 14586.13
319.5498, 14598.02
320.0320, 14625.67
320.5141, 14663.52
320.9962, 14684.92
321.4783, 14676.82
321.9604, 14651.82
322.4425, 14629.12
322.9247, 14604.67
323.4068, 14594.62
323.8889, 14612.86
324.3710, 14644.64
324.8531, 14669.87
325.3352, 14684.42
325.8174, 14697.17
326.2995, 14720.53
326.7816, 14759.50
327.2637, 14774.81
327.7458, 14751.11
328.2279, 14718.23
328.7101, 14691.24
329.1922, 14670.73
329.6743, 14651.24
330.1564, 14628.34
330.6385, 14603.67
331.1206, 14590.91
331.6028, 14601.93
332.0849, 14611.14
332.5670, 14608.38
333.0491, 14603.92
333.5312, 14614.32
334.0133, 14645.65
334.4955, 14683.37
334.9776, 14698.71
335.4597, 14680.35
335.9418, 14664.00
336.4239, 14643.46
336.9060, 14630.96
337.3882, 14643.26
337.8703, 14676.01
338.3524, 14701.87
338.8345, 14686.62
339.3166, 14630.40
339.7987, 14604.39
340.2809, 14626.33
340.7630, 14656.40
341.2451, 14678.66
341.7272, 14695.31
342.2093, 14710.57
342.6914, 14725.57
343.1736, 14741.00
343.6557, 14761.21
344.1378, 14788.74
344.6199, 14804.68
345.1020, 14784.78
345.5841, 14758.12
346.0663, 14761.70
346.5484, 14803.93
347.0305, 14857.49
347.5126, 14919.02
347.9947, 14979.06
348.4768, 15000.92
348.9590, 14966.42
349.4411, 14917.59
349.9232, 14909.35
350.4053, 14941.46
350.8874, 14964.50
351.3695, 14955.53
351.8517, 14943.47
352.3338, 14957.92
352.8159, 14998.50
353.2980, 15042.97
353.7801, 15075.65
354.2622, 15097.68
354.7444, 15121.43
355.2265, 15128.61
355.7086, 15157.56
356.1907, 15244.59
356.6728, 15353.57
357.1549, 15424.24
357.6371, 15433.04
358.1192, 15413.32
358.6013, 15430.51
359.0834, 15505.74
359.5655, 15580.76
360.0476, 15650.18
360.5298, 15723.13
361.0119, 15812.81
361.4940, 15914.50
361.9761, 16004.91
362.4582, 16055.00
362.9403, 16067.40
363.4224, 16120.19
363.9045, 16241.14
364.3867, 16367.44
364.8688, 16478.24
365.3509, 16579.06
365.8330, 16678.31
366.3151, 16777.65
366.7972, 16878.79
367.2794, 16982.62
367.7615, 17089.22
368.2436, 17201.34
368.7257, 17324.46
369.2078, 17451.10
369.6899, 17578.11
370.1721, 17705.72
370.6542, 17821.14
371.1363, 17905.13
371.6184, 17974.18
372.1005, 18061.57
372.5826, 18172.96
373.0648, 18295.75
373.5469, 18423.02
374.0290, 18554.29
374.5111, 18682.91
374.9932, 18816.26
375.4753, 18939.81
375.9575, 19057.36
376.4396, 19160.06
376.9217, 19222.18
377.4038, 19228.24
377.8859, 19195.27
378.3680, 19166.71
378.8502, 19152.58
379.3323, 19128.77
379.8144, 19099.78
380.2965, 19057.83
380.7786, 19000.90
381.2607, 18926.21
381.7429, 18825.41
382.2250, 18688.30
382.7071, 18513.05
383.1892, 18325.83
383.6713, 18104.85
384.1534, 17893.63
384.6356, 17707.53
385.1177, 17539.35
385.5998, 17378.84
386.0819, 17223.24
386.5640, 17066.37
387.0461, 16892.01
387.5283, 16693.85
388.0104, 16510.12
388.4925, 16350.61
388.9746, 16211.05
389.4567, 16089.65
389.9388, 15986.29
390.4210, 15888.05
390.9031, 15791.72
391.3852, 15694.05
391.8673, 15580.08
392.3494, 15443.34
392.8315, 15319.75
393.3137, 15246.43
393.7958, 15213.83
394.2779, 15161.86
394.7600, 15071.78
395.2421, 14977.61
395.7242, 14893.28
396.2064, 14819.12
396.6885, 14755.25
397.1706, 14701.92
397.6527, 14658.84
398.1348, 14627.11
398.6169, 14621.38
399.0991, 14598.91
399.5812, 14544.63
400.0633, 14486.23
400.5454, 14441.17
401.0275, 14410.67
401.5096, 14387.18
401.9918, 14364.21
402.4739, 14342.69
402.9560, 14333.00
403.4381, 14353.82
403.9202, 14358.64
404.4023, 14324.51
404.8845, 14275.67
405.3666, 14237.25
405.8487, 14216.87
406.3308, 14208.45
406.8129, 14207.72
407.2950, 14214.41
407.7772, 14220.08
408.2593, 14225.50
408.7414, 14226.34
409.2235, 14216.18
409.7056, 14197.70
410.1877, 14183.05
410.6699, 14183.51
411.1520, 14185.59
411.6341, 14169.83
412.1162, 14138.19
412.5983, 14113.16
413.0804, 14106.53
413.5625, 14114.35
414.0446, 14125.84
414.5268, 14142.67
415.0089, 14159.52
415.4910, 14177.86
415.9731, 14194.55
416.4552, 14204.03
416.9373, 14206.49
417.4195, 14210.09
417.9016, 14224.11
418.3837, 14249.89
418.8658, 14268.30
419.3479, 14276.74
419.8300, 14280.43
420.3122, 14271.04
420.7943, 14260.63
421.2764, 14267.14
421.7585, 14298.75
422.2406, 14343.41
422.7227, 14387.91
423.2049, 14436.04
423.6870, 14456.93
424.1691, 14417.29
424.6512, 14376.48
425.1333, 14379.47
425.6154, 14421.13
426.0976, 14465.56
426.5797, 14493.57
427.0618, 14515.21
427.5439, 14542.38
428.0260, 14575.47
428.5081, 14623.38
428.9903, 14699.36
429.4724, 14788.58
429.9545, 14846.96
430.4366, 14853.26
430.9187, 14871.93
431.4008, 14935.97
431.8830, 15013.82
432.3651, 15063.32
432.8472, 15078.85
433.3293, 15090.51
433.8114, 15128.99
434.2935, 15196.28
434.7757, 15263.77
435.2578, 15330.16
435.7399, 15398.01
436.2220, 15482.76
436.7041, 15564.66
437.1862, 15611.06
437.6684, 15608.05
438.1505, 15589.32
438.6326, 15609.25
439.1147, 15673.08
439.5968, 15729.86
440.0789, 15777.89
440.5611, 15810.51
441.0432, 15816.65
441.5253, 15803.11
442.0074, 15796.30
442.4895, 15816.02
442.9716, 15843.19
443.4538, 15846.88
443.9359, 15829.91
444.4180, 15830.84
444.9001, 15872.97
445.3822, 15936.89
445.8643, 15977.81
446.3465, 15983.21
446.8286, 16001.28
447.3107, 16058.72
447.7928, 16119.87
448.2749, 16148.02
448.7570, 16143.54
449.2392, 16134.19
449.7213, 16143.94
450.2034, 16169.32
450.6855, 16173.50
451.1676, 16170.04
451.6497, 16123.48
452.1319, 15995.90
452.6140, 15842.88
453.0961, 15722.20
453.5782, 15646.74
454.0603, 15579.99
454.5424, 15476.93
455.0246, 15342.62
455.5067, 15239.39
455.9888, 15183.56
456.4709, 15134.02
456.9530, 15046.96
457.4352, 14946.90
457.9173, 14888.61
458.3994, 14909.41
458.8815, 14939.84
459.3636, 14923.06
459.8457, 14878.77
460.3279, 14859.19
460.8100, 14881.80
461.2921, 14922.17
461.7742, 14947.93
462.2563, 14953.33
462.7384, 14968.27
463.2205, 15001.68
463.7026, 15035.22
464.1848, 15060.92
464.6669, 15080.08
465.1490, 15097.25
465.6311, 15114.75
466.1132, 15130.47
466.5953, 15133.45
467.0775, 15109.63
467.5596, 15122.42
468.0417, 15242.00
468.5238, 15348.17
469.0059, 15352.32
469.4880, 15274.58
469.9702, 15214.67
470.4523, 15245.68
470.9344, 15313.66
471.4165, 15339.85
471.8986, 15324.42
472.3807, 15276.26
472.8629, 15187.91
473.3450, 15080.71
473.8271, 15001.23
474.3092, 14955.19
474.7913, 14910.54
475.2734, 14870.49
475.7556, 14822.75
476.2377, 14749.52
476.7198, 14655.47
477.2019, 14565.49
477.6840, 14498.23
478.1661, 14448.32
478.6483, 14388.48
479.1304, 14315.73
479.6125, 14236.99
480.0946, 14149.31
480.5767, 14059.77
481.0588, 13972.37
481.5410, 13888.85
482.0231, 13811.74
482.5052, 13742.56
482.9873, 13681.74
483.4694, 13632.44
483.9515, 13598.64
484.4337, 13558.71
484.9158, 13491.25
485.3979, 13414.76
485.8800, 13367.69
486.3621, 13359.94
486.8442, 13359.45
487.3264, 13365.81
487.8085, 13366.98
488.2906, 13341.43
488.7727, 13289.03
489.2548, 13237.04
489.7369, 13211.22
490.2191, 13208.58
490.7012, 13181.93
491.1833, 13085.81
491.6654, 13021.14
492.1475, 13022.92
492.6296, 13049.71
493.1118, 13063.80
493.5939, 13056.43
494.0760, 13037.26
494.5581, 13011.37
495.0402, 12980.54
495.5223, 12958.41
496.0045, 12950.22
496.4866, 12937.26
496.9687, 12905.70
497.4508, 12863.17
497.9329, 12822.08
498.4150, 12777.88
498.8972, 12746.69
499.3793, 12743.79
499.8614, 12756.18
500.3435, 12766.89
500.8256, 12772.12
501.3077, 12769.22
501.7899, 12753.62
502.2720, 12725.99
502.7541, 12710.19
503.2362, 12720.43
503.7183, 12725.51
504.2004, 12723.89
504.6826, 12712.83
505.1647, 12678.75
505.6468, 12623.08
506.1289, 12582.77
506.6110, 12612.22
507.0931, 12698.22
507.5753, 12735.34
508.0574, 12706.42
508.5395, 12670.04
509.0216, 12656.77
509.5037, 12657.47
509.9858, 12656.90
510.4680, 12655.56
510.9501, 12649.26
511.4322, 12636.85
511.9143, 12618.13
512.3964, 12588.78
512.8785, 12549.76
513.3607, 12515.18
513.8428, 12498.75
514.3249, 12498.27
514.8070, 12486.39
515.2891, 12431.76
515.7712, 12406.37
516.2534, 12447.59
516.7355, 12503.46
517.2176, 12527.40
517.6997, 12511.67
518.1818, 12478.21
518.6639, 12435.69
519.1461, 12390.20
519.6282, 12366.43
520.1103, 12366.56
520.5924, 12381.33
521.0745, 12418.52
521.5566, 12460.98
522.0388, 12475.99
522.5209, 12455.81
523.0030, 12430.47
523.4851, 12402.47
523.9672, 12378.57
524.4493, 12368.49
524.9315, 12370.85
525.4136, 12373.82
525.8957, 12368.84
526.3778, 12358.40
526.8599, 12352.60
527.3420, 12346.82
527.8242, 12354.59
528.3063, 12405.40
528.7884, 12446.76
529.2705, 12429.10
529.7526, 12361.05
530.2347, 12303.54
530.7169, 12304.34
531.1990, 12334.67
531.6811, 12339.81
532.1632, 12320.01
532.6453, 12299.72
533.1274, 12285.84
533.6096, 12279.65
534.0917, 12287.21
534.5738, 12313.77
535.0559, 12327.48
535.5380, 12313.47
536.0201, 12295.85
536.5022, 12289.57
536.9843, 12292.68
537.4664, 12299.32
537.9485, 12306.94
538.4307, 12311.61
538.9128, 12303.92
539.3949, 12280.17
539.8770, 12259.60
540.3591, 12235.76
540.8412, 12224.80
541.3234, 12249.02
541.8055, 12291.71
542.2876, 12310.95
542.7697, 12284.42
543.2518, 12243.65
543.7339, 12210.08
544.2161, 12184.54
544.6982, 12170.21
545.1803, 12168.12
545.6624, 12174.38
546.1445, 12186.73
546.6266, 12205.97
547.1088, 12216.46
547.5909, 12213.59
548.0730, 12208.24
548.5551, 12197.37
549.0372, 12188.11
549.5193, 12191.19
550.0015, 12207.90
550.4836, 12224.63
550.9657, 12227.03
551.4478, 12217.02
551.9299, 12206.49
552.4120, 12195.32
552.8942, 12183.72
553.3763, 12164.74
553.8584, 12149.26
554.3405, 12159.71
554.8226, 12207.73
555.3047, 12245.33
555.7869, 12255.08
556.2690, 12249.31
556.7511, 12233.33
557.2332, 12212.14
557.7153, 12201.07
558.1974, 12211.90
558.6796, 12231.59
559.1617, 12214.08
559.6438, 12125.64
560.1259, 12084.84
560.6080, 12150.31
561.0901, 12227.19
561.5723, 12274.43
562.0544, 12291.21
562.5365, 12284.62
563.0186, 12241.55
563.5007, 12195.97
563.9828, 12186.63
564.4650, 12206.76
564.9471, 12234.48
565.4292, 12265.38
565.9113, 12289.81
566.3934, 12293.84
566.8755, 12274.14
567.3577, 12270.63
567.8398, 12307.08
568.3219, 12329.15
568.8040, 12307.07
569.2861, 12269.77
569.7682, 12252.50
570.2504, 12262.89
570.7325, 12280.82
571.2146, 12288.37
571.6967, 12286.80
572.1788, 12279.19
572.6609, 12261.87
573.1431, 12256.60
573.6252, 12280.08
574.1073, 12317.85
574.5894, 12340.71
575.0715, 12343.13
575.5536, 12352.54
576.0358, 12395.43
576.5179, 12431.40
577.0000, 12410.19
577.4821, 12351.84
577.9642, 12322.75
578.4464, 12359.56
578.9285, 12428.83
579.4106, 12457.36
579.8927, 12432.04
580.3748, 12427.91
580.8569, 12460.75
581.3391, 12503.99
581.8212, 12547.27
582.3033, 12588.21
582.7854, 12620.74
583.2675, 12641.27
583.7496, 12657.26
584.2318, 12676.04
584.7139, 12692.89
585.1960, 12695.44
585.6781, 12682.78
586.1602, 12669.50
586.6423, 12666.15
587.1245, 12673.88
587.6066, 12703.47
588.0887, 12784.36
588.5708, 12840.71
589.0529, 12847.88
589.5350, 12841.49
590.0172, 12845.44
590.4993, 12861.46
590.9814, 12881.59
591.4635, 12899.58
591.9456, 12920.50
592.4277, 12958.96
592.9099, 13010.36
593.3920, 13043.57
593.8741, 13047.12
594.3562, 13034.90
594.8383, 13019.97
595.3204, 12998.85
595.8026, 13001.75
596.2847, 13059.78
596.7668, 13101.91
597.2489, 13086.35
597.7310, 13052.78
598.2131, 13056.18
598.6953, 13106.08
599.1774, 13155.77
599.6595, 13156.80
600.1416, 13121.96
600.6237, 13096.56
601.1058, 13081.16
601.5880, 13074.99
602.0701, 13081.31
602.5522, 13093.43
603.0343, 13098.95
603.5164, 13096.12
603.9985, 13095.58
604.4807, 13096.21
604.9628, 13101.59
605.4449, 13117.40
605.9270, 13138.77
606.4091, 13155.29
606.8912, 13162.69
607.3734, 13170.52
607.8555, 13200.69
608.3376, 13251.72
608.8197, 13262.75
609.3018, 13212.44
609.7839, 13170.38
610.2661, 13188.03
610.7482, 13234.75
611.2303, 13243.91
611.7124, 13195.71
612.1945, 13160.87
612.6766, 13170.61
613.1588, 13195.03
613.6409, 13213.77
614.1230, 13223.03
614.6051, 13219.15
615.0872, 13199.27
615.5693, 13172.22
616.0515, 13156.07
616.5336, 13152.71
617.0157, 13146.57
617.4978, 13131.58
617.9799, 13120.41
618.4620, 13124.76
618.9442, 13137.59
619.4263, 13145.50
619.9084, 13146.21
620.3905, 13142.14
620.8726, 13135.99
621.3547, 13124.63
621.8369, 13099.11
622.3190, 13062.57
622.8011, 13034.20
623.2832, 13028.52
623.7653, 13033.85
624.2474, 13014.42
624.7296, 12960.50
625.2117, 12915.90
625.6938, 12893.05
626.1759, 12872.70
626.6580, 12841.83
627.1401, 12804.27
627.6223, 12770.64
628.1044, 12746.65
628.5865, 12721.60
629.0686, 12684.34
629.5507, 12643.80
630.0328, 12614.07
630.5150, 12596.43
630.9971, 12584.71
631.4792, 12576.22
631.9613, 12566.56
632.4434, 12533.83
632.9255, 12458.74
633.4077, 12411.83
633.8898, 12429.47
634.3719, 12452.55
634.8539, 12443.25
635.3361, 12409.32
635.8182, 12378.66
636.3003, 12361.71
636.7824, 12346.46
637.2645, 12324.62
637.7466, 12299.04
638.2288, 12271.55
638.7109, 12243.84
639.1930, 12223.79
639.6751, 12218.24
640.1572, 12224.70
640.6393, 12233.16
641.1215, 12249.75
641.6036, 12253.37
642.0857, 12234.68
642.5678, 12207.27
643.0499, 12171.96
643.5320, 12134.19
644.0142, 12111.54
644.4963, 12119.44
644.9784, 12129.64
645.4605, 12127.05
645.9426, 12112.26
646.4247, 12079.92
646.9069, 12032.28
647.3890, 11989.94
647.8711, 11969.38
648.3532, 11967.51
648.8353, 11974.79
649.3174, 12004.80
649.7996, 12007.22
650.2817, 11949.30
650.7638, 11885.40
651.2459, 11852.85
651.7280, 11843.87
652.2101, 11829.68
652.6923, 11796.23
653.1744, 11765.18
653.6565, 11752.59
654.1386, 11749.64
654.6207, 11747.20
655.1028, 11741.77
655.5850, 11724.63
656.0671, 11687.37
656.5492, 11637.55
657.0313, 11601.63
657.5134, 11584.49
657.9955, 11564.44
658.4777, 11531.84
658.9598, 11503.41
659.4419, 11496.50
659.9240, 11502.52
660.4061, 11495.33
660.8882, 11459.05
661.3704, 11426.47
661.8525, 11421.93
662.3346, 11425.02
662.8167, 11405.67
663.2988, 11365.85
663.7809, 11333.49
664.2631, 11328.48
664.7452, 11337.91
665.2273, 11328.09
665.7094, 11294.96
666.1915, 11270.14
666.6736, 11261.94
667.1558, 11254.94
667.6379, 11232.86
668.1200, 11204.43
668.6021, 11193.69
669.0842, 11219.92
669.5663, 11230.29
670.0485, 11188.84
670.5306, 11138.34
671.0127, 11120.88
671.4948, 11131.44
671.9769, 11141.16
672.4590, 11134.45
672.9412, 11120.66
673.4233, 11119.08
673.9054, 11129.13
674.3875, 11120.54
674.8696, 11085.39
675.3517, 11048.42
675.8339, 11025.58
676.3160, 11010.90
676.7981, 10986.49
677.2802, 10942.32
677.7623, 10913.55
678.2444, 10912.29
678.7266, 10920.94
679.2087, 10937.94
679.6908, 10954.19
680.1729, 10952.19
680.6550, 10924.83
681.1371, 10891.75
681.6193, 10873.43
682.1014, 10867.53
682.5835, 10866.67
683.0656, 10870.69
683.5477, 10874.56
684.0298, 10876.86
684.5120, 10875.48
684.9941, 10864.76
685.4762, 10836.68
685.9583, 10825.79
686.4404, 10850.90
686.9225, 10870.12
687.4047, 10868.24
687.8868, 10851.95
688.3689, 10828.11
688.8510, 10798.87
689.3331, 10770.25
689.8152, 10739.49
690.2974, 10715.85
690.7795, 10720.96
691.2616, 10748.63
691.7437, 10766.36
692.2258, 10762.62
692.7079, 10751.42
693.1901, 10749.53
693.6722, 10757.18
694.1543, 10767.12
694.6364, 10791.50
695.1185, 10798.30
695.6006, 10769.73
696.0828, 10729.73
696.5649, 10693.33
697.0470, 10662.38
697.5291, 10639.84
698.0112, 10636.08
698.4933, 10631.50
698.9755, 10602.86
699.4576, 10567.22
699.9397, 10555.93
700.4218, 10572.82
700.9039, 10598.00
701.3860, 10616.17
701.8682, 10629.22
702.3503, 10646.72
702.8324, 10672.66
703.3145, 10678.59
703.7966, 10649.09
704.2787, 10616.43
704.7609, 10608.32
705.2430, 10617.30
705.7251, 10616.28
706.2072, 10598.86
706.6893, 10580.41
707.1714, 10563.78
707.6536, 10548.16
708.1357, 10529.00
708.6178, 10510.47
709.0999, 10504.23
709.5820, 10516.42
710.0641, 10534.77
710.5463, 10544.12
711.0284, 10546.09
711.5105, 10547.76
711.9926, 10549.66
712.4747, 10551.11
712.9568, 10552.55
713.4390, 10551.72
713.9211, 10543.21
714.4032, 10521.84
714.8853, 10509.50
715.3674, 10513.49
715.8495, 10517.55
716.3317, 10510.16
716.8138, 10503.43
717.2959, 10519.15
717.7780, 10559.22
718.2601, 10584.06
718.7422, 10556.58
719.2244, 10514.47
719.7065, 10498.46
720.1886, 10501.33
720.6707, 10500.45
721.1528, 10489.76
721.6349, 10480.44
722.1171, 10484.77
722.5992, 10500.22
723.0813, 10511.08
723.5634, 10520.17
724.0455, 10514.03
724.5276, 10481.45
725.0098, 10442.63
725.4919, 10407.45
725.9740, 10379.13
726.4561, 10373.24
726.9382, 10418.92
727.4203, 10449.71
727.9025, 10430.81
728.3846, 10401.23
728.8667, 10398.01
729.3488, 10416.14
729.8309, 10428.89
730.3130, 10422.54
730.7952, 10408.91
731.2773, 10405.14
731.7594, 10406.99
732.2415, 10396.05
732.7236, 10370.50
733.2057, 10345.80
733.6878, 10329.02
734.1699, 10320.31
734.6520, 10319.92
735.1342, 10328.03
735.6163, 10344.03
736.0984, 10391.32
736.5805, 10417.24
737.0626, 10384.36
737.5447, 10335.89
738.0269, 10324.60
738.5090, 10354.92
738.9911, 10375.75
739.4732, 10349.86
739.9553, 10321.58
740.4374, 10332.48
740.9196, 10363.60
741.4017, 10381.94
741.8838, 10380.29
742.3659, 10366.56
742.8480, 10343.06
743.3301, 10319.12
743.8123, 10329.69
744.2944, 10377.69
744.7765, 10400.05
745.2586, 10381.82
745.7407, 10345.64
746.2228, 10298.06
746.7050, 10247.91
747.1871, 10231.93
747.6692, 10280.85
748.1513, 10313.17
748.6334, 10311.42
749.1155, 10307.39
749.5977, 10325.88
750.0798, 10351.86
750.5619, 10354.21
751.0440, 10322.81
751.5261, 10292.25
752.0082, 10289.66
752.4904, 10299.90
752.9725, 10302.84
753.4546, 10300.28
753.9367, 10302.12
754.4188, 10311.64
754.9009, 10323.99
755.3831, 10335.20
755.8652, 10344.12
756.3473, 10338.67
756.8294, 10313.90
757.3115, 10295.50
757.7936, 10294.63
758.2758, 10294.85
758.7579, 10274.39
759.2400, 10238.00
759.7221, 10226.93
760.2042, 10257.74
760.6863, 10291.28
761.1685, 10341.26
761.6506, 10373.95
762.1327, 10346.59
762.6148, 10283.27
763.0969, 10245.69
763.5790, 10260.68
764.0612, 10285.34
764.5433, 10280.46
765.0254, 10260.31
765.5075, 10255.30
765.9896, 10261.49
766.4717, 10246.54
766.9539, 10196.26
767.4360, 10134.64
767.9181, 10090.97
768.4002, 10065.37
768.8823, 10065.04
769.3644, 10100.06
769.8466, 10131.14
770.3287, 10156.61
770.8108, 10162.68
771.2929, 10115.88
771.7750, 10024.68
772.2571, 9985.735
772.7393, 10051.62
773.2214, 10104.25
773.7035, 10117.77
774.1856, 10107.47
774.6677, 10071.42
775.1498, 10023.45
775.6320, 9994.521
776.1141, 10000.05
776.5962, 10012.45
777.0783, 10008.52
777.5604, 9994.110
778.0425, 9978.744
778.5247, 9962.820
779.0068, 9940.456
779.4889, 9908.752
779.9710, 9883.646
780.4531, 9892.412
780.9352, 9932.342
781.4174, 9939.662
781.8995, 9905.423
782.3816, 9872.879
782.8637, 9851.307
783.3458, 9840.760
783.8279, 9847.398
784.3101, 9869.157
784.7922, 9872.707
785.2743, 9844.268
785.7564, 9817.174
786.2385, 9788.293
786.7206, 9769.396
787.2028, 9773.882
787.6849, 9794.098
788.1670, 9815.024
788.6491, 9834.255
789.1312, 9838.411
789.6133, 9804.946
790.0955, 9759.296
790.5776, 9738.034
791.0597, 9734.431
791.5418, 9718.269
792.0239, 9679.850
792.5060, 9643.475
792.9882, 9637.921
793.4703, 9657.795
793.9524, 9682.867
794.4345, 9715.357
794.9166, 9721.186
795.3987, 9684.598
795.8809, 9642.015
796.3630, 9626.187
796.8451, 9631.849
797.3272, 9627.083
797.8093, 9592.723
798.2914, 9579.773
798.7736, 9616.725
799.2557, 9645.439
799.7378, 9626.746
800.2199, 9584.426
800.7020, 9561.603
801.1841, 9568.628
801.6663, 9572.098
802.1484, 9548.267
802.6305, 9524.761
803.1126, 9526.003
803.5947, 9541.684
804.0768, 9556.743
804.5590, 9565.833
805.0411, 9564.474
805.5232, 9547.027
806.0053, 9520.139
806.4874, 9488.596
806.9695, 9456.803
807.4517, 9453.053
807.9338, 9481.995
808.4159, 9505.060
808.8980, 9495.706
809.3801, 9466.853
809.8622, 9448.361
810.3444, 9440.395
810.8265, 9444.501
811.3086, 9472.145
811.7907, 9489.871
812.2728, 9477.977
812.7549, 9453.557
813.2371, 9436.538
813.7192, 9426.646
814.2013, 9427.749
814.6834, 9463.241
815.1655, 9480.224
815.6476, 9438.904
816.1298, 9390.713
816.6119, 9388.589
817.0940, 9422.791
817.5761, 9445.604
818.0582, 9434.388
818.5403, 9417.549
819.0225, 9423.262
819.5046, 9433.262
819.9867, 9414.965
820.4688, 9377.302
820.9509, 9357.939
821.4330, 9370.820
821.9152, 9389.770
822.3973, 9383.679
822.8794, 9358.245
823.3615, 9333.836
823.8436, 9310.430
824.3257, 9300.553
824.8079, 9310.367
825.2900, 9317.946
825.7721, 9302.400
826.2542, 9270.077
826.7363, 9250.332
827.2184, 9244.291
827.7006, 9248.679
828.1827, 9277.002
828.6648, 9298.115
829.1469, 9285.110
829.6290, 9261.117
830.1111, 9265.034
830.5933, 9304.774
831.0754, 9324.298
831.5575, 9293.710
832.0396, 9263.538
832.5217, 9260.781
833.0038, 9266.782
833.4859, 9260.270
833.9680, 9240.945
834.4501, 9220.271
834.9323, 9199.095
835.4144, 9189.671
835.8965, 9219.966
836.3786, 9260.276
836.8607, 9262.285
837.3428, 9229.042
837.8250, 9183.853
838.3071, 9137.109
838.7892, 9104.552
839.2713, 9116.310
839.7534, 9158.473
840.2355, 9163.844
840.7177, 9132.937
841.1998, 9111.429
841.6819, 9111.201
842.1640, 9125.017
842.6461, 9150.902
843.1282, 9181.829
843.6104, 9183.428
844.0925, 9141.109
844.5746, 9110.646
845.0567, 9094.696
845.5388, 9091.618
846.0209, 9112.149
846.5031, 9139.253
846.9852, 9141.058
847.4673, 9111.519
847.9494, 9098.747
848.4315, 9122.764
848.9136, 9144.700
849.3958, 9152.380
849.8779, 9151.748
850.3600, 9150.052
850.8421, 9145.958
851.3242, 9131.073
851.8063, 9098.009
852.2885, 9064.734
852.7706, 9038.920
853.2527, 9021.627
853.7348, 9016.266
854.2169, 9020.146
854.6990, 9031.279
855.1812, 9047.526
855.6633, 9053.851
856.1454, 9026.821
856.6275, 8986.712
857.1096, 8977.875
857.5917, 8993.521
858.0739, 9004.033
858.5560, 9003.874
859.0381, 9007.355
859.5202, 9025.192
860.0023, 9050.275
860.4844, 9069.419
860.9666, 9083.281
861.4487, 9073.866
861.9308, 9031.102
862.4129, 9007.168
862.8950, 9030.012
863.3771, 9068.607
863.8593, 9086.628
864.3414, 9084.025
864.8235, 9064.057
865.3056, 8997.988
865.7877, 8962.817
866.2698, 8998.180
866.7520, 9037.195
867.2341, 9044.333
867.7162, 9027.508
868.1983, 9002.453
868.6804, 8966.360
869.1625, 8938.810
869.6447, 8922.463
870.1268, 8917.479
870.6089, 8935.833
871.0910, 8958.376
871.5731, 8957.798
872.0552, 8936.133
872.5374, 8924.300
873.0195, 8946.800
873.5016, 8965.239
873.9837, 8937.359
874.4658, 8897.935
874.9479, 8892.731
875.4301, 8916.365
875.9122, 8943.702
876.3943, 8964.504
876.8764, 8978.147
877.3585, 8981.630
877.8406, 8978.466
878.3228, 8976.723
878.8049, 8975.019
879.2870, 8965.258
879.7691, 8946.639
880.2512, 8933.629
880.7333, 8937.894
881.2155, 8948.774
881.6976, 8941.491
882.1797, 8916.213
882.6618, 8894.085
883.1439, 8875.099
883.6260, 8866.481
884.1082, 8872.283
884.5903, 8886.192
885.0724, 8902.331
885.5545, 8920.013
886.0366, 8929.063
886.5187, 8925.320
887.0009, 8924.070
887.4830, 8936.060
887.9651, 8937.466
888.4472, 8903.195
888.9293, 8852.852
889.4114, 8828.885
889.8936, 8837.269
890.3757, 8845.927
890.8578, 8862.858
891.3399, 8868.271
891.8220, 8844.299
892.3041, 8816.248
892.7863, 8811.279
893.2684, 8823.363
893.7505, 8822.139
894.2326, 8788.407
894.7147, 8767.957
895.1968, 8791.481
895.6790, 8821.423
896.1611, 8832.208
896.6432, 8829.224
897.1253, 8823.366
897.6074, 8817.228
898.0895, 8808.637
898.5717, 8790.914
899.0538, 8776.668
899.5359, 8782.403
900.0180, 8795.903
900.5001, 8798.386
900.9822, 8790.790
901.4644, 8783.548
901.9465, 8781.279
902.4286, 8784.187
902.9107, 8802.047
903.3928, 8820.763
903.8749, 8798.811
904.3571, 8750.684
904.8392, 8738.676
905.3213, 8773.230
905.8034, 8805.902
906.2855, 8801.459
906.7676, 8777.549
907.2498, 8771.297
907.7319, 8780.289
908.2140, 8775.580
908.6961, 8754.861
909.1782, 8753.045
909.6603, 8786.071
910.1425, 8824.568
910.6246, 8836.611
911.1067, 8825.334
911.5888, 8806.782
912.0709, 8777.886
912.5530, 8756.021
913.0352, 8741.353
913.5173, 8740.762
913.9994, 8766.944
914.4815, 8797.808
914.9636, 8792.533
915.4457, 8745.211
915.9279, 8718.032
916.4100, 8723.396
916.8921, 8726.687
917.3742, 8717.013
917.8563, 8708.538
918.3384, 8716.604
918.8206, 8732.927
919.3027, 8734.178
919.7848, 8712.460
920.2669, 8697.701
920.7490, 8689.668
921.2311, 8691.462
921.7133, 8716.667
922.1954, 8742.926
922.6775, 8747.730
923.1596, 8732.958
923.6417, 8713.643
924.1238, 8682.521
924.6060, 8667.981
925.0881, 8693.944
925.5702, 8723.950
926.0523, 8736.384
926.5344, 8735.358
927.0165, 8725.405
927.4987, 8709.205
927.9808, 8699.446
928.4629, 8709.430
928.9450, 8717.857
929.4271, 8701.370
929.9092, 8684.150
930.3914, 8702.971
930.8734, 8741.514
931.3555, 8755.325
931.8376, 8730.531
932.3198, 8695.657
932.8019, 8655.711
933.2840, 8631.374
933.7661, 8664.105
934.2482, 8720.110
934.7303, 8738.359
935.2125, 8718.205
935.6946, 8697.219
936.1767, 8693.677
936.6588, 8698.331
937.1409, 8704.996
937.6230, 8710.600
938.1052, 8705.413
938.5873, 8694.071
939.0694, 8690.835
939.5515, 8698.879
940.0336, 8718.319
940.5157, 8752.382
940.9979, 8781.214
941.4800, 8763.943
941.9621, 8713.086
942.4442, 8667.856
942.9263, 8633.566
943.4084, 8646.252
943.8906, 8716.617
944.3727, 8779.060
944.8548, 8770.207
945.3369, 8716.357
945.8190, 8689.761
946.3011, 8688.845
946.7833, 8688.361
947.2654, 8686.239
947.7475, 8684.065
948.2296, 8681.531
948.7117, 8687.509
949.1938, 8718.734
949.6760, 8764.654
950.1581, 8750.248
950.6402, 8664.605
951.1223, 8623.123
951.6044, 8647.861
952.0865, 8680.415
952.5687, 8691.922
953.0508, 8690.871
953.5329, 8689.480
954.0150, 8687.747
954.4971, 8685.224
954.9792, 8678.436
955.4614, 8684.389
955.9435, 8711.866
956.4256, 8738.636
956.9077, 8750.845
957.3898, 8753.570
957.8719, 8758.485
958.3541, 8768.358
958.8362, 8758.489
959.3183, 8708.051
959.8004, 8683.536
960.2825, 8713.269
960.7646, 8752.655
961.2468, 8773.661
961.7289, 8778.274
962.2110, 8770.388
962.6931, 8742.927
963.1752, 8725.615
963.6573, 8711.897
964.1395, 8718.442
964.6216, 8773.345
965.1037, 8827.669
965.5858, 8832.911
966.0679, 8802.852
966.5500, 8792.819
967.0322, 8820.861
967.5143, 8828.972
967.9964, 8789.396
968.4785, 8763.009
968.9606, 8786.931
969.4427, 8818.979
969.9249, 8813.247
970.4070, 8777.875
970.8891, 8760.048
971.3712, 8775.843
971.8533, 8786.104
972.3354, 8775.662
972.8176, 8771.701
973.2997, 8793.343
973.7818, 8822.437
974.2639, 8839.021
974.7460, 8843.093
975.2281, 8845.473
975.7103, 8846.977
976.1924, 8848.391
976.6745, 8843.094
977.1566, 8845.181
977.6387, 8867.800
978.1208, 8898.913
978.6030, 8920.552
979.0851, 8932.899
979.5672, 8955.171
980.0493, 9016.672
980.5314, 9051.744
981.0135, 9009.621
981.4957, 8969.678
981.9778, 8988.448
982.4599, 9038.836
982.9420, 9082.749
983.4241, 9114.200
983.9063, 9134.538
984.3884, 9133.907
984.8705, 9136.108
985.3526, 9151.708
985.8347, 9170.567
986.3168, 9189.222
986.7990, 9204.057
987.2811, 9200.605
987.7632, 9179.905
988.2453, 9191.422
988.7274, 9283.247
989.2095, 9370.678
989.6917, 9418.212
990.1738, 9447.929
990.6559, 9462.717
991.1380, 9478.551
991.6201, 9526.760
992.1022, 9611.074
992.5844, 9681.013
993.0665, 9689.757
993.5486, 9713.972
994.0307, 9807.501
994.5128, 9915.248
994.9949, 9989.927
995.4771, 10042.16
995.9592, 10095.57
996.4413, 10155.63
996.9234, 10231.95
997.4055, 10331.94
997.8876, 10445.28
998.3698, 10565.63
998.8519, 10697.87
999.3340, 10850.84
999.8161, 11018.20
1000.298, 11186.36
1000.780, 11352.63
1001.262, 11530.82
1001.745, 11734.78
1002.227, 11943.66
1002.709, 12141.77
1003.191, 12344.70
1003.673, 12570.61
1004.155, 12810.82
1004.637, 13038.41
1005.119, 13249.05
1005.602, 13475.34
1006.084, 13745.77
1006.566, 14018.53
1007.048, 14277.85
1007.530, 14525.35
1008.012, 14770.31
1008.494, 15001.85
1008.976, 15204.71
1009.458, 15374.22
1009.941, 15510.10
1010.423, 15613.33
1010.905, 15681.66
1011.387, 15721.86
1011.869, 15720.23
1012.351, 15653.02
1012.833, 15540.06
1013.315, 15418.79
1013.797, 15296.38
1014.280, 15151.37
1014.762, 14966.33
1015.244, 14768.52
1015.726, 14561.89
1016.208, 14353.37
1016.690, 14138.17
1017.172, 13929.84
1017.654, 13753.22
1018.137, 13612.26
1018.619, 13486.95
1019.101, 13349.95
1019.583, 13255.04
1020.065, 13223.36
1020.547, 13240.49
1021.029, 13316.10
1021.511, 13423.69
1021.993, 13518.35
1022.476, 13595.84
1022.958, 13699.97
1023.440, 13823.53
1023.922, 14004.36
1024.404, 14282.95
1024.886, 14593.07
1025.368, 14886.10
1025.850, 15186.80
1026.333, 15541.27
1026.815, 15950.62
1027.297, 16361.41
1027.779, 16786.33
1028.261, 17181.75
1028.743, 17586.58
1029.225, 17906.11
1029.707, 18113.03
1030.189, 18188.12
1030.672, 18109.38
1031.154, 17876.02
1031.636, 17498.64
1032.118, 16920.46
1032.600, 16288.88
1033.082, 15576.76
1033.564, 14874.97
1034.046, 14216.71
1034.528, 13598.53
1035.011, 12995.54
1035.493, 12417.62
1035.975, 11918.20
1036.457, 11515.21
1036.939, 11169.07
1037.421, 10889.96
1037.903, 10648.45
1038.385, 10448.92
1038.868, 10270.01
1039.350, 10087.07
1039.832, 9905.882
1040.314, 9759.281
1040.796, 9656.452
1041.278, 9567.279
1041.760, 9493.269
1042.242, 9431.086
1042.724, 9387.881
1043.207, 9346.405
1043.689, 9289.679
1044.171, 9223.646
1044.653, 9166.933
1045.135, 9118.601
1045.617, 9083.505
1046.099, 9064.673
1046.581, 9052.133
1047.063, 9045.982
1047.546, 9040.871
1048.028, 9034.795
1048.510, 9024.645
1048.992, 9000.163
1049.474, 8957.536
1049.956, 8942.969
1050.438, 8966.274
1050.920, 8975.182
1051.403, 8956.197
1051.885, 8933.224
1052.367, 8920.116
1052.849, 8914.749
1053.331, 8915.479
1053.813, 8921.256
1054.295, 8911.755
1054.777, 8885.146
1055.260, 8869.319
1055.742, 8869.479
1056.224, 8868.533
1056.706, 8857.820
1057.188, 8842.380
1057.670, 8828.906
1058.152, 8816.245
1058.634, 8796.875
1059.116, 8772.259
1059.599, 8761.276
1060.081, 8764.829
1060.563, 8761.259
1061.045, 8741.994
1061.527, 8728.434
1062.009, 8743.633
1062.491, 8775.075
1062.973, 8802.404
1063.455, 8821.475
1063.938, 8808.587
1064.420, 8770.957
1064.902, 8749.579
1065.384, 8754.920
1065.866, 8763.453
1066.348, 8757.589
1066.830, 8747.891
1067.312, 8751.920
1067.795, 8760.430
1068.277, 8748.808
1068.759, 8729.154
1069.241, 8740.122
1069.723, 8780.593
1070.205, 8808.551
1070.687, 8801.395
1071.169, 8779.772
1071.651, 8751.795
1072.134, 8728.860
1072.616, 8734.819
1073.098, 8746.898
1073.580, 8722.152
1074.062, 8670.814
1074.544, 8638.191
1075.026, 8639.600
1075.508, 8652.750
1075.990, 8679.712
1076.473, 8696.159
1076.955, 8680.808
1077.437, 8652.873
1077.919, 8621.223
1078.401, 8595.457
1078.883, 8597.267
1079.365, 8628.886
1079.847, 8640.954
1080.329, 8590.808
1080.812, 8558.123
1081.294, 8588.273
1081.776, 8618.799
1082.258, 8608.546
1082.740, 8578.977
1083.222, 8558.243
1083.704, 8547.331
1084.186, 8537.513
1084.669, 8522.877
1085.151, 8518.575
1085.633, 8541.271
1086.115, 8551.964
1086.597, 8532.403
1087.079, 8502.668
1087.561, 8473.582
1088.043, 8450.436
1088.526, 8452.170
1089.008, 8486.139
1089.490, 8510.776
1089.972, 8527.928
1090.454, 8527.579
1090.936, 8501.134
1091.418, 8476.614
1091.900, 8474.198
1092.382, 8479.216
1092.865, 8464.638
1093.347, 8433.458
1093.829, 8422.425
1094.311, 8432.837
1094.793, 8422.587
1095.275, 8385.693
1095.757, 8360.403
1096.239, 8363.922
1096.721, 8377.059
1097.204, 8380.912
1097.686, 8376.449
1098.168, 8361.959
1098.650, 8341.442
1099.132, 8332.869
1099.614, 8333.872
1100.096, 8325.659
1100.578, 8305.040
1101.061, 8291.659
1101.543, 8301.100
1102.025, 8309.570
1102.507, 8279.302
1102.989, 8237.822
1103.471, 8225.502
1103.953, 8232.227
1104.435, 8244.513
1104.917, 8253.864
1105.400, 8240.622
1105.882, 8196.126
1106.364, 8159.474
1106.846, 8168.906
1107.328, 8178.450
1107.810, 8145.386
1108.292, 8054.360
1108.774, 8089.201
1109.256, 8105.039
1109.739, 8102.872
1110.221, 8028.875
1110.703, 8047.654
1111.185, 8029.252
1111.667, 8009.328
1112.149, 8041.166
1112.631, 7977.619
1113.113, 8008.636
1113.596, 8001.889
1114.078, 8012.434
1114.560, 7985.568
1115.042, 7970.259
1115.524, 7992.371
1116.006, 7993.763
1116.488, 7962.590
1116.970, 7974.235
1117.453, 7909.362
1117.935, 7911.635
1118.417, 7942.874
1118.899, 7913.581
1119.381, 7925.911
1119.863, 7922.387
1120.345, 7846.829
1120.827, 7896.547
1121.309, 7892.089
1121.792, 7831.981
1122.274, 7872.691
1122.756, 7918.460
1123.238, 7953.231
1123.720, 7922.907
1124.202, 7860.413
1124.684, 7826.002
1125.166, 7812.872
1125.648, 7802.727
1126.131, 7797.507
1126.613, 7818.222
1127.095, 7858.343
1127.577, 7861.438
1128.059, 7795.622
1128.541, 7731.815
1129.023, 7736.497
1129.505, 7768.505
1129.988, 7795.254
1130.470, 7820.630
1130.952, 7863.241
1131.434, 7905.355
1131.916, 7904.185
1132.398, 7852.792
1132.880, 7795.553
1133.362, 7723.679
1133.844, 7685.313
1134.327, 7719.662
1134.809, 7761.741
1135.291, 7785.061
1135.773, 7791.242
1136.255, 7774.792
1136.737, 7743.197
1137.219, 7729.563
1137.701, 7741.335
1138.183, 7744.052
1138.666, 7731.763
1139.148, 7726.866
1139.630, 7742.216
1140.112, 7740.790
1140.594, 7691.268
1141.076, 7637.672
1141.558, 7651.353
1142.040, 7715.877
1142.523, 7732.630
1143.005, 7704.102
1143.487, 7689.613
1143.969, 7693.097
1144.451, 7695.573
1144.933, 7691.361
1145.415, 7692.645
1145.897, 7710.275
1146.380, 7728.734
1146.862, 7723.733
1147.344, 7706.082
1147.826, 7692.803
1148.308, 7682.909
1148.790, 7669.813
1149.272, 7657.052
1149.754, 7662.387
1150.236, 7690.962
1150.719, 7708.137
1151.201, 7679.286
1151.683, 7651.955
1152.165, 7648.635
1152.647, 7660.698
1153.129, 7690.644
1153.611, 7725.866
1154.093, 7752.081
1154.575, 7768.399
1155.058, 7776.808
1155.540, 7773.823
1156.022, 7772.270
1156.504, 7776.217
1156.986, 7774.014
1157.468, 7750.594
1157.950, 7743.736
1158.432, 7784.286
1158.915, 7843.511
1159.397, 7876.454
1159.879, 7885.028
1160.361, 7879.323
1160.843, 7858.249
1161.325, 7876.585
1161.807, 7937.944
1162.289, 7981.736
1162.771, 7989.677
1163.254, 8003.854
1163.736, 8057.254
1164.218, 8123.199
1164.700, 8167.523
1165.182, 8193.869
1165.664, 8201.139
1166.146, 8199.494
1166.628, 8200.055
1167.110, 8211.720
1167.593, 8258.399
1168.075, 8344.427
1168.557, 8421.755
1169.039, 8452.314
1169.521, 8487.505
1170.003, 8555.444
1170.485, 8634.229
1170.967, 8712.113
1171.450, 8790.037
1171.932, 8872.303
1172.414, 8956.136
1172.896, 9029.605
1173.378, 9088.938
1173.860, 9151.165
1174.342, 9221.092
1174.824, 9280.969
1175.307, 9321.252
1175.789, 9371.116
1176.271, 9446.594
1176.753, 9534.100
1177.235, 9621.137
1177.717, 9702.170
1178.199, 9759.034
1178.681, 9792.211
1179.163, 9797.173
1179.646, 9779.711
1180.128, 9778.006
1180.610, 9795.446
1181.092, 9793.395
1181.574, 9751.769
1182.056, 9707.883
1182.538, 9711.313
1183.020, 9714.694
1183.502, 9656.043
1183.984, 9580.060
1184.467, 9542.734
1184.949, 9524.921
1185.431, 9486.949
1185.913, 9425.213
1186.395, 9359.946
1186.877, 9299.650
1187.359, 9225.230
1187.841, 9120.002
1188.324, 9019.075
1188.806, 8933.871
1189.288, 8852.411
1189.770, 8763.604
1190.252, 8679.993
1190.734, 8624.221
1191.216, 8590.742
1191.698, 8539.117
1192.181, 8468.172
1192.663, 8396.376
1193.145, 8325.004
1193.627, 8275.815
1194.109, 8253.776
1194.591, 8235.838
1195.073, 8208.973
1195.555, 8161.191
1196.037, 8052.582
1196.520, 7935.132
1197.002, 7899.730
1197.484, 7903.372
1197.966, 7890.573
1198.448, 7855.671
1198.930, 7790.192
1199.412, 7702.757
1199.894, 7647.319
1200.376, 7651.955
1200.859, 7661.796
1201.341, 7670.737
1201.823, 7665.528
1202.305, 7631.962
1202.787, 7591.839
1203.269, 7557.731
1203.751, 7528.707
1204.233, 7503.963
1204.716, 7483.323
1205.198, 7466.157
1205.680, 7454.381
1206.162, 7427.854
1206.644, 7384.459
1207.126, 7353.938
1207.608, 7343.770
1208.090, 7331.974
1208.573, 7304.376
1209.055, 7279.496
1209.537, 7285.965
1210.019, 7303.847
1210.501, 7304.269
1210.983, 7291.307
1211.465, 7264.696
1211.947, 7232.716
1212.429, 7213.300
1212.911, 7205.724
1213.394, 7188.566
1213.876, 7150.180
1214.358, 7120.243
1214.840, 7111.188
1215.322, 7107.912
1215.804, 7113.937
1216.286, 7114.106
1216.768, 7095.467
1217.251, 7071.476
1217.733, 7059.638
1218.215, 7057.160
1218.697, 7049.811
1219.179, 7036.902
1219.661, 7035.740
1220.143, 7046.130
1220.625, 7029.491
1221.108, 6981.206
1221.590, 6945.452
1222.072, 6943.861
1222.554, 6961.509
1223.036, 6995.484
1223.518, 7021.004
1224.000, 6995.058
1224.482, 6954.766
1224.964, 6942.902
1225.447, 6948.737
1225.929, 6956.564
1226.411, 6961.729
1226.893, 6958.300
1227.375, 6943.367
1227.857, 6933.523
1228.339, 6945.048
1228.821, 6938.533
1229.303, 6891.103
1229.786, 6861.212
1230.268, 6880.321
1230.750, 6903.068
1231.232, 6886.417
1231.714, 6850.788
1232.196, 6843.530
1232.678, 6858.425
1233.160, 6856.683
1233.643, 6840.396
1234.125, 6813.401
1234.607, 6781.322
1235.089, 6763.158
1235.571, 6763.680
1236.053, 6772.033
1236.535, 6784.620
1237.017, 6792.547
1237.500, 6793.438
1237.982, 6782.501
1238.464, 6740.937
1238.946, 6701.094
1239.428, 6697.782
1239.910, 6713.568
1240.392, 6713.899
1240.874, 6700.183
1241.356, 6693.156
1241.839, 6693.586
1242.321, 6699.983
1242.803, 6715.282
1243.285, 6716.049
1243.767, 6695.939
1244.249, 6687.619
1244.731, 6709.261
1245.213, 6724.139
1245.695, 6687.181
1246.178, 6632.832
1246.660, 6615.016
1247.142, 6617.534
1247.624, 6623.678
1248.106, 6626.587
1248.588, 6613.333
1249.070, 6589.253
1249.552, 6573.334
1250.035, 6570.095
1250.517, 6569.942
1250.999, 6575.412
1251.481, 6575.596
1251.963, 6562.357
1252.445, 6555.850
1252.927, 6568.320
1253.409, 6576.011
1253.891, 6558.844
1254.374, 6531.947
1254.856, 6521.723
1255.338, 6523.733
1255.820, 6519.603
1256.302, 6510.673
1256.784, 6500.738
1257.266, 6491.396
1257.748, 6489.819
1258.230, 6494.288
1258.713, 6489.479
1259.195, 6468.224
1259.677, 6444.013
1260.159, 6410.703
1260.641, 6395.907
1261.123, 6433.708
1261.605, 6469.787
1262.087, 6464.396
1262.570, 6444.768
1263.052, 6439.993
1263.534, 6443.947
1264.016, 6440.436
1264.498, 6429.400
1264.980, 6420.931
1265.462, 6414.966
1265.944, 6404.246
1266.427, 6389.303
1266.909, 6386.978
1267.391, 6400.347
1267.873, 6407.071
1268.355, 6392.001
##END=



