##NAMES=Richetite
##RRUFFID=R090053
##IDEAL CHEMISTRY=(Fe^3+^,Mg)_x_Pb^2+^_8.6_(U^6+^O_2_)_36_O_36_(OH)_24_&#183;41H_2_O
##LOCALITY=Shinkolobwe mine, Katanga, Congo
##OWNER=RRUFF
##SOURCE=William W. Pinch
##DESCRIPTION=Brown plates. Sample is from the same specimen used in the Burns (1998) study.
##STATUS=The identification of this mineral has been confirmed by single-crystal X-ray diffraction.
##URL=rruff.info/R090053
92.02539, 165.9603
92.50751, 164.5840
92.98962, 165.1352
93.47174, 167.1779
93.95386, 169.6659
94.43597, 170.0045
94.91809, 166.8213
95.40021, 161.5273
95.88232, 158.3249
96.36444, 159.0177
96.84656, 159.2739
97.32867, 157.0348
97.81078, 153.7043
98.29290, 151.7882
98.77502, 153.5241
99.25713, 159.3796
99.73925, 162.2877
100.2214, 161.0581
100.7035, 158.9183
101.1856, 157.1833
101.6677, 155.9950
102.1498, 154.7395
102.6320, 152.5578
103.1141, 148.4907
103.5962, 145.9988
104.0783, 145.5666
104.5604, 146.4345
105.0425, 148.0697
105.5247, 150.4905
106.0068, 152.9709
106.4889, 154.1810
106.9710, 154.1500
107.4531, 153.5687
107.9352, 152.5588
108.4173, 151.1756
108.8995, 149.6660
109.3816, 147.6650
109.8637, 145.9481
110.3458, 145.5397
110.8279, 146.8377
111.3100, 148.3383
111.7922, 148.0722
112.2743, 145.4644
112.7564, 142.9160
113.2385, 141.1233
113.7206, 139.6930
114.2027, 138.1833
114.6849, 136.3347
115.1670, 134.4820
115.6491, 133.8869
116.1312, 136.0731
116.6133, 137.8267
117.0954, 138.5871
117.5776, 138.5800
118.0597, 138.2092
118.5418, 137.7536
119.0239, 137.2146
119.5060, 136.2470
119.9881, 133.4293
120.4703, 131.5477
120.9524, 132.4425
121.4345, 135.6841
121.9166, 139.0662
122.3987, 140.4965
122.8808, 139.5669
123.3630, 139.0186
123.8451, 139.4357
124.3272, 139.9365
124.8093, 139.4118
125.2914, 137.5324
125.7735, 135.5731
126.2557, 135.2536
126.7378, 136.2256
127.2199, 137.1852
127.7020, 137.9934
128.1841, 138.4667
128.6662, 137.8042
129.1483, 134.8631
129.6305, 132.0186
130.1126, 131.3904
130.5947, 132.7751
131.0768, 134.1822
131.5589, 133.5506
132.0410, 130.5139
132.5232, 128.4465
133.0053, 128.3961
133.4874, 129.0241
133.9695, 129.9515
134.4516, 131.0186
134.9337, 131.9628
135.4159, 132.3305
135.8980, 131.6653
136.3801, 131.2680
136.8622, 131.1060
137.3443, 131.2350
137.8264, 131.8888
138.3086, 133.1272
138.7907, 134.5800
139.2728, 135.1966
139.7549, 134.8544
140.2370, 133.7419
140.7191, 130.8251
141.2013, 127.3015
141.6834, 125.0928
142.1655, 125.3692
142.6476, 127.4664
143.1297, 128.3933
143.6118, 126.8263
144.0939, 125.7126
144.5761, 126.8878
145.0582, 129.8295
145.5403, 132.0774
146.0224, 131.8525
146.5045, 129.8811
146.9866, 128.6686
147.4688, 128.5157
147.9509, 128.9819
148.4330, 129.8364
148.9151, 131.1654
149.3972, 132.3471
149.8793, 132.7347
150.3615, 132.8017
150.8436, 133.1367
151.3257, 134.0333
151.8078, 135.2845
152.2899, 136.5507
152.7720, 138.3255
153.2542, 139.1467
153.7363, 137.8361
154.2184, 135.4562
154.7005, 133.6954
155.1826, 133.9028
155.6647, 135.7772
156.1469, 136.1454
156.6290, 132.7029
157.1111, 129.9400
157.5932, 129.7248
158.0753, 131.1864
158.5574, 132.2979
159.0396, 131.1815
159.5217, 127.4283
160.0038, 125.2432
160.4859, 125.3348
160.9680, 126.0952
161.4501, 127.0669
161.9323, 128.1342
162.4144, 129.2819
162.8965, 130.4680
163.3786, 131.6633
163.8607, 133.1665
164.3428, 135.9670
164.8250, 138.3866
165.3071, 138.8331
165.7892, 137.1447
166.2713, 134.9168
166.7534, 134.1389
167.2355, 135.0802
167.7177, 135.5033
168.1998, 134.6135
168.6819, 133.2754
169.1640, 132.7734
169.6461, 133.5499
170.1282, 134.4938
170.6104, 134.0691
171.0925, 132.4559
171.5746, 130.8633
172.0567, 129.9772
172.5388, 129.5005
173.0209, 128.4469
173.5031, 126.1713
173.9852, 123.9531
174.4673, 122.5983
174.9494, 122.1099
175.4315, 122.6034
175.9136, 124.6886
176.3958, 128.2951
176.8779, 131.2164
177.3600, 133.3291
177.8421, 134.3904
178.3242, 133.7287
178.8063, 131.5394
179.2885, 129.2749
179.7706, 128.6149
180.2527, 130.0409
180.7348, 130.9769
181.2169, 130.4927
181.6990, 130.0429
182.1812, 130.4769
182.6633, 131.8882
183.1454, 133.7197
183.6275, 135.1997
184.1096, 136.1436
184.5917, 137.1022
185.0738, 138.3582
185.5560, 139.4556
186.0381, 139.9197
186.5202, 139.6889
187.0023, 139.2248
187.4844, 139.3013
187.9665, 140.1241
188.4487, 141.2691
188.9308, 143.4296
189.4129, 145.5548
189.8950, 146.3582
190.3771, 145.4374
190.8592, 143.8991
191.3414, 143.9629
191.8235, 146.6629
192.3056, 149.0130
192.7877, 150.6004
193.2698, 151.6897
193.7519, 152.5107
194.2341, 153.0703
194.7162, 153.6626
195.1983, 155.0880
195.6804, 157.6551
196.1625, 159.8062
196.6446, 160.6254
197.1268, 160.6870
197.6089, 161.4214
198.0910, 163.5883
198.5731, 166.1754
199.0552, 167.4582
199.5373, 167.2327
200.0195, 167.0845
200.5016, 167.9116
200.9837, 169.5749
201.4658, 171.3908
201.9479, 173.3721
202.4300, 175.2130
202.9122, 176.6445
203.3943, 177.6630
203.8764, 178.3081
204.3585, 178.5912
204.8406, 178.5149
205.3227, 178.1245
205.8048, 177.0574
206.2870, 175.9519
206.7691, 175.2332
207.2512, 174.9529
207.7333, 174.9720
208.2154, 175.5425
208.6975, 176.9907
209.1797, 177.0296
209.6618, 173.9069
210.1439, 170.1467
210.6260, 166.7303
211.1081, 163.9454
211.5902, 162.0469
212.0724, 161.7533
212.5545, 164.0249
213.0366, 164.9459
213.5187, 163.3996
214.0008, 161.1559
214.4829, 158.9992
214.9651, 157.2033
215.4472, 155.8455
215.9293, 155.2854
216.4114, 156.7748
216.8935, 156.3223
217.3756, 152.4499
217.8578, 148.0222
218.3399, 144.7381
218.8220, 143.0833
219.3041, 142.7170
219.7862, 143.3118
220.2683, 146.2876
220.7505, 147.3183
221.2326, 145.0723
221.7147, 141.9444
222.1968, 139.6762
222.6789, 138.7090
223.1610, 138.5003
223.6432, 138.2871
224.1253, 138.1594
224.6074, 137.7979
225.0895, 137.2310
225.5716, 136.4215
226.0537, 135.1687
226.5358, 133.4500
227.0180, 131.7394
227.5001, 130.7302
227.9822, 130.6652
228.4643, 130.6071
228.9464, 129.9888
229.4285, 129.5904
229.9107, 130.8118
230.3928, 134.0381
230.8749, 137.1067
231.3570, 136.6082
231.8391, 132.0893
232.3212, 129.1293
232.8034, 129.8746
233.2855, 132.1565
233.7676, 133.1976
234.2497, 132.4034
234.7318, 130.9686
235.2139, 130.1461
235.6961, 129.8570
236.1782, 129.6046
236.6603, 129.0807
237.1424, 128.5759
237.6245, 128.7646
238.1066, 130.0066
238.5888, 130.9983
239.0709, 129.8956
239.5530, 127.3782
240.0351, 125.6123
240.5172, 125.5885
240.9993, 126.7403
241.4815, 128.1135
241.9636, 129.7904
242.4457, 131.3350
242.9278, 132.5396
243.4099, 133.4042
243.8920, 133.8229
244.3742, 133.4355
244.8563, 132.6168
245.3384, 132.3076
245.8205, 132.7878
246.3026, 133.1445
246.7847, 132.3623
247.2668, 131.1827
247.7490, 130.8997
248.2311, 132.5377
248.7132, 135.2318
249.1953, 136.8213
249.6774, 136.8356
250.1595, 136.6468
250.6417, 137.0142
251.1238, 137.5103
251.6059, 137.4702
252.0880, 136.3678
252.5701, 134.8283
253.0522, 134.5407
253.5344, 136.2638
254.0165, 137.7762
254.4986, 138.5898
254.9807, 138.8105
255.4628, 138.4144
255.9449, 137.3077
256.4271, 135.8838
256.9092, 135.1334
257.3913, 135.6158
257.8734, 135.7099
258.3555, 134.6147
258.8376, 133.2763
259.3198, 132.5029
259.8019, 132.6110
260.2840, 133.4925
260.7661, 135.3120
261.2482, 140.1001
261.7303, 141.6973
262.2125, 136.1823
262.6946, 129.5991
263.1767, 127.5472
263.6588, 131.6299
264.1409, 138.5061
264.6230, 142.2936
265.1052, 141.4652
265.5873, 140.2826
266.0694, 138.3387
266.5515, 136.5819
267.0336, 135.8241
267.5157, 136.1954
267.9979, 137.1206
268.4800, 137.7391
268.9621, 137.7543
269.4442, 138.1183
269.9263, 139.5939
270.4084, 140.8004
270.8906, 140.2204
271.3727, 137.9992
271.8548, 136.0769
272.3369, 137.1019
272.8190, 142.6986
273.3011, 145.7383
273.7833, 145.2143
274.2654, 143.5334
274.7475, 141.6600
275.2296, 139.8536
275.7117, 138.1228
276.1938, 136.3608
276.6760, 134.3139
277.1581, 133.9616
277.6402, 136.9860
278.1223, 139.7470
278.6044, 140.3092
279.0865, 139.0046
279.5686, 137.4003
280.0508, 136.7561
280.5329, 137.0963
281.0150, 137.2233
281.4971, 136.7319
281.9792, 136.4769
282.4613, 137.0240
282.9435, 138.0793
283.4256, 138.9171
283.9077, 139.0451
284.3898, 138.5551
284.8719, 138.2648
285.3540, 138.2840
285.8362, 138.3412
286.3183, 138.5733
286.8004, 138.7745
287.2825, 138.4794
287.7646, 137.3814
288.2467, 135.8242
288.7289, 135.0236
289.2110, 135.7389
289.6931, 136.2124
290.1752, 136.0386
290.6573, 135.5031
291.1394, 134.9751
291.6216, 134.5923
292.1037, 134.3219
292.5858, 134.0672
293.0679, 133.5368
293.5500, 133.5954
294.0321, 135.1365
294.5143, 136.9618
294.9964, 137.7320
295.4785, 137.0891
295.9606, 135.5275
296.4427, 133.5983
296.9248, 130.9711
297.4070, 129.0667
297.8891, 127.9204
298.3712, 127.5238
298.8533, 128.0376
299.3354, 129.4358
299.8175, 131.3235
300.2997, 133.5459
300.7818, 136.2594
301.2639, 137.3903
301.7460, 136.0027
302.2281, 133.8040
302.7102, 131.5306
303.1924, 129.3843
303.6745, 127.7572
304.1566, 126.8760
304.6387, 126.8276
305.1208, 127.8240
305.6029, 132.0723
306.0851, 135.1653
306.5672, 133.6420
307.0493, 128.8426
307.5314, 125.2961
308.0135, 125.8257
308.4956, 129.3512
308.9778, 131.0815
309.4599, 130.0213
309.9420, 128.7796
310.4241, 127.7217
310.9062, 127.0924
311.3883, 127.7944
311.8705, 130.5005
312.3526, 133.7657
312.8347, 134.0500
313.3168, 130.1720
313.7989, 126.6913
314.2810, 124.0086
314.7632, 122.3861
315.2453, 122.6127
315.7274, 124.9916
316.2095, 127.9002
316.6916, 129.1068
317.1737, 128.2299
317.6559, 127.2418
318.1380, 125.5833
318.6201, 124.2988
319.1022, 124.8261
319.5843, 127.2270
320.0664, 129.6296
320.5485, 130.2886
321.0306, 129.0067
321.5128, 127.6482
321.9949, 125.4364
322.4770, 123.7859
322.9591, 124.1678
323.4412, 126.1793
323.9233, 127.7067
324.4055, 127.1383
324.8876, 124.9026
325.3697, 124.1543
325.8518, 126.0930
326.3339, 127.9638
326.8160, 128.9168
327.2982, 129.0455
327.7803, 128.4920
328.2624, 127.2289
328.7445, 125.5402
329.2266, 124.1321
329.7087, 122.6463
330.1909, 121.9950
330.6730, 122.7902
331.1551, 124.3657
331.6372, 126.0272
332.1193, 127.5817
332.6014, 128.8275
333.0836, 129.5372
333.5657, 129.8053
334.0478, 128.9734
334.5299, 125.7924
335.0120, 122.3083
335.4941, 120.3230
335.9763, 119.9878
336.4584, 120.0793
336.9405, 119.4104
337.4226, 117.8695
337.9047, 117.1654
338.3868, 118.4706
338.8690, 119.4145
339.3511, 118.1773
339.8332, 115.4249
340.3153, 113.3262
340.7974, 113.3020
341.2795, 115.0323
341.7617, 116.5278
342.2438, 117.6452
342.7259, 118.7337
343.2080, 120.3293
343.6901, 121.8376
344.1722, 122.2624
344.6544, 121.1792
345.1365, 119.1284
345.6186, 117.2066
346.1007, 115.2459
346.5828, 113.7268
347.0649, 112.7144
347.5471, 112.1208
348.0292, 111.8933
348.5113, 112.0130
348.9934, 112.5220
349.4755, 113.6291
349.9576, 115.8554
350.4398, 116.3394
350.9219, 113.1693
351.4040, 110.2637
351.8861, 109.9384
352.3682, 111.7859
352.8503, 114.0530
353.3325, 115.4607
353.8146, 116.0452
354.2967, 116.3783
354.7788, 116.7089
355.2609, 116.5079
355.7430, 114.8506
356.2252, 112.8027
356.7073, 112.0084
357.1894, 113.2701
357.6715, 115.7130
358.1536, 117.1954
358.6357, 117.7285
359.1179, 117.1009
359.5999, 113.7293
360.0821, 110.2861
360.5642, 109.2369
361.0463, 110.9060
361.5284, 113.5296
362.0105, 114.8667
362.4926, 114.4408
362.9748, 114.5735
363.4569, 116.4087
363.9390, 117.7066
364.4211, 117.1488
364.9032, 115.1646
365.3853, 113.0344
365.8675, 111.6660
366.3496, 111.0244
366.8317, 110.8101
367.3138, 111.6001
367.7959, 112.0853
368.2780, 111.3672
368.7602, 110.4102
369.2423, 110.6221
369.7244, 112.6571
370.2065, 115.4201
370.6886, 116.6973
371.1707, 115.9423
371.6529, 115.0253
372.1350, 113.6854
372.6171, 112.6509
373.0992, 112.8309
373.5813, 114.1477
374.0634, 115.1936
374.5456, 114.0552
375.0277, 110.5723
375.5098, 108.4557
375.9919, 108.3580
376.4740, 109.1633
376.9561, 111.0776
377.4383, 113.4530
377.9204, 114.7741
378.4025, 113.5181
378.8846, 110.9938
379.3667, 111.3794
379.8488, 116.2975
380.3310, 119.8971
380.8131, 118.5269
381.2952, 115.2420
381.7773, 113.0681
382.2594, 112.8777
382.7415, 113.3979
383.2237, 113.1489
383.7058, 112.1380
384.1879, 111.6722
384.6700, 112.1113
385.1521, 113.2131
385.6342, 115.1120
386.1164, 117.6832
386.5985, 119.4862
387.0806, 118.6877
387.5627, 116.6323
388.0448, 117.0017
388.5269, 120.8368
389.0091, 124.5621
389.4912, 125.2026
389.9733, 123.7582
390.4554, 122.2353
390.9375, 120.7303
391.4196, 119.5707
391.9018, 118.9719
392.3839, 118.9445
392.8660, 119.7893
393.3481, 122.2300
393.8302, 125.0476
394.3123, 125.6557
394.7945, 123.2676
395.2766, 121.4459
395.7587, 121.9681
396.2408, 123.8683
396.7229, 125.8501
397.2050, 127.7444
397.6872, 128.7203
398.1693, 127.3988
398.6514, 123.4959
399.1335, 121.0818
399.6156, 121.6288
400.0977, 122.6506
400.5798, 122.1891
401.0620, 120.4932
401.5441, 119.1283
402.0262, 119.1320
402.5083, 120.1795
402.9904, 120.6341
403.4725, 120.1500
403.9547, 119.6016
404.4368, 119.0583
404.9189, 118.5748
405.4010, 118.1544
405.8831, 117.8122
406.3652, 117.7252
406.8474, 118.2299
407.3295, 119.7535
407.8116, 120.5884
408.2937, 120.3289
408.7758, 119.8288
409.2579, 119.3182
409.7401, 118.9668
410.2222, 119.2530
410.7043, 120.7723
411.1864, 123.1310
411.6685, 122.8591
412.1506, 115.8842
412.6328, 111.2823
413.1149, 111.6629
413.5970, 114.4724
414.0791, 117.1047
414.5612, 118.6221
415.0433, 119.4023
415.5255, 120.0435
416.0076, 120.6645
416.4897, 120.7334
416.9718, 119.7795
417.4539, 118.6287
417.9360, 117.2168
418.4182, 115.8553
418.9003, 115.4426
419.3824, 117.1739
419.8645, 120.3121
420.3466, 121.3458
420.8287, 119.1489
421.3109, 117.1693
421.7930, 116.9945
422.2751, 117.6875
422.7572, 118.1611
423.2393, 118.0199
423.7214, 118.0760
424.2036, 119.7241
424.6857, 122.8549
425.1678, 124.6518
425.6499, 124.1434
426.1320, 122.4840
426.6141, 119.9858
427.0963, 116.9344
427.5784, 115.7622
428.0605, 119.1944
428.5426, 124.4408
429.0247, 127.0536
429.5068, 126.7123
429.9890, 125.6485
430.4711, 124.8919
430.9532, 124.5586
431.4353, 124.8470
431.9174, 126.2659
432.3995, 127.5525
432.8817, 128.1684
433.3638, 128.1852
433.8459, 127.5769
434.3280, 126.2530
434.8101, 124.8454
435.2922, 124.3227
435.7744, 125.0218
436.2565, 125.2303
436.7386, 124.1683
437.2207, 123.1746
437.7028, 123.3201
438.1849, 124.4574
438.6671, 125.8022
439.1492, 126.8983
439.6313, 127.6897
440.1134, 127.8075
440.5955, 126.4207
441.0776, 125.3801
441.5598, 124.7893
442.0418, 124.6898
442.5240, 125.4997
443.0061, 127.1609
443.4882, 128.6132
443.9703, 128.2298
444.4524, 125.3180
444.9345, 123.8298
445.4167, 124.8323
445.8988, 126.2330
446.3809, 127.6129
446.8630, 128.8120
447.3451, 129.7089
447.8272, 130.2308
448.3094, 130.3848
448.7915, 130.0342
449.2736, 128.8010
449.7557, 128.1482
450.2378, 128.7288
450.7199, 129.8267
451.2021, 131.2074
451.6842, 132.7702
452.1663, 133.9709
452.6484, 134.1041
453.1305, 133.4499
453.6126, 133.2619
454.0948, 133.7213
454.5769, 134.3999
455.0590, 135.1180
455.5411, 135.8435
456.0232, 136.5736
456.5053, 137.6796
456.9875, 138.2723
457.4696, 136.9465
457.9517, 134.2446
458.4338, 132.6911
458.9159, 133.2582
459.3980, 135.0590
459.8802, 137.1064
460.3623, 139.5272
460.8444, 141.1541
461.3265, 141.5826
461.8086, 141.2537
462.2907, 140.0784
462.7729, 138.3205
463.2550, 137.2442
463.7371, 137.8522
464.2192, 139.7675
464.7013, 140.8236
465.1834, 140.4611
465.6656, 140.0191
466.1477, 139.3737
466.6298, 138.8958
467.1119, 139.2078
467.5940, 140.3484
468.0761, 141.5101
468.5583, 141.7280
469.0404, 140.8976
469.5225, 139.7908
470.0046, 137.4925
470.4867, 135.8762
470.9688, 136.3487
471.4510, 137.7185
471.9331, 137.8013
472.4152, 135.4201
472.8973, 132.2025
473.3794, 131.7349
473.8615, 135.0812
474.3437, 136.6138
474.8258, 133.1782
475.3079, 129.3185
475.7900, 128.4367
476.2721, 130.0697
476.7542, 130.8199
477.2364, 127.2590
477.7185, 121.6381
478.2006, 119.5527
478.6827, 121.6461
479.1648, 123.5372
479.6469, 122.4243
480.1291, 119.9658
480.6112, 119.3034
481.0933, 121.2444
481.5754, 123.0812
482.0575, 123.1645
482.5396, 122.2804
483.0217, 121.9741
483.5038, 122.5755
483.9860, 123.2457
484.4681, 123.2220
484.9502, 122.4594
485.4323, 121.4276
485.9144, 119.9720
486.3965, 118.4329
486.8787, 116.8050
487.3608, 115.2144
487.8429, 113.7395
488.3250, 112.4070
488.8071, 111.5722
489.2892, 112.0511
489.7714, 115.1183
490.2535, 116.3157
490.7356, 113.9586
491.2177, 111.6198
491.6998, 111.3077
492.1819, 112.5450
492.6641, 113.8225
493.1462, 114.2197
493.6283, 113.9455
494.1104, 113.5430
494.5925, 112.8973
495.0746, 112.4393
495.5568, 112.2145
496.0389, 112.2589
496.5210, 112.8170
497.0031, 113.8221
497.4852, 114.5987
497.9673, 114.6352
498.4495, 114.0817
498.9316, 113.3387
499.4137, 112.4238
499.8958, 111.2377
500.3779, 109.0361
500.8600, 106.7749
501.3422, 106.5275
501.8243, 109.4012
502.3064, 112.0889
502.7885, 112.8695
503.2706, 112.3816
503.7527, 111.5620
504.2349, 110.6024
504.7170, 109.9930
505.1991, 110.4345
505.6812, 112.0282
506.1633, 112.2164
506.6454, 109.7147
507.1276, 107.4001
507.6097, 106.0383
508.0918, 105.6278
508.5739, 106.4291
509.0560, 108.4743
509.5381, 110.7515
510.0203, 111.5335
510.5024, 110.2336
510.9845, 109.4532
511.4666, 109.7592
511.9487, 110.0258
512.4308, 109.5941
512.9130, 108.8235
513.3951, 108.5236
513.8772, 109.1974
514.3593, 110.2592
514.8414, 110.6698
515.3235, 110.3857
515.8057, 109.7633
516.2878, 108.6175
516.7699, 107.4079
517.2520, 106.3507
517.7341, 105.5021
518.2162, 105.2088
518.6984, 106.0900
519.1805, 107.3342
519.6626, 107.9142
520.1447, 107.8400
520.6268, 107.4391
521.1089, 106.6389
521.5911, 105.8710
522.0732, 106.2533
522.5553, 108.0695
523.0374, 109.9332
523.5195, 112.5908
524.0016, 114.5209
524.4838, 113.6136
524.9659, 110.3448
525.4480, 107.4824
525.9301, 107.1048
526.4122, 108.6793
526.8943, 109.4325
527.3765, 108.3233
527.8586, 107.8739
528.3407, 109.0089
528.8228, 110.3573
529.3049, 110.6161
529.7870, 109.7802
530.2692, 108.9753
530.7513, 109.2458
531.2334, 110.4044
531.7155, 111.4141
532.1976, 112.3961
532.6797, 112.9343
533.1619, 112.2054
533.6440, 111.2576
534.1261, 111.3297
534.6082, 112.7397
535.0903, 114.0588
535.5724, 114.2082
536.0546, 113.6373
536.5367, 113.3272
537.0188, 113.4148
537.5009, 113.4687
537.9830, 113.0414
538.4651, 112.3180
538.9473, 112.2980
539.4294, 114.1295
539.9115, 115.1577
540.3936, 113.6739
540.8757, 111.4381
541.3578, 110.7663
541.8400, 112.0265
542.3221, 113.7966
542.8042, 114.5594
543.2863, 114.2851
543.7684, 114.8695
544.2505, 117.9769
544.7326, 119.9121
545.2147, 119.3352
545.6968, 117.5639
546.1790, 115.9155
546.6611, 114.7613
547.1432, 113.9027
547.6253, 112.8344
548.1074, 111.6832
548.5895, 112.2794
549.0717, 115.6870
549.5538, 118.6965
550.0359, 119.3565
550.5180, 118.3864
551.0001, 116.4036
551.4822, 112.7563
551.9644, 109.9568
552.4465, 110.6061
552.9286, 113.0198
553.4107, 113.4532
553.8928, 111.1448
554.3749, 108.4715
554.8571, 107.7019
555.3392, 108.7513
555.8213, 108.4704
556.3034, 104.3377
556.7855, 102.1314
557.2676, 105.7353
557.7498, 110.9150
558.2319, 111.9878
558.7140, 107.9916
559.1961, 103.0801
559.6782, 101.9730
560.1603, 104.7282
560.6425, 106.3841
561.1246, 106.2680
561.6067, 105.9735
562.0888, 105.7790
562.5709, 105.7988
563.0530, 106.3607
563.5352, 107.5727
564.0173, 108.4811
564.4994, 107.9462
564.9815, 106.4394
565.4636, 105.6449
565.9457, 105.8784
566.4279, 105.9349
566.9100, 104.6616
567.3921, 102.6426
567.8742, 101.9589
568.3563, 103.6293
568.8384, 104.9269
569.3206, 104.2630
569.8027, 103.0572
570.2848, 103.4971
570.7669, 105.6382
571.2490, 107.2275
571.7311, 106.1024
572.2133, 102.6175
572.6954, 100.7289
573.1775, 101.6228
573.6596, 102.5582
574.1417, 103.5697
574.6238, 104.2236
575.1060, 103.7789
575.5881, 102.3792
576.0702, 101.3725
576.5523, 102.4298
577.0344, 104.7317
577.5165, 104.8247
577.9987, 102.0392
578.4808, 100.0210
578.9629, 100.8771
579.4450, 102.9893
579.9271, 104.2130
580.4092, 104.5121
580.8914, 103.9424
581.3735, 101.2467
581.8556, 98.49062
582.3377, 98.44872
582.8198, 100.8384
583.3019, 103.1235
583.7841, 103.8965
584.2662, 103.4489
584.7483, 102.5546
585.2304, 100.5559
585.7125, 99.20113
586.1946, 98.17033
586.6768, 98.00941
587.1589, 99.88023
587.6410, 102.9188
588.1231, 104.9127
588.6052, 104.4530
589.0873, 102.6218
589.5695, 101.6590
590.0516, 101.6820
590.5337, 101.7325
591.0158, 101.6995
591.4979, 101.5546
591.9800, 101.3787
592.4622, 101.1117
592.9443, 100.4821
593.4264, 98.58716
593.9085, 97.04027
594.3906, 97.52633
594.8727, 99.43989
595.3549, 101.3136
595.8370, 102.7294
596.3191, 103.3707
596.8012, 102.6668
597.2833, 100.2905
597.7654, 98.89890
598.2476, 99.06685
598.7297, 99.39659
599.2118, 99.66910
599.6939, 99.76285
600.1760, 99.49110
600.6581, 98.82723
601.1403, 98.07105
601.6224, 97.27639
602.1045, 96.49178
602.5866, 97.22231
603.0687, 100.4567
603.5508, 103.0090
604.0330, 102.4476
604.5151, 100.6533
604.9972, 100.2055
605.4793, 101.8126
605.9614, 102.6060
606.4435, 99.85818
606.9257, 96.07124
607.4078, 95.21906
607.8899, 97.32796
608.3720, 99.24720
608.8541, 98.90040
609.3362, 97.08719
609.8184, 96.36283
610.3005, 98.02361
610.7826, 98.85027
611.2647, 97.94017
611.7468, 97.01711
612.2289, 97.38891
612.7111, 98.70650
613.1932, 99.70808
613.6753, 99.57498
614.1574, 99.07810
614.6395, 100.2028
615.1216, 103.2235
615.6038, 103.9991
616.0859, 100.5806
616.5680, 96.44113
617.0501, 94.09778
617.5322, 93.35132
618.0143, 93.83339
618.4965, 96.70175
618.9786, 99.39851
619.4607, 100.0079
619.9428, 99.46697
620.4249, 99.67783
620.9070, 101.0546
621.3892, 102.3507
621.8713, 102.2280
622.3534, 100.7117
622.8355, 99.72437
623.3176, 100.1304
623.7997, 99.94404
624.2819, 97.68851
624.7640, 95.50468
625.2461, 95.97136
625.7282, 98.98727
626.2103, 101.4771
626.6924, 100.4780
627.1745, 97.49004
627.6566, 96.52145
628.1387, 97.75810
628.6208, 98.23479
629.1030, 96.20276
629.5851, 93.63589
630.0672, 93.97624
630.5493, 97.39922
631.0314, 99.60688
631.5135, 98.88139
631.9957, 97.80360
632.4778, 98.26810
632.9599, 99.58486
633.4420, 100.0336
633.9241, 98.99221
634.4063, 97.53932
634.8884, 97.27000
635.3705, 98.37234
635.8526, 99.09464
636.3347, 99.45910
636.8168, 99.37330
637.2990, 98.57310
637.7811, 97.47089
638.2632, 96.31022
638.7453, 95.09346
639.2274, 94.79498
639.7095, 97.21655
640.1917, 100.5871
640.6738, 101.3519
641.1559, 99.39072
641.6380, 97.40725
642.1201, 96.68028
642.6022, 97.14368
643.0844, 98.85326
643.5665, 103.6475
644.0486, 105.6993
644.5307, 102.5977
645.0128, 99.10271
645.4949, 97.80904
645.9771, 98.13227
646.4592, 98.62032
646.9413, 98.65153
647.4234, 98.21204
647.9055, 96.74639
648.3876, 94.30938
648.8698, 94.03211
649.3519, 97.24313
649.8340, 100.1429
650.3161, 99.98568
650.7982, 97.99917
651.2803, 96.58585
651.7625, 96.00974
652.2446, 95.74117
652.7267, 95.51381
653.2088, 95.53170
653.6909, 96.32095
654.1730, 97.67430
654.6552, 98.64400
655.1373, 98.66103
655.6194, 97.88136
656.1015, 96.56465
656.5836, 94.21908
657.0657, 92.62120
657.5479, 91.90652
658.0300, 91.96000
658.5121, 93.44112
658.9942, 95.55859
659.4763, 96.63936
659.9584, 95.82347
660.4406, 94.88563
660.9227, 95.76750
661.4048, 97.72164
661.8869, 98.87660
662.3690, 98.95458
662.8511, 98.22820
663.3333, 96.59524
663.8154, 94.47846
664.2975, 93.66785
664.7796, 95.66874
665.2617, 96.86648
665.7438, 96.60529
666.2260, 96.02502
666.7081, 95.80860
667.1902, 95.94256
667.6723, 96.16969
668.1544, 96.36780
668.6365, 96.55354
669.1187, 96.75948
669.6008, 96.98427
670.0829, 97.22119
670.5650, 97.53115
671.0471, 97.68597
671.5292, 97.47827
672.0114, 96.97097
672.4935, 96.38403
672.9756, 95.24300
673.4577, 94.85719
673.9398, 96.52907
674.4219, 98.50459
674.9041, 98.85571
675.3862, 97.77253
675.8683, 96.81548
676.3504, 96.96857
676.8325, 97.72738
677.3146, 97.74773
677.7968, 96.70469
678.2789, 96.58167
678.7610, 98.50255
679.2431, 100.1906
679.7252, 99.91186
680.2073, 98.51760
680.6895, 97.79855
681.1716, 98.45116
681.6537, 98.98242
682.1358, 97.67893
682.6179, 96.14030
683.1000, 97.37099
683.5822, 101.1805
684.0643, 104.2227
684.5464, 104.2901
685.0285, 102.2334
685.5106, 100.3302
685.9927, 98.10924
686.4749, 97.16003
686.9570, 98.71078
687.4391, 100.3951
687.9212, 101.1684
688.4033, 101.3507
688.8854, 101.7551
689.3676, 102.8073
689.8497, 103.3504
690.3318, 101.6578
690.8139, 98.93895
691.2960, 97.77943
691.7781, 98.43607
692.2603, 100.2366
692.7424, 103.1790
693.2245, 106.2866
693.7066, 106.8870
694.1887, 102.8896
694.6708, 100.5822
695.1530, 100.9587
695.6351, 101.8735
696.1172, 102.9633
696.5993, 103.6828
697.0814, 102.9247
697.5635, 100.2180
698.0457, 97.65849
698.5278, 97.64907
699.0099, 99.47938
699.4920, 100.8781
699.9741, 101.6573
700.4562, 102.4133
700.9384, 103.5241
701.4205, 104.7195
701.9026, 105.4492
702.3847, 105.7169
702.8668, 105.4372
703.3489, 103.3436
703.8311, 102.0161
704.3132, 103.7138
704.7953, 106.6859
705.2774, 107.9650
705.7595, 106.6785
706.2416, 104.7735
706.7238, 104.3988
707.2059, 105.1847
707.6880, 105.4678
708.1701, 105.1618
708.6522, 104.8629
709.1343, 104.9652
709.6164, 105.0202
710.0985, 104.0695
710.5806, 101.8277
711.0627, 100.6977
711.5449, 102.0817
712.0270, 103.2553
712.5091, 102.4352
712.9912, 100.8191
713.4733, 100.1613
713.9554, 100.8449
714.4376, 102.0282
714.9197, 103.3535
715.4018, 104.3980
715.8839, 102.7261
716.3660, 97.67071
716.8481, 95.04932
717.3303, 97.57929
717.8124, 101.9982
718.2945, 105.1657
718.7766, 107.0958
719.2587, 107.5198
719.7408, 104.6920
720.2230, 102.3753
720.7051, 102.3665
721.1872, 103.4846
721.6693, 104.5604
722.1514, 105.2834
722.6335, 105.5794
723.1157, 105.2618
723.5978, 104.7103
724.0799, 105.2944
724.5620, 107.2608
725.0441, 107.6297
725.5262, 104.8927
726.0084, 102.1357
726.4905, 102.4230
726.9726, 104.8576
727.4547, 105.9019
727.9368, 104.3409
728.4189, 103.0077
728.9011, 102.9415
729.3832, 103.3269
729.8653, 103.6178
730.3474, 103.6453
730.8295, 103.1085
731.3116, 101.7744
731.7938, 100.3645
732.2759, 100.3084
732.7580, 101.6314
733.2401, 102.6208
733.7222, 103.1552
734.2043, 103.2728
734.6865, 102.4512
735.1686, 101.4637
735.6507, 102.2066
736.1328, 105.5269
736.6149, 107.6244
737.0970, 106.9017
737.5792, 105.4857
738.0613, 104.5791
738.5434, 104.1666
739.0255, 104.0091
739.5076, 104.0091
739.9897, 104.1104
740.4719, 104.0371
740.9540, 103.9359
741.4361, 105.2142
741.9182, 108.3044
742.4003, 110.5167
742.8824, 110.6525
743.3646, 109.6784
743.8467, 108.4728
744.3288, 106.9983
744.8109, 106.6696
745.2930, 108.8583
745.7751, 110.7459
746.2573, 110.6848
746.7394, 109.9843
747.2215, 110.6481
747.7036, 112.6053
748.1857, 113.6717
748.6678, 111.8839
749.1500, 108.6592
749.6321, 107.3117
750.1142, 107.8390
750.5963, 108.0449
751.0784, 107.3473
751.5605, 106.6940
752.0427, 106.8290
752.5248, 107.6638
753.0069, 108.6908
753.4890, 110.4091
753.9711, 111.5297
754.4532, 111.2135
754.9354, 110.8488
755.4175, 111.8924
755.8996, 113.6382
756.3817, 114.2450
756.8638, 112.8866
757.3459, 110.9408
757.8281, 109.6264
758.3102, 109.0698
758.7923, 110.1209
759.2744, 112.9140
759.7565, 115.5610
760.2386, 117.2369
760.7208, 118.1016
761.2029, 118.3087
761.6850, 117.5326
762.1671, 117.4489
762.6492, 118.6858
763.1313, 119.8077
763.6135, 120.1838
764.0956, 120.3221
764.5777, 120.8453
765.0598, 121.8007
765.5419, 122.6979
766.0240, 122.9124
766.5062, 123.1640
766.9883, 124.7918
767.4704, 127.4243
767.9525, 129.3938
768.4346, 130.2898
768.9167, 131.0418
769.3989, 132.6363
769.8810, 134.7185
770.3631, 134.8994
770.8452, 130.9620
771.3273, 129.1756
771.8094, 131.2144
772.2916, 134.1982
772.7737, 136.8234
773.2558, 139.2153
773.7379, 141.9311
774.2200, 145.2869
774.7021, 148.2650
775.1843, 149.9532
775.6664, 150.9949
776.1485, 151.8789
776.6306, 152.8890
777.1127, 155.0386
777.5948, 158.8209
778.0770, 162.9684
778.5591, 165.3681
779.0412, 165.8824
779.5233, 167.7953
780.0054, 171.8275
780.4875, 175.7481
780.9697, 178.5470
781.4518, 181.1300
781.9339, 184.7696
782.4160, 189.3058
782.8981, 192.4536
783.3802, 191.6991
783.8624, 191.6828
784.3445, 195.3946
784.8266, 200.8835
785.3087, 206.0694
785.7908, 210.4228
786.2729, 213.6032
786.7551, 215.1552
787.2372, 216.3105
787.7193, 219.8109
788.2014, 225.6125
788.6835, 230.8079
789.1656, 234.6821
789.6478, 239.4769
790.1299, 247.3349
790.6120, 256.5014
791.0941, 262.4931
791.5762, 264.2537
792.0583, 266.2535
792.5404, 269.2882
793.0225, 271.9973
793.5046, 273.7564
793.9868, 274.8104
794.4689, 275.4399
794.9510, 275.7530
795.4331, 275.9676
795.9152, 276.4019
796.3973, 276.7305
796.8795, 276.5141
797.3616, 275.7232
797.8437, 274.1454
798.3258, 271.7086
798.8079, 268.8274
799.2900, 265.8064
799.7722, 262.6831
800.2543, 259.8478
800.7364, 257.9293
801.2185, 254.9917
801.7006, 250.2564
802.1827, 245.0949
802.6649, 239.6589
803.1470, 234.3937
803.6291, 230.3214
804.1112, 227.9503
804.5933, 225.1603
805.0754, 220.1526
805.5576, 214.8512
806.0397, 211.4192
806.5218, 209.2882
807.0039, 206.8821
807.4860, 203.6512
807.9681, 199.7689
808.4503, 195.1537
808.9324, 190.1363
809.4145, 186.8757
809.8966, 185.7632
810.3787, 183.7754
810.8608, 179.6947
811.3430, 175.4151
811.8251, 172.7478
812.3072, 171.4490
812.7893, 169.7038
813.2714, 167.4143
813.7535, 164.8449
814.2357, 161.7777
814.7178, 158.6828
815.1999, 155.6258
815.6820, 152.8816
816.1641, 151.0672
816.6462, 150.4201
817.1284, 149.8870
817.6105, 148.6670
818.0926, 146.8495
818.5747, 144.2014
819.0568, 140.9680
819.5389, 138.6748
820.0211, 137.8870
820.5032, 137.7422
820.9853, 137.3721
821.4674, 136.7410
821.9495, 135.3024
822.4316, 132.7163
822.9138, 130.0244
823.3959, 127.1152
823.8780, 124.4502
824.3601, 122.4752
824.8422, 120.9732
825.3243, 119.2976
825.8065, 116.9722
826.2886, 115.3952
826.7707, 115.8360
827.2528, 116.6267
827.7349, 116.0193
828.2170, 114.6035
828.6992, 114.0918
829.1813, 115.0226
829.6634, 116.0539
830.1455, 115.6912
830.6276, 114.2845
831.1097, 112.6188
831.5919, 110.7265
832.0740, 110.6839
832.5561, 113.6875
833.0382, 116.0674
833.5203, 113.8143
834.0024, 107.7831
834.4846, 104.4340
834.9667, 105.4113
835.4488, 106.4643
835.9309, 108.0833
836.4130, 109.0077
836.8951, 108.2064
837.3773, 106.3809
837.8594, 104.6115
838.3415, 103.0384
838.8236, 102.3153
839.3057, 103.0960
839.7878, 104.6111
840.2700, 106.9694
840.7521, 109.2799
841.2342, 109.5300
841.7163, 107.3465
842.1984, 104.3226
842.6805, 101.7689
843.1627, 99.70340
843.6448, 98.20287
844.1269, 97.27537
844.6090, 96.90495
845.0911, 97.19851
845.5732, 97.68311
846.0554, 98.03295
846.5375, 98.33699
847.0196, 98.88954
847.5017, 100.0638
847.9838, 100.6088
848.4659, 100.0602
848.9481, 99.44547
849.4302, 99.28572
849.9123, 99.19714
850.3944, 98.49673
850.8765, 97.20287
851.3586, 96.39624
851.8408, 97.24511
852.3229, 98.17539
852.8050, 97.79096
853.2871, 96.59039
853.7692, 95.08005
854.2513, 93.56787
854.7335, 92.92100
855.2156, 93.77781
855.6977, 95.20426
856.1798, 95.35015
856.6619, 94.26651
857.1440, 93.55716
857.6262, 93.36860
858.1083, 93.19901
858.5904, 92.86168
859.0725, 92.37766
859.5546, 91.62985
860.0367, 90.52079
860.5189, 90.34028
861.0010, 91.51079
861.4831, 93.00069
861.9652, 95.60224
862.4473, 97.65392
862.9294, 97.55107
863.4116, 95.86789
863.8937, 94.41257
864.3758, 93.82224
864.8579, 93.21508
865.3400, 91.57612
865.8221, 89.97445
866.3043, 89.71239
866.7864, 90.54266
867.2685, 91.82365
867.7506, 93.25419
868.2327, 94.30460
868.7148, 94.32883
869.1970, 93.59133
869.6791, 92.74907
870.1612, 91.80432
870.6433, 91.95515
871.1254, 93.77373
871.6075, 95.11728
872.0897, 94.01845
872.5718, 91.48946
873.0539, 90.95155
873.5360, 94.11092
874.0181, 95.34602
874.5002, 92.53783
874.9823, 90.22823
875.4644, 90.00721
875.9465, 90.97314
876.4286, 92.42605
876.9108, 94.19748
877.3929, 95.27731
877.8750, 94.73452
878.3571, 94.08965
878.8392, 94.42031
879.3214, 94.96481
879.8035, 94.79697
880.2856, 93.93538
880.7677, 92.81133
881.2498, 91.60812
881.7319, 90.57764
882.2141, 89.92001
882.6962, 89.70126
883.1783, 90.27040
883.6604, 91.57008
884.1425, 92.90017
884.6246, 94.00859
885.1068, 95.15235
885.5889, 96.77827
886.0710, 98.65294
886.5531, 98.68279
887.0352, 95.90993
887.5173, 94.11465
887.9995, 94.23484
888.4816, 94.76977
888.9637, 95.34785
889.4458, 95.52662
889.9279, 94.04301
890.4100, 90.03504
890.8922, 87.86201
891.3743, 89.79143
891.8564, 91.74995
892.3385, 91.98740
892.8206, 91.20358
893.3027, 89.78028
893.7849, 88.14016
894.2670, 87.58669
894.7491, 89.33952
895.2312, 91.15443
895.7133, 90.47500
896.1954, 88.73680
896.6776, 88.30923
897.1597, 89.15491
897.6418, 90.19340
898.1239, 90.94417
898.6060, 91.30276
899.0881, 91.14065
899.5703, 90.47024
900.0524, 88.98635
900.5345, 86.58643
901.0166, 85.62084
901.4987, 86.88230
901.9808, 88.76670
902.4630, 90.15494
902.9451, 91.04586
903.4272, 91.40023
903.9093, 90.92149
904.3914, 90.61220
904.8735, 91.34294
905.3557, 91.13351
905.8378, 87.70860
906.3199, 84.04612
906.8020, 84.00620
907.2841, 87.49942
907.7662, 89.93163
908.2484, 89.77042
908.7305, 88.91041
909.2126, 87.33119
909.6947, 86.00523
910.1768, 85.74503
910.6589, 86.52686
911.1411, 88.48572
911.6232, 91.72526
912.1053, 93.99775
912.5874, 92.18377
913.0695, 88.94533
913.5516, 88.78308
914.0338, 90.76115
914.5159, 91.68009
914.9980, 90.82999
915.4801, 89.54105
915.9622, 88.79436
916.4443, 88.49120
916.9265, 88.69404
917.4086, 89.39597
917.8907, 88.26956
918.3728, 84.50728
918.8549, 82.92038
919.3370, 86.44951
919.8192, 91.48130
920.3013, 92.83463
920.7834, 90.38965
921.2655, 89.63411
921.7476, 92.04705
922.2297, 93.59276
922.7119, 93.44856
923.1940, 92.54707
923.6761, 90.60034
924.1582, 88.47743
924.6403, 88.14226
925.1224, 90.26710
925.6046, 91.95532
926.0867, 92.04160
926.5688, 92.02941
927.0509, 92.99068
927.5330, 94.11640
928.0151, 94.60605
928.4973, 94.27534
928.9794, 92.91277
929.4615, 89.92175
929.9436, 87.28404
930.4257, 86.63681
930.9078, 87.46340
931.3900, 89.92286
931.8721, 93.12035
932.3542, 94.22469
932.8363, 92.44102
933.3184, 90.36429
933.8005, 90.72073
934.2827, 90.15659
934.7648, 90.44006
935.2469, 91.81559
935.7290, 92.34046
936.2111, 94.88867
936.6932, 96.87131
937.1754, 96.57579
937.6575, 98.68523
938.1396, 96.66859
938.6217, 100.3825
939.1038, 102.2995
939.5859, 102.1670
940.0681, 100.7213
940.5502, 96.51652
941.0323, 93.31981
941.5144, 95.17229
941.9965, 100.6934
942.4786, 103.9592
942.9608, 103.4446
943.4429, 103.9551
943.9250, 107.1780
944.4071, 109.6946
944.8892, 109.2057
945.3713, 107.8797
945.8535, 108.2284
946.3356, 110.3207
946.8177, 112.6247
947.2998, 115.7065
947.7819, 117.2959
948.2640, 114.5510
948.7462, 111.2742
949.2283, 110.7576
949.7104, 112.6586
950.1925, 116.2460
950.6746, 121.0554
951.1567, 124.5515
951.6389, 123.4481
952.1210, 121.1492
952.6031, 122.6337
953.0852, 126.1232
953.5673, 127.5009
954.0494, 126.5398
954.5316, 125.5266
955.0137, 125.6565
955.4958, 127.0182
955.9779, 130.9827
956.4600, 136.4223
956.9421, 136.5650
957.4242, 131.6711
957.9063, 129.5954
958.3884, 132.5340
958.8705, 136.6252
959.3527, 138.8739
959.8348, 139.7097
960.3169, 140.1101
960.7990, 139.7851
961.2811, 140.7576
961.7632, 143.6425
962.2454, 146.2329
962.7275, 147.9154
963.2096, 148.6531
963.6917, 148.2603
964.1738, 146.8203
964.6559, 145.2350
965.1381, 144.1044
965.6202, 141.8512
966.1023, 137.1357
966.5844, 132.8059
967.0665, 130.1687
967.5486, 128.5732
968.0308, 127.5291
968.5129, 126.9526
968.9950, 125.2581
969.4771, 120.8331
969.9592, 116.9415
970.4413, 115.2796
970.9235, 114.0505
971.4056, 111.4593
971.8877, 108.2707
972.3698, 106.3954
972.8519, 106.3514
973.3340, 106.3415
973.8162, 105.2361
974.2983, 103.8741
974.7804, 103.3773
975.2625, 102.8107
975.7446, 100.0499
976.2267, 95.83089
976.7089, 93.52544
977.1910, 94.81081
977.6731, 96.65540
978.1552, 95.50351
978.6373, 93.07499
979.1194, 92.33873
979.6016, 92.94910
980.0837, 93.75212
980.5658, 94.43766
981.0479, 94.95383
981.5300, 95.27645
982.0121, 95.34528
982.4943, 94.77308
982.9764, 93.79201
983.4585, 94.07053
983.9406, 95.58409
984.4227, 95.92436
984.9048, 94.23044
985.3870, 92.57716
985.8691, 92.96764
986.3512, 94.65381
986.8333, 95.14104
987.3154, 94.26958
987.7975, 93.52477
988.2797, 93.07343
988.7618, 92.29607
989.2439, 90.71244
989.7260, 89.20353
990.2081, 88.85807
990.6902, 89.54687
991.1724, 90.04859
991.6545, 90.43201
992.1366, 90.44355
992.6187, 89.73530
993.1008, 89.14808
993.5829, 88.95348
994.0651, 89.16848
994.5472, 90.08480
995.0293, 91.72653
995.5114, 92.50505
995.9935, 91.73447
996.4756, 91.07297
996.9578, 90.43848
997.4399, 90.27251
997.9220, 91.31027
998.4041, 92.75258
998.8862, 93.46436
999.3683, 93.31349
999.8505, 92.39165
1000.333, 88.99052
1000.815, 87.09985
1001.297, 90.10416
1001.779, 93.50786
1002.261, 92.98654
1002.743, 90.13042
1003.225, 88.79774
1003.707, 89.95307
1004.190, 91.03564
1004.672, 90.48031
1005.154, 89.75874
1005.636, 89.90411
1006.118, 90.39832
1006.600, 90.56567
1007.082, 90.49153
1007.564, 90.95387
1008.046, 92.25964
1008.529, 92.48489
1009.011, 88.44964
1009.493, 84.05978
1009.975, 84.46577
1010.457, 87.28825
1010.939, 88.17969
1011.421, 86.91886
1011.903, 85.49906
1012.385, 84.85931
1012.868, 85.33975
1013.350, 88.47237
1013.832, 92.33126
1014.314, 92.97275
1014.796, 91.28391
1015.278, 89.56719
1015.760, 88.46888
1016.242, 88.97173
1016.725, 91.78010
1017.207, 94.77182
1017.689, 94.58942
1018.171, 92.06538
1018.653, 89.76351
1019.135, 87.83742
1019.617, 87.22505
1020.099, 88.09250
1020.581, 89.38482
1021.064, 90.46822
1021.546, 91.05554
1022.028, 90.20283
1022.510, 88.13277
1022.992, 87.76259
1023.474, 89.14613
1023.956, 89.79334
1024.438, 88.98699
1024.921, 88.28652
1025.403, 88.94752
1025.885, 90.27348
1026.367, 90.58667
1026.849, 89.81799
1027.331, 89.08802
1027.813, 88.35719
1028.295, 87.89917
1028.777, 87.83481
1029.260, 87.90764
1029.742, 87.93685
1030.224, 87.91267
1030.706, 87.73408
1031.188, 87.24413
1031.670, 87.66273
1032.152, 89.80859
1032.634, 90.32301
1033.116, 87.47295
1033.599, 84.20687
1034.081, 82.85124
1034.563, 83.04018
1035.045, 83.72688
1035.527, 85.24494
1036.009, 86.09239
1036.491, 86.05835
1036.973, 85.72599
1037.456, 84.89690
1037.938, 84.30128
1038.420, 85.02654
1038.902, 86.38448
1039.384, 85.83591
1039.866, 81.99258
1040.348, 80.16370
1040.830, 81.14896
1041.313, 83.01412
1041.795, 85.80534
1042.277, 88.81729
1042.759, 92.41264
1043.241, 95.74156
1043.723, 95.73435
1044.205, 90.46406
1044.687, 87.16740
1045.169, 87.58497
1045.651, 88.10377
1046.134, 87.73069
1046.616, 87.06471
1047.098, 86.17622
1047.580, 85.44422
1048.062, 86.06594
1048.544, 88.78207
1049.026, 90.60703
1049.508, 91.41275
1049.991, 90.93108
1050.473, 87.37041
1050.955, 83.98527
1051.437, 83.97910
1051.919, 86.27602
1052.401, 87.67195
1052.883, 87.59004
1053.365, 87.19240
1053.848, 85.58704
1054.330, 85.16013
1054.812, 88.10791
1055.294, 91.49557
1055.776, 92.90549
1056.258, 92.66879
1056.740, 91.90482
1057.222, 90.70884
1057.704, 89.68279
1058.187, 88.72452
1058.669, 88.31261
1059.151, 89.29951
1059.633, 90.35503
1060.115, 90.16028
1060.597, 89.14573
1061.079, 88.43091
1061.561, 88.25237
1062.043, 88.21532
1062.526, 88.38697
1063.008, 88.41210
1063.490, 87.76344
1063.972, 87.22653
1064.454, 87.96462
1064.936, 89.20760
1065.418, 89.13197
1065.900, 87.34720
1066.383, 85.87305
1066.865, 85.72256
1067.347, 85.75826
1067.829, 85.45026
1068.311, 85.10367
1068.793, 85.12663
1069.275, 85.26450
1069.757, 84.69666
1070.240, 83.35392
1070.722, 83.10744
1071.204, 85.71636
1071.686, 88.30454
1072.168, 89.99214
1072.650, 90.67911
1073.132, 89.59775
1073.614, 87.77907
1074.096, 86.85535
1074.578, 87.08971
1075.061, 87.79989
1075.543, 89.31005
1076.025, 90.28944
1076.507, 89.73079
1076.989, 88.75432
1077.471, 88.08793
1077.953, 87.68273
1078.435, 87.55746
1078.918, 87.57018
1079.400, 86.92293
1079.882, 84.57289
1080.364, 83.09616
1080.846, 84.66393
1081.328, 86.55855
1081.810, 86.93637
1082.292, 86.32219
1082.774, 85.04528
1083.257, 83.57591
1083.739, 83.44688
1084.221, 85.66762
1084.703, 87.76432
1085.185, 88.63683
1085.667, 88.97142
1086.149, 88.77750
1086.631, 88.61292
1087.114, 89.54086
1087.596, 91.06966
1088.078, 91.17756
1088.560, 88.86732
1089.042, 87.18759
1089.524, 87.84303
1090.006, 88.94405
1090.488, 90.03708
1090.970, 90.53919
1091.453, 89.57844
1091.935, 87.62673
1092.417, 85.68175
1092.899, 83.84151
1093.381, 83.40303
1093.863, 86.96309
1094.345, 89.30581
1094.827, 86.54733
1095.309, 82.89420
1095.792, 81.42625
1096.274, 82.01064
1096.756, 84.43376
1097.238, 88.61671
1097.720, 91.22294
1098.202, 89.96029
1098.684, 88.70702
1099.166, 89.28279
1099.649, 89.78885
1100.131, 88.00012
1100.613, 85.76342
1101.095, 86.45787
1101.577, 90.06480
1102.059, 92.27961
1102.541, 91.41590
1103.023, 90.15182
1103.505, 88.62772
1103.988, 87.41380
1104.470, 87.19298
1104.952, 87.18803
1105.434, 86.18318
1105.916, 84.47050
1106.398, 83.88848
1106.880, 85.40840
1107.362, 86.40013
1107.844, 85.26836
1108.327, 85.05723
1108.809, 88.31749
1109.291, 91.77241
1109.773, 92.39511
1110.255, 90.81511
1110.737, 88.96390
1111.219, 86.58562
1111.701, 85.42356
1112.184, 86.67215
1112.666, 87.65792
1113.148, 88.40530
1113.630, 88.10766
1114.112, 84.71807
1114.594, 80.53065
1115.076, 80.17065
1115.558, 84.13737
1116.041, 86.92745
1116.523, 88.06663
1117.005, 88.80424
1117.487, 88.90882
1117.969, 89.15721
1118.451, 90.38874
1118.933, 91.50716
1119.415, 90.88683
1119.897, 88.73133
1120.380, 87.26508
1120.862, 86.64310
1121.344, 86.36498
1121.826, 86.56345
1122.308, 86.74084
1122.790, 86.49981
1123.272, 86.63322
1123.754, 88.26382
1124.236, 87.64828
1124.719, 90.75497
1125.201, 88.00003
1125.683, 86.89933
1126.165, 87.87292
1126.647, 88.92048
1127.129, 89.59446
1127.611, 90.13195
1128.093, 90.64662
1128.576, 91.24929
1129.058, 92.31065
1129.540, 93.75234
1130.022, 93.94270
1130.504, 92.86784
1130.986, 89.95462
1131.468, 84.70074
1131.950, 82.57298
1132.432, 86.70853
1132.915, 91.61771
1133.397, 90.21835
1133.879, 84.78853
1134.361, 84.01709
1134.843, 87.36181
1135.325, 87.90716
1135.807, 85.37675
1136.289, 84.67331
1136.771, 87.33204
1137.254, 90.02483
1137.736, 90.09692
1138.218, 88.45066
1138.700, 85.83987
1139.182, 83.05450
1139.664, 83.46496
1140.146, 86.23389
1140.628, 87.21412
1141.111, 85.94677
1141.593, 85.49154
1142.075, 87.48990
1142.557, 89.46545
1143.039, 88.34839
1143.521, 85.60998
1144.003, 82.78912
1144.485, 80.64003
1144.968, 81.45256
1145.450, 84.37858
1145.932, 85.80651
1146.414, 84.86277
1146.896, 85.04064
1147.378, 89.78368
1147.860, 94.57991
1148.342, 94.82454
1148.824, 92.92948
1149.307, 90.92693
1149.789, 89.29906
1150.271, 88.79031
1150.753, 89.16354
1151.235, 88.91207
1151.717, 87.17072
1152.199, 85.96874
1152.681, 87.07876
1153.163, 88.39034
1153.646, 88.58336
1154.128, 88.19873
1154.610, 87.70911
1155.092, 87.20306
1155.574, 86.52873
1156.056, 85.63108
1156.538, 85.64226
1157.020, 88.45408
1157.503, 89.96300
1157.985, 87.40833
1158.467, 84.96821
1158.949, 85.89134
1159.431, 87.90485
1159.913, 87.42347
1160.395, 84.81896
1160.877, 84.37962
1161.359, 87.94295
1161.842, 90.45853
1162.324, 91.71107
1162.806, 92.16647
1163.288, 91.84498
1163.770, 90.86910
1164.252, 89.10019
1164.734, 86.88825
1165.216, 84.80904
1165.698, 82.73174
1166.181, 82.84473
1166.663, 85.90451
1167.145, 88.41785
1167.627, 90.02498
1168.109, 90.49628
1168.591, 89.41224
1169.073, 88.24067
1169.555, 88.80568
1170.037, 90.50741
1170.520, 90.98769
1171.002, 90.28636
1171.484, 90.14331
1171.966, 90.61913
1172.448, 91.17815
1172.930, 91.65438
1173.412, 90.70888
1173.894, 87.25186
1174.377, 83.70004
1174.859, 83.99971
1175.341, 86.87112
1175.823, 89.45740
1176.305, 91.44779
1176.787, 91.80860
1177.269, 90.58241
1177.751, 87.89662
1178.234, 84.09344
1178.716, 81.99628
1179.198, 84.51657
1179.680, 88.08302
1180.162, 88.79519
1180.644, 88.26276
1181.126, 88.21460
1181.608, 88.62463
1182.090, 89.56529
1182.573, 90.66393
1183.055, 90.61980
1183.537, 88.77821
1184.019, 87.02407
1184.501, 86.47706
1184.983, 86.12601
1185.465, 84.96343
1185.947, 84.17311
1186.429, 85.07381
1186.912, 86.96347
1187.394, 88.48605
1187.876, 89.51604
1188.358, 90.79652
1188.840, 93.91223
1189.322, 94.94082
1189.804, 91.29296
1190.286, 88.37119
1190.769, 88.30661
1191.251, 89.44053
1191.733, 91.09277
1192.215, 92.53269
1192.697, 91.56116
1193.179, 87.69958
1193.661, 85.52952
1194.143, 85.13266
1194.625, 86.60221
1195.108, 90.79919
1195.590, 93.07696
1196.072, 90.84348
1196.554, 87.20134
1197.036, 85.58361
1197.518, 85.59803
1198.000, 86.47204
1198.482, 87.99705
1198.964, 87.96289
1199.447, 86.55580
1199.929, 86.48957
1200.411, 88.14903
1200.893, 88.53526
1201.375, 85.85828
1201.857, 82.92992
1202.339, 83.12256
1202.821, 85.02348
1203.304, 86.86013
1203.786, 88.41092
1204.268, 89.30971
1204.750, 89.56297
1205.232, 89.05219
1205.714, 87.92892
1206.196, 87.10270
1206.678, 87.01900
1207.161, 87.38630
1207.643, 88.32807
1208.125, 89.31441
1208.607, 89.90335
1209.089, 90.41161
1209.571, 91.74741
1210.053, 93.12842
1210.535, 92.23463
1211.017, 88.54459
1211.500, 86.66545
1211.982, 88.93870
1212.464, 90.46310
1212.946, 90.07758
1213.428, 89.52592
1213.910, 89.52638
1214.392, 89.49831
1214.874, 88.59586
1215.356, 87.42282
1215.839, 88.03785
1216.321, 90.77585
1216.803, 92.05620
1217.285, 91.76567
1217.767, 90.49844
1218.249, 88.18155
1218.731, 86.67126
1219.213, 86.90225
1219.696, 87.89192
1220.178, 88.74711
1220.660, 89.14433
1221.142, 87.70524
1221.624, 85.30338
1222.106, 85.08587
1222.588, 86.61513
1223.070, 87.94308
1223.552, 88.70025
1224.035, 89.42296
1224.517, 90.36429
1224.999, 90.98164
1225.481, 90.57832
1225.963, 89.91604
1226.445, 89.52184
1226.927, 89.37802
1227.409, 90.07175
1227.891, 90.67413
1228.374, 89.14819
1228.856, 85.87501
1229.338, 84.07905
1229.820, 85.07948
1230.302, 85.91238
1230.784, 85.12247
1231.266, 85.15057
1231.748, 88.18983
1232.231, 90.66996
1232.713, 89.98849
1233.195, 87.79478
1233.677, 86.20653
1234.159, 85.24252
1234.641, 85.10558
1235.123, 85.90180
1235.605, 87.05587
1236.088, 88.57724
1236.570, 90.47691
1237.052, 92.87128
1237.534, 94.51127
1238.016, 94.53848
1238.498, 93.85820
1238.980, 93.76925
1239.462, 93.93403
1239.944, 93.42809
1240.427, 92.40523
1240.909, 90.95066
1241.391, 89.45182
1241.873, 89.13553
1242.355, 90.11911
1242.837, 91.48325
1243.319, 92.95487
1243.801, 93.19706
1244.283, 89.88646
1244.766, 86.50978
1245.248, 85.11114
1245.730, 85.51962
1246.212, 88.95811
1246.694, 93.29136
1247.176, 94.68726
1247.658, 93.05247
1248.140, 92.08700
1248.622, 92.73618
1249.105, 93.21358
1249.587, 93.71121
1250.069, 93.47369
1250.551, 91.64960
1251.033, 90.26820
1251.515, 90.75420
1251.997, 92.15882
1252.479, 93.28815
1252.962, 93.93625
1253.444, 92.40182
1253.926, 88.75762
1254.408, 87.26172
1254.890, 88.04903
1255.372, 89.80617
1255.854, 92.01800
1256.336, 93.15823
1256.818, 92.33047
1257.301, 90.47029
1257.783, 87.70086
1258.265, 85.53692
1258.747, 86.75584
1259.229, 89.37350
1259.711, 90.94254
1260.193, 91.59509
1260.675, 91.86165
1261.157, 91.97476
1261.640, 92.40495
1262.122, 93.47021
1262.604, 93.97517
1263.086, 92.67810
1263.568, 91.99229
1264.050, 93.30820
1264.532, 94.75645
1265.014, 95.63447
1265.497, 95.67142
1265.979, 94.20947
1266.461, 91.73853
1266.943, 90.32485
1267.425, 90.05815
1267.907, 90.31045
1268.389, 91.14211
1268.871, 91.75605
1269.354, 92.00267
1269.836, 92.75229
1270.318, 94.42044
1270.800, 95.84209
1271.282, 95.78621
1271.764, 95.13305
1272.246, 95.32685
1272.728, 95.88982
1273.210, 96.43248
1273.693, 96.45947
1274.175, 94.40379
1274.657, 91.12696
1275.139, 89.44132
1275.621, 90.09432
1276.103, 91.69245
1276.585, 94.85780
1277.067, 96.87341
1277.549, 96.47861
1278.032, 95.20825
1278.514, 92.88174
1278.996, 90.89214
1279.478, 90.54910
1279.960, 91.24813
1280.442, 91.90535
1280.924, 92.51334
1281.406, 92.80607
1281.889, 93.08306
1282.371, 92.78526
1282.853, 93.01514
1283.335, 92.88113
1283.817, 92.24478
1284.299, 92.64416
1284.781, 95.14608
1285.263, 97.75551
1285.745, 98.42284
1286.228, 97.14072
##END=



