##NAMES=Richterite
##RRUFFID=R060471
##IDEAL CHEMISTRY=Na(CaNa)Mg_5_Si_8_O_22_(OH)_2_
##LOCALITY=Kipawa Complex, Villedieu Township, Quebec, Canada
##OWNER=RRUFF
##SOURCE=Michael Scott
##DESCRIPTION=Black platy fragment embedded in albite
##STATUS=The identification of this mineral has been confirmed by X-ray diffraction and chemical analysis
##URL=rruff.info/R060471
##MEASURED CHEMISTRY=(Na_0.52_K_0.40_[box]_0.08_)(Na_1.60_Ca_0.40_)_&#931;=2_(Mg_4.25_Mn_0.75_)_&#931;=5_Si_8_O_22_(OH)_2_
157.0852, 105.1227
157.5673, 113.6743
158.0495, 121.5874
158.5316, 126.3690
159.0137, 124.8433
159.4958, 124.0254
159.9779, 126.1069
160.4600, 130.4210
160.9422, 134.7899
161.4243, 138.3188
161.9064, 141.7513
162.3885, 145.6137
162.8706, 150.8727
163.3527, 155.6603
163.8349, 158.7775
164.3170, 160.5967
164.7991, 162.8970
165.2812, 167.5963
165.7633, 172.6878
166.2454, 176.3195
166.7276, 176.3079
167.2097, 176.1546
167.6918, 177.9542
168.1739, 181.5412
168.6560, 185.6565
169.1381, 189.8130
169.6203, 193.9389
170.1024, 196.7123
170.5845, 198.2934
171.0666, 200.2837
171.5487, 204.3808
172.0309, 210.3394
172.5130, 214.7381
172.9951, 213.8379
173.4772, 210.0738
173.9593, 207.2222
174.4414, 206.8789
174.9236, 208.0649
175.4057, 210.2976
175.8878, 213.5997
176.3699, 216.3867
176.8520, 217.2090
177.3341, 216.5648
177.8163, 215.5181
178.2984, 213.8419
178.7805, 212.2630
179.2626, 212.1631
179.7447, 213.6578
180.2268, 215.4174
180.7090, 216.1607
181.1911, 216.0826
181.6732, 215.7533
182.1553, 215.5947
182.6374, 215.3488
183.1195, 214.1167
183.6017, 211.6440
184.0838, 209.4522
184.5659, 209.5397
185.0480, 211.5557
185.5301, 213.7649
186.0123, 214.9262
186.4944, 215.5844
186.9765, 217.7331
187.4586, 221.7680
187.9407, 226.1266
188.4228, 228.5012
188.9050, 229.0423
189.3871, 229.3864
189.8692, 230.2627
190.3513, 231.6049
190.8334, 233.1577
191.3155, 234.9212
191.7977, 236.8359
192.2798, 239.0309
192.7619, 241.5095
193.2440, 243.5007
193.7261, 244.0449
194.2082, 243.3671
194.6904, 244.1844
195.1725, 246.7682
195.6546, 250.6111
196.1367, 255.1020
196.6188, 260.3611
197.1009, 265.0368
197.5831, 268.1068
198.0652, 269.6074
198.5473, 271.5679
199.0294, 274.3050
199.5115, 277.2602
199.9937, 278.9444
200.4758, 279.0424
200.9579, 279.6983
201.4400, 282.4848
201.9221, 287.6129
202.4042, 291.8325
202.8864, 294.8568
203.3685, 296.9836
203.8506, 298.6573
204.3327, 299.6323
204.8148, 301.0658
205.2969, 304.1410
205.7791, 309.3540
206.2612, 312.3703
206.7433, 312.2225
207.2254, 310.2908
207.7075, 310.1360
208.1896, 312.1335
208.6718, 314.8111
209.1539, 317.5171
209.6360, 320.2720
210.1181, 322.8622
210.6002, 325.3428
211.0823, 327.6255
211.5645, 329.4442
212.0466, 330.7657
212.5287, 331.7396
213.0108, 332.2001
213.4929, 331.7286
213.9750, 332.5096
214.4572, 335.1528
214.9393, 338.9220
215.4214, 341.6481
215.9035, 342.9400
216.3856, 343.9995
216.8678, 345.4773
217.3499, 347.5926
217.8320, 349.4669
218.3141, 351.0991
218.7962, 352.4311
219.2783, 353.1883
219.7605, 353.0869
220.2426, 352.8933
220.7247, 353.1126
221.2068, 354.1312
221.6889, 354.4607
222.1710, 354.0376
222.6532, 352.8865
223.1353, 351.0109
223.6174, 348.0413
224.0995, 344.9432
224.5816, 342.2771
225.0637, 340.3896
225.5459, 337.9079
226.0280, 334.3094
226.5101, 330.1887
226.9922, 327.5421
227.4743, 326.9185
227.9564, 326.8588
228.4386, 326.9256
228.9207, 328.0133
229.4028, 326.9398
229.8849, 322.7682
230.3670, 316.6278
230.8492, 311.4713
231.3313, 307.3495
231.8134, 304.2006
232.2955, 302.2390
232.7776, 302.7065
233.2597, 301.4647
233.7419, 297.7470
234.2240, 292.5135
234.7061, 288.3177
235.1882, 285.3189
235.6703, 283.1256
236.1524, 281.7802
236.6346, 282.2903
237.1167, 281.2495
237.5988, 277.8976
238.0809, 273.2792
238.5630, 269.8069
239.0451, 268.0649
239.5273, 266.6270
240.0094, 265.0590
240.4915, 263.7177
240.9736, 261.1725
241.4557, 256.7069
241.9378, 251.3328
242.4200, 247.2013
242.9021, 244.7976
243.3842, 242.8081
243.8663, 240.7544
244.3484, 238.5627
244.8306, 236.5129
245.3127, 234.6135
245.7948, 232.8691
246.2769, 231.4544
246.7590, 231.1306
247.2411, 229.8558
247.7233, 226.4764
248.2054, 219.8387
248.6875, 215.4884
249.1696, 214.2527
249.6517, 214.7817
250.1338, 215.0462
250.6160, 215.2834
251.0981, 214.8132
251.5802, 213.1896
252.0623, 210.0156
252.5444, 207.8072
253.0265, 207.2637
253.5087, 207.1293
253.9908, 205.4151
254.4729, 200.9307
254.9550, 197.2841
255.4371, 195.7840
255.9192, 196.8156
256.4014, 196.9514
256.8835, 195.9886
257.3656, 194.3288
257.8477, 192.2752
258.3298, 189.3896
258.8120, 187.1134
259.2941, 186.0414
259.7762, 186.2872
260.2583, 185.5945
260.7404, 183.4511
261.2225, 180.9907
261.7047, 179.4845
262.1868, 179.4109
262.6689, 178.9927
263.1510, 177.6405
263.6331, 175.4078
264.1152, 174.0106
264.5974, 173.8694
265.0795, 173.9278
265.5616, 173.1416
266.0437, 171.2504
266.5258, 169.3172
267.0079, 167.4150
267.4901, 165.5862
267.9722, 164.3809
268.4543, 163.9045
268.9364, 163.8246
269.4185, 164.0622
269.9006, 164.8547
270.3828, 164.8823
270.8649, 163.6819
271.3470, 161.5859
271.8291, 160.2265
272.3112, 159.8182
272.7933, 159.5336
273.2755, 158.7349
273.7576, 157.3317
274.2397, 156.0476
274.7218, 155.0600
275.2039, 154.1968
275.6860, 152.7759
276.1682, 150.5596
276.6503, 148.6308
277.1324, 147.6759
277.6145, 147.7433
278.0966, 148.4021
278.5787, 149.9507
279.0609, 151.6915
279.5430, 151.7960
280.0251, 149.9791
280.5072, 148.3104
280.9893, 148.0981
281.4715, 149.3354
281.9536, 150.1920
282.4357, 150.5142
282.9178, 150.5831
283.3999, 150.9619
283.8820, 151.6790
284.3642, 152.1509
284.8463, 151.9192
285.3284, 151.0645
285.8105, 150.5368
286.2926, 150.3183
286.7747, 150.4734
287.2569, 151.1830
287.7390, 152.4305
288.2211, 153.8523
288.7032, 155.8167
289.1853, 157.9125
289.6674, 157.7473
290.1496, 154.9596
290.6317, 152.2783
291.1138, 153.7140
291.5959, 158.5701
292.0780, 161.8677
292.5602, 161.1606
293.0423, 158.1213
293.5244, 156.8178
294.0065, 157.2859
294.4886, 158.9344
294.9707, 162.2342
295.4529, 166.5180
295.9350, 169.1827
296.4171, 168.9143
296.8992, 167.3085
297.3813, 166.9945
297.8634, 167.9196
298.3456, 169.5482
298.8277, 171.9550
299.3098, 174.7339
299.7919, 176.9824
300.2740, 178.4699
300.7561, 179.4006
301.2383, 179.5996
301.7204, 179.2771
302.2025, 179.3810
302.6846, 181.2060
303.1667, 183.6376
303.6488, 184.8947
304.1310, 184.4472
304.6131, 183.5800
305.0952, 183.4329
305.5773, 183.8675
306.0594, 184.5069
306.5415, 185.0235
307.0237, 185.7082
307.5058, 187.1522
307.9879, 189.5676
308.4700, 191.5698
308.9521, 191.9633
309.4343, 191.2366
309.9164, 190.2757
310.3985, 188.8498
310.8806, 187.7418
311.3627, 188.0112
311.8448, 189.7247
312.3270, 190.7538
312.8091, 188.7727
313.2912, 185.7260
313.7733, 183.9110
314.2554, 185.1950
314.7375, 187.0051
315.2197, 188.1958
315.7018, 188.7895
316.1839, 188.9977
316.6660, 188.7183
317.1481, 188.1978
317.6302, 187.6536
318.1124, 187.3893
318.5945, 186.7965
319.0766, 185.1936
319.5587, 182.9821
320.0408, 181.5254
320.5229, 181.9340
321.0051, 182.7351
321.4872, 183.1009
321.9693, 182.6587
322.4514, 182.2321
322.9335, 182.2031
323.4156, 182.2845
323.8978, 181.9224
324.3799, 179.9748
324.8620, 178.4785
325.3441, 178.3645
325.8262, 180.3165
326.3083, 181.6961
326.7905, 182.2915
327.2726, 182.2143
327.7547, 181.5994
328.2368, 179.7673
328.7189, 178.1096
329.2010, 176.8460
329.6832, 175.9923
330.1653, 175.4768
330.6474, 175.5588
331.1295, 175.7929
331.6116, 175.8250
332.0938, 175.6116
332.5759, 175.2513
333.0580, 174.6526
333.5401, 173.8719
334.0222, 173.4159
334.5043, 173.5483
334.9865, 173.6352
335.4686, 173.3229
335.9507, 172.6009
336.4328, 171.3898
336.9149, 169.2345
337.3970, 166.7873
337.8792, 166.0650
338.3613, 167.6848
338.8434, 169.2512
339.3255, 169.4749
339.8076, 168.0650
340.2898, 167.7801
340.7719, 169.1012
341.2540, 170.7221
341.7361, 170.2844
342.2182, 167.4965
342.7003, 165.5266
343.1825, 165.7499
343.6646, 167.8255
344.1467, 169.5988
344.6288, 171.1191
345.1109, 172.1641
345.5930, 172.2289
346.0752, 171.4305
346.5573, 171.0089
347.0394, 171.3920
347.5215, 172.2155
348.0036, 172.5700
348.4857, 172.4690
348.9679, 172.5624
349.4500, 173.4748
349.9321, 174.9766
350.4142, 176.4767
350.8963, 177.9995
351.3784, 179.2170
351.8606, 179.4033
352.3427, 178.8108
352.8248, 178.3740
353.3069, 178.4421
353.7890, 179.0519
354.2711, 180.5192
354.7533, 182.9744
355.2354, 185.2642
355.7175, 186.1218
356.1996, 186.1465
356.6817, 186.3834
357.1638, 187.8108
357.6460, 189.2228
358.1281, 189.2717
358.6102, 188.1036
359.0923, 187.6609
359.5744, 190.2983
360.0565, 193.6435
360.5387, 195.3087
361.0208, 193.0965
361.5029, 191.0104
361.9850, 190.9811
362.4671, 192.5170
362.9492, 194.1211
363.4314, 195.9243
363.9135, 197.1847
364.3956, 197.3398
364.8777, 195.7282
365.3598, 194.4234
365.8419, 193.8991
366.3241, 193.9334
366.8062, 194.2016
367.2883, 195.3619
367.7704, 196.0728
368.2526, 195.9965
368.7347, 195.0845
369.2168, 193.5601
369.6989, 190.8366
370.1810, 187.8713
370.6631, 185.3792
371.1453, 183.0422
371.6274, 181.7018
372.1095, 182.0024
372.5916, 183.5686
373.0737, 183.7649
373.5558, 181.6211
374.0380, 179.5502
374.5201, 179.1588
375.0022, 181.4140
375.4843, 182.0326
375.9664, 180.3559
376.4485, 177.4342
376.9307, 175.1249
377.4128, 173.3832
377.8949, 172.5670
378.3770, 173.4685
378.8591, 175.9126
379.3412, 175.9151
379.8234, 172.9531
380.3055, 169.3920
380.7876, 168.2441
381.2697, 169.3405
381.7518, 169.8181
382.2339, 168.7562
382.7161, 166.7364
383.1982, 164.6592
383.6803, 162.5740
384.1624, 161.4349
384.6445, 163.0183
385.1266, 166.0798
385.6088, 167.2728
386.0909, 165.6943
386.5730, 163.4305
387.0551, 163.2162
387.5372, 164.3651
388.0193, 164.9018
388.5015, 162.8698
388.9836, 160.1900
389.4657, 159.1210
389.9478, 159.8264
390.4299, 160.6201
390.9120, 160.0923
391.3942, 159.0645
391.8763, 158.5661
392.3584, 159.8852
392.8405, 160.9256
393.3226, 160.3142
393.8047, 158.3888
394.2869, 156.6937
394.7690, 155.6084
395.2511, 155.0916
395.7332, 155.2163
396.2154, 156.4209
396.6975, 157.3671
397.1796, 157.8355
397.6617, 157.8669
398.1438, 157.5369
398.6259, 156.2832
399.1081, 155.2259
399.5902, 154.8661
400.0723, 155.4004
400.5544, 155.2344
401.0365, 153.6325
401.5186, 151.8698
402.0008, 151.0682
402.4829, 151.9554
402.9650, 152.4007
403.4471, 152.0641
403.9292, 151.1075
404.4113, 150.2806
404.8935, 149.7651
405.3756, 148.9564
405.8577, 147.2403
406.3398, 144.3554
406.8219, 142.6584
407.3040, 142.2773
407.7862, 142.8898
408.2683, 144.5833
408.7504, 147.4268
409.2325, 149.0712
409.7146, 148.0517
410.1967, 145.3848
410.6789, 144.6065
411.1610, 145.7774
411.6431, 147.2865
412.1252, 147.8093
412.6073, 147.5664
413.0894, 147.1202
413.5716, 146.5138
414.0537, 145.9061
414.5358, 145.3572
415.0179, 144.9436
415.5000, 144.9013
415.9821, 145.6175
416.4643, 146.6272
416.9464, 147.4160
417.4285, 147.9215
417.9106, 148.5037
418.3927, 149.7571
418.8748, 151.0983
419.3570, 151.8139
419.8391, 151.1922
420.3212, 150.3657
420.8033, 149.6207
421.2854, 149.0120
421.7675, 148.7615
422.2497, 149.5227
422.7318, 150.2267
423.2139, 150.2639
423.6960, 149.2644
424.1781, 148.2724
424.6602, 147.4204
425.1424, 146.6368
425.6245, 145.8504
426.1066, 145.6314
426.5887, 144.6801
427.0709, 142.3630
427.5530, 138.6806
428.0351, 136.0263
428.5172, 134.6820
428.9993, 133.9391
429.4814, 133.4588
429.9636, 133.4904
430.4457, 132.7674
430.9278, 131.0230
431.4099, 128.6297
431.8920, 126.3812
432.3741, 124.2796
432.8563, 122.1433
433.3384, 119.6239
433.8205, 116.8882
434.3026, 115.3663
434.7847, 115.1759
435.2668, 115.1876
435.7490, 113.7374
436.2311, 111.4124
436.7132, 110.5928
437.1953, 112.8266
437.6774, 115.5381
438.1595, 114.5736
438.6417, 110.7792
439.1238, 107.6571
439.6059, 107.9708
440.0880, 109.6981
440.5701, 110.7886
441.0522, 110.9919
441.5344, 110.7586
442.0165, 110.1961
442.4986, 109.4229
442.9807, 108.5856
443.4628, 107.3795
443.9449, 106.4634
444.4271, 106.1417
444.9092, 106.3561
445.3913, 106.7627
445.8734, 107.8722
446.3555, 108.6892
446.8376, 108.6564
447.3198, 107.2203
447.8019, 105.9409
448.2840, 104.8143
448.7661, 103.8877
449.2482, 103.2163
449.7303, 102.7005
450.2125, 102.6645
450.6946, 103.5051
451.1767, 105.0934
451.6588, 105.2833
452.1409, 103.5024
452.6230, 101.6577
453.1052, 101.3131
453.5873, 102.6167
454.0694, 103.3169
454.5515, 103.0675
455.0337, 102.5052
455.5158, 102.8420
455.9979, 104.0075
456.4800, 104.9144
456.9621, 104.9123
457.4442, 104.3913
457.9264, 104.2827
458.4085, 104.5743
458.8906, 104.9439
459.3727, 105.4240
459.8548, 105.7379
460.3369, 105.2271
460.8191, 103.2357
461.3012, 101.6164
461.7833, 102.6776
462.2654, 105.1879
462.7475, 106.5825
463.2296, 103.6722
463.7118, 101.0603
464.1939, 101.9566
464.6760, 106.6055
465.1581, 110.3581
465.6402, 111.5526
466.1223, 111.4268
466.6045, 110.8197
467.0866, 108.8605
467.5687, 107.6450
468.0508, 107.7671
468.5329, 108.6512
469.0150, 108.9958
469.4972, 108.3268
469.9793, 107.8394
470.4614, 108.0156
470.9435, 108.9106
471.4256, 109.4343
471.9077, 109.6933
472.3899, 109.3733
472.8720, 107.7822
473.3541, 104.7012
473.8362, 102.8651
474.3183, 102.8528
474.8004, 103.9151
475.2826, 104.9099
475.7647, 105.8023
476.2468, 106.0958
476.7289, 105.0519
477.2110, 103.3196
477.6931, 102.4091
478.1753, 102.3252
478.6574, 102.4504
479.1395, 102.0899
479.6216, 101.6647
480.1037, 101.9001
480.5858, 103.4230
481.0680, 104.8196
481.5501, 105.0447
482.0322, 104.4412
482.5143, 103.7147
482.9964, 103.0646
483.4786, 102.4230
483.9607, 101.6743
484.4428, 100.7946
484.9249, 100.2154
485.4070, 100.3018
485.8892, 100.5479
486.3713, 100.5900
486.8534, 100.0812
487.3355, 99.86353
487.8176, 99.96506
488.2997, 100.3652
488.7819, 101.0688
489.2640, 102.2224
489.7461, 103.3843
490.2282, 104.6212
490.7103, 105.8745
491.1924, 105.6901
491.6746, 103.7291
492.1567, 101.7202
492.6388, 101.3189
493.1209, 102.3473
493.6030, 103.2417
494.0851, 103.7456
494.5673, 104.2031
495.0494, 105.2472
495.5315, 106.7066
496.0136, 107.9249
496.4957, 108.7493
496.9778, 109.0917
497.4600, 108.3305
497.9421, 106.6616
498.4242, 105.9009
498.9063, 108.1976
499.3884, 111.2697
499.8705, 113.1285
500.3527, 113.0290
500.8348, 112.5531
501.3169, 111.7395
501.7990, 111.0208
502.2811, 111.0100
502.7632, 112.6591
503.2454, 114.1240
503.7275, 114.7043
504.2096, 114.5444
504.6917, 115.3688
505.1738, 117.8350
505.6559, 120.3778
506.1381, 122.2266
506.6202, 123.3672
507.1023, 123.8018
507.5844, 123.3616
508.0665, 122.5253
508.5486, 121.7953
509.0308, 121.1630
509.5129, 120.9546
509.9950, 121.2075
510.4771, 121.9677
510.9592, 123.9149
511.4413, 126.8431
511.9235, 128.8994
512.4056, 127.7996
512.8877, 125.5006
513.3698, 125.2913
513.8519, 127.5587
514.3340, 129.6368
514.8162, 128.9358
515.2983, 127.1612
515.7804, 126.3838
516.2625, 127.9878
516.7446, 129.7212
517.2267, 130.7337
517.7089, 131.2071
518.1910, 131.5695
518.6731, 132.0394
519.1552, 132.2986
519.6373, 131.9796
520.1194, 130.9359
520.6016, 130.8898
521.0837, 132.5264
521.5658, 134.3922
522.0479, 135.4127
522.5300, 135.3381
523.0121, 135.3233
523.4943, 135.5439
523.9764, 135.7226
524.4585, 135.1576
524.9406, 133.8331
525.4227, 132.8316
525.9048, 132.1543
526.3870, 132.2623
526.8691, 135.5852
527.3513, 141.8187
527.8334, 146.2213
528.3155, 143.3531
528.7976, 137.3026
529.2797, 133.8942
529.7618, 133.9409
530.2440, 135.9031
530.7261, 139.9483
531.2082, 144.8722
531.6903, 149.0586
532.1724, 152.7202
532.6545, 154.8376
533.1367, 153.9886
533.6188, 151.1466
534.1009, 149.7531
534.5830, 151.9692
535.0651, 154.1261
535.5472, 154.8295
536.0294, 153.7623
536.5115, 153.6011
536.9936, 154.5995
537.4757, 156.1498
537.9578, 157.9745
538.4399, 160.2747
538.9221, 161.5614
539.4042, 161.4570
539.8863, 160.6959
540.3684, 160.6035
540.8505, 161.1215
541.3326, 161.5240
541.8148, 161.0908
542.2969, 160.6125
542.7790, 162.2153
543.2611, 165.5431
543.7432, 167.8253
544.2253, 166.3040
544.7075, 163.2545
545.1896, 161.0412
545.6717, 160.1223
546.1538, 159.2641
546.6359, 157.1649
547.1180, 155.0989
547.6002, 154.4511
548.0823, 157.6857
548.5644, 159.8941
549.0465, 159.7661
549.5286, 157.9616
550.0107, 156.3221
550.4929, 154.3641
550.9750, 153.3512
551.4571, 154.2150
551.9392, 156.9741
552.4213, 157.3999
552.9034, 154.9055
553.3856, 151.9320
553.8677, 150.6436
554.3498, 150.8617
554.8319, 150.2571
555.3140, 148.3993
555.7961, 146.4218
556.2783, 146.0695
556.7604, 146.8335
557.2425, 147.2875
557.7246, 146.8372
558.2067, 145.9216
558.6888, 144.6128
559.1710, 143.1206
559.6531, 142.1773
560.1352, 142.9239
560.6173, 143.7171
561.0994, 143.5766
561.5815, 142.3502
562.0637, 140.8315
562.5458, 138.8067
563.0279, 136.7846
563.5100, 135.0703
563.9921, 133.2968
564.4742, 132.6025
564.9564, 133.7399
565.4385, 135.3942
565.9206, 134.9779
566.4027, 131.9110
566.8848, 129.7559
567.3669, 129.8561
567.8491, 131.4285
568.3312, 131.9185
568.8133, 131.3643
569.2954, 130.7943
569.7775, 131.0932
570.2596, 131.7652
570.7418, 131.8394
571.2239, 131.2456
571.7060, 130.5486
572.1881, 129.9514
572.6702, 129.5857
573.1523, 129.7246
573.6345, 131.1938
574.1166, 131.7912
574.5987, 129.8695
575.0808, 126.7119
575.5629, 124.4143
576.0450, 123.2748
576.5272, 123.1874
577.0093, 124.7496
577.4914, 127.5619
577.9735, 128.9462
578.4556, 128.4371
578.9377, 127.4385
579.4199, 126.5705
579.9020, 125.8486
580.3841, 124.9761
580.8662, 123.9004
581.3483, 122.9744
581.8304, 122.8167
582.3126, 123.1495
582.7947, 122.9847
583.2768, 122.0891
583.7589, 120.8065
584.2410, 119.5059
584.7231, 118.0852
585.2053, 116.3434
585.6874, 113.4714
586.1696, 110.9232
586.6517, 109.7584
587.1338, 109.6751
587.6159, 109.3141
588.0980, 108.0796
588.5801, 106.7072
589.0623, 105.4448
589.5444, 104.2693
590.0265, 103.3932
590.5086, 102.9431
590.9907, 102.6321
591.4728, 102.4211
591.9550, 102.4813
592.4371, 101.3705
592.9192, 98.66061
593.4013, 95.56029
593.8834, 93.88887
594.3655, 93.47434
594.8477, 93.24564
595.3298, 92.91393
595.8119, 92.53636
596.2940, 92.31026
596.7761, 92.13239
597.2582, 91.64939
597.7404, 89.56023
598.2225, 87.95591
598.7046, 89.10651
599.1867, 93.06058
599.6688, 95.40129
600.1509, 93.22324
600.6331, 90.18443
601.1152, 88.55432
601.5973, 88.88583
602.0794, 89.50517
602.5615, 90.56184
603.0436, 91.75813
603.5258, 93.00658
604.0079, 94.58994
604.4900, 94.39988
604.9721, 91.34386
605.4542, 87.46288
605.9363, 87.36588
606.4185, 90.65205
606.9006, 93.78499
607.3827, 95.44965
607.8648, 95.80779
608.3469, 94.26974
608.8290, 91.22751
609.3112, 88.97057
609.7933, 89.20900
610.2754, 90.48078
610.7575, 91.75677
611.2396, 92.87963
611.7217, 94.16348
612.2039, 96.41602
612.6860, 98.38682
613.1681, 99.08704
613.6502, 97.57295
614.1323, 96.39832
614.6144, 95.65421
615.0966, 95.20741
615.5787, 94.85606
616.0608, 94.59657
616.5429, 94.45985
617.0250, 94.41725
617.5071, 94.54362
617.9893, 95.23367
618.4714, 96.38567
618.9535, 97.17690
619.4356, 96.60971
619.9177, 95.76627
620.3998, 96.44958
620.8820, 98.45092
621.3641, 99.76490
621.8462, 98.30991
622.3283, 96.41148
622.8104, 95.86042
623.2925, 97.21053
623.7747, 98.53053
624.2568, 99.43823
624.7389, 100.1981
625.2210, 101.1025
625.7031, 102.7008
626.1852, 103.0831
626.6674, 101.5724
627.1495, 99.46212
627.6316, 99.16502
628.1137, 100.7756
628.5958, 101.8082
629.0779, 101.2630
629.5601, 100.0567
630.0422, 99.95486
630.5243, 100.8162
631.0064, 101.9656
631.4885, 103.5798
631.9706, 104.9353
632.4528, 105.0703
632.9349, 104.0831
633.4170, 103.3414
633.8991, 103.6310
634.3812, 104.2102
634.8633, 104.6621
635.3455, 104.9275
635.8276, 105.0805
636.3097, 104.8557
636.7918, 104.7667
637.2739, 105.3823
637.7560, 107.0194
638.2382, 107.9670
638.7203, 107.8689
639.2024, 107.4446
639.6845, 107.8238
640.1666, 108.9241
640.6487, 110.0653
641.1309, 111.0800
641.6130, 111.9989
642.0951, 112.8877
642.5772, 113.7086
643.0594, 114.3172
643.5415, 114.8940
644.0236, 115.0280
644.5057, 113.9626
644.9879, 111.9157
645.4700, 110.9353
645.9521, 112.0552
646.4342, 113.8698
646.9163, 116.0488
647.3984, 118.8844
647.8806, 120.0569
648.3627, 118.8778
648.8448, 117.3552
649.3269, 117.1943
649.8090, 118.3986
650.2911, 119.3546
650.7733, 119.9132
651.2554, 120.3956
651.7375, 121.1990
652.2196, 122.2332
652.7017, 123.2738
653.1838, 124.2132
653.6660, 125.2270
654.1481, 126.3111
654.6302, 127.5779
655.1123, 129.2481
655.5944, 132.0687
656.0765, 134.5694
656.5587, 136.1795
657.0408, 137.0412
657.5229, 137.8675
658.0050, 138.3331
658.4871, 139.3093
658.9692, 141.2656
659.4514, 144.0860
659.9335, 146.4422
660.4156, 148.2750
660.8977, 150.0634
661.3798, 151.9672
661.8619, 154.0812
662.3441, 156.8412
662.8262, 160.2870
663.3083, 163.7924
663.7904, 166.6190
664.2725, 169.3535
664.7546, 172.7420
665.2368, 177.2875
665.7189, 181.5506
666.2010, 184.1727
666.6831, 186.6862
667.1652, 190.8908
667.6473, 197.4137
668.1295, 204.6676
668.6116, 212.6587
669.0937, 221.3285
669.5758, 230.5030
670.0579, 240.2577
670.5400, 250.1301
671.0222, 259.8078
671.5043, 269.7158
671.9864, 280.9304
672.4685, 293.3698
672.9506, 306.6904
673.4327, 320.8813
673.9149, 335.5482
674.3970, 350.6450
674.8791, 366.1468
675.3612, 381.4189
675.8433, 395.2502
676.3254, 409.8171
676.8076, 426.2091
677.2897, 444.6085
677.7718, 464.0073
678.2539, 485.0674
678.7360, 505.9244
679.2181, 525.2868
679.7003, 542.8749
680.1824, 560.7842
680.6645, 579.4097
681.1466, 596.5552
681.6287, 609.6468
682.1108, 619.3881
682.5930, 627.5968
683.0751, 635.1322
683.5572, 639.7263
684.0393, 640.5071
684.5214, 636.8588
685.0035, 627.9577
685.4857, 612.0222
685.9678, 592.5544
686.4499, 569.0918
686.9320, 542.9310
687.4141, 516.7324
687.8962, 491.0589
688.3784, 464.4678
688.8605, 435.9833
689.3426, 406.6420
689.8247, 379.9640
690.3068, 355.7607
690.7889, 333.5632
691.2711, 313.3163
691.7532, 294.7342
692.2353, 277.5493
692.7174, 261.9363
693.1995, 248.0437
693.6816, 236.8579
694.1638, 226.7942
694.6459, 216.5853
695.1280, 206.0756
695.6101, 196.9880
696.0922, 190.3348
696.5743, 184.7802
697.0565, 179.6595
697.5386, 175.0765
698.0207, 170.2126
698.5028, 164.8171
698.9849, 159.6739
699.4670, 155.6598
699.9492, 152.6710
700.4313, 149.5979
700.9135, 146.3178
701.3956, 143.0889
701.8777, 140.1622
702.3598, 137.4957
702.8419, 135.0209
703.3240, 132.7188
703.8062, 130.5903
704.2883, 128.8607
704.7704, 127.2489
705.2525, 125.3805
705.7346, 122.3815
706.2167, 120.1594
706.6989, 118.9860
707.1810, 118.6600
707.6631, 119.0355
708.1452, 120.3766
708.6273, 120.7434
709.1094, 119.1772
709.5916, 116.6462
710.0737, 115.5725
710.5558, 115.6674
711.0379, 115.3862
711.5200, 113.3907
712.0021, 111.0372
712.4843, 109.3626
712.9664, 108.3441
713.4485, 107.7541
713.9306, 107.8818
714.4127, 108.0846
714.8948, 108.0964
715.3770, 107.9128
715.8591, 107.5431
716.3412, 106.7179
716.8233, 106.2429
717.3054, 107.1105
717.7875, 109.2002
718.2697, 108.7280
718.7518, 105.5127
719.2339, 102.1583
719.7160, 100.7249
720.1981, 100.6843
720.6802, 101.6128
721.1624, 103.5961
721.6445, 104.8076
722.1266, 103.2045
722.6087, 100.9091
723.0908, 99.83379
723.5729, 101.2670
724.0551, 101.8840
724.5372, 100.9277
725.0193, 99.66952
725.5014, 99.61177
725.9835, 101.1114
726.4656, 101.4468
726.9478, 100.0175
727.4299, 98.22119
727.9120, 98.22494
728.3941, 99.53795
728.8762, 100.6674
729.3583, 101.2930
729.8405, 101.4007
730.3226, 100.2335
730.8047, 98.69614
731.2868, 98.31470
731.7689, 101.4650
732.2510, 103.5713
732.7332, 102.5301
733.2153, 100.0057
733.6974, 99.48576
734.1795, 101.9690
734.6616, 103.6508
735.1437, 103.2329
735.6259, 101.7274
736.1080, 102.0138
736.5901, 103.8709
737.0722, 105.3442
737.5543, 105.4277
738.0364, 104.6918
738.5186, 103.3232
739.0007, 101.6119
739.4828, 100.5489
739.9649, 101.1207
740.4470, 101.9026
740.9291, 102.3456
741.4113, 102.4255
741.8934, 102.3283
742.3755, 102.0275
742.8576, 101.6058
743.3397, 101.1610
743.8218, 100.6452
744.3040, 99.43513
744.7861, 97.51611
745.2682, 95.88801
745.7503, 95.61928
746.2324, 95.91610
746.7145, 95.40720
747.1967, 94.09684
747.6788, 92.90556
748.1609, 92.08485
748.6430, 91.75361
749.1251, 92.29672
749.6072, 94.13898
750.0894, 94.61028
750.5715, 92.95910
751.0536, 90.83278
751.5357, 89.03294
752.0178, 87.47781
752.4999, 87.42634
752.9821, 89.10203
753.4642, 90.81057
753.9463, 90.73537
754.4284, 89.57829
754.9105, 88.79063
755.3926, 88.59489
755.8748, 88.29692
756.3569, 86.99078
756.8390, 85.64355
757.3211, 85.14918
757.8032, 86.05837
758.2853, 86.97126
758.7675, 88.03114
759.2496, 88.83113
759.7318, 89.05898
760.2139, 88.72946
760.6960, 87.43764
761.1781, 84.84248
761.6602, 82.41775
762.1423, 82.45398
762.6245, 84.02115
763.1066, 84.71494
763.5887, 83.68378
764.0708, 82.83450
764.5529, 84.25716
765.0350, 86.30367
765.5172, 87.01893
765.9993, 84.30802
766.4814, 82.49849
766.9635, 82.16433
767.4456, 82.57131
767.9277, 82.80831
768.4099, 82.85298
768.8920, 82.90698
769.3741, 83.04900
769.8562, 83.09087
770.3383, 82.73819
770.8204, 82.06133
771.3026, 81.20131
771.7847, 79.98898
772.2668, 79.01060
772.7489, 78.67899
773.2310, 78.83923
773.7131, 79.24825
774.1953, 80.43479
774.6774, 81.09726
775.1595, 80.92767
775.6416, 80.27603
776.1237, 79.60866
776.6058, 78.82565
777.0880, 78.95103
777.5701, 80.60223
778.0522, 82.58169
778.5343, 82.63508
779.0164, 81.31533
779.4985, 80.23703
779.9807, 80.42188
780.4628, 80.60365
780.9449, 79.49033
781.4270, 77.87466
781.9091, 77.38441
782.3912, 79.70168
782.8734, 81.50004
783.3555, 82.46693
783.8376, 82.56717
784.3197, 81.21964
784.8018, 78.18969
785.2839, 76.53889
785.7661, 77.71607
786.2482, 80.04199
786.7303, 80.70292
787.2124, 80.16794
787.6945, 79.79163
788.1766, 80.65109
788.6588, 81.37418
789.1409, 80.91885
789.6230, 79.77812
790.1051, 79.40418
790.5872, 80.83631
791.0693, 81.61616
791.5515, 81.11001
792.0336, 79.71316
792.5157, 78.37553
792.9978, 77.09502
793.4799, 76.44395
793.9620, 76.97211
794.4442, 77.83817
794.9263, 77.65983
795.4084, 76.78373
795.8905, 76.17613
796.3726, 76.47849
796.8547, 76.91984
797.3369, 77.45766
797.8190, 77.88841
798.3011, 77.52657
798.7832, 75.64084
799.2653, 74.45166
799.7474, 74.72707
800.2296, 75.87718
800.7117, 76.24035
801.1938, 75.87739
801.6759, 75.42490
802.1580, 74.87934
802.6401, 74.66971
803.1223, 75.70840
803.6044, 77.50288
804.0865, 78.75012
804.5686, 78.13425
805.0507, 77.82797
805.5328, 79.84617
806.0150, 82.59373
806.4971, 81.12995
806.9792, 73.32467
807.4613, 68.33471
807.9434, 69.47312
808.4255, 74.07864
808.9077, 76.53165
809.3898, 77.09187
809.8719, 76.89194
810.3540, 75.66463
810.8361, 74.68407
811.3182, 75.51406
811.8004, 77.33617
812.2825, 78.23074
812.7646, 76.03060
813.2467, 74.98502
813.7288, 76.59702
814.2109, 79.57061
814.6931, 80.36839
815.1752, 78.72742
815.6573, 77.39135
816.1394, 77.18758
816.6215, 77.62173
817.1037, 78.25454
817.5858, 78.86052
818.0679, 78.85493
818.5500, 77.32890
819.0322, 75.84879
819.5143, 75.23634
819.9964, 75.21156
820.4785, 75.22285
820.9606, 75.15138
821.4427, 75.21617
821.9249, 75.33947
822.4070, 75.73083
822.8891, 77.30529
823.3712, 79.86186
823.8533, 81.01405
824.3354, 79.57182
824.8176, 77.57859
825.2997, 77.43579
825.7818, 78.35418
826.2639, 78.98363
826.7460, 78.87032
827.2281, 78.42803
827.7103, 77.20550
828.1924, 75.95503
828.6745, 75.80264
829.1566, 77.11561
829.6387, 78.02187
830.1208, 78.15476
830.6030, 78.00204
831.0851, 78.14558
831.5672, 78.60203
832.0493, 79.61956
832.5314, 81.72404
833.0135, 83.13913
833.4957, 81.89030
833.9778, 79.57701
834.4599, 78.05503
834.9420, 78.42290
835.4241, 78.55682
835.9063, 78.15678
836.3884, 77.87798
836.8705, 78.85777
837.3526, 81.03389
837.8347, 81.86492
838.3168, 80.84270
838.7990, 79.58459
839.2811, 80.12746
839.7632, 81.35428
840.2453, 81.58497
840.7274, 80.09441
841.2095, 78.97910
841.6917, 79.44176
842.1738, 80.20630
842.6559, 80.19132
843.1380, 78.96117
843.6201, 78.56907
844.1022, 79.16440
844.5844, 80.08360
845.0665, 81.03748
845.5486, 81.79514
846.0307, 81.36447
846.5128, 79.62632
846.9949, 78.37843
847.4771, 79.39461
847.9592, 80.97271
848.4413, 81.80527
848.9234, 81.60003
849.4055, 81.40572
849.8876, 81.31058
850.3698, 81.14443
850.8519, 80.67002
851.3340, 79.95002
851.8161, 79.91002
852.2982, 80.54585
852.7803, 81.37021
853.2625, 82.38625
853.7446, 83.16564
854.2267, 83.15337
854.7088, 82.38840
855.1909, 81.57738
855.6730, 80.56220
856.1552, 79.97521
856.6373, 80.07182
857.1194, 80.80666
857.6015, 81.95290
858.0836, 83.62414
858.5657, 84.92513
859.0479, 85.38259
859.5300, 85.25069
860.0121, 84.79138
860.4942, 84.12602
860.9763, 83.68513
861.4584, 83.80305
861.9406, 84.08357
862.4227, 84.56226
862.9048, 85.06536
863.3869, 85.00719
863.8690, 84.07906
864.3511, 83.32103
864.8333, 82.88853
865.3154, 82.85915
865.7975, 83.86491
866.2796, 85.53067
866.7617, 86.14071
867.2438, 84.39176
867.7260, 82.60427
868.2081, 82.58395
868.6902, 83.66207
869.1723, 84.77679
869.6544, 86.00610
870.1365, 86.82867
870.6187, 86.99415
871.1008, 86.99719
871.5829, 87.57814
872.0650, 88.70278
872.5471, 89.69385
873.0292, 90.46964
873.5114, 90.99303
873.9935, 90.95764
874.4756, 90.76955
874.9577, 91.07681
875.4399, 92.37310
875.9220, 92.97292
876.4041, 91.22644
876.8862, 89.68629
877.3683, 90.32704
877.8505, 93.70785
878.3326, 95.25202
878.8147, 94.76325
879.2968, 93.85469
879.7789, 93.63213
880.2610, 94.03297
880.7432, 95.38441
881.2253, 97.62012
881.7074, 98.97464
882.1895, 97.48829
882.6716, 95.91621
883.1537, 95.77779
883.6359, 97.01583
884.1180, 98.72605
884.6001, 101.2240
885.0822, 102.8817
885.5643, 102.4393
886.0464, 100.8932
886.5286, 100.4918
887.0107, 101.1105
887.4928, 102.2438
887.9749, 104.1966
888.4570, 105.9865
888.9391, 107.3130
889.4213, 108.0582
889.9034, 107.8923
890.3855, 106.3354
890.8676, 104.9881
891.3497, 104.0543
891.8318, 103.6549
892.3140, 104.2752
892.7961, 105.6573
893.2782, 106.7878
893.7603, 107.3141
894.2424, 107.6037
894.7245, 107.8865
895.2067, 108.0995
895.6888, 108.1536
896.1709, 107.4270
896.6530, 107.5669
897.1351, 108.7351
897.6172, 110.5163
898.0994, 113.0878
898.5815, 116.1287
899.0636, 116.7008
899.5457, 114.3875
900.0278, 112.0722
900.5099, 112.3304
900.9921, 113.5335
901.4742, 114.1746
901.9563, 113.9782
902.4384, 113.9632
902.9205, 113.9658
903.4026, 114.5938
903.8848, 116.6949
904.3669, 119.8517
904.8490, 120.1506
905.3311, 117.6951
905.8132, 115.4011
906.2953, 114.7818
906.7775, 115.3629
907.2596, 117.3277
907.7417, 120.1636
908.2238, 122.1795
908.7059, 122.4783
909.1880, 122.3382
909.6702, 121.8018
910.1523, 121.1317
910.6344, 121.2135
911.1165, 122.0162
911.5986, 121.8521
912.0807, 119.8783
912.5629, 117.7273
913.0450, 117.3268
913.5271, 117.9529
914.0092, 118.5063
914.4913, 118.3234
914.9734, 118.7556
915.4556, 120.7955
915.9377, 122.7686
916.4198, 122.8503
916.9019, 120.8700
917.3840, 120.1914
917.8661, 121.0953
918.3483, 122.2638
918.8304, 122.3714
919.3125, 122.1333
919.7946, 122.3508
920.2767, 123.1059
920.7589, 124.3247
921.2410, 126.8153
921.7231, 128.9008
922.2052, 129.9953
922.6873, 130.1280
923.1694, 129.3180
923.6516, 127.5415
924.1337, 125.8604
924.6158, 124.7545
925.0979, 124.0805
925.5800, 123.6802
926.0621, 123.5670
926.5443, 123.7727
927.0264, 124.7623
927.5085, 125.4644
927.9906, 125.1532
928.4727, 124.7979
928.9548, 126.6996
929.4370, 131.0228
929.9191, 132.4008
930.4012, 129.3770
930.8833, 125.4754
931.3654, 124.4774
931.8475, 125.1385
932.3297, 125.8616
932.8118, 126.4328
933.2939, 126.6480
933.7761, 126.0373
934.2582, 125.4772
934.7403, 125.5770
935.2224, 126.3603
935.7045, 126.6179
936.1866, 126.3308
936.6688, 126.0965
937.1509, 126.7279
937.6330, 127.3708
938.1151, 126.8244
938.5972, 125.3116
939.0793, 124.1111
939.5615, 123.6602
940.0436, 123.5206
940.5257, 123.6441
941.0078, 123.9633
941.4899, 124.4601
941.9720, 125.1086
942.4542, 125.0653
942.9363, 123.7592
943.4184, 122.4872
943.9005, 123.4767
944.3826, 125.0715
944.8647, 124.7477
945.3469, 119.2343
945.8290, 117.1938
946.3111, 121.4155
946.7932, 126.4169
947.2753, 127.0483
947.7574, 123.5772
948.2396, 121.3663
948.7217, 120.5918
949.2038, 121.2513
949.6859, 125.1615
950.1680, 129.1466
950.6501, 129.8970
951.1323, 127.4489
951.6144, 125.8514
952.0965, 126.3725
952.5786, 126.4013
953.0607, 124.6928
953.5428, 122.2545
954.0250, 122.6243
954.5071, 125.2860
954.9892, 127.2159
955.4713, 127.1500
955.9534, 126.1166
956.4355, 123.7499
956.9177, 121.3140
957.3998, 120.7168
957.8819, 123.7230
958.3640, 125.5392
958.8461, 125.7397
959.3282, 125.4146
959.8104, 125.9330
960.2925, 126.8876
960.7746, 126.4394
961.2567, 124.4557
961.7388, 123.2395
962.2209, 125.1646
962.7031, 127.6081
963.1852, 128.7196
963.6673, 128.4917
964.1494, 128.5644
964.6315, 128.9824
965.1136, 129.5340
965.5958, 130.1231
966.0779, 130.8167
966.5600, 131.9643
967.0421, 133.3415
967.5242, 134.2730
968.0063, 133.6320
968.4885, 133.7090
968.9706, 136.5198
969.4527, 139.8799
969.9348, 140.8362
970.4169, 138.4859
970.8990, 138.5279
971.3812, 141.6541
971.8633, 145.0859
972.3454, 145.8739
972.8275, 145.2615
973.3096, 145.0358
973.7917, 145.3634
974.2739, 145.5874
974.7560, 144.6868
975.2381, 144.5591
975.7202, 146.2538
976.2023, 149.2887
976.6844, 151.3536
977.1666, 152.4685
977.6487, 152.8357
978.1308, 152.0285
978.6129, 151.3176
979.0950, 152.5807
979.5771, 154.7136
980.0593, 155.9098
980.5414, 154.7607
981.0235, 154.0135
981.5056, 153.8274
981.9877, 153.9929
982.4698, 154.6301
982.9520, 155.5290
983.4341, 155.0413
983.9162, 153.0829
984.3983, 151.4011
984.8804, 151.7856
985.3625, 152.4683
985.8447, 152.3305
986.3268, 151.2592
986.8089, 149.2723
987.2910, 145.6122
987.7731, 143.3140
988.2552, 143.8528
988.7374, 145.6506
989.2195, 145.6235
989.7016, 144.2054
990.1837, 142.3966
990.6658, 139.9744
991.1479, 138.3233
991.6301, 138.7048
992.1122, 139.6970
992.5944, 139.9373
993.0765, 139.3226
993.5586, 138.4878
994.0407, 137.4367
994.5228, 136.1773
995.0049, 134.1735
995.4871, 132.2935
995.9692, 132.2587
996.4513, 133.7171
996.9334, 133.9450
997.4155, 130.5124
997.8976, 127.7128
998.3798, 126.7633
998.8619, 126.9447
999.3440, 126.4342
999.8261, 125.3380
1000.308, 124.8849
1000.790, 125.7649
1001.272, 126.1093
1001.755, 123.4528
1002.237, 119.9246
1002.719, 117.8839
1003.201, 118.0979
1003.683, 118.3205
1004.165, 118.5774
1004.647, 118.7861
1005.129, 118.9730
1005.612, 119.0602
1006.094, 118.7019
1006.576, 117.9994
1007.058, 117.4090
1007.540, 117.2701
1008.022, 117.1830
1008.504, 117.1199
1008.986, 116.9471
1009.468, 116.3972
1009.951, 115.4391
1010.433, 114.1959
1010.915, 112.5074
1011.397, 111.3331
1011.879, 112.5887
1012.361, 114.5427
1012.843, 114.8825
1013.325, 113.0500
1013.807, 111.4992
1014.290, 110.6513
1014.772, 110.1536
1015.254, 109.9649
1015.736, 109.9899
1016.218, 109.8168
1016.700, 109.4764
1017.182, 109.1433
1017.664, 108.8668
1018.147, 108.6580
1018.629, 108.7720
1019.111, 108.8557
1019.593, 108.3298
1020.075, 106.9144
1020.557, 105.6373
1021.039, 104.4475
1021.521, 103.7652
1022.003, 104.5765
1022.486, 105.9273
1022.968, 105.8397
1023.450, 104.3648
1023.932, 103.3552
1024.414, 104.2187
1024.896, 104.8363
1025.378, 104.1874
1025.860, 102.9759
1026.343, 103.4019
1026.825, 105.3412
1027.307, 107.2579
1027.789, 108.8568
1028.271, 109.9157
1028.753, 110.1592
1029.235, 109.7950
1029.717, 109.0032
1030.199, 107.6931
1030.682, 106.1715
1031.164, 104.0607
1031.646, 102.7664
1032.128, 103.6232
1032.610, 105.7588
1033.092, 107.1067
1033.574, 107.7570
1034.056, 107.9939
1034.539, 107.1756
1035.021, 106.9181
1035.503, 108.2844
1035.985, 110.1164
1036.467, 111.0122
1036.949, 110.9630
1037.431, 109.6928
1037.913, 107.0029
1038.396, 104.8892
1038.878, 105.5253
1039.360, 107.2869
1039.842, 108.8147
1040.324, 109.9657
1040.806, 110.9372
1041.288, 111.9079
1041.770, 112.2799
1042.252, 111.5494
1042.734, 110.5498
1043.217, 111.3939
1043.699, 113.3534
1044.181, 114.4659
1044.663, 113.8157
1045.145, 113.0426
1045.627, 112.3800
1046.109, 112.2036
1046.591, 113.1480
1047.074, 115.3229
1047.556, 115.2211
1048.038, 112.8329
1048.520, 111.0552
1049.002, 112.6773
1049.484, 114.9883
1049.966, 115.4990
1050.448, 114.7979
1050.931, 114.7048
1051.413, 115.9622
1051.895, 116.5094
1052.377, 115.9002
1052.859, 115.0733
1053.341, 115.0775
1053.823, 115.7566
1054.305, 116.9534
1054.787, 118.6501
1055.270, 120.0226
1055.752, 120.1895
1056.234, 120.5092
1056.716, 121.5008
1057.198, 123.0879
1057.680, 125.2449
1058.162, 127.8981
1058.644, 129.8898
1059.126, 130.7720
1059.609, 131.0693
1060.091, 130.8067
1060.573, 130.4443
1061.055, 130.5444
1061.537, 131.2901
1062.019, 131.8237
1062.501, 131.9196
1062.983, 132.6498
1063.466, 135.4258
1063.948, 138.9207
1064.430, 140.4515
1064.912, 140.5876
1065.394, 141.0353
1065.876, 142.8195
1066.358, 144.4510
1066.840, 145.6097
1067.323, 146.5960
1067.805, 147.4871
1068.287, 148.4460
1068.769, 151.0835
1069.251, 155.5141
1069.733, 159.1327
1070.215, 158.7482
1070.697, 158.1522
1071.179, 160.3341
1071.661, 164.5362
1072.144, 167.2036
1072.626, 168.0726
1073.108, 168.9731
1073.590, 170.2423
1074.072, 172.0738
1074.554, 175.8466
1075.036, 179.7601
1075.518, 181.0320
1076.001, 178.2910
1076.483, 177.1475
1076.965, 178.5464
1077.447, 180.5020
1077.929, 182.4295
1078.411, 183.9146
1078.893, 183.1410
1079.375, 180.8181
1079.858, 179.2807
1080.340, 180.3553
1080.822, 181.1009
1081.304, 180.3270
1081.786, 178.8848
1082.268, 177.3265
1082.750, 175.6502
1083.232, 174.6618
1083.714, 174.3652
1084.197, 174.1464
1084.679, 174.0102
1085.161, 173.3748
1085.643, 171.1206
1086.125, 168.0328
1086.607, 166.8620
1087.089, 168.9286
1087.571, 168.1878
1088.054, 163.3314
1088.536, 157.1059
1089.018, 152.3170
1089.500, 148.4233
1089.982, 144.7114
1090.464, 141.0745
1090.946, 137.8767
1091.428, 135.2054
1091.911, 132.9447
1092.393, 131.1587
1092.875, 129.6591
1093.357, 127.9690
1093.839, 126.1887
1094.321, 124.6252
1094.803, 123.4708
1095.285, 122.1937
1095.767, 120.1120
1096.250, 118.2548
1096.732, 117.4773
1097.214, 117.6989
1097.696, 117.1306
1098.178, 115.7876
1098.660, 114.0584
1099.142, 111.5461
1099.624, 109.4149
1100.106, 108.7921
1100.589, 109.0488
1101.071, 109.1475
1101.553, 108.8404
1102.035, 109.1348
1102.517, 110.1949
1102.999, 111.0387
1103.481, 110.8453
1103.963, 109.9408
1104.446, 108.2367
1104.928, 106.1169
1105.410, 105.0914
1105.892, 106.6695
1106.374, 107.3240
1106.856, 106.3770
1107.338, 104.7697
1107.820, 103.7167
1108.302, 103.0119
1108.785, 101.9568
1109.267, 100.4832
1109.749, 99.52818
1110.231, 100.2473
1110.713, 100.6357
1111.195, 99.65196
1111.677, 100.2719
1112.159, 98.19964
1112.641, 99.76952
1113.124, 100.2344
1113.606, 98.80985
1114.088, 96.87920
1114.570, 94.68154
1115.052, 92.93430
1115.534, 92.37197
1116.016, 92.92180
1116.498, 93.21278
1116.981, 93.24072
1117.463, 93.20020
1117.945, 93.16289
1118.427, 93.11486
1118.909, 93.48793
1119.391, 93.65090
1119.873, 92.43358
1120.355, 88.53394
1120.838, 87.22128
1121.320, 89.01894
1121.802, 91.14549
1122.284, 91.87862
1122.766, 91.60552
1123.248, 90.39220
1123.730, 88.68870
1124.212, 87.68298
1124.694, 88.88180
1125.177, 88.90325
1125.659, 86.88519
1126.141, 84.89283
1126.623, 85.76531
1127.105, 88.23200
1127.587, 88.94265
1128.069, 87.86251
1128.551, 86.18446
1129.033, 82.40976
1129.516, 80.91097
1129.998, 84.02431
1130.480, 88.67422
1130.962, 89.33876
1131.444, 86.78568
1131.926, 85.08934
1132.408, 84.85293
1132.890, 84.62260
1133.373, 82.88923
1133.855, 81.53015
1134.337, 81.95535
1134.819, 83.51122
1135.301, 83.58929
1135.783, 82.28017
1136.265, 82.51814
1136.747, 85.56946
1137.229, 88.26701
1137.712, 87.55930
1138.194, 85.53637
1138.676, 83.83176
1139.158, 82.52014
1139.640, 82.17803
1140.122, 82.98035
1140.604, 82.91955
1141.086, 80.66470
1141.569, 78.12410
1142.051, 77.66443
1142.533, 78.11317
1143.015, 77.64906
1143.497, 75.12858
1143.979, 75.31187
1144.461, 79.04607
1144.943, 82.12108
1145.426, 81.41297
1145.908, 78.90675
1146.390, 77.58710
1146.872, 76.95815
1147.354, 75.96084
1147.836, 72.66080
1148.318, 71.98972
1148.800, 75.25392
1149.282, 78.33373
1149.765, 76.76674
1150.247, 72.83858
1150.729, 71.82936
1151.211, 73.24136
1151.693, 74.48276
1152.175, 74.51073
1152.657, 74.30294
1153.139, 73.88342
1153.621, 73.52888
1154.104, 73.65390
1154.586, 74.11038
1155.068, 74.55128
1155.550, 74.90730
1156.032, 74.73326
1156.514, 73.20654
1156.996, 71.86412
1157.478, 71.24329
1157.961, 71.01320
1158.443, 70.53181
1158.925, 69.88905
1159.407, 69.65439
1159.889, 69.91850
1160.371, 70.20030
1160.853, 70.27503
1161.335, 70.21415
1161.818, 70.05192
1162.300, 69.79379
1162.782, 69.40409
1163.264, 68.89913
1163.746, 68.54050
1164.228, 68.45530
1164.710, 68.07620
1165.192, 66.17930
1165.674, 64.56399
1166.156, 65.16246
1166.639, 67.37442
1167.121, 66.95748
1167.603, 63.93307
1168.085, 61.56693
1168.567, 60.81107
1169.049, 61.23655
1169.531, 63.57996
1170.013, 66.17238
1170.496, 67.28125
1170.978, 66.87946
1171.460, 66.05822
1171.942, 64.77314
1172.424, 63.82373
1172.906, 63.79655
1173.388, 63.85853
1173.870, 62.83543
1174.353, 61.57378
1174.835, 61.30202
1175.317, 62.26298
1175.799, 63.09855
1176.281, 63.84478
1176.763, 64.22175
1177.245, 63.86970
1177.727, 63.29541
1178.209, 63.30504
1178.692, 63.42151
1179.174, 62.70074
1179.656, 60.29729
1180.138, 59.25023
1180.620, 59.74501
1181.102, 60.60099
1181.584, 61.09637
1182.066, 61.36687
1182.548, 61.84600
1183.031, 62.20068
1183.513, 61.54222
1183.995, 58.86416
1184.477, 57.31781
1184.959, 57.20916
1185.441, 57.49964
1185.923, 57.14596
1186.405, 56.72198
1186.888, 57.20333
1187.370, 58.33855
1187.852, 59.15224
1188.334, 59.30907
1188.816, 59.44047
1189.298, 59.54552
1189.780, 59.81052
1190.262, 61.01382
1190.745, 62.16347
1191.227, 61.14956
1191.709, 58.44090
1192.191, 57.09507
1192.673, 58.82965
1193.155, 59.66509
1193.637, 58.78337
1194.119, 57.65350
1194.601, 58.47813
1195.084, 59.99582
1195.566, 59.96699
1196.048, 58.39263
1196.530, 57.19320
1197.012, 56.35367
1197.494, 56.87037
1197.976, 59.47690
1198.458, 62.21018
1198.941, 61.68877
1199.423, 59.64115
1199.905, 59.13759
1200.387, 60.46157
1200.869, 61.47287
1201.351, 61.96160
1201.833, 61.60064
1202.315, 59.98223
1202.797, 58.14109
1203.280, 57.91883
1203.762, 58.59372
1204.244, 58.89485
1204.726, 58.61049
1205.208, 58.52272
1205.690, 59.07705
1206.172, 59.13422
1206.654, 58.08831
1207.136, 56.85364
1207.619, 57.53185
1208.101, 58.97654
1208.583, 58.85612
1209.065, 56.41365
1209.547, 55.36456
1210.029, 56.76604
1210.511, 58.38258
1210.993, 59.69065
1211.476, 60.36267
1211.958, 58.92708
1212.440, 56.75640
1212.922, 56.63268
1213.404, 59.66550
1213.886, 61.64791
1214.368, 61.93338
1214.850, 61.63348
1215.333, 61.05214
1215.815, 60.38730
1216.297, 59.78689
1216.779, 59.43281
1217.261, 59.84179
1217.743, 61.59150
1218.225, 62.03263
1218.707, 60.43001
1219.189, 59.01295
1219.672, 58.87301
1220.154, 59.45387
1220.636, 59.90921
1221.118, 60.27341
1221.600, 60.67590
1222.082, 61.36985
1222.564, 61.19058
1223.046, 59.77354
1223.528, 58.46166
1224.011, 58.00771
1224.493, 58.00243
1224.975, 57.68793
1225.457, 57.33758
1225.939, 57.49120
1226.421, 58.68285
1226.903, 59.20116
1227.385, 58.93684
1227.868, 58.30576
1228.350, 57.14443
1228.832, 56.19180
1229.314, 56.91884
1229.796, 58.54845
1230.278, 59.76755
1230.760, 60.22611
1231.242, 60.59202
1231.724, 60.93075
1232.207, 60.86193
1232.689, 59.81277
1233.171, 58.60327
1233.653, 58.39119
1234.135, 58.71872
1234.617, 58.67533
1235.099, 57.48127
1235.581, 58.67351
1236.063, 62.74935
1236.546, 65.69045
1237.028, 64.13316
1237.510, 61.08196
1237.992, 58.83723
1238.474, 57.60240
1238.956, 58.10718
1239.438, 61.24825
1239.920, 61.62664
1240.403, 59.00491
1240.885, 56.83352
1241.367, 57.94953
1241.849, 59.81535
1242.331, 60.49124
1242.813, 60.35310
1243.295, 59.94730
1243.777, 59.24795
1244.260, 58.27778
1244.742, 57.02262
1245.224, 56.92710
1245.706, 60.51413
1246.188, 63.80393
1246.670, 63.69463
1247.152, 61.85980
1247.634, 60.70652
1248.116, 60.28659
1248.599, 59.64395
1249.081, 58.77851
1249.563, 57.72646
1250.045, 55.74977
1250.527, 54.49146
1251.009, 55.26488
1251.491, 56.91587
1251.973, 58.55243
1252.455, 60.12796
1252.938, 60.13111
1253.420, 58.79305
1253.902, 58.03214
1254.384, 59.94681
1254.866, 61.26129
1255.348, 60.07529
1255.830, 58.51357
1256.313, 58.76503
1256.795, 60.38464
1257.277, 60.24403
1257.759, 58.71073
1258.241, 57.78371
1258.723, 59.02586
1259.205, 60.09359
1259.687, 60.65462
1260.169, 60.71924
1260.651, 60.08638
1261.134, 59.00080
1261.616, 58.02174
1262.098, 57.27789
1262.580, 57.14861
1263.062, 58.79758
1263.544, 59.37697
1264.026, 58.22620
1264.508, 56.99517
1264.991, 57.26198
1265.473, 58.29250
1265.955, 58.73376
1266.437, 58.74648
1266.919, 58.78905
1267.401, 59.01058
1267.883, 59.17939
1268.365, 59.24051
1268.848, 59.45662
1269.330, 60.38158
1269.812, 61.29848
1270.294, 60.95728
1270.776, 61.40422
1271.258, 61.51238
1271.740, 60.98383
1272.222, 61.28223
1272.704, 60.54968
1273.187, 59.71687
1273.669, 59.18853
1274.151, 59.07587
1274.633, 60.00829
1275.115, 61.17131
1275.597, 61.21487
1276.079, 59.89632
1276.561, 59.02077
1277.043, 58.59727
1277.526, 58.50282
1278.008, 58.93708
1278.490, 59.37020
1278.972, 59.45548
1279.454, 59.40301
1279.936, 59.50016
1280.418, 59.72700
1280.900, 59.31804
1281.383, 58.39856
1281.865, 57.76805
1282.347, 57.96790
1282.829, 58.31555
1283.311, 58.72102
1283.793, 59.02907
1284.275, 58.99949
1284.757, 58.78437
1285.240, 58.97610
1285.722, 59.54372
1286.204, 60.41546
1286.686, 62.28102
1287.168, 63.05992
1287.650, 62.24746
1288.132, 61.11438
1288.614, 60.52436
1289.096, 60.21687
1289.578, 59.84554
1290.061, 59.29861
1290.543, 58.23423
1291.025, 55.62494
1291.507, 55.08468
1291.989, 56.97414
1292.471, 59.28648
1292.953, 61.27874
1293.435, 62.57457
1293.918, 62.27527
1294.400, 61.19869
1294.882, 60.57276
1295.364, 60.54241
1295.846, 59.99726
1296.328, 58.91522
1296.810, 58.75055
1297.292, 60.88240
1297.775, 62.88839
1298.257, 62.62829
1298.739, 61.55562
1299.221, 60.90149
1299.703, 60.69880
1300.185, 61.87838
1300.667, 64.05924
1301.149, 64.79185
1301.631, 62.40368
1302.114, 60.40706
1302.596, 59.97824
##END=



