##NAMES=Richterite
##RRUFFID=R060471
##IDEAL CHEMISTRY=Na(CaNa)Mg_5_Si_8_O_22_(OH)_2_
##LOCALITY=Kipawa Complex, Villedieu Township, Quebec, Canada
##OWNER=RRUFF
##SOURCE=Michael Scott
##DESCRIPTION=Black platy fragment embedded in albite
##STATUS=The identification of this mineral has been confirmed by X-ray diffraction and chemical analysis
##URL=rruff.info/R060471
##MEASURED CHEMISTRY=(Na_0.52_K_0.40_[box]_0.08_)(Na_1.60_Ca_0.40_)_&#931;=2_(Mg_4.25_Mn_0.75_)_&#931;=5_Si_8_O_22_(OH)_2_
126.2821, 154.2696
126.7642, 155.7022
127.2463, 156.9583
127.7284, 157.8259
128.2105, 158.4295
128.6927, 159.0365
129.1748, 159.6296
129.6569, 160.2744
130.1390, 161.1021
130.6211, 162.1658
131.1032, 163.0933
131.5854, 163.6009
132.0675, 163.9339
132.5496, 164.3225
133.0317, 164.8938
133.5138, 165.5125
133.9959, 165.8198
134.4781, 165.5227
134.9602, 165.3841
135.4423, 165.7153
135.9244, 166.2892
136.4065, 166.7825
136.8886, 166.9689
137.3708, 166.8901
137.8529, 167.1123
138.3350, 167.8700
138.8171, 168.7169
139.2992, 169.6658
139.7813, 170.6352
140.2635, 171.4816
140.7456, 172.0632
141.2277, 172.3406
141.7098, 172.7145
142.1919, 173.2659
142.6740, 173.8250
143.1561, 174.2382
143.6383, 174.5208
144.1204, 174.8763
144.6025, 175.5186
145.0846, 176.4990
145.5667, 177.5642
146.0488, 179.0694
146.5310, 180.4898
147.0131, 181.2025
147.4952, 181.0421
147.9773, 180.4709
148.4594, 179.9040
148.9415, 179.3423
149.4237, 178.7999
149.9058, 178.2592
150.3879, 177.7398
150.8700, 177.3258
151.3521, 177.1088
151.8342, 176.8841
152.3164, 176.6243
152.7985, 176.2944
153.2806, 175.6044
153.7627, 174.0207
154.2448, 171.5083
154.7269, 169.6915
155.2091, 169.2664
155.6912, 169.2989
156.1733, 169.4626
156.6554, 169.6821
157.1375, 169.8965
157.6196, 170.0535
158.1018, 170.1859
158.5839, 170.1465
159.0660, 169.7984
159.5481, 169.3879
160.0302, 169.0628
160.5123, 168.8609
160.9945, 168.7246
161.4766, 168.5587
161.9587, 168.3728
162.4408, 168.1299
162.9229, 167.6494
163.4050, 167.2013
163.8871, 167.1169
164.3693, 167.5128
164.8514, 168.1325
165.3335, 168.3425
165.8156, 167.7235
166.2977, 167.2823
166.7798, 167.3164
167.2620, 167.5572
167.7441, 167.5916
168.2262, 167.2278
168.7083, 166.5810
169.1904, 165.9762
169.6725, 165.4778
170.1547, 164.9067
170.6368, 164.1246
171.1189, 163.1956
171.6010, 162.3490
172.0831, 161.7253
172.5652, 161.2210
173.0474, 160.5842
173.5295, 159.7320
174.0116, 158.9081
174.4937, 158.2552
174.9758, 157.7715
175.4579, 157.5258
175.9401, 157.8878
176.4222, 158.3375
176.9043, 158.1853
177.3864, 157.0799
177.8685, 155.8931
178.3506, 155.8948
178.8328, 157.4763
179.3149, 158.8517
179.7970, 159.3672
180.2791, 159.4351
180.7612, 159.2341
181.2433, 158.7509
181.7255, 158.3255
182.2076, 158.7956
182.6897, 160.8600
183.1718, 162.5484
183.6539, 163.3439
184.1360, 163.6714
184.6181, 163.9020
185.1003, 164.2036
185.5824, 164.5971
186.0645, 165.1615
186.5466, 166.1506
187.0287, 167.0071
187.5108, 167.5901
187.9930, 168.0165
188.4751, 168.3822
188.9572, 168.7240
189.4393, 169.1046
189.9214, 169.8922
190.4035, 171.3849
190.8857, 172.9499
191.3678, 174.6285
191.8499, 176.2858
192.3320, 177.7111
192.8141, 178.7666
193.2962, 179.4895
193.7784, 180.1600
194.2605, 180.7423
194.7426, 181.3231
195.2247, 181.8062
195.7068, 182.2883
196.1889, 183.0496
196.6711, 184.2956
197.1532, 185.9628
197.6353, 187.6164
198.1174, 189.3659
198.5995, 191.0124
199.0816, 192.4315
199.5638, 193.6448
200.0459, 194.7762
200.5280, 195.8937
201.0101, 196.9837
201.4922, 198.0122
201.9743, 199.0671
202.4565, 199.9772
202.9386, 200.4245
203.4207, 200.3894
203.9028, 200.6401
204.3849, 201.9180
204.8670, 203.6365
205.3492, 204.9355
205.8313, 205.5402
206.3134, 205.8310
206.7955, 206.2419
207.2776, 206.7917
207.7597, 207.3759
208.2419, 208.0267
208.7240, 208.6585
209.2061, 209.1465
209.6882, 209.4016
210.1703, 209.5965
210.6524, 210.1115
211.1346, 211.1840
211.6167, 211.9376
212.0988, 211.9431
212.5809, 211.5984
213.0630, 211.2146
213.5451, 210.8912
214.0273, 210.6928
214.5094, 210.8285
214.9915, 211.6416
215.4736, 212.1559
215.9557, 211.9967
216.4378, 211.5823
216.9200, 211.3584
217.4021, 211.5312
217.8842, 211.9083
218.3663, 211.9228
218.8484, 211.1173
219.3305, 210.6113
219.8127, 210.6858
220.2948, 211.0366
220.7769, 211.4634
221.2590, 211.8762
221.7411, 212.1034
222.2232, 211.6223
222.7054, 209.4387
223.1875, 207.7020
223.6696, 206.7356
224.1517, 206.2039
224.6338, 205.7442
225.1159, 205.1935
225.5980, 204.5946
226.0802, 204.0725
226.5623, 203.9949
227.0444, 203.5488
227.5265, 202.5126
228.0086, 201.1197
228.4907, 199.5970
228.9729, 198.0236
229.4550, 196.5154
229.9371, 195.4212
230.4192, 194.9438
230.9013, 194.5267
231.3834, 194.2383
231.8656, 193.9296
232.3477, 193.3570
232.8298, 192.4115
233.3119, 191.2287
233.7940, 190.0820
234.2761, 189.0166
234.7583, 187.8783
235.2404, 186.3577
235.7225, 184.7801
236.2046, 183.8272
236.6867, 183.8623
237.1688, 184.2364
237.6510, 183.7564
238.1331, 182.3739
238.6152, 180.8766
239.0973, 179.2823
239.5794, 177.7687
240.0615, 176.8232
240.5437, 176.7420
241.0258, 176.9117
241.5079, 176.5544
241.9900, 175.7071
242.4721, 174.6057
242.9542, 173.0507
243.4364, 171.3101
243.9185, 170.1386
244.4006, 169.8650
244.8827, 169.8666
245.3648, 169.5764
245.8469, 169.0219
246.3290, 168.2947
246.8112, 167.4507
247.2933, 166.4738
247.7754, 165.2710
248.2575, 163.7631
248.7396, 162.1315
249.2217, 160.3647
249.7039, 158.5550
250.1860, 157.0645
250.6681, 156.2690
251.1502, 155.9822
251.6323, 155.5118
252.1144, 154.8333
252.5966, 153.9453
253.0787, 152.7782
253.5608, 151.4328
254.0429, 150.1183
254.5250, 148.9546
255.0071, 147.9205
255.4893, 146.9215
255.9714, 145.9516
256.4535, 145.0407
256.9356, 144.2452
257.4177, 143.5023
257.8998, 142.6845
258.3820, 141.6646
258.8641, 140.5508
259.3462, 139.7703
259.8283, 139.6140
260.3104, 139.3117
260.7925, 138.4179
261.2747, 137.3006
261.7568, 136.5045
262.2389, 136.3734
262.7210, 136.5859
263.2031, 136.1580
263.6852, 134.6660
264.1674, 133.2262
264.6495, 131.8387
265.1316, 130.7338
265.6137, 130.2720
266.0958, 130.6378
266.5779, 131.4493
267.0601, 131.8235
267.5422, 131.6783
268.0243, 131.1784
268.5064, 130.0854
268.9885, 128.8550
269.4706, 127.8808
269.9528, 127.3020
270.4349, 127.0040
270.9170, 126.8113
271.3991, 126.9056
271.8812, 126.7318
272.3633, 125.9760
272.8455, 125.1603
273.3276, 124.7049
273.8097, 124.6997
274.2918, 124.9215
274.7739, 125.0436
275.2560, 125.0312
275.7382, 124.9827
276.2202, 124.7220
276.7024, 124.5598
277.1845, 124.7781
277.6666, 125.3654
278.1487, 126.0134
278.6308, 126.3027
279.1129, 125.9944
279.5951, 126.1722
280.0772, 127.4653
280.5593, 128.6197
281.0414, 128.7401
281.5235, 127.9849
282.0056, 127.2706
282.4878, 127.5291
282.9699, 128.9582
283.4520, 129.9431
283.9341, 130.1234
284.4162, 130.2844
284.8983, 130.7655
285.3805, 131.5042
285.8626, 132.2395
286.3447, 132.7534
286.8268, 133.0519
287.3089, 133.6116
287.7910, 134.6490
288.2732, 135.6906
288.7553, 136.6559
289.2374, 137.5214
289.7195, 138.3091
290.2016, 139.0594
290.6837, 139.6898
291.1659, 139.7145
291.6480, 138.0063
292.1301, 137.0107
292.6122, 137.5824
293.0943, 138.9930
293.5764, 140.2114
294.0586, 140.7662
294.5407, 140.9111
295.0228, 141.3360
295.5049, 142.4785
295.9870, 143.3727
296.4691, 143.8356
296.9513, 144.0988
297.4334, 144.4461
297.9155, 144.9617
298.3976, 145.4538
298.8797, 145.5601
299.3618, 144.7062
299.8440, 144.6045
300.3261, 146.0876
300.8082, 147.7861
301.2903, 148.4406
301.7724, 147.8818
302.2545, 147.0476
302.7367, 147.0778
303.2188, 148.3280
303.7009, 149.0767
304.1830, 149.0057
304.6651, 148.7467
305.1472, 148.6010
305.6294, 148.6246
306.1115, 148.8612
306.5936, 149.4301
307.0757, 150.3771
307.5578, 150.5822
308.0399, 149.3770
308.5221, 148.2331
309.0042, 147.8746
309.4863, 148.1158
309.9684, 148.3959
310.4505, 148.3620
310.9326, 148.0591
311.4148, 147.7934
311.8969, 147.5961
312.3790, 147.3936
312.8611, 147.1064
313.3432, 146.8147
313.8253, 146.6503
314.3075, 146.6771
314.7896, 146.8467
315.2717, 147.0456
315.7538, 147.4939
316.2359, 147.6509
316.7180, 147.3197
317.2001, 146.7438
317.6823, 146.1202
318.1644, 145.5139
318.6465, 145.0174
319.1286, 144.7779
319.6107, 144.9261
320.0928, 145.0511
320.5750, 145.3795
321.0571, 145.5316
321.5392, 145.0684
322.0213, 144.0186
322.5034, 142.9080
322.9855, 142.2817
323.4677, 142.2238
323.9498, 142.0356
324.4319, 141.6590
324.9140, 141.2269
325.3961, 140.7359
325.8782, 140.2353
326.3604, 139.8808
326.8425, 139.8354
327.3246, 140.0314
327.8067, 139.6661
328.2888, 138.2788
328.7709, 136.9424
329.2531, 135.9658
329.7352, 135.2168
330.2173, 134.4205
330.6994, 133.4355
331.1815, 132.4209
331.6636, 131.8042
332.1458, 132.1270
332.6279, 132.1923
333.1100, 131.6892
333.5921, 131.0495
334.0742, 130.8099
334.5563, 131.0875
335.0385, 131.4048
335.5206, 131.0179
336.0027, 129.4224
336.4848, 128.4239
336.9669, 128.3989
337.4490, 128.5953
337.9312, 128.5095
338.4133, 128.1332
338.8954, 127.7805
339.3775, 127.7562
339.8596, 128.0945
340.3417, 128.3290
340.8239, 128.3107
341.3060, 128.3553
341.7881, 128.5857
342.2702, 128.9646
342.7523, 129.4176
343.2344, 129.9069
343.7166, 130.4081
344.1987, 130.7975
344.6808, 131.0832
345.1629, 131.2289
345.6450, 131.0464
346.1271, 130.7952
346.6093, 130.7643
347.0914, 131.0581
347.5735, 131.5698
348.0556, 132.1194
348.5377, 132.8787
349.0198, 133.3483
349.5020, 133.3033
349.9841, 133.1802
350.4662, 133.3133
350.9483, 133.7112
351.4304, 134.1079
351.9125, 134.1509
352.3947, 133.7086
352.8768, 133.8006
353.3589, 134.9850
353.8410, 136.1421
354.3231, 136.8831
354.8052, 137.2879
355.2874, 137.5893
355.7695, 137.9253
356.2516, 138.3005
356.7337, 138.7644
357.2158, 139.4968
357.6979, 140.0632
358.1800, 140.2002
358.6621, 140.2217
359.1443, 140.4880
359.6264, 141.1380
360.1085, 141.9917
360.5906, 142.7559
361.0727, 143.4550
361.5548, 143.9916
362.0370, 144.2959
362.5191, 144.4936
363.0012, 144.5789
363.4833, 144.5955
363.9654, 144.7020
364.4475, 145.1364
364.9297, 145.9325
365.4118, 146.4728
365.8939, 146.5043
366.3760, 146.5432
366.8581, 146.7927
367.3402, 147.2024
367.8224, 147.6543
368.3045, 148.0852
368.7866, 148.5027
369.2687, 148.9767
369.7508, 149.6530
370.2329, 150.0441
370.7151, 149.7953
371.1972, 149.2986
371.6793, 148.8957
372.1614, 148.6802
372.6435, 148.6250
373.1256, 148.7875
373.6078, 149.1966
374.0899, 149.3980
374.5720, 149.0645
375.0541, 148.6993
375.5362, 148.8069
376.0183, 149.3273
376.5005, 149.6283
376.9826, 149.0961
377.4647, 147.9819
377.9468, 147.1873
378.4289, 146.7585
378.9110, 146.6736
379.3932, 147.2115
379.8753, 148.0498
380.3574, 148.5610
380.8395, 148.4740
381.3216, 148.0437
381.8037, 147.4709
382.2859, 146.7480
382.7680, 146.1960
383.2501, 146.0124
383.7322, 146.0586
384.2143, 146.0222
384.6964, 145.7932
385.1786, 145.8565
385.6607, 146.8806
386.1428, 148.4189
386.6249, 149.1945
387.1070, 148.7651
387.5891, 147.9274
388.0713, 147.6165
388.5534, 147.7776
389.0355, 147.8223
389.5176, 147.5234
389.9997, 147.1225
390.4818, 146.8453
390.9640, 146.7035
391.4461, 146.6380
391.9282, 146.6380
392.4103, 146.6775
392.8924, 146.6261
393.3745, 146.4384
393.8567, 146.2168
394.3388, 145.9630
394.8209, 145.7066
395.3030, 145.5477
395.7851, 145.5392
396.2672, 145.5272
396.7494, 145.1966
397.2315, 144.2556
397.7136, 143.7107
398.1957, 143.9228
398.6778, 144.3286
399.1599, 144.4710
399.6420, 144.3087
400.1241, 144.0708
400.6063, 143.9906
401.0884, 144.0842
401.5705, 143.7621
402.0526, 142.6640
402.5347, 141.6146
403.0168, 140.6886
403.4990, 140.0142
403.9811, 139.8699
404.4632, 140.3993
404.9453, 141.2737
405.4274, 141.6877
405.9095, 141.3605
406.3917, 141.0158
406.8738, 140.5729
407.3559, 140.1993
407.8380, 140.0971
408.3201, 140.2348
408.8022, 140.3366
409.2844, 140.1083
409.7665, 139.5274
410.2486, 138.9720
410.7307, 138.4809
411.2128, 137.9715
411.6949, 137.4114
412.1771, 136.8176
412.6592, 136.1839
413.1413, 135.4795
413.6234, 134.8269
414.1055, 134.5714
414.5876, 134.9237
415.0698, 135.0241
415.5519, 134.4132
416.0340, 133.6510
416.5161, 133.1476
416.9982, 132.9363
417.4803, 132.7071
417.9625, 132.1160
418.4446, 131.2369
418.9267, 130.5999
419.4088, 130.4058
419.8909, 130.1604
420.3730, 129.5376
420.8552, 128.6428
421.3373, 127.6802
421.8194, 126.7683
422.3015, 125.7683
422.7836, 124.3883
423.2657, 122.6385
423.7479, 121.1005
424.2300, 119.9466
424.7121, 119.2087
425.1942, 119.0003
425.6763, 119.4869
426.1584, 119.6558
426.6406, 118.7467
427.1227, 117.3304
427.6048, 116.4508
428.0869, 116.3073
428.5690, 116.2609
429.0511, 115.7026
429.5333, 114.6269
430.0154, 113.7710
430.4975, 113.3365
430.9796, 112.9335
431.4617, 112.2233
431.9438, 111.3656
432.4260, 110.8369
432.9081, 110.9045
433.3902, 111.2724
433.8723, 111.2491
434.3544, 110.7625
434.8365, 109.9602
435.3187, 108.4190
435.8008, 106.8457
436.2829, 105.8815
436.7650, 105.5562
437.2471, 105.4555
437.7292, 105.2150
438.2114, 104.8325
438.6935, 104.3620
439.1756, 103.3118
439.6577, 102.7273
440.1398, 103.2983
440.6219, 104.3365
441.1040, 104.9055
441.5862, 104.6111
442.0683, 103.8146
442.5504, 103.1313
443.0325, 102.5483
443.5146, 102.1161
443.9967, 101.8268
444.4789, 101.7036
444.9610, 101.9600
445.4431, 102.4489
445.9252, 102.6724
446.4073, 102.0969
446.8894, 100.9965
447.3716, 100.4767
447.8537, 100.7430
448.3358, 101.0779
448.8179, 101.2525
449.3000, 101.2913
449.7821, 101.1829
450.2643, 100.9017
450.7464, 100.5813
451.2285, 100.2507
451.7106, 99.95141
452.1927, 99.96121
452.6748, 100.4594
453.1570, 101.0200
453.6391, 101.1582
454.1212, 100.9642
454.6033, 100.8173
455.0854, 100.8219
455.5675, 100.8975
456.0497, 100.9021
456.5318, 100.8779
457.0139, 101.1417
457.4960, 101.9724
457.9781, 103.0515
458.4602, 103.4609
458.9424, 102.9019
459.4245, 102.4310
459.9066, 102.4601
460.3887, 102.5370
460.8708, 102.0407
461.3529, 100.9609
461.8351, 99.95135
462.3172, 99.62072
462.7993, 99.98674
463.2814, 100.5663
463.7635, 101.9322
464.2456, 102.8423
464.7278, 102.6775
465.2099, 101.9748
465.6920, 101.4643
466.1741, 101.4288
466.6562, 101.6573
467.1383, 101.8507
467.6205, 102.1019
468.1026, 102.0248
468.5847, 101.1071
469.0668, 100.3077
469.5489, 100.1492
470.0310, 100.4864
470.5132, 100.8511
470.9953, 100.9424
471.4774, 100.8836
471.9595, 101.0426
472.4416, 101.5265
472.9237, 101.8296
473.4059, 101.6029
473.8880, 101.2110
474.3701, 100.9474
474.8522, 100.8442
475.3343, 100.8747
475.8164, 101.1326
476.2986, 101.5023
476.7807, 101.6732
477.2628, 101.5808
477.7449, 101.4482
478.2270, 101.4319
478.7091, 101.5148
479.1913, 101.6130
479.6734, 101.9067
480.1555, 102.0096
480.6376, 101.4439
481.1197, 100.5717
481.6018, 100.2118
482.0839, 100.6495
482.5660, 101.4329
483.0482, 101.9648
483.5303, 102.2072
484.0124, 102.2648
484.4945, 101.9711
484.9766, 101.6609
485.4587, 101.5332
485.9409, 101.5358
486.4230, 101.4930
486.9051, 101.2981
487.3872, 101.0407
487.8693, 100.9691
488.3514, 101.0506
488.8336, 101.4036
489.3157, 102.5126
489.7978, 103.4794
490.2799, 103.4831
490.7620, 102.6666
491.2441, 101.9447
491.7263, 102.1245
492.2084, 103.0025
492.6905, 103.6084
493.1726, 103.9095
493.6547, 104.0148
494.1368, 103.7923
494.6190, 103.4807
495.1011, 103.3496
495.5832, 103.4697
496.0653, 103.5784
496.5474, 103.3887
497.0295, 103.0266
497.5117, 102.8875
497.9938, 103.0504
498.4759, 103.3509
498.9580, 103.7288
499.4401, 104.1476
499.9222, 104.4247
500.4044, 104.2224
500.8865, 104.2117
501.3686, 104.9871
501.8507, 106.1731
502.3328, 106.9689
502.8149, 107.0913
503.2971, 106.9282
503.7792, 107.0459
504.2613, 107.6101
504.7434, 107.8443
505.2255, 107.6610
505.7076, 107.2759
506.1898, 106.6467
506.6719, 105.9109
507.1540, 105.2639
507.6361, 104.7975
508.1182, 104.5842
508.6003, 104.8686
509.0825, 105.9300
509.5646, 106.7401
510.0467, 107.1869
510.5288, 107.3676
511.0109, 107.1535
511.4930, 106.6790
511.9752, 106.3440
512.4573, 106.3462
512.9394, 106.6875
513.4215, 107.5810
513.9036, 109.2009
514.3857, 110.2634
514.8679, 109.9640
515.3500, 109.0706
515.8321, 108.6085
516.3142, 108.6454
516.7963, 108.6691
517.2784, 108.2305
517.7606, 107.7550
518.2427, 107.9448
518.7248, 108.8291
519.2069, 109.7806
519.6890, 110.4249
520.1711, 110.7855
520.6533, 110.9436
521.1354, 110.5652
521.6175, 110.4594
522.0996, 110.9329
522.5817, 111.6398
523.0638, 112.3352
523.5460, 112.9204
524.0281, 113.2438
524.5102, 113.0845
524.9923, 112.4678
525.4744, 112.3157
525.9565, 113.0099
526.4387, 113.6947
526.9208, 114.1829
527.4029, 114.5850
527.8850, 115.0165
528.3671, 115.5073
528.8492, 116.0140
529.3314, 116.4975
529.8135, 116.9579
530.2956, 117.3739
530.7777, 117.6553
531.2598, 118.0770
531.7419, 119.1249
532.2241, 120.3582
532.7062, 120.9845
533.1883, 120.5471
533.6704, 120.1182
534.1525, 120.6305
534.6346, 121.6789
535.1168, 122.2778
535.5989, 122.1836
536.0810, 121.8529
536.5631, 121.7532
537.0452, 121.8980
537.5273, 121.8034
538.0095, 121.0093
538.4916, 120.5091
538.9737, 120.9297
539.4558, 121.7877
539.9379, 122.3580
540.4200, 122.4066
540.9022, 122.2145
541.3843, 122.1820
541.8664, 122.3713
542.3485, 122.3691
542.8306, 122.0426
543.3127, 121.6585
543.7948, 121.3096
544.2769, 120.9544
544.7590, 120.5115
545.2411, 119.9410
545.7233, 119.3413
546.2054, 118.8046
546.6875, 118.3340
547.1696, 118.0153
547.6517, 117.8803
548.1339, 117.8614
548.6160, 118.1399
549.0981, 118.5204
549.5802, 118.3664
550.0623, 116.9731
550.5444, 115.6387
551.0266, 115.2459
551.5087, 115.5359
551.9908, 116.0590
552.4729, 116.7031
552.9550, 117.0776
553.4371, 116.6077
553.9193, 115.0605
554.4014, 114.0820
554.8835, 114.0476
555.3656, 114.0794
555.8477, 113.9249
556.3298, 113.6115
556.8120, 113.1769
557.2941, 112.6411
557.7762, 112.1075
558.2583, 111.6554
558.7404, 111.2489
559.2225, 111.2929
559.7047, 112.4026
560.1868, 113.1543
560.6689, 112.6438
561.1510, 111.4334
561.6331, 110.5051
562.1152, 110.2547
562.5974, 110.0682
563.0795, 109.1290
563.5616, 107.7454
564.0437, 107.1588
564.5258, 107.7376
565.0079, 108.5633
565.4901, 108.8521
565.9722, 108.5996
566.4543, 108.2496
566.9364, 107.5818
567.4185, 107.0691
567.9006, 106.9140
568.3828, 107.0160
568.8649, 107.3530
569.3470, 107.8675
569.8291, 108.2151
570.3112, 107.9050
570.7933, 106.8674
571.2755, 106.4409
571.7576, 107.4399
572.2397, 108.0253
572.7218, 107.5447
573.2039, 106.5434
573.6860, 105.5543
574.1682, 104.7176
574.6503, 104.0943
575.1324, 103.7845
575.6145, 103.7439
576.0966, 103.8351
576.5787, 104.1183
577.0609, 104.2575
577.5430, 103.9810
578.0251, 103.4305
578.5072, 102.9704
578.9893, 102.6498
579.4714, 102.3252
579.9536, 101.8413
580.4357, 101.3768
580.9178, 101.2065
581.3999, 101.3280
581.8820, 101.4815
582.3641, 101.4901
582.8463, 101.3445
583.3284, 100.9791
583.8105, 100.0539
584.2926, 99.40606
584.7747, 99.27128
585.2568, 99.28858
585.7390, 99.15492
586.2211, 98.88525
586.7032, 98.73972
587.1853, 99.03056
587.6674, 99.48665
588.1495, 99.23167
588.6317, 98.10571
589.1138, 97.26953
589.5959, 97.21282
590.0780, 97.50443
590.5601, 97.56905
591.0422, 97.41196
591.5244, 97.52011
592.0065, 98.48974
592.4886, 99.43612
592.9707, 99.39695
593.4528, 98.60175
593.9349, 97.90955
594.4171, 97.69971
594.8992, 97.76979
595.3813, 97.76907
595.8634, 97.65252
596.3455, 97.59830
596.8276, 97.65280
597.3098, 97.71115
597.7919, 97.78650
598.2740, 97.82052
598.7561, 97.68563
599.2382, 97.32102
599.7203, 96.93542
600.2025, 96.74018
600.6846, 96.73911
601.1667, 97.17052
601.6488, 98.30559
602.1309, 99.37729
602.6130, 99.86750
603.0952, 99.91544
603.5773, 99.71536
604.0594, 99.15186
604.5415, 98.61129
605.0236, 98.17324
605.5057, 97.92683
605.9879, 98.12968
606.4700, 98.77356
606.9521, 99.38869
607.4342, 99.55354
607.9163, 99.35411
608.3984, 99.45705
608.8806, 100.2230
609.3627, 100.7976
609.8448, 100.9286
610.3269, 100.9818
610.8090, 101.3503
611.2911, 101.9615
611.7733, 102.3394
612.2554, 102.0602
612.7375, 101.4102
613.2196, 101.0241
613.7017, 100.9079
614.1838, 101.0045
614.6660, 101.4177
615.1481, 101.8938
615.6302, 102.2336
616.1123, 102.4394
616.5944, 102.2416
617.0765, 101.0032
617.5587, 99.89548
618.0408, 99.81374
618.5229, 100.4570
619.0050, 101.2692
619.4871, 102.0390
619.9692, 102.4484
620.4514, 101.9344
620.9335, 100.2623
621.4156, 99.45057
621.8977, 100.3333
622.3798, 101.1182
622.8619, 101.3083
623.3441, 101.1806
623.8262, 101.0349
624.3083, 100.9468
624.7904, 100.8812
625.2725, 100.7138
625.7546, 100.5565
626.2367, 100.8789
626.7188, 101.7732
627.2009, 102.2903
627.6830, 101.7449
628.1652, 100.6661
628.6473, 100.3427
629.1294, 101.0735
629.6115, 101.4566
630.0936, 100.9130
630.5757, 100.2752
631.0579, 100.1281
631.5400, 100.4060
632.0221, 100.8299
632.5042, 101.2623
632.9863, 101.6594
633.4684, 101.9470
633.9506, 102.1321
634.4327, 102.1746
634.9148, 102.0396
635.3969, 101.7942
635.8790, 101.3492
636.3611, 100.8587
636.8433, 100.6212
637.3254, 100.7866
637.8075, 100.9713
638.2896, 100.7831
638.7717, 100.4527
639.2538, 100.4977
639.7360, 100.9752
640.2181, 101.4262
640.7002, 101.4996
641.1823, 101.3161
641.6644, 101.3708
642.1465, 102.0569
642.6287, 102.4362
643.1108, 102.1623
643.5929, 101.8685
644.0750, 101.9802
644.5571, 102.4482
645.0392, 103.0648
645.5214, 103.7799
646.0035, 104.3617
646.4856, 104.2402
646.9677, 103.4200
647.4498, 102.9523
647.9319, 102.9195
648.4141, 103.4950
648.8962, 105.3766
649.3783, 108.0625
649.8604, 109.5584
650.3425, 108.7046
650.8246, 108.0084
651.3068, 108.7322
651.7889, 110.0065
652.2710, 110.7723
652.7531, 110.9022
653.2352, 110.8074
653.7173, 110.7405
654.1995, 110.8180
654.6816, 111.5751
655.1637, 113.2272
655.6458, 115.0401
656.1279, 117.0508
656.6100, 119.0724
657.0922, 120.9720
657.5743, 122.7909
658.0564, 124.6527
658.5385, 126.5407
659.0206, 128.5928
659.5027, 131.0357
659.9849, 133.7433
660.4670, 136.2713
660.9491, 138.4954
661.4312, 141.0534
661.9133, 144.6288
662.3954, 149.1362
662.8776, 153.2484
663.3597, 155.7474
663.8418, 159.4685
664.3239, 165.3137
664.8060, 172.0312
665.2881, 178.7449
665.7703, 185.3540
666.2524, 192.0572
666.7345, 198.9680
667.2166, 206.1396
667.6987, 213.9121
668.1808, 222.2636
668.6630, 230.4228
669.1451, 238.2717
669.6272, 245.6372
670.1093, 252.1567
670.5914, 257.8867
671.0735, 263.4983
671.5557, 269.1387
672.0378, 274.4868
672.5199, 279.3329
673.0020, 283.8379
673.4841, 288.3509
673.9662, 292.7928
674.4484, 296.5840
674.9305, 299.1863
675.4126, 300.9848
675.8947, 303.3903
676.3768, 306.6699
676.8589, 309.3930
677.3411, 311.3740
677.8232, 312.5882
678.3053, 313.1925
678.7874, 313.1102
679.2695, 311.9794
679.7516, 309.3459
680.2338, 306.1180
680.7159, 302.9013
681.1980, 299.4115
681.6801, 295.1884
682.1622, 290.1654
682.6443, 284.5175
683.1265, 278.4488
683.6086, 271.7879
684.0907, 263.5154
684.5728, 252.7511
685.0549, 242.3367
685.5370, 232.9299
686.0192, 223.7917
686.5013, 214.3819
686.9834, 204.9052
687.4655, 195.9419
687.9476, 187.8721
688.4297, 180.1445
688.9119, 172.0915
689.3940, 164.0690
689.8761, 157.0087
690.3582, 151.0278
690.8403, 145.6050
691.3224, 140.2559
691.8046, 135.1380
692.2867, 130.9146
692.7688, 128.0475
693.2509, 125.3715
693.7330, 122.9957
694.2151, 120.6543
694.6973, 118.0895
695.1794, 115.4258
695.6615, 112.9725
696.1436, 110.8394
696.6257, 109.0343
697.1078, 107.7373
697.5900, 106.7827
698.0721, 105.4807
698.5542, 103.7116
699.0363, 102.0874
699.5184, 101.0748
700.0005, 100.4836
700.4827, 99.65363
700.9648, 98.14620
701.4469, 97.13223
701.9290, 97.05650
702.4111, 97.07284
702.8932, 96.78747
703.3754, 96.18210
703.8575, 95.17685
704.3396, 93.70138
704.8217, 92.41772
705.3038, 92.48272
705.7859, 93.52234
706.2681, 93.56445
706.7502, 92.29829
707.2323, 91.16763
707.7144, 91.08487
708.1965, 91.55151
708.6786, 91.38060
709.1607, 90.29106
709.6428, 89.42603
710.1249, 88.95925
710.6071, 88.63205
711.0892, 88.26509
711.5713, 87.94652
712.0534, 87.93397
712.5355, 88.29150
713.0176, 88.59941
713.4998, 88.26066
713.9819, 87.43067
714.4640, 87.01751
714.9461, 87.12003
715.4282, 87.05723
715.9103, 86.42788
716.3925, 85.61693
716.8746, 85.26718
717.3567, 85.44411
717.8388, 85.44920
718.3209, 85.02689
718.8030, 84.63737
719.2852, 84.49136
719.7673, 84.51283
720.2494, 84.62522
720.7315, 84.78791
721.2136, 84.91511
721.6957, 84.89743
722.1779, 84.79587
722.6600, 84.89129
723.1421, 85.23223
723.6242, 85.33462
724.1063, 84.99571
724.5884, 84.47124
725.0706, 83.97820
725.5527, 83.52017
726.0348, 83.19408
726.5169, 82.87202
726.9990, 82.84495
727.4811, 83.49655
727.9633, 84.31181
728.4454, 84.79971
728.9275, 84.88331
729.4096, 84.64458
729.8917, 84.08663
730.3738, 83.38072
730.8560, 82.85632
731.3381, 82.51476
731.8202, 82.38319
732.3023, 82.52422
732.7844, 82.75123
733.2665, 83.10883
733.7487, 83.42383
734.2308, 83.03896
734.7129, 81.18165
735.1950, 80.09245
735.6771, 80.88992
736.1592, 82.05637
736.6414, 82.45673
737.1235, 82.20492
737.6056, 81.83436
738.0877, 81.57832
738.5698, 81.46511
739.0519, 81.65517
739.5341, 82.08342
740.0162, 82.11983
740.4983, 81.66943
740.9804, 81.11909
741.4625, 80.60474
741.9446, 80.14725
742.4268, 79.83425
742.9089, 79.73510
743.3910, 79.41479
743.8731, 78.54523
744.3552, 77.76364
744.8373, 77.28525
745.3195, 77.12736
745.8016, 77.44189
746.2837, 78.17688
746.7658, 78.80096
747.2479, 78.75865
747.7300, 78.29697
748.2122, 78.15369
748.6943, 78.33691
749.1764, 78.23438
749.6585, 77.59055
750.1406, 76.83369
750.6227, 76.43312
751.1049, 76.37361
751.5870, 76.04830
752.0691, 75.03282
752.5512, 74.34589
753.0333, 74.41891
753.5154, 74.69078
753.9976, 74.74108
754.4797, 74.55533
754.9618, 74.23912
755.4439, 73.77597
755.9260, 73.45361
756.4081, 73.87718
756.8903, 74.79855
757.3724, 75.13770
757.8545, 74.74339
758.3366, 74.09876
758.8187, 73.39841
759.3008, 72.78581
759.7830, 72.64750
760.2651, 73.32122
760.7472, 73.67171
761.2293, 73.36535
761.7114, 73.13071
762.1935, 73.41167
762.6757, 73.87294
763.1578, 74.10645
763.6399, 74.00935
764.1220, 73.59108
764.6041, 72.50845
765.0862, 71.31017
765.5684, 70.99255
766.0505, 71.37395
766.5326, 71.54225
767.0147, 71.20667
767.4968, 70.52061
767.9789, 69.53379
768.4611, 68.29041
768.9432, 68.03277
769.4253, 69.48753
769.9074, 70.68850
770.3895, 71.46256
770.8716, 71.79274
771.3538, 71.39039
771.8359, 70.50691
772.3180, 69.90643
772.8001, 69.92589
773.2822, 70.08824
773.7643, 70.02908
774.2465, 69.93335
774.7286, 70.17116
775.2107, 70.68680
775.6928, 71.04404
776.1749, 70.99965
776.6570, 70.67577
777.1392, 70.24796
777.6213, 69.66824
778.1034, 69.32683
778.5855, 69.24895
779.0676, 69.37386
779.5497, 69.87489
780.0319, 70.44774
780.5140, 70.68596
780.9961, 70.56561
781.4782, 70.38170
781.9603, 70.13876
782.4424, 69.92219
782.9246, 69.77647
783.4067, 69.68935
783.8888, 69.73727
784.3709, 69.86870
784.8530, 69.75318
785.3351, 69.04548
785.8173, 68.03887
786.2994, 67.56032
786.7815, 67.61300
787.2636, 67.25256
787.7457, 66.09260
788.2278, 65.21616
788.7100, 65.51984
789.1921, 66.74743
789.6742, 67.91482
790.1563, 69.34304
790.6384, 70.13599
791.1205, 69.93230
791.6026, 69.39845
792.0847, 68.63403
792.5668, 67.89433
793.0490, 67.57746
793.5311, 67.79494
794.0132, 68.12539
794.4953, 68.30205
794.9774, 68.32625
795.4595, 68.06514
795.9417, 67.60409
796.4238, 67.50778
796.9059, 67.98308
797.3880, 68.50024
797.8701, 68.42245
798.3522, 67.81056
798.8344, 67.72367
799.3165, 68.69225
799.7986, 69.16103
800.2807, 68.44545
800.7628, 67.54863
801.2449, 66.95497
801.7271, 66.65639
802.2092, 66.59311
802.6913, 66.81622
803.1734, 67.10786
803.6555, 67.40572
804.1376, 67.68057
804.6198, 67.92196
805.1019, 68.11153
805.5840, 68.19824
806.0661, 68.16084
806.5482, 68.07082
807.0303, 68.07114
807.5125, 68.12867
807.9946, 67.80987
808.4767, 66.98207
808.9588, 66.56720
809.4409, 67.07205
809.9230, 67.78413
810.4052, 67.83952
810.8873, 67.23759
811.3694, 66.97385
811.8515, 67.34695
812.3336, 67.64659
812.8157, 67.68803
813.2979, 67.64113
813.7800, 67.52073
814.2621, 67.43858
814.7442, 67.74039
815.2263, 68.69382
815.7084, 69.41806
816.1906, 68.64375
816.6727, 67.15607
817.1548, 66.62481
817.6369, 67.06602
818.1190, 67.66726
818.6011, 68.08091
819.0833, 68.37472
819.5654, 68.66086
820.0475, 68.94665
820.5296, 68.97044
821.0117, 68.49026
821.4938, 68.24998
821.9760, 68.72910
822.4581, 69.26891
822.9402, 69.27010
823.4223, 68.84010
823.9044, 68.50835
824.3865, 68.49065
824.8687, 68.40981
825.3508, 67.75622
825.8329, 67.24794
826.3150, 67.96526
826.7971, 69.43843
827.2792, 70.17637
827.7614, 69.51348
828.2435, 68.46255
828.7256, 68.30804
829.2077, 68.80500
829.6898, 68.93398
830.1719, 68.66946
830.6541, 68.78744
831.1362, 69.69524
831.6183, 70.63480
832.1004, 70.65238
832.5825, 69.76485
833.0646, 69.15934
833.5468, 68.79660
834.0289, 68.79935
834.5110, 69.79053
834.9931, 70.56030
835.4752, 69.97291
835.9573, 68.59941
836.4395, 67.96803
836.9216, 68.64427
837.4037, 69.48389
837.8858, 70.07671
838.3679, 70.38750
838.8500, 70.09074
839.3322, 69.51743
839.8143, 69.59330
840.2964, 70.58358
840.7785, 71.62341
841.2606, 71.68839
841.7427, 71.05086
842.2249, 70.79926
842.7070, 70.95088
843.1891, 71.10194
843.6712, 71.17701
844.1533, 71.14920
844.6354, 70.95361
845.1176, 70.64238
845.5997, 70.47456
846.0818, 70.51454
846.5639, 70.60152
847.0460, 70.73820
847.5281, 70.91731
848.0103, 71.16335
848.4924, 71.43848
848.9745, 71.72107
849.4566, 72.00670
849.9387, 72.16246
850.4208, 72.03878
850.9030, 71.82993
851.3851, 71.70898
851.8672, 71.63625
852.3493, 71.43629
852.8314, 71.13726
853.3135, 71.14109
853.7957, 71.82602
854.2778, 72.77827
854.7599, 72.89884
855.2420, 72.21485
855.7241, 72.20258
856.2062, 73.18430
856.6884, 74.00091
857.1705, 74.00497
857.6526, 73.49049
858.1347, 72.94250
858.6168, 72.29002
859.0989, 71.93528
859.5811, 71.81441
860.0632, 72.06206
860.5453, 73.29432
861.0274, 74.46495
861.5095, 74.50590
861.9916, 73.57787
862.4738, 72.70187
862.9559, 72.16933
863.4380, 71.88425
863.9201, 71.81395
864.4022, 71.93894
864.8843, 72.32945
865.3665, 72.89552
865.8486, 73.40344
866.3307, 73.75176
866.8128, 73.95218
867.2949, 73.94460
867.7770, 73.80064
868.2592, 73.93537
868.7413, 74.35697
869.2234, 74.35289
869.7055, 73.61401
870.1876, 72.87424
870.6697, 72.83865
871.1519, 73.38625
871.6340, 73.83983
872.1161, 74.11060
872.5981, 74.45667
873.0803, 75.21941
873.5624, 75.69247
874.0445, 75.44506
874.5266, 74.78757
875.0087, 74.04747
875.4908, 73.24461
875.9730, 72.84404
876.4551, 73.40372
876.9372, 73.98139
877.4193, 73.74535
877.9014, 73.31362
878.3835, 73.72901
878.8657, 74.89379
879.3478, 75.73876
879.8299, 75.60208
880.3120, 74.96788
880.7941, 74.27213
881.2762, 73.64995
881.7584, 73.62238
882.2405, 74.18900
882.7226, 74.82536
883.2047, 75.28830
883.6868, 75.84641
884.1689, 77.01868
884.6511, 78.75078
885.1332, 79.00480
885.6153, 77.03838
886.0974, 75.66124
886.5795, 75.73631
887.0616, 76.13931
887.5438, 76.04282
888.0259, 75.60133
888.5080, 75.27874
888.9901, 75.10075
889.4722, 75.00430
889.9543, 74.95426
890.4365, 75.01059
890.9186, 75.40140
891.4007, 75.81410
891.8828, 75.73153
892.3649, 75.14915
892.8470, 74.69621
893.3292, 74.82695
893.8113, 75.11207
894.2934, 75.12514
894.7755, 75.01246
895.2576, 75.02752
895.7397, 75.18519
896.2219, 75.38097
896.7040, 75.56114
897.1861, 75.71383
897.6682, 75.81203
898.1503, 75.86246
898.6324, 75.94017
899.1146, 76.05326
899.5967, 76.04772
900.0788, 75.84235
900.5609, 75.62925
901.0430, 75.60781
901.5251, 75.74074
902.0073, 75.78860
902.4894, 75.65742
902.9715, 75.63624
903.4536, 75.88843
903.9357, 76.07702
904.4178, 75.95090
904.9000, 75.72510
905.3821, 75.71037
905.8642, 75.94080
906.3463, 76.16718
906.8284, 76.48708
907.3105, 76.59993
907.7927, 76.07195
908.2748, 75.47800
908.7569, 75.50655
909.2390, 76.03869
909.7211, 76.45499
910.2032, 76.46072
910.6854, 76.40465
911.1675, 76.76707
911.6496, 77.18639
912.1317, 76.78294
912.6138, 75.88203
913.0959, 75.86648
913.5781, 77.08276
914.0602, 78.29171
914.5423, 78.30305
915.0244, 77.49368
915.5065, 76.89157
915.9886, 76.49504
916.4708, 76.65051
916.9529, 77.53255
917.4350, 78.23560
917.9171, 78.21204
918.3992, 77.82175
918.8813, 77.68790
919.3635, 77.84081
919.8456, 78.01523
920.3277, 78.16882
920.8098, 78.41562
921.2919, 79.00040
921.7740, 79.48767
922.2562, 79.40841
922.7383, 78.98817
923.2204, 78.93172
923.7025, 79.49391
924.1846, 79.96922
924.6667, 80.38096
925.1489, 80.44582
925.6310, 79.49699
926.1131, 78.35879
926.5952, 78.37641
927.0773, 79.55294
927.5594, 80.37683
928.0416, 79.73252
928.5237, 78.87516
929.0058, 78.97157
929.4879, 79.59241
929.9700, 80.21141
930.4521, 80.69607
930.9343, 80.85259
931.4164, 80.60821
931.8985, 80.21658
932.3806, 79.99592
932.8627, 79.85680
933.3448, 79.46836
933.8270, 78.85715
934.3091, 78.29459
934.7912, 77.84089
935.2733, 77.47229
935.7554, 77.18354
936.2375, 76.94199
936.7197, 76.64845
937.2018, 76.26334
937.6839, 76.07088
938.1660, 76.15279
938.6481, 76.23289
939.1302, 76.31567
939.6124, 76.23785
940.0945, 75.73970
940.5766, 74.88391
941.0587, 74.25893
941.5408, 74.01467
942.0229, 73.75767
942.5051, 73.15816
942.9872, 72.88316
943.4693, 73.74673
943.9514, 74.87547
944.4335, 74.96382
944.9156, 73.89104
945.3978, 72.88577
945.8799, 72.35191
946.3620, 72.00394
946.8441, 71.75994
947.3262, 71.58854
947.8083, 71.41910
948.2905, 71.30232
948.7726, 71.45362
949.2547, 71.95786
949.7368, 72.29245
950.2189, 71.69306
950.7010, 70.91663
951.1832, 71.06258
951.6653, 71.84693
952.1474, 72.72983
952.6295, 73.49790
953.1116, 73.68602
953.5938, 72.93674
954.0759, 71.86198
954.5580, 71.49118
955.0400, 71.70751
955.5222, 71.90044
956.0043, 72.05043
956.4864, 72.29293
956.9685, 72.68486
957.4506, 73.07210
957.9327, 73.30803
958.4149, 73.40913
958.8970, 73.40575
959.3791, 73.24667
959.8612, 73.26105
960.3433, 73.54018
960.8254, 73.80213
961.3076, 73.87009
961.7897, 73.91472
962.2718, 74.19752
962.7539, 74.72502
963.2360, 75.10696
963.7181, 75.03162
964.2003, 75.29408
964.6824, 76.24621
965.1645, 77.24497
965.6466, 78.12873
966.1287, 78.76714
966.6108, 78.79160
967.0930, 78.06721
967.5751, 77.85392
968.0572, 79.20116
968.5393, 80.11709
969.0214, 79.23764
969.5035, 78.05090
969.9857, 77.97290
970.4678, 78.77506
970.9499, 79.58501
971.4320, 80.16554
971.9141, 80.45836
972.3962, 80.11739
972.8784, 79.77592
973.3605, 80.23938
973.8426, 80.96078
974.3247, 80.93008
974.8068, 80.17777
975.2889, 79.56599
975.7711, 79.56831
976.2532, 79.87807
976.7353, 80.25536
977.2174, 80.65188
977.6995, 81.01135
978.1816, 81.31275
978.6638, 81.44476
979.1459, 81.40339
979.6280, 81.45240
980.1101, 81.84949
980.5922, 82.32310
981.0743, 82.29208
981.5565, 81.81552
982.0386, 81.10201
982.5207, 80.19020
983.0028, 79.80508
983.4849, 80.27608
983.9670, 80.88869
984.4492, 80.83320
984.9313, 80.27900
985.4134, 80.06070
985.8955, 80.24505
986.3776, 80.29914
986.8597, 80.22808
987.3419, 79.73888
987.8240, 78.47837
988.3061, 77.12563
988.7882, 76.71900
989.2703, 77.25275
989.7524, 77.38428
990.2346, 76.89210
990.7167, 76.48794
991.1988, 76.29129
991.6809, 76.15065
992.1630, 76.01454
992.6451, 75.86362
993.1273, 75.63117
993.6094, 75.28411
994.0915, 75.10481
994.5736, 75.00173
995.0557, 75.19995
995.5378, 76.30659
996.0200, 77.17857
996.5021, 76.89285
996.9842, 75.86643
997.4663, 74.87747
997.9484, 73.97758
998.4305, 73.51688
998.9127, 73.94321
999.3948, 74.37894
999.8769, 74.43419
1000.359, 74.34107
1000.841, 74.27054
1001.323, 74.25632
1001.805, 74.33768
1002.287, 74.54648
1002.770, 74.68982
1003.252, 74.64030
1003.734, 74.52070
1004.216, 74.41402
1004.698, 74.29520
1005.180, 74.11946
1005.662, 73.89224
1006.144, 73.61138
1006.627, 73.24367
1007.109, 73.05934
1007.591, 73.45792
1008.073, 74.01363
1008.555, 74.30446
1009.037, 74.33689
1009.519, 73.98943
1010.001, 73.39536
1010.483, 73.15210
1010.966, 73.62098
1011.448, 74.43336
1011.930, 75.51928
1012.412, 76.45747
1012.894, 76.11207
1013.376, 74.88642
1013.858, 74.18947
1014.340, 74.31931
1014.823, 74.71369
1015.305, 75.00119
1015.787, 75.21467
1016.269, 75.51146
1016.751, 75.77570
1017.233, 75.46226
1017.715, 74.62836
1018.197, 73.73862
1018.679, 72.93980
1019.162, 72.63493
1019.644, 73.21708
1020.126, 74.28209
1020.608, 75.04554
1021.090, 75.48818
1021.572, 75.19962
1022.054, 74.13603
1022.536, 73.45562
1023.018, 73.56431
1023.501, 73.80520
1023.983, 73.54459
1024.465, 73.05097
1024.947, 73.29200
1025.429, 74.37464
1025.911, 74.81149
1026.393, 74.40125
1026.875, 74.17031
1027.358, 74.50903
1027.840, 75.01526
1028.322, 75.30173
1028.804, 75.42999
1029.286, 75.69463
1029.768, 76.24152
1030.250, 76.26927
1030.732, 75.55048
1031.214, 74.85835
1031.697, 74.32526
1032.179, 74.18184
1032.661, 74.76840
1033.143, 75.92352
1033.625, 76.81981
1034.107, 77.28777
1034.589, 77.96491
1035.071, 79.21929
1035.553, 80.01188
1036.036, 79.78567
1036.518, 79.15044
1037.000, 78.57803
1037.482, 78.11547
1037.964, 78.04748
1038.446, 78.58272
1038.928, 79.10256
1039.410, 79.51159
1039.893, 80.03117
1040.375, 80.82210
1040.857, 81.68793
1041.339, 82.52845
1041.821, 83.29893
1042.303, 83.72009
1042.785, 83.52192
1043.267, 83.49626
1043.750, 83.65537
1044.232, 84.01530
1044.714, 84.70967
1045.196, 85.50756
1045.678, 86.33317
1046.160, 87.08340
1046.642, 87.29617
1047.124, 86.39431
1047.606, 86.16539
1048.089, 87.56509
1048.571, 88.79075
1049.053, 88.91255
1049.535, 88.68567
1050.017, 88.72802
1050.499, 89.10173
1050.981, 89.86556
1051.463, 91.22868
1051.945, 92.43306
1052.428, 93.23548
1052.910, 93.95139
1053.392, 94.73930
1053.874, 95.49889
1054.356, 95.99449
1054.838, 96.36781
1055.320, 97.15251
1055.802, 98.63892
1056.285, 99.89848
1056.767, 100.2649
1057.249, 100.8298
1057.731, 102.3593
1058.213, 104.1544
1058.695, 105.5161
1059.177, 106.5132
1059.659, 107.5310
1060.141, 108.6330
1060.624, 109.8880
1061.106, 111.6562
1061.588, 113.1826
1062.070, 113.6853
1062.552, 114.0874
1063.034, 115.5850
1063.516, 117.7379
1063.998, 119.0899
1064.480, 119.1713
1064.963, 119.4711
1065.445, 120.6940
1065.927, 122.1441
1066.409, 123.6216
1066.891, 125.0170
1067.373, 126.1332
1067.855, 127.1046
1068.337, 128.3577
1068.820, 130.0247
1069.302, 131.3128
1069.784, 131.4994
1070.266, 131.7020
1070.748, 132.7638
1071.230, 133.8876
1071.712, 134.1518
1072.194, 133.9454
1072.677, 134.2663
1073.159, 135.3191
1073.641, 136.2296
1074.123, 136.4676
1074.605, 136.6633
1075.087, 137.2374
1075.569, 137.8167
1076.051, 138.0589
1076.533, 138.0678
1077.016, 138.1847
1077.498, 138.4246
1077.980, 138.1688
1078.462, 136.4263
1078.944, 135.1928
1079.426, 136.0639
1079.908, 137.2124
1080.390, 137.0291
1080.872, 136.1648
1081.354, 135.8523
1081.837, 136.1953
1082.319, 136.2999
1082.801, 135.7345
1083.283, 135.0571
1083.765, 134.4160
1084.247, 133.8739
1084.729, 133.3938
1085.211, 133.0918
1085.694, 133.2519
1086.176, 133.7704
1086.658, 134.0727
1087.140, 133.9622
1087.622, 133.6378
1088.104, 132.9644
1088.586, 132.3452
1089.068, 132.0679
1089.551, 131.9648
1090.033, 131.7962
1090.515, 131.6075
1090.997, 131.5856
1091.479, 131.7062
1091.961, 132.3350
1092.443, 134.1380
1092.925, 135.8400
1093.407, 137.0584
1093.890, 137.6128
1094.372, 136.7573
1094.854, 135.2478
1095.336, 135.0279
1095.818, 136.6646
1096.300, 137.8755
1096.782, 137.6335
1097.264, 137.2391
1097.746, 136.8209
1098.229, 136.8156
1098.711, 137.8453
1099.193, 139.4150
1099.675, 140.5883
1100.157, 141.2326
1100.639, 142.0010
1101.121, 143.4539
1101.603, 144.4715
1102.086, 144.2348
1102.568, 144.0305
1103.050, 144.9423
1103.532, 146.2126
1104.014, 146.6069
1104.496, 146.1528
1104.978, 146.1302
1105.460, 146.5553
1105.943, 147.7545
1106.425, 150.7692
1106.907, 153.3751
1107.389, 154.2675
1107.871, 154.5044
1108.353, 155.2836
1108.835, 156.4549
1109.317, 157.0751
1109.799, 156.8530
1110.281, 156.6316
1110.764, 155.8139
1111.246, 155.8763
1111.728, 158.3456
1112.210, 160.8371
1112.692, 161.2033
1113.174, 160.2034
1113.656, 159.7653
1114.138, 159.9201
1114.621, 160.5089
1115.103, 161.8852
1115.585, 163.1215
1116.067, 164.1740
1116.549, 164.9067
1117.031, 165.0339
1117.513, 164.9561
1117.995, 165.4093
1118.478, 166.4036
1118.960, 166.7911
1119.442, 165.9858
1119.924, 166.0271
1120.406, 167.5613
1120.888, 169.0002
1121.370, 169.7173
1121.852, 169.9219
1122.334, 169.6770
1122.817, 169.1706
1123.299, 169.5547
1123.781, 171.2456
1124.263, 171.9915
1124.745, 171.3888
1125.227, 171.1355
1125.709, 171.8243
1126.191, 172.7808
1126.673, 173.5020
1127.156, 173.9930
1127.638, 174.2706
1128.120, 174.3340
1128.602, 174.1139
1129.084, 173.5816
1129.566, 173.0155
1130.048, 172.4420
1130.530, 172.1732
1131.013, 172.4401
1131.495, 172.8326
1131.977, 172.6857
1132.459, 172.1695
1132.941, 172.2185
1133.423, 172.7722
1133.905, 172.9313
1134.387, 172.6123
1134.870, 172.2641
1135.352, 172.0636
1135.834, 171.8730
1136.316, 171.5307
1136.798, 171.1891
1137.280, 171.1997
1137.762, 171.4825
1138.244, 171.9797
1138.726, 172.5062
1139.208, 172.0235
1139.691, 170.4584
1140.173, 169.3557
1140.655, 169.7371
1141.137, 170.4120
1141.619, 169.7339
1142.101, 168.4147
1142.583, 167.6961
1143.065, 167.3592
1143.548, 166.8162
1144.030, 166.0894
1144.512, 165.5959
1144.994, 165.4941
1145.476, 165.6035
1145.958, 165.9504
1146.440, 166.2212
1146.922, 166.1989
1147.405, 165.8381
1147.887, 164.8130
1148.369, 163.5007
1148.851, 162.7731
1149.333, 162.6677
1149.815, 162.2174
1150.297, 160.7451
1150.779, 159.4499
1151.261, 159.2199
1151.744, 159.2211
1152.226, 158.9177
1152.708, 158.4423
1153.190, 158.0061
1153.672, 157.5778
1154.154, 156.9836
1154.636, 156.1637
1155.118, 155.3117
1155.600, 154.1556
1156.083, 153.4268
1156.565, 153.7876
1157.047, 154.2393
1157.529, 154.1846
1158.011, 153.7031
1158.493, 152.8023
1158.975, 151.5025
1159.457, 150.7108
1159.940, 150.9887
1160.422, 150.9397
1160.904, 150.2816
1161.386, 149.6315
1161.868, 149.0975
1162.350, 148.8007
1162.832, 149.1049
1163.314, 149.6113
1163.796, 148.9104
1164.279, 146.5500
1164.761, 145.6460
1165.243, 146.7197
1165.725, 147.4550
1166.207, 147.4286
1166.689, 146.8830
1167.171, 145.8369
1167.653, 144.6990
1168.135, 144.0555
1168.618, 143.8313
1169.100, 143.6373
1169.582, 143.4734
1170.064, 143.2834
1170.546, 143.0623
1171.028, 142.6614
1171.510, 142.0314
1171.992, 141.7274
1172.474, 142.2573
1172.957, 143.0555
1173.439, 143.0450
1173.921, 142.5367
1174.403, 142.5260
1174.885, 142.8329
1175.367, 142.6992
1175.849, 142.1265
1176.331, 141.8089
1176.814, 142.0390
1177.296, 142.3672
1177.778, 142.3964
1178.260, 142.3176
1178.742, 142.4233
1179.224, 142.5054
1179.706, 142.2338
1180.188, 141.7278
1180.671, 141.0778
1181.153, 140.4575
1181.635, 140.5926
1182.117, 142.1544
1182.599, 143.2222
1183.081, 142.2134
1183.563, 141.0407
1184.045, 140.6787
1184.527, 140.9239
1185.010, 141.9649
1185.492, 143.2801
1185.974, 143.6250
1186.456, 142.7551
1186.938, 142.4462
1187.420, 143.7463
1187.902, 144.4675
1188.384, 143.7881
1188.866, 143.0444
1189.349, 142.6339
1189.831, 142.6130
1190.313, 143.2265
1190.795, 144.2479
1191.277, 144.7649
1191.759, 144.6564
1192.241, 144.5286
1192.723, 144.2960
1193.206, 144.3943
1193.688, 145.0142
1194.170, 145.5424
1194.652, 145.5709
1195.134, 145.5108
1195.616, 145.9594
1196.098, 146.7935
1196.580, 147.5541
1197.063, 148.2251
1197.545, 148.6246
1198.027, 148.7715
1198.509, 149.0387
1198.991, 149.5036
1199.473, 149.6569
1199.955, 149.0974
1200.437, 148.4807
1200.919, 148.7136
1201.401, 149.4318
1201.884, 150.1918
1202.366, 150.8542
1202.848, 151.1581
1203.330, 151.1309
1203.812, 150.7910
1204.294, 150.2221
1204.776, 150.1033
1205.258, 151.0146
1205.741, 152.1113
1206.223, 153.2812
1206.705, 153.9644
1207.187, 153.2313
1207.669, 152.1292
1208.151, 151.8212
1208.633, 152.3171
1209.115, 153.3477
1209.598, 155.0748
1210.080, 156.1298
1210.562, 155.7278
1211.044, 155.5090
1211.526, 156.0793
1212.008, 156.5288
1212.490, 156.1253
1212.972, 155.7467
1213.454, 156.6583
1213.937, 158.4395
1214.419, 158.8657
1214.901, 157.4041
1215.383, 157.4585
1215.865, 159.3584
1216.347, 160.8486
1216.829, 161.4179
1217.311, 161.4895
1217.793, 161.2532
1218.276, 161.0727
1218.758, 161.4985
1219.240, 162.2678
1219.722, 162.5136
1220.204, 162.4758
1220.686, 163.1424
1221.168, 164.3658
1221.650, 165.1933
1222.133, 165.4935
1222.615, 166.0576
1223.097, 167.3622
1223.579, 168.7446
1224.061, 169.7252
1224.543, 170.3675
1225.025, 170.5688
1225.507, 170.5859
1225.990, 170.6124
1226.472, 170.7361
1226.954, 171.1125
1227.436, 171.7283
1227.918, 172.2899
1228.400, 172.9530
1228.882, 173.0371
1229.364, 171.3439
1229.846, 170.4047
1230.328, 172.2122
1230.811, 174.1104
1231.293, 173.7744
1231.775, 172.3755
1232.257, 172.0888
1232.739, 172.9068
1233.221, 173.7323
1233.703, 174.6296
1234.185, 175.1384
1234.668, 175.0556
1235.150, 175.7714
1235.632, 177.8980
1236.114, 179.5040
1236.596, 178.9569
1237.078, 177.6662
1237.560, 178.2837
1238.042, 180.0922
1238.525, 180.7090
1239.007, 180.4724
1239.489, 180.4531
1239.971, 180.6847
1240.453, 180.6618
1240.935, 180.2926
1241.417, 180.1229
1241.899, 180.5274
1242.381, 181.1008
1242.864, 181.4850
1243.346, 181.9466
1243.828, 182.7527
1244.310, 183.7251
1244.792, 184.5859
1245.274, 185.4611
1245.756, 186.9485
1246.238, 189.1082
1246.720, 189.9982
1247.203, 187.8421
1247.685, 186.8308
1248.167, 188.2860
1248.649, 189.3062
1249.131, 188.6130
1249.613, 187.8811
1250.095, 188.4462
1250.577, 189.7195
1251.059, 190.5646
1251.542, 191.0184
1252.024, 191.5797
1252.506, 192.2466
1252.988, 192.4009
1253.470, 192.0173
1253.952, 191.6497
1254.434, 191.4913
1254.916, 191.6673
1255.399, 192.2890
1255.881, 193.0787
1256.363, 193.5995
1256.845, 194.1467
1257.327, 195.3883
1257.809, 196.7709
1258.291, 197.2889
1258.773, 197.2833
1259.255, 197.5767
1259.738, 198.3782
1260.220, 199.7946
1260.702, 202.4659
1261.184, 204.0738
1261.666, 202.8121
1262.148, 201.7872
1262.630, 202.4172
1263.112, 203.5227
1263.594, 204.5116
1264.077, 205.2261
1264.559, 205.3133
1265.041, 204.8842
1265.523, 204.9126
1266.005, 205.4895
1266.487, 205.8945
1266.969, 206.0332
1267.451, 206.9130
1267.934, 208.8040
1268.416, 210.2726
1268.898, 210.5098
1269.380, 210.1365
1269.862, 209.5704
1270.344, 209.4124
1270.826, 211.3727
1271.308, 214.1756
1271.791, 215.4758
1272.273, 215.6071
1272.755, 215.2397
1273.237, 214.8185
1273.719, 215.3078
1274.201, 217.0975
1274.683, 218.7276
1275.165, 219.7204
1275.647, 220.1949
1276.130, 219.5473
1276.612, 219.1609
1277.094, 220.1388
1277.576, 221.5378
1278.058, 222.3840
1278.540, 222.8102
1279.022, 223.1496
1279.504, 223.3842
1279.986, 223.8430
1280.469, 224.5202
1280.951, 225.5062
1281.433, 226.8479
1281.915, 227.9583
1282.397, 228.6329
1282.879, 228.9103
1283.361, 228.7431
1283.843, 228.7567
1284.326, 229.6978
1284.808, 231.5545
##END=



