##NAMES=Richterite
##RRUFFID=R050414
##IDEAL CHEMISTRY=Na(CaNa)Mg_5_Si_8_O_22_(OH)_2_
##LOCALITY=Kokcha Valley, Badakhshan, Afghanistan
##OWNER=RRUFF
##SOURCE=Marcus Origlieri
##DESCRIPTION=Transparent pale yellowish-green bladed crystal
##STATUS=The identification of this mineral has been confirmed by X-ray diffraction and chemical analysis
##URL=rruff.info/R050414
##MEASURED CHEMISTRY=(Na_0.67_K_0.33_)_Σ=1_(Ca_1.19_Na_0.81_)_Σ=2_Mg_5.00_(Si_7.80_Al_0.19_Ti_0.01_)_Σ=8_O_22_((OH)_1.58_F_0.42_)_Σ=2_
92.52344, 42760.02
93.00555, 41959.53
93.48767, 42060.30
93.96979, 44285.24
94.45190, 46564.25
94.93402, 48703.45
95.41614, 50048.52
95.89825, 50822.66
96.38037, 51428.75
96.86249, 51869.52
97.34460, 52168.45
97.82672, 52376.63
98.30884, 52529.00
98.79095, 52644.28
99.27307, 52651.83
99.75519, 52511.52
100.2373, 52357.71
100.7194, 52236.86
101.2015, 52164.35
101.6837, 52136.71
102.1658, 52128.99
102.6479, 52117.14
103.1300, 52095.32
103.6121, 52092.63
104.0942, 52127.36
104.5764, 52187.92
105.0585, 52269.35
105.5406, 52377.59
106.0227, 52502.97
106.5048, 52613.55
106.9869, 52674.79
107.4691, 52738.60
107.9512, 52834.78
108.4333, 52953.63
108.9154, 53071.18
109.3975, 53164.72
109.8796, 53227.93
110.3618, 53296.22
110.8439, 53368.89
111.3260, 53443.89
111.8081, 53522.96
112.2902, 53604.18
112.7723, 53682.33
113.2544, 53749.63
113.7366, 53798.16
114.2187, 53849.86
114.7008, 53911.56
115.1829, 53972.16
115.6650, 54017.84
116.1471, 54043.51
116.6293, 54060.26
117.1114, 54096.98
117.5935, 54171.99
118.0756, 54229.05
118.5577, 54238.31
119.0398, 54217.71
119.5220, 54211.29
120.0041, 54241.20
120.4862, 54295.97
120.9683, 54346.16
121.4504, 54391.71
121.9325, 54431.89
122.4147, 54461.52
122.8968, 54478.96
123.3789, 54501.95
123.8610, 54544.80
124.3431, 54595.70
124.8252, 54644.73
125.3074, 54689.39
125.7895, 54729.49
126.2716, 54763.19
126.7537, 54783.07
127.2358, 54809.38
127.7179, 54853.27
128.2001, 54905.11
128.6822, 54952.39
129.1643, 54986.23
129.6464, 55008.24
130.1285, 55036.25
130.6107, 55076.68
131.0928, 55118.26
131.5749, 55163.76
132.0570, 55209.11
132.5391, 55245.15
133.0212, 55261.09
133.5034, 55250.73
133.9855, 55268.93
134.4676, 55332.92
134.9497, 55405.70
135.4318, 55470.09
135.9139, 55523.24
136.3960, 55568.45
136.8782, 55607.36
137.3603, 55638.17
137.8424, 55672.98
138.3245, 55712.71
138.8066, 55756.48
139.2887, 55804.59
139.7709, 55858.05
140.2530, 55910.86
140.7351, 55951.11
141.2172, 55979.55
141.6993, 56015.40
142.1814, 56071.26
142.6636, 56141.82
143.1457, 56208.55
143.6278, 56267.26
144.1099, 56320.19
144.5920, 56369.88
145.0741, 56416.34
145.5563, 56462.09
146.0384, 56509.98
146.5205, 56560.57
147.0026, 56608.85
147.4847, 56649.68
147.9668, 56691.02
148.4490, 56739.82
148.9311, 56796.65
149.4132, 56854.00
149.8953, 56898.95
150.3774, 56922.22
150.8595, 56951.95
151.3417, 56988.94
151.8238, 57032.02
152.3059, 57082.95
152.7880, 57141.45
153.2701, 57202.71
153.7522, 57253.96
154.2344, 57278.89
154.7165, 57310.91
155.1986, 57354.00
155.6807, 57403.92
156.1628, 57455.76
156.6449, 57507.04
157.1271, 57558.14
157.6092, 57610.80
158.0913, 57662.39
158.5734, 57718.59
159.0555, 57796.53
159.5376, 57882.93
160.0198, 57940.01
160.5019, 57939.88
160.9840, 57897.05
161.4661, 57872.45
161.9482, 57865.88
162.4303, 57875.95
162.9125, 57912.50
163.3946, 57974.07
163.8767, 58025.38
164.3588, 58040.82
164.8409, 58032.55
165.3230, 58019.66
165.8052, 57994.23
166.2873, 57975.48
166.7694, 57994.17
167.2515, 58060.74
167.7336, 58129.93
168.2157, 58184.04
168.6979, 58227.10
169.1800, 58263.34
169.6621, 58295.87
170.1442, 58321.91
170.6263, 58329.71
171.1084, 58296.51
171.5906, 58282.99
172.0727, 58321.55
172.5548, 58386.21
173.0369, 58439.91
173.5190, 58458.03
174.0011, 58445.64
174.4833, 58445.73
174.9654, 58465.07
175.4475, 58491.70
175.9296, 58527.76
176.4117, 58569.04
176.8938, 58609.71
177.3760, 58645.70
177.8581, 58676.98
178.3402, 58702.80
178.8223, 58712.96
179.3044, 58728.32
179.7865, 58763.73
180.2687, 58812.77
180.7508, 58855.59
181.2329, 58874.22
181.7150, 58866.04
182.1971, 58864.03
182.6792, 58871.61
183.1614, 58881.71
183.6435, 58890.07
184.1256, 58896.66
184.6077, 58903.80
185.0898, 58911.25
185.5719, 58919.68
186.0541, 58942.70
186.5362, 58993.46
187.0183, 59051.09
187.5004, 59096.02
187.9825, 59125.82
188.4646, 59149.68
188.9468, 59176.86
189.4289, 59205.30
189.9110, 59226.16
190.3931, 59229.21
190.8752, 59226.01
191.3573, 59234.23
191.8395, 59256.23
192.3216, 59287.43
192.8037, 59332.35
193.2858, 59384.39
193.7679, 59427.46
194.2500, 59450.37
194.7322, 59458.55
195.2143, 59468.24
195.6964, 59476.18
196.1785, 59492.70
196.6606, 59527.59
197.1427, 59574.07
197.6249, 59616.70
198.1070, 59640.64
198.5891, 59648.86
199.0712, 59673.84
199.5533, 59734.34
200.0354, 59790.95
200.5176, 59824.54
200.9997, 59841.71
201.4818, 59858.26
201.9639, 59886.05
202.4460, 59925.20
202.9281, 59967.10
203.4103, 60013.03
203.8924, 60060.61
204.3745, 60110.25
204.8566, 60161.43
205.3387, 60211.85
205.8208, 60259.13
206.3030, 60302.80
206.7851, 60351.80
207.2672, 60416.69
207.7493, 60477.21
208.2314, 60523.73
208.7135, 60557.79
209.1957, 60586.78
209.6778, 60617.16
210.1599, 60649.15
210.6420, 60678.72
211.1241, 60704.51
211.6062, 60728.85
212.0884, 60754.64
212.5705, 60780.53
213.0526, 60800.49
213.5347, 60806.69
214.0168, 60796.44
214.4989, 60803.39
214.9811, 60839.20
215.4632, 60881.42
215.9453, 60915.77
216.4274, 60941.65
216.9095, 60966.31
217.3916, 60995.67
217.8737, 61030.61
218.3559, 61067.46
218.8380, 61107.84
219.3201, 61150.04
219.8022, 61196.20
220.2843, 61246.65
220.7664, 61290.16
221.2486, 61308.71
221.7307, 61311.29
222.2128, 61334.97
222.6949, 61410.70
223.1770, 61496.69
223.6591, 61535.89
224.1413, 61519.13
224.6234, 61508.59
225.1055, 61559.38
225.5876, 61647.34
226.0697, 61731.89
226.5518, 61801.23
227.0340, 61861.36
227.5161, 61921.63
227.9982, 61983.52
228.4803, 62039.30
228.9624, 62080.45
229.4445, 62113.24
229.9267, 62146.05
230.4088, 62183.11
230.8909, 62220.45
231.3730, 62253.26
231.8551, 62287.37
232.3372, 62301.13
232.8194, 62273.73
233.3015, 62227.21
233.7836, 62186.25
234.2657, 62161.71
234.7478, 62147.72
235.2299, 62132.03
235.7121, 62116.81
236.1942, 62095.28
236.6763, 62060.17
237.1584, 62021.14
237.6405, 61987.51
238.1227, 61962.98
238.6048, 61946.79
239.0869, 61937.18
239.5690, 61935.40
240.0511, 61938.91
240.5332, 61952.61
241.0154, 61967.96
241.4975, 61973.24
241.9796, 61963.13
242.4617, 61948.11
242.9438, 61956.26
243.4259, 62010.24
243.9081, 62052.31
244.3902, 62069.59
244.8723, 62076.40
245.3544, 62084.16
245.8365, 62097.61
246.3186, 62117.28
246.8008, 62145.05
247.2829, 62189.36
247.7650, 62229.40
248.2471, 62273.18
248.7292, 62307.89
249.2113, 62318.01
249.6935, 62299.03
250.1756, 62263.66
250.6577, 62235.89
251.1398, 62206.44
251.6219, 62200.88
252.1040, 62242.77
252.5862, 62294.55
253.0683, 62319.64
253.5504, 62308.26
254.0325, 62281.68
254.5146, 62274.99
254.9967, 62306.16
255.4789, 62325.54
255.9610, 62325.13
256.4431, 62318.27
256.9252, 62314.53
257.4073, 62316.85
257.8894, 62326.30
258.3716, 62344.82
258.8537, 62376.99
259.3358, 62408.99
259.8179, 62441.08
260.3000, 62473.27
260.7821, 62507.02
261.2643, 62542.33
261.7464, 62574.79
262.2285, 62598.39
262.7106, 62610.05
263.1927, 62627.82
263.6748, 62652.77
264.1570, 62682.82
264.6391, 62719.55
265.1212, 62762.14
265.6033, 62800.64
266.0854, 62823.71
266.5675, 62830.09
267.0497, 62840.82
267.5318, 62858.38
268.0139, 62878.71
268.4960, 62894.80
268.9781, 62907.17
269.4602, 62931.07
269.9424, 62985.93
270.4245, 63065.08
270.9066, 63119.42
271.3887, 63138.69
271.8708, 63140.32
272.3529, 63130.40
272.8351, 63110.79
273.3172, 63097.68
273.7993, 63104.60
274.2814, 63125.23
274.7635, 63135.30
275.2456, 63112.98
275.7278, 63104.31
276.2099, 63156.61
276.6920, 63261.76
277.1741, 63352.54
277.6562, 63394.55
278.1383, 63402.21
278.6205, 63411.14
279.1026, 63421.16
279.5847, 63432.71
280.0668, 63442.61
280.5489, 63452.53
281.0310, 63472.71
281.5132, 63506.96
281.9953, 63553.76
282.4774, 63614.21
282.9595, 63692.98
283.4416, 63757.35
283.9237, 63775.31
284.4059, 63758.66
284.8880, 63759.55
285.3701, 63799.18
285.8522, 63848.16
286.3343, 63872.73
286.8164, 63874.23
287.2986, 63879.05
287.7807, 63903.84
288.2628, 63943.43
288.7449, 63980.89
289.2270, 64013.81
289.7091, 64044.75
290.1913, 64078.77
290.6734, 64113.79
291.1555, 64142.07
291.6376, 64154.68
292.1197, 64158.29
292.6018, 64169.80
293.0840, 64192.86
293.5661, 64216.91
294.0482, 64235.93
294.5303, 64250.99
295.0124, 64263.43
295.4945, 64270.02
295.9767, 64276.23
296.4588, 64293.22
296.9409, 64324.10
297.4230, 64355.54
297.9051, 64384.90
298.3872, 64409.91
298.8694, 64425.77
299.3515, 64427.84
299.8336, 64426.05
300.3157, 64433.99
300.7978, 64453.12
301.2799, 64473.22
301.7621, 64486.23
302.2442, 64500.77
302.7263, 64528.19
303.2084, 64572.79
303.6905, 64616.13
304.1726, 64635.29
304.6548, 64628.91
305.1369, 64630.63
305.6190, 64660.31
306.1011, 64691.43
306.5832, 64697.88
307.0653, 64679.26
307.5475, 64666.30
308.0296, 64691.40
308.5117, 64750.56
308.9938, 64792.78
309.4759, 64795.50
309.9580, 64799.47
310.4402, 64837.49
310.9223, 64901.63
311.4044, 64960.49
311.8865, 64991.21
312.3686, 64999.27
312.8507, 65007.77
313.3329, 65012.09
313.8150, 65025.50
314.2971, 65059.05
314.7792, 65104.81
315.2613, 65148.83
315.7434, 65184.47
316.2256, 65214.55
316.7077, 65246.62
317.1898, 65283.89
317.6719, 65314.12
318.1540, 65322.30
318.6361, 65324.43
319.1183, 65339.49
319.6004, 65376.08
320.0825, 65419.18
320.5646, 65444.75
321.0467, 65448.21
321.5288, 65463.76
322.0110, 65516.87
322.4931, 65577.91
322.9752, 65625.05
323.4573, 65654.76
323.9394, 65674.14
324.4215, 65689.18
324.9037, 65699.80
325.3858, 65702.79
325.8679, 65688.77
326.3500, 65676.02
326.8321, 65675.48
327.3142, 65687.21
327.7964, 65708.70
328.2785, 65742.89
328.7606, 65786.99
329.2427, 65826.88
329.7248, 65859.47
330.2069, 65892.14
330.6891, 65934.74
331.1712, 65980.93
331.6533, 66016.33
332.1354, 66027.84
332.6175, 66027.92
333.0996, 66041.68
333.5818, 66071.39
334.0639, 66107.72
334.5460, 66151.20
335.0281, 66196.64
335.5102, 66236.93
335.9923, 66268.02
336.4745, 66298.81
336.9566, 66344.64
337.4387, 66406.77
337.9208, 66457.81
338.4029, 66487.52
338.8850, 66501.65
339.3671, 66500.06
339.8492, 66481.09
340.3314, 66470.30
340.8135, 66493.61
341.2956, 66545.21
341.7777, 66586.42
342.2598, 66604.14
342.7419, 66618.95
343.2241, 66652.45
343.7062, 66700.58
344.1883, 66741.80
344.6704, 66763.84
345.1525, 66772.18
345.6346, 66777.68
346.1168, 66780.14
346.5989, 66781.92
347.0810, 66775.30
347.5631, 66769.72
348.0452, 66786.30
348.5273, 66849.61
349.0095, 66920.20
349.4916, 66947.92
349.9737, 66931.77
350.4558, 66919.29
350.9379, 66936.30
351.4200, 66968.09
351.9022, 66989.36
352.3843, 66995.78
352.8664, 67000.92
353.3485, 67011.16
353.8306, 67026.95
354.3127, 67050.55
354.7949, 67084.34
355.2770, 67123.54
355.7591, 67162.28
356.2412, 67200.27
356.7233, 67240.73
357.2054, 67291.93
357.6876, 67343.91
358.1697, 67381.55
358.6518, 67402.75
359.1339, 67409.55
359.6160, 67391.40
360.0981, 67356.39
360.5803, 67349.22
361.0624, 67401.64
361.5445, 67464.29
362.0266, 67491.23
362.5087, 67486.91
362.9908, 67492.55
363.4730, 67538.30
363.9551, 67605.45
364.4372, 67635.55
364.9193, 67603.72
365.4014, 67579.30
365.8835, 67594.02
366.3657, 67635.72
366.8478, 67682.52
367.3299, 67728.45
367.8120, 67770.81
368.2941, 67802.55
368.7762, 67818.36
369.2584, 67846.66
369.7405, 67913.69
370.2226, 67981.73
370.7047, 68008.65
371.1868, 67991.10
371.6689, 67961.74
372.1511, 67947.71
372.6332, 67950.26
373.1153, 67960.30
373.5974, 67992.83
374.0795, 68018.17
374.5616, 68013.22
375.0438, 67989.19
375.5259, 67975.52
376.0080, 67988.96
376.4901, 68022.58
376.9722, 68052.30
377.4543, 68078.30
377.9365, 68099.67
378.4186, 68112.95
378.9007, 68122.57
379.3828, 68132.01
379.8649, 68142.43
380.3470, 68155.55
380.8292, 68175.07
381.3113, 68207.45
381.7934, 68225.19
382.2755, 68218.76
382.7576, 68208.17
383.2397, 68204.21
383.7219, 68206.82
384.2040, 68209.86
384.6861, 68207.33
385.1682, 68200.80
385.6503, 68212.02
386.1324, 68270.07
386.6146, 68314.89
387.0967, 68330.14
387.5788, 68328.34
388.0609, 68322.67
388.5430, 68318.83
389.0251, 68320.88
389.5073, 68337.08
389.9894, 68369.57
390.4715, 68412.48
390.9536, 68461.17
391.4357, 68520.63
391.9178, 68608.24
392.4000, 68716.20
392.8821, 68807.48
393.3642, 68838.37
393.8463, 68806.17
394.3284, 68797.80
394.8105, 68831.05
395.2927, 68868.67
395.7748, 68898.15
396.2569, 68923.11
396.7390, 68953.01
397.2211, 68995.66
397.7032, 69039.53
398.1854, 69055.32
398.6675, 69033.45
399.1496, 69013.64
399.6317, 69004.84
400.1138, 69004.17
400.5959, 69017.45
401.0781, 69044.90
401.5602, 69061.48
402.0423, 69031.39
402.5244, 68960.83
403.0065, 68920.36
403.4886, 68932.97
403.9708, 68956.11
404.4529, 68957.31
404.9350, 68943.82
405.4171, 68936.32
405.8992, 68948.68
406.3813, 68969.34
406.8635, 68980.88
407.3456, 68982.80
407.8277, 68979.02
408.3098, 68968.20
408.7919, 68954.00
409.2740, 68941.56
409.7562, 68929.23
410.2383, 68923.96
410.7204, 68930.74
411.2025, 68948.10
411.6846, 68974.29
412.1667, 69012.53
412.6489, 69049.78
413.1310, 69066.95
413.6131, 69065.01
414.0952, 69066.10
414.5773, 69075.14
415.0594, 69088.16
415.5416, 69100.66
416.0237, 69112.91
416.5058, 69129.61
416.9879, 69154.87
417.4700, 69186.74
417.9521, 69214.55
418.4343, 69236.72
418.9164, 69257.05
419.3985, 69268.33
419.8806, 69280.55
420.3627, 69313.05
420.8448, 69371.73
421.3270, 69436.40
421.8091, 69476.03
422.2912, 69476.83
422.7733, 69490.27
423.2554, 69527.85
423.7375, 69566.72
424.2197, 69596.86
424.7018, 69616.34
425.1839, 69624.22
425.6660, 69619.02
426.1481, 69602.63
426.6302, 69586.70
427.1124, 69567.05
427.5945, 69554.21
428.0766, 69547.40
428.5587, 69549.27
429.0408, 69565.20
429.5229, 69596.07
430.0051, 69632.88
430.4872, 69666.27
430.9693, 69700.08
431.4514, 69715.27
431.9335, 69695.42
432.4156, 69670.55
432.8978, 69644.20
433.3799, 69622.20
433.8620, 69615.61
434.3441, 69634.50
434.8262, 69670.96
435.3083, 69704.73
435.7905, 69738.86
436.2726, 69761.08
436.7547, 69755.41
437.2368, 69741.73
437.7189, 69737.17
438.2010, 69745.08
438.6832, 69757.67
439.1653, 69772.31
439.6474, 69787.16
440.1295, 69789.82
440.6116, 69770.62
441.0938, 69753.83
441.5759, 69756.96
442.0580, 69778.09
442.5401, 69816.98
443.0222, 69903.33
443.5043, 69986.73
443.9865, 70008.20
444.4686, 69973.61
444.9507, 69936.29
445.4328, 69917.48
445.9149, 69914.98
446.3970, 69927.00
446.8792, 69961.63
447.3613, 69985.53
447.8434, 69982.70
448.3255, 69967.63
448.8076, 69955.48
449.2897, 69949.52
449.7719, 69951.95
450.2540, 69968.05
450.7361, 69999.30
451.2182, 70010.03
451.7003, 69976.48
452.1824, 69951.91
452.6646, 69967.28
453.1467, 70002.32
453.6288, 70018.56
454.1109, 69999.09
454.5930, 69965.00
455.0751, 69958.66
455.5573, 69992.46
456.0394, 70030.92
456.5215, 70077.05
457.0036, 70123.92
457.4857, 70173.42
457.9678, 70220.80
458.4500, 70253.75
458.9321, 70259.23
459.4142, 70243.44
459.8963, 70245.17
460.3784, 70278.24
460.8605, 70304.20
461.3427, 70300.48
461.8248, 70292.50
462.3069, 70312.35
462.7890, 70367.98
463.2711, 70421.27
463.7532, 70425.16
464.2354, 70384.02
464.7175, 70358.47
465.1996, 70363.15
465.6817, 70372.16
466.1638, 70356.04
466.6459, 70328.85
467.1281, 70328.66
467.6102, 70382.92
468.0923, 70455.56
468.5744, 70512.94
469.0565, 70555.06
469.5386, 70578.30
470.0208, 70575.47
470.5029, 70559.61
470.9850, 70553.71
471.4671, 70558.61
471.9492, 70563.79
472.4313, 70567.79
472.9135, 70569.98
473.3956, 70572.35
473.8777, 70574.08
474.3598, 70566.40
474.8419, 70539.82
475.3240, 70498.04
475.8062, 70476.11
476.2883, 70491.87
476.7704, 70503.73
477.2525, 70501.23
477.7346, 70491.92
478.2167, 70486.89
478.6989, 70488.36
479.1810, 70486.58
479.6631, 70464.76
480.1452, 70413.17
480.6273, 70391.84
481.1094, 70426.16
481.5916, 70464.40
482.0737, 70493.86
482.5558, 70514.47
483.0379, 70529.99
483.5200, 70542.77
484.0021, 70547.88
484.4843, 70530.73
484.9664, 70482.73
485.4485, 70451.24
485.9306, 70458.30
486.4127, 70474.26
486.8948, 70478.55
487.3770, 70472.97
487.8591, 70472.08
488.3412, 70490.91
488.8233, 70518.20
489.3054, 70534.78
489.7875, 70541.17
490.2697, 70528.99
490.7518, 70479.35
491.2339, 70416.65
491.7160, 70391.02
492.1981, 70416.73
492.6802, 70438.31
493.1624, 70424.28
493.6445, 70394.70
494.1266, 70379.96
494.6087, 70385.02
495.0908, 70396.36
495.5729, 70401.47
496.0551, 70400.52
496.5372, 70409.83
497.0193, 70444.13
497.5014, 70469.99
497.9835, 70474.80
498.4656, 70465.87
498.9478, 70451.21
499.4299, 70434.13
499.9120, 70418.58
500.3941, 70411.54
500.8762, 70416.60
501.3583, 70414.82
501.8405, 70398.27
502.3226, 70382.72
502.8047, 70367.01
503.2868, 70357.53
503.7689, 70367.34
504.2510, 70405.14
504.7331, 70455.48
505.2152, 70494.49
505.6974, 70524.23
506.1795, 70529.88
506.6616, 70489.91
507.1437, 70441.98
507.6258, 70410.34
508.1079, 70394.98
508.5901, 70392.00
509.0722, 70409.64
509.5543, 70433.84
510.0364, 70436.34
510.5185, 70417.77
511.0006, 70420.59
511.4828, 70475.48
511.9649, 70553.97
512.4470, 70593.23
512.9291, 70583.42
513.4113, 70575.95
513.8934, 70580.34
514.3755, 70595.16
514.8576, 70627.09
515.3397, 70672.16
515.8218, 70706.09
516.3040, 70709.54
516.7861, 70686.73
517.2682, 70668.89
517.7503, 70655.55
518.2324, 70647.78
518.7145, 70646.59
519.1967, 70650.30
519.6788, 70660.95
520.1609, 70676.72
520.6430, 70688.22
521.1251, 70684.35
521.6072, 70665.64
522.0894, 70652.66
522.5715, 70648.77
523.0536, 70645.40
523.5357, 70642.81
524.0178, 70637.70
524.4999, 70623.05
524.9821, 70595.81
525.4642, 70572.58
525.9463, 70567.12
526.4284, 70578.40
526.9105, 70608.84
527.3926, 70670.42
527.8748, 70716.22
528.3569, 70695.06
528.8390, 70626.85
529.3211, 70580.31
529.8032, 70577.66
530.2853, 70580.80
530.7675, 70565.71
531.2496, 70542.52
531.7317, 70534.36
532.2138, 70548.10
532.6959, 70564.72
533.1780, 70559.05
533.6602, 70524.84
534.1423, 70506.27
534.6244, 70523.03
535.1065, 70530.84
535.5886, 70498.42
536.0707, 70450.27
536.5529, 70424.96
537.0350, 70437.73
537.5171, 70472.98
537.9992, 70512.03
538.4813, 70560.32
538.9634, 70583.95
539.4456, 70558.67
539.9277, 70533.51
540.4098, 70532.99
540.8919, 70548.91
541.3740, 70564.09
541.8561, 70572.70
542.3383, 70576.18
542.8204, 70574.44
543.3025, 70568.02
543.7846, 70562.20
544.2667, 70556.52
544.7488, 70554.97
545.2310, 70569.83
545.7131, 70597.92
546.1952, 70604.57
546.6773, 70559.77
547.1594, 70514.87
547.6415, 70503.82
548.1237, 70519.48
548.6058, 70543.03
549.0879, 70567.24
549.5700, 70591.98
550.0521, 70617.47
550.5342, 70646.44
551.0164, 70667.98
551.4985, 70677.90
551.9806, 70686.05
552.4627, 70695.28
552.9448, 70706.17
553.4269, 70719.45
553.9091, 70735.48
554.3912, 70752.30
554.8733, 70767.81
555.3554, 70782.59
555.8375, 70789.08
556.3196, 70774.05
556.8018, 70764.42
557.2839, 70781.10
557.7660, 70816.18
558.2481, 70848.03
558.7302, 70872.30
559.2123, 70886.12
559.6945, 70884.47
560.1766, 70869.35
560.6587, 70845.84
561.1408, 70812.14
561.6229, 70782.80
562.1050, 70776.66
562.5872, 70797.71
563.0693, 70822.03
563.5514, 70856.27
564.0335, 70886.96
564.5156, 70906.19
564.9977, 70916.95
565.4799, 70923.38
565.9620, 70927.20
566.4441, 70932.48
566.9262, 70946.79
567.4083, 70973.39
567.8904, 70994.56
568.3726, 70995.13
568.8547, 71005.75
569.3368, 71051.70
569.8189, 71110.80
570.3010, 71142.45
570.7831, 71127.70
571.2653, 71104.12
571.7474, 71123.01
572.2295, 71177.61
572.7116, 71213.26
573.1937, 71220.26
573.6758, 71209.30
574.1580, 71174.07
574.6401, 71125.86
575.1222, 71109.55
575.6043, 71157.45
576.0864, 71206.42
576.5685, 71217.00
577.0507, 71210.56
577.5328, 71228.73
578.0149, 71280.23
578.4970, 71329.98
578.9791, 71337.22
579.4612, 71299.51
579.9434, 71283.89
580.4255, 71314.26
580.9076, 71339.46
581.3897, 71341.55
581.8718, 71338.52
582.3539, 71352.85
582.8361, 71388.41
583.3182, 71426.96
583.8003, 71446.10
584.2824, 71450.00
584.7645, 71470.87
585.2466, 71512.11
585.7288, 71561.01
586.2108, 71627.20
586.6929, 71689.09
587.1750, 71708.13
587.6572, 71669.52
588.1393, 71640.02
588.6214, 71654.61
589.1035, 71692.98
589.5856, 71730.56
590.0677, 71764.73
590.5499, 71803.66
591.0320, 71857.13
591.5141, 71913.45
591.9962, 71928.09
592.4783, 71854.95
592.9604, 71804.47
593.4426, 71790.08
593.9247, 71789.02
594.4068, 71788.36
594.8889, 71787.11
595.3710, 71790.24
595.8531, 71803.29
596.3353, 71818.70
596.8174, 71810.62
597.2995, 71770.34
597.7816, 71761.66
598.2637, 71824.95
598.7458, 71896.32
599.2280, 71916.16
599.7101, 71893.43
600.1922, 71877.95
600.6743, 71892.92
601.1564, 71914.18
601.6385, 71915.79
602.1207, 71906.23
602.6028, 71913.91
603.0849, 71948.77
603.5670, 71993.33
604.0491, 72024.44
604.5313, 72038.05
605.0134, 72061.73
605.4955, 72118.79
605.9776, 72157.69
606.4597, 72147.32
606.9418, 72116.05
607.4240, 72098.55
607.9061, 72105.48
608.3882, 72128.09
608.8703, 72167.92
609.3524, 72221.73
609.8345, 72235.09
610.3167, 72185.82
610.7988, 72151.27
611.2809, 72190.70
611.7630, 72258.56
612.2451, 72288.48
612.7272, 72265.73
613.2094, 72250.40
613.6915, 72281.88
614.1736, 72329.03
614.6557, 72347.22
615.1378, 72337.94
615.6199, 72336.86
616.1021, 72366.05
616.5842, 72416.16
617.0663, 72460.52
617.5484, 72494.83
618.0305, 72530.15
618.5126, 72580.89
618.9948, 72618.52
619.4769, 72611.09
619.9590, 72578.02
620.4411, 72567.64
620.9232, 72608.17
621.4053, 72666.59
621.8875, 72684.35
622.3696, 72662.47
622.8517, 72664.61
623.3338, 72710.45
623.8159, 72765.16
624.2980, 72797.98
624.7802, 72816.19
625.2623, 72843.48
625.7444, 72893.31
626.2265, 72939.17
626.7086, 72973.23
627.1907, 72994.60
627.6729, 72996.45
628.1550, 72980.24
628.6371, 72964.38
629.1192, 72966.27
629.6013, 72982.49
630.0834, 72984.23
630.5656, 72955.98
631.0477, 72938.70
631.5298, 72937.70
632.0119, 72948.42
632.4940, 72972.07
632.9761, 73005.44
633.4583, 73037.45
633.9404, 73065.73
634.4225, 73085.39
634.9046, 73080.60
635.3867, 73054.20
635.8688, 73045.75
636.3510, 73073.48
636.8331, 73109.20
637.3152, 73113.39
637.7973, 73081.27
638.2794, 73082.49
638.7615, 73151.33
639.2437, 73216.74
639.7258, 73245.16
640.2079, 73254.04
640.6900, 73270.42
641.1721, 73300.43
641.6542, 73328.27
642.1364, 73335.64
642.6185, 73324.12
643.1006, 73315.38
643.5827, 73306.60
644.0648, 73306.32
644.5469, 73318.84
645.0291, 73340.48
645.5112, 73371.97
645.9933, 73412.99
646.4754, 73450.23
646.9575, 73476.84
647.4396, 73497.42
647.9218, 73516.45
648.4039, 73534.10
648.8860, 73552.39
649.3681, 73573.43
649.8502, 73586.05
650.3323, 73569.14
650.8145, 73509.23
651.2966, 73482.30
651.7787, 73507.47
652.2608, 73541.78
652.7429, 73585.27
653.2250, 73624.48
653.7072, 73643.18
654.1893, 73637.52
654.6714, 73617.48
655.1535, 73575.23
655.6356, 73526.20
656.1177, 73530.17
656.5999, 73594.70
657.0820, 73664.33
657.5641, 73720.35
658.0462, 73760.73
658.5283, 73773.32
659.0104, 73747.95
659.4926, 73750.73
659.9747, 73822.70
660.4568, 73895.34
660.9389, 73920.15
661.4210, 73912.98
661.9031, 73910.48
662.3853, 73926.98
662.8674, 73950.53
663.3495, 73958.52
663.8316, 73947.45
664.3137, 73976.38
664.7958, 74076.04
665.2780, 74158.75
665.7601, 74156.23
666.2422, 74129.98
666.7243, 74155.09
667.2064, 74244.93
667.6885, 74339.52
668.1707, 74430.38
668.6528, 74499.18
669.1349, 74513.98
669.6170, 74484.61
670.0991, 74449.05
670.5812, 74423.13
671.0634, 74418.45
671.5455, 74459.22
672.0276, 74560.52
672.5097, 74650.47
672.9918, 74728.36
673.4739, 74795.25
673.9561, 74842.62
674.4382, 74882.13
674.9203, 74922.80
675.4024, 74966.84
675.8845, 75032.80
676.3666, 75156.79
676.8488, 75306.95
677.3309, 75404.14
677.8130, 75445.73
678.2951, 75503.80
678.7772, 75614.80
679.2593, 75757.51
679.7415, 75899.33
680.2236, 76052.09
680.7057, 76161.36
681.1878, 76210.19
681.6699, 76234.84
682.1520, 76238.08
682.6342, 76232.90
683.1163, 76244.70
683.5984, 76278.36
684.0805, 76294.77
684.5626, 76244.64
685.0447, 76138.80
685.5269, 76034.52
686.0090, 75932.37
686.4911, 75831.26
686.9732, 75732.68
687.4553, 75634.23
687.9374, 75530.04
688.4196, 75419.27
688.9017, 75315.85
689.3838, 75231.08
689.8659, 75146.33
690.3480, 75035.88
690.8301, 74922.33
691.3123, 74844.21
691.7944, 74813.70
692.2765, 74814.05
692.7586, 74833.54
693.2407, 74869.36
693.7228, 74879.76
694.2050, 74855.23
694.6871, 74830.15
695.1692, 74818.46
695.6513, 74809.59
696.1334, 74788.15
696.6155, 74754.11
697.0977, 74732.42
697.5798, 74746.80
698.0619, 74760.52
698.5440, 74743.24
699.0261, 74705.76
699.5082, 74667.81
699.9904, 74636.30
700.4725, 74615.88
700.9546, 74614.31
701.4367, 74629.80
701.9188, 74630.98
702.4009, 74608.81
702.8831, 74590.81
703.3652, 74572.77
703.8473, 74570.14
704.3294, 74610.96
704.8115, 74685.46
705.2936, 74732.11
705.7758, 74694.12
706.2579, 74650.27
706.7400, 74677.41
707.2221, 74745.83
707.7042, 74785.91
708.1863, 74782.41
708.6685, 74775.84
709.1506, 74806.13
709.6327, 74865.07
710.1148, 74888.83
710.5969, 74849.77
711.0790, 74826.16
711.5612, 74835.68
712.0433, 74856.23
712.5254, 74883.32
713.0075, 74910.27
713.4896, 74918.74
713.9717, 74890.64
714.4539, 74862.80
714.9360, 74868.53
715.4181, 74899.38
715.9002, 74944.57
716.3823, 75000.42
716.8644, 75037.43
717.3466, 75029.42
717.8287, 74992.73
718.3108, 74988.28
718.7929, 75031.03
719.2750, 75078.02
719.7571, 75151.92
720.2393, 75205.18
720.7214, 75203.97
721.2035, 75166.70
721.6856, 75126.45
722.1677, 75091.80
722.6498, 75068.21
723.1320, 75064.09
723.6141, 75073.11
724.0962, 75085.31
724.5783, 75099.04
725.0604, 75106.65
725.5425, 75103.09
726.0247, 75094.16
726.5068, 75092.96
726.9889, 75106.83
727.4710, 75106.48
727.9531, 75072.27
728.4352, 75047.08
728.9174, 75046.13
729.3995, 75062.13
729.8816, 75087.19
730.3637, 75119.17
730.8458, 75154.42
731.3279, 75199.10
731.8101, 75241.09
732.2922, 75255.22
732.7743, 75245.49
733.2564, 75240.27
733.7385, 75250.15
734.2206, 75266.66
734.7028, 75281.83
735.1849, 75297.17
735.6670, 75287.28
736.1491, 75211.31
736.6312, 75162.69
737.1133, 75174.32
737.5955, 75205.59
738.0776, 75217.24
738.5597, 75211.58
739.0418, 75223.84
739.5239, 75296.41
740.0060, 75365.95
740.4882, 75340.14
740.9703, 75250.78
741.4524, 75192.65
741.9345, 75185.48
742.4166, 75213.08
742.8987, 75267.77
743.3809, 75341.39
743.8630, 75393.56
744.3451, 75413.70
744.8272, 75430.41
745.3093, 75460.23
745.7914, 75472.18
746.2736, 75427.13
746.7557, 75355.95
747.2378, 75322.36
747.7199, 75350.65
748.2020, 75400.87
748.6841, 75457.34
749.1663, 75509.58
749.6484, 75538.72
750.1305, 75544.86
750.6126, 75537.37
751.0947, 75520.63
751.5768, 75496.36
752.0590, 75464.83
752.5411, 75420.48
753.0232, 75397.89
753.5053, 75425.27
753.9874, 75436.93
754.4695, 75388.95
754.9517, 75330.74
755.4338, 75321.96
755.9159, 75367.06
756.3980, 75406.89
756.8801, 75407.18
757.3622, 75394.62
757.8444, 75390.72
758.3265, 75394.55
758.8086, 75407.15
759.2907, 75427.24
759.7728, 75439.86
760.2549, 75427.95
760.7371, 75397.61
761.2192, 75388.41
761.7013, 75410.00
762.1834, 75427.97
762.6655, 75440.70
763.1476, 75444.38
763.6298, 75431.34
764.1119, 75408.42
764.5940, 75393.73
765.0761, 75392.50
765.5582, 75397.62
766.0403, 75414.54
766.5225, 75430.27
767.0046, 75425.30
767.4867, 75404.06
767.9688, 75385.92
768.4509, 75380.25
768.9330, 75386.53
769.4152, 75406.20
769.8973, 75439.49
770.3794, 75473.44
770.8615, 75511.89
771.3436, 75537.38
771.8257, 75531.45
772.3079, 75515.79
772.7900, 75526.60
773.2721, 75566.88
773.7542, 75593.85
774.2363, 75590.33
774.7184, 75584.29
775.2006, 75589.23
775.6827, 75600.84
776.1648, 75616.50
776.6469, 75633.17
777.1290, 75640.73
777.6111, 75627.27
778.0933, 75605.34
778.5754, 75607.76
779.0575, 75633.20
779.5396, 75643.86
780.0217, 75627.77
780.5038, 75613.27
780.9860, 75627.55
781.4681, 75660.05
781.9502, 75664.32
782.4323, 75606.73
782.9144, 75576.95
783.3965, 75609.92
783.8787, 75640.83
784.3608, 75623.20
784.8429, 75580.27
785.3250, 75557.23
785.8071, 75568.43
786.2892, 75589.93
786.7714, 75604.22
787.2535, 75613.95
787.7356, 75626.11
788.2177, 75639.51
788.6998, 75644.67
789.1819, 75638.37
789.6641, 75620.74
790.1462, 75588.30
790.6283, 75541.27
791.1104, 75519.64
791.5925, 75536.58
792.0746, 75557.52
792.5568, 75585.55
793.0389, 75607.95
793.5210, 75606.51
794.0031, 75590.93
794.4852, 75594.38
794.9673, 75633.12
795.4495, 75679.58
795.9316, 75726.13
796.4137, 75764.14
796.8958, 75782.39
797.3779, 75780.56
797.8600, 75755.80
798.3422, 75705.05
798.8243, 75660.14
799.3064, 75691.89
799.7885, 75805.02
800.2706, 75833.89
800.7527, 75745.70
801.2349, 75671.61
801.7170, 75676.09
802.1991, 75709.02
802.6812, 75693.48
803.1633, 75629.09
803.6454, 75599.95
804.1276, 75648.08
804.6097, 75691.99
805.0918, 75675.12
805.5739, 75658.30
806.0560, 75726.02
806.5381, 75862.89
807.0203, 75974.27
807.5024, 76002.13
807.9845, 75989.08
808.4666, 75989.03
808.9487, 75998.53
809.4308, 76004.66
809.9130, 76005.92
810.3951, 75999.62
810.8772, 75982.04
811.3593, 75960.64
811.8414, 75952.09
812.3235, 75963.23
812.8057, 75959.31
813.2878, 75929.41
813.7699, 75896.80
814.2520, 75849.16
814.7341, 75813.38
815.2162, 75824.43
815.6984, 75880.41
816.1805, 75934.32
816.6626, 75976.30
817.1447, 76000.30
817.6268, 75994.98
818.1089, 75972.02
818.5911, 75943.34
819.0732, 75914.93
819.5553, 75901.01
820.0374, 75912.30
820.5195, 75935.44
821.0016, 75941.36
821.4838, 75929.41
821.9659, 75921.45
822.4480, 75917.48
822.9301, 75922.82
823.4122, 75946.01
823.8943, 75974.66
824.3765, 75981.56
824.8586, 75955.87
825.3407, 75965.73
825.8228, 76070.89
826.3049, 76142.03
826.7870, 76095.34
827.2692, 76019.34
827.7513, 76010.39
828.2334, 76070.27
828.7155, 76138.45
829.1976, 76190.72
829.6797, 76222.40
830.1619, 76214.85
830.6440, 76185.31
831.1261, 76178.32
831.6082, 76196.69
832.0903, 76211.52
832.5724, 76206.07
833.0546, 76187.30
833.5367, 76167.10
834.0188, 76143.43
834.5009, 76130.13
834.9830, 76127.95
835.4651, 76134.66
835.9473, 76161.17
836.4294, 76187.15
836.9115, 76187.54
837.3936, 76163.77
837.8757, 76144.34
838.3578, 76137.58
838.8400, 76131.80
839.3221, 76120.27
839.8042, 76109.98
840.2863, 76108.59
840.7684, 76115.40
841.2505, 76125.48
841.7327, 76136.84
842.2148, 76148.70
842.6969, 76170.52
843.1790, 76190.38
843.6611, 76161.77
844.1432, 76086.86
844.6254, 76033.09
845.1075, 76029.52
845.5896, 76053.48
846.0717, 76077.38
846.5538, 76100.92
847.0359, 76117.70
847.5181, 76130.13
848.0002, 76129.61
848.4823, 76092.69
848.9644, 76062.32
849.4465, 76078.57
849.9286, 76124.91
850.4108, 76150.12
850.8929, 76135.84
851.3750, 76123.16
851.8571, 76133.70
852.3392, 76145.42
852.8214, 76136.06
853.3035, 76114.80
853.7856, 76105.98
854.2677, 76115.83
854.7498, 76120.48
855.2319, 76083.34
855.7141, 76032.12
856.1962, 76043.44
856.6783, 76106.11
857.1604, 76134.02
857.6425, 76103.91
858.1246, 76069.52
858.6068, 76074.88
859.0889, 76111.83
859.5710, 76154.23
860.0531, 76220.48
860.5352, 76241.41
861.0173, 76172.61
861.4995, 76113.54
861.9816, 76110.02
862.4637, 76140.16
862.9458, 76180.17
863.4279, 76228.80
863.9100, 76273.91
864.3922, 76317.96
864.8743, 76351.20
865.3564, 76368.79
865.8385, 76371.85
866.3206, 76353.38
866.8027, 76320.16
867.2849, 76298.05
867.7670, 76304.48
868.2491, 76317.50
868.7312, 76304.40
869.2133, 76275.67
869.6954, 76260.05
870.1776, 76259.86
870.6597, 76274.13
871.1418, 76304.72
871.6239, 76331.20
872.1060, 76321.52
872.5881, 76276.26
873.0703, 76253.05
873.5524, 76263.33
874.0345, 76266.88
874.5166, 76245.27
874.9987, 76225.70
875.4808, 76232.47
875.9630, 76258.70
876.4451, 76286.80
876.9272, 76328.08
877.4093, 76344.31
877.8914, 76310.45
878.3735, 76267.25
878.8557, 76233.69
879.3378, 76209.80
879.8199, 76191.89
880.3020, 76179.29
880.7841, 76174.84
881.2662, 76186.80
881.7484, 76201.93
882.2305, 76194.64
882.7126, 76179.50
883.1947, 76199.36
883.6768, 76255.58
884.1589, 76303.92
884.6411, 76315.39
885.1232, 76305.72
885.6053, 76308.28
886.0874, 76323.92
886.5695, 76317.01
887.0516, 76279.83
887.5338, 76249.66
888.0159, 76244.12
888.4980, 76245.42
888.9801, 76225.89
889.4622, 76241.41
889.9443, 76268.11
890.4265, 76271.62
890.9086, 76337.98
891.3907, 76371.15
891.8728, 76389.86
892.3549, 76400.00
892.8370, 76406.05
893.3192, 76415.19
893.8013, 76429.49
894.2834, 76441.73
894.7655, 76453.44
895.2476, 76456.67
895.7297, 76435.84
896.2119, 76405.36
896.6940, 76386.98
897.1761, 76385.91
897.6582, 76400.57
898.1403, 76432.93
898.6224, 76470.73
899.1046, 76493.92
899.5867, 76504.95
900.0688, 76518.62
900.5509, 76535.83
901.0330, 76536.78
901.5151, 76510.29
901.9973, 76473.13
902.4794, 76449.33
902.9615, 76438.96
903.4436, 76434.51
903.9257, 76439.14
904.4078, 76441.66
904.8900, 76436.30
905.3721, 76433.25
905.8542, 76445.81
906.3363, 76466.84
906.8184, 76472.37
907.3005, 76451.32
907.7827, 76442.35
908.2648, 76444.63
908.7469, 76466.68
909.2290, 76544.69
909.7111, 76626.08
910.1932, 76632.36
910.6754, 76565.61
911.1575, 76516.20
911.6396, 76530.70
912.1217, 76573.55
912.6038, 76631.52
913.0859, 76690.08
913.5681, 76729.44
914.0502, 76749.05
914.5323, 76755.11
915.0144, 76750.51
915.4965, 76741.61
915.9786, 76732.35
916.4607, 76725.87
916.9428, 76737.42
917.4249, 76765.64
917.9070, 76788.52
918.3892, 76801.71
918.8713, 76801.18
919.3534, 76780.95
919.8355, 76750.17
920.3176, 76732.49
920.7997, 76720.74
921.2819, 76757.09
921.7640, 76884.95
922.2461, 76976.03
922.7282, 76954.65
923.2103, 76891.95
923.6924, 76875.13
924.1746, 76900.81
924.6567, 76918.04
925.1388, 76913.34
925.6209, 76914.16
926.1030, 76926.03
926.5851, 76943.04
927.0673, 76953.20
927.5494, 76967.71
928.0315, 77018.16
928.5136, 77113.59
928.9957, 77180.36
929.4778, 77154.50
929.9600, 77110.34
930.4421, 77111.33
930.9242, 77133.55
931.4063, 77136.38
931.8884, 77118.08
932.3705, 77102.98
932.8527, 77105.27
933.3348, 77113.48
933.8169, 77113.28
934.2990, 77107.34
934.7811, 77103.38
935.2632, 77101.08
935.7454, 77091.04
936.2275, 77070.10
936.7096, 77057.48
937.1917, 77074.78
937.6738, 77111.30
938.1559, 77118.53
938.6381, 77087.86
939.1202, 77102.30
939.6023, 77184.60
940.0844, 77263.48
940.5665, 77305.85
941.0486, 77319.16
941.5308, 77308.93
942.0129, 77270.23
942.4950, 77260.02
942.9771, 77307.45
943.4592, 77338.61
943.9413, 77325.73
944.4235, 77311.08
944.9056, 77333.07
945.3877, 77370.02
945.8698, 77367.14
946.3519, 77303.16
946.8340, 77267.20
947.3162, 77305.16
947.7983, 77350.57
948.2804, 77370.27
948.7625, 77378.13
949.2446, 77392.33
949.7267, 77412.93
950.2089, 77428.20
950.6910, 77431.52
951.1731, 77433.70
951.6552, 77449.33
952.1373, 77464.23
952.6194, 77446.22
953.1016, 77414.84
953.5837, 77426.51
954.0658, 77491.66
954.5479, 77559.88
955.0300, 77590.82
955.5121, 77598.37
955.9943, 77603.27
956.4764, 77607.02
956.9585, 77619.90
957.4406, 77641.45
957.9227, 77650.62
958.4048, 77637.10
958.8870, 77613.71
959.3691, 77593.67
959.8512, 77579.70
960.3333, 77603.45
960.8154, 77674.38
961.2975, 77707.30
961.7797, 77675.49
962.2618, 77643.55
962.7439, 77657.45
963.2260, 77693.73
963.7081, 77701.33
964.1902, 77673.67
964.6724, 77653.02
965.1545, 77643.92
965.6366, 77634.85
966.1187, 77623.58
966.6008, 77611.49
967.0829, 77594.73
967.5651, 77578.33
968.0472, 77581.27
968.5293, 77624.55
969.0114, 77634.65
969.4935, 77561.85
969.9756, 77500.96
970.4578, 77504.69
970.9399, 77534.09
971.4220, 77542.50
971.9041, 77532.09
972.3862, 77538.30
972.8683, 77575.41
973.3505, 77625.11
973.8326, 77699.45
974.3147, 77762.89
974.7968, 77779.95
975.2789, 77763.72
975.7610, 77736.18
976.2432, 77704.92
976.7253, 77674.27
977.2074, 77643.25
977.6895, 77621.56
978.1716, 77628.98
978.6537, 77648.67
979.1359, 77648.02
979.6180, 77631.41
980.1001, 77627.11
980.5822, 77644.97
981.0643, 77665.54
981.5464, 77666.42
982.0286, 77659.03
982.5107, 77669.17
982.9928, 77694.83
983.4749, 77729.14
983.9570, 77770.21
984.4391, 77810.89
984.9213, 77847.65
985.4034, 77877.49
985.8855, 77896.37
986.3676, 77904.30
986.8497, 77897.41
987.3318, 77872.80
987.8140, 77863.93
988.2961, 77875.35
988.7782, 77916.18
989.2603, 78004.44
989.7424, 78105.26
990.2245, 78145.91
990.7067, 78120.58
991.1888, 78077.73
991.6709, 77991.01
992.1530, 77953.79
992.6351, 78012.10
993.1172, 78089.73
993.5994, 78128.66
994.0815, 78141.67
994.5636, 78169.41
995.0457, 78223.72
995.5278, 78257.73
996.0099, 78250.84
996.4921, 78249.77
996.9742, 78274.86
997.4563, 78302.38
997.9384, 78306.93
998.4205, 78296.36
998.9026, 78303.81
999.3848, 78352.14
999.8669, 78369.41
1000.349, 78297.19
1000.831, 78243.55
1001.313, 78295.02
1001.795, 78368.52
1002.277, 78359.83
1002.760, 78280.86
1003.242, 78228.58
1003.724, 78243.17
1004.206, 78265.40
1004.688, 78275.98
1005.170, 78276.48
1005.652, 78257.73
1006.134, 78235.24
1006.617, 78234.05
1007.099, 78254.51
1007.581, 78274.02
1008.063, 78279.79
1008.545, 78285.43
1009.027, 78299.96
1009.509, 78321.66
1009.991, 78352.15
1010.473, 78387.02
1010.956, 78419.75
1011.438, 78447.30
1011.920, 78463.38
1012.402, 78459.93
1012.884, 78451.95
1013.366, 78457.98
1013.848, 78472.31
1014.330, 78482.14
1014.813, 78490.01
1015.295, 78513.55
1015.777, 78555.54
1016.259, 78585.68
1016.741, 78572.70
1017.223, 78544.11
1017.705, 78554.61
1018.187, 78592.93
1018.669, 78615.69
1019.152, 78623.20
1019.634, 78649.66
1020.116, 78707.51
1020.598, 78766.13
1021.080, 78795.11
1021.562, 78799.36
1022.044, 78792.39
1022.526, 78773.65
1023.008, 78721.68
1023.491, 78634.17
1023.973, 78591.25
1024.455, 78628.73
1024.937, 78701.96
1025.419, 78765.08
1025.901, 78815.04
1026.383, 78833.66
1026.865, 78817.77
1027.348, 78816.63
1027.830, 78837.29
1028.312, 78858.01
1028.794, 78869.55
1029.276, 78874.70
1029.758, 78876.46
1030.240, 78875.19
1030.722, 78873.86
1031.204, 78873.77
1031.687, 78867.13
1032.169, 78848.77
1032.651, 78837.52
1033.133, 78842.68
1033.615, 78859.00
1034.097, 78880.88
1034.579, 78907.82
1035.061, 78931.80
1035.544, 78944.21
1036.026, 78978.33
1036.508, 79060.26
1036.990, 79118.55
1037.472, 79104.61
1037.954, 79065.39
1038.436, 79067.56
1038.918, 79108.55
1039.401, 79113.38
1039.883, 79049.58
1040.365, 79010.48
1040.847, 79018.91
1041.329, 79029.82
1041.811, 79018.02
1042.293, 79030.74
1042.775, 79009.23
1043.257, 79039.16
1043.740, 79056.55
1044.222, 79056.68
1044.704, 79052.39
1045.186, 79046.80
1045.668, 79034.40
1046.150, 78994.62
1046.632, 78958.39
1047.114, 78972.08
1047.596, 79031.97
1048.079, 79072.82
1048.561, 79081.32
1049.043, 79081.70
1049.525, 79050.71
1050.007, 79041.44
1050.489, 79104.22
1050.971, 79185.98
1051.453, 79223.91
1051.936, 79217.56
1052.418, 79200.45
1052.900, 79165.99
1053.382, 79141.98
1053.864, 79131.84
1054.346, 79135.52
1054.828, 79170.55
1055.310, 79207.86
1055.792, 79197.59
1056.275, 79151.16
1056.757, 79155.61
1057.239, 79277.52
1057.721, 79352.77
1058.203, 79297.17
1058.685, 79228.60
1059.167, 79201.70
1059.649, 79204.41
1060.131, 79228.16
1060.614, 79264.96
1061.096, 79290.59
1061.578, 79294.52
1062.060, 79297.57
1062.542, 79308.95
1063.024, 79318.73
1063.506, 79318.88
1063.988, 79315.98
1064.471, 79318.14
1064.953, 79324.72
1065.435, 79329.55
1065.917, 79329.21
1066.399, 79333.52
1066.881, 79358.02
1067.363, 79374.89
1067.845, 79367.07
1068.328, 79343.86
1068.810, 79295.98
1069.292, 79244.27
1069.774, 79254.42
1070.256, 79360.33
1070.738, 79436.80
1071.220, 79396.67
1071.702, 79350.88
1072.184, 79380.41
1072.667, 79424.02
1073.149, 79401.84
1073.631, 79338.28
1074.113, 79311.88
1074.595, 79344.34
1075.077, 79396.97
1075.559, 79485.52
1076.041, 79548.41
1076.523, 79537.77
1077.006, 79495.45
1077.488, 79437.60
1077.970, 79388.66
1078.452, 79406.23
1078.934, 79503.35
1079.416, 79557.04
1079.898, 79461.05
1080.380, 79373.59
1080.862, 79398.46
1081.345, 79449.25
1081.827, 79457.08
1082.309, 79427.93
1082.791, 79373.54
1083.273, 79301.09
1083.755, 79259.36
1084.237, 79293.13
1084.719, 79328.10
1085.202, 79330.95
1085.684, 79319.54
1086.166, 79308.44
1086.648, 79293.08
1087.130, 79251.59
1087.612, 79190.05
1088.094, 79170.17
1088.576, 79247.78
1089.058, 79304.96
1089.541, 79273.29
1090.023, 79221.83
1090.505, 79185.65
1090.987, 79167.91
1091.469, 79173.86
1091.951, 79198.45
1092.433, 79223.06
1092.915, 79248.80
1093.397, 79253.36
1093.880, 79206.25
1094.362, 79159.80
1094.844, 79145.00
1095.326, 79146.57
1095.808, 79151.70
1096.290, 79155.67
1096.772, 79149.69
1097.254, 79127.15
1097.737, 79115.82
1098.219, 79142.08
1098.701, 79159.79
1099.183, 79134.68
1099.665, 79103.92
1100.147, 79118.97
1100.629, 79150.66
1101.111, 79120.64
1101.594, 79009.81
1102.076, 78928.92
1102.558, 78923.75
1103.040, 78930.66
1103.522, 78945.56
1104.004, 78949.31
1104.486, 78917.94
1104.968, 78872.01
1105.450, 78849.24
1105.932, 78851.96
1106.415, 78838.76
1106.897, 78759.48
1107.379, 78725.99
1107.861, 78808.80
1108.343, 78885.02
1108.825, 78892.23
1109.307, 78856.64
1109.789, 78788.12
1110.272, 78701.30
1110.754, 78682.30
1111.236, 78804.60
1111.718, 78866.44
1112.200, 78804.94
1112.682, 78738.95
1113.164, 78703.45
1113.646, 78686.34
1114.129, 78680.92
1114.611, 78684.45
1115.093, 78690.11
1115.575, 78705.35
1116.057, 78699.28
1116.539, 78646.27
1117.021, 78611.12
1117.503, 78619.17
1117.985, 78632.52
1118.468, 78617.73
1118.950, 78640.52
1119.432, 78662.70
1119.914, 78675.02
1120.396, 78720.96
1120.878, 78748.69
1121.360, 78767.73
1121.842, 78776.92
1122.324, 78780.02
1122.807, 78771.20
1123.289, 78768.77
1123.771, 78805.23
1124.253, 78871.22
1124.735, 78882.98
1125.217, 78820.40
1125.699, 78775.05
1126.181, 78752.34
1126.664, 78745.27
1127.146, 78756.01
1127.628, 78769.22
1128.110, 78768.46
1128.592, 78762.77
1129.074, 78786.80
1129.556, 78764.12
1130.038, 78842.01
1130.521, 78752.31
1131.003, 78706.32
1131.485, 78738.67
1131.967, 78776.02
1132.449, 78770.07
1132.931, 78746.83
1133.413, 78747.73
1133.895, 78770.64
1134.377, 78804.52
1134.859, 78848.92
1135.342, 78891.59
1135.824, 78930.39
1136.306, 78940.80
1136.788, 78911.93
1137.270, 78855.48
1137.752, 78773.98
1138.234, 78695.41
1138.716, 78700.29
1139.199, 78769.24
1139.681, 78821.48
1140.163, 78853.73
1140.645, 78888.56
1141.127, 78928.71
1141.609, 78933.76
1142.091, 78871.02
1142.573, 78794.59
1143.056, 78783.13
1143.538, 78810.99
1144.020, 78835.73
1144.502, 78853.51
1144.984, 78854.91
1145.466, 78842.33
1145.948, 78825.68
1146.430, 78809.73
1146.912, 78812.86
1147.395, 78867.36
1147.877, 78930.26
1148.359, 78943.59
1148.841, 78940.98
1149.323, 78976.25
1149.805, 79034.38
1150.287, 79072.77
1150.769, 79082.35
1151.251, 79080.72
1151.734, 79071.41
1152.216, 79066.93
1152.698, 79088.14
1153.180, 79104.58
1153.662, 79072.02
1154.144, 79032.12
1154.626, 79052.48
1155.108, 79117.08
1155.591, 79149.25
1156.073, 79122.10
1156.555, 79106.36
1157.037, 79137.50
1157.519, 79171.39
1158.001, 79188.03
1158.483, 79203.07
1158.965, 79235.36
1159.448, 79271.80
1159.930, 79290.54
1160.412, 79289.71
1160.894, 79274.46
1161.376, 79226.42
1161.858, 79193.72
1162.340, 79186.48
1162.822, 79187.24
1163.304, 79179.73
1163.786, 79188.42
1164.269, 79258.29
1164.751, 79243.23
1165.233, 79245.90
1165.715, 79271.83
1166.197, 79224.06
1166.679, 79251.93
1167.161, 79270.01
1167.643, 79258.80
1168.126, 79242.01
1168.608, 79230.90
1169.090, 79229.02
1169.572, 79243.94
1170.054, 79272.11
1170.536, 79284.14
1171.018, 79278.89
1171.500, 79280.06
1171.983, 79289.48
1172.465, 79301.23
1172.947, 79312.78
1173.429, 79337.66
1173.911, 79389.67
1174.393, 79450.80
1174.875, 79496.09
1175.357, 79520.51
1175.839, 79486.09
1176.322, 79413.12
1176.804, 79391.44
1177.286, 79429.06
1177.768, 79475.38
1178.250, 79506.77
1178.732, 79526.70
1179.214, 79533.48
1179.696, 79537.45
1180.178, 79562.29
1180.661, 79587.08
1181.143, 79572.15
1181.625, 79531.85
1182.107, 79495.36
1182.589, 79474.02
1183.071, 79485.09
1183.553, 79547.64
1184.035, 79599.66
1184.518, 79589.39
1185.000, 79569.36
1185.482, 79581.59
1185.964, 79599.55
1186.446, 79579.34
1186.928, 79544.87
1187.410, 79567.73
1187.892, 79661.95
1188.375, 79709.80
1188.857, 79645.87
1189.339, 79589.60
1189.821, 79566.30
1190.303, 79555.12
1190.785, 79547.52
1191.267, 79545.56
1191.749, 79558.05
1192.231, 79577.75
1192.714, 79574.67
1193.196, 79539.04
1193.678, 79520.73
1194.160, 79531.51
1194.642, 79522.73
1195.124, 79467.30
1195.606, 79446.92
1196.088, 79519.47
1196.570, 79623.34
1197.053, 79674.67
1197.535, 79680.22
1198.017, 79667.73
1198.499, 79637.72
1198.981, 79617.21
1199.463, 79607.14
1199.945, 79582.65
1200.427, 79538.14
1200.910, 79526.80
1201.392, 79587.55
1201.874, 79678.59
1202.356, 79761.39
1202.838, 79819.44
1203.320, 79800.62
1203.802, 79735.09
1204.284, 79674.87
1204.766, 79636.55
1205.249, 79654.41
1205.731, 79731.02
1206.213, 79798.80
1206.695, 79824.01
1207.177, 79809.00
1207.659, 79714.91
1208.141, 79623.37
1208.623, 79610.30
1209.105, 79640.31
1209.588, 79681.60
1210.070, 79718.73
1210.552, 79719.24
1211.034, 79669.18
1211.516, 79655.13
1211.998, 79739.95
1212.480, 79800.59
1212.962, 79797.52
1213.445, 79774.84
1213.927, 79739.67
1214.409, 79709.46
1214.891, 79705.11
1215.373, 79721.28
1215.855, 79733.39
1216.337, 79734.57
1216.819, 79765.77
1217.302, 79844.56
1217.784, 79882.52
1218.266, 79859.40
1218.748, 79794.26
1219.230, 79686.55
1219.712, 79595.55
1220.194, 79605.04
1220.676, 79680.49
1221.158, 79713.31
1221.641, 79710.15
1222.123, 79702.55
1222.605, 79692.65
1223.087, 79672.70
1223.569, 79644.44
1224.051, 79633.02
1224.533, 79653.54
1225.015, 79674.22
1225.497, 79648.57
1225.980, 79619.61
1226.462, 79653.30
1226.944, 79701.93
1227.426, 79685.16
1227.908, 79638.82
1228.390, 79659.11
1228.872, 79746.98
1229.354, 79792.30
1229.837, 79734.73
1230.319, 79697.50
1230.801, 79745.02
1231.283, 79791.87
1231.765, 79800.37
1232.247, 79795.83
1232.729, 79794.07
1233.211, 79796.38
1233.693, 79810.25
1234.176, 79834.54
1234.658, 79815.79
1235.140, 79714.56
1235.622, 79699.87
1236.104, 79808.33
1236.586, 79898.62
1237.068, 79930.11
1237.550, 79927.08
1238.032, 79900.89
1238.515, 79874.83
1238.997, 79894.70
1239.479, 79943.63
1239.961, 79952.79
1240.443, 79929.20
1240.925, 79901.32
1241.407, 79873.80
1241.889, 79848.39
1242.372, 79827.49
1242.854, 79824.00
1243.336, 79848.76
1243.818, 79876.81
1244.300, 79875.95
1244.782, 79877.38
1245.264, 79925.61
1245.746, 79983.30
1246.229, 79997.88
1246.711, 79988.51
1247.193, 80014.23
1247.675, 80076.14
1248.157, 80080.47
1248.639, 79951.61
1249.121, 79870.41
1249.603, 79900.90
1250.085, 79938.17
1250.568, 79951.80
1251.050, 79957.20
1251.532, 79956.76
1252.014, 79962.89
1252.496, 80004.94
1252.978, 80074.84
1253.460, 80074.15
1253.942, 79990.84
1254.424, 79975.76
1254.907, 80040.73
1255.389, 80084.48
1255.871, 80079.52
1256.353, 80083.31
1256.835, 80134.27
1257.317, 80188.72
1257.799, 80187.96
1258.281, 80156.63
1258.764, 80134.09
1259.246, 80116.80
1259.728, 80092.77
1260.210, 80070.27
1260.692, 80068.38
1261.174, 80089.94
1261.656, 80130.10
1262.138, 80193.05
1262.620, 80241.97
1263.103, 80252.08
1263.585, 80254.51
1264.067, 80252.49
1264.549, 80258.27
1265.031, 80288.98
1265.513, 80325.84
1265.995, 80338.99
1266.477, 80333.67
1266.959, 80340.88
1267.442, 80364.45
1267.924, 80379.17
1268.406, 80377.27
1268.888, 80405.87
1269.370, 80477.84
1269.852, 80552.92
1270.334, 80613.27
1270.816, 80640.47
1271.299, 80605.97
1271.781, 80550.90
1272.263, 80563.30
1272.745, 80618.45
1273.227, 80660.96
1273.709, 80692.33
1274.191, 80727.92
1274.673, 80763.29
1275.156, 80771.05
1275.638, 80744.52
1276.120, 80725.84
1276.602, 80723.85
1277.084, 80758.92
1277.566, 80898.22
1278.048, 81008.48
1278.530, 80978.85
1279.012, 80907.25
1279.495, 80890.05
1279.977, 80908.81
1280.459, 80905.55
1280.941, 80874.38
1281.423, 80859.96
1281.905, 80881.11
1282.387, 80893.75
1282.869, 80893.63
1283.351, 80901.24
1283.834, 80926.45
1284.316, 80933.55
1284.798, 80894.45
1285.280, 80844.92
1285.762, 80832.30
1286.244, 80896.84
##END=



