##NAMES=Richterite
##RRUFFID=R060043
##IDEAL CHEMISTRY=Na(CaNa)Mg_5_Si_8_O_22_(OH)_2_
##LOCALITY=Langban, Filipstad, Varmland, Sweden
##OWNER=RRUFF
##SOURCE=University of Arizona Mineral Museum
##DESCRIPTION=Brown transparent stubby prismatic single crystal associated with calcite
##STATUS=The identification of this mineral has been confirmed by X-ray diffraction and chemical analysis
##URL=rruff.info/R060043
##MEASURED CHEMISTRY=(Na_0.45_K_0.25_[box]_0.30_)(Ca_0.78_Na_1.18_Mn_0.04_)_&#931;=2_(Mg_4.25_Mn_0.75_)_&#931;=5_(Si_0.97_Fe^3+^_0.02_Al_0.01_)_8_O_22_(OH)_2_
146.5207, 805.9346
147.0029, 809.1578
147.4850, 811.9708
147.9671, 814.6240
148.4492, 817.2982
148.9313, 820.3568
149.4134, 824.0807
149.8955, 828.4772
150.3777, 833.1967
150.8598, 839.2419
151.3419, 844.7603
151.8240, 849.1957
152.3061, 852.5313
152.7882, 854.9455
153.2704, 856.4767
153.7525, 856.6136
154.2346, 857.6995
154.7167, 860.2412
155.1988, 863.1296
155.6809, 866.0121
156.1631, 868.7156
156.6452, 870.9565
157.1273, 872.3937
157.6094, 873.0910
158.0915, 872.4630
158.5736, 868.7643
159.0558, 864.6064
159.5379, 862.8392
160.0200, 864.3503
160.5021, 867.2609
160.9842, 868.2194
161.4663, 866.7938
161.9485, 865.3243
162.4306, 863.9288
162.9127, 862.8573
163.3948, 862.5731
163.8769, 863.2542
164.3590, 864.8167
164.8412, 867.1793
165.3233, 870.4879
165.8054, 873.7684
166.2875, 876.6056
166.7696, 879.0004
167.2517, 880.8302
167.7339, 881.7762
168.2160, 882.3094
168.6981, 883.0304
169.1802, 884.0631
169.6623, 884.8068
170.1444, 884.0485
170.6266, 881.2776
171.1087, 880.2119
171.5908, 883.7162
172.0729, 888.3582
172.5550, 891.8503
173.0371, 893.5023
173.5193, 894.3320
174.0014, 896.3438
174.4835, 900.9894
174.9656, 903.5170
175.4477, 901.2775
175.9298, 897.9066
176.4120, 896.9451
176.8941, 899.8859
177.3762, 904.9186
177.8583, 906.8872
178.3404, 901.9328
178.8225, 898.8818
179.3047, 899.3765
179.7868, 901.8574
180.2689, 904.8052
180.7510, 907.4742
181.2331, 909.6707
181.7152, 910.3973
182.1974, 907.0573
182.6795, 905.1896
183.1616, 906.4478
183.6437, 909.7368
184.1258, 913.3362
184.6079, 916.4070
185.0900, 918.8390
185.5722, 919.7697
186.0543, 916.5941
186.5364, 914.9360
187.0185, 917.8065
187.5006, 924.1088
187.9827, 930.5911
188.4649, 935.6185
188.9470, 939.0160
189.4291, 940.9390
189.9112, 940.4129
190.3933, 939.3795
190.8754, 938.4023
191.3576, 937.5834
191.8397, 938.4784
192.3218, 943.3716
192.8039, 950.3522
193.2860, 954.9305
193.7681, 954.6883
194.2503, 953.6124
194.7324, 956.4135
195.2145, 963.7155
195.6966, 970.8081
196.1787, 975.2418
196.6608, 977.8154
197.1430, 978.9170
197.6251, 977.7950
198.1072, 976.1069
198.5893, 976.5702
199.0714, 979.4794
199.5535, 983.9288
200.0357, 991.5272
200.5178, 999.6962
200.9999, 1005.209
201.4820, 1006.164
201.9641, 1004.174
202.4462, 1003.620
202.9284, 1004.648
203.4105, 1007.109
203.8926, 1011.735
204.3747, 1017.280
204.8568, 1022.157
205.3389, 1025.390
205.8211, 1027.429
206.3032, 1030.249
206.7853, 1034.677
207.2674, 1038.949
207.7495, 1042.637
208.2316, 1045.994
208.7138, 1049.430
209.1959, 1053.200
209.6780, 1057.243
210.1601, 1060.984
210.6422, 1063.405
211.1243, 1066.618
211.6065, 1071.900
212.0886, 1078.146
212.5707, 1083.207
213.0528, 1085.484
213.5349, 1085.533
214.0170, 1088.917
214.4992, 1100.038
214.9813, 1109.400
215.4634, 1113.140
215.9455, 1113.162
216.4276, 1113.653
216.9097, 1117.249
217.3919, 1123.635
217.8740, 1129.833
218.3561, 1135.955
218.8382, 1141.807
219.3203, 1147.178
219.8024, 1152.181
220.2845, 1157.260
220.7667, 1162.950
221.2488, 1168.816
221.7309, 1172.725
222.2130, 1173.226
222.6951, 1173.428
223.1772, 1175.207
223.6594, 1178.179
224.1415, 1180.485
224.6236, 1181.032
225.1057, 1180.067
225.5878, 1178.941
226.0699, 1177.747
226.5521, 1176.290
227.0342, 1174.946
227.5163, 1173.559
227.9984, 1170.447
228.4805, 1163.840
228.9626, 1155.273
229.4448, 1148.008
229.9269, 1143.013
230.4090, 1138.196
230.8911, 1130.531
231.3732, 1120.010
231.8553, 1112.676
232.3375, 1114.423
232.8196, 1119.251
233.3017, 1119.637
233.7838, 1113.635
234.2659, 1105.456
234.7480, 1099.212
235.2302, 1095.044
235.7123, 1091.454
236.1944, 1088.130
236.6765, 1085.078
237.1586, 1082.326
237.6407, 1079.881
238.1229, 1077.735
238.6050, 1075.532
239.0871, 1072.960
239.5692, 1072.066
240.0513, 1075.231
240.5334, 1079.262
241.0156, 1082.411
241.4977, 1084.257
241.9798, 1084.722
242.4619, 1083.214
242.9440, 1078.963
243.4261, 1075.654
243.9083, 1074.155
244.3904, 1073.602
244.8725, 1073.684
245.3546, 1074.287
245.8367, 1075.195
246.3188, 1076.070
246.8010, 1076.757
247.2831, 1077.922
247.7652, 1080.763
248.2473, 1083.249
248.7294, 1083.745
249.2115, 1082.191
249.6937, 1080.109
250.1758, 1079.814
250.6579, 1082.811
251.1400, 1083.424
251.6221, 1078.542
252.1042, 1073.948
252.5864, 1073.531
253.0685, 1077.341
253.5506, 1082.349
254.0327, 1085.093
254.5148, 1085.312
254.9969, 1083.814
255.4790, 1077.786
255.9612, 1072.621
256.4433, 1071.897
256.9254, 1075.354
257.4075, 1079.965
257.8896, 1082.445
258.3718, 1082.174
258.8539, 1082.473
259.3360, 1084.340
259.8181, 1085.800
260.3002, 1085.349
260.7823, 1083.335
261.2645, 1081.490
261.7466, 1081.564
262.2287, 1083.973
262.7108, 1085.165
263.1929, 1084.572
263.6750, 1083.591
264.1572, 1082.270
264.6393, 1080.999
265.1214, 1080.848
265.6035, 1082.951
266.0856, 1087.429
266.5677, 1089.636
267.0499, 1088.033
267.5320, 1086.238
268.0141, 1085.471
268.4962, 1085.765
268.9783, 1086.950
269.4604, 1089.077
269.9426, 1092.010
270.4247, 1093.910
270.9068, 1093.520
271.3889, 1093.646
271.8710, 1096.329
272.3531, 1100.423
272.8352, 1102.813
273.3174, 1101.358
273.7995, 1097.192
274.2816, 1095.970
274.7637, 1100.284
275.2458, 1103.897
275.7279, 1103.871
276.2101, 1101.815
276.6922, 1101.339
277.1743, 1104.390
277.6564, 1109.464
278.1385, 1112.130
278.6206, 1111.068
279.1028, 1110.620
279.5849, 1112.389
280.0670, 1115.513
280.5491, 1118.509
281.0312, 1120.846
281.5133, 1122.844
281.9955, 1125.299
282.4776, 1128.659
282.9597, 1130.963
283.4418, 1130.650
283.9239, 1129.269
284.4060, 1129.505
284.8882, 1132.247
285.3703, 1135.733
285.8524, 1137.311
286.3345, 1136.835
286.8166, 1136.784
287.2987, 1137.833
287.7809, 1139.517
288.2630, 1141.445
288.7451, 1143.596
289.2272, 1145.458
289.7093, 1146.047
290.1914, 1145.489
290.6736, 1146.033
291.1557, 1148.555
291.6378, 1152.061
292.1199, 1155.882
292.6020, 1159.984
293.0841, 1163.419
293.5663, 1165.107
294.0484, 1165.350
294.5305, 1165.866
295.0126, 1167.624
295.4947, 1169.159
295.9768, 1168.453
296.4590, 1165.597
296.9411, 1163.791
297.4232, 1165.328
297.9053, 1169.470
298.3874, 1173.457
298.8695, 1177.865
299.3517, 1181.357
299.8338, 1182.275
300.3159, 1181.010
300.7980, 1180.219
301.2801, 1181.103
301.7622, 1183.262
302.2444, 1185.731
302.7265, 1188.751
303.2086, 1191.528
303.6907, 1193.558
304.1728, 1194.974
304.6549, 1196.156
305.1371, 1197.094
305.6192, 1198.064
306.1013, 1199.589
306.5834, 1201.764
307.0655, 1203.645
307.5476, 1204.693
308.0298, 1205.160
308.5119, 1205.434
308.9940, 1205.315
309.4761, 1205.713
309.9582, 1207.864
310.4403, 1211.534
310.9225, 1215.644
311.4046, 1220.666
311.8867, 1225.670
312.3688, 1229.089
312.8509, 1230.644
313.3330, 1231.305
313.8152, 1231.226
314.2973, 1230.786
314.7794, 1231.345
315.2615, 1233.398
315.7436, 1236.450
316.2257, 1240.495
316.7079, 1245.607
317.1900, 1249.827
317.6721, 1251.216
318.1542, 1251.019
318.6363, 1252.391
319.1184, 1256.572
319.6006, 1261.122
320.0827, 1264.375
320.5648, 1266.403
321.0469, 1267.740
321.5290, 1268.676
322.0111, 1268.904
322.4933, 1267.559
322.9754, 1263.520
323.4575, 1261.245
323.9396, 1264.002
324.4217, 1270.526
324.9038, 1277.246
325.3860, 1283.720
325.8681, 1289.059
326.3502, 1291.407
326.8323, 1290.802
327.3144, 1290.769
327.7965, 1293.333
328.2787, 1297.067
328.7608, 1299.413
329.2429, 1299.804
329.7250, 1299.688
330.2071, 1300.572
330.6892, 1302.251
331.1714, 1303.509
331.6535, 1302.916
332.1356, 1302.515
332.6177, 1305.454
333.0998, 1311.865
333.5819, 1316.890
334.0641, 1316.103
334.5462, 1311.302
335.0283, 1309.948
335.5104, 1314.052
335.9925, 1319.883
336.4746, 1326.324
336.9568, 1332.875
337.4389, 1336.743
337.9210, 1335.735
338.4031, 1332.213
338.8852, 1331.833
339.3673, 1335.548
339.8495, 1339.537
340.3316, 1343.329
340.8137, 1346.212
341.2958, 1346.085
341.7779, 1341.719
342.2600, 1336.366
342.7421, 1335.225
343.2242, 1338.723
343.7064, 1341.444
344.1885, 1341.091
344.6706, 1340.116
345.1527, 1341.846
345.6348, 1346.738
346.1169, 1351.513
346.5991, 1352.740
347.0812, 1350.240
347.5633, 1350.064
348.0454, 1354.347
348.5275, 1359.198
349.0096, 1361.598
349.4918, 1362.013
349.9739, 1363.297
350.4560, 1367.655
350.9381, 1374.036
351.4202, 1377.211
351.9023, 1373.788
352.3845, 1371.604
352.8666, 1374.348
353.3487, 1379.772
353.8308, 1383.508
354.3129, 1383.688
354.7950, 1382.436
355.2772, 1384.153
355.7593, 1391.139
356.2414, 1396.002
356.7235, 1396.257
357.2056, 1395.090
357.6877, 1395.560
358.1699, 1398.236
358.6520, 1401.982
359.1341, 1405.713
359.6162, 1409.508
360.0983, 1412.709
360.5804, 1415.248
361.0626, 1417.346
361.5447, 1418.464
362.0268, 1419.131
362.5089, 1420.964
362.9910, 1425.233
363.4731, 1431.615
363.9553, 1436.921
364.4374, 1440.409
364.9195, 1443.837
365.4016, 1447.719
365.8837, 1451.704
366.3658, 1455.191
366.8480, 1457.942
367.3301, 1460.356
367.8122, 1463.308
368.2943, 1467.516
368.7764, 1471.134
369.2585, 1473.697
369.7407, 1476.032
370.2228, 1478.796
370.7049, 1482.056
371.1870, 1485.429
371.6691, 1488.515
372.1512, 1491.276
372.6334, 1493.878
373.1155, 1495.695
373.5976, 1497.965
374.0797, 1502.434
374.5618, 1507.684
375.0439, 1510.620
375.5261, 1508.916
376.0082, 1503.688
376.4903, 1500.667
376.9724, 1501.444
377.4545, 1502.305
377.9366, 1501.766
378.4188, 1501.402
378.9009, 1503.386
379.3830, 1508.358
379.8651, 1514.110
380.3472, 1516.536
380.8293, 1513.950
381.3115, 1513.689
381.7936, 1517.607
382.2757, 1522.996
382.7578, 1529.315
383.2399, 1536.084
383.7220, 1542.175
384.2042, 1546.579
384.6863, 1549.388
385.1684, 1551.830
385.6505, 1553.906
386.1326, 1555.598
386.6147, 1555.181
387.0969, 1554.770
387.5790, 1558.240
388.0611, 1568.454
388.5432, 1581.301
389.0253, 1588.820
389.5074, 1589.669
389.9896, 1591.248
390.4717, 1597.058
390.9538, 1604.033
391.4359, 1609.960
391.9180, 1614.540
392.4001, 1617.802
392.8823, 1619.118
393.3644, 1618.854
393.8465, 1619.403
394.3286, 1621.542
394.8107, 1623.868
395.2928, 1625.716
395.7750, 1626.942
396.2571, 1626.759
396.7392, 1624.096
397.2213, 1620.210
397.7034, 1617.095
398.1855, 1614.915
398.6677, 1611.892
399.1498, 1606.357
399.6319, 1599.471
400.1140, 1593.867
400.5961, 1589.460
401.0782, 1586.682
401.5604, 1587.171
402.0425, 1589.607
402.5246, 1589.690
403.0067, 1585.498
403.4888, 1580.035
403.9709, 1577.823
404.4531, 1578.951
404.9352, 1580.966
405.4173, 1584.745
405.8994, 1588.436
406.3815, 1589.669
406.8636, 1588.470
407.3458, 1587.399
407.8279, 1588.740
408.3100, 1592.247
408.7921, 1593.756
409.2742, 1591.144
409.7563, 1589.150
410.2385, 1589.599
410.7206, 1591.842
411.2027, 1594.836
411.6848, 1598.165
412.1669, 1601.578
412.6490, 1604.569
413.1311, 1607.193
413.6133, 1609.170
414.0954, 1609.792
414.5775, 1610.300
415.0596, 1611.463
415.5417, 1613.419
416.0238, 1616.161
416.5060, 1619.979
416.9881, 1624.944
417.4702, 1627.556
417.9523, 1624.119
418.4344, 1622.290
418.9165, 1625.508
419.3987, 1630.985
419.8808, 1634.349
420.3629, 1633.530
420.8450, 1630.801
421.3271, 1631.179
421.8092, 1636.234
422.2914, 1640.454
422.7735, 1642.862
423.2556, 1644.596
423.7377, 1646.197
424.2198, 1647.763
424.7019, 1649.252
425.1841, 1650.606
425.6662, 1651.837
426.1483, 1653.035
426.6304, 1654.076
427.1125, 1655.298
427.5946, 1656.908
428.0768, 1658.772
428.5589, 1660.667
429.0410, 1662.508
429.5231, 1664.409
430.0052, 1666.889
430.4873, 1669.994
430.9695, 1671.715
431.4516, 1670.029
431.9337, 1668.147
432.4158, 1670.042
432.8979, 1675.762
433.3800, 1680.848
433.8622, 1682.073
434.3443, 1681.588
434.8264, 1683.860
435.3085, 1689.683
435.7906, 1694.903
436.2727, 1695.854
436.7549, 1693.478
437.2370, 1692.763
437.7191, 1695.871
438.2012, 1698.612
438.6833, 1697.370
439.1654, 1694.026
439.6476, 1693.820
440.1297, 1699.142
440.6118, 1706.427
441.0939, 1709.309
441.5760, 1705.363
442.0581, 1703.696
442.5403, 1706.348
443.0224, 1710.243
443.5045, 1713.118
443.9866, 1714.895
444.4687, 1716.735
444.9508, 1719.736
445.4330, 1723.610
445.9151, 1725.150
446.3972, 1720.143
446.8793, 1717.816
447.3614, 1721.204
447.8435, 1727.275
448.3257, 1732.901
448.8078, 1736.987
449.2899, 1739.884
449.7720, 1741.800
450.2541, 1742.144
450.7362, 1743.569
451.2184, 1748.487
451.7005, 1752.242
452.1826, 1751.536
452.6647, 1748.110
453.1468, 1746.195
453.6289, 1748.443
454.1111, 1753.763
454.5932, 1759.560
455.0753, 1766.434
455.5574, 1772.086
456.0395, 1775.069
456.5216, 1776.839
457.0038, 1778.086
457.4859, 1778.916
457.9680, 1780.199
458.4501, 1783.014
458.9322, 1786.888
459.4143, 1789.668
459.8965, 1790.464
460.3786, 1791.973
460.8607, 1797.078
461.3428, 1804.600
461.8249, 1811.688
462.3070, 1819.346
462.7892, 1824.957
463.2713, 1824.711
463.7534, 1820.280
464.2355, 1818.242
464.7176, 1821.498
465.1997, 1827.160
465.6819, 1830.062
466.1640, 1829.116
466.6461, 1829.730
467.1282, 1834.571
467.6103, 1839.710
468.0924, 1841.078
468.5746, 1839.162
469.0567, 1838.040
469.5388, 1840.852
470.0209, 1846.898
470.5030, 1851.448
470.9851, 1852.571
471.4673, 1854.493
471.9494, 1858.515
472.4315, 1863.113
472.9136, 1866.859
473.3957, 1869.348
473.8778, 1870.901
474.3600, 1871.430
474.8421, 1870.450
475.3242, 1872.084
475.8063, 1879.680
476.2884, 1886.428
476.7705, 1890.233
477.2527, 1891.658
477.7348, 1891.476
478.2169, 1889.675
478.6990, 1887.617
479.1811, 1887.226
479.6632, 1888.424
480.1454, 1892.216
480.6275, 1901.981
481.1096, 1911.381
481.5917, 1914.454
482.0738, 1911.766
482.5559, 1909.339
483.0380, 1910.507
483.5201, 1913.514
484.0023, 1914.913
484.4844, 1914.480
484.9665, 1916.437
485.4486, 1925.037
485.9307, 1936.596
486.4128, 1940.987
486.8950, 1934.185
487.3771, 1929.211
487.8592, 1932.325
488.3413, 1939.144
488.8234, 1943.597
489.3055, 1944.598
489.7877, 1945.167
490.2698, 1948.517
490.7519, 1954.923
491.2340, 1958.828
491.7161, 1957.437
492.1982, 1957.213
492.6804, 1961.250
493.1625, 1967.360
493.6446, 1972.279
494.1267, 1974.809
494.6088, 1976.166
495.0909, 1978.160
495.5731, 1980.666
496.0552, 1984.215
496.5373, 1990.917
497.0194, 1996.676
497.5015, 1998.406
497.9836, 1997.925
498.4658, 1999.598
498.9479, 2006.440
499.4300, 2015.454
499.9121, 2020.271
500.3942, 2020.010
500.8763, 2020.833
501.3585, 2025.254
501.8406, 2030.780
502.3227, 2035.248
502.8048, 2038.621
503.2869, 2041.627
503.7690, 2044.312
504.2512, 2046.979
504.7333, 2050.277
505.2154, 2054.257
505.6975, 2057.783
506.1796, 2059.997
506.6617, 2061.376
507.1439, 2063.574
507.6260, 2067.695
508.1081, 2070.512
508.5902, 2069.581
509.0723, 2067.707
509.5544, 2068.057
510.0366, 2071.151
510.5187, 2075.891
511.0008, 2081.581
511.4829, 2088.214
511.9650, 2092.812
512.4471, 2093.628
512.9293, 2094.495
513.4114, 2096.842
513.8935, 2099.294
514.3756, 2099.635
514.8577, 2097.449
515.3398, 2095.308
515.8220, 2096.517
516.3041, 2101.280
516.7862, 2107.309
517.2683, 2116.623
517.7504, 2124.435
518.2325, 2128.662
518.7147, 2130.088
519.1968, 2129.608
519.6789, 2126.779
520.1610, 2124.064
520.6431, 2124.960
521.1252, 2128.925
521.6074, 2131.240
522.0895, 2130.010
522.5716, 2128.379
523.0537, 2130.671
523.5358, 2136.227
524.0179, 2139.762
524.5001, 2137.744
524.9822, 2135.783
525.4643, 2139.459
525.9464, 2146.681
526.4285, 2150.337
526.9106, 2146.994
527.3928, 2140.969
527.8749, 2140.338
528.3570, 2147.607
528.8391, 2154.852
529.3212, 2164.018
529.8033, 2171.366
530.2855, 2173.921
530.7676, 2172.924
531.2497, 2171.304
531.7318, 2170.596
532.2139, 2171.208
532.6960, 2174.968
533.1782, 2184.104
533.6603, 2190.034
534.1424, 2188.728
534.6245, 2185.824
535.1066, 2183.300
535.5887, 2181.821
536.0709, 2182.827
536.5530, 2188.269
537.0351, 2196.190
537.5172, 2204.320
537.9993, 2212.851
538.4814, 2216.277
538.9636, 2208.906
539.4457, 2198.354
539.9278, 2197.894
540.4099, 2209.069
540.8920, 2219.362
541.3741, 2225.941
541.8563, 2229.690
542.3384, 2230.227
542.8205, 2228.330
543.3026, 2227.185
543.7847, 2228.749
544.2668, 2232.638
544.7490, 2237.497
545.2311, 2246.125
545.7132, 2251.723
546.1953, 2252.169
546.6774, 2251.121
547.1595, 2250.498
547.6417, 2250.895
548.1238, 2252.897
548.6059, 2257.429
549.0880, 2263.518
549.5701, 2266.959
550.0522, 2266.206
550.5344, 2266.742
551.0165, 2271.535
551.4986, 2277.435
551.9807, 2282.136
552.4628, 2285.475
552.9449, 2288.470
553.4271, 2292.458
553.9092, 2296.227
554.3913, 2296.825
554.8734, 2294.103
555.3555, 2292.411
555.8376, 2293.937
556.3198, 2298.126
556.8019, 2304.125
557.2840, 2313.446
557.7661, 2320.478
558.2482, 2322.497
558.7303, 2322.937
559.2125, 2324.969
559.6946, 2328.599
560.1767, 2331.781
560.6588, 2332.919
561.1409, 2332.826
561.6230, 2335.081
562.1052, 2340.941
562.5873, 2347.121
563.0694, 2355.018
563.5515, 2361.721
564.0336, 2363.871
564.5157, 2362.351
564.9979, 2361.915
565.4800, 2366.900
565.9621, 2374.731
566.4442, 2377.953
566.9263, 2375.591
567.4084, 2375.362
567.8906, 2381.611
568.3727, 2390.140
568.8548, 2394.946
569.3369, 2395.751
569.8190, 2397.717
570.3011, 2403.820
570.7833, 2411.034
571.2654, 2416.168
571.7475, 2419.421
572.2296, 2422.648
572.7117, 2426.914
573.1938, 2431.623
573.6760, 2435.417
574.1581, 2438.129
574.6402, 2440.083
575.1223, 2440.431
575.6044, 2440.825
576.0865, 2442.380
576.5687, 2444.805
577.0508, 2446.977
577.5329, 2448.095
578.0150, 2449.200
578.4971, 2453.013
578.9792, 2460.209
579.4614, 2466.155
579.9435, 2469.628
580.4256, 2471.989
580.9077, 2473.724
581.3898, 2475.145
581.8719, 2477.427
582.3541, 2481.078
582.8362, 2485.685
583.3183, 2492.283
583.8004, 2499.780
584.2825, 2503.014
584.7646, 2499.651
585.2468, 2495.061
585.7289, 2496.245
586.2110, 2504.360
586.6931, 2512.180
587.1752, 2520.309
587.6573, 2527.490
588.1394, 2533.593
588.6215, 2538.329
589.1036, 2541.136
589.5858, 2541.878
590.0679, 2541.373
590.5500, 2540.060
591.0321, 2537.593
591.5142, 2538.082
591.9963, 2543.134
592.4785, 2548.809
592.9606, 2554.588
593.4427, 2559.484
593.9248, 2561.575
594.4069, 2559.850
594.8890, 2558.115
595.3712, 2558.682
595.8533, 2561.395
596.3354, 2566.821
596.8175, 2575.206
597.2996, 2582.323
597.7817, 2584.526
598.2639, 2583.022
598.7460, 2584.338
599.2281, 2590.346
599.7102, 2596.227
600.1923, 2600.878
600.6744, 2605.390
601.1566, 2611.465
601.6387, 2618.626
602.1208, 2624.201
602.6029, 2625.881
603.0850, 2624.778
603.5671, 2625.200
604.0493, 2627.387
604.5314, 2630.467
605.0135, 2634.310
605.4956, 2638.995
605.9777, 2645.880
606.4598, 2654.185
606.9420, 2659.836
607.4241, 2658.738
607.9062, 2655.411
608.3883, 2654.739
608.8704, 2656.578
609.3525, 2660.555
609.8347, 2666.925
610.3168, 2673.998
610.7989, 2679.427
611.2810, 2682.844
611.7631, 2686.425
612.2452, 2691.289
612.7274, 2695.128
613.2095, 2695.992
613.6916, 2695.542
614.1737, 2696.314
614.6558, 2699.141
615.1379, 2702.871
615.6201, 2705.966
616.1022, 2708.370
616.5843, 2711.479
617.0664, 2715.060
617.5485, 2719.744
618.0306, 2727.603
618.5128, 2735.882
618.9949, 2741.002
619.4770, 2742.028
619.9591, 2742.083
620.4412, 2742.723
620.9233, 2743.579
621.4055, 2743.362
621.8876, 2742.263
622.3697, 2743.286
622.8518, 2748.559
623.3339, 2756.713
623.8160, 2763.735
624.2982, 2768.826
624.7803, 2774.040
625.2624, 2780.788
625.7445, 2786.404
626.2266, 2787.878
626.7087, 2786.942
627.1909, 2787.905
627.6730, 2793.228
628.1551, 2800.532
628.6372, 2806.274
629.1193, 2810.490
629.6014, 2811.792
630.0836, 2807.490
630.5657, 2804.460
631.0478, 2810.690
631.5299, 2822.433
632.0120, 2830.206
632.4941, 2829.264
632.9763, 2829.056
633.4584, 2836.154
633.9405, 2846.174
634.4226, 2851.772
634.9047, 2852.161
635.3868, 2852.992
635.8690, 2859.351
636.3511, 2870.157
636.8332, 2877.917
637.3153, 2881.652
637.7974, 2883.773
638.2795, 2882.152
638.7617, 2881.141
639.2438, 2884.144
639.7259, 2890.788
640.2080, 2898.371
640.6901, 2906.289
641.1722, 2913.344
641.6544, 2916.749
642.1365, 2916.988
642.6186, 2919.091
643.1007, 2924.885
643.5828, 2931.798
644.0649, 2937.181
644.5471, 2940.947
645.0292, 2944.368
645.5113, 2947.209
645.9934, 2949.990
646.4755, 2951.612
646.9576, 2953.907
647.4398, 2960.001
647.9219, 2969.975
648.4040, 2979.929
648.8861, 2985.504
649.3682, 2987.812
649.8503, 2994.805
650.3325, 3009.237
650.8146, 3020.550
651.2967, 3022.052
651.7788, 3021.680
652.2609, 3027.159
652.7430, 3038.302
653.2252, 3048.511
653.7073, 3054.541
654.1894, 3059.231
654.6715, 3064.758
655.1536, 3071.073
655.6357, 3077.936
656.1179, 3085.277
656.6000, 3092.950
657.0821, 3100.979
657.5642, 3109.645
658.0463, 3116.284
658.5284, 3118.350
659.0106, 3121.408
659.4927, 3125.562
659.9748, 3131.796
660.4569, 3141.898
660.9390, 3155.730
661.4211, 3170.009
661.9033, 3183.202
662.3854, 3194.724
662.8675, 3202.026
663.3496, 3205.137
663.8317, 3210.147
664.3138, 3219.772
664.7960, 3231.612
665.2781, 3242.346
665.7602, 3251.566
666.2423, 3261.831
666.7244, 3274.323
667.2065, 3286.621
667.6887, 3297.523
668.1708, 3307.639
668.6529, 3317.334
669.1350, 3326.952
669.6171, 3338.240
670.0992, 3353.870
670.5814, 3373.208
671.0635, 3390.046
671.5456, 3404.188
672.0277, 3416.388
672.5098, 3423.514
672.9919, 3431.575
673.4741, 3449.001
673.9562, 3476.156
674.4383, 3501.192
674.9204, 3518.855
675.4025, 3535.161
675.8846, 3556.900
676.3668, 3580.671
676.8489, 3598.406
677.3310, 3607.359
677.8131, 3611.762
678.2952, 3616.943
678.7773, 3623.062
679.2595, 3625.522
679.7416, 3623.077
680.2237, 3618.875
680.7058, 3615.526
681.1879, 3609.873
681.6700, 3598.070
682.1522, 3580.131
682.6343, 3561.129
683.1164, 3544.432
683.5985, 3527.775
684.0806, 3507.032
684.5627, 3483.598
685.0449, 3463.878
685.5270, 3450.118
686.0091, 3439.790
686.4912, 3430.152
686.9733, 3421.404
687.4554, 3411.045
687.9376, 3395.300
688.4197, 3382.529
688.9018, 3375.408
689.3839, 3371.284
689.8660, 3368.176
690.3481, 3365.500
690.8303, 3362.643
691.3124, 3358.450
691.7945, 3354.281
692.2766, 3352.663
692.7587, 3353.482
693.2408, 3355.868
693.7230, 3360.171
694.2051, 3363.783
694.6872, 3363.042
695.1693, 3357.602
695.6514, 3355.551
696.1335, 3357.447
696.6157, 3361.667
697.0978, 3370.535
697.5799, 3379.758
698.0620, 3384.936
698.5441, 3385.781
699.0262, 3384.984
699.5084, 3384.158
699.9905, 3383.412
700.4726, 3382.103
700.9547, 3380.126
701.4368, 3382.720
701.9189, 3392.738
702.4011, 3404.339
702.8832, 3412.677
703.3653, 3417.692
703.8474, 3420.039
704.3295, 3416.644
704.8116, 3414.500
705.2938, 3416.373
705.7759, 3419.953
706.2580, 3422.885
706.7401, 3425.088
707.2222, 3427.724
707.7043, 3431.434
708.1865, 3436.524
708.6686, 3444.953
709.1507, 3457.301
709.6328, 3464.903
710.1149, 3463.740
710.5970, 3462.526
711.0792, 3469.883
711.5613, 3482.336
712.0434, 3489.226
712.5255, 3485.736
713.0076, 3484.017
713.4897, 3489.276
713.9719, 3497.136
714.4540, 3504.984
714.9361, 3511.482
715.4182, 3513.456
715.9003, 3508.721
716.3824, 3502.531
716.8646, 3506.178
717.3467, 3520.881
717.8288, 3532.639
718.3109, 3541.835
718.7930, 3545.687
719.2751, 3536.760
719.7573, 3523.545
720.2394, 3520.868
720.7215, 3532.327
721.2036, 3543.884
721.6857, 3551.111
722.1678, 3556.250
722.6500, 3560.536
723.1321, 3564.466
723.6142, 3568.950
724.0963, 3574.322
724.5784, 3579.538
725.0605, 3582.775
725.5427, 3583.942
726.0248, 3586.710
726.5069, 3592.216
726.9890, 3596.726
727.4711, 3597.843
727.9532, 3597.784
728.4354, 3598.580
728.9175, 3600.268
729.3995, 3604.032
729.8817, 3612.316
730.3638, 3620.729
730.8459, 3625.606
731.3280, 3628.614
731.8101, 3632.726
732.2922, 3638.818
732.7744, 3646.681
733.2565, 3657.007
733.7386, 3668.652
734.2207, 3673.369
734.7028, 3669.003
735.1849, 3664.695
735.6671, 3661.418
736.1492, 3660.203
736.6313, 3662.505
737.1134, 3667.664
737.5955, 3672.778
738.0776, 3677.062
738.5598, 3681.421
739.0419, 3686.168
739.5240, 3691.258
740.0061, 3696.864
740.4882, 3702.782
740.9703, 3708.223
741.4525, 3712.600
741.9346, 3716.348
742.4167, 3720.790
742.8988, 3726.195
743.3809, 3729.741
743.8630, 3728.917
744.3452, 3730.025
744.8273, 3739.343
745.3094, 3752.639
745.7915, 3762.029
746.2736, 3766.341
746.7557, 3768.984
747.2379, 3768.632
747.7200, 3769.042
748.2021, 3774.415
748.6842, 3783.024
749.1663, 3790.545
749.6484, 3795.203
750.1306, 3798.200
750.6127, 3800.608
751.0948, 3802.529
751.5769, 3805.618
752.0590, 3809.973
752.5411, 3815.419
753.0233, 3823.833
753.5054, 3831.460
753.9875, 3831.738
754.4696, 3824.781
754.9517, 3821.776
755.4338, 3827.804
755.9160, 3833.846
756.3981, 3833.853
756.8802, 3832.784
757.3623, 3837.623
757.8444, 3848.629
758.3265, 3860.828
758.8087, 3871.246
759.2908, 3878.929
759.7729, 3880.327
760.2550, 3875.404
760.7371, 3872.997
761.2192, 3874.771
761.7014, 3879.179
762.1835, 3885.907
762.6656, 3894.226
763.1477, 3900.978
763.6298, 3904.973
764.1119, 3909.677
764.5941, 3917.740
765.0762, 3924.577
765.5583, 3925.759
766.0404, 3923.687
766.5225, 3922.865
767.0046, 3924.990
767.4868, 3930.323
767.9689, 3941.829
768.4510, 3956.473
768.9331, 3963.917
769.4152, 3963.708
769.8973, 3963.864
770.3795, 3967.647
770.8616, 3973.512
771.3437, 3979.400
771.8258, 3985.198
772.3079, 3991.537
772.7900, 3999.797
773.2722, 4006.751
773.7543, 4011.112
774.2364, 4014.315
774.7185, 4016.788
775.2006, 4019.194
775.6827, 4023.743
776.1649, 4033.257
776.6470, 4042.974
777.1291, 4045.985
777.6112, 4045.186
778.0933, 4049.105
778.5754, 4058.915
779.0576, 4068.092
779.5397, 4071.770
780.0218, 4071.997
780.5039, 4075.052
780.9860, 4082.195
781.4681, 4088.868
781.9503, 4096.150
782.4324, 4101.466
782.9145, 4101.126
783.3966, 4099.396
783.8787, 4103.008
784.3608, 4113.506
784.8430, 4123.740
785.3251, 4131.915
785.8072, 4137.116
786.2893, 4135.321
786.7714, 4130.417
787.2535, 4131.758
787.7357, 4141.787
788.2178, 4154.620
788.6999, 4164.644
789.1820, 4172.082
789.6641, 4177.392
790.1462, 4179.776
790.6284, 4183.991
791.1105, 4192.554
791.5926, 4201.058
792.0747, 4204.186
792.5568, 4203.886
793.0389, 4208.060
793.5211, 4219.714
794.0032, 4231.495
794.4853, 4243.339
794.9674, 4253.051
795.4495, 4257.824
795.9316, 4259.171
796.4138, 4260.244
796.8959, 4262.318
797.3780, 4266.202
797.8601, 4274.549
798.3422, 4285.383
798.8243, 4291.431
799.3065, 4292.411
799.7886, 4293.037
800.2707, 4295.315
800.7528, 4297.241
801.2349, 4295.099
801.7170, 4288.140
802.1992, 4289.612
802.6813, 4310.316
803.1634, 4325.359
803.6455, 4327.135
804.1276, 4325.792
804.6097, 4328.729
805.0919, 4335.717
805.5740, 4343.590
806.0561, 4352.060
806.5382, 4359.149
807.0203, 4361.577
807.5024, 4362.437
807.9846, 4367.960
808.4667, 4377.471
808.9488, 4383.699
809.4309, 4382.586
809.9130, 4380.254
810.3951, 4387.872
810.8773, 4406.331
811.3594, 4421.540
811.8415, 4432.677
812.3236, 4442.472
812.8057, 4450.804
813.2878, 4459.056
813.7700, 4471.183
814.2521, 4486.565
814.7342, 4493.383
815.2163, 4482.745
815.6984, 4472.325
816.1805, 4466.954
816.6627, 4466.223
817.1448, 4471.290
817.6269, 4480.625
818.1090, 4489.853
818.5911, 4496.636
819.0732, 4502.618
819.5554, 4510.382
820.0375, 4519.274
820.5196, 4526.342
821.0017, 4531.327
821.4838, 4536.937
821.9659, 4544.604
822.4481, 4553.271
822.9302, 4561.622
823.4123, 4570.077
823.8944, 4575.048
824.3765, 4571.895
824.8586, 4571.595
825.3408, 4579.882
825.8229, 4589.079
826.3050, 4591.181
826.7871, 4587.693
827.2692, 4588.092
827.7513, 4598.960
828.2335, 4609.122
828.7156, 4610.091
829.1977, 4607.361
829.6798, 4606.612
830.1619, 4609.188
830.6440, 4616.942
831.1262, 4630.954
831.6083, 4646.801
832.0904, 4658.127
832.5725, 4665.117
833.0546, 4669.565
833.5367, 4670.939
834.0189, 4673.257
834.5010, 4678.914
834.9831, 4684.470
835.4652, 4684.563
835.9473, 4678.817
836.4294, 4679.331
836.9116, 4690.304
837.3937, 4701.186
837.8758, 4709.184
838.3579, 4717.460
838.8400, 4731.542
839.3221, 4747.550
839.8043, 4754.167
840.2864, 4745.234
840.7685, 4736.491
841.2506, 4739.079
841.7327, 4749.749
842.2148, 4767.249
842.6970, 4788.838
843.1791, 4806.189
843.6612, 4816.304
844.1433, 4821.813
844.6254, 4825.341
845.1075, 4827.143
845.5897, 4828.775
846.0718, 4829.843
846.5539, 4833.091
847.0360, 4841.211
847.5181, 4847.907
848.0002, 4845.582
848.4824, 4837.310
848.9645, 4837.534
849.4466, 4852.467
849.9287, 4864.026
850.4108, 4868.767
850.8929, 4871.228
851.3751, 4871.312
851.8572, 4871.931
852.3393, 4878.491
852.8214, 4891.792
853.3035, 4903.837
853.7856, 4906.622
854.2678, 4906.914
854.7499, 4914.572
855.2320, 4926.579
855.7141, 4934.577
856.1962, 4937.013
856.6783, 4937.354
857.1605, 4937.980
857.6426, 4939.302
858.1247, 4942.434
858.6068, 4947.428
859.0889, 4953.792
859.5710, 4961.366
860.0532, 4970.723
860.5353, 4983.222
861.0174, 4996.820
861.4995, 5008.312
861.9816, 5017.832
862.4637, 5024.572
862.9459, 5027.244
863.4280, 5028.751
863.9101, 5027.534
864.3922, 5027.382
864.8743, 5032.144
865.3564, 5041.313
865.8386, 5052.120
866.3207, 5064.364
866.8028, 5074.970
867.2849, 5079.589
867.7670, 5081.835
868.2491, 5088.285
868.7313, 5098.109
869.2134, 5105.731
869.6955, 5108.905
870.1776, 5110.167
870.6597, 5111.936
871.1418, 5114.646
871.6239, 5122.568
872.1060, 5136.940
872.5881, 5147.641
873.0703, 5151.745
873.5524, 5152.800
874.0345, 5152.428
874.5166, 5151.585
874.9987, 5154.416
875.4808, 5163.539
875.9630, 5171.901
876.4451, 5180.186
876.9272, 5186.893
877.4093, 5190.365
877.8914, 5192.362
878.3735, 5194.571
878.8557, 5197.417
879.3378, 5202.033
879.8199, 5209.597
880.3020, 5218.454
880.7841, 5229.778
881.2662, 5240.269
881.7484, 5242.224
882.2305, 5237.403
882.7126, 5237.771
883.1947, 5250.681
883.6768, 5266.948
884.1589, 5270.902
884.6411, 5265.284
885.1232, 5265.782
885.6053, 5273.157
886.0874, 5282.675
886.5695, 5292.691
887.0516, 5304.059
887.5338, 5318.506
888.0159, 5335.688
888.4980, 5348.185
888.9801, 5354.308
889.4622, 5359.151
889.9443, 5364.750
890.4265, 5367.494
890.9086, 5361.015
891.3907, 5351.718
891.8728, 5352.532
892.3549, 5366.987
892.8370, 5379.720
893.3192, 5383.683
893.8013, 5387.795
894.2834, 5399.373
894.7655, 5412.858
895.2476, 5420.484
895.7297, 5421.945
896.2119, 5422.459
896.6940, 5424.275
897.1761, 5428.417
897.6582, 5438.562
898.1403, 5451.188
898.6224, 5457.161
899.1046, 5456.998
899.5867, 5458.235
900.0688, 5464.208
900.5509, 5474.120
901.0330, 5488.408
901.5151, 5505.803
901.9973, 5513.819
902.4794, 5510.572
902.9615, 5509.128
903.4436, 5512.222
903.9257, 5518.229
904.4078, 5527.692
904.8900, 5538.401
905.3721, 5542.589
905.8542, 5534.800
906.3363, 5532.530
906.8184, 5537.197
907.3005, 5545.382
907.7827, 5559.120
908.2648, 5573.654
908.7469, 5582.811
909.2290, 5587.004
909.7111, 5593.366
910.1932, 5608.600
910.6754, 5620.634
911.1575, 5618.614
911.6396, 5613.574
912.1217, 5616.967
912.6038, 5627.740
913.0859, 5641.065
913.5681, 5654.912
914.0502, 5666.152
914.5323, 5670.127
915.0144, 5670.140
915.4965, 5671.325
915.9786, 5674.267
916.4608, 5682.417
916.9429, 5696.197
917.4250, 5709.997
917.9071, 5719.575
918.3892, 5726.294
918.8713, 5733.182
919.3535, 5740.083
919.8356, 5749.144
920.3177, 5761.606
920.7998, 5771.980
921.2819, 5777.776
921.7640, 5780.962
922.2462, 5783.644
922.7283, 5785.824
923.2104, 5787.761
923.6925, 5787.234
924.1746, 5789.781
924.6567, 5797.228
925.1389, 5806.270
925.6210, 5817.170
926.1031, 5827.623
926.5852, 5832.618
927.0673, 5830.745
927.5494, 5832.856
928.0316, 5845.620
928.5137, 5860.190
928.9958, 5875.494
929.4779, 5886.941
929.9600, 5884.808
930.4421, 5873.042
930.9243, 5867.550
931.4064, 5876.288
931.8885, 5891.156
932.3706, 5907.550
932.8527, 5922.608
933.3348, 5929.301
933.8170, 5929.927
934.2991, 5933.897
934.7812, 5943.778
935.2633, 5954.155
935.7454, 5960.385
936.2275, 5963.210
936.7097, 5962.821
937.1918, 5959.448
937.6739, 5963.701
938.1560, 5977.596
938.6381, 5992.558
939.1202, 6005.101
939.6024, 6015.075
940.0845, 6022.005
940.5666, 6025.812
941.0487, 6029.130
941.5308, 6030.599
942.0129, 6034.435
942.4951, 6042.200
942.9772, 6051.375
943.4593, 6060.878
943.9414, 6070.400
944.4235, 6079.934
944.9056, 6090.426
945.3878, 6096.833
945.8699, 6094.373
946.3520, 6092.845
946.8341, 6096.485
947.3162, 6102.425
947.7983, 6108.376
948.2805, 6113.904
948.7626, 6118.167
949.2447, 6119.250
949.7268, 6124.258
950.2089, 6141.171
950.6910, 6160.600
951.1732, 6174.431
951.6553, 6183.466
952.1374, 6189.303
952.6195, 6192.928
953.1016, 6196.562
953.5837, 6201.866
954.0659, 6207.809
954.5480, 6212.582
955.0301, 6216.940
955.5122, 6222.861
955.9943, 6230.348
956.4764, 6238.776
956.9586, 6247.856
957.4407, 6255.497
957.9228, 6258.271
958.4049, 6258.172
958.8870, 6265.042
959.3691, 6279.075
959.8513, 6288.178
960.3334, 6289.387
960.8155, 6293.018
961.2976, 6306.608
961.7797, 6323.468
962.2618, 6330.467
962.7440, 6326.289
963.2261, 6324.673
963.7082, 6324.335
964.1903, 6329.983
964.6724, 6348.229
965.1545, 6365.209
965.6367, 6367.021
966.1188, 6359.431
966.6009, 6362.251
967.0830, 6381.341
967.5651, 6394.726
968.0472, 6396.297
968.5294, 6398.750
969.0115, 6406.694
969.4936, 6417.142
969.9757, 6429.547
970.4578, 6442.054
970.9399, 6447.662
971.4221, 6440.910
971.9042, 6436.157
972.3863, 6439.661
972.8684, 6446.166
973.3505, 6452.577
973.8326, 6459.187
974.3148, 6466.891
974.7969, 6475.741
975.2790, 6485.001
975.7611, 6494.447
976.2432, 6503.854
976.7253, 6514.143
977.2075, 6523.510
977.6896, 6529.397
978.1717, 6532.173
978.6538, 6531.548
979.1359, 6528.314
979.6180, 6529.728
980.1002, 6544.816
980.5823, 6564.608
981.0644, 6573.829
981.5465, 6574.808
982.0286, 6571.958
982.5107, 6567.470
982.9929, 6571.439
983.4750, 6588.688
983.9571, 6612.433
984.4392, 6636.000
984.9213, 6657.831
985.4034, 6670.042
985.8856, 6672.748
986.3677, 6671.389
986.8498, 6666.115
987.3319, 6664.781
987.8140, 6673.068
988.2961, 6684.620
988.7783, 6686.866
989.2604, 6679.188
989.7425, 6682.077
990.2246, 6697.986
990.7067, 6716.323
991.1888, 6737.480
991.6710, 6754.828
992.1531, 6762.970
992.6352, 6764.280
993.1173, 6764.073
993.5994, 6761.425
994.0815, 6760.791
994.5637, 6758.413
995.0458, 6763.880
995.5279, 6787.124
996.0100, 6811.959
996.4921, 6828.024
996.9742, 6836.081
997.4564, 6837.427
997.9385, 6828.195
998.4206, 6823.931
998.9027, 6828.312
999.3848, 6835.651
999.8669, 6846.480
1000.349, 6857.286
1000.831, 6864.979
1001.313, 6869.688
1001.795, 6872.381
1002.278, 6872.024
1002.760, 6873.490
1003.242, 6879.286
1003.724, 6886.582
1004.206, 6894.348
1004.688, 6901.993
1005.170, 6907.284
1005.652, 6911.462
1006.134, 6921.009
1006.617, 6941.223
1007.099, 6958.799
1007.581, 6960.660
1008.063, 6959.315
1008.545, 6966.967
1009.027, 6980.784
1009.509, 6995.341
1009.991, 7009.112
1010.474, 7022.271
1010.956, 7035.492
1011.438, 7046.116
1011.920, 7048.578
1012.402, 7048.384
1012.884, 7054.733
1013.366, 7065.868
1013.848, 7075.274
1014.330, 7081.503
1014.813, 7088.044
1015.295, 7097.642
1015.777, 7108.188
1016.259, 7115.418
1016.741, 7121.281
1017.223, 7132.462
1017.705, 7147.809
1018.187, 7158.944
1018.669, 7163.551
1019.152, 7168.836
1019.634, 7181.902
1020.116, 7197.552
1020.598, 7202.791
1021.080, 7199.737
1021.562, 7200.577
1022.044, 7206.231
1022.526, 7216.644
1023.008, 7231.991
1023.491, 7247.455
1023.973, 7257.969
1024.455, 7265.444
1024.937, 7277.374
1025.419, 7293.840
1025.901, 7299.675
1026.383, 7292.413
1026.865, 7290.694
1027.348, 7302.568
1027.830, 7318.071
1028.312, 7326.435
1028.794, 7329.758
1029.276, 7338.311
1029.758, 7353.410
1030.240, 7364.099
1030.722, 7367.799
1031.204, 7374.545
1031.687, 7389.492
1032.169, 7406.441
1032.651, 7419.201
1033.133, 7427.725
1033.615, 7431.286
1034.097, 7427.107
1034.579, 7426.652
1035.061, 7430.655
1035.544, 7438.288
1036.026, 7452.119
1036.508, 7465.376
1036.990, 7468.226
1037.472, 7463.405
1037.954, 7471.049
1038.436, 7500.886
1038.918, 7522.369
1039.401, 7531.170
1039.883, 7537.548
1040.365, 7545.866
1040.847, 7552.917
1041.329, 7553.033
1041.811, 7547.905
1042.293, 7550.231
1042.775, 7565.973
1043.257, 7578.717
1043.740, 7583.997
1044.222, 7591.854
1044.704, 7610.102
1045.186, 7629.069
1045.668, 7637.961
1046.150, 7638.556
1046.632, 7641.718
1047.114, 7649.301
1047.596, 7656.908
1048.079, 7664.191
1048.561, 7671.522
1049.043, 7679.613
1049.525, 7687.402
1050.007, 7691.931
1050.489, 7694.938
1050.971, 7704.227
1051.453, 7724.431
1051.936, 7741.825
1052.418, 7752.754
1052.900, 7762.203
1053.382, 7771.636
1053.864, 7781.006
1054.346, 7788.230
1054.828, 7795.148
1055.310, 7808.863
1055.792, 7833.593
1056.275, 7855.285
1056.757, 7869.410
1057.239, 7881.089
1057.721, 7892.186
1058.203, 7902.316
1058.685, 7912.066
1059.167, 7920.353
1059.649, 7922.694
1060.131, 7915.277
1060.614, 7915.623
1061.096, 7935.144
1061.578, 7956.360
1062.060, 7976.028
1062.542, 7989.482
1063.024, 7987.863
1063.506, 7977.529
1063.988, 7974.645
1064.471, 7983.486
1064.953, 7994.415
1065.435, 8007.779
1065.917, 8017.614
1066.399, 8016.845
1066.881, 8014.736
1067.363, 8020.143
1067.845, 8031.103
1068.328, 8042.899
1068.810, 8054.648
1069.292, 8061.310
1069.774, 8054.006
1070.256, 8049.927
1070.738, 8058.138
1071.220, 8072.654
1071.702, 8093.598
1072.184, 8114.657
1072.667, 8122.971
1073.149, 8116.655
1073.631, 8112.974
1074.113, 8118.341
1074.595, 8129.076
1075.077, 8149.661
1075.559, 8168.979
1076.041, 8177.440
1076.523, 8178.156
1077.006, 8173.757
1077.488, 8166.664
1077.970, 8169.596
1078.452, 8194.958
1078.934, 8218.925
1079.416, 8231.147
1079.898, 8236.577
1080.380, 8235.725
1080.863, 8232.467
1081.345, 8230.312
1081.827, 8230.566
1082.309, 8235.768
1082.791, 8247.854
1083.273, 8262.296
1083.755, 8279.705
1084.237, 8295.730
1084.719, 8305.173
1085.202, 8312.665
1085.684, 8326.229
1086.166, 8343.740
1086.648, 8353.771
1087.130, 8350.426
1087.612, 8348.646
1088.094, 8357.528
1088.576, 8366.992
1089.058, 8369.350
1089.541, 8370.322
1090.023, 8376.420
1090.505, 8386.813
1090.987, 8398.049
1091.469, 8409.815
1091.951, 8418.142
1092.433, 8417.852
1092.915, 8418.367
1093.397, 8424.720
1093.880, 8433.689
1094.362, 8440.648
1094.844, 8448.454
1095.326, 8464.684
1095.808, 8490.791
1096.290, 8514.903
1096.772, 8536.736
1097.254, 8550.854
1097.737, 8550.727
1098.219, 8546.544
1098.701, 8547.727
1099.183, 8548.808
1099.665, 8535.287
1100.147, 8508.563
1100.629, 8499.092
1101.111, 8528.851
1101.594, 8553.866
1102.076, 8554.561
1102.558, 8555.493
1103.040, 8572.532
1103.522, 8596.173
1104.004, 8616.706
1104.486, 8632.618
1104.968, 8642.736
1105.450, 8647.119
1105.932, 8644.960
1106.415, 8622.971
1106.897, 8610.936
1107.379, 8631.243
1107.861, 8657.670
1108.343, 8663.377
1108.825, 8656.061
1109.307, 8660.949
1109.789, 8683.562
1110.272, 8704.119
1110.754, 8722.674
1111.236, 8735.730
1111.718, 8736.428
1112.200, 8737.448
1112.682, 8751.771
1113.164, 8770.160
1113.646, 8774.084
1114.129, 8761.616
1114.611, 8755.034
1115.093, 8754.866
1115.575, 8760.973
1116.057, 8777.588
1116.539, 8795.149
1117.021, 8810.554
1117.503, 8823.975
1117.985, 8836.424
1118.468, 8847.387
1118.950, 8852.358
1119.432, 8847.244
1119.914, 8844.323
1120.396, 8840.516
1120.878, 8845.061
1121.360, 8865.516
1121.842, 8888.808
1122.324, 8903.921
1122.807, 8913.021
1123.289, 8922.834
1123.771, 8934.272
1124.253, 8941.460
1124.735, 8942.770
1125.217, 8944.804
1125.699, 8948.968
1126.181, 8953.410
1126.664, 8954.730
1127.146, 8960.166
1127.628, 8984.451
1128.110, 9025.936
1128.592, 9050.781
1129.074, 9056.401
1129.556, 9060.637
1130.038, 9064.811
1130.521, 9071.341
1131.003, 9081.661
1131.485, 9092.477
1131.967, 9099.617
1132.449, 9105.233
1132.931, 9118.949
1133.413, 9140.539
1133.895, 9152.294
1134.377, 9153.303
1134.859, 9157.223
1135.342, 9168.025
1135.824, 9179.071
1136.306, 9185.315
1136.788, 9190.584
1137.270, 9204.495
1137.752, 9223.462
1138.234, 9227.136
1138.716, 9218.596
1139.199, 9214.740
1139.681, 9218.758
1140.163, 9232.110
1140.645, 9255.361
1141.127, 9278.696
1141.609, 9290.235
1142.091, 9296.631
1142.573, 9313.039
1143.056, 9333.896
1143.538, 9344.228
1144.020, 9345.904
1144.502, 9349.474
1144.984, 9358.242
1145.466, 9372.292
1145.948, 9393.658
1146.430, 9411.709
1146.912, 9408.813
1147.395, 9400.008
1147.877, 9405.952
1148.359, 9421.525
1148.841, 9436.771
1149.323, 9450.002
1149.805, 9463.248
1150.287, 9477.379
1150.769, 9489.287
1151.251, 9494.714
1151.734, 9499.775
1152.216, 9510.598
1152.698, 9522.418
1153.180, 9528.486
1153.662, 9532.354
1154.144, 9544.038
1154.626, 9563.581
1155.108, 9574.636
1155.591, 9562.189
1156.073, 9557.707
1156.555, 9581.974
1157.037, 9607.893
1157.519, 9618.115
1158.001, 9622.345
1158.483, 9633.667
1158.965, 9649.061
1159.448, 9653.525
1159.930, 9638.948
1160.412, 9639.533
1160.894, 9676.569
1161.376, 9705.212
1161.858, 9706.489
1162.340, 9706.002
1162.822, 9722.189
1163.304, 9744.434
1163.786, 9756.819
1164.269, 9759.790
1164.751, 9764.120
1165.233, 9769.580
1165.715, 9777.167
1166.197, 9787.274
1166.679, 9799.064
1167.161, 9813.381
1167.643, 9826.525
1168.126, 9834.115
1168.608, 9839.786
1169.090, 9854.486
1169.572, 9879.056
1170.054, 9891.164
1170.536, 9889.190
1171.018, 9892.673
1171.500, 9905.523
1171.983, 9917.804
1172.465, 9924.314
1172.947, 9928.656
1173.429, 9934.826
1173.911, 9942.689
1174.393, 9950.793
1174.875, 9960.104
1175.357, 9978.619
1175.839, 10003.87
1176.322, 10017.85
1176.804, 10017.02
1177.286, 10016.31
1177.768, 10025.38
1178.250, 10038.53
1178.732, 10049.34
1179.214, 10059.22
1179.696, 10071.46
1180.178, 10083.83
1180.661, 10087.87
1181.143, 10088.38
1181.625, 10105.81
1182.107, 10143.99
1182.589, 10171.62
1183.071, 10162.07
1183.553, 10149.88
1184.035, 10163.02
1184.518, 10181.05
1185.000, 10183.16
1185.482, 10180.67
1185.964, 10193.00
1186.446, 10217.06
1186.928, 10232.38
1187.410, 10231.65
1187.892, 10236.14
1188.375, 10256.14
1188.857, 10276.21
1189.339, 10295.43
1189.821, 10308.76
1190.303, 10309.76
1190.785, 10304.52
1191.267, 10299.99
1191.749, 10296.87
1192.231, 10303.42
1192.714, 10323.50
1193.196, 10345.32
1193.678, 10372.21
1194.160, 10392.48
1194.642, 10401.09
1195.124, 10405.81
1195.606, 10411.78
1196.088, 10418.81
1196.570, 10426.57
1197.053, 10435.08
1197.535, 10444.55
1198.017, 10455.02
1198.499, 10464.98
1198.981, 10474.22
1199.463, 10483.95
1199.945, 10494.60
1200.427, 10509.79
1200.910, 10534.01
1201.392, 10559.72
1201.874, 10572.48
1202.356, 10576.79
1202.838, 10583.20
1203.320, 10591.33
1203.802, 10598.40
1204.284, 10604.79
1204.766, 10613.84
1205.249, 10626.80
1205.731, 10642.01
1206.213, 10660.76
1206.695, 10677.50
1207.177, 10690.00
1207.659, 10695.81
1208.141, 10687.71
1208.623, 10674.06
1209.105, 10665.99
1209.588, 10665.06
1210.070, 10668.75
1210.552, 10676.02
1211.034, 10690.22
1211.516, 10724.90
1211.998, 10749.42
1212.480, 10742.95
1212.962, 10734.69
1213.445, 10744.69
1213.927, 10763.96
1214.409, 10779.35
1214.891, 10791.23
1215.373, 10803.01
1215.855, 10815.02
1216.337, 10825.03
1216.819, 10830.69
1217.302, 10842.35
1217.784, 10865.43
1218.266, 10883.54
1218.748, 10884.63
1219.230, 10878.55
1219.712, 10880.07
1220.194, 10888.03
1220.676, 10898.71
1221.158, 10911.50
1221.641, 10922.06
1222.123, 10929.95
1222.605, 10933.33
1223.087, 10932.59
1223.569, 10935.16
1224.051, 10946.28
1224.533, 10958.32
1225.015, 10957.79
1225.497, 10957.22
1225.979, 10975.83
1226.462, 11003.79
1226.944, 11028.36
1227.426, 11048.23
1227.908, 11063.63
1228.390, 11075.36
1228.872, 11088.74
1229.354, 11107.26
1229.836, 11124.04
1230.319, 11135.88
1230.801, 11145.41
1231.283, 11154.67
1231.765, 11161.24
1232.247, 11157.95
1232.729, 11152.21
1233.211, 11161.56
1233.693, 11186.42
1234.176, 11206.80
1234.658, 11222.25
1235.140, 11234.71
1235.622, 11244.79
1236.104, 11249.59
1236.586, 11245.43
1237.068, 11246.41
1237.550, 11264.53
1238.032, 11290.59
1238.515, 11307.82
1238.997, 11317.73
1239.479, 11327.42
1239.961, 11336.77
1240.443, 11346.15
1240.925, 11354.57
1241.407, 11354.30
1241.889, 11344.69
1242.371, 11340.64
1242.854, 11352.14
1243.336, 11371.05
1243.818, 11394.88
1244.300, 11415.68
1244.782, 11420.02
1245.264, 11419.65
1245.746, 11429.05
1246.228, 11446.84
1246.711, 11469.82
1247.193, 11495.57
1247.675, 11510.38
1248.157, 11500.57
1248.639, 11500.53
1249.121, 11528.62
1249.603, 11553.59
1250.085, 11560.05
1250.568, 11563.82
1251.050, 11575.22
1251.532, 11590.88
1252.014, 11606.24
1252.496, 11620.80
1252.978, 11627.39
1253.460, 11623.32
1253.942, 11632.16
1254.424, 11656.50
1254.906, 11674.46
1255.389, 11680.14
1255.871, 11685.01
1256.353, 11696.25
1256.835, 11710.15
1257.317, 11722.32
1257.799, 11733.28
1258.281, 11744.24
1258.763, 11754.46
1259.246, 11760.53
1259.728, 11765.09
1260.210, 11775.06
1260.692, 11790.61
1261.174, 11805.81
1261.656, 11818.04
1262.138, 11832.29
1262.620, 11858.90
1263.103, 11877.72
1263.585, 11869.91
1264.067, 11861.05
1264.549, 11866.75
1265.031, 11883.54
1265.513, 11910.58
1265.995, 11943.87
1266.477, 11967.85
1266.959, 11981.85
1267.442, 11988.82
1267.924, 11985.36
1268.406, 11988.54
1268.888, 12003.00
1269.370, 12011.43
1269.852, 12004.53
1270.334, 12003.66
1270.816, 12031.46
1271.298, 12070.96
1271.781, 12087.43
1272.263, 12088.25
1272.745, 12089.73
1273.227, 12094.83
1273.709, 12113.53
1274.191, 12142.02
1274.673, 12165.86
1275.155, 12180.57
1275.638, 12189.39
1276.120, 12192.39
1276.602, 12194.32
1277.084, 12193.59
1277.566, 12197.99
1278.048, 12214.10
1278.530, 12235.63
1279.012, 12260.16
1279.495, 12284.58
##END=



