##NAMES=Richterite
##RRUFFID=R050414
##IDEAL CHEMISTRY=Na(CaNa)Mg_5_Si_8_O_22_(OH)_2_
##LOCALITY=Kokcha Valley, Badakhshan, Afghanistan
##OWNER=RRUFF
##SOURCE=Marcus Origlieri
##DESCRIPTION=Transparent pale yellowish-green bladed crystal
##STATUS=The identification of this mineral has been confirmed by X-ray diffraction and chemical analysis
##URL=rruff.info/R050414
##MEASURED CHEMISTRY=(Na_0.67_K_0.33_)_Σ=1_(Ca_1.19_Na_0.81_)_Σ=2_Mg_5.00_(Si_7.80_Al_0.19_Ti_0.01_)_Σ=8_O_22_((OH)_1.58_F_0.42_)_Σ=2_
91.87140, 0.0000000E+00
92.35352, 65.42002
92.83563, 63.31905
93.31775, 62.42567
93.79987, 63.25451
94.28198, 65.35943
94.76410, 67.31054
95.24622, 68.37717
95.72833, 69.59678
96.21045, 73.47667
96.69257, 80.14859
97.17468, 87.60432
97.65680, 94.28574
98.13892, 100.2253
98.62103, 105.2508
99.10315, 108.4350
99.58527, 110.3918
100.0674, 115.4953
100.5495, 124.3083
101.0316, 134.9408
101.5137, 144.6462
101.9958, 152.7534
102.4780, 162.5262
102.9601, 175.0682
103.4422, 190.6599
103.9243, 207.1214
104.4064, 224.6098
104.8885, 242.9528
105.3707, 262.4000
105.8528, 283.4920
106.3349, 304.6853
106.8170, 324.9430
107.2991, 341.9360
107.7813, 362.5115
108.2634, 389.0394
108.7455, 419.6108
109.2276, 446.8448
109.7097, 468.9297
110.1918, 489.2122
110.6740, 509.1076
111.1561, 528.6948
111.6382, 547.8463
112.1203, 566.4144
112.6024, 584.5920
113.0845, 602.4849
113.5667, 619.8635
114.0488, 637.0344
114.5309, 654.4048
115.0130, 672.0496
115.4951, 689.7327
115.9772, 707.1583
116.4594, 724.5056
116.9415, 742.7022
117.4236, 761.9250
117.9057, 782.2508
118.3878, 803.6677
118.8699, 827.3939
119.3521, 851.5501
119.8342, 875.6675
120.3163, 899.7876
120.7984, 922.9775
121.2805, 944.4424
121.7626, 964.6058
122.2448, 984.1925
122.7269, 1004.189
123.2090, 1023.460
123.6911, 1041.204
124.1732, 1057.560
124.6553, 1071.456
125.1375, 1081.219
125.6196, 1087.511
126.1017, 1092.436
126.5838, 1095.403
127.0659, 1098.115
127.5480, 1104.203
128.0302, 1115.295
128.5123, 1127.642
128.9944, 1134.872
129.4765, 1137.609
129.9586, 1141.703
130.4407, 1152.219
130.9229, 1167.880
131.4050, 1183.548
131.8871, 1197.651
132.3692, 1211.318
132.8513, 1226.835
133.3334, 1242.320
133.8156, 1253.232
134.2977, 1260.210
134.7798, 1267.626
135.2619, 1275.830
135.7440, 1285.371
136.2261, 1295.706
136.7083, 1304.859
137.1904, 1312.665
137.6725, 1320.107
138.1546, 1328.397
138.6367, 1337.787
139.1188, 1346.927
139.6010, 1355.465
140.0831, 1363.376
140.5652, 1372.498
141.0473, 1384.926
141.5294, 1395.918
142.0115, 1397.770
142.4937, 1385.409
142.9758, 1375.933
143.4579, 1375.262
143.9400, 1385.867
144.4221, 1392.535
144.9042, 1392.516
145.3864, 1390.108
145.8685, 1392.963
146.3506, 1405.122
146.8327, 1416.947
147.3148, 1425.078
147.7969, 1426.733
148.2791, 1430.882
148.7612, 1438.519
149.2433, 1448.495
149.7254, 1458.334
150.2075, 1466.992
150.6896, 1476.390
151.1718, 1487.069
151.6539, 1498.048
152.1360, 1511.718
152.6181, 1530.122
153.1002, 1551.555
153.5823, 1570.823
154.0645, 1585.404
154.5466, 1599.526
155.0287, 1615.070
155.5108, 1631.927
155.9929, 1650.830
156.4750, 1673.334
156.9572, 1698.393
157.4393, 1721.287
157.9214, 1739.596
158.4035, 1756.519
158.8856, 1774.104
159.3677, 1800.609
159.8499, 1820.129
160.3320, 1827.611
160.8141, 1824.002
161.2962, 1814.111
161.7783, 1795.856
162.2604, 1773.885
162.7426, 1752.030
163.2247, 1729.952
163.7068, 1709.510
164.1889, 1690.669
164.6710, 1673.733
165.1531, 1660.638
165.6353, 1654.556
166.1174, 1652.064
166.5995, 1649.478
167.0816, 1643.773
167.5637, 1638.779
168.0458, 1637.001
168.5280, 1638.475
169.0101, 1641.619
169.4922, 1645.712
169.9743, 1650.758
170.4564, 1656.754
170.9385, 1663.468
171.4207, 1671.256
171.9028, 1681.045
172.3849, 1692.923
172.8670, 1704.589
173.3491, 1713.994
173.8312, 1722.014
174.3134, 1730.358
174.7955, 1740.339
175.2776, 1750.752
175.7597, 1759.869
176.2418, 1767.543
176.7239, 1775.137
177.2061, 1785.072
177.6882, 1796.326
178.1703, 1805.922
178.6524, 1811.497
179.1345, 1814.853
179.6166, 1819.257
180.0988, 1825.241
180.5809, 1830.660
181.0630, 1834.155
181.5451, 1835.409
182.0272, 1832.995
182.5093, 1823.748
182.9915, 1810.350
183.4736, 1799.546
183.9557, 1791.943
184.4378, 1785.983
184.9199, 1778.896
185.4020, 1771.149
185.8842, 1765.212
186.3663, 1763.754
186.8484, 1765.492
187.3305, 1765.603
187.8126, 1763.338
188.2947, 1760.411
188.7769, 1759.028
189.2590, 1759.205
189.7411, 1761.267
190.2232, 1765.643
190.7053, 1772.188
191.1874, 1780.290
191.6696, 1790.416
192.1517, 1801.290
192.6338, 1810.532
193.1159, 1818.100
193.5980, 1825.347
194.0801, 1833.033
194.5623, 1841.090
195.0444, 1848.881
195.5265, 1855.792
196.0086, 1863.078
196.4907, 1873.775
196.9728, 1888.156
197.4550, 1903.516
197.9371, 1918.643
198.4192, 1933.546
198.9013, 1947.182
199.3834, 1958.901
199.8655, 1969.814
200.3477, 1983.034
200.8298, 1998.892
201.3119, 2015.474
201.7940, 2031.982
202.2761, 2048.455
202.7582, 2064.294
203.2404, 2078.857
203.7225, 2093.215
204.2046, 2110.786
204.6867, 2132.374
205.1688, 2154.559
205.6509, 2174.974
206.1331, 2193.478
206.6152, 2212.015
207.0973, 2231.100
207.5794, 2250.156
208.0615, 2267.251
208.5436, 2281.995
209.0258, 2295.876
209.5079, 2309.970
209.9900, 2324.677
210.4721, 2337.174
210.9542, 2346.265
211.4363, 2353.292
211.9185, 2363.202
212.4006, 2377.274
212.8827, 2391.501
213.3648, 2402.322
213.8469, 2407.845
214.3290, 2417.420
214.8112, 2432.717
215.2933, 2452.276
215.7754, 2471.134
216.2575, 2487.917
216.7396, 2506.630
217.2217, 2530.219
217.7039, 2560.792
218.1860, 2589.421
218.6681, 2614.630
219.1502, 2637.445
219.6323, 2661.231
220.1144, 2685.911
220.5966, 2711.386
221.0787, 2737.389
221.5608, 2763.793
222.0429, 2790.884
222.5250, 2818.117
223.0071, 2846.117
223.4893, 2876.320
223.9714, 2910.433
224.4535, 2944.552
224.9356, 2976.720
225.4177, 3005.208
225.8998, 3035.783
226.3820, 3070.125
226.8641, 3106.708
227.3462, 3139.477
227.8283, 3169.104
228.3104, 3193.840
228.7925, 3212.405
229.2747, 3224.364
229.7568, 3231.644
230.2389, 3235.413
230.7210, 3234.433
231.2031, 3224.832
231.6852, 3206.572
232.1674, 3179.814
232.6495, 3143.684
233.1316, 3093.246
233.6137, 3044.587
234.0958, 2999.648
234.5779, 2956.931
235.0601, 2912.825
235.5422, 2865.755
236.0243, 2818.874
236.5064, 2773.248
236.9885, 2728.273
237.4706, 2685.882
237.9528, 2646.398
238.4349, 2609.920
238.9170, 2576.961
239.3991, 2546.609
239.8812, 2521.124
240.3633, 2501.853
240.8455, 2490.769
241.3276, 2481.068
241.8097, 2472.887
242.2918, 2466.166
242.7739, 2461.198
243.2560, 2459.723
243.7382, 2457.334
244.2203, 2452.494
244.7024, 2445.136
245.1845, 2435.391
245.6666, 2422.277
246.1487, 2407.278
246.6309, 2393.229
247.1130, 2381.894
247.5951, 2368.540
248.0772, 2351.373
248.5593, 2329.309
249.0414, 2306.911
249.5236, 2283.475
250.0057, 2260.161
250.4878, 2238.096
250.9699, 2215.923
251.4520, 2197.418
251.9341, 2185.091
252.4163, 2180.853
252.8984, 2172.514
253.3805, 2157.230
253.8626, 2139.934
254.3447, 2128.564
254.8268, 2125.497
255.3090, 2123.106
255.7911, 2118.860
256.2732, 2112.173
256.7553, 2108.787
257.2374, 2110.644
257.7195, 2113.891
258.2017, 2113.631
258.6838, 2108.495
259.1659, 2103.019
259.6480, 2098.516
260.1301, 2095.131
260.6122, 2089.754
261.0944, 2081.076
261.5765, 2072.006
262.0586, 2065.852
262.5407, 2063.767
263.0228, 2061.478
263.5049, 2058.057
263.9871, 2053.535
264.4692, 2049.250
264.9513, 2045.226
265.4334, 2041.359
265.9155, 2037.478
266.3976, 2033.642
266.8798, 2029.688
267.3619, 2025.039
267.8440, 2020.053
268.3261, 2018.389
268.8082, 2021.141
269.2903, 2024.898
269.7725, 2027.146
270.2546, 2027.826
270.7367, 2027.025
271.2188, 2024.239
271.7009, 2020.060
272.1830, 2016.943
272.6652, 2015.049
273.1473, 2013.813
273.6294, 2012.150
274.1115, 2009.410
274.5936, 2010.873
275.0757, 2018.388
275.5579, 2029.490
276.0400, 2036.678
276.5221, 2039.221
277.0042, 2040.741
277.4863, 2043.613
277.9684, 2048.030
278.4506, 2050.760
278.9327, 2051.116
279.4148, 2050.282
279.8969, 2050.650
280.3790, 2052.294
280.8611, 2054.716
281.3433, 2057.665
281.8254, 2061.170
282.3075, 2065.500
282.7896, 2070.797
283.2717, 2076.719
283.7538, 2083.048
284.2360, 2089.836
284.7181, 2095.962
285.2002, 2100.238
285.6823, 2103.030
286.1644, 2108.316
286.6465, 2116.726
287.1287, 2125.122
287.6108, 2128.245
288.0929, 2126.441
288.5750, 2126.404
289.0571, 2131.898
289.5392, 2141.185
290.0214, 2146.847
290.5035, 2148.526
290.9856, 2149.425
291.4677, 2153.471
291.9498, 2160.057
292.4319, 2165.291
292.9141, 2168.103
293.3962, 2168.824
293.8783, 2167.074
294.3604, 2162.824
294.8425, 2159.694
295.3246, 2161.714
295.8068, 2167.589
296.2889, 2172.654
296.7710, 2174.976
297.2531, 2177.047
297.7352, 2184.092
298.2173, 2195.491
298.6995, 2206.234
299.1816, 2211.603
299.6637, 2213.705
300.1458, 2217.094
300.6279, 2223.226
301.1100, 2229.483
301.5922, 2231.669
302.0743, 2230.724
302.5564, 2230.542
303.0385, 2233.061
303.5206, 2237.814
304.0027, 2244.973
304.4849, 2255.191
304.9670, 2264.820
305.4491, 2269.225
305.9312, 2270.163
306.4133, 2271.854
306.8954, 2277.716
307.3776, 2284.715
307.8597, 2289.537
308.3418, 2291.900
308.8239, 2293.851
309.3060, 2296.539
309.7881, 2299.949
310.2703, 2303.944
310.7524, 2307.889
311.2345, 2312.892
311.7166, 2320.939
312.1987, 2331.854
312.6808, 2340.843
313.1630, 2342.593
313.6451, 2342.022
314.1272, 2344.467
314.6093, 2355.474
315.0914, 2366.202
315.5735, 2370.365
316.0557, 2369.496
316.5378, 2371.818
317.0199, 2384.823
317.5020, 2399.990
317.9841, 2410.972
318.4662, 2412.463
318.9484, 2415.126
319.4305, 2423.251
319.9126, 2435.279
320.3947, 2447.103
320.8768, 2459.834
321.3589, 2470.342
321.8411, 2476.156
322.3232, 2473.664
322.8053, 2474.493
323.2874, 2482.306
323.7695, 2494.500
324.2516, 2506.953
324.7338, 2519.647
325.2159, 2531.927
325.6980, 2543.710
326.1801, 2555.162
326.6622, 2565.459
327.1443, 2573.121
327.6265, 2580.300
328.1086, 2589.216
328.5907, 2601.845
329.0728, 2613.939
329.5549, 2624.373
330.0370, 2633.172
330.5192, 2643.567
331.0013, 2658.170
331.4834, 2672.258
331.9655, 2682.593
332.4476, 2687.041
332.9297, 2691.343
333.4119, 2695.545
333.8940, 2699.877
334.3761, 2705.523
334.8582, 2713.080
335.3403, 2720.738
335.8224, 2727.822
336.3046, 2734.917
336.7867, 2739.538
337.2688, 2741.262
337.7509, 2740.779
338.2330, 2739.601
338.7151, 2737.988
339.1973, 2734.846
339.6794, 2728.841
340.1615, 2719.779
340.6436, 2714.410
341.1257, 2714.269
341.6078, 2714.731
342.0900, 2708.745
342.5721, 2695.856
343.0542, 2684.712
343.5363, 2678.290
344.0184, 2675.737
344.5005, 2673.256
344.9827, 2670.829
345.4648, 2668.852
345.9469, 2668.303
346.4290, 2668.850
346.9111, 2667.605
347.3932, 2662.778
347.8754, 2657.440
348.3575, 2659.198
348.8396, 2667.334
349.3217, 2674.259
349.8038, 2672.551
350.2859, 2665.813
350.7681, 2663.080
351.2502, 2665.815
351.7323, 2670.928
352.2144, 2675.078
352.6965, 2678.737
353.1786, 2683.217
353.6608, 2689.929
354.1429, 2697.542
354.6250, 2704.781
355.1071, 2711.654
355.5892, 2717.413
356.0714, 2718.521
356.5535, 2718.827
357.0356, 2724.089
357.5177, 2742.640
357.9998, 2761.728
358.4819, 2770.160
358.9641, 2769.809
359.4462, 2770.865
359.9283, 2779.043
360.4104, 2790.679
360.8925, 2802.696
361.3746, 2813.871
361.8568, 2826.184
362.3389, 2842.136
362.8210, 2859.751
363.3031, 2874.941
363.7852, 2883.884
364.2673, 2892.091
364.7495, 2902.568
365.2316, 2916.745
365.7137, 2929.088
366.1958, 2935.830
366.6779, 2940.991
367.1600, 2949.356
367.6422, 2966.706
368.1243, 2981.883
368.6064, 2992.304
369.0885, 2997.768
369.5706, 3002.163
370.0527, 3004.102
370.5349, 3006.109
371.0170, 3009.885
371.4991, 3016.091
371.9812, 3023.045
372.4633, 3031.618
372.9454, 3040.891
373.4276, 3047.268
373.9097, 3049.700
374.3918, 3051.223
374.8739, 3053.171
375.3560, 3055.775
375.8381, 3057.626
376.3203, 3057.975
376.8024, 3058.488
377.2845, 3062.046
377.7666, 3069.085
378.2487, 3076.414
378.7308, 3082.045
379.2130, 3086.780
379.6951, 3096.541
380.1772, 3112.199
380.6593, 3128.714
381.1414, 3141.380
381.6235, 3150.490
382.1057, 3159.688
382.5878, 3169.254
383.0699, 3179.805
383.5520, 3192.888
384.0341, 3208.432
384.5162, 3224.424
384.9984, 3239.037
385.4805, 3253.404
385.9626, 3270.411
386.4447, 3290.633
386.9268, 3311.887
387.4089, 3331.326
387.8911, 3350.139
388.3732, 3370.575
388.8553, 3396.761
389.3374, 3423.107
389.8195, 3442.602
390.3016, 3455.394
390.7838, 3469.141
391.2659, 3488.822
391.7480, 3511.633
392.2301, 3534.801
392.7122, 3558.371
393.1943, 3581.104
393.6765, 3604.411
394.1586, 3626.694
394.6407, 3642.955
395.1228, 3645.767
395.6049, 3646.917
396.0870, 3654.107
396.5692, 3672.645
397.0513, 3682.525
397.5334, 3675.766
398.0155, 3659.615
398.4976, 3643.273
398.9797, 3627.996
399.4619, 3612.041
399.9440, 3595.628
400.4261, 3578.719
400.9082, 3558.823
401.3903, 3536.092
401.8724, 3510.121
402.3546, 3479.444
402.8367, 3438.628
403.3188, 3406.104
403.8009, 3386.241
404.2830, 3373.816
404.7651, 3354.422
405.2473, 3324.863
405.7294, 3298.109
406.2115, 3280.999
406.6936, 3274.073
407.1757, 3262.501
407.6578, 3245.187
408.1400, 3226.168
408.6221, 3208.493
409.1042, 3192.239
409.5863, 3181.321
410.0684, 3179.014
410.5505, 3180.959
411.0327, 3175.230
411.5148, 3162.074
411.9969, 3149.985
412.4790, 3145.733
412.9611, 3146.921
413.4432, 3148.110
413.9254, 3148.705
414.4075, 3148.836
414.8896, 3147.740
415.3717, 3146.245
415.8538, 3146.324
416.3359, 3151.530
416.8181, 3157.042
417.3002, 3156.990
417.7823, 3151.511
418.2644, 3148.060
418.7465, 3152.295
419.2286, 3159.922
419.7108, 3166.793
420.1929, 3172.040
420.6750, 3176.111
421.1571, 3178.735
421.6392, 3180.269
422.1213, 3181.598
422.6035, 3182.954
423.0856, 3184.152
423.5677, 3185.144
424.0498, 3185.939
424.5319, 3186.566
425.0140, 3188.350
425.4962, 3189.427
425.9783, 3187.781
426.4604, 3180.526
426.9425, 3174.843
427.4246, 3171.496
427.9067, 3170.498
428.3889, 3172.218
428.8710, 3177.513
429.3531, 3184.003
429.8352, 3191.056
430.3173, 3199.193
430.7994, 3204.476
431.2816, 3206.431
431.7637, 3205.996
432.2458, 3204.238
432.7279, 3201.050
433.2100, 3197.580
433.6921, 3193.598
434.1743, 3189.671
434.6564, 3188.416
435.1385, 3189.860
435.6206, 3191.994
436.1027, 3193.374
436.5848, 3194.116
437.0670, 3194.463
437.5491, 3194.375
438.0312, 3194.217
438.5133, 3194.300
438.9954, 3194.677
439.4775, 3195.429
439.9597, 3197.117
440.4418, 3198.950
440.9239, 3200.057
441.4060, 3200.415
441.8881, 3201.068
442.3702, 3202.262
442.8524, 3204.207
443.3345, 3207.119
443.8166, 3211.435
444.2987, 3216.231
444.7808, 3221.658
445.2629, 3227.359
445.7451, 3232.385
446.2272, 3236.801
446.7093, 3240.088
447.1914, 3241.542
447.6735, 3240.018
448.1556, 3240.233
448.6378, 3240.958
449.1199, 3244.209
449.6020, 3252.981
450.0841, 3271.927
450.5662, 3286.138
451.0483, 3292.124
451.5305, 3291.753
452.0126, 3292.901
452.4947, 3295.505
452.9768, 3299.858
453.4589, 3307.033
453.9410, 3317.181
454.4232, 3324.869
454.9053, 3329.643
455.3874, 3333.280
455.8695, 3338.055
456.3516, 3343.837
456.8337, 3349.688
457.3159, 3355.957
457.7980, 3361.648
458.2801, 3364.123
458.7622, 3363.873
459.2443, 3364.357
459.7264, 3367.925
460.2086, 3373.711
460.6907, 3381.186
461.1728, 3390.868
461.6549, 3399.575
462.1370, 3403.466
462.6191, 3405.175
463.1013, 3408.449
463.5834, 3415.837
464.0655, 3424.010
464.5476, 3431.423
465.0297, 3438.119
465.5118, 3445.245
465.9940, 3453.884
466.4761, 3462.245
466.9582, 3469.213
467.4403, 3473.726
467.9224, 3478.684
468.4045, 3485.659
468.8867, 3492.436
469.3688, 3495.326
469.8509, 3490.048
470.3330, 3488.712
470.8151, 3494.861
471.2972, 3507.816
471.7794, 3520.712
472.2615, 3534.269
472.7436, 3546.255
473.2257, 3554.742
473.7078, 3559.714
474.1899, 3564.150
474.6721, 3568.008
475.1542, 3572.164
475.6363, 3578.093
476.1184, 3585.585
476.6005, 3593.454
477.0826, 3602.495
477.5648, 3610.834
478.0469, 3614.270
478.5290, 3613.355
479.0111, 3613.125
479.4932, 3617.653
479.9753, 3624.640
480.4575, 3631.569
480.9396, 3638.131
481.4217, 3644.210
481.9038, 3650.636
482.3859, 3656.241
482.8680, 3659.190
483.3502, 3654.777
483.8323, 3651.542
484.3144, 3652.750
484.7965, 3658.241
485.2786, 3664.780
485.7607, 3673.894
486.2429, 3682.216
486.7250, 3688.082
487.2071, 3690.716
487.6892, 3692.321
488.1713, 3692.389
488.6534, 3691.836
489.1356, 3691.258
489.6177, 3689.125
490.0998, 3692.366
490.5819, 3705.349
491.0640, 3725.018
491.5461, 3734.019
492.0283, 3731.234
492.5104, 3727.018
492.9925, 3727.563
493.4746, 3732.624
493.9567, 3741.755
494.4388, 3755.759
494.9210, 3769.757
495.4031, 3777.366
495.8852, 3780.567
496.3673, 3784.527
496.8494, 3789.746
497.3315, 3797.689
497.8137, 3811.997
498.2958, 3831.010
498.7779, 3847.475
499.2600, 3855.884
499.7421, 3861.750
500.2242, 3868.949
500.7064, 3878.431
501.1885, 3887.603
501.6706, 3893.085
502.1527, 3899.066
502.6348, 3909.716
503.1169, 3934.703
503.5991, 3953.497
504.0812, 3961.195
504.5633, 3960.805
505.0454, 3963.421
505.5275, 3969.643
506.0096, 3977.802
506.4918, 3987.503
506.9739, 3998.950
507.4560, 4010.335
507.9381, 4021.674
508.4202, 4032.848
508.9023, 4043.510
509.3845, 4053.712
509.8666, 4064.742
510.3487, 4077.386
510.8308, 4089.979
511.3129, 4099.345
511.7950, 4106.030
512.2772, 4112.496
512.7593, 4120.124
513.2414, 4128.209
513.7235, 4135.892
514.2056, 4143.178
514.6877, 4150.740
515.1699, 4160.367
515.6520, 4169.717
516.1341, 4176.269
516.6162, 4177.477
517.0983, 4179.685
517.5804, 4186.081
518.0626, 4194.546
518.5447, 4201.632
519.0268, 4204.813
519.5089, 4208.667
519.9910, 4215.554
520.4731, 4225.027
520.9553, 4229.333
521.4374, 4226.004
521.9195, 4221.192
522.4016, 4218.155
522.8837, 4217.184
523.3658, 4217.018
523.8480, 4217.984
524.3301, 4219.194
524.8122, 4219.468
525.2943, 4218.886
525.7764, 4217.968
526.2585, 4216.599
526.7407, 4215.342
527.2228, 4215.027
527.7049, 4215.675
528.1870, 4217.307
528.6691, 4220.171
529.1512, 4223.897
529.6334, 4228.701
530.1155, 4234.672
530.5976, 4239.005
531.0797, 4239.185
531.5618, 4237.247
532.0439, 4234.969
532.5261, 4229.673
533.0082, 4228.404
533.4903, 4236.194
533.9724, 4248.860
534.4545, 4257.649
534.9366, 4258.531
535.4188, 4259.137
535.9009, 4260.886
536.3830, 4263.811
536.8651, 4268.384
537.3472, 4276.212
537.8293, 4282.706
538.3115, 4283.372
538.7936, 4277.515
539.2757, 4276.606
539.7578, 4281.738
540.2399, 4290.452
540.7220, 4301.153
541.2042, 4313.106
541.6863, 4322.789
542.1684, 4328.473
542.6505, 4332.178
543.1326, 4335.682
543.6147, 4339.374
544.0969, 4344.991
544.5790, 4356.108
545.0611, 4367.664
545.5432, 4374.869
546.0253, 4377.091
546.5074, 4379.464
546.9896, 4383.806
547.4717, 4389.354
547.9538, 4395.533
548.4359, 4403.295
548.9180, 4410.292
549.4001, 4415.503
549.8823, 4420.202
550.3644, 4426.856
550.8465, 4437.945
551.3286, 4446.350
551.8107, 4449.155
552.2928, 4447.518
552.7750, 4450.277
553.2571, 4458.272
553.7392, 4466.644
554.2213, 4471.093
554.7034, 4472.699
555.1855, 4479.190
555.6677, 4491.585
556.1498, 4503.791
556.6319, 4506.640
557.1140, 4504.706
557.5961, 4507.951
558.0782, 4522.162
558.5604, 4537.413
559.0425, 4544.628
559.5246, 4546.691
560.0067, 4549.974
560.4888, 4558.448
560.9709, 4567.438
561.4531, 4573.893
561.9352, 4577.773
562.4173, 4584.556
562.8994, 4599.358
563.3815, 4613.701
563.8636, 4623.209
564.3458, 4625.579
564.8279, 4629.287
565.3100, 4634.870
565.7921, 4641.217
566.2742, 4646.698
566.7563, 4651.214
567.2385, 4656.282
567.7206, 4662.078
568.2027, 4668.784
568.6848, 4677.171
569.1669, 4687.034
569.6490, 4695.999
570.1312, 4702.392
570.6133, 4707.418
571.0954, 4711.553
571.5775, 4715.107
572.0596, 4721.552
572.5417, 4735.558
573.0239, 4752.066
573.5060, 4766.671
573.9881, 4778.712
574.4702, 4788.919
574.9523, 4797.693
575.4344, 4804.858
575.9166, 4810.026
576.3987, 4809.064
576.8808, 4811.865
577.3629, 4820.576
577.8450, 4833.709
578.3271, 4846.937
578.8093, 4860.851
579.2914, 4872.750
579.7735, 4880.002
580.2556, 4883.527
580.7377, 4891.834
581.2198, 4905.034
581.7020, 4920.831
582.1841, 4939.790
582.6662, 4959.544
583.1483, 4974.443
583.6304, 4983.069
584.1125, 4989.116
584.5947, 4995.870
585.0768, 5002.163
585.5589, 5006.187
586.0410, 5003.167
586.5231, 5002.656
587.0052, 5011.619
587.4874, 5026.489
587.9695, 5037.384
588.4516, 5039.364
588.9337, 5040.507
589.4158, 5042.089
589.8979, 5044.105
590.3801, 5051.204
590.8622, 5066.392
591.3443, 5081.275
591.8264, 5089.776
592.3085, 5091.380
592.7906, 5093.589
593.2728, 5096.210
593.7549, 5100.554
594.2370, 5109.381
594.7191, 5121.505
595.2012, 5132.198
595.6833, 5139.739
596.1655, 5146.567
596.6476, 5156.106
597.1297, 5167.006
597.6118, 5176.361
598.0939, 5183.457
598.5760, 5188.247
599.0582, 5188.447
599.5403, 5185.108
600.0224, 5186.587
600.5045, 5201.852
600.9866, 5216.329
601.4688, 5222.152
601.9509, 5215.631
602.4330, 5217.694
602.9151, 5233.277
603.3972, 5250.585
603.8793, 5256.708
604.3615, 5249.779
604.8436, 5252.680
605.3257, 5270.257
605.8078, 5293.055
606.2899, 5305.428
606.7720, 5309.356
607.2542, 5313.672
607.7363, 5320.243
608.2184, 5330.161
608.7005, 5348.864
609.1826, 5373.019
609.6647, 5390.397
610.1469, 5389.835
610.6290, 5384.947
611.1111, 5383.958
611.5932, 5387.567
612.0753, 5390.505
612.5574, 5386.907
613.0396, 5386.356
613.5217, 5395.187
614.0038, 5420.164
614.4859, 5436.788
614.9680, 5441.789
615.4501, 5442.793
615.9323, 5449.798
616.4144, 5463.244
616.8965, 5472.266
617.3786, 5473.170
617.8607, 5471.588
618.3428, 5478.334
618.8250, 5491.561
619.3071, 5503.593
619.7892, 5510.591
620.2713, 5514.920
620.7534, 5517.679
621.2355, 5519.513
621.7177, 5523.102
622.1998, 5529.853
622.6819, 5538.811
623.1640, 5550.617
623.6461, 5566.183
624.1282, 5578.572
624.6104, 5583.731
625.0925, 5588.466
625.5746, 5597.153
626.0567, 5611.540
626.5388, 5624.877
627.0209, 5636.458
627.5031, 5647.466
627.9852, 5660.917
628.4673, 5676.302
628.9494, 5685.664
629.4315, 5684.487
629.9136, 5681.103
630.3958, 5689.773
630.8779, 5707.188
631.3600, 5723.409
631.8421, 5732.191
632.3242, 5739.186
632.8063, 5748.497
633.2885, 5759.830
633.7706, 5771.372
634.2527, 5783.330
634.7348, 5794.704
635.2169, 5804.918
635.6990, 5813.603
636.1812, 5823.013
636.6633, 5834.228
637.1454, 5844.794
637.6275, 5852.142
638.1096, 5855.434
638.5917, 5861.618
639.0739, 5871.429
639.5560, 5882.925
640.0381, 5893.765
640.5202, 5904.284
641.0023, 5916.035
641.4844, 5930.355
641.9666, 5944.436
642.4487, 5953.876
642.9308, 5961.233
643.4129, 5971.846
643.8950, 5994.809
644.3771, 6015.154
644.8593, 6022.227
645.3414, 6019.247
645.8235, 6024.143
646.3056, 6047.161
646.7877, 6070.785
647.2698, 6088.558
647.7520, 6100.284
648.2341, 6117.080
648.7162, 6140.379
649.1983, 6164.554
649.6804, 6186.259
650.1625, 6205.308
650.6447, 6217.792
651.1268, 6222.208
651.6089, 6229.874
652.0910, 6255.078
652.5731, 6290.916
653.0552, 6326.758
653.5374, 6362.351
654.0195, 6391.224
654.5016, 6403.778
654.9837, 6409.284
655.4658, 6421.418
655.9479, 6450.382
656.4301, 6478.678
656.9122, 6500.645
657.3943, 6519.875
657.8764, 6546.074
658.3585, 6580.870
658.8406, 6618.944
659.3228, 6658.102
659.8049, 6699.181
660.2870, 6746.685
660.7691, 6800.748
661.2512, 6853.746
661.7333, 6897.172
662.2155, 6936.540
662.6976, 6981.145
663.1797, 7031.299
663.6618, 7087.280
664.1439, 7152.199
664.6260, 7221.276
665.1082, 7290.974
665.5903, 7360.490
666.0724, 7429.400
666.5545, 7493.563
667.0366, 7559.765
667.5187, 7634.362
668.0009, 7721.238
668.4830, 7809.207
668.9651, 7896.656
669.4472, 7985.345
669.9293, 8079.034
670.4114, 8177.806
670.8936, 8279.678
671.3757, 8384.788
671.8578, 8491.928
672.3399, 8598.369
672.8220, 8706.601
673.3041, 8823.255
673.7863, 8953.087
674.2684, 9090.818
674.7505, 9236.185
675.2326, 9387.612
675.7147, 9534.256
676.1968, 9667.279
676.6790, 9802.431
677.1611, 9947.552
677.6432, 10104.94
678.1253, 10248.16
678.6074, 10376.79
679.0895, 10489.86
679.5717, 10588.37
680.0538, 10673.10
680.5359, 10728.92
681.0180, 10756.22
681.5001, 10749.73
681.9822, 10699.07
682.4644, 10611.31
682.9465, 10501.76
683.4286, 10372.13
683.9107, 10221.39
684.3928, 10034.78
684.8749, 9830.778
685.3571, 9629.220
685.8392, 9427.894
686.3213, 9236.249
686.8034, 9051.804
687.2855, 8877.782
687.7676, 8720.311
688.2498, 8580.343
688.7319, 8449.814
689.2140, 8325.262
689.6961, 8209.046
690.1782, 8112.314
690.6603, 8034.569
691.1425, 7965.974
691.6246, 7903.647
692.1067, 7845.681
692.5888, 7786.759
693.0709, 7728.925
693.5530, 7681.090
694.0352, 7655.048
694.5173, 7635.474
694.9994, 7613.106
695.4815, 7587.129
695.9636, 7563.310
696.4457, 7540.705
696.9279, 7522.023
697.4100, 7508.919
697.8921, 7501.966
698.3742, 7496.716
698.8563, 7493.458
699.3384, 7490.976
699.8206, 7487.282
700.3027, 7483.246
700.7848, 7483.924
701.2669, 7490.583
701.7490, 7496.534
702.2311, 7493.022
702.7133, 7485.704
703.1954, 7482.698
703.6775, 7488.083
704.1596, 7493.802
704.6417, 7495.569
705.1238, 7496.334
705.6060, 7500.206
706.0881, 7508.354
706.5702, 7518.228
707.0523, 7531.119
707.5344, 7544.530
708.0165, 7551.909
708.4987, 7552.662
708.9808, 7556.206
709.4629, 7566.373
709.9450, 7579.624
710.4271, 7588.606
710.9092, 7594.626
711.3914, 7602.879
711.8735, 7620.836
712.3556, 7637.796
712.8377, 7643.385
713.3198, 7640.349
713.8019, 7642.494
714.2841, 7657.968
714.7662, 7675.106
715.2483, 7689.093
715.7304, 7700.118
716.2125, 7715.324
716.6946, 7737.456
717.1768, 7756.583
717.6589, 7763.967
718.1410, 7761.917
718.6231, 7768.582
719.1052, 7784.244
719.5873, 7801.223
720.0695, 7815.185
720.5516, 7826.272
721.0337, 7833.776
721.5158, 7837.030
721.9979, 7842.013
722.4800, 7852.160
722.9622, 7864.795
723.4443, 7877.578
723.9264, 7888.284
724.4085, 7904.146
724.8906, 7929.798
725.3727, 7955.300
725.8549, 7968.859
726.3370, 7969.485
726.8191, 7974.700
727.3012, 7986.995
727.7833, 8002.081
728.2654, 8015.188
728.7476, 8026.550
729.2297, 8036.830
729.7118, 8046.514
730.1939, 8054.541
730.6760, 8058.342
731.1581, 8060.424
731.6403, 8064.694
732.1224, 8071.836
732.6045, 8081.874
733.0866, 8097.745
733.5687, 8115.323
734.0508, 8124.742
734.5330, 8123.447
735.0151, 8125.285
735.4972, 8134.823
735.9793, 8148.768
736.4614, 8160.471
736.9435, 8170.056
737.4257, 8178.104
737.9078, 8181.124
738.3899, 8185.666
738.8720, 8199.469
739.3541, 8220.182
739.8362, 8239.459
740.3184, 8253.922
740.8005, 8266.668
741.2826, 8279.455
741.7647, 8291.909
742.2468, 8299.244
742.7289, 8298.293
743.2111, 8299.967
743.6932, 8310.112
744.1753, 8327.232
744.6574, 8343.560
745.1395, 8358.956
745.6216, 8372.988
746.1038, 8382.408
746.5859, 8391.821
747.0680, 8409.791
747.5501, 8436.121
748.0322, 8455.660
748.5143, 8451.314
748.9965, 8446.143
749.4786, 8456.314
749.9607, 8487.522
750.4428, 8508.969
750.9249, 8517.374
751.4070, 8522.103
751.8892, 8528.072
752.3713, 8535.393
752.8534, 8549.068
753.3355, 8570.024
753.8176, 8590.999
754.2997, 8604.390
754.7819, 8613.680
755.2640, 8624.404
755.7461, 8637.533
756.2282, 8650.908
756.7103, 8662.584
757.1924, 8674.469
757.6746, 8688.291
758.1567, 8706.704
758.6388, 8721.849
759.1209, 8731.279
759.6030, 8740.514
760.0851, 8756.286
760.5673, 8778.953
761.0494, 8798.274
761.5315, 8812.577
762.0136, 8825.252
762.4957, 8838.598
762.9778, 8853.468
763.4600, 8872.744
763.9421, 8899.879
764.4242, 8924.189
764.9063, 8939.007
765.3884, 8948.025
765.8705, 8955.722
766.3527, 8962.064
766.8348, 8968.129
767.3169, 8973.352
767.7990, 8979.097
768.2811, 8986.822
768.7632, 8996.454
769.2454, 9011.788
769.7275, 9036.037
770.2096, 9059.701
770.6917, 9064.014
771.1738, 9057.678
771.6559, 9060.384
772.1381, 9084.855
772.6202, 9111.957
773.1023, 9132.308
773.5844, 9148.108
774.0665, 9162.967
774.5486, 9174.893
775.0308, 9190.254
775.5129, 9213.692
775.9950, 9238.615
776.4771, 9247.904
776.9592, 9241.109
777.4413, 9235.947
777.9235, 9236.256
778.4056, 9243.114
778.8877, 9262.282
779.3698, 9289.498
779.8519, 9313.831
780.3340, 9325.268
780.8162, 9337.631
781.2983, 9361.068
781.7804, 9390.377
782.2625, 9410.832
782.7446, 9412.821
783.2267, 9420.268
783.7089, 9439.964
784.1910, 9466.983
784.6731, 9486.979
785.1552, 9500.068
785.6373, 9513.151
786.1194, 9527.412
786.6016, 9544.663
787.0837, 9573.507
787.5658, 9607.853
788.0479, 9630.563
788.5300, 9617.141
789.0121, 9606.654
789.4943, 9617.567
789.9764, 9645.892
790.4585, 9674.589
790.9406, 9707.044
791.4227, 9731.333
791.9048, 9741.107
792.3870, 9741.840
792.8691, 9752.612
793.3512, 9772.733
793.8333, 9789.763
794.3154, 9792.389
794.7975, 9793.635
795.2797, 9814.015
795.7618, 9847.270
796.2439, 9872.235
796.7260, 9870.345
797.2081, 9869.538
797.6902, 9883.010
798.1724, 9906.811
798.6545, 9924.915
799.1366, 9934.900
799.6187, 9945.447
800.1008, 9959.393
800.5829, 9975.863
801.0651, 9992.109
801.5472, 10008.23
802.0293, 10025.74
802.5114, 10046.57
802.9935, 10067.94
803.4756, 10085.70
803.9578, 10101.40
804.4399, 10120.13
804.9220, 10150.48
805.4041, 10176.03
805.8862, 10188.97
806.3683, 10193.41
806.8505, 10208.14
807.3326, 10236.17
807.8147, 10259.55
808.2968, 10268.37
808.7789, 10271.15
809.2610, 10290.33
809.7432, 10321.56
810.2253, 10347.00
810.7074, 10354.60
811.1895, 10356.07
811.6716, 10353.59
812.1537, 10350.45
812.6359, 10358.21
813.1180, 10388.39
813.6001, 10416.27
814.0822, 10435.93
814.5643, 10449.56
815.0464, 10464.06
815.5286, 10479.36
816.0107, 10496.32
816.4928, 10516.17
816.9749, 10536.94
817.4570, 10555.63
817.9391, 10572.65
818.4213, 10589.73
818.9034, 10606.20
819.3855, 10624.01
819.8676, 10644.53
820.3497, 10666.83
820.8318, 10687.66
821.3140, 10705.95
821.7961, 10724.37
822.2782, 10743.48
822.7603, 10762.96
823.2424, 10784.59
823.7245, 10807.53
824.2067, 10826.21
824.6888, 10838.18
825.1709, 10845.53
825.6530, 10846.42
826.1351, 10844.70
826.6172, 10848.76
827.0994, 10865.55
827.5815, 10883.56
828.0636, 10902.94
828.5457, 10921.38
829.0278, 10932.25
829.5099, 10933.45
829.9921, 10942.29
830.4742, 10964.62
830.9563, 10993.47
831.4384, 11019.79
831.9205, 11043.77
832.4026, 11065.97
832.8848, 11086.06
833.3669, 11105.43
833.8490, 11125.54
834.3311, 11145.06
834.8132, 11161.11
835.2953, 11167.59
835.7775, 11182.63
836.2596, 11211.78
836.7417, 11244.97
837.2238, 11263.63
837.7059, 11269.81
838.1880, 11281.66
838.6702, 11305.26
839.1523, 11329.68
839.6344, 11339.05
840.1165, 11343.80
840.5986, 11359.38
841.0807, 11401.27
841.5629, 11435.59
842.0450, 11451.16
842.5271, 11459.09
843.0092, 11469.67
843.4913, 11483.41
843.9734, 11497.19
844.4556, 11510.78
844.9377, 11524.30
845.4198, 11538.35
845.9019, 11552.31
846.3840, 11563.75
846.8661, 11570.60
847.3483, 11583.08
847.8304, 11616.00
848.3125, 11651.79
848.7946, 11673.04
849.2767, 11668.80
849.7589, 11676.35
850.2410, 11699.31
850.7231, 11727.13
851.2052, 11751.95
851.6873, 11773.50
852.1694, 11789.24
852.6516, 11798.51
853.1337, 11812.56
853.6158, 11849.14
854.0979, 11889.60
854.5800, 11914.18
855.0621, 11918.31
855.5443, 11926.25
856.0264, 11943.20
856.5085, 11964.99
856.9906, 11991.69
857.4727, 12023.34
857.9548, 12047.75
858.4370, 12064.91
858.9191, 12077.61
859.4012, 12085.47
859.8833, 12091.73
860.3654, 12100.64
860.8475, 12112.52
861.3297, 12127.85
861.8118, 12148.49
862.2939, 12171.21
862.7760, 12196.28
863.2581, 12222.74
863.7402, 12244.69
864.2224, 12260.90
864.7045, 12275.53
865.1866, 12287.35
865.6687, 12300.68
866.1508, 12331.71
866.6329, 12375.78
867.1151, 12411.74
867.5972, 12420.38
868.0793, 12425.37
868.5614, 12440.96
869.0435, 12464.15
869.5256, 12484.54
870.0078, 12498.02
870.4899, 12514.63
870.9720, 12537.23
871.4541, 12563.26
871.9362, 12589.47
872.4183, 12615.12
872.9005, 12632.35
873.3826, 12633.60
873.8647, 12636.79
874.3468, 12665.72
874.8289, 12706.23
875.3110, 12736.48
875.7932, 12741.49
876.2753, 12747.06
876.7574, 12752.85
877.2395, 12762.49
877.7216, 12782.55
878.2037, 12813.83
878.6859, 12839.12
879.1680, 12855.34
879.6501, 12871.28
880.1322, 12899.07
880.6143, 12932.09
881.0964, 12961.42
881.5786, 12985.84
882.0607, 13004.84
882.5428, 13013.84
883.0249, 13020.84
883.5070, 13029.35
883.9891, 13037.31
884.4713, 13063.04
884.9534, 13110.00
885.4355, 13155.50
885.9176, 13178.33
886.3997, 13187.69
886.8818, 13199.95
887.3640, 13216.05
887.8461, 13237.55
888.3282, 13273.39
888.8103, 13307.12
889.2924, 13325.29
889.7745, 13329.47
890.2567, 13348.33
890.7388, 13389.07
891.2209, 13421.85
891.7030, 13429.61
892.1851, 13424.34
892.6672, 13439.62
893.1494, 13471.25
893.6315, 13500.46
894.1136, 13512.26
894.5957, 13524.92
895.0778, 13553.48
895.5599, 13590.65
896.0421, 13616.34
896.5242, 13624.67
897.0063, 13632.03
897.4884, 13639.56
897.9705, 13649.36
898.4526, 13665.82
898.9348, 13688.09
899.4169, 13712.10
899.8990, 13737.03
900.3811, 13763.54
900.8632, 13792.57
901.3453, 13823.51
901.8275, 13857.03
902.3096, 13901.96
902.7917, 13929.36
903.2738, 13928.51
903.7559, 13925.90
904.2380, 13949.93
904.7202, 13996.91
905.2023, 14027.31
905.6844, 14038.03
906.1665, 14049.68
906.6486, 14087.56
907.1307, 14127.82
907.6129, 14144.09
908.0950, 14132.08
908.5771, 14134.09
909.0592, 14162.63
909.5413, 14197.07
910.0234, 14231.76
910.5056, 14265.69
910.9877, 14291.34
911.4698, 14309.00
911.9519, 14322.92
912.4340, 14330.02
912.9161, 14338.84
913.3983, 14357.48
913.8804, 14384.61
914.3625, 14416.46
914.8446, 14462.17
915.3267, 14498.19
915.8088, 14513.63
916.2910, 14522.13
916.7731, 14556.16
917.2552, 14614.93
917.7373, 14658.40
918.2194, 14674.54
918.7015, 14683.13
919.1837, 14703.58
919.6658, 14730.91
920.1479, 14758.02
920.6300, 14781.11
921.1121, 14809.72
921.5942, 14851.75
922.0764, 14893.14
922.5585, 14921.90
923.0406, 14937.60
923.5227, 14952.60
924.0048, 14966.82
924.4869, 14985.75
924.9691, 15019.19
925.4512, 15056.61
925.9333, 15083.53
926.4154, 15099.80
926.8975, 15121.22
927.3796, 15162.96
927.8618, 15197.57
928.3439, 15211.81
928.8260, 15211.56
929.3081, 15230.36
929.7902, 15267.85
930.2723, 15303.46
930.7545, 15328.11
931.2366, 15346.08
931.7187, 15359.30
932.2008, 15369.77
932.6829, 15381.38
933.1650, 15394.21
933.6472, 15410.50
934.1293, 15431.54
934.6114, 15455.12
935.0935, 15479.42
935.5756, 15504.60
936.0577, 15520.49
936.5399, 15523.79
937.0220, 15529.60
937.5041, 15560.36
937.9862, 15597.81
938.4683, 15618.07
938.9504, 15612.69
939.4326, 15614.80
939.9147, 15635.02
940.3968, 15656.60
940.8789, 15670.80
941.3610, 15678.16
941.8431, 15685.46
942.3253, 15692.87
942.8074, 15704.51
943.2895, 15724.96
943.7716, 15749.04
944.2537, 15772.72
944.7358, 15796.16
945.2180, 15820.52
945.7001, 15842.63
946.1822, 15871.02
946.6643, 15909.42
947.1464, 15953.56
947.6285, 15995.99
948.1107, 16036.45
948.5928, 16069.79
949.0749, 16091.94
949.5570, 16115.92
950.0391, 16158.35
950.5212, 16206.69
951.0034, 16245.54
951.4855, 16266.65
951.9676, 16291.70
952.4497, 16321.92
952.9318, 16354.13
953.4139, 16387.27
953.8961, 16420.48
954.3782, 16449.28
954.8603, 16473.32
955.3424, 16493.60
955.8245, 16510.19
956.3066, 16523.60
956.7888, 16530.22
957.2709, 16532.35
957.7530, 16547.14
958.2351, 16584.07
958.7172, 16612.12
959.1993, 16620.80
959.6815, 16619.10
960.1636, 16619.94
960.6457, 16626.29
961.1278, 16650.25
961.6099, 16709.13
962.0920, 16759.35
962.5742, 16765.16
963.0563, 16755.21
963.5384, 16763.61
964.0205, 16803.52
964.5026, 16822.95
964.9847, 16814.85
965.4669, 16809.31
965.9490, 16840.33
966.4311, 16891.86
966.9132, 16932.00
967.3953, 16959.04
967.8774, 16983.68
968.3596, 17006.51
968.8417, 17032.63
969.3238, 17066.88
969.8059, 17106.53
970.2880, 17139.75
970.7701, 17166.69
971.2523, 17186.11
971.7344, 17192.97
972.2165, 17200.14
972.6986, 17231.80
973.1807, 17276.55
973.6628, 17311.60
974.1450, 17316.63
974.6271, 17334.51
975.1092, 17383.60
975.5913, 17439.31
976.0734, 17480.42
976.5555, 17506.79
977.0377, 17525.68
977.5198, 17537.02
978.0019, 17547.05
978.4840, 17559.64
978.9661, 17574.71
979.4482, 17591.44
979.9304, 17610.18
980.4125, 17635.39
980.8946, 17676.11
981.3767, 17710.14
981.8588, 17728.20
982.3409, 17737.72
982.8231, 17759.86
983.3052, 17792.76
983.7873, 17827.60
984.2694, 17862.51
984.7515, 17895.47
985.2336, 17923.33
985.7158, 17948.95
986.1979, 17976.23
986.6800, 18007.13
987.1621, 18035.58
987.6442, 18061.38
988.1263, 18084.96
988.6085, 18106.04
989.0906, 18125.26
989.5727, 18142.39
990.0548, 18158.06
990.5369, 18177.02
991.0190, 18207.57
991.5012, 18236.25
991.9833, 18253.17
992.4654, 18263.21
992.9475, 18286.88
993.4296, 18326.42
993.9117, 18356.13
994.3939, 18364.34
994.8760, 18368.62
995.3581, 18392.98
995.8402, 18429.40
996.3223, 18466.10
996.8044, 18501.53
997.2866, 18533.72
997.7687, 18562.63
998.2508, 18588.44
998.7329, 18610.25
999.2150, 18628.13
999.6971, 18647.58
1000.179, 18668.47
1000.661, 18692.89
1001.143, 18722.22
1001.626, 18755.74
1002.108, 18797.65
1002.590, 18844.52
1003.072, 18881.36
1003.554, 18903.37
1004.036, 18923.39
1004.518, 18941.57
1005.000, 18962.91
1005.483, 18999.37
1005.965, 19045.36
1006.447, 19084.29
1006.929, 19110.04
1007.411, 19137.37
1007.893, 19177.71
1008.375, 19219.15
1008.857, 19253.16
1009.339, 19279.63
1009.822, 19300.88
1010.304, 19315.85
1010.786, 19336.45
1011.268, 19373.26
1011.750, 19417.10
1012.232, 19461.94
1012.714, 19504.36
1013.196, 19535.37
1013.679, 19535.71
1014.161, 19546.92
1014.643, 19577.57
1015.125, 19617.41
1015.607, 19651.91
1016.089, 19681.94
1016.571, 19716.78
1017.053, 19758.87
1017.535, 19791.83
1018.018, 19791.05
1018.500, 19785.72
1018.982, 19799.72
1019.464, 19835.19
1019.946, 19873.44
1020.428, 19915.80
1020.910, 19957.10
1021.392, 19996.16
1021.875, 20031.81
1022.357, 20059.64
1022.839, 20081.84
1023.321, 20103.16
1023.803, 20121.06
1024.285, 20143.97
1024.767, 20176.38
1025.249, 20212.18
1025.731, 20246.67
1026.214, 20279.96
1026.696, 20305.10
1027.178, 20321.57
1027.660, 20342.89
1028.142, 20382.24
1028.624, 20429.65
1029.106, 20483.07
1029.588, 20539.13
1030.071, 20576.20
1030.553, 20584.29
1031.035, 20596.15
1031.517, 20619.30
1031.999, 20650.76
1032.481, 20691.27
1032.963, 20735.45
1033.445, 20767.95
1033.927, 20780.82
1034.410, 20797.80
1034.892, 20826.45
1035.374, 20865.72
1035.856, 20918.02
1036.338, 20984.16
1036.820, 21028.95
1037.302, 21051.35
1037.784, 21072.33
1038.266, 21109.52
1038.749, 21146.98
1039.231, 21162.75
1039.713, 21166.46
1040.195, 21181.19
1040.677, 21220.02
1041.159, 21253.15
1041.641, 21274.71
1042.123, 21297.44
1042.605, 21343.17
1043.088, 21402.25
1043.570, 21444.58
1044.052, 21466.98
1044.534, 21485.97
1045.016, 21505.40
1045.498, 21528.68
1045.980, 21556.02
1046.462, 21588.37
1046.945, 21637.04
1047.427, 21703.75
1047.909, 21747.54
1048.391, 21745.51
1048.873, 21737.07
1049.355, 21766.49
1049.837, 21814.84
1050.319, 21856.54
1050.802, 21881.92
1051.284, 21912.73
1051.766, 21952.88
1052.248, 21989.35
1052.730, 22001.35
1053.212, 22003.52
1053.694, 22050.27
1054.176, 22132.38
1054.658, 22207.25
1055.141, 22247.25
1055.623, 22283.62
1056.105, 22331.18
1056.587, 22379.94
1057.069, 22411.09
1057.551, 22423.68
1058.033, 22450.88
1058.515, 22497.96
1058.998, 22550.38
1059.480, 22605.46
1059.962, 22652.89
1060.444, 22678.51
1060.926, 22680.96
1061.408, 22693.27
1061.890, 22718.37
1062.372, 22749.33
1062.854, 22785.50
1063.337, 22823.58
1063.819, 22855.46
1064.301, 22884.01
1064.783, 22916.06
1065.265, 22957.78
1065.747, 22992.96
1066.229, 23010.71
1066.711, 23026.28
1067.193, 23047.14
1067.676, 23073.38
1068.158, 23120.57
1068.640, 23186.48
1069.122, 23236.40
1069.604, 23220.65
1070.086, 23210.85
1070.568, 23268.84
1071.050, 23365.44
1071.532, 23433.49
1072.015, 23465.50
1072.497, 23490.46
1072.979, 23510.04
1073.461, 23529.60
1073.943, 23554.99
1074.425, 23584.04
1074.907, 23614.11
1075.389, 23644.85
1075.872, 23677.68
1076.354, 23716.27
1076.836, 23751.32
1077.318, 23778.25
1077.800, 23801.43
1078.282, 23836.66
1078.764, 23878.07
1079.246, 23902.42
1079.729, 23898.21
1080.211, 23896.36
1080.693, 23916.06
1081.175, 23942.97
1081.657, 23966.32
1082.139, 23986.13
1082.621, 24004.16
1083.103, 24020.61
1083.585, 24034.95
1084.068, 24044.98
1084.550, 24055.15
1085.032, 24068.39
1085.514, 24085.24
1085.996, 24106.76
1086.478, 24136.18
1086.960, 24164.38
1087.442, 24192.91
1087.925, 24214.59
1088.407, 24213.43
1088.889, 24204.87
1089.371, 24223.27
1089.853, 24265.02
1090.335, 24296.96
1090.817, 24299.14
1091.299, 24299.38
1091.781, 24301.48
1092.264, 24308.45
1092.746, 24327.58
1093.228, 24356.75
1093.710, 24384.35
1094.192, 24407.69
1094.674, 24435.86
1095.156, 24483.08
1095.638, 24529.38
1096.120, 24559.39
1096.603, 24575.09
1097.085, 24591.39
1097.567, 24607.89
1098.049, 24628.28
1098.531, 24653.68
1099.013, 24683.70
1099.495, 24724.26
1099.977, 24766.55
1100.459, 24798.79
1100.942, 24813.80
1101.424, 24836.87
1101.906, 24871.73
1102.388, 24903.18
1102.870, 24918.52
1103.352, 24925.91
1103.834, 24942.53
1104.316, 24964.80
1104.799, 24981.96
1105.281, 24978.66
1105.763, 24987.80
1106.245, 25017.59
1106.727, 25054.64
1107.209, 25085.68
1107.691, 25111.05
1108.173, 25125.74
1108.656, 25131.06
1109.138, 25144.81
1109.620, 25182.67
1110.102, 25225.71
1110.584, 25266.96
1111.066, 25306.67
1111.548, 25346.51
1112.030, 25386.66
1112.512, 25427.97
1112.995, 25471.93
1113.477, 25509.38
1113.959, 25526.47
1114.441, 25537.93
1114.923, 25554.55
1115.405, 25577.10
1115.887, 25607.97
1116.369, 25649.38
1116.852, 25687.99
1117.334, 25720.30
1117.816, 25745.49
1118.298, 25754.32
1118.780, 25758.92
1119.262, 25779.03
1119.744, 25828.99
1120.226, 25861.06
1120.708, 25864.20
1121.191, 25874.04
1121.673, 25923.67
1122.155, 25988.11
1122.637, 25999.53
1123.119, 25976.29
1123.601, 25968.90
1124.083, 26008.76
1124.565, 26050.58
1125.047, 26090.47
1125.530, 26125.20
1126.012, 26148.56
1126.494, 26163.66
1126.976, 26184.66
1127.458, 26212.97
1127.940, 26256.18
1128.422, 26345.88
1128.904, 26420.32
1129.386, 26437.07
1129.869, 26430.63
1130.351, 26454.66
1130.833, 26508.43
1131.315, 26559.68
1131.797, 26605.31
1132.279, 26637.70
1132.761, 26632.02
1133.243, 26627.40
1133.726, 26658.56
1134.208, 26717.88
1134.690, 26763.52
1135.172, 26793.63
1135.654, 26826.43
1136.136, 26868.74
1136.618, 26907.45
1137.100, 26925.13
1137.583, 26933.62
1138.065, 26942.64
1138.547, 26952.62
1139.029, 26981.41
1139.511, 27037.71
1139.993, 27084.13
1140.475, 27103.07
1140.957, 27108.84
1141.439, 27117.94
1141.922, 27132.18
1142.404, 27155.66
1142.886, 27192.65
1143.368, 27230.59
1143.850, 27271.74
1144.332, 27304.49
1144.814, 27315.18
1145.296, 27314.93
1145.779, 27334.38
1146.261, 27367.96
1146.743, 27400.09
1147.225, 27427.72
1147.707, 27447.58
1148.189, 27454.09
1148.671, 27461.45
1149.153, 27485.71
1149.635, 27522.16
1150.118, 27548.63
1150.600, 27565.48
1151.082, 27578.54
1151.564, 27584.50
1152.046, 27595.87
1152.528, 27620.15
1153.010, 27650.02
1153.492, 27675.43
1153.974, 27696.95
1154.457, 27723.23
1154.939, 27754.61
1155.421, 27784.35
1155.903, 27799.63
1156.385, 27819.86
1156.867, 27864.43
1157.349, 27920.13
1157.831, 27955.10
1158.313, 27968.82
1158.796, 27989.93
1159.278, 28023.95
1159.760, 28058.55
1160.242, 28081.62
1160.724, 28102.22
1161.206, 28125.32
1161.688, 28152.42
1162.170, 28192.59
1162.653, 28247.90
1163.135, 28297.12
1163.617, 28334.29
1164.099, 28363.95
1164.581, 28379.56
1165.063, 28397.90
1165.545, 28444.88
1166.027, 28527.05
1166.510, 28570.08
1166.992, 28566.17
1167.474, 28567.66
1167.956, 28599.14
1168.438, 28639.76
1168.920, 28661.69
1169.402, 28675.82
1169.884, 28699.92
1170.366, 28744.66
1170.849, 28772.37
1171.331, 28778.90
1171.813, 28784.12
1172.295, 28798.80
1172.777, 28820.09
1173.259, 28847.31
1173.741, 28876.90
1174.223, 28900.59
1174.706, 28900.29
1175.188, 28927.44
1175.670, 28994.84
1176.152, 29057.69
1176.634, 29067.53
1177.116, 29056.78
1177.598, 29105.42
1178.080, 29190.29
1178.563, 29240.87
1179.045, 29190.98
1179.527, 29172.49
1180.009, 29205.27
1180.491, 29251.00
1180.973, 29271.07
1181.455, 29277.57
1181.937, 29300.15
1182.419, 29336.18
1182.901, 29366.69
1183.384, 29378.53
1183.866, 29392.73
1184.348, 29411.07
1184.830, 29436.56
1185.312, 29475.13
1185.794, 29523.43
1186.276, 29578.33
1186.758, 29637.59
1187.240, 29678.50
1187.723, 29655.90
1188.205, 29661.91
1188.687, 29730.20
1189.169, 29819.35
1189.651, 29862.01
1190.133, 29868.70
1190.615, 29862.48
1191.097, 29846.18
1191.580, 29853.47
1192.062, 29923.07
1192.544, 29990.47
1193.026, 30036.69
1193.508, 30065.99
1193.990, 30085.12
1194.472, 30095.70
1194.954, 30100.10
1195.437, 30098.04
1195.919, 30102.78
1196.401, 30123.56
1196.883, 30150.97
1197.365, 30184.39
1197.847, 30219.58
1198.329, 30241.74
1198.811, 30254.13
1199.293, 30269.71
1199.776, 30292.49
1200.258, 30314.35
1200.740, 30319.84
1201.222, 30336.97
1201.704, 30387.22
1202.186, 30456.27
1202.668, 30481.18
1203.150, 30471.97
1203.633, 30468.62
1204.115, 30481.76
1204.597, 30508.27
1205.079, 30557.50
1205.561, 30610.10
1206.043, 30656.29
1206.525, 30695.81
1207.007, 30722.10
1207.490, 30737.36
1207.972, 30752.15
1208.454, 30769.89
1208.936, 30788.53
1209.418, 30801.37
1209.900, 30820.30
1210.382, 30856.86
1210.864, 30907.04
1211.346, 30938.09
1211.828, 30954.75
1212.311, 30979.89
1212.793, 31038.60
1213.275, 31085.11
1213.757, 31084.38
1214.239, 31083.70
1214.721, 31128.79
1215.203, 31208.97
1215.685, 31230.92
1216.167, 31206.06
1216.650, 31195.62
1217.132, 31246.73
1217.614, 31295.69
1218.096, 31327.35
1218.578, 31344.15
1219.060, 31337.57
1219.542, 31314.85
1220.024, 31332.18
1220.507, 31383.26
1220.989, 31427.91
1221.471, 31440.55
1221.953, 31451.81
1222.435, 31467.93
1222.917, 31489.54
1223.399, 31521.18
1223.881, 31559.59
1224.364, 31584.31
1224.846, 31597.68
1225.328, 31617.49
1225.810, 31657.45
1226.292, 31698.88
1226.774, 31741.91
1227.256, 31777.91
1227.738, 31788.13
1228.220, 31783.02
1228.703, 31806.21
1229.185, 31855.25
1229.667, 31897.72
1230.149, 31913.42
1230.631, 31926.59
1231.113, 31938.51
1231.595, 31956.41
1232.077, 31993.90
1232.560, 32043.74
1233.042, 32088.52
1233.524, 32126.16
1234.006, 32153.01
1234.488, 32158.57
1234.970, 32163.94
1235.452, 32171.83
1235.934, 32183.42
1236.417, 32205.54
1236.899, 32231.05
1237.381, 32235.27
1237.863, 32220.92
1238.345, 32230.91
1238.827, 32318.81
1239.309, 32368.69
1239.791, 32349.40
1240.273, 32313.58
1240.755, 32338.06
1241.238, 32394.10
1241.720, 32425.78
1242.202, 32430.84
1242.684, 32447.32
1243.166, 32492.67
1243.648, 32527.89
1244.130, 32543.09
1244.612, 32552.36
1245.094, 32565.42
1245.577, 32589.43
1246.059, 32644.08
1246.541, 32727.59
1247.023, 32785.32
1247.505, 32802.98
1247.987, 32823.41
1248.469, 32854.71
1248.951, 32893.45
1249.434, 32940.66
1249.916, 32988.24
1250.398, 33027.00
1250.880, 33055.99
1251.362, 33082.25
1251.844, 33106.95
1252.326, 33127.44
1252.808, 33144.09
1253.291, 33153.12
1253.773, 33139.32
1254.255, 33124.54
1254.737, 33130.90
1255.219, 33159.19
1255.701, 33197.71
1256.183, 33250.33
1256.665, 33274.88
1257.147, 33256.18
1257.630, 33238.31
1258.112, 33262.20
1258.594, 33304.52
1259.076, 33351.26
1259.558, 33399.34
1260.040, 33440.77
1260.522, 33475.24
1261.004, 33499.19
1261.487, 33509.52
1261.969, 33524.60
1262.451, 33561.56
1262.933, 33605.16
1263.415, 33650.21
1263.897, 33692.11
1264.379, 33710.21
1264.861, 33708.37
1265.344, 33718.07
1265.826, 33748.13
1266.308, 33771.66
1266.790, 33761.39
1267.272, 33753.89
1267.754, 33767.48
1268.236, 33795.55
1268.718, 33815.63
1269.200, 33835.18
1269.682, 33891.33
1270.165, 33998.41
1270.647, 34070.59
1271.129, 34031.99
1271.611, 34001.75
1272.093, 34020.13
1272.575, 34065.66
1273.057, 34100.70
1273.539, 34128.17
1274.021, 34153.12
1274.504, 34176.29
1274.986, 34201.46
1275.468, 34229.43
1275.950, 34260.57
1276.432, 34297.81
1276.914, 34333.25
1277.396, 34355.25
1277.878, 34367.82
1278.361, 34371.84
1278.843, 34367.09
1279.325, 34387.98
1279.807, 34444.45
1280.289, 34492.34
1280.771, 34517.49
1281.253, 34537.80
1281.735, 34579.27
1282.218, 34625.19
1282.700, 34655.60
1283.182, 34670.39
1283.664, 34690.45
1284.146, 34715.66
1284.628, 34743.46
1285.110, 34773.24
1285.592, 34804.60
1286.074, 34833.87
1286.557, 34867.32
1287.039, 34915.38
1287.521, 34971.05
1288.003, 35008.14
1288.485, 35028.05
1288.967, 35049.79
1289.449, 35077.68
1289.931, 35105.00
1290.414, 35130.79
1290.896, 35151.95
1291.378, 35168.92
1291.860, 35180.43
1292.342, 35179.78
1292.824, 35170.68
1293.306, 35162.57
1293.788, 35156.74
1294.271, 35164.05
1294.753, 35192.97
1295.235, 35232.98
1295.717, 35286.02
1296.199, 35340.26
1296.681, 35379.65
1297.163, 35402.59
1297.645, 35396.51
1298.127, 35360.38
1298.609, 35351.39
1299.092, 35381.18
1299.574, 35416.86
1300.056, 35455.22
1300.538, 35486.81
1301.020, 35497.45
1301.502, 35499.04
1301.984, 35504.99
1302.466, 35515.60
1302.948, 35523.34
1303.431, 35525.38
1303.913, 35550.12
1304.395, 35607.48
##END=



