##NAMES=Riebeckite
##RRUFFID=R050082
##IDEAL CHEMISTRY=[box]Na_2_(Fe^2+^_3_Fe^3+^_2_)Si_8_O_22_(OH)_2_
##LOCALITY=Mt. Malosa, Zomba, Chilwa, Alkaline Area, Malawi
##OWNER=RRUFF
##SOURCE=Rock Currier
##DESCRIPTION=Black elongated prisms
##STATUS=The identification of this mineral has been confirmed by X-ray diffraction and chemical analysis
##URL=rruff.info/R050082
##MEASURED CHEMISTRY=([box]_0.63_Na_0.19_K_0.18_)(Na_1.58_Ca_0.42_)_Σ=2_Fe^2+^_3.00_(Fe^3+^_1.30_Fe^2+^_0.45_Mn_0.15_Mg_0.05_Ti_0.05_)_Σ=2_(Si_0.98_Al_0.02_)_8_O_22_(OH)_2_
130.3772, 344.8205
130.8593, 357.7484
131.3414, 367.4567
131.8235, 380.4230
132.3056, 396.3696
132.7877, 416.2178
133.2699, 442.4437
133.7520, 475.4354
134.2341, 508.8004
134.7162, 539.0081
135.1983, 566.1754
135.6804, 596.4477
136.1626, 628.7167
136.6447, 665.0954
137.1268, 710.7109
137.6089, 766.8928
138.0910, 826.4919
138.5731, 887.3181
139.0553, 953.0114
139.5374, 1006.445
140.0195, 1046.134
140.5016, 1072.773
140.9837, 1087.809
141.4658, 1092.027
141.9480, 1083.640
142.4301, 1059.894
142.9122, 1014.052
143.3943, 967.1900
143.8764, 920.5516
144.3585, 874.5641
144.8407, 830.2361
145.3228, 786.4963
145.8049, 745.5414
146.2870, 709.7034
146.7691, 678.9874
147.2512, 653.9013
147.7334, 634.8948
148.2155, 621.9963
148.6976, 614.3914
149.1797, 614.4773
149.6618, 619.1874
150.1439, 624.4309
150.6261, 630.1350
151.1082, 636.3777
151.5903, 642.8010
152.0724, 648.1227
152.5545, 656.4712
153.0366, 670.2059
153.5188, 687.0656
154.0009, 702.5390
154.4830, 714.0447
154.9651, 725.6354
155.4472, 739.4988
155.9293, 759.1859
156.4115, 776.2342
156.8936, 787.5671
157.3757, 794.6338
157.8578, 802.6562
158.3399, 811.4839
158.8221, 822.6848
159.3042, 837.3708
159.7863, 858.7482
160.2684, 880.7632
160.7505, 902.4961
161.2326, 923.8578
161.7148, 942.5722
162.1969, 959.0448
162.6790, 971.9714
163.1611, 979.9332
163.6432, 982.4294
164.1253, 980.0299
164.6075, 970.7898
165.0896, 954.5597
165.5717, 939.5753
166.0538, 933.8943
166.5359, 931.7390
167.0180, 924.8627
167.5002, 905.1032
167.9823, 882.2573
168.4644, 863.8707
168.9465, 850.9266
169.4286, 839.4366
169.9107, 828.4667
170.3929, 816.9448
170.8750, 802.3102
171.3571, 780.7130
171.8392, 756.6078
172.3213, 734.7524
172.8034, 716.1981
173.2856, 699.1306
173.7677, 679.0109
174.2498, 658.0660
174.7319, 644.2190
175.2140, 648.1376
175.6961, 660.7657
176.1783, 667.6124
176.6604, 663.7803
177.1425, 657.3872
177.6246, 660.0561
178.1067, 670.3151
178.5888, 678.7765
179.0710, 675.2880
179.5531, 664.9189
180.0352, 658.8635
180.5173, 660.2056
180.9994, 666.7569
181.4815, 676.1610
181.9637, 688.4194
182.4458, 700.9577
182.9279, 712.9054
183.4100, 723.7236
183.8921, 731.2009
184.3742, 731.7757
184.8564, 729.9066
185.3385, 736.3049
185.8206, 751.3619
186.3027, 770.5995
186.7848, 792.4408
187.2669, 816.0085
187.7491, 835.3663
188.2312, 846.9149
188.7133, 852.5421
189.1954, 858.5684
189.6775, 864.6071
190.1596, 872.6614
190.6418, 887.1347
191.1239, 907.7681
191.6060, 926.5098
192.0881, 939.2289
192.5702, 946.6386
193.0524, 955.4799
193.5345, 966.4392
194.0166, 976.9999
194.4987, 982.7312
194.9808, 983.3990
195.4629, 982.7626
195.9451, 982.6863
196.4272, 983.1346
196.9093, 980.9452
197.3914, 973.9999
197.8735, 967.5908
198.3556, 975.3873
198.8378, 1000.308
199.3199, 1020.770
199.8020, 1021.888
200.2841, 1001.992
200.7662, 987.2802
201.2483, 978.9642
201.7305, 976.8959
202.2126, 982.2585
202.6947, 996.7750
203.1768, 1012.292
203.6589, 1023.513
204.1410, 1029.541
204.6232, 1036.917
205.1053, 1046.269
205.5874, 1057.311
206.0695, 1068.950
206.5516, 1080.874
207.0337, 1094.219
207.5159, 1110.241
207.9980, 1129.178
208.4801, 1148.568
208.9622, 1169.350
209.4443, 1190.323
209.9264, 1204.615
210.4086, 1209.616
210.8907, 1213.208
211.3728, 1221.973
211.8549, 1238.079
212.3370, 1252.456
212.8191, 1264.995
213.3013, 1275.093
213.7834, 1277.683
214.2655, 1270.120
214.7476, 1259.264
215.2297, 1252.080
215.7118, 1251.953
216.1940, 1245.258
216.6761, 1226.202
217.1582, 1195.716
217.6403, 1177.866
218.1224, 1178.323
218.6045, 1184.092
219.0867, 1182.613
219.5688, 1171.102
220.0509, 1158.928
220.5330, 1148.527
221.0151, 1139.849
221.4972, 1128.609
221.9794, 1113.254
222.4615, 1096.969
222.9436, 1082.759
223.4257, 1070.469
223.9078, 1060.386
224.3899, 1052.036
224.8721, 1044.991
225.3542, 1043.863
225.8363, 1049.702
226.3184, 1060.431
226.8005, 1074.468
227.2827, 1094.320
227.7648, 1112.497
228.2469, 1126.839
228.7290, 1136.797
229.2111, 1147.177
229.6932, 1159.905
230.1754, 1171.380
230.6575, 1175.638
231.1396, 1165.309
231.6217, 1160.975
232.1038, 1170.607
232.5859, 1198.358
233.0681, 1217.152
233.5502, 1222.305
234.0323, 1221.826
234.5144, 1228.254
234.9965, 1248.143
235.4786, 1263.659
235.9608, 1267.696
236.4429, 1256.338
236.9250, 1252.263
237.4071, 1261.047
237.8892, 1273.680
238.3713, 1275.321
238.8535, 1260.305
239.3356, 1243.779
239.8177, 1230.904
240.2998, 1223.470
240.7819, 1212.462
241.2640, 1195.877
241.7462, 1176.710
242.2283, 1160.274
242.7104, 1148.861
243.1925, 1136.385
243.6746, 1120.428
244.1567, 1099.403
244.6389, 1080.121
245.1210, 1063.304
245.6031, 1047.838
246.0852, 1032.022
246.5673, 1016.140
247.0494, 999.4181
247.5316, 981.4232
248.0137, 961.6920
248.4958, 942.0594
248.9779, 922.1929
249.4600, 902.7127
249.9421, 885.2902
250.4243, 870.3310
250.9064, 856.4266
251.3885, 841.9713
251.8706, 824.0898
252.3527, 816.2255
252.8348, 823.5726
253.3170, 837.7004
253.7991, 842.5603
254.2812, 835.6039
254.7633, 824.1084
255.2454, 808.6559
255.7275, 785.5994
256.2097, 773.3411
256.6918, 775.8780
257.1739, 786.5927
257.6560, 793.0841
258.1381, 793.0400
258.6202, 793.6279
259.1024, 799.3603
259.5845, 813.9044
260.0666, 816.7849
260.5487, 801.6644
261.0308, 779.6903
261.5129, 771.2884
261.9951, 780.2645
262.4772, 794.0005
262.9593, 809.6895
263.4414, 829.9182
263.9235, 839.3060
264.4056, 833.9445
264.8878, 821.4616
265.3699, 815.2816
265.8520, 817.0752
266.3341, 820.2679
266.8162, 822.5600
267.2983, 823.8318
267.7805, 824.7281
268.2626, 824.9508
268.7447, 825.1236
269.2268, 827.1148
269.7089, 832.1591
270.1910, 834.5641
270.6732, 831.0163
271.1553, 820.6443
271.6374, 813.1294
272.1195, 809.0736
272.6016, 806.9827
273.0837, 804.9344
273.5659, 803.0812
274.0480, 800.4636
274.5301, 796.4678
275.0122, 791.0561
275.4943, 786.0294
275.9764, 781.8105
276.4586, 777.1812
276.9407, 768.9828
277.4228, 756.5505
277.9049, 747.1360
278.3870, 744.7163
278.8691, 748.9421
279.3513, 752.0940
279.8334, 754.3530
280.3155, 755.0709
280.7976, 752.5095
281.2798, 746.5210
281.7619, 741.3027
282.2440, 739.7124
282.7261, 740.8286
283.2082, 736.6636
283.6903, 726.1432
284.1725, 714.2945
284.6546, 707.4031
285.1367, 705.3769
285.6188, 704.2742
286.1009, 702.6931
286.5830, 700.9147
287.0652, 701.1633
287.5473, 704.0333
288.0294, 705.3788
288.5115, 697.6294
288.9936, 682.2885
289.4757, 672.2104
289.9579, 674.5045
290.4400, 684.3909
290.9221, 688.6573
291.4042, 687.0380
291.8863, 683.1159
292.3684, 678.0694
292.8506, 673.0297
293.3327, 673.1860
293.8148, 684.1029
294.2969, 698.9560
294.7790, 703.5576
295.2611, 697.8884
295.7433, 689.8410
296.2254, 685.4217
296.7075, 683.9305
297.1896, 683.6058
297.6717, 684.4918
298.1538, 685.7662
298.6360, 686.0458
299.1181, 685.4123
299.6002, 684.8006
300.0823, 683.5385
300.5644, 682.9577
301.0465, 686.1074
301.5287, 696.5092
302.0108, 707.5313
302.4929, 710.1766
302.9750, 705.7950
303.4571, 701.9744
303.9392, 703.0336
304.4214, 707.9559
304.9035, 716.7217
305.3856, 733.7916
305.8677, 747.1461
306.3498, 740.3208
306.8319, 718.9989
307.3141, 703.1097
307.7962, 707.4536
308.2783, 721.6818
308.7604, 737.2811
309.2425, 755.3699
309.7246, 767.6774
310.2068, 763.3550
310.6889, 748.4231
311.1710, 738.4785
311.6531, 743.9642
312.1352, 755.5243
312.6173, 767.4249
313.0995, 780.0905
313.5816, 788.7065
314.0637, 787.4385
314.5458, 780.7828
315.0279, 777.2055
315.5100, 781.8882
315.9922, 789.0421
316.4743, 796.3705
316.9564, 804.2713
317.4385, 809.5703
317.9206, 809.5554
318.4027, 806.6883
318.8849, 804.4088
319.3670, 805.8658
319.8491, 806.1088
320.3312, 802.0382
320.8133, 792.1616
321.2954, 785.7571
321.7776, 787.2074
322.2597, 791.9585
322.7418, 795.1569
323.2239, 793.6349
323.7060, 792.9643
324.1881, 796.0469
324.6703, 803.6361
325.1524, 806.0991
325.6345, 800.0024
326.1166, 789.9589
326.5987, 779.5669
327.0808, 765.4421
327.5630, 755.0059
328.0451, 749.9884
328.5272, 750.1684
329.0093, 750.9016
329.4914, 753.8956
329.9735, 755.8893
330.4557, 754.7482
330.9378, 749.6602
331.4199, 742.6395
331.9020, 732.4475
332.3841, 720.1848
332.8662, 711.4122
333.3484, 707.6968
333.8305, 705.2247
334.3126, 701.5625
334.7947, 695.4969
335.2768, 692.3466
335.7589, 693.5217
336.2411, 697.1289
336.7232, 697.7675
337.2053, 693.8605
337.6874, 691.5895
338.1695, 694.5923
338.6516, 703.5733
339.1338, 712.0098
339.6159, 720.6220
340.0980, 727.2306
340.5801, 725.6903
341.0622, 714.7090
341.5443, 707.4770
342.0265, 710.7375
342.5086, 723.3148
342.9907, 734.8511
343.4728, 745.2684
343.9549, 754.5648
344.4370, 762.7182
344.9192, 769.6630
345.4013, 774.8294
345.8834, 775.3350
346.3655, 774.5779
346.8476, 783.5164
347.3297, 802.4189
347.8119, 821.9445
348.2940, 831.9464
348.7761, 835.2505
349.2582, 840.1275
349.7403, 849.5854
350.2225, 861.1613
350.7046, 872.3321
351.1867, 883.0113
351.6688, 891.7489
352.1509, 894.4982
352.6331, 895.4340
353.1152, 902.0580
353.5973, 920.0411
354.0794, 936.5323
354.5615, 937.3468
355.0436, 926.6473
355.5258, 917.1029
356.0079, 916.2328
356.4900, 919.2544
356.9721, 922.2336
357.4542, 924.5789
357.9363, 926.8438
358.4185, 930.5058
358.9006, 934.1754
359.3827, 935.4482
359.8648, 932.2584
360.3469, 927.3248
360.8290, 921.8484
361.3112, 915.8829
361.7933, 909.6254
362.2754, 903.2187
362.7575, 896.4763
363.2396, 889.1649
363.7217, 883.9643
364.2039, 875.5563
364.6860, 861.1572
365.1681, 840.6219
365.6502, 821.5044
366.1323, 802.3015
366.6144, 786.0452
367.0966, 774.8684
367.5787, 776.6389
368.0608, 774.0237
368.5429, 764.8149
369.0250, 749.9562
369.5071, 734.3057
369.9893, 715.6435
370.4714, 698.8240
370.9535, 686.9282
371.4356, 684.4693
371.9177, 676.4423
372.3998, 659.5696
372.8820, 638.5474
373.3641, 624.3668
373.8462, 619.1183
374.3283, 615.3708
374.8104, 610.6529
375.2925, 604.9223
375.7747, 598.0845
376.2568, 589.8580
376.7389, 580.9693
377.2210, 572.5168
377.7031, 564.5487
378.1852, 556.2737
378.6674, 546.7851
379.1495, 536.8141
379.6316, 529.3256
380.1137, 524.5332
380.5958, 520.8597
381.0779, 517.8130
381.5601, 514.9548
382.0422, 509.9933
382.5243, 500.9910
383.0064, 491.3428
383.4885, 488.8416
383.9706, 492.2536
384.4528, 492.6717
384.9349, 480.0550
385.4170, 461.4742
385.8991, 448.6310
386.3812, 443.9556
386.8633, 442.5022
387.3455, 440.2571
387.8276, 437.7059
388.3097, 435.9292
388.7918, 436.2652
389.2739, 437.1115
389.7560, 437.3564
390.2382, 436.9304
390.7203, 435.6995
391.2024, 434.2085
391.6845, 431.6797
392.1666, 427.1783
392.6487, 416.6932
393.1309, 407.6567
393.6130, 404.3647
394.0951, 406.2372
394.5772, 406.4198
395.0593, 401.8689
395.5414, 395.9005
396.0236, 390.6195
396.5057, 384.8808
396.9878, 381.5291
397.4699, 374.0369
397.9520, 381.9775
398.4341, 386.5885
398.9163, 388.0488
399.3984, 376.9212
399.8805, 382.0482
400.3626, 380.6610
400.8447, 379.0067
401.3268, 373.9096
401.8090, 381.2053
402.2911, 385.1713
402.7732, 385.9865
403.2553, 374.2139
403.7374, 378.6958
404.2195, 376.6637
404.7017, 374.3643
405.1838, 381.1340
405.6659, 371.1922
406.1480, 377.8181
406.6301, 377.8304
407.1122, 380.8696
407.5944, 378.4200
408.0765, 382.4738
408.5586, 382.4988
409.0407, 378.5844
409.5228, 375.3341
410.0049, 375.9240
410.4871, 379.5435
410.9692, 384.2831
411.4513, 390.2237
411.9334, 396.2393
412.4155, 401.2006
412.8976, 405.3036
413.3798, 408.9398
413.8619, 411.8831
414.3440, 414.7667
414.8261, 417.5804
415.3082, 420.3803
415.7903, 425.4454
416.2725, 437.2598
416.7546, 451.0689
417.2367, 461.5902
417.7188, 462.1507
418.2009, 464.3400
418.6830, 474.4096
419.1652, 490.7522
419.6473, 507.0850
420.1294, 523.7166
420.6115, 538.1400
421.0937, 548.9380
421.5758, 554.1636
422.0579, 559.0640
422.5400, 564.5334
423.0221, 570.0490
423.5042, 574.8524
423.9864, 577.9413
424.4685, 581.3557
424.9506, 585.5228
425.4327, 590.3914
425.9148, 596.2496
426.3969, 604.5823
426.8791, 612.2135
427.3612, 616.3187
427.8433, 616.4338
428.3254, 614.2121
428.8075, 608.8619
429.2896, 601.7014
429.7718, 597.8618
430.2539, 598.0272
430.7360, 597.8417
431.2181, 595.1155
431.7002, 589.8716
432.1823, 582.4023
432.6645, 572.6783
433.1466, 560.8198
433.6287, 545.7382
434.1108, 528.2530
434.5929, 512.3746
435.0750, 500.3151
435.5572, 490.8105
436.0393, 481.4817
436.5214, 472.3918
437.0035, 464.8539
437.4856, 462.5695
437.9677, 461.7622
438.4499, 456.7572
438.9320, 443.8551
439.4141, 430.2768
439.8962, 419.9146
440.3783, 412.8109
440.8604, 408.7714
441.3426, 413.5054
441.8247, 416.9646
442.3068, 411.4887
442.7889, 393.4076
443.2710, 380.1723
443.7531, 379.5035
444.2353, 384.8734
444.7174, 389.0537
445.1995, 391.8949
445.6816, 392.4973
446.1637, 389.6689
446.6458, 383.8390
447.1280, 379.2801
447.6101, 377.1135
448.0922, 374.9676
448.5743, 371.0936
449.0564, 363.3445
449.5385, 359.7050
450.0207, 361.3428
450.5028, 366.2812
450.9849, 371.2718
451.4670, 376.4482
451.9491, 380.7497
452.4312, 383.4640
452.9134, 384.8184
453.3955, 386.6886
453.8776, 389.1032
454.3597, 391.7702
454.8418, 395.9802
455.3239, 400.6280
455.8061, 399.9288
456.2882, 389.4260
456.7703, 377.9369
457.2524, 381.1737
457.7345, 395.5568
458.2166, 406.5399
458.6988, 400.4819
459.1809, 388.9117
459.6630, 384.6477
460.1451, 389.6610
460.6272, 396.7671
461.1093, 403.1766
461.5915, 408.4685
462.0736, 411.9726
462.5557, 411.3022
463.0378, 410.9417
463.5199, 412.5727
464.0020, 416.0294
464.4842, 419.9534
464.9663, 424.9070
465.4484, 429.6043
465.9305, 433.6560
466.4126, 439.6894
466.8947, 440.3123
467.3769, 431.9896
467.8590, 419.8272
468.3411, 412.3017
468.8232, 411.9594
469.3053, 411.2172
469.7874, 407.5103
470.2696, 401.1266
470.7517, 397.7798
471.2338, 398.2188
471.7159, 399.4032
472.1980, 398.6771
472.6801, 396.0791
473.1623, 393.3430
473.6444, 390.2566
474.1265, 387.9888
474.6086, 389.8557
475.0907, 395.0869
475.5728, 398.7013
476.0550, 397.1093
476.5371, 392.5429
477.0192, 387.3992
477.5013, 381.6813
477.9834, 378.9311
478.4655, 386.5203
478.9477, 397.2908
479.4298, 401.4030
479.9119, 389.7091
480.3940, 378.6360
480.8761, 379.3812
481.3582, 387.8949
481.8404, 392.5361
482.3225, 385.0143
482.8046, 376.4677
483.2867, 371.5404
483.7688, 370.7284
484.2509, 373.2123
484.7331, 383.2659
485.2152, 394.3342
485.6973, 400.2590
486.1794, 397.4405
486.6615, 395.7344
487.1436, 397.3956
487.6258, 401.2618
488.1079, 401.1553
488.5900, 395.4102
489.0721, 390.3026
489.5542, 389.5362
490.0363, 393.1309
490.5185, 397.6516
491.0006, 403.5648
491.4827, 408.4296
491.9648, 407.0255
492.4470, 400.8219
492.9291, 398.0888
493.4112, 403.2298
493.8933, 412.0345
494.3754, 419.1523
494.8575, 424.5120
495.3397, 427.2481
495.8218, 422.9920
496.3039, 417.7010
496.7860, 419.0061
497.2681, 430.0357
497.7502, 439.7101
498.2324, 441.1853
498.7145, 438.0761
499.1966, 435.3230
499.6787, 432.0703
500.1608, 431.7245
500.6429, 437.1269
501.1251, 447.7690
501.6072, 455.4969
502.0893, 457.4760
502.5714, 458.5359
503.0535, 460.9311
503.5356, 465.3377
504.0178, 469.6385
504.4999, 474.6199
504.9820, 478.7245
505.4641, 478.4789
505.9462, 472.4344
506.4283, 469.9456
506.9105, 475.7740
507.3926, 486.7494
507.8747, 488.2614
508.3568, 479.7220
508.8389, 472.6822
509.3210, 477.6573
509.8032, 490.7093
510.2853, 501.2690
510.7674, 508.0152
511.2495, 512.2551
511.7316, 513.1907
512.2137, 512.7249
512.6959, 514.6917
513.1780, 522.5154
513.6601, 531.7960
514.1422, 541.1790
514.6243, 550.1591
515.1064, 555.6585
515.5886, 552.6288
516.0707, 548.4394
516.5528, 547.3833
517.0349, 549.9469
517.5170, 555.7302
517.9991, 566.7912
518.4813, 580.2136
518.9634, 592.1224
519.4455, 600.0938
519.9276, 610.9019
520.4097, 627.4193
520.8918, 648.1143
521.3740, 663.8195
521.8561, 672.7192
522.3382, 682.6433
522.8203, 699.5673
523.3024, 722.9103
523.7845, 745.1838
524.2667, 766.0558
524.7488, 786.0495
525.2309, 806.8578
525.7130, 828.0372
526.1951, 847.6614
526.6772, 865.6473
527.1594, 881.5125
527.6415, 892.8074
528.1236, 900.6565
528.6057, 910.3161
529.0878, 925.9843
529.5699, 943.7254
530.0521, 961.2410
530.5342, 979.1906
531.0163, 993.2502
531.4984, 999.3932
531.9805, 1002.224
532.4626, 1006.681
532.9448, 1014.123
533.4269, 1022.537
533.9090, 1034.655
534.3911, 1047.907
534.8732, 1051.263
535.3553, 1040.730
535.8375, 1027.705
536.3196, 1016.732
536.8017, 1007.707
537.2838, 1000.846
537.7659, 997.1961
538.2480, 992.0274
538.7302, 979.5319
539.2123, 960.4364
539.6944, 940.3049
540.1765, 919.8157
540.6586, 899.7633
541.1407, 881.3018
541.6229, 863.9370
542.1050, 845.6268
542.5871, 823.0925
543.0692, 800.5217
543.5513, 781.7217
544.0334, 767.0503
544.5156, 754.8269
544.9977, 749.0867
545.4798, 742.7059
545.9619, 729.6393
546.4440, 699.9221
546.9261, 676.6317
547.4083, 666.6208
547.8904, 664.2679
548.3725, 659.7089
548.8546, 652.2493
549.3367, 643.6066
549.8188, 633.6419
550.3010, 622.5852
550.7831, 613.0927
551.2652, 605.2231
551.7473, 598.6990
552.2294, 593.0946
552.7115, 588.5149
553.1937, 587.1484
553.6758, 589.9139
554.1579, 592.7925
554.6400, 587.9512
555.1221, 578.8737
555.6042, 575.8803
556.0864, 587.4222
556.5685, 601.7516
557.0506, 608.2383
557.5327, 608.0379
558.0148, 605.2538
558.4969, 596.9271
558.9791, 590.3646
559.4612, 590.9573
559.9433, 600.6877
560.4254, 609.9770
560.9075, 616.6397
561.3896, 622.3601
561.8718, 628.8278
562.3539, 637.6229
562.8360, 644.1296
563.3181, 645.7172
563.8002, 645.8340
564.2823, 653.9069
564.7645, 671.6464
565.2466, 689.4517
565.7287, 704.0686
566.2108, 715.6110
566.6929, 723.9587
567.1750, 728.9918
567.6572, 732.0247
568.1393, 733.2882
568.6214, 733.4114
569.1035, 733.3480
569.5856, 732.9993
570.0677, 733.5054
570.5499, 737.8241
571.0320, 743.2133
571.5141, 745.3745
571.9962, 741.1977
572.4783, 735.0316
572.9604, 728.9172
573.4426, 722.4811
573.9247, 713.4435
574.4068, 703.0082
574.8889, 688.3455
575.3710, 667.0355
575.8531, 637.1478
576.3353, 612.5561
576.8174, 595.7281
577.2995, 580.8882
577.7816, 561.6523
578.2637, 537.4598
578.7458, 516.0165
579.2280, 498.9054
579.7101, 484.1534
580.1922, 467.5328
580.6743, 449.7344
581.1564, 434.6588
581.6385, 425.9452
582.1207, 419.9677
582.6028, 412.1148
583.0849, 402.6986
583.5670, 393.6350
584.0491, 385.9709
584.5313, 379.1853
585.0134, 373.0723
585.4955, 367.9836
585.9776, 362.3543
586.4597, 355.1191
586.9418, 347.4430
587.4240, 340.7297
587.9061, 335.3363
588.3882, 330.3448
588.8703, 325.8134
589.3524, 321.5793
589.8345, 316.8077
590.3167, 310.9469
590.7988, 306.7021
591.2809, 306.0086
591.7630, 308.0367
592.2451, 308.1701
592.7272, 306.3084
593.2094, 305.0066
593.6915, 307.9271
594.1736, 312.6084
594.6557, 313.9344
595.1378, 310.4252
595.6199, 306.2533
596.1021, 302.7955
596.5842, 301.1087
597.0663, 302.7089
597.5485, 314.1031
598.0306, 322.4992
598.5127, 321.5878
598.9948, 313.6805
599.4769, 309.1152
599.9590, 313.8856
600.4412, 315.4502
600.9233, 307.6671
601.4054, 289.3406
601.8875, 280.8101
602.3696, 284.6203
602.8517, 292.1678
603.3339, 295.9782
603.8160, 296.4790
604.2981, 299.5022
604.7802, 306.4163
605.2623, 313.3096
605.7444, 314.5822
606.2266, 311.6863
606.7087, 308.4539
607.1908, 305.9811
607.6729, 304.0085
608.1550, 301.4212
608.6371, 298.9855
609.1193, 299.1020
609.6014, 305.7920
610.0835, 312.6576
610.5656, 316.0451
611.0477, 315.0721
611.5298, 316.0813
612.0120, 322.4160
612.4941, 327.6628
612.9762, 326.1573
613.4583, 313.8438
613.9404, 310.5671
614.4225, 320.1283
614.9047, 333.6273
615.3868, 337.7736
615.8689, 333.2819
616.3510, 329.1879
616.8331, 328.4530
617.3152, 329.0508
617.7974, 326.4982
618.2795, 322.1642
618.7616, 321.1845
619.2437, 330.1737
619.7258, 340.7642
620.2079, 346.4945
620.6901, 347.0112
621.1722, 347.2780
621.6543, 348.7734
622.1364, 350.7543
622.6185, 353.1043
623.1006, 358.0161
623.5828, 357.9185
624.0649, 348.5114
624.5470, 338.0402
625.0291, 337.2649
625.5112, 348.1259
625.9933, 358.3473
626.4755, 365.5592
626.9576, 371.0295
627.4397, 378.0095
627.9218, 386.0470
628.4039, 391.6909
628.8860, 391.5453
629.3682, 388.9166
629.8503, 387.1974
630.3324, 386.6151
630.8145, 388.7810
631.2966, 396.4073
631.7787, 405.8536
632.2609, 415.0281
632.7430, 424.1516
633.2251, 431.0379
633.7072, 434.0819
634.1893, 435.3228
634.6714, 435.9560
635.1536, 433.3473
635.6357, 436.5609
636.1178, 448.5052
636.5999, 464.1326
637.0820, 473.7856
637.5641, 477.1732
638.0463, 480.2631
638.5284, 483.9311
639.0105, 489.4455
639.4926, 500.6516
639.9747, 516.7716
640.4568, 532.8954
640.9390, 546.8906
641.4211, 559.1777
641.9032, 569.2466
642.3853, 577.0365
642.8674, 586.5574
643.3495, 600.8082
643.8317, 616.3873
644.3138, 630.8043
644.7959, 640.4113
645.2780, 655.4126
645.7601, 676.7889
646.2422, 702.5915
646.7244, 732.7706
647.2065, 769.2355
647.6886, 797.8676
648.1707, 813.2493
648.6528, 823.2908
649.1349, 844.8761
649.6171, 876.5771
650.0992, 908.7949
650.5813, 936.3026
651.0634, 962.3488
651.5455, 990.7745
652.0276, 1021.484
652.5098, 1052.609
652.9919, 1085.238
653.4740, 1116.424
653.9561, 1143.251
654.4382, 1164.241
654.9203, 1188.377
655.4025, 1221.421
655.8846, 1254.201
656.3667, 1279.083
656.8488, 1290.679
657.3309, 1311.930
657.8130, 1346.758
658.2952, 1385.932
658.7773, 1419.417
659.2594, 1447.039
659.7415, 1462.556
660.2236, 1461.701
660.7057, 1452.471
661.1879, 1444.486
661.6700, 1437.348
662.1521, 1430.042
662.6342, 1424.090
663.1163, 1416.070
663.5984, 1405.302
664.0806, 1391.250
664.5627, 1370.222
665.0448, 1336.274
665.5269, 1299.893
666.0090, 1265.835
666.4911, 1235.133
666.9733, 1201.221
667.4554, 1163.636
667.9375, 1123.758
668.4196, 1082.097
668.9017, 1038.557
669.3839, 995.2628
669.8660, 952.3099
670.3481, 910.7804
670.8302, 872.2086
671.3123, 836.1636
671.7944, 801.2523
672.2766, 765.3177
672.7587, 733.8411
673.2408, 716.1062
673.7229, 704.6254
674.2050, 684.3936
674.6871, 637.2229
675.1693, 596.0620
675.6514, 571.8516
676.1335, 561.3622
676.6156, 548.3629
677.0977, 530.5259
677.5798, 515.6668
678.0620, 509.3146
678.5441, 510.0079
679.0262, 502.6971
679.5083, 486.8252
679.9904, 471.0775
680.4725, 463.4263
680.9547, 460.3270
681.4368, 455.3152
681.9189, 447.5029
682.4010, 439.6788
682.8831, 435.7882
683.3652, 431.8850
683.8474, 423.5832
684.3295, 402.9239
684.8116, 388.9464
685.2937, 388.7998
685.7758, 394.8287
686.2579, 397.3822
686.7401, 395.1712
687.2222, 393.1740
687.7043, 392.8275
688.1864, 392.6807
688.6685, 388.5286
689.1506, 380.6306
689.6328, 373.1040
690.1149, 366.1227
690.5970, 361.6075
691.0791, 365.2861
691.5612, 375.1938
692.0433, 381.2642
692.5255, 374.4517
693.0076, 365.1141
693.4897, 359.9183
693.9718, 359.7744
694.4539, 358.9489
694.9360, 356.5892
695.4182, 353.4217
695.9003, 349.6058
696.3824, 344.9222
696.8645, 340.6161
697.3466, 336.5030
697.8287, 333.2523
698.3109, 331.1013
698.7930, 330.2936
699.2751, 333.2106
699.7572, 341.5869
700.2393, 348.7705
700.7214, 345.1786
701.2036, 336.1564
701.6857, 330.7113
702.1678, 337.8562
702.6499, 342.3392
703.1320, 334.3215
703.6141, 319.5468
704.0963, 312.7760
704.5784, 321.1482
705.0605, 327.5414
705.5426, 327.7485
706.0247, 323.2331
706.5068, 320.1452
706.9890, 318.4324
707.4711, 318.4197
707.9532, 321.3578
708.4353, 325.8902
708.9174, 328.2313
709.3995, 328.5796
709.8817, 328.7583
710.3638, 331.8694
710.8459, 334.1543
711.3280, 330.8381
711.8101, 320.4450
712.2922, 313.5233
712.7744, 317.1515
713.2565, 322.1819
713.7386, 322.0596
714.2207, 313.1957
714.7028, 308.7671
715.1849, 310.1281
715.6671, 313.5040
716.1492, 314.2388
716.6313, 312.6831
717.1134, 313.5288
717.5955, 318.1460
718.0776, 323.4918
718.5598, 324.8776
719.0419, 324.3640
719.5240, 326.0804
720.0061, 335.6231
720.4882, 342.7105
720.9703, 340.4350
721.4525, 332.4434
721.9346, 327.0441
722.4167, 327.7875
722.8988, 327.9953
723.3809, 326.7220
723.8630, 323.9656
724.3452, 318.4987
724.8273, 309.4757
725.3094, 303.9656
725.7915, 307.3019
726.2736, 315.8650
726.7557, 320.4136
727.2379, 321.3153
727.7200, 321.4676
728.2021, 323.4889
728.6842, 325.0305
729.1663, 323.3866
729.6484, 318.2253
730.1306, 314.5331
730.6127, 314.9717
731.0948, 316.2719
731.5769, 316.6695
732.0590, 316.0063
732.5411, 315.0711
733.0233, 313.8077
733.5054, 312.3992
733.9875, 311.4037
734.4696, 310.5876
734.9517, 307.2951
735.4338, 300.5014
735.9160, 295.5422
736.3981, 298.9807
736.8802, 307.3952
737.3623, 316.2198
737.8444, 326.3391
738.3266, 332.6227
738.8087, 331.2899
739.2908, 325.6097
739.7729, 320.1144
740.2551, 313.0895
740.7372, 310.1400
741.2193, 314.0777
741.7014, 320.6073
742.1835, 319.1419
742.6656, 309.5724
743.1478, 303.3482
743.6299, 305.5449
744.1120, 311.2527
744.5941, 312.6801
745.0762, 311.0553
745.5583, 310.2406
746.0405, 314.8458
746.5226, 318.2650
747.0047, 315.1445
747.4868, 306.8865
747.9689, 302.0332
748.4510, 304.6558
748.9332, 306.8831
749.4153, 306.0869
749.8974, 302.5654
750.3795, 299.3588
750.8616, 296.2608
751.3438, 295.0857
751.8259, 298.3073
752.3080, 304.0300
752.7901, 307.7318
753.2722, 309.3760
753.7543, 310.7462
754.2365, 315.2426
754.7186, 318.4371
755.2007, 315.4892
755.6828, 304.3076
756.1649, 296.4164
756.6470, 295.2992
757.1292, 296.5491
757.6113, 297.9348
758.0934, 299.7160
758.5755, 300.2488
759.0576, 299.2160
759.5397, 298.0092
760.0219, 298.4331
760.5040, 299.8915
760.9861, 300.5603
761.4682, 300.1710
761.9503, 298.8719
762.4324, 294.8512
762.9146, 290.8038
763.3967, 290.1188
763.8788, 297.1937
764.3609, 301.8078
764.8430, 299.9794
765.3251, 296.1590
765.8073, 295.5014
766.2894, 298.9571
766.7715, 301.9203
767.2536, 303.8801
767.7357, 304.8347
768.2178, 304.2573
768.7000, 302.5373
769.1821, 301.3259
769.6642, 301.2910
770.1463, 301.7190
770.6284, 302.2713
771.1105, 302.8074
771.5927, 303.0558
772.0748, 302.2990
772.5569, 301.9869
773.0390, 302.5377
773.5211, 303.7403
774.0032, 305.8282
774.4854, 310.1076
774.9675, 309.7051
775.4496, 299.8210
775.9317, 286.3423
776.4138, 285.5233
776.8959, 295.3946
777.3781, 305.2224
777.8602, 310.6268
778.3423, 312.5920
778.8244, 310.0898
779.3065, 304.4072
779.7886, 300.8233
780.2708, 305.7382
780.7529, 307.7582
781.2350, 301.0585
781.7171, 287.1853
782.1992, 281.7729
782.6813, 287.0781
783.1635, 292.0238
783.6456, 289.6952
784.1277, 282.8593
784.6098, 280.5958
785.0919, 282.6237
785.5740, 285.9404
786.0562, 289.6711
786.5383, 293.1176
787.0204, 296.0243
787.5025, 298.3694
787.9846, 298.8565
788.4667, 296.0302
788.9489, 292.3156
789.4310, 288.3271
789.9131, 284.0069
790.3952, 280.8404
790.8773, 278.6578
791.3594, 278.5409
791.8416, 277.9301
792.3237, 284.8597
792.8058, 288.4597
793.2879, 288.9089
793.7700, 276.7702
794.2521, 280.8861
794.7343, 278.4877
795.2164, 275.8225
795.6985, 282.2260
796.1806, 271.9182
796.6627, 278.1780
797.1448, 277.8244
797.6270, 280.4973
798.1091, 276.6162
798.5912, 274.7594
799.0733, 280.2256
799.5554, 286.9344
800.0375, 283.8944
800.5197, 276.2716
801.0018, 275.1698
801.4839, 283.0073
801.9660, 289.4629
802.4481, 286.5340
802.9302, 280.5654
803.4124, 276.9300
803.8945, 277.6807
804.3766, 277.8126
804.8587, 276.7032
805.3408, 275.7971
805.8229, 276.4412
806.3051, 278.6293
806.7872, 281.8846
807.2693, 286.5204
807.7514, 290.0916
808.2335, 288.4536
808.7156, 284.7137
809.1978, 284.2246
809.6799, 289.6777
810.1620, 293.0530
810.6441, 288.6588
811.1262, 281.9236
811.6083, 278.1767
812.0905, 278.3465
812.5726, 279.5450
813.0547, 281.6082
813.5368, 284.8741
814.0189, 291.1367
814.5010, 299.4575
814.9832, 304.7065
815.4653, 306.2858
815.9474, 303.4097
816.4295, 289.7328
816.9116, 273.5337
817.3937, 265.5138
817.8759, 272.4488
818.3580, 279.6148
818.8401, 285.1374
819.3222, 288.8246
819.8043, 290.3852
820.2864, 289.6984
820.7686, 286.5870
821.2507, 279.8907
821.7328, 274.3016
822.2149, 278.4314
822.6970, 288.3583
823.1791, 293.9995
823.6613, 292.2575
824.1434, 288.5601
824.6255, 284.4760
825.1076, 281.3137
825.5897, 280.5941
826.0718, 284.9675
826.5540, 288.5976
827.0361, 292.2484
827.5182, 294.3112
828.0003, 291.3321
828.4824, 283.4381
828.9645, 280.1580
829.4467, 283.4661
829.9288, 289.3291
830.4109, 295.5755
830.8930, 300.5532
831.3751, 301.3391
831.8572, 295.2587
832.3394, 289.3087
832.8215, 284.6475
833.3036, 282.0603
833.7857, 282.1455
834.2678, 285.1344
834.7499, 290.7780
835.2321, 300.4285
835.7142, 309.4884
836.1963, 311.5590
836.6784, 308.0745
837.1605, 303.5996
837.6426, 298.4796
838.1248, 295.0381
838.6069, 298.3935
839.0890, 302.8453
839.5711, 301.3841
840.0532, 284.0312
840.5353, 277.1358
841.0175, 288.0896
841.4996, 303.6724
841.9817, 310.2470
842.4638, 307.5144
842.9459, 303.6986
843.4280, 298.9970
843.9102, 296.2746
844.3923, 300.2523
844.8744, 307.8235
845.3565, 314.0782
845.8386, 318.0286
846.3207, 320.8119
846.8029, 324.5458
847.2850, 326.1460
847.7671, 322.2442
848.2492, 308.1494
848.7313, 302.0063
849.2134, 305.8540
849.6956, 312.5784
850.1777, 313.0353
850.6598, 310.3204
851.1419, 318.2315
851.6240, 339.8676
852.1061, 357.0426
852.5883, 351.4865
853.0704, 337.9107
853.5525, 329.1437
854.0346, 327.3749
854.5167, 330.8821
854.9988, 343.6480
855.4810, 356.0600
855.9631, 361.2181
856.4452, 359.0306
856.9273, 354.5598
857.4094, 347.7052
857.8915, 341.8082
858.3737, 340.2876
858.8558, 341.2874
859.3379, 341.9622
859.8200, 341.7627
860.3021, 344.7016
860.7842, 356.9265
861.2664, 368.5554
861.7485, 372.8013
862.2306, 368.3554
862.7127, 371.0877
863.1948, 382.4402
863.6769, 394.7187
864.1591, 403.4536
864.6412, 408.8836
865.1233, 411.3027
865.6054, 410.9054
866.0875, 409.6088
866.5696, 406.6514
867.0518, 404.7589
867.5339, 406.6982
868.0160, 412.8737
868.4981, 415.0827
868.9802, 409.9327
869.4623, 408.0663
869.9445, 416.4952
870.4266, 432.1870
870.9087, 440.5952
871.3908, 442.3633
871.8729, 443.2753
872.3550, 448.1280
872.8372, 452.6685
873.3193, 451.7245
873.8014, 446.5823
874.2835, 444.8891
874.7656, 454.9035
875.2477, 460.2241
875.7299, 453.0956
876.2120, 438.9427
876.6941, 441.4271
877.1762, 460.4778
877.6583, 477.2446
878.1404, 482.5488
878.6226, 482.1122
879.1047, 482.0854
879.5869, 482.4131
880.0690, 482.9498
880.5511, 483.2194
881.0332, 484.1811
881.5153, 486.0084
881.9974, 488.7281
882.4796, 492.9211
882.9617, 499.0672
883.4438, 503.7766
883.9259, 505.7020
884.4080, 506.8607
884.8901, 510.9913
885.3723, 516.8097
885.8544, 521.3246
886.3365, 523.1717
886.8186, 523.9962
887.3007, 522.1355
887.7828, 520.6874
888.2650, 524.3965
888.7471, 536.4256
889.2292, 545.4866
889.7113, 551.3255
890.1934, 552.4737
890.6755, 542.2663
891.1577, 525.7500
891.6398, 520.2120
892.1219, 531.0504
892.6040, 541.8937
893.0861, 540.0487
893.5682, 533.5383
894.0504, 529.5356
894.5325, 528.6342
895.0146, 532.3295
895.4967, 543.7224
895.9788, 553.9740
896.4609, 553.6002
896.9431, 544.7381
897.4252, 540.9863
897.9073, 543.1039
898.3894, 546.2500
898.8715, 547.4806
899.3536, 547.6412
899.8358, 547.7880
900.3179, 548.1661
900.8000, 546.1068
901.2821, 539.4549
901.7642, 533.2069
902.2463, 528.9141
902.7285, 526.8495
903.2106, 530.5022
903.6927, 539.5554
904.1748, 546.1169
904.6569, 542.8196
905.1390, 536.6247
905.6212, 535.0494
906.1033, 536.9943
906.5854, 536.9595
907.0675, 531.1721
907.5496, 525.8608
908.0317, 522.2081
908.5139, 520.1589
908.9960, 520.2043
909.4781, 522.3570
909.9602, 523.2009
910.4423, 520.7807
910.9244, 517.7145
911.4066, 516.8875
911.8887, 517.7675
912.3708, 519.3783
912.8529, 522.1108
913.3350, 524.6214
913.8171, 526.2032
914.2993, 527.7614
914.7814, 530.9666
915.2635, 536.0806
915.7456, 539.1755
916.2277, 539.4646
916.7098, 538.6461
917.1920, 538.1899
917.6741, 538.0920
918.1562, 538.3992
918.6383, 539.2071
919.1204, 540.0946
919.6025, 539.0718
920.0847, 539.6887
920.5668, 544.7462
921.0489, 555.0212
921.5310, 564.8552
922.0131, 574.3668
922.4952, 582.2115
922.9774, 587.7492
923.4595, 590.6696
923.9416, 589.0320
924.4237, 583.1892
924.9058, 579.2970
925.3879, 579.5557
925.8701, 582.7545
926.3522, 589.6975
926.8343, 599.4728
927.3164, 603.6766
927.7985, 601.6348
928.2806, 600.3250
928.7628, 602.1520
929.2449, 607.3021
929.7270, 619.0787
930.2091, 634.5251
930.6912, 645.9682
931.1733, 646.8549
931.6555, 647.0456
932.1376, 646.9700
932.6197, 649.0613
933.1018, 659.0720
933.5839, 678.6551
934.0660, 693.6853
934.5482, 700.6027
935.0303, 705.7779
935.5124, 719.0017
935.9945, 736.0480
936.4766, 748.6558
936.9587, 752.3223
937.4409, 759.2456
937.9230, 775.6294
938.4051, 795.2738
938.8872, 813.4666
939.3693, 829.9507
939.8514, 848.8881
940.3336, 871.0306
940.8157, 888.8235
941.2978, 889.8908
941.7799, 885.7852
942.2620, 894.2703
942.7441, 915.8121
943.2263, 938.7975
943.7084, 958.5451
944.1905, 978.5983
944.6726, 999.8613
945.1547, 1022.503
945.6368, 1048.700
946.1190, 1079.033
946.6011, 1106.348
947.0832, 1124.617
947.5653, 1141.349
948.0474, 1165.614
948.5295, 1196.583
949.0117, 1232.327
949.4938, 1281.413
949.9759, 1322.829
950.4580, 1346.386
950.9401, 1365.453
951.4222, 1402.203
951.9044, 1457.167
952.3865, 1505.450
952.8686, 1542.315
953.3507, 1575.537
953.8328, 1612.309
954.3149, 1650.896
954.7971, 1689.662
955.2792, 1727.961
955.7613, 1764.724
956.2434, 1797.624
956.7255, 1831.624
957.2076, 1870.737
957.6898, 1914.875
958.1719, 1954.918
958.6540, 1991.210
959.1361, 2025.356
959.6182, 2059.459
960.1003, 2091.622
960.5825, 2120.487
961.0646, 2146.154
961.5467, 2169.592
962.0288, 2191.990
962.5109, 2210.150
962.9930, 2221.475
963.4752, 2229.211
963.9573, 2243.812
964.4394, 2263.085
964.9215, 2274.238
965.4036, 2272.550
965.8857, 2262.294
966.3679, 2241.017
966.8500, 2215.808
967.3321, 2196.169
967.8142, 2194.041
968.2963, 2177.631
968.7784, 2143.863
969.2606, 2102.006
969.7427, 2058.123
970.2248, 2014.198
970.7069, 1980.201
971.1890, 1956.837
971.6711, 1929.483
972.1533, 1885.106
972.6354, 1836.737
973.1175, 1790.664
973.5996, 1747.634
974.0817, 1718.612
974.5638, 1709.426
975.0460, 1692.932
975.5281, 1652.145
976.0102, 1601.915
976.4923, 1577.686
976.9744, 1570.873
977.4565, 1556.257
977.9387, 1513.907
978.4208, 1472.340
978.9029, 1442.814
979.3850, 1419.277
979.8671, 1392.779
980.3492, 1362.096
980.8314, 1337.559
981.3135, 1321.516
981.7956, 1305.873
982.2777, 1280.294
982.7598, 1249.799
983.2419, 1221.448
983.7241, 1196.478
984.2062, 1172.017
984.6883, 1149.165
985.1704, 1124.412
985.6525, 1094.116
986.1346, 1059.501
986.6168, 1035.887
987.0989, 1022.866
987.5810, 1007.610
988.0631, 978.5048
988.5452, 947.2604
989.0273, 927.6172
989.5095, 914.7202
989.9916, 896.1313
990.4737, 863.1425
990.9558, 833.8804
991.4379, 810.3192
991.9200, 791.9293
992.4022, 779.3147
992.8843, 771.5997
993.3664, 764.7696
993.8485, 758.3137
994.3306, 751.7137
994.8127, 744.2122
995.2949, 736.6748
995.7770, 730.7454
996.2591, 727.3965
996.7412, 717.7466
997.2233, 699.4991
997.7054, 683.6618
998.1876, 680.2407
998.6697, 682.6279
999.1518, 675.8353
999.6339, 661.4625
1000.116, 645.9393
1000.598, 627.3385
1001.080, 613.5455
1001.562, 608.6567
1002.044, 609.4463
1002.527, 611.4429
1003.009, 614.9016
1003.491, 615.6189
1003.973, 612.7213
1004.455, 607.3707
1004.937, 598.3082
1005.419, 588.8239
1005.901, 583.7158
1006.384, 585.1675
1006.866, 585.0554
1007.348, 580.0834
1007.830, 576.9858
1008.312, 581.2703
1008.794, 590.9220
1009.276, 593.2188
1009.758, 588.9105
1010.240, 584.4014
1010.723, 585.2913
1011.205, 585.3217
1011.687, 578.2068
1012.169, 567.4186
1012.651, 562.5381
1013.133, 565.7535
1013.615, 568.4896
1014.097, 568.7817
1014.580, 570.0662
1015.062, 581.8992
1015.544, 596.8022
1016.026, 598.0305
1016.508, 579.5654
1016.990, 564.9712
1017.472, 567.7314
1017.954, 573.4569
1018.436, 573.2936
1018.919, 567.7104
1019.401, 568.0237
1019.883, 574.2505
1020.365, 580.0739
1020.847, 580.8388
1021.329, 580.3062
1021.811, 582.6187
1022.293, 586.5458
1022.776, 588.9788
1023.258, 585.7225
1023.740, 587.4087
1024.222, 596.8061
1024.704, 608.6076
1025.186, 616.1759
1025.668, 619.9869
1026.150, 620.8766
1026.632, 618.8085
1027.115, 616.3198
1027.597, 613.8987
1028.079, 612.4904
1028.561, 613.0530
1029.043, 615.4512
1029.525, 617.2291
1030.007, 618.1874
1030.489, 620.1262
1030.972, 625.6777
1031.454, 630.6108
1031.936, 626.3503
1032.418, 617.2965
1032.900, 612.9296
1033.382, 617.9333
1033.864, 626.1829
1034.346, 640.1249
1034.828, 652.6982
1035.311, 654.7838
1035.793, 647.7980
1036.275, 640.3747
1036.757, 633.1498
1037.239, 626.7760
1037.721, 621.1816
1038.203, 617.0276
1038.685, 615.8769
1039.167, 617.2115
1039.650, 615.6454
1040.132, 610.1826
1040.614, 606.3802
1041.096, 606.8254
1041.578, 608.7782
1042.060, 606.3685
1042.542, 602.6237
1043.024, 603.8269
1043.507, 617.3022
1043.989, 624.6921
1044.471, 620.5085
1044.953, 612.0533
1045.435, 603.6202
1045.917, 595.4487
1046.399, 591.2295
1046.881, 590.8580
1047.364, 590.3547
1047.846, 585.2030
1048.328, 580.6852
1048.810, 583.0724
1049.292, 589.5317
1049.774, 587.0033
1050.256, 571.3736
1050.738, 561.4050
1051.220, 561.7134
1051.703, 566.7060
1052.185, 571.4946
1052.667, 574.2959
1053.149, 570.6475
1053.631, 557.5098
1054.113, 548.3737
1054.595, 547.9674
1055.077, 551.2828
1055.559, 557.4852
1056.042, 565.5469
1056.524, 567.8118
1057.006, 564.9149
1057.488, 562.0507
1057.970, 564.8430
1058.452, 565.6638
1058.934, 555.9221
1059.416, 542.0654
1059.899, 536.7917
1060.381, 543.2100
1060.863, 547.9144
1061.345, 549.8939
1061.827, 549.8046
1062.309, 545.3884
1062.791, 540.8215
1063.273, 544.9026
1063.755, 557.9739
1064.238, 564.5472
1064.720, 552.3583
1065.202, 543.7275
1065.684, 546.5862
1066.166, 556.4025
1066.648, 560.5124
1067.130, 559.9827
1067.612, 560.1406
1068.094, 563.0686
1068.577, 566.1123
1069.059, 567.3157
1069.541, 568.1422
1070.023, 570.6208
1070.505, 575.8566
1070.987, 575.2239
1071.469, 568.0032
1071.951, 561.8805
1072.434, 561.4567
1072.916, 565.5186
1073.398, 576.2249
1073.880, 590.5907
1074.362, 598.4112
1074.844, 595.6224
1075.326, 588.4492
1075.808, 574.0901
1076.291, 561.7813
1076.773, 569.4576
1077.255, 589.2441
1077.737, 598.1536
1078.219, 592.5507
1078.701, 582.8952
1079.183, 570.7850
1079.665, 559.6798
1080.147, 550.7887
1080.630, 544.2003
1081.112, 540.8514
1081.594, 540.6316
1082.076, 540.3276
1082.558, 539.4265
1083.040, 536.6482
1083.522, 530.0551
1084.004, 521.2422
1084.486, 512.1264
1084.969, 501.8642
1085.451, 494.6161
1085.933, 491.5154
1086.415, 487.4038
1086.897, 476.5478
1087.379, 462.9649
1087.861, 453.1213
1088.343, 446.8661
1088.826, 442.8218
1089.308, 442.4640
1089.790, 441.8428
1090.272, 440.3277
1090.754, 438.1340
1091.236, 434.9485
1091.718, 431.2646
1092.200, 430.4468
1092.682, 433.4004
1093.165, 433.4239
1093.647, 421.2465
1094.129, 409.4657
1094.611, 406.5657
1095.093, 411.3071
1095.575, 416.6729
1096.057, 422.9207
1096.539, 422.4676
1097.022, 409.0541
1097.504, 394.7743
1097.986, 393.1508
1098.468, 398.0204
1098.950, 400.7386
1099.432, 397.7127
1099.914, 400.0040
1100.396, 410.2425
1100.879, 417.1678
1101.361, 408.5031
1101.843, 392.7982
1102.325, 385.8824
1102.807, 386.6234
1103.289, 390.2012
1103.771, 398.7224
1104.253, 404.6857
1104.735, 407.0353
1105.218, 406.3441
1105.700, 402.7115
1106.182, 396.6060
1106.664, 389.0594
1107.146, 380.0319
1107.628, 375.5808
1108.110, 385.3414
1108.592, 394.7024
1109.074, 394.4782
1109.557, 387.1133
1110.039, 381.1926
1110.521, 376.6389
1111.003, 377.3174
1111.485, 386.2416
1111.967, 394.9117
1112.449, 395.3200
1112.931, 390.9255
1113.414, 384.6448
1113.896, 375.9657
1114.378, 370.6039
1114.860, 369.0863
1115.342, 368.5943
1115.824, 367.5687
1116.306, 366.5863
1116.788, 366.9643
1117.271, 368.0595
1117.753, 368.4387
1118.235, 367.4107
1118.717, 365.7776
1119.199, 362.9880
1119.681, 360.7566
1120.163, 362.6314
1120.645, 366.1567
1121.127, 361.7766
1121.609, 350.3060
1122.092, 343.2217
1122.574, 353.0667
1123.056, 359.9232
1123.538, 355.9621
1124.020, 346.2962
1124.502, 340.6849
1124.984, 338.7573
1125.466, 337.2420
1125.949, 335.4845
1126.431, 334.9943
1126.913, 339.3050
1127.395, 343.1607
1127.877, 342.3022
1128.359, 337.3061
1128.841, 331.9763
1129.323, 326.1970
1129.806, 322.0163
1130.288, 320.6136
1130.770, 320.1624
1131.252, 318.5993
1131.734, 316.9821
1132.216, 317.1097
1132.698, 320.4669
1133.180, 320.0949
1133.662, 314.9164
1134.145, 310.5767
1134.627, 312.1463
1135.109, 315.7623
1135.591, 315.2132
1136.073, 311.7485
1136.555, 308.5485
1137.037, 308.7118
1137.519, 304.8521
1138.001, 293.9081
1138.484, 284.4905
1138.966, 289.1203
1139.448, 301.3513
1139.930, 305.2232
1140.412, 300.5378
1140.894, 294.1500
1141.376, 287.0478
1141.858, 280.9130
1142.341, 276.2393
1142.823, 272.5684
1143.305, 268.1583
1143.787, 263.7992
1144.269, 264.2153
1144.751, 270.8405
1145.233, 274.8728
1145.715, 268.9211
1146.198, 261.2678
1146.680, 256.4840
1147.162, 253.9039
1147.644, 250.3939
1148.126, 246.0524
1148.608, 242.2320
1149.090, 238.8414
1149.572, 237.3128
1150.054, 241.3702
1150.536, 245.9024
1151.019, 245.0512
1151.501, 238.0204
1151.983, 237.5659
1152.465, 244.0420
1152.947, 248.1844
1153.429, 242.4901
1153.911, 235.0515
1154.393, 235.7215
1154.876, 239.3596
1155.358, 235.8577
1155.840, 219.2745
1156.322, 213.5567
1156.804, 220.9863
1157.286, 229.1326
1157.768, 226.2413
1158.250, 219.5285
1158.733, 219.5733
1159.215, 224.0136
1159.697, 222.3646
1160.179, 207.1318
1160.661, 199.3569
1161.143, 202.7059
1161.625, 210.4931
1162.107, 217.3819
1162.589, 222.3580
1163.072, 221.8877
1163.554, 216.3233
1164.036, 214.6983
1164.518, 221.9315
1165.000, 228.8690
1165.482, 233.7504
1165.964, 236.6859
1166.446, 237.7446
1166.928, 237.0060
1167.411, 234.2024
1167.893, 228.9192
1168.375, 224.2378
1168.857, 219.5206
1169.339, 218.0502
1169.821, 223.2500
1170.303, 231.0856
1170.785, 226.2578
1171.268, 213.7282
1171.750, 211.1996
1172.232, 230.5882
1172.714, 243.9607
1173.196, 233.4891
1173.678, 219.7232
1174.160, 214.7938
1174.642, 217.2945
1175.125, 219.1836
1175.607, 220.4755
1176.089, 221.1312
1176.571, 220.0329
1177.053, 219.7769
1177.535, 222.7300
1178.017, 226.1372
1178.499, 228.0250
1178.981, 228.3807
1179.464, 223.0085
1179.946, 212.4893
1180.428, 206.3798
1180.910, 216.6823
1181.392, 226.4390
1181.874, 225.0727
1182.356, 218.1636
1182.838, 214.3595
1183.320, 213.7762
1183.803, 211.3061
1184.285, 206.4475
1184.767, 203.1112
1185.249, 205.0018
1185.731, 208.6448
1186.213, 212.9359
1186.695, 216.8719
1187.177, 217.1259
1187.660, 213.2557
1188.142, 213.7704
1188.624, 220.8864
1189.106, 225.6593
1189.588, 213.8884
1190.070, 201.6951
1190.552, 205.8737
1191.034, 223.5182
1191.516, 229.2053
1191.999, 221.4528
1192.481, 216.2986
1192.963, 218.4237
1193.445, 221.8900
1193.927, 219.6966
1194.409, 216.5699
1194.891, 218.4577
1195.373, 225.8504
1195.855, 228.0471
1196.338, 224.5739
1196.820, 220.1178
1197.302, 216.4718
1197.784, 212.7304
1198.266, 205.2255
1198.748, 198.4668
1199.230, 200.0121
1199.712, 213.0520
1200.195, 216.2448
1200.677, 208.1811
1201.159, 200.0775
1201.641, 197.7545
1202.123, 198.6646
1202.605, 201.2940
1203.087, 204.6814
1203.569, 207.2319
1204.052, 208.2287
1204.534, 208.7118
1205.016, 203.0655
1205.498, 210.7145
1205.980, 215.0338
1206.462, 216.2024
1206.944, 204.7831
1207.426, 209.6183
1207.908, 207.9395
1208.391, 205.9937
1208.873, 213.1167
1209.355, 203.5283
1209.837, 210.5075
1210.319, 210.8732
1210.801, 214.2657
1211.283, 211.1039
1211.765, 209.9666
1212.247, 215.3856
1212.730, 217.1745
1213.212, 213.2582
1213.694, 216.8431
1214.176, 207.0258
1214.658, 210.1907
1215.140, 212.6263
1215.622, 213.1537
1216.104, 212.2043
1216.587, 213.1682
1217.069, 217.3377
1217.551, 218.7361
1218.033, 210.2018
1218.515, 217.9981
1218.997, 222.4645
1219.479, 223.7803
1219.961, 212.5082
1220.443, 217.4906
1220.926, 215.9594
1221.408, 214.1606
1221.890, 221.4308
1222.372, 211.9895
1222.854, 218.8530
1223.336, 218.2509
1223.818, 216.4728
1224.300, 214.1481
1224.782, 211.4214
1225.265, 213.1941
1225.747, 221.3553
1226.229, 224.2121
1226.711, 216.4070
1227.193, 206.7722
1227.675, 206.2864
1228.157, 209.9225
1228.639, 212.6361
1229.122, 213.9929
1229.604, 209.2482
1230.086, 196.6477
1230.568, 189.9413
1231.050, 196.5654
1231.532, 206.8174
1232.014, 210.6272
1232.496, 210.9050
1232.979, 211.1781
1233.461, 211.8371
1233.943, 212.2939
1234.425, 212.6670
1234.907, 211.2920
1235.389, 205.0605
1235.871, 200.5286
1236.353, 207.4306
1236.835, 218.1364
1237.318, 222.1376
1237.800, 218.2908
1238.282, 214.4081
1238.764, 210.4605
1239.246, 207.6250
1239.728, 205.9511
1240.210, 206.5054
1240.692, 213.5449
1241.175, 221.5520
1241.657, 222.1204
1242.139, 213.1108
1242.621, 211.2628
1243.103, 216.6270
1243.585, 221.7584
1244.067, 223.4768
1244.549, 221.9698
1245.031, 214.1561
1245.514, 204.9699
1245.996, 201.1734
1246.478, 203.1251
1246.960, 207.3150
1247.442, 213.4080
1247.924, 215.7010
1248.406, 203.1008
1248.888, 193.8532
1249.370, 202.3656
1249.853, 217.8337
1250.335, 226.7131
1250.817, 229.0772
1251.299, 228.4339
1251.781, 225.2156
1252.263, 223.3670
1252.745, 228.2579
1253.227, 231.5504
1253.710, 228.2136
1254.192, 222.3381
1254.674, 218.3948
1255.156, 216.3521
1255.638, 216.8139
1256.120, 219.5070
1256.602, 221.0578
1257.084, 217.4530
1257.567, 215.2490
1258.049, 217.0703
1258.531, 220.4977
1259.013, 222.9454
1259.495, 224.1274
1259.977, 221.6048
1260.459, 215.7886
1260.941, 212.8664
1261.423, 221.1803
1261.906, 224.7281
1262.388, 218.1957
1262.870, 208.4815
1263.352, 204.7393
1263.834, 205.7682
1264.316, 211.3061
1264.798, 220.4289
1265.280, 223.4572
1265.762, 211.3275
1266.245, 202.7305
1266.727, 200.9561
1267.209, 203.8301
1267.691, 212.6034
1268.173, 221.9436
1268.655, 220.8298
1269.137, 209.2128
1269.619, 203.2130
1270.102, 205.7896
1270.584, 210.8929
1271.066, 218.3170
1271.548, 224.2766
1272.030, 223.1453
1272.512, 218.2695
1272.994, 212.0407
1273.476, 205.2966
1273.958, 203.4808
1274.441, 207.9680
1274.923, 210.9618
1275.405, 210.5130
1275.887, 209.2098
1276.369, 209.9748
1276.851, 211.0118
1277.333, 210.1953
1277.815, 207.9107
1278.297, 207.3320
1278.780, 208.5920
1279.262, 208.3847
1279.744, 205.5523
1280.226, 203.7053
1280.708, 205.9276
1281.190, 210.1898
1281.672, 216.2690
1282.154, 222.9016
1282.637, 225.0278
1283.119, 223.0862
1283.601, 221.2049
1284.083, 220.2922
1284.565, 219.1912
1285.047, 215.5844
1285.529, 213.5571
1286.011, 215.3009
1286.494, 219.6760
1286.976, 224.6115
1287.458, 229.3375
1287.940, 230.5538
1288.422, 227.0762
1288.904, 224.4753
1289.386, 226.6385
1289.868, 227.2614
1290.350, 223.1971
1290.833, 218.0102
1291.315, 220.7658
1291.797, 227.1488
1292.279, 228.2585
1292.761, 221.8711
1293.243, 215.3391
1293.725, 208.0742
1294.207, 205.0894
1294.689, 209.2260
1295.172, 215.4697
1295.654, 216.7103
1296.136, 215.4373
1296.618, 214.9436
1297.100, 215.7801
1297.582, 215.8715
1298.064, 215.3419
1298.546, 212.9299
1299.029, 207.4881
1299.511, 202.4639
1299.993, 200.5426
1300.475, 201.5391
1300.957, 207.5833
1301.439, 217.0553
1301.921, 218.6986
1302.403, 212.8836
1302.885, 210.9788
1303.368, 217.1842
##END=



