##NAMES=Riebeckite
##RRUFFID=R050082
##IDEAL CHEMISTRY=[box]Na_2_(Fe^2+^_3_Fe^3+^_2_)Si_8_O_22_(OH)_2_
##LOCALITY=Mt. Malosa, Zomba, Chilwa, Alkaline Area, Malawi
##OWNER=RRUFF
##SOURCE=Rock Currier
##DESCRIPTION=Black elongated prisms
##STATUS=The identification of this mineral has been confirmed by X-ray diffraction and chemical analysis
##URL=rruff.info/R050082
##MEASURED CHEMISTRY=([box]_0.63_Na_0.19_K_0.18_)(Na_1.58_Ca_0.42_)_Σ=2_Fe^2+^_3.00_(Fe^3+^_1.30_Fe^2+^_0.45_Mn_0.15_Mg_0.05_Ti_0.05_)_Σ=2_(Si_0.98_Al_0.02_)_8_O_22_(OH)_2_
130.260, 339.172
130.743, 343.105
131.225, 350.189
131.707, 360.031
132.189, 369.471
132.671, 372.452
133.153, 358.955
133.635, 354.987
134.117, 366.599
134.600, 386.125
135.082, 405.664
135.564, 422.540
136.046, 437.025
136.528, 449.415
137.010, 457.655
137.492, 467.651
137.974, 480.398
138.456, 495.561
138.939, 512.842
139.421, 532.440
139.903, 553.513
140.385, 573.201
140.867, 587.362
141.349, 607.337
141.831, 642.781
142.313, 687.089
142.796, 724.594
143.278, 748.175
143.760, 760.916
144.242, 772.103
144.724, 786.691
145.206, 792.610
145.688, 784.185
146.170, 762.355
146.652, 728.975
147.135, 679.626
147.617, 622.835
148.099, 576.511
148.581, 542.385
149.063, 515.473
149.545, 492.433
150.027, 473.419
150.509, 461.393
150.992, 459.696
151.474, 465.374
151.956, 471.986
152.438, 479.722
152.920, 487.538
153.402, 492.424
153.884, 494.278
154.366, 501.831
154.848, 524.086
155.331, 552.602
155.813, 575.105
156.295, 586.920
156.777, 596.297
157.259, 611.907
157.741, 634.227
158.223, 658.491
158.705, 683.022
159.187, 708.284
159.669, 734.608
160.152, 761.263
160.634, 790.227
161.116, 825.438
161.598, 868.675
162.080, 911.159
162.562, 950.837
163.044, 987.304
163.527, 1020.644
164.009, 1054.383
164.491, 1080.445
164.973, 1086.077
165.455, 1069.228
165.937, 1037.816
166.419, 986.978
166.901, 926.775
167.383, 866.879
167.865, 809.998
168.348, 756.210
168.830, 705.315
169.312, 656.646
169.794, 613.140
170.276, 574.095
170.758, 540.872
171.240, 516.435
171.723, 503.456
172.205, 497.074
172.687, 486.957
173.169, 470.729
173.651, 456.057
174.133, 446.588
174.615, 439.330
175.097, 430.966
175.579, 419.873
176.061, 407.532
176.544, 397.231
177.026, 388.649
177.508, 383.092
177.990, 382.332
178.472, 383.706
178.954, 384.526
179.436, 383.681
179.918, 381.440
180.401, 377.763
180.883, 369.515
181.365, 366.004
181.847, 371.506
182.329, 381.182
182.811, 390.020
183.293, 395.777
183.775, 399.630
184.258, 404.540
184.740, 411.556
185.222, 417.724
185.704, 420.347
186.186, 422.783
186.668, 429.257
187.150, 442.001
187.632, 457.749
188.114, 468.044
188.596, 469.521
189.079, 471.310
189.561, 473.150
190.043, 476.910
190.525, 485.179
191.007, 499.242
191.489, 516.367
191.971, 530.814
192.454, 542.655
192.936, 551.031
193.418, 554.134
193.900, 555.210
194.382, 556.750
194.864, 559.708
195.346, 564.487
195.828, 572.362
196.310, 585.746
196.792, 597.794
197.275, 610.297
197.757, 619.985
198.239, 623.722
198.721, 620.376
199.203, 611.698
199.685, 600.652
200.167, 585.927
200.650, 571.237
201.132, 560.142
201.614, 547.501
202.096, 526.690
202.578, 495.979
203.060, 463.189
203.542, 442.595
204.024, 440.288
204.506, 437.397
204.988, 432.144
205.471, 425.798
205.953, 418.014
206.435, 409.082
206.917, 401.751
207.399, 401.287
207.881, 412.391
208.363, 418.884
208.845, 417.287
209.328, 413.113
209.810, 409.595
210.292, 407.460
210.774, 405.724
211.256, 402.593
211.738, 396.660
212.220, 393.617
212.702, 394.674
213.184, 397.638
213.667, 401.768
214.149, 406.777
214.631, 412.271
215.113, 417.858
215.595, 423.540
216.077, 429.254
216.559, 435.125
217.041, 440.896
217.523, 446.517
218.006, 451.942
218.488, 457.015
218.970, 460.657
219.452, 461.840
219.934, 468.089
220.416, 485.542
220.898, 503.016
221.380, 515.978
221.863, 524.908
222.345, 533.049
222.827, 543.873
223.309, 557.668
223.791, 567.010
224.273, 569.690
224.755, 569.474
225.237, 567.921
225.719, 564.504
226.202, 557.685
226.684, 545.813
227.166, 529.173
227.648, 512.586
228.130, 494.941
228.612, 478.824
229.094, 463.805
229.577, 450.870
230.059, 442.133
230.541, 439.840
231.023, 442.323
231.505, 441.703
231.987, 434.546
232.469, 429.543
232.951, 428.891
233.433, 431.789
233.915, 437.629
234.398, 446.913
234.880, 457.767
235.362, 464.530
235.844, 464.017
236.326, 466.116
236.808, 474.964
237.290, 487.040
237.772, 499.054
238.255, 509.974
238.737, 519.591
239.219, 526.552
239.701, 529.142
240.183, 534.612
240.665, 546.553
241.147, 561.306
241.629, 576.075
242.111, 590.074
242.594, 604.625
243.076, 622.886
243.558, 646.031
244.040, 664.723
244.522, 675.282
245.004, 681.165
245.486, 683.278
245.968, 681.750
246.451, 680.318
246.933, 684.742
247.415, 694.802
247.897, 697.645
248.379, 687.884
248.861, 672.830
249.343, 658.096
249.825, 643.771
250.307, 628.049
250.790, 610.592
251.272, 591.030
251.754, 566.744
252.236, 534.186
252.718, 502.051
253.200, 476.081
253.682, 455.611
254.164, 439.195
254.646, 428.595
255.129, 421.239
255.611, 410.862
256.093, 396.023
256.575, 381.466
257.057, 370.898
257.539, 363.248
258.021, 356.734
258.503, 352.170
258.986, 347.772
259.468, 339.857
259.950, 327.728
260.432, 318.749
260.914, 319.583
261.396, 326.556
261.878, 330.804
262.360, 329.902
262.842, 327.450
263.325, 326.475
263.807, 326.736
264.289, 325.946
264.771, 322.216
265.253, 317.273
265.735, 315.347
266.217, 317.897
266.699, 320.725
267.181, 320.772
267.664, 319.416
268.146, 320.907
268.628, 327.475
269.110, 336.210
269.592, 341.266
270.074, 342.299
270.556, 342.413
271.039, 341.970
271.521, 341.217
272.003, 340.301
272.485, 339.207
272.967, 338.535
273.449, 339.295
273.931, 342.143
274.413, 343.880
274.895, 345.016
275.378, 344.550
275.860, 339.965
276.342, 331.669
276.824, 324.993
277.306, 325.759
277.788, 335.410
278.270, 338.739
278.752, 328.232
279.234, 319.204
279.717, 320.828
280.199, 330.849
280.681, 341.318
281.163, 346.753
281.645, 347.660
282.127, 349.203
282.609, 351.594
283.091, 354.356
283.573, 357.466
284.056, 360.872
284.538, 364.456
285.020, 368.127
285.502, 372.112
285.984, 376.994
286.466, 382.512
286.948, 389.535
287.431, 400.996
287.913, 412.276
288.395, 418.182
288.877, 417.628
289.359, 415.269
289.841, 418.309
290.323, 429.023
290.805, 438.973
291.287, 448.700
291.770, 457.129
292.252, 462.727
292.734, 466.015
293.216, 469.564
293.698, 476.836
294.180, 488.117
294.662, 494.426
295.144, 490.961
295.626, 487.578
296.109, 489.063
296.591, 493.600
297.073, 497.018
297.555, 496.613
298.037, 493.510
298.519, 491.050
299.001, 489.462
299.483, 488.047
299.966, 489.289
300.448, 489.624
300.930, 483.904
301.412, 469.141
301.894, 451.244
302.376, 437.345
302.858, 427.607
303.340, 418.873
303.822, 409.930
304.305, 401.802
304.787, 395.937
305.269, 392.818
305.751, 389.500
306.233, 383.764
306.715, 376.305
307.197, 368.985
307.679, 361.610
308.161, 355.620
308.644, 353.229
309.126, 354.085
309.608, 355.439
310.090, 358.496
310.572, 360.729
311.054, 357.901
311.536, 349.618
312.018, 341.539
312.500, 338.233
312.983, 339.683
313.465, 340.603
313.947, 340.143
314.429, 339.954
314.911, 340.823
315.393, 342.692
315.875, 345.663
316.358, 350.162
316.840, 355.198
317.322, 357.001
317.804, 350.643
318.286, 347.432
318.768, 351.130
319.250, 357.825
319.732, 363.210
320.214, 365.882
320.697, 366.862
321.179, 367.409
321.661, 365.903
322.143, 367.977
322.625, 376.679
323.107, 385.909
323.589, 392.214
324.071, 395.398
324.553, 397.015
325.036, 398.473
325.518, 399.791
326.000, 399.514
326.482, 394.888
326.964, 391.698
327.446, 392.300
327.928, 395.207
328.410, 398.207
328.892, 400.337
329.375, 401.460
329.857, 401.225
330.339, 399.589
330.821, 396.699
331.303, 390.746
331.785, 384.615
332.267, 381.378
332.749, 381.809
333.232, 382.123
333.714, 377.668
334.196, 368.878
334.678, 362.772
335.160, 362.320
335.642, 362.550
336.124, 358.387
336.606, 350.484
337.089, 343.680
337.571, 341.017
338.053, 340.361
338.535, 337.884
339.017, 333.094
339.499, 329.057
339.981, 328.234
340.463, 330.134
340.945, 331.771
341.427, 332.494
341.910, 333.450
342.392, 336.488
342.874, 340.444
343.356, 341.377
343.838, 337.002
344.320, 330.047
344.802, 326.872
345.284, 329.107
345.767, 332.029
346.249, 335.037
346.731, 338.563
347.213, 342.791
347.695, 347.870
348.177, 354.361
348.659, 363.162
349.141, 374.954
349.624, 385.477
350.106, 394.306
350.588, 402.557
351.070, 410.163
351.552, 417.558
352.034, 425.448
352.516, 434.129
352.998, 443.746
353.480, 454.753
353.963, 466.483
354.445, 480.885
354.927, 500.647
355.409, 521.568
355.891, 539.505
356.373, 553.245
356.855, 565.849
357.337, 582.267
357.819, 602.932
358.302, 617.407
358.784, 619.721
359.266, 620.201
359.748, 628.015
360.230, 641.366
360.712, 650.691
361.194, 651.420
361.676, 644.992
362.159, 632.208
362.641, 612.234
363.123, 592.709
363.605, 578.520
364.087, 568.447
364.569, 558.500
365.051, 549.300
365.533, 539.262
366.016, 527.089
366.498, 513.465
366.980, 499.219
367.462, 484.250
367.944, 470.789
368.426, 463.249
368.908, 465.148
369.390, 464.069
369.872, 457.395
370.354, 448.984
370.837, 441.230
371.319, 434.605
371.801, 428.862
372.283, 423.791
372.765, 419.395
373.247, 415.884
373.729, 415.341
374.211, 413.339
374.694, 406.947
375.176, 399.185
375.658, 394.687
376.140, 395.508
376.622, 398.240
377.104, 396.439
377.586, 388.851
378.068, 381.051
378.551, 370.824
379.033, 362.921
379.515, 361.446
379.997, 365.842
380.479, 370.721
380.961, 373.505
381.443, 373.861
381.925, 369.486
382.407, 358.186
382.890, 348.272
383.372, 346.765
383.854, 350.071
384.336, 351.771
384.818, 350.921
385.300, 348.009
385.782, 341.086
386.264, 331.909
386.746, 327.750
387.229, 332.444
387.711, 340.146
388.193, 340.341
388.675, 329.967
389.157, 322.995
389.639, 324.405
390.121, 327.480
390.603, 326.315
391.086, 320.762
391.568, 314.197
392.050, 309.155
392.532, 305.625
393.014, 302.728
393.496, 300.404
393.978, 298.821
394.460, 299.589
394.943, 300.516
395.425, 298.275
395.907, 291.725
396.389, 284.072
396.871, 280.678
397.353, 282.663
397.835, 283.812
398.317, 283.616
398.799, 282.314
399.281, 279.156
399.764, 274.767
400.246, 271.385
400.728, 271.911
401.210, 273.882
401.692, 270.616
402.174, 260.929
402.656, 253.524
403.138, 254.374
403.621, 259.901
404.103, 262.922
404.585, 262.090
405.067, 261.000
405.549, 261.486
406.031, 262.975
406.513, 264.678
406.995, 266.461
407.478, 267.465
407.960, 266.292
408.442, 262.098
408.924, 260.649
409.406, 263.833
409.888, 267.756
410.370, 271.727
410.852, 274.827
411.334, 275.018
411.817, 270.917
412.299, 264.421
412.781, 261.141
413.263, 261.981
413.745, 264.611
414.227, 271.096
414.709, 277.351
415.191, 279.749
415.673, 278.335
416.156, 276.586
416.638, 278.572
417.120, 283.398
417.602, 283.993
418.084, 277.799
418.566, 272.839
419.048, 274.960
419.530, 280.922
420.013, 286.200
420.495, 290.492
420.977, 292.759
421.459, 290.601
421.941, 285.457
422.423, 282.743
422.905, 284.618
423.387, 287.459
423.870, 285.520
424.352, 276.900
424.834, 273.697
425.316, 280.284
425.798, 289.360
426.280, 298.391
426.762, 305.886
427.244, 308.329
427.726, 302.784
428.208, 292.366
428.691, 289.327
429.173, 300.406
429.655, 308.798
430.137, 311.541
430.619, 312.227
431.101, 313.907
431.583, 316.877
432.065, 319.090
432.548, 318.237
433.030, 314.598
433.512, 311.599
433.994, 310.466
434.476, 307.542
434.958, 298.428
435.440, 286.915
435.922, 279.176
436.405, 278.443
436.887, 278.133
437.369, 270.552
437.851, 258.724
438.333, 254.121
438.815, 261.255
439.297, 270.767
439.779, 270.315
440.261, 257.329
440.744, 248.628
441.226, 246.302
441.708, 246.868
442.190, 250.187
442.672, 254.715
443.154, 257.123
443.636, 255.474
444.118, 251.193
444.600, 248.134
445.083, 246.648
445.565, 245.821
446.047, 246.310
446.529, 246.772
447.011, 245.871
447.493, 243.869
447.975, 242.537
448.457, 244.074
448.940, 247.298
449.422, 247.216
449.904, 242.472
450.386, 239.252
450.868, 241.947
451.350, 247.381
451.832, 251.045
452.314, 252.682
452.797, 252.275
453.279, 247.957
453.761, 242.099
454.243, 239.215
454.725, 240.151
455.207, 242.063
455.689, 242.218
456.171, 240.495
456.653, 239.973
457.135, 241.579
457.618, 243.125
458.100, 244.283
458.582, 244.835
459.064, 243.945
459.546, 241.417
460.028, 239.241
460.510, 241.365
460.992, 249.466
461.474, 253.284
461.957, 248.564
462.439, 243.575
462.921, 242.520
463.403, 244.203
463.885, 245.595
464.367, 245.389
464.849, 244.355
465.332, 242.635
465.814, 240.460
466.296, 240.767
466.778, 245.150
467.260, 251.389
467.742, 256.822
468.224, 261.780
468.706, 264.245
469.188, 261.877
469.671, 258.553
470.153, 256.659
470.635, 256.374
471.117, 257.548
471.599, 260.249
472.081, 263.806
472.563, 266.079
473.045, 266.191
473.527, 266.530
474.010, 267.519
474.492, 268.564
474.974, 269.307
475.456, 269.716
475.938, 269.893
476.420, 269.835
476.902, 269.623
477.384, 269.796
477.866, 270.662
478.349, 270.209
478.831, 266.314
479.313, 261.297
479.795, 258.888
480.277, 259.596
480.759, 261.277
481.241, 264.392
481.723, 267.375
482.206, 267.707
482.688, 265.397
483.170, 263.214
483.652, 263.474
484.134, 265.745
484.616, 266.167
485.098, 261.319
485.580, 258.821
486.062, 262.455
486.545, 266.982
487.027, 266.332
487.509, 260.055
487.991, 254.023
488.473, 255.143
488.955, 262.335
489.437, 265.353
489.919, 262.411
490.402, 259.518
490.884, 259.795
491.366, 261.971
491.848, 264.547
492.330, 267.613
492.812, 270.322
493.294, 272.248
493.776, 273.483
494.259, 273.938
494.741, 273.625
495.223, 273.130
495.705, 272.637
496.187, 272.202
496.669, 274.632
497.151, 282.759
497.633, 290.118
498.115, 295.434
498.598, 299.292
499.080, 302.202
499.562, 304.371
500.044, 306.182
500.526, 308.015
501.008, 309.868
501.490, 311.486
501.972, 312.295
502.454, 314.004
502.937, 320.142
503.419, 327.000
503.901, 328.216
504.383, 319.976
504.865, 312.673
505.347, 313.550
505.829, 319.504
506.311, 325.849
506.793, 331.671
507.276, 334.774
507.758, 332.583
508.240, 325.179
508.722, 320.393
509.204, 320.598
509.686, 320.344
510.168, 316.782
510.651, 313.121
511.133, 313.535
511.615, 318.686
512.097, 324.850
512.579, 328.802
513.061, 330.503
513.543, 328.573
514.025, 320.787
514.507, 314.601
514.990, 316.322
515.472, 321.446
515.954, 322.533
516.436, 316.317
516.918, 312.454
517.400, 319.565
517.882, 330.708
518.364, 333.917
518.846, 327.953
519.329, 321.928
519.811, 323.728
520.293, 332.456
520.775, 338.042
521.257, 335.723
521.739, 336.114
522.221, 342.206
522.703, 350.336
523.185, 357.964
523.668, 364.295
524.150, 368.599
524.632, 367.655
525.114, 363.925
525.596, 368.835
526.078, 384.638
526.560, 398.641
527.042, 403.246
527.524, 403.384
528.007, 408.412
528.489, 419.145
528.971, 431.871
529.453, 446.646
529.935, 462.080
530.417, 476.335
530.899, 489.561
531.381, 503.466
531.864, 519.458
532.346, 536.542
532.828, 551.110
533.310, 561.453
533.792, 572.480
534.274, 585.549
534.756, 598.719
535.238, 610.064
535.721, 620.114
536.203, 631.990
536.685, 650.546
537.167, 669.839
537.649, 679.292
538.131, 679.501
538.613, 678.352
539.095, 678.184
539.578, 678.971
540.060, 681.554
540.542, 687.609
541.024, 687.853
541.506, 679.764
541.988, 667.781
542.470, 651.039
542.952, 632.722
543.434, 619.535
543.917, 614.598
544.399, 611.609
544.881, 598.912
545.363, 574.680
545.845, 553.976
546.327, 540.169
546.809, 526.964
547.291, 508.730
547.773, 488.479
548.256, 473.084
548.738, 465.954
549.220, 461.207
549.702, 456.465
550.184, 450.826
550.666, 441.467
551.148, 427.930
551.630, 414.709
552.112, 406.430
552.595, 403.007
553.077, 398.516
553.559, 391.768
554.041, 385.342
554.523, 378.960
555.005, 373.457
555.487, 370.164
555.969, 369.063
556.451, 367.939
556.934, 363.634
557.416, 357.982
557.898, 358.048
558.380, 364.826
558.862, 367.600
559.344, 358.938
559.826, 345.294
560.308, 340.829
560.791, 348.451
561.273, 353.715
561.755, 351.766
562.237, 348.943
562.719, 350.757
563.201, 355.826
563.683, 359.144
564.165, 357.895
564.648, 354.239
565.130, 352.806
565.612, 354.118
566.094, 354.783
566.576, 353.233
567.058, 352.430
567.540, 353.992
568.022, 357.689
568.505, 363.067
568.987, 371.204
569.469, 379.378
569.951, 386.011
570.433, 391.252
570.915, 394.970
571.397, 397.237
571.879, 399.600
572.361, 403.566
572.844, 409.108
573.326, 415.688
573.808, 427.185
574.290, 434.341
574.772, 431.561
575.254, 426.476
575.736, 427.234
576.218, 434.357
576.700, 439.992
577.183, 436.902
577.665, 429.191
578.147, 425.737
578.629, 426.418
579.111, 423.676
579.593, 412.969
580.075, 399.423
580.557, 392.588
581.039, 396.739
581.522, 396.157
582.004, 387.622
582.486, 377.556
582.968, 368.692
583.450, 360.880
583.932, 353.732
584.414, 347.081
584.896, 340.080
585.378, 329.844
585.861, 316.911
586.343, 311.510
586.825, 318.305
587.307, 322.583
587.789, 311.836
588.271, 291.564
588.753, 278.952
589.235, 278.850
589.718, 278.580
590.200, 272.272
590.682, 265.240
591.164, 264.184
591.646, 268.414
592.128, 271.378
592.610, 268.375
593.092, 261.123
593.575, 254.548
594.057, 248.353
594.539, 243.857
595.021, 240.580
595.503, 239.996
595.985, 245.513
596.467, 255.177
596.949, 260.139
597.432, 254.157
597.914, 246.379
598.396, 242.048
598.878, 240.501
599.360, 240.924
599.842, 242.986
600.324, 245.735
600.806, 248.534
601.288, 251.284
601.771, 250.984
602.253, 245.637
602.735, 240.441
603.217, 235.743
603.699, 232.270
604.181, 230.811
604.663, 231.391
605.145, 233.018
605.627, 236.396
606.110, 239.738
606.592, 240.708
607.074, 239.623
607.556, 237.911
608.038, 236.026
608.520, 234.381
609.002, 233.646
609.484, 234.049
609.966, 234.204
610.449, 233.779
610.931, 233.469
611.413, 233.504
611.895, 233.740
612.377, 234.113
612.859, 234.605
613.341, 234.766
613.823, 233.591
614.305, 232.050
614.788, 233.071
615.270, 236.570
615.752, 237.326
616.234, 231.955
616.716, 223.884
617.198, 220.540
617.680, 224.840
618.162, 227.105
618.645, 224.250
619.127, 222.696
619.609, 226.953
620.091, 234.192
620.573, 239.715
621.055, 241.925
621.537, 241.122
622.019, 235.173
622.502, 226.380
622.984, 223.138
623.466, 226.553
623.948, 231.428
624.430, 235.495
624.912, 238.014
625.394, 236.581
625.876, 226.831
626.359, 220.243
626.841, 217.869
627.323, 217.778
627.805, 220.056
628.287, 223.494
628.769, 225.840
629.251, 225.977
629.733, 225.133
630.215, 225.067
630.698, 225.463
631.180, 223.943
631.662, 219.622
632.144, 217.397
632.626, 222.135
633.108, 231.436
633.590, 234.611
634.072, 223.980
634.554, 218.593
635.037, 224.465
635.519, 231.979
636.001, 234.331
636.483, 232.271
636.965, 229.720
637.447, 228.633
637.929, 228.240
638.411, 227.284
638.893, 225.949
639.376, 225.489
639.858, 226.162
640.340, 227.458
640.822, 229.122
641.304, 231.072
641.786, 232.846
642.268, 235.512
642.750, 236.540
643.232, 234.101
643.715, 231.236
644.197, 230.089
644.679, 230.581
645.161, 231.639
645.643, 232.629
646.125, 234.036
646.607, 237.545
647.089, 242.492
647.572, 243.709
648.054, 239.461
648.536, 236.461
649.018, 241.122
649.500, 251.663
649.982, 256.555
650.464, 251.193
650.946, 246.736
651.429, 243.320
651.911, 241.678
652.393, 242.786
652.875, 246.152
653.357, 250.484
653.839, 255.572
654.321, 260.184
654.803, 262.783
655.286, 263.481
655.768, 262.127
656.250, 258.417
656.732, 255.441
657.214, 255.580
657.696, 258.488
658.178, 262.190
658.660, 267.750
659.142, 272.607
659.625, 277.241
660.107, 280.648
660.589, 281.602
661.071, 280.762
661.553, 279.849
662.035, 279.401
662.517, 279.720
662.999, 283.048
663.481, 287.293
663.964, 284.636
664.446, 274.025
664.928, 265.593
665.410, 267.636
665.892, 276.732
666.374, 279.070
666.856, 268.674
667.338, 262.419
667.820, 265.851
668.303, 268.680
668.785, 263.481
669.267, 253.705
669.749, 247.966
670.231, 250.607
670.713, 253.783
671.195, 250.377
671.677, 243.695
672.159, 239.268
672.642, 237.710
673.124, 238.447
673.606, 241.615
674.088, 245.158
674.570, 243.030
675.052, 232.119
675.534, 224.890
676.016, 223.775
676.499, 224.335
676.981, 224.888
677.463, 225.456
677.945, 225.955
678.427, 226.066
678.909, 227.169
679.391, 232.520
679.873, 237.510
680.356, 234.856
680.838, 226.587
681.320, 222.033
681.802, 226.018
682.284, 232.918
682.766, 232.192
683.248, 222.816
683.730, 217.543
684.213, 218.122
684.695, 219.761
685.177, 220.216
685.659, 220.269
686.141, 221.589
686.623, 224.877
687.105, 226.507
687.587, 223.499
688.069, 220.630
688.552, 222.243
689.034, 226.131
689.516, 227.551
689.998, 224.997
690.480, 221.618
690.962, 220.768
691.444, 222.171
691.926, 224.872
692.408, 229.135
692.891, 232.648
693.373, 235.147
693.855, 235.382
694.337, 230.440
694.819, 218.256
695.301, 212.161
695.783, 216.762
696.265, 221.677
696.747, 223.136
697.230, 223.393
697.712, 225.719
698.194, 230.227
698.676, 233.366
699.158, 231.800
699.640, 228.058
700.122, 225.569
700.604, 224.245
701.086, 223.974
701.569, 224.792
702.051, 225.509
702.533, 224.823
703.015, 222.871
703.497, 221.509
703.979, 219.593
704.461, 220.329
704.943, 228.998
705.426, 236.370
705.908, 234.862
706.390, 226.302
706.872, 218.689
707.354, 212.990
707.836, 211.017
708.318, 217.523
708.800, 226.708
709.282, 229.560
709.765, 225.944
710.247, 221.961
710.729, 221.581
711.211, 223.655
711.693, 226.063
712.175, 228.984
712.657, 229.957
713.140, 228.103
713.622, 225.616
714.104, 223.446
714.586, 221.750
715.068, 220.801
715.550, 220.303
716.032, 221.219
716.514, 224.448
716.996, 228.400
717.479, 234.037
717.961, 239.127
718.443, 238.931
718.925, 231.835
719.407, 224.309
719.889, 223.250
720.371, 226.235
720.853, 226.826
721.335, 225.070
721.818, 225.369
722.300, 229.931
722.782, 235.102
723.264, 235.095
723.746, 228.948
724.228, 226.925
724.710, 231.516
725.192, 236.722
725.674, 243.009
726.157, 247.934
726.639, 248.920
727.121, 246.107
727.603, 242.415
728.085, 237.402
728.567, 233.411
729.049, 232.512
729.531, 233.490
730.013, 234.153
730.496, 234.377
730.978, 236.409
731.460, 242.681
731.942, 250.270
732.424, 250.965
732.906, 244.347
733.388, 239.140
733.870, 236.367
734.353, 236.139
734.835, 239.713
735.317, 245.700
735.799, 248.582
736.281, 246.260
736.763, 244.728
737.245, 246.154
737.727, 246.586
738.209, 241.278
738.692, 234.097
739.174, 232.969
739.656, 240.706
740.138, 248.414
740.620, 248.469
741.102, 244.606
741.584, 242.477
742.067, 241.931
742.549, 240.777
743.031, 238.153
743.513, 235.211
743.995, 233.808
744.477, 233.845
744.959, 230.308
745.441, 221.527
745.923, 213.570
746.406, 206.826
746.888, 202.899
747.370, 204.372
747.852, 210.655
748.334, 216.481
748.816, 221.775
749.298, 225.938
749.780, 229.051
750.263, 230.771
750.745, 230.219
751.227, 227.888
751.709, 225.517
752.191, 224.122
752.673, 222.687
753.155, 218.315
753.637, 212.982
754.119, 213.863
754.602, 221.399
755.084, 228.176
755.566, 229.807
756.048, 228.866
756.530, 231.063
757.012, 237.872
757.494, 241.312
757.976, 239.632
758.458, 237.287
758.941, 236.669
759.423, 235.931
759.905, 232.175
760.387, 225.013
760.869, 220.241
761.351, 220.296
761.833, 221.925
762.315, 224.440
762.797, 226.954
763.280, 228.196
763.762, 228.182
764.244, 228.185
764.726, 229.023
765.208, 230.504
765.690, 232.712
766.172, 235.356
766.654, 237.041
767.136, 237.520
767.619, 237.587
768.101, 237.841
768.583, 238.025
769.065, 237.130
769.547, 234.086
770.029, 233.064
770.511, 235.265
770.994, 238.074
771.476, 241.702
771.958, 244.596
772.440, 243.594
772.922, 237.499
773.404, 233.854
773.886, 238.020
774.368, 241.720
774.850, 238.284
775.333, 231.828
775.815, 228.860
776.297, 230.449
776.779, 232.921
777.261, 233.489
777.743, 233.212
778.225, 234.438
778.707, 236.532
779.190, 236.533
779.672, 233.845
780.154, 230.074
780.636, 226.154
781.118, 222.647
781.600, 221.985
782.082, 226.053
782.564, 226.232
783.046, 218.715
783.529, 212.259
784.011, 212.167
784.493, 215.880
784.975, 219.633
785.457, 223.844
785.939, 225.704
786.421, 223.163
786.903, 219.837
787.385, 216.533
787.868, 214.127
788.350, 214.441
788.832, 217.261
789.314, 219.001
789.796, 216.041
790.278, 211.934
790.760, 211.695
791.242, 213.995
791.724, 214.919
792.207, 213.969
792.689, 214.423
793.171, 219.014
793.653, 225.301
794.135, 227.733
794.617, 226.486
795.099, 218.044
795.581, 197.207
796.063, 183.001
796.546, 188.731
797.028, 204.397
797.510, 210.785
797.992, 204.213
798.474, 201.724
798.956, 208.644
799.438, 213.180
799.920, 208.995
800.403, 202.236
800.885, 198.883
801.367, 199.506
801.849, 202.030
802.331, 207.574
802.813, 212.065
803.295, 209.765
803.777, 205.899
804.260, 209.741
804.742, 220.306
805.224, 228.653
805.706, 229.731
806.188, 226.688
806.670, 223.322
807.152, 219.934
807.634, 218.992
808.117, 220.764
808.599, 220.621
809.081, 215.815
809.563, 210.883
810.045, 213.000
810.527, 222.788
811.009, 227.251
811.491, 223.149
811.973, 219.679
812.456, 219.634
812.938, 220.163
813.420, 218.566
813.902, 215.583
814.384, 214.407
814.866, 217.119
815.348, 218.919
815.830, 218.272
816.312, 216.428
816.795, 213.424
817.277, 210.211
817.759, 208.309
818.241, 208.208
818.723, 209.489
819.205, 212.969
819.687, 216.866
820.169, 218.810
820.651, 218.980
821.134, 217.967
821.616, 216.003
822.098, 213.307
822.580, 209.502
823.062, 206.032
823.544, 209.067
824.026, 219.027
824.508, 222.615
824.990, 216.290
825.473, 210.499
825.955, 212.485
826.437, 218.846
826.919, 221.087
827.401, 217.464
827.883, 214.967
828.365, 213.446
828.847, 213.281
829.330, 216.417
829.812, 219.738
830.294, 219.865
830.776, 216.728
831.258, 212.816
831.740, 206.518
832.222, 202.313
832.704, 203.071
833.187, 206.045
833.669, 209.331
834.151, 212.322
834.633, 214.877
835.115, 217.261
835.597, 217.243
836.079, 209.088
836.561, 199.160
837.043, 199.194
837.526, 207.389
838.008, 215.594
838.490, 220.852
838.972, 223.032
839.454, 221.211
839.936, 216.703
840.418, 214.683
840.900, 215.186
841.382, 216.510
841.865, 218.331
842.347, 221.131
842.829, 225.981
843.311, 231.371
843.793, 232.177
844.275, 225.735
844.757, 221.833
845.239, 222.717
845.721, 222.933
846.204, 219.182
846.686, 214.243
847.168, 211.069
847.650, 209.734
848.132, 210.124
848.614, 214.627
849.096, 217.788
849.578, 216.426
850.060, 214.075
850.543, 214.155
851.025, 216.129
851.507, 217.078
851.989, 215.317
852.471, 214.738
852.953, 220.696
853.435, 227.303
853.917, 226.853
854.400, 221.396
854.882, 216.350
855.364, 213.582
855.846, 213.238
856.328, 216.373
856.810, 221.139
857.292, 223.976
857.774, 224.883
858.256, 223.266
858.739, 219.080
859.221, 214.969
859.703, 212.644
860.185, 211.834
860.667, 212.593
861.149, 215.403
861.631, 214.584
862.114, 208.523
862.596, 204.156
863.078, 204.366
863.560, 207.052
864.042, 210.052
864.524, 213.363
865.006, 215.712
865.488, 217.047
865.970, 217.493
866.453, 217.477
866.935, 216.196
867.417, 211.406
867.899, 205.395
868.381, 203.272
868.863, 206.553
869.345, 210.272
869.827, 213.606
870.309, 216.553
870.792, 219.600
871.274, 221.978
871.756, 222.392
872.238, 220.967
872.720, 219.339
873.202, 217.868
873.684, 217.296
874.166, 219.040
874.648, 221.565
875.131, 222.322
875.613, 221.798
876.095, 222.859
876.577, 226.663
877.059, 229.886
877.541, 227.137
878.023, 221.637
878.505, 222.149
878.987, 227.380
879.470, 230.429
879.952, 229.668
880.434, 227.945
880.916, 227.510
881.398, 227.848
881.880, 227.614
882.362, 226.785
882.844, 225.105
883.327, 221.597
883.809, 223.457
884.291, 236.334
884.773, 250.658
885.255, 252.075
885.737, 240.201
886.219, 232.175
886.701, 228.247
887.183, 227.838
887.666, 233.860
888.148, 239.730
888.630, 240.730
889.112, 238.053
889.594, 235.029
890.076, 230.972
890.558, 228.379
891.041, 228.439
891.523, 228.775
892.005, 228.893
892.487, 228.540
892.969, 226.805
893.451, 224.066
893.933, 223.218
894.415, 227.589
894.897, 230.428
895.380, 226.825
895.862, 222.214
896.344, 222.299
896.826, 224.981
897.308, 224.697
897.790, 219.808
898.272, 215.085
898.754, 212.963
899.237, 213.364
899.719, 218.684
900.201, 225.468
900.683, 226.938
901.165, 223.005
901.647, 219.110
902.129, 218.670
902.611, 218.394
903.093, 212.236
903.576, 203.454
904.058, 200.754
904.540, 203.523
905.022, 206.288
905.504, 207.220
905.986, 207.119
906.468, 206.527
906.950, 205.853
907.432, 206.841
907.915, 209.347
908.397, 209.972
908.879, 208.140
909.361, 206.233
909.843, 205.285
910.325, 205.910
910.807, 209.954
911.289, 217.551
911.771, 218.932
912.254, 211.965
912.736, 207.008
913.218, 206.761
913.700, 208.476
914.182, 210.983
914.664, 213.273
915.146, 211.747
915.628, 204.996
916.110, 197.891
916.593, 186.526
917.075, 180.769
917.557, 187.466
918.039, 198.785
918.521, 207.422
919.003, 213.322
919.485, 216.142
919.968, 214.304
920.450, 211.688
920.932, 207.539
921.414, 203.967
921.896, 201.637
922.378, 200.883
922.860, 203.486
923.342, 210.056
923.824, 211.935
924.307, 200.242
924.789, 191.575
925.271, 196.104
925.753, 204.275
926.235, 206.806
926.717, 204.973
927.199, 205.379
927.681, 210.908
928.164, 214.009
928.646, 208.396
929.128, 200.818
929.610, 195.754
930.092, 192.879
930.574, 191.025
931.056, 190.265
931.538, 192.251
932.020, 199.020
932.503, 205.586
932.985, 207.672
933.467, 206.722
933.949, 202.674
934.431, 197.681
934.913, 197.594
935.395, 203.501
935.877, 208.837
936.359, 207.436
936.842, 210.027
937.324, 204.421
937.806, 207.700
938.288, 207.071
938.770, 202.795
939.252, 200.255
939.734, 201.861
940.216, 204.609
940.698, 204.786
941.181, 203.404
941.663, 203.161
942.145, 204.043
942.627, 206.491
943.109, 210.443
943.591, 213.555
944.073, 214.369
944.555, 213.312
945.037, 210.199
945.520, 205.474
946.002, 204.248
946.484, 206.567
946.966, 208.483
947.448, 208.864
947.930, 209.074
948.412, 210.245
948.894, 212.144
949.377, 214.091
949.859, 216.066
950.341, 218.601
950.823, 221.910
951.305, 224.908
951.787, 227.619
952.269, 228.247
952.751, 223.903
953.234, 216.015
953.716, 214.163
954.198, 220.072
954.680, 224.931
955.162, 228.225
955.644, 229.442
956.126, 227.034
956.608, 224.409
957.091, 226.836
957.573, 234.361
958.055, 240.330
958.537, 244.621
959.019, 247.445
959.501, 247.174
959.983, 248.221
960.465, 253.868
960.947, 261.966
961.430, 268.189
961.912, 271.812
962.394, 278.181
962.876, 289.255
963.358, 299.849
963.840, 307.395
964.322, 316.025
964.804, 331.329
965.286, 349.418
965.769, 359.099
966.251, 355.284
966.733, 358.649
967.215, 379.324
967.697, 394.134
968.179, 392.015
968.661, 386.134
969.143, 387.076
969.625, 393.462
970.108, 399.843
970.590, 408.809
971.072, 410.720
971.554, 400.343
972.036, 388.030
972.518, 377.000
973.000, 366.464
973.482, 354.732
973.964, 342.375
974.447, 333.178
974.929, 328.974
975.411, 325.480
975.893, 323.088
976.375, 319.876
976.857, 314.972
977.339, 308.646
977.821, 300.910
978.304, 291.961
978.786, 283.261
979.268, 272.424
979.750, 266.042
980.232, 270.644
980.714, 275.155
981.196, 271.389
981.678, 263.754
982.161, 258.831
982.643, 257.421
983.125, 256.929
983.607, 257.174
984.089, 257.393
984.571, 256.930
985.053, 256.723
985.535, 258.035
986.018, 259.854
986.500, 260.255
986.982, 258.943
987.464, 257.810
987.946, 258.282
988.428, 258.091
988.910, 257.206
989.392, 254.392
989.874, 246.336
990.357, 236.336
990.839, 231.365
991.321, 232.978
991.803, 233.929
992.285, 229.702
992.767, 226.109
993.249, 227.492
993.731, 229.597
994.213, 227.728
994.696, 223.477
995.178, 221.613
995.660, 223.529
996.142, 223.552
996.624, 216.337
997.106, 210.043
997.588, 209.545
998.070, 211.787
998.552, 214.767
999.035, 217.556
999.517, 218.742
999.999, 217.807
1000.481, 216.853
1000.963, 217.562
1001.445, 217.670
1001.927, 214.297
1002.409, 210.872
1002.892, 211.804
1003.374, 215.757
1003.856, 218.736
1004.338, 219.909
1004.820, 217.853
1005.302, 207.329
1005.784, 198.734
1006.266, 200.105
1006.748, 205.133
1007.231, 208.193
1007.713, 208.542
1008.195, 205.978
1008.677, 199.661
1009.159, 195.338
1009.641, 197.314
1010.123, 199.900
1010.605, 198.837
1011.088, 197.332
1011.570, 200.406
1012.052, 206.158
1012.534, 207.316
1013.016, 200.680
1013.498, 195.936
1013.980, 199.208
1014.462, 202.913
1014.944, 201.584
1015.427, 199.438
1015.909, 201.842
1016.391, 207.503
1016.873, 211.126
1017.355, 210.997
1017.837, 210.490
1018.319, 211.754
1018.801, 211.821
1019.284, 207.241
1019.766, 202.208
1020.248, 201.059
1020.730, 203.210
1021.212, 206.339
1021.694, 210.917
1022.176, 212.086
1022.658, 204.652
1023.140, 198.113
1023.623, 196.898
1024.105, 198.483
1024.587, 201.198
1025.069, 204.402
1025.551, 206.938
1026.033, 208.284
1026.515, 210.305
1026.997, 216.255
1027.479, 219.379
1027.962, 212.943
1028.444, 206.115
1028.926, 208.567
1029.408, 217.055
1029.890, 221.484
1030.372, 219.612
1030.854, 217.672
1031.336, 219.772
1031.819, 217.756
1032.301, 202.705
1032.783, 188.397
1033.265, 188.760
1033.747, 197.868
1034.229, 198.781
1034.711, 186.856
1035.193, 181.187
1035.676, 188.531
1036.158, 194.678
1036.640, 195.426
1037.122, 194.939
1037.604, 196.044
1038.086, 198.091
1038.568, 199.825
1039.050, 201.656
1039.532, 201.157
1040.015, 195.257
1040.497, 192.098
1040.979, 195.504
1041.461, 198.947
1041.943, 198.176
1042.425, 194.809
1042.907, 191.678
1043.389, 188.624
1043.871, 187.894
1044.354, 194.115
1044.836, 190.976
1045.318, 167.951
1045.800, 150.801
1046.282, 158.401
1046.764, 175.910
1047.246, 176.725
1047.728, 160.479
1048.211, 158.812
1048.693, 177.085
1049.175, 189.975
1049.657, 193.022
1050.139, 194.096
1050.621, 197.773
1051.103, 200.139
1051.585, 194.774
1052.068, 182.861
1052.550, 175.492
1053.032, 172.521
1053.514, 177.634
1053.996, 192.940
1054.478, 202.802
1054.960, 199.693
1055.442, 190.127
1055.924, 180.577
1056.406, 172.393
1056.889, 172.425
1057.371, 180.215
1057.853, 186.062
1058.335, 189.102
1058.817, 188.669
1059.299, 184.408
1059.781, 179.709
1060.263, 177.491
1060.746, 177.978
1061.228, 183.807
1061.710, 192.833
1062.192, 194.627
1062.674, 189.749
1063.156, 185.591
1063.638, 184.321
1064.120, 183.809
1064.603, 182.234
1065.085, 181.323
1065.567, 184.278
1066.049, 189.565
1066.531, 195.785
1067.013, 201.158
1067.495, 199.697
1067.977, 191.519
1068.459, 183.942
1068.942, 180.986
1069.424, 181.595
1069.906, 186.665
1070.388, 193.024
1070.870, 197.397
1071.352, 199.746
1071.834, 199.729
1072.316, 197.923
1072.798, 195.828
1073.281, 193.878
1073.763, 193.454
1074.245, 197.828
1074.727, 201.499
1075.209, 199.305
1075.691, 194.716
1076.173, 190.060
1076.655, 187.018
1077.138, 189.019
1077.620, 197.132
1078.102, 204.873
1078.584, 210.956
1079.066, 214.373
1079.548, 212.409
1080.030, 209.858
1080.512, 210.198
1080.994, 212.614
1081.477, 215.595
1081.959, 218.946
1082.441, 221.827
1082.923, 224.864
1083.405, 226.306
1083.887, 223.812
1084.369, 222.092
1084.851, 223.992
1085.333, 227.511
1085.816, 231.107
1086.298, 234.447
1086.780, 234.307
1087.262, 228.567
1087.744, 224.158
1088.226, 221.731
1088.708, 219.729
1089.190, 218.757
1089.672, 215.630
1090.155, 206.149
1090.637, 193.536
1091.119, 188.408
1091.601, 192.027
1092.083, 192.983
1092.565, 190.800
1093.047, 189.503
1093.529, 190.227
1094.012, 190.406
1094.494, 188.140
1094.976, 185.232
1095.458, 185.821
1095.940, 188.516
1096.422, 183.157
1096.904, 183.211
1097.386, 183.230
1097.869, 176.750
1098.351, 181.013
1098.833, 175.484
1099.315, 169.082
1099.797, 172.296
1100.279, 179.653
1100.761, 181.584
1101.243, 179.982
1101.725, 178.535
1102.208, 177.398
1102.690, 175.646
1103.172, 173.045
1103.654, 169.966
1104.136, 166.067
1104.618, 163.140
1105.100, 163.675
1105.582, 165.102
1106.064, 164.269
1106.547, 162.731
1107.029, 163.638
1107.511, 166.701
1107.993, 168.601
1108.475, 167.934
1108.957, 167.166
1109.439, 167.719
1109.921, 167.878
1110.404, 166.192
1110.886, 164.253
1111.368, 162.781
1111.850, 162.406
1112.332, 165.110
1112.814, 172.135
1113.296, 175.749
1113.778, 172.815
1114.260, 170.490
1114.743, 170.464
1115.225, 169.935
1115.707, 166.629
1116.189, 162.983
1116.671, 162.367
1117.153, 164.526
1117.635, 167.023
1118.117, 170.072
1118.599, 172.341
1119.082, 173.675
1119.564, 174.697
1120.046, 175.678
1120.528, 176.094
1121.010, 175.544
1121.492, 173.932
1121.974, 170.723
1122.456, 166.195
1122.939, 161.596
1123.421, 157.303
1123.903, 155.880
1124.385, 157.518
1124.867, 159.833
1125.349, 161.576
1125.831, 162.396
1126.313, 160.865
1126.796, 159.009
1127.278, 160.935
1127.760, 164.071
1128.242, 163.070
1128.724, 159.497
1129.206, 159.973
1129.688, 165.574
1130.170, 167.078
1130.652, 155.809
1131.135, 145.500
1131.617, 143.570
1132.099, 146.051
1132.581, 152.757
1133.063, 160.190
1133.545, 165.394
1134.027, 167.521
1134.509, 163.910
1134.991, 150.132
1135.474, 141.826
1135.956, 144.583
1136.438, 147.745
1136.920, 149.492
1137.402, 149.805
1137.884, 150.021
1138.366, 144.524
1138.848, 147.965
1139.331, 146.325
1139.813, 145.034
1140.295, 148.606
1140.777, 143.671
1141.259, 146.096
1141.741, 150.242
1142.223, 154.012
1142.705, 157.393
1143.188, 160.836
1143.670, 162.747
1144.152, 157.452
1144.634, 147.445
1145.116, 142.914
1145.598, 143.232
1146.080, 143.849
1146.562, 143.934
1147.044, 145.950
1147.526, 151.445
1148.009, 155.223
1148.491, 149.816
1148.973, 142.677
1149.455, 142.069
1149.937, 144.256
1150.419, 144.474
1150.901, 143.264
1151.383, 142.796
1151.866, 143.584
1152.348, 145.683
1152.830, 151.997
1153.312, 155.027
1153.794, 148.933
1154.276, 143.445
1154.758, 145.092
1155.240, 148.551
1155.723, 147.827
1156.205, 144.094
1156.687, 141.105
1157.169, 138.404
1157.651, 138.941
1158.133, 144.554
1158.615, 147.302
1159.097, 145.078
1159.579, 142.138
1160.062, 140.610
1160.544, 140.574
1161.026, 142.717
1161.508, 140.670
1161.990, 144.322
1162.472, 139.452
1162.954, 137.504
1163.436, 138.480
1163.918, 139.670
1164.401, 140.309
1164.883, 140.932
1165.365, 141.818
1165.847, 143.203
1166.329, 145.961
1166.811, 148.755
1167.293, 150.443
1167.775, 150.968
1168.258, 150.231
1168.740, 148.354
1169.222, 145.229
1169.704, 140.858
1170.186, 137.409
1170.668, 134.446
1171.150, 134.225
1171.632, 141.147
1172.115, 146.439
1172.597, 143.243
1173.079, 138.264
1173.561, 138.654
1174.043, 142.708
1174.525, 144.392
1175.007, 143.617
1175.489, 140.161
1175.971, 132.672
1176.453, 130.980
1176.936, 137.878
1177.418, 142.231
1177.900, 137.789
1178.382, 131.298
1178.864, 131.091
1179.346, 134.939
1179.828, 138.676
1180.310, 141.669
1180.793, 141.046
1181.275, 138.316
1181.757, 139.367
1182.239, 144.376
1182.721, 146.544
1183.203, 141.906
1183.685, 137.060
1184.167, 137.066
1184.650, 137.933
1185.132, 137.110
1185.614, 135.681
1186.096, 133.995
1186.578, 132.873
1187.060, 134.553
1187.542, 133.179
1188.024, 132.243
1188.506, 133.749
1188.989, 133.322
1189.471, 132.616
1189.953, 134.791
1190.435, 135.343
1190.917, 136.269
1191.399, 139.645
1191.881, 143.165
1192.363, 141.408
1192.845, 135.411
1193.328, 132.885
1193.810, 133.340
1194.292, 133.648
1194.774, 133.520
1195.256, 134.064
1195.738, 135.599
1196.220, 137.371
1196.702, 139.329
1197.185, 139.755
1197.667, 135.172
1198.149, 129.940
1198.631, 128.557
1199.113, 129.277
1199.595, 130.072
1200.077, 130.508
1200.559, 129.900
1201.042, 127.814
1201.524, 128.123
1202.006, 133.590
1202.488, 138.288
1202.970, 142.449
1203.452, 143.986
1203.934, 140.552
1204.416, 136.835
1204.898, 137.884
1205.380, 135.071
1205.863, 134.853
1206.345, 134.953
1206.827, 134.639
1207.309, 134.798
1207.791, 134.487
1208.273, 136.197
1208.755, 134.868
1209.237, 137.932
1209.720, 140.387
1210.202, 137.391
1210.684, 133.220
1211.166, 132.561
1211.648, 133.199
1212.130, 133.096
1212.612, 132.421
1213.094, 131.242
1213.577, 129.972
1214.059, 129.752
1214.541, 130.954
1215.023, 132.184
1215.505, 133.366
1215.987, 134.383
1216.469, 136.194
1216.951, 135.857
1217.433, 130.344
1217.916, 125.859
1218.398, 129.396
1218.880, 137.401
1219.362, 140.105
1219.844, 137.839
1220.326, 134.030
1220.808, 129.200
1221.290, 126.375
1221.772, 126.070
1222.255, 129.040
1222.737, 135.216
1223.219, 139.246
1223.701, 135.833
1224.183, 131.336
1224.665, 131.689
1225.147, 133.074
1225.629, 131.497
1226.112, 129.379
1226.594, 130.952
1227.076, 134.670
1227.558, 134.297
1228.040, 127.796
1228.522, 127.338
1229.004, 138.806
1229.486, 143.077
1229.969, 135.499
1230.451, 129.255
1230.933, 129.224
1231.415, 132.356
1231.897, 136.635
1232.379, 140.105
1232.861, 137.411
1233.343, 131.072
1233.825, 130.235
1234.307, 133.052
1234.790, 134.347
1235.272, 134.146
1235.754, 135.617
1236.236, 139.152
1236.718, 140.044
1237.200, 134.329
1237.682, 129.464
1238.164, 129.834
1238.647, 131.213
1239.129, 133.128
1239.611, 133.441
1240.093, 126.913
1240.575, 119.708
1241.057, 123.962
1241.539, 138.299
1242.021, 141.424
1242.504, 131.452
1242.986, 124.876
1243.468, 122.571
1243.950, 125.878
1244.432, 134.777
1244.914, 139.777
1245.396, 135.056
1245.878, 126.852
1246.360, 119.730
1246.843, 115.896
1247.325, 121.056
1247.807, 128.870
1248.289, 132.250
1248.771, 131.962
1249.253, 128.445
1249.735, 123.465
1250.217, 123.991
1250.699, 133.759
1251.182, 140.127
1251.664, 140.898
1252.146, 140.615
1252.628, 140.944
1253.110, 136.669
1253.592, 123.112
1254.074, 112.423
1254.556, 118.144
1255.039, 132.156
1255.521, 135.817
1256.003, 132.111
1256.485, 130.542
1256.967, 130.627
1257.449, 130.316
1257.931, 129.660
1258.413, 130.010
1258.896, 131.661
1259.378, 133.319
1259.860, 134.730
1260.342, 135.224
1260.824, 133.726
1261.306, 132.287
1261.788, 132.270
1262.270, 132.183
1262.752, 130.324
1263.234, 128.395
1263.717, 129.497
1264.199, 128.366
1264.681, 133.064
1265.163, 130.049
1265.645, 130.861
1266.127, 135.073
1266.609, 135.122
1267.091, 130.108
1267.574, 125.833
1268.056, 125.124
1268.538, 126.473
1269.020, 130.394
1269.502, 133.467
1269.984, 130.982
1270.466, 128.891
1270.948, 135.584
1271.431, 142.632
1271.913, 136.902
1272.395, 123.123
1272.877, 118.717
1273.359, 124.481
1273.841, 127.742
1274.323, 128.543
##END=



