##NAMES=Rinkite-(Ce)
##RRUFFID=R050229
##IDEAL CHEMISTRY=(Ca_3_Ce^3+^)Na(NaCa)Ti^4+^(Si_2_O_7_)_2_(OF)F_2_
##LOCALITY=Kipawa alkaline complex, near Sheffield Lake, Villedieu Township, Temiscamingue County, Quebec, Canada
##OWNER=RRUFF
##SOURCE=Marcus Origlieri
##DESCRIPTION=Aggregate of coarsely crystalline yellowish-gray crystals associated with red eudialyte R050230
##STATUS=The identification of this mineral has been confirmed by X-ray diffraction.
##URL=rruff.info/R050229
93.74609, 67.74724
94.22821, 65.47612
94.71033, 66.26278
95.19244, 69.74696
95.67456, 74.47478
96.15668, 80.00867
96.63879, 86.30932
97.12091, 93.25772
97.60303, 100.8620
98.08514, 109.2248
98.56726, 118.2763
99.04938, 128.0374
99.53149, 138.8716
100.0136, 150.9522
100.4957, 164.2272
100.9778, 178.3776
101.4600, 193.0430
101.9421, 208.7197
102.4242, 226.3989
102.9063, 246.3863
103.3884, 267.9337
103.8705, 290.6672
104.3527, 315.6355
104.8348, 339.4333
105.3169, 361.8578
105.7990, 382.8335
106.2811, 403.8989
106.7632, 425.3040
107.2454, 446.3760
107.7275, 466.2021
108.2096, 484.6023
108.6917, 502.3256
109.1738, 519.1673
109.6559, 534.9782
110.1381, 551.8464
110.6202, 569.5706
111.1023, 588.5676
111.5844, 609.2884
112.0665, 631.3249
112.5486, 655.7238
113.0308, 682.9724
113.5129, 713.7797
113.9950, 746.0428
114.4771, 780.1368
114.9592, 815.2789
115.4413, 850.8024
115.9235, 886.8694
116.4056, 922.8800
116.8877, 958.1142
117.3698, 993.2256
117.8519, 1027.377
118.3340, 1061.208
118.8162, 1094.005
119.2983, 1123.894
119.7804, 1149.055
120.2625, 1171.952
120.7446, 1194.337
121.2267, 1217.166
121.7089, 1239.112
122.1910, 1259.337
122.6731, 1277.956
123.1552, 1295.493
123.6373, 1311.724
124.1194, 1327.136
124.6016, 1342.565
125.0837, 1357.474
125.5658, 1372.796
126.0479, 1389.550
126.5300, 1407.690
127.0121, 1426.441
127.4943, 1444.758
127.9764, 1463.094
128.4585, 1482.973
128.9406, 1503.528
129.4227, 1526.220
129.9048, 1555.510
130.3869, 1592.078
130.8691, 1628.504
131.3512, 1654.970
131.8333, 1673.043
132.3154, 1692.153
132.7975, 1718.314
133.2796, 1749.538
133.7618, 1775.028
134.2439, 1789.876
134.7260, 1793.513
135.2081, 1797.607
135.6902, 1806.502
136.1723, 1814.499
136.6545, 1817.978
137.1366, 1817.021
137.6187, 1818.585
138.1008, 1823.729
138.5829, 1830.450
139.0650, 1834.770
139.5472, 1836.495
140.0293, 1836.836
140.5114, 1836.453
140.9935, 1835.408
141.4756, 1833.061
141.9577, 1828.475
142.4399, 1822.763
142.9220, 1820.557
143.4041, 1823.585
143.8862, 1826.861
144.3683, 1826.588
144.8504, 1819.323
145.3326, 1816.794
145.8147, 1821.720
146.2968, 1833.040
146.7789, 1841.632
147.2610, 1847.383
147.7431, 1850.659
148.2253, 1851.574
148.7074, 1847.917
149.1895, 1845.070
149.6716, 1843.995
150.1537, 1844.717
150.6358, 1844.986
151.1180, 1844.069
151.6001, 1843.089
152.0822, 1842.998
152.5643, 1844.653
153.0464, 1846.281
153.5285, 1847.700
154.0107, 1848.921
154.4928, 1849.835
154.9749, 1850.689
155.4570, 1851.173
155.9391, 1850.988
156.4212, 1849.659
156.9034, 1848.087
157.3855, 1846.189
157.8676, 1843.706
158.3497, 1842.369
158.8318, 1843.329
159.3139, 1845.357
159.7961, 1846.898
160.2782, 1847.582
160.7603, 1847.660
161.2424, 1846.839
161.7245, 1844.570
162.2066, 1843.359
162.6888, 1845.530
163.1709, 1849.095
163.6530, 1850.845
164.1351, 1846.775
164.6172, 1842.475
165.0993, 1841.623
165.5815, 1845.865
166.0636, 1850.148
166.5457, 1852.195
167.0278, 1852.524
167.5099, 1852.203
167.9920, 1851.489
168.4742, 1850.490
168.9563, 1849.200
169.4384, 1847.409
169.9205, 1845.887
170.4026, 1845.188
170.8847, 1845.195
171.3669, 1845.575
171.8490, 1846.805
172.3311, 1848.072
172.8132, 1848.409
173.2953, 1847.258
173.7774, 1845.804
174.2596, 1845.064
174.7417, 1844.899
175.2238, 1844.837
175.7059, 1844.610
176.1880, 1844.259
176.6701, 1843.771
177.1523, 1842.870
177.6344, 1842.163
178.1165, 1842.630
178.5986, 1844.070
179.0807, 1845.331
179.5628, 1845.347
180.0450, 1844.612
180.5271, 1844.241
181.0092, 1844.988
181.4913, 1845.685
181.9734, 1844.065
182.4555, 1840.318
182.9377, 1836.757
183.4198, 1835.328
183.9019, 1835.552
184.3840, 1836.063
184.8661, 1836.702
185.3482, 1837.297
185.8304, 1837.391
186.3125, 1836.982
186.7946, 1836.629
187.2767, 1837.435
187.7588, 1838.942
188.2409, 1838.884
188.7231, 1835.922
189.2052, 1831.351
189.6873, 1828.294
190.1694, 1826.731
190.6515, 1826.369
191.1336, 1827.666
191.6158, 1830.344
192.0979, 1831.914
192.5800, 1831.108
193.0621, 1828.809
193.5442, 1828.579
194.0263, 1830.762
194.5085, 1833.025
194.9906, 1832.578
195.4727, 1829.547
195.9548, 1826.836
196.4369, 1825.302
196.9190, 1824.781
197.4012, 1824.578
197.8833, 1824.803
198.3654, 1824.971
198.8475, 1824.443
199.3296, 1823.185
199.8117, 1822.074
200.2939, 1821.627
200.7760, 1821.639
201.2581, 1820.148
201.7402, 1816.661
202.2223, 1813.013
202.7044, 1811.140
203.1866, 1811.105
203.6687, 1812.544
204.1508, 1816.184
204.6329, 1821.731
205.1150, 1824.205
205.5971, 1822.746
206.0793, 1820.084
206.5614, 1819.451
207.0435, 1821.223
207.5256, 1823.156
208.0077, 1824.855
208.4898, 1826.297
208.9720, 1826.520
209.4541, 1825.015
209.9362, 1823.134
210.4183, 1822.584
210.9004, 1823.728
211.3825, 1824.904
211.8647, 1825.822
212.3468, 1826.489
212.8289, 1826.309
213.3110, 1824.834
213.7931, 1823.178
214.2752, 1822.801
214.7574, 1824.137
215.2395, 1825.550
215.7216, 1826.803
216.2037, 1827.922
216.6858, 1828.150
217.1679, 1826.971
217.6500, 1825.573
218.1322, 1825.447
218.6143, 1827.026
219.0964, 1828.764
219.5785, 1830.367
220.0606, 1831.863
220.5427, 1832.668
221.0249, 1832.428
221.5070, 1831.852
221.9891, 1831.693
222.4712, 1831.860
222.9533, 1832.675
223.4354, 1834.655
223.9176, 1837.998
224.3997, 1839.179
224.8818, 1836.936
225.3639, 1833.934
225.8460, 1833.102
226.3281, 1835.240
226.8103, 1837.995
227.2924, 1841.123
227.7745, 1844.746
228.2566, 1847.302
228.7387, 1848.569
229.2208, 1849.010
229.7030, 1848.897
230.1851, 1847.450
230.6672, 1847.048
231.1493, 1848.730
231.6314, 1852.631
232.1135, 1854.362
232.5957, 1852.494
233.0778, 1849.943
233.5599, 1849.854
234.0420, 1854.094
234.5241, 1857.044
235.0062, 1856.933
235.4884, 1853.742
235.9705, 1852.879
236.4526, 1855.672
236.9347, 1859.401
237.4168, 1861.489
237.8989, 1860.933
238.3811, 1860.661
238.8632, 1861.125
239.3453, 1862.314
239.8274, 1863.964
240.3095, 1866.846
240.7916, 1869.325
241.2738, 1869.796
241.7559, 1866.800
242.2380, 1864.719
242.7201, 1864.320
243.2022, 1865.545
243.6843, 1867.329
244.1665, 1870.632
244.6486, 1873.458
245.1307, 1873.960
245.6128, 1870.266
246.0949, 1868.217
246.5770, 1869.162
247.0592, 1872.721
247.5413, 1875.148
248.0234, 1876.095
248.5055, 1876.320
248.9876, 1876.211
249.4697, 1875.370
249.9519, 1875.006
250.4340, 1875.264
250.9161, 1876.065
251.3982, 1877.061
251.8803, 1878.203
252.3624, 1879.529
252.8446, 1881.017
253.3267, 1882.592
253.8088, 1884.548
254.2909, 1887.373
254.7730, 1890.605
255.2551, 1892.063
255.7373, 1890.713
256.2194, 1889.308
256.7015, 1889.700
257.1836, 1893.298
257.6657, 1894.846
258.1478, 1893.247
258.6299, 1889.676
259.1121, 1887.742
259.5942, 1888.097
260.0763, 1888.958
260.5584, 1889.479
261.0405, 1889.490
261.5226, 1889.685
262.0048, 1890.053
262.4869, 1890.626
262.9690, 1891.508
263.4511, 1892.738
263.9332, 1894.154
264.4153, 1895.925
264.8975, 1898.511
265.3796, 1899.531
265.8617, 1898.543
266.3438, 1896.375
266.8259, 1894.310
267.3080, 1892.041
267.7902, 1890.758
268.2723, 1891.309
268.7544, 1894.096
269.2365, 1895.767
269.7186, 1896.008
270.2007, 1895.551
270.6829, 1895.607
271.1650, 1896.455
271.6471, 1896.821
272.1292, 1896.025
272.6113, 1894.028
273.0934, 1892.853
273.5756, 1892.673
274.0577, 1893.027
274.5398, 1893.354
275.0219, 1893.600
275.5040, 1894.042
275.9861, 1894.885
276.4683, 1896.063
276.9504, 1896.772
277.4325, 1897.019
277.9146, 1896.768
278.3967, 1895.853
278.8788, 1894.206
279.3610, 1892.479
279.8431, 1890.616
280.3252, 1888.817
280.8073, 1888.264
281.2894, 1889.225
281.7715, 1890.351
282.2537, 1890.393
282.7358, 1889.333
283.2179, 1888.200
283.7000, 1887.259
284.1821, 1886.335
284.6642, 1884.804
285.1464, 1882.590
285.6285, 1880.329
286.1106, 1878.273
286.5927, 1876.458
287.0748, 1875.564
287.5569, 1875.950
288.0391, 1876.970
288.5212, 1877.352
289.0033, 1877.103
289.4854, 1876.299
289.9675, 1874.692
290.4496, 1872.453
290.9318, 1870.608
291.4139, 1869.256
291.8960, 1868.310
292.3781, 1867.710
292.8602, 1867.439
293.3423, 1867.334
293.8245, 1867.305
294.3066, 1867.371
294.7887, 1867.751
295.2708, 1868.573
295.7529, 1869.148
296.2350, 1868.460
296.7172, 1866.687
297.1993, 1864.698
297.6814, 1862.260
298.1635, 1859.965
298.6456, 1859.360
299.1277, 1860.545
299.6099, 1862.249
300.0920, 1863.462
300.5741, 1864.198
301.0562, 1864.429
301.5383, 1864.079
302.0204, 1863.272
302.5026, 1861.858
302.9847, 1859.869
303.4668, 1858.338
303.9489, 1858.488
304.4310, 1859.599
304.9131, 1860.356
305.3953, 1859.996
305.8774, 1859.513
306.3595, 1860.067
306.8416, 1861.503
307.3237, 1863.024
307.8058, 1865.018
308.2880, 1866.473
308.7701, 1865.853
309.2522, 1861.844
309.7343, 1857.649
310.2164, 1855.606
310.6985, 1855.398
311.1807, 1856.169
311.6628, 1858.488
312.1449, 1861.035
312.6270, 1862.532
313.1091, 1862.607
313.5912, 1862.305
314.0734, 1861.961
314.5555, 1861.646
315.0376, 1861.501
315.5197, 1861.061
316.0018, 1861.131
316.4839, 1862.511
316.9661, 1865.448
317.4482, 1867.981
317.9303, 1869.355
318.4124, 1869.818
318.8945, 1869.675
319.3766, 1868.792
319.8588, 1867.551
320.3409, 1865.880
320.8230, 1863.822
321.3051, 1862.288
321.7872, 1861.961
322.2693, 1862.100
322.7515, 1862.125
323.2336, 1862.184
323.7157, 1861.875
324.1978, 1860.693
324.6799, 1858.886
325.1620, 1857.829
325.6442, 1858.194
326.1263, 1858.983
326.6084, 1859.682
327.0905, 1860.233
327.5726, 1860.655
328.0547, 1860.829
328.5369, 1860.843
329.0190, 1860.950
329.5011, 1861.192
329.9832, 1861.493
330.4653, 1861.979
330.9474, 1863.186
331.4296, 1863.240
331.9117, 1861.558
332.3938, 1859.022
332.8759, 1856.875
333.3580, 1855.361
333.8401, 1853.880
334.3223, 1852.215
334.8044, 1850.299
335.2865, 1848.862
335.7686, 1847.756
336.2507, 1847.292
336.7328, 1848.011
337.2150, 1850.641
337.6971, 1852.417
338.1792, 1852.605
338.6613, 1851.495
339.1434, 1850.936
339.6255, 1850.999
340.1077, 1851.413
340.5898, 1852.340
341.0719, 1854.011
341.5540, 1854.091
342.0361, 1851.776
342.5182, 1848.322
343.0003, 1846.941
343.4825, 1847.917
343.9646, 1848.920
344.4467, 1848.354
344.9288, 1846.399
345.4109, 1845.682
345.8930, 1846.608
346.3752, 1847.809
346.8573, 1847.132
347.3394, 1844.721
347.8215, 1842.364
348.3036, 1840.459
348.7857, 1839.205
349.2679, 1839.588
349.7500, 1841.695
350.2321, 1843.852
350.7142, 1844.593
351.1963, 1844.104
351.6784, 1842.750
352.1606, 1839.942
352.6427, 1837.106
353.1248, 1836.612
353.6069, 1838.131
354.0890, 1839.613
354.5711, 1839.285
355.0533, 1838.151
355.5354, 1837.678
356.0175, 1838.289
356.4996, 1839.252
356.9817, 1840.005
357.4638, 1840.639
357.9460, 1841.353
358.4281, 1842.618
358.9102, 1843.784
359.3923, 1844.068
359.8744, 1843.270
360.3565, 1842.822
360.8387, 1843.857
361.3208, 1845.596
361.8029, 1847.072
362.2850, 1847.353
362.7671, 1847.785
363.2492, 1849.338
363.7314, 1851.853
364.2135, 1853.526
364.6956, 1852.865
365.1777, 1851.634
365.6598, 1851.059
366.1419, 1851.724
366.6241, 1852.632
367.1062, 1850.835
367.5883, 1856.021
368.0704, 1859.080
368.5525, 1860.126
369.0346, 1853.133
369.5168, 1856.521
369.9989, 1855.749
370.4810, 1854.806
370.9631, 1859.656
371.4452, 1853.832
371.9273, 1858.590
372.4095, 1859.123
372.8916, 1861.590
373.3737, 1859.871
373.8558, 1859.445
374.3379, 1863.206
374.8200, 1864.649
375.3022, 1855.408
375.7843, 1852.083
376.2664, 1848.912
376.7485, 1847.383
377.2306, 1848.247
377.7127, 1850.634
378.1949, 1851.508
378.6770, 1850.527
379.1591, 1849.378
379.6412, 1849.006
380.1233, 1849.406
380.6054, 1850.038
381.0876, 1851.063
381.5697, 1851.801
382.0518, 1851.268
382.5339, 1849.488
383.0160, 1846.883
383.4981, 1843.048
383.9803, 1838.599
384.4624, 1835.576
384.9445, 1834.017
385.4266, 1833.006
385.9087, 1832.314
386.3908, 1831.560
386.8730, 1829.598
387.3551, 1825.544
387.8372, 1821.071
388.3193, 1818.411
388.8014, 1817.214
389.2835, 1815.994
389.7657, 1813.825
390.2478, 1811.183
390.7299, 1808.459
391.2120, 1805.596
391.6941, 1803.175
392.1762, 1801.955
392.6584, 1801.394
393.1405, 1800.610
393.6226, 1799.295
394.1047, 1797.609
394.5868, 1795.864
395.0689, 1794.023
395.5511, 1791.179
396.0332, 1785.430
396.5153, 1779.415
396.9974, 1775.153
397.4795, 1774.748
397.9616, 1774.147
398.4438, 1772.565
398.9259, 1770.259
399.4080, 1768.015
399.8901, 1765.574
400.3722, 1763.527
400.8543, 1762.422
401.3365, 1763.276
401.8186, 1761.983
402.3007, 1756.827
402.7828, 1750.554
403.2649, 1746.690
403.7470, 1746.790
404.2292, 1746.307
404.7113, 1744.135
405.1934, 1740.443
405.6755, 1737.115
406.1576, 1734.048
406.6397, 1731.673
407.1219, 1730.643
407.6040, 1731.209
408.0861, 1731.065
408.5682, 1729.896
409.0503, 1728.112
409.5324, 1726.312
410.0146, 1724.505
410.4967, 1722.921
410.9788, 1721.727
411.4609, 1720.861
411.9430, 1720.093
412.4251, 1719.421
412.9073, 1718.591
413.3894, 1716.924
413.8715, 1714.783
414.3536, 1713.347
414.8357, 1713.087
415.3178, 1713.442
415.8000, 1713.865
416.2821, 1714.318
416.7642, 1714.687
417.2463, 1715.388
417.7284, 1715.731
418.2105, 1714.892
418.6927, 1712.603
419.1748, 1709.851
419.6569, 1706.874
420.1390, 1703.910
420.6211, 1701.390
421.1032, 1699.045
421.5854, 1697.555
422.0675, 1698.008
422.5496, 1700.287
423.0317, 1701.107
423.5138, 1698.237
423.9959, 1694.516
424.4781, 1691.743
424.9602, 1690.593
425.4423, 1689.889
425.9244, 1689.758
426.4065, 1689.995
426.8886, 1690.152
427.3708, 1690.271
427.8529, 1690.250
428.3350, 1690.048
428.8171, 1689.652
429.2992, 1689.152
429.7813, 1688.414
430.2635, 1687.763
430.7456, 1687.717
431.2277, 1688.608
431.7098, 1688.563
432.1919, 1686.862
432.6740, 1684.218
433.1562, 1682.909
433.6383, 1682.996
434.1204, 1683.721
434.6025, 1685.103
435.0846, 1686.881
435.5667, 1687.545
436.0489, 1686.982
436.5310, 1685.469
437.0131, 1682.867
437.4952, 1679.515
437.9773, 1676.612
438.4594, 1674.677
438.9416, 1673.392
439.4236, 1672.315
439.9058, 1671.496
440.3879, 1671.183
440.8700, 1672.943
441.3521, 1674.654
441.8342, 1673.503
442.3163, 1667.801
442.7985, 1662.868
443.2806, 1662.581
443.7627, 1664.943
444.2448, 1666.748
444.7269, 1666.721
445.2090, 1666.036
445.6912, 1665.225
446.1733, 1664.291
446.6554, 1662.504
447.1375, 1658.717
447.6196, 1654.682
448.1017, 1651.487
448.5839, 1648.934
449.0660, 1647.646
449.5481, 1648.343
450.0302, 1650.151
450.5123, 1651.151
450.9944, 1650.760
451.4766, 1650.646
451.9587, 1651.642
452.4408, 1653.874
452.9229, 1654.530
453.4050, 1653.333
453.8871, 1651.265
454.3693, 1648.594
454.8514, 1645.197
455.3335, 1644.117
455.8156, 1646.604
456.2977, 1650.478
456.7798, 1650.819
457.2620, 1647.901
457.7441, 1645.412
458.2262, 1646.063
458.7083, 1648.406
459.1904, 1649.176
459.6725, 1648.218
460.1547, 1646.874
460.6368, 1646.560
461.1189, 1646.600
461.6010, 1645.828
462.0831, 1643.295
462.5652, 1640.716
463.0474, 1639.322
463.5295, 1638.894
464.0116, 1638.864
464.4937, 1639.474
464.9758, 1640.023
465.4579, 1639.920
465.9401, 1638.902
466.4222, 1638.455
466.9043, 1640.157
467.3864, 1642.024
467.8685, 1642.189
468.3506, 1637.625
468.8328, 1634.764
469.3149, 1635.459
469.7970, 1638.478
470.2791, 1639.021
470.7612, 1635.697
471.2433, 1631.987
471.7255, 1629.174
472.2076, 1627.249
472.6897, 1626.479
473.1718, 1627.336
473.6539, 1628.378
474.1360, 1627.450
474.6182, 1624.401
475.1003, 1622.760
475.5824, 1623.731
476.0645, 1626.122
476.5466, 1627.217
477.0287, 1627.080
477.5109, 1626.578
477.9930, 1626.661
478.4751, 1626.641
478.9572, 1624.963
479.4393, 1621.422
479.9214, 1617.402
480.4036, 1613.388
480.8857, 1609.899
481.3678, 1607.837
481.8499, 1609.038
482.3320, 1610.017
482.8141, 1608.322
483.2963, 1604.654
483.7784, 1601.162
484.2605, 1598.219
484.7426, 1596.088
485.2247, 1595.395
485.7068, 1596.919
486.1890, 1596.865
486.6711, 1592.669
487.1532, 1587.803
487.6353, 1585.601
488.1174, 1589.180
488.5995, 1590.399
489.0817, 1586.810
489.5638, 1580.497
490.0459, 1578.902
490.5280, 1584.128
491.0101, 1588.737
491.4922, 1588.847
491.9744, 1584.323
492.4565, 1582.422
492.9386, 1583.577
493.4207, 1585.312
493.9028, 1584.854
494.3849, 1582.493
494.8671, 1580.306
495.3492, 1578.878
495.8313, 1577.524
496.3134, 1574.854
496.7955, 1571.275
497.2776, 1568.228
497.7598, 1567.127
498.2419, 1566.689
498.7240, 1565.390
499.2061, 1563.177
499.6882, 1561.533
500.1703, 1561.801
500.6525, 1562.851
501.1346, 1563.647
501.6167, 1564.043
502.0988, 1564.038
502.5809, 1563.372
503.0630, 1562.296
503.5452, 1561.348
504.0273, 1559.987
504.5094, 1559.348
504.9915, 1560.064
505.4736, 1562.182
505.9557, 1563.247
506.4379, 1563.150
506.9200, 1562.069
507.4021, 1559.687
507.8842, 1555.292
508.3663, 1553.049
508.8484, 1553.810
509.3306, 1555.843
509.8127, 1556.430
510.2948, 1555.620
510.7769, 1553.960
511.2590, 1550.870
511.7411, 1547.529
512.2233, 1547.355
512.7054, 1550.088
513.1875, 1552.736
513.6696, 1552.527
514.1517, 1551.139
514.6339, 1551.170
515.1160, 1553.310
515.5981, 1555.181
516.0802, 1554.554
516.5623, 1552.818
517.0444, 1551.830
517.5266, 1553.070
518.0087, 1554.235
518.4908, 1554.633
518.9729, 1554.281
519.4550, 1553.365
519.9371, 1550.693
520.4193, 1548.549
520.9014, 1547.848
521.3835, 1548.831
521.8656, 1550.359
522.3477, 1553.422
522.8298, 1555.944
523.3120, 1555.277
523.7941, 1550.312
524.2762, 1547.541
524.7583, 1548.494
525.2404, 1551.471
525.7225, 1552.770
526.2047, 1552.419
526.6868, 1551.120
527.1689, 1548.776
527.6510, 1545.816
528.1331, 1542.993
528.6152, 1540.317
529.0974, 1538.640
529.5795, 1539.749
530.0616, 1541.876
530.5437, 1542.349
531.0258, 1540.140
531.5079, 1537.734
531.9901, 1536.463
532.4722, 1536.005
532.9543, 1535.869
533.4364, 1536.090
533.9185, 1536.390
534.4006, 1536.962
534.8828, 1537.682
535.3649, 1537.546
535.8470, 1536.036
536.3291, 1534.043
536.8112, 1531.662
537.2933, 1528.367
537.7755, 1526.874
538.2576, 1527.906
538.7397, 1529.715
539.2218, 1530.346
539.7039, 1529.683
540.1860, 1528.947
540.6682, 1528.468
541.1503, 1527.898
541.6324, 1526.037
542.1145, 1523.087
542.5966, 1520.931
543.0787, 1521.422
543.5609, 1522.997
544.0430, 1523.023
544.5251, 1521.548
545.0072, 1519.781
545.4893, 1518.481
545.9714, 1517.409
546.4536, 1516.286
546.9357, 1514.963
547.4178, 1513.865
547.8999, 1513.497
548.3820, 1513.362
548.8641, 1512.773
549.3463, 1510.237
549.8284, 1508.748
550.3105, 1509.381
550.7926, 1511.685
551.2747, 1513.406
551.7568, 1514.856
552.2390, 1515.245
552.7211, 1514.047
553.2032, 1511.134
553.6853, 1507.971
554.1674, 1504.346
554.6495, 1501.132
555.1317, 1499.261
555.6138, 1498.672
556.0959, 1498.787
556.5780, 1499.788
557.0601, 1500.814
557.5422, 1500.622
558.0244, 1499.492
558.5065, 1498.201
558.9886, 1495.862
559.4707, 1494.480
559.9528, 1496.944
560.4349, 1502.501
560.9171, 1506.514
561.3992, 1505.209
561.8813, 1502.883
562.3634, 1502.212
562.8455, 1503.921
563.3276, 1505.796
563.8098, 1507.956
564.2919, 1509.873
564.7740, 1511.074
565.2561, 1511.281
565.7382, 1511.190
566.2203, 1510.618
566.7025, 1509.925
567.1846, 1510.233
567.6667, 1511.743
568.1488, 1512.943
568.6309, 1513.289
569.1130, 1512.892
569.5952, 1511.573
570.0773, 1509.372
570.5594, 1508.074
571.0415, 1509.730
571.5236, 1512.943
572.0057, 1515.488
572.4879, 1517.111
572.9700, 1518.118
573.4521, 1518.143
573.9342, 1517.891
574.4163, 1518.206
574.8984, 1519.700
575.3806, 1521.351
575.8627, 1523.015
576.3448, 1524.618
576.8269, 1525.985
577.3090, 1526.822
577.7911, 1527.743
578.2733, 1528.989
578.7554, 1530.530
579.2375, 1531.810
579.7196, 1532.854
580.2017, 1533.567
580.6838, 1533.655
581.1660, 1533.129
581.6481, 1533.004
582.1302, 1533.212
582.6123, 1534.353
583.0944, 1538.403
583.5765, 1544.040
584.0587, 1547.365
584.5408, 1546.650
585.0229, 1544.276
585.5050, 1541.389
585.9871, 1538.659
586.4692, 1537.729
586.9514, 1541.886
587.4335, 1545.725
587.9155, 1545.451
588.3976, 1541.299
588.8798, 1539.302
589.3619, 1543.852
589.8440, 1548.126
590.3261, 1548.412
590.8082, 1542.956
591.2903, 1539.492
591.7725, 1538.606
592.2546, 1538.859
592.7367, 1539.032
593.2188, 1539.190
593.7009, 1538.223
594.1830, 1535.547
594.6652, 1532.398
595.1473, 1531.245
595.6294, 1531.656
596.1115, 1531.367
596.5936, 1528.873
597.0757, 1525.530
597.5579, 1522.800
598.0400, 1520.710
598.5221, 1519.061
599.0042, 1517.989
599.4863, 1517.187
599.9684, 1516.476
600.4506, 1515.852
600.9327, 1515.312
601.4148, 1515.458
601.8969, 1515.296
602.3790, 1514.036
602.8611, 1510.839
603.3433, 1508.083
603.8254, 1505.968
604.3075, 1504.182
604.7896, 1502.164
605.2717, 1499.790
605.7538, 1498.009
606.2360, 1497.335
606.7181, 1497.160
607.2002, 1496.082
607.6823, 1494.177
608.1644, 1492.088
608.6465, 1489.767
609.1287, 1487.703
609.6108, 1486.834
610.0929, 1487.112
610.5750, 1487.283
611.0571, 1486.403
611.5392, 1485.288
612.0214, 1484.540
612.5035, 1484.228
612.9856, 1481.448
613.4677, 1485.696
613.9498, 1487.878
614.4319, 1488.109
614.9141, 1480.362
615.3962, 1483.058
615.8783, 1481.654
616.3604, 1480.142
616.8425, 1484.483
617.3246, 1478.211
617.8068, 1482.583
618.2889, 1482.792
618.7710, 1484.996
619.2531, 1483.075
619.7352, 1482.508
620.2173, 1486.190
620.6995, 1487.615
621.1816, 1485.457
621.6637, 1488.152
622.1458, 1482.347
622.6279, 1484.116
623.1100, 1489.187
623.5922, 1487.547
624.0743, 1490.625
624.5564, 1486.072
625.0385, 1486.391
625.5206, 1487.354
626.0027, 1488.518
626.4849, 1489.302
626.9670, 1489.360
627.4491, 1490.158
627.9312, 1492.391
628.4133, 1495.092
628.8954, 1495.473
629.3776, 1493.533
629.8597, 1492.208
630.3418, 1492.586
630.8239, 1494.437
631.3060, 1498.252
631.7881, 1503.604
632.2703, 1507.743
632.7524, 1507.020
633.2345, 1505.516
633.7166, 1507.356
634.1987, 1513.161
634.6808, 1518.081
635.1630, 1519.474
635.6451, 1519.911
636.1272, 1521.258
636.6093, 1524.063
637.0914, 1527.073
637.5735, 1530.666
638.0557, 1534.103
638.5378, 1536.250
639.0199, 1536.872
639.5020, 1537.557
639.9841, 1538.332
640.4662, 1539.715
640.9484, 1543.441
641.4305, 1549.084
641.9126, 1553.895
642.3947, 1555.627
642.8768, 1556.667
643.3589, 1560.283
643.8411, 1565.957
644.3232, 1571.263
644.8053, 1573.937
645.2874, 1576.724
645.7695, 1581.867
646.2516, 1589.812
646.7338, 1596.278
647.2159, 1600.009
647.6980, 1602.508
648.1801, 1604.274
648.6622, 1604.700
649.1443, 1606.433
649.6265, 1609.831
650.1086, 1613.790
650.5907, 1616.900
651.0728, 1619.257
651.5549, 1621.994
652.0370, 1625.439
652.5192, 1629.027
653.0013, 1632.039
653.4834, 1634.523
653.9655, 1636.571
654.4476, 1637.705
654.9297, 1638.928
655.4119, 1641.018
655.8940, 1643.748
656.3761, 1646.431
656.8582, 1650.024
657.3403, 1652.335
657.8224, 1651.880
658.3046, 1648.884
658.7867, 1647.436
659.2688, 1647.522
659.7509, 1649.177
660.2330, 1653.298
660.7151, 1659.884
661.1973, 1663.520
661.6794, 1664.013
662.1615, 1662.967
662.6436, 1660.367
663.1257, 1657.538
663.6078, 1658.222
664.0900, 1663.762
664.5721, 1668.860
665.0542, 1669.085
665.5363, 1666.684
666.0184, 1664.357
666.5005, 1662.415
666.9827, 1661.193
667.4648, 1661.741
667.9469, 1662.834
668.4290, 1662.131
668.9111, 1658.500
669.3932, 1655.028
669.8754, 1651.989
670.3575, 1649.637
670.8396, 1649.701
671.3217, 1652.413
671.8038, 1653.550
672.2859, 1650.221
672.7681, 1644.350
673.2502, 1639.965
673.7323, 1636.907
674.2144, 1633.957
674.6965, 1630.068
675.1786, 1626.185
675.6608, 1623.475
676.1429, 1622.169
676.6250, 1620.016
677.1071, 1615.235
677.5892, 1610.160
678.0714, 1606.518
678.5535, 1605.232
679.0356, 1602.697
679.5177, 1598.251
679.9998, 1593.480
680.4819, 1590.253
680.9641, 1588.550
681.4462, 1586.897
681.9283, 1585.069
682.4104, 1583.272
682.8925, 1581.893
683.3746, 1580.782
683.8568, 1579.644
684.3389, 1578.562
684.8210, 1577.138
685.3031, 1574.539
685.7852, 1571.432
686.2673, 1569.211
686.7495, 1570.011
687.2316, 1569.908
687.7137, 1566.629
688.1958, 1561.295
688.6779, 1558.769
689.1600, 1560.523
689.6422, 1561.723
690.1243, 1559.898
690.6064, 1555.776
691.0885, 1555.126
691.5706, 1558.064
692.0527, 1560.731
692.5349, 1559.689
693.0170, 1556.901
693.4991, 1555.653
693.9812, 1556.121
694.4633, 1557.381
694.9454, 1559.988
695.4276, 1562.390
695.9097, 1563.214
696.3918, 1561.718
696.8739, 1560.281
697.3560, 1559.340
697.8381, 1558.474
698.3203, 1557.209
698.8024, 1555.098
699.2845, 1554.229
699.7666, 1555.058
700.2487, 1556.518
700.7308, 1557.059
701.2130, 1556.854
701.6951, 1556.958
702.1772, 1557.709
702.6593, 1558.709
703.1414, 1559.854
703.6235, 1560.865
704.1057, 1561.188
704.5878, 1559.674
705.0699, 1558.418
705.5520, 1558.628
706.0341, 1559.796
706.5162, 1560.256
706.9984, 1558.775
707.4805, 1558.282
707.9626, 1559.950
708.4447, 1563.171
708.9268, 1564.643
709.4089, 1564.165
709.8911, 1563.339
710.3732, 1562.565
710.8553, 1562.126
711.3374, 1563.339
711.8195, 1565.951
712.3016, 1567.885
712.7838, 1566.875
713.2659, 1565.175
713.7480, 1565.041
714.2301, 1566.787
714.7122, 1567.521
715.1943, 1564.794
715.6765, 1562.185
716.1586, 1561.926
716.6407, 1564.752
717.1228, 1567.177
717.6049, 1569.156
718.0870, 1570.920
718.5692, 1573.122
719.0513, 1575.563
719.5334, 1575.599
720.0155, 1572.575
720.4976, 1569.563
720.9797, 1570.117
721.4619, 1572.730
721.9440, 1575.192
722.4261, 1577.376
722.9082, 1578.161
723.3903, 1575.193
723.8724, 1571.193
724.3546, 1569.696
724.8367, 1573.068
725.3188, 1576.321
725.8009, 1579.585
726.2830, 1582.243
726.7651, 1582.598
727.2473, 1580.319
727.7294, 1579.422
728.2115, 1581.494
728.6936, 1584.689
729.1757, 1585.286
729.6578, 1584.000
730.1400, 1583.319
730.6221, 1585.517
731.1042, 1587.755
731.5863, 1587.615
732.0684, 1585.828
732.5505, 1584.804
733.0327, 1585.762
733.5148, 1586.982
733.9969, 1588.016
734.4790, 1588.888
734.9611, 1589.711
735.4432, 1590.417
735.9254, 1591.374
736.4075, 1593.010
736.8896, 1595.028
737.3717, 1596.048
737.8538, 1596.137
738.3359, 1596.242
738.8181, 1597.326
739.3002, 1598.552
739.7823, 1598.871
740.2644, 1598.242
740.7465, 1597.910
741.2286, 1597.801
741.7108, 1598.572
742.1929, 1601.037
742.6750, 1605.730
743.1571, 1608.604
743.6392, 1608.818
744.1213, 1608.819
744.6035, 1611.008
745.0856, 1615.108
745.5677, 1616.858
746.0498, 1615.875
746.5319, 1614.143
747.0140, 1612.885
747.4962, 1612.295
747.9783, 1612.860
748.4604, 1614.896
748.9425, 1616.992
749.4246, 1619.055
749.9067, 1620.560
750.3889, 1621.010
750.8710, 1619.901
751.3531, 1618.467
751.8352, 1615.803
752.3173, 1613.948
752.7994, 1616.263
753.2816, 1622.903
753.7637, 1626.886
754.2458, 1626.945
754.7279, 1625.266
755.2100, 1623.691
755.6921, 1622.527
756.1743, 1622.420
756.6564, 1623.812
757.1385, 1625.812
757.6206, 1628.620
758.1027, 1631.535
758.5848, 1633.485
759.0670, 1634.233
759.5491, 1634.071
760.0312, 1632.438
760.5133, 1630.349
760.9954, 1629.800
761.4775, 1630.880
761.9597, 1632.365
762.4418, 1634.238
762.9239, 1635.847
763.4060, 1635.623
763.8881, 1634.222
764.3702, 1633.388
764.8524, 1634.273
765.3345, 1635.571
765.8166, 1637.027
766.2987, 1638.366
766.7808, 1638.842
767.2629, 1637.041
767.7451, 1636.079
768.2272, 1636.821
768.7093, 1638.688
769.1914, 1640.021
769.6735, 1640.841
770.1556, 1640.800
770.6378, 1638.869
771.1199, 1636.831
771.6020, 1639.232
772.0841, 1644.754
772.5662, 1648.612
773.0483, 1646.532
773.5305, 1643.683
774.0126, 1643.337
774.4947, 1645.026
774.9768, 1645.887
775.4589, 1644.495
775.9410, 1643.590
776.4232, 1644.232
776.9053, 1646.037
777.3874, 1646.510
777.8695, 1645.544
778.3516, 1644.705
778.8337, 1644.772
779.3159, 1645.536
779.7980, 1646.974
780.2801, 1648.880
780.7622, 1650.232
781.2443, 1649.663
781.7264, 1649.041
782.2086, 1650.012
782.6907, 1652.481
783.1728, 1653.114
783.6549, 1650.055
784.1370, 1647.461
784.6191, 1646.901
785.1012, 1648.202
785.5833, 1650.212
786.0654, 1653.024
786.5475, 1654.858
787.0297, 1653.363
787.5118, 1650.603
787.9939, 1650.785
788.4760, 1653.519
788.9581, 1655.373
789.4402, 1653.697
789.9224, 1651.204
790.4045, 1649.339
790.8866, 1648.228
791.3687, 1647.360
791.8508, 1646.260
792.3329, 1646.281
792.8151, 1648.731
793.2972, 1653.279
793.7793, 1655.137
794.2614, 1654.281
794.7435, 1653.146
795.2256, 1653.674
795.7078, 1654.858
796.1899, 1655.312
796.6720, 1655.021
797.1541, 1654.719
797.6362, 1655.020
798.1183, 1655.158
798.6005, 1654.411
799.0826, 1652.641
799.5647, 1652.104
800.0468, 1653.480
800.5289, 1654.506
801.0110, 1653.315
801.4932, 1650.422
801.9753, 1649.916
802.4574, 1651.731
802.9395, 1653.651
803.4216, 1653.781
803.9037, 1653.381
804.3859, 1654.078
804.8680, 1655.932
805.3501, 1656.843
805.8322, 1655.027
806.3143, 1653.132
806.7964, 1652.523
807.2786, 1653.274
807.7607, 1654.032
808.2428, 1655.008
808.7249, 1655.273
809.2070, 1653.501
809.6891, 1650.580
810.1713, 1649.450
810.6534, 1650.090
811.1355, 1651.551
811.6176, 1654.700
812.0997, 1657.278
812.5818, 1656.882
813.0640, 1653.295
813.5461, 1650.987
814.0282, 1651.074
814.5103, 1652.072
814.9924, 1653.693
815.4745, 1655.875
815.9567, 1656.767
816.4388, 1656.255
816.9209, 1655.598
817.4030, 1655.484
817.8851, 1655.845
818.3672, 1657.004
818.8494, 1658.770
819.3315, 1659.695
819.8136, 1657.540
820.2957, 1655.629
820.7778, 1656.458
821.2599, 1660.237
821.7421, 1662.149
822.2242, 1661.510
822.7063, 1660.398
823.1884, 1659.652
823.6705, 1659.215
824.1526, 1658.849
824.6348, 1658.520
825.1169, 1657.847
825.5990, 1655.886
826.0811, 1653.909
826.5632, 1653.426
827.0453, 1654.200
827.5275, 1654.669
828.0096, 1654.044
828.4917, 1653.278
828.9738, 1652.887
829.4559, 1652.730
829.9380, 1651.466
830.4202, 1648.774
830.9023, 1646.748
831.3844, 1646.611
831.8665, 1647.631
832.3486, 1648.127
832.8307, 1648.251
833.3129, 1648.605
833.7950, 1649.897
834.2771, 1651.187
834.7592, 1652.367
835.2413, 1653.196
835.7234, 1652.382
836.2056, 1648.316
836.6877, 1645.314
837.1698, 1644.795
837.6519, 1645.939
838.1340, 1646.212
838.6161, 1645.643
839.0983, 1645.021
839.5804, 1644.635
840.0625, 1644.369
840.5446, 1643.740
841.0267, 1643.109
841.5089, 1643.405
841.9910, 1647.051
842.4731, 1649.231
842.9552, 1647.493
843.4373, 1643.703
843.9194, 1641.760
844.4016, 1642.155
844.8837, 1642.252
845.3658, 1641.438
845.8479, 1640.069
846.3300, 1638.785
846.8121, 1637.472
847.2943, 1635.761
847.7764, 1633.261
848.2585, 1630.752
848.7406, 1628.318
849.2227, 1626.299
849.7048, 1625.368
850.1870, 1627.200
850.6691, 1627.100
851.1512, 1623.939
851.6333, 1619.688
852.1154, 1617.323
852.5975, 1616.687
853.0797, 1616.179
853.5618, 1615.574
854.0439, 1614.671
854.5260, 1613.472
855.0081, 1611.769
855.4902, 1609.099
855.9724, 1604.330
856.4545, 1600.749
856.9366, 1599.809
857.4187, 1599.613
857.9008, 1598.671
858.3829, 1596.951
858.8651, 1594.471
859.3472, 1591.045
859.8293, 1587.656
860.3114, 1585.720
860.7935, 1584.394
861.2756, 1582.044
861.7578, 1578.319
862.2399, 1574.758
862.7220, 1572.304
863.2041, 1570.169
863.6862, 1567.787
864.1683, 1565.215
864.6505, 1562.339
865.1326, 1559.172
865.6147, 1555.805
866.0968, 1552.254
866.5789, 1548.582
867.0610, 1544.741
867.5432, 1540.787
868.0253, 1538.230
868.5074, 1540.309
868.9895, 1542.345
869.4716, 1540.089
869.9537, 1533.411
870.4359, 1528.263
870.9180, 1524.812
871.4001, 1523.521
871.8822, 1525.586
872.3643, 1529.881
872.8464, 1530.382
873.3286, 1527.208
873.8107, 1522.901
874.2928, 1517.434
874.7749, 1512.546
875.2570, 1510.926
875.7391, 1511.530
876.2213, 1511.343
876.7034, 1508.396
877.1855, 1505.714
877.6676, 1504.109
878.1497, 1503.239
878.6318, 1502.403
879.1140, 1501.690
879.5961, 1500.190
880.0782, 1497.404
880.5603, 1494.291
881.0424, 1492.456
881.5245, 1491.329
882.0067, 1489.640
882.4888, 1485.526
882.9709, 1482.971
883.4530, 1485.045
883.9351, 1488.556
884.4172, 1489.404
884.8994, 1486.690
885.3815, 1484.321
885.8636, 1482.637
886.3457, 1481.247
886.8278, 1479.335
887.3099, 1477.400
887.7921, 1476.721
888.2742, 1477.613
888.7563, 1479.008
889.2384, 1480.659
889.7205, 1482.254
890.2026, 1483.594
890.6848, 1484.764
891.1669, 1485.223
891.6490, 1484.857
892.1311, 1484.069
892.6132, 1482.861
893.0953, 1481.456
893.5775, 1480.926
894.0596, 1481.231
894.5417, 1481.407
895.0238, 1480.441
895.5059, 1479.410
895.9880, 1479.149
896.4702, 1479.656
896.9523, 1480.170
897.4344, 1480.762
897.9165, 1481.157
898.3986, 1481.385
898.8807, 1481.283
899.3629, 1479.924
899.8450, 1477.493
900.3271, 1475.453
900.8092, 1474.343
901.2913, 1474.044
901.7734, 1474.915
902.2556, 1476.464
902.7377, 1477.660
903.2198, 1477.553
903.7019, 1478.154
904.1840, 1480.397
904.6661, 1482.757
905.1483, 1482.129
905.6304, 1478.734
906.1125, 1476.524
906.5946, 1476.218
907.0767, 1477.346
907.5588, 1480.996
908.0410, 1485.064
908.5231, 1486.693
909.0052, 1483.849
909.4873, 1482.327
909.9694, 1483.813
910.4515, 1485.786
910.9337, 1486.338
911.4158, 1485.382
911.8979, 1484.954
912.3800, 1485.091
912.8621, 1485.442
913.3442, 1485.604
913.8264, 1485.887
914.3085, 1487.260
914.7906, 1489.588
915.2727, 1490.134
915.7548, 1484.697
916.2369, 1481.184
916.7191, 1483.634
917.2012, 1490.422
917.6833, 1491.611
918.1654, 1487.039
918.6475, 1483.782
919.1296, 1485.997
919.6118, 1490.107
920.0939, 1491.693
920.5760, 1491.492
921.0581, 1491.187
921.5402, 1491.648
922.0223, 1491.682
922.5045, 1490.604
922.9866, 1489.291
923.4687, 1489.192
923.9508, 1490.409
924.4329, 1491.229
924.9150, 1491.303
925.3972, 1491.177
925.8793, 1491.310
926.3614, 1491.668
926.8435, 1492.278
927.3256, 1493.253
927.8077, 1493.932
928.2899, 1493.753
928.7720, 1493.526
929.2541, 1493.976
929.7362, 1495.228
930.2183, 1494.717
930.7004, 1492.375
931.1826, 1489.594
931.6647, 1486.486
932.1468, 1484.148
932.6289, 1484.909
933.1110, 1488.162
933.5931, 1490.153
934.0753, 1488.519
934.5574, 1486.656
935.0395, 1485.177
935.5216, 1484.375
936.0037, 1485.807
936.4858, 1489.586
936.9680, 1491.987
937.4501, 1491.573
937.9322, 1489.819
938.4143, 1487.869
938.8964, 1486.004
939.3785, 1484.727
939.8607, 1484.077
940.3428, 1484.197
940.8249, 1485.681
941.3070, 1487.293
941.7891, 1487.922
942.2712, 1487.526
942.7534, 1486.305
943.2355, 1484.148
943.7176, 1482.295
944.1997, 1482.928
944.6818, 1483.786
945.1639, 1481.679
945.6461, 1476.314
946.1282, 1472.639
946.6103, 1473.611
947.0924, 1474.449
947.5745, 1473.552
948.0566, 1471.176
948.5388, 1468.150
949.0209, 1464.566
949.5030, 1461.869
949.9851, 1461.632
950.4672, 1461.610
950.9493, 1459.236
951.4315, 1455.494
951.9136, 1452.353
952.3957, 1450.791
952.8778, 1449.122
953.3599, 1446.910
953.8420, 1444.884
954.3242, 1444.557
954.8063, 1445.575
955.2884, 1445.218
955.7705, 1443.083
956.2526, 1439.693
956.7347, 1433.117
957.2169, 1427.033
957.6990, 1425.649
958.1811, 1430.748
958.6632, 1433.018
959.1453, 1431.527
959.6274, 1428.356
960.1096, 1423.873
960.5917, 1418.639
961.0738, 1415.359
961.5559, 1413.767
962.0380, 1412.484
962.5201, 1411.129
963.0023, 1409.439
963.4844, 1407.177
963.9665, 1404.442
964.4486, 1401.553
964.9307, 1398.508
965.4128, 1395.304
965.8950, 1391.847
966.3771, 1388.516
966.8592, 1385.943
967.3413, 1383.915
967.8234, 1381.998
968.3055, 1380.323
968.7877, 1377.706
969.2698, 1371.925
969.7519, 1366.219
970.2340, 1363.494
970.7161, 1364.225
971.1982, 1362.615
971.6804, 1358.118
972.1625, 1354.045
972.6446, 1353.228
973.1267, 1353.820
973.6088, 1352.290
974.0909, 1349.060
974.5731, 1345.743
975.0552, 1342.498
975.5373, 1339.816
976.0194, 1337.842
976.5015, 1336.445
976.9836, 1335.589
977.4658, 1335.330
977.9479, 1334.530
978.4300, 1332.902
978.9121, 1330.963
979.3942, 1329.033
979.8763, 1327.250
980.3585, 1325.949
980.8406, 1325.519
981.3227, 1324.224
981.8048, 1321.007
982.2869, 1317.968
982.7690, 1316.529
983.2511, 1316.448
983.7332, 1315.201
984.2153, 1312.875
984.6974, 1310.683
985.1796, 1310.125
985.6617, 1309.250
986.1438, 1305.795
986.6259, 1300.791
987.1080, 1297.487
987.5901, 1296.929
988.0723, 1296.424
988.5544, 1295.664
989.0365, 1294.682
989.5186, 1293.597
990.0007, 1292.331
990.4828, 1290.637
990.9650, 1288.419
991.4471, 1286.063
991.9292, 1282.645
992.4113, 1280.118
992.8934, 1280.729
993.3755, 1284.816
993.8577, 1285.242
994.3398, 1281.425
994.8219, 1277.257
995.3040, 1274.983
995.7861, 1273.692
996.2682, 1271.554
996.7504, 1269.026
997.2325, 1267.393
997.7146, 1268.261
998.1967, 1268.691
998.6788, 1268.221
999.1609, 1266.841
999.6431, 1264.071
1000.125, 1259.977
1000.607, 1256.974
1001.089, 1255.464
1001.572, 1254.627
1002.054, 1253.662
1002.536, 1253.041
1003.018, 1253.717
1003.500, 1256.070
1003.982, 1256.359
1004.464, 1253.555
1004.946, 1250.324
1005.428, 1247.459
1005.911, 1245.193
1006.393, 1244.778
1006.875, 1245.797
1007.357, 1246.553
1007.839, 1246.346
1008.321, 1245.602
1008.803, 1244.248
1009.285, 1242.569
1009.768, 1240.883
1010.250, 1238.875
1010.732, 1238.205
1011.214, 1239.204
1011.696, 1240.399
1012.178, 1240.481
1012.660, 1239.767
1013.142, 1238.617
1013.624, 1237.096
1014.107, 1235.453
1014.589, 1233.292
1015.071, 1231.708
1015.553, 1231.353
1016.035, 1231.734
1016.517, 1231.029
1016.999, 1229.357
1017.481, 1227.880
1017.964, 1226.859
1018.446, 1226.442
1018.928, 1227.116
1019.410, 1228.266
1019.892, 1229.175
1020.374, 1229.874
1020.856, 1229.956
1021.338, 1229.388
1021.820, 1228.274
1022.303, 1226.114
1022.785, 1223.628
1023.267, 1223.061
1023.749, 1224.107
1024.231, 1224.791
1024.713, 1223.551
1025.195, 1222.428
1025.677, 1222.546
1026.160, 1223.202
1026.642, 1222.657
1027.124, 1220.781
1027.606, 1220.344
1028.088, 1222.217
1028.570, 1224.099
1029.052, 1222.680
1029.534, 1220.433
1030.016, 1220.524
1030.499, 1224.076
1030.981, 1226.173
1031.463, 1226.071
1031.945, 1225.287
1032.427, 1224.238
1032.909, 1223.207
1033.391, 1223.716
1033.873, 1225.246
1034.355, 1225.605
1034.838, 1221.581
1035.320, 1218.724
1035.802, 1220.615
1036.284, 1224.639
1036.766, 1227.222
1037.248, 1228.169
1037.730, 1228.778
1038.212, 1229.120
1038.695, 1229.164
1039.177, 1228.316
1039.659, 1227.495
1040.141, 1228.285
1040.623, 1230.574
1041.105, 1231.740
1041.587, 1230.715
1042.069, 1229.254
1042.552, 1227.372
1043.034, 1225.742
1043.516, 1226.281
1043.998, 1228.507
1044.480, 1230.511
1044.962, 1231.917
1045.444, 1232.665
1045.926, 1232.316
1046.408, 1231.597
1046.891, 1231.029
1047.373, 1230.563
1047.855, 1231.072
1048.337, 1232.671
1048.819, 1234.328
1049.301, 1235.718
1049.783, 1236.565
1050.265, 1235.778
1050.747, 1234.164
1051.230, 1233.881
1051.712, 1237.361
1052.194, 1239.526
1052.676, 1239.568
1053.158, 1238.685
1053.640, 1238.328
1054.122, 1238.338
1054.604, 1237.936
1055.087, 1237.031
1055.569, 1236.697
1056.051, 1238.248
1056.533, 1239.922
1057.015, 1240.600
1057.497, 1240.515
1057.979, 1240.654
1058.461, 1240.999
1058.943, 1242.025
1059.426, 1244.271
1059.908, 1246.377
1060.390, 1246.302
1060.872, 1245.312
1061.354, 1245.288
1061.836, 1247.586
1062.318, 1247.925
1062.800, 1245.163
1063.282, 1242.536
1063.765, 1242.378
1064.247, 1243.955
1064.729, 1244.911
1065.211, 1245.386
1065.693, 1245.943
1066.175, 1247.463
1066.657, 1248.394
1067.139, 1247.871
1067.622, 1246.645
1068.104, 1245.603
1068.586, 1244.759
1069.068, 1243.699
1069.550, 1242.318
1070.032, 1241.478
1070.514, 1241.881
1070.996, 1243.170
1071.479, 1245.839
1071.961, 1249.618
1072.443, 1250.639
1072.925, 1247.740
1073.407, 1245.325
1073.889, 1244.825
1074.371, 1244.994
1074.853, 1243.666
1075.335, 1241.515
1075.818, 1239.744
1076.300, 1238.628
1076.782, 1238.054
1077.264, 1238.264
1077.746, 1238.760
1078.228, 1239.547
1078.710, 1240.432
1079.192, 1239.929
1079.674, 1238.176
1080.157, 1236.156
1080.639, 1234.459
1081.121, 1232.518
1081.603, 1229.488
1082.085, 1226.252
1082.567, 1224.285
1083.049, 1223.955
1083.531, 1222.932
1084.013, 1220.969
1084.496, 1219.184
1084.978, 1218.765
1085.460, 1218.925
1085.942, 1219.083
1086.424, 1219.081
1086.906, 1218.112
1087.388, 1215.442
1087.870, 1213.110
1088.353, 1211.596
1088.835, 1210.466
1089.317, 1209.186
1089.799, 1207.720
1090.281, 1206.102
1090.763, 1204.408
1091.245, 1201.971
1091.727, 1196.825
1092.209, 1192.695
1092.692, 1191.813
1093.174, 1193.365
1093.656, 1193.422
1094.138, 1192.068
1094.620, 1189.982
1095.102, 1186.665
1095.584, 1184.142
1096.066, 1184.903
1096.548, 1186.678
1097.031, 1186.728
1097.513, 1184.628
1097.995, 1182.574
1098.477, 1180.594
1098.959, 1178.512
1099.441, 1174.956
1099.923, 1172.175
1100.405, 1174.775
1100.888, 1180.338
1101.370, 1181.842
1101.852, 1174.500
1102.334, 1168.789
1102.816, 1165.614
1103.298, 1164.216
1103.780, 1164.782
1104.262, 1166.137
1104.745, 1165.090
1105.227, 1161.545
1105.709, 1158.615
1106.191, 1158.946
1106.673, 1158.410
1107.155, 1155.141
1107.637, 1150.543
1108.119, 1147.916
1108.601, 1147.044
1109.083, 1146.936
1109.566, 1147.629
1110.048, 1147.677
1110.530, 1145.737
1111.012, 1143.040
1111.494, 1140.352
1111.976, 1137.722
1112.458, 1135.340
1112.940, 1133.132
1113.423, 1132.391
1113.905, 1134.469
1114.387, 1136.840
1114.869, 1136.909
1115.351, 1135.519
1115.833, 1133.789
1116.315, 1131.903
1116.797, 1129.438
1117.280, 1126.050
1117.762, 1123.283
1118.244, 1122.848
1118.726, 1123.403
1119.208, 1122.535
1119.690, 1120.697
1120.172, 1119.242
1120.654, 1119.523
1121.136, 1118.792
1121.619, 1116.419
1122.101, 1113.588
1122.583, 1111.827
1123.065, 1110.666
1123.547, 1108.356
1124.029, 1104.920
1124.511, 1102.008
1124.993, 1101.048
1125.475, 1100.042
1125.958, 1098.227
1126.440, 1095.979
1126.922, 1094.156
1127.404, 1092.677
1127.886, 1090.680
1128.368, 1087.962
1128.850, 1085.325
1129.332, 1083.110
1129.815, 1081.427
1130.297, 1080.772
1130.779, 1080.785
1131.261, 1078.929
1131.743, 1075.088
1132.225, 1072.271
1132.707, 1071.896
1133.189, 1071.649
1133.672, 1068.786
1134.154, 1065.002
1134.636, 1062.231
1135.118, 1060.841
1135.600, 1059.596
1136.082, 1058.573
1136.564, 1057.286
1137.046, 1055.165
1137.528, 1052.971
1138.010, 1052.238
1138.493, 1052.144
1138.975, 1051.178
1139.457, 1048.548
1139.939, 1045.518
1140.421, 1041.749
1140.903, 1038.388
1141.385, 1036.544
1141.867, 1035.614
1142.350, 1034.279
1142.832, 1032.610
1143.314, 1030.933
1143.796, 1029.674
1144.278, 1027.932
1144.760, 1025.261
1145.242, 1022.551
1145.724, 1021.329
1146.207, 1020.998
1146.689, 1018.951
1147.171, 1015.209
1147.653, 1012.229
1148.135, 1012.225
1148.617, 1012.257
1149.099, 1011.316
1149.581, 1009.699
1150.063, 1007.821
1150.546, 1005.750
1151.028, 1003.965
1151.510, 1002.581
1151.992, 1001.246
1152.474, 999.8430
1152.956, 998.2867
1153.438, 996.3364
1153.920, 994.2028
1154.402, 993.0096
1154.885, 992.7220
1155.367, 991.6318
1155.849, 989.0667
1156.331, 986.3656
1156.813, 984.4001
1157.295, 983.0341
1157.777, 982.4815
1158.259, 982.7026
1158.742, 981.7994
1159.224, 979.7226
1159.706, 977.4280
1160.188, 975.3275
1160.670, 973.1689
1161.152, 970.2051
1161.634, 967.2431
1162.116, 965.4282
1162.599, 965.0285
1163.081, 965.0683
1163.563, 965.6024
1164.045, 966.1907
1164.527, 966.9434
1165.009, 967.2416
1165.491, 965.9882
1165.973, 963.7277
1166.455, 961.5571
1166.938, 959.5950
1167.420, 957.9708
1167.902, 956.8317
1168.384, 955.5406
1168.866, 953.2878
1169.348, 950.7193
1169.830, 948.8387
1170.312, 947.5723
1170.794, 946.6130
1171.277, 945.8653
1171.759, 945.5842
1172.241, 946.0110
1172.723, 946.4007
1173.205, 945.7689
1173.687, 944.5916
1174.169, 943.9588
1174.651, 943.7827
1175.134, 943.0634
1175.616, 940.0833
1176.098, 938.6560
1176.580, 940.1872
1177.062, 942.2242
1177.544, 940.8278
1178.026, 937.2197
1178.508, 933.9181
1178.990, 931.2601
1179.473, 930.0641
1179.955, 932.0781
1180.437, 933.8961
1180.919, 934.8796
1181.401, 934.7684
1181.883, 931.8958
1182.365, 927.5681
1182.847, 926.3203
1183.329, 929.2949
1183.812, 931.9328
1184.294, 932.8359
1184.776, 932.0104
1185.258, 928.6740
1185.740, 924.2177
1186.222, 923.0248
1186.704, 924.3749
1187.186, 925.5247
1187.669, 925.7468
1188.151, 925.7797
1188.633, 925.8685
1189.115, 925.9920
1189.597, 926.3069
1190.079, 926.5983
1190.561, 925.4630
1191.043, 923.2851
1191.526, 922.1673
1192.008, 923.4527
1192.490, 924.4318
1192.972, 923.6467
1193.454, 922.1356
1193.936, 920.4698
1194.418, 918.7029
1194.900, 917.2468
1195.382, 916.1482
1195.865, 915.6241
1196.347, 916.1295
1196.829, 916.6868
1197.311, 917.0110
1197.793, 917.0392
1198.275, 916.6202
1198.757, 915.7822
1199.239, 915.3698
1199.721, 915.3474
1200.204, 915.3040
1200.686, 915.4424
1201.168, 915.0016
1201.650, 912.4777
1202.132, 909.9709
1202.614, 910.1833
1203.096, 913.0803
1203.578, 913.8196
1204.061, 912.4512
1204.543, 911.0140
1205.025, 910.1124
1205.507, 910.1761
1205.989, 912.5963
1206.471, 915.4440
1206.953, 916.0148
1207.435, 914.3596
1207.917, 912.7118
1208.400, 911.2211
1208.882, 910.2559
1209.364, 910.5121
1209.846, 910.8962
1210.328, 910.7567
1210.810, 910.3740
1211.292, 910.1257
1211.774, 910.0087
1212.256, 910.2087
1212.739, 910.7336
1213.221, 910.8292
1213.703, 909.1014
1214.185, 907.7332
1214.667, 908.6359
1215.149, 910.4116
1215.631, 910.3051
1216.113, 908.4637
1216.596, 907.2854
1217.078, 907.0807
1217.560, 907.3098
1218.042, 907.9216
1218.524, 908.5335
1219.006, 909.0893
1219.488, 909.4187
1219.970, 908.7238
1220.453, 907.1824
1220.935, 907.4097
1221.417, 909.9973
1221.899, 911.5145
1222.381, 908.0529
1222.863, 904.6331
1223.345, 904.3744
1223.827, 906.0815
1224.309, 906.5471
1224.792, 905.9275
1225.274, 905.3710
1225.756, 905.0536
1226.238, 905.2107
1226.720, 907.1620
1227.202, 908.2820
1227.684, 906.8095
1228.166, 903.7382
1228.648, 902.3209
1229.131, 902.2335
1229.613, 901.6212
1230.095, 899.8389
1230.577, 898.8695
1231.059, 901.2605
1231.541, 903.1398
1232.023, 902.2535
1232.505, 899.5788
1232.988, 898.3314
1233.470, 898.1891
1233.952, 897.7535
1234.434, 896.5329
1234.916, 895.6700
1235.398, 896.7867
1235.880, 897.1398
1236.362, 895.0432
1236.844, 891.5204
1237.327, 890.0676
1237.809, 890.1400
1238.291, 889.9147
1238.773, 888.7528
1239.255, 887.8124
1239.737, 887.5095
1240.219, 887.5715
1240.701, 887.9283
1241.183, 888.5398
1241.666, 889.7157
1242.148, 891.0336
1242.630, 891.1462
1243.112, 889.1136
1243.594, 887.6685
1244.076, 887.7864
1244.558, 887.9160
1245.040, 887.1216
1245.523, 885.9743
1246.005, 886.1638
1246.487, 887.1064
1246.969, 887.3288
1247.451, 885.8018
1247.933, 885.5198
1248.415, 887.4827
1248.897, 889.1112
1249.380, 888.8991
1249.862, 887.6144
1250.344, 886.5541
1250.826, 885.7327
1251.308, 885.2111
1251.790, 885.2018
1252.272, 885.0359
1252.754, 884.7654
1253.236, 884.0958
1253.719, 882.4903
1254.201, 880.8318
1254.683, 881.2977
1255.165, 882.4260
1255.647, 881.5267
1256.129, 876.7513
1256.611, 874.0257
1257.093, 873.6819
1257.575, 873.7695
1258.058, 873.1552
1258.540, 872.4447
1259.022, 872.3762
1259.504, 872.6900
1259.986, 873.0246
1260.468, 873.3714
1260.950, 873.6431
1261.432, 873.8736
1261.915, 873.5408
1262.397, 872.0088
1262.879, 870.2473
1263.361, 869.0398
1263.843, 868.2025
1264.325, 867.5237
1264.807, 867.0304
1265.289, 866.3285
1265.771, 865.4305
1266.254, 864.6882
1266.736, 864.5204
1267.218, 864.2748
1267.700, 863.2292
1268.182, 862.1038
1268.664, 861.8414
1269.146, 862.4011
1269.628, 861.4980
1270.110, 859.3620
1270.593, 858.0148
1271.075, 859.1844
1271.557, 860.2512
1272.039, 860.0663
1272.521, 859.2402
1273.003, 858.0045
1273.485, 856.4793
1273.967, 855.3257
1274.450, 854.5224
1274.932, 853.9828
1275.414, 853.9575
1275.896, 853.7045
1276.378, 852.6826
1276.860, 852.0263
1277.342, 853.1693
1277.824, 855.0995
1278.307, 854.3610
1278.789, 851.7771
1279.271, 849.6615
1279.753, 849.0043
1280.235, 848.4865
1280.717, 848.0353
1281.199, 847.6313
1281.681, 847.4950
1282.163, 847.2166
1282.646, 845.6369
1283.128, 843.4474
1283.610, 842.1335
1284.092, 842.7363
1284.574, 842.3417
1285.056, 840.8421
1285.538, 838.9464
1286.020, 836.4279
1286.502, 834.4404
1286.984, 835.0379
1287.467, 836.6481
1287.949, 836.7009
1288.431, 834.7756
1288.913, 833.0616
1289.395, 831.5466
1289.877, 830.7948
1290.359, 831.5138
1290.841, 832.5712
1291.324, 833.9832
1291.806, 834.6638
1292.288, 833.3566
1292.770, 830.0840
1293.252, 827.0460
1293.734, 824.3403
1294.216, 822.5602
1294.698, 822.2457
1295.181, 822.4770
1295.663, 823.5300
1296.145, 824.3448
1296.627, 824.2842
1297.109, 823.3555
1297.591, 820.9640
1298.073, 817.7269
1298.555, 815.6804
1299.037, 816.3168
1299.520, 816.7200
1300.002, 816.7241
1300.484, 815.9502
1300.966, 813.2250
1301.448, 810.2028
1301.930, 811.2090
1302.412, 814.4271
1302.894, 816.2066
1303.376, 815.1954
1303.859, 813.8028
1304.341, 811.9252
1304.823, 809.6866
1305.305, 806.8538
1305.787, 803.5662
##END=



