##NAMES=Robinsonite
##RRUFFID=R060970
##IDEAL CHEMISTRY=Pb^2+^_4_Sb^3+^_6_S^2-^_13_
##LOCALITY=Mala Zelezna, Zilinsky Kraj, Slovakia
##OWNER=RRUFF
##SOURCE=Michael Scott
##DESCRIPTION=Mass of randomly oriented silvery-gray striated prismatic crystals
##STATUS=The identification of this mineral has been confirmed by single-crystal X-ray diffraction.
##URL=rruff.info/R060970
112.8440, 224.0259
113.3262, 235.0330
113.8083, 248.1894
114.2904, 264.6820
114.7725, 278.8836
115.2546, 286.1350
115.7367, 290.6462
116.2189, 299.4745
116.7010, 320.9546
117.1831, 343.5704
117.6652, 360.3358
118.1473, 367.0951
118.6294, 372.4207
119.1116, 378.5667
119.5937, 386.0458
120.0758, 396.8703
120.5579, 412.8163
121.0400, 432.6241
121.5221, 454.7332
122.0043, 483.7864
122.4864, 511.7206
122.9685, 532.2888
123.4506, 545.4902
123.9327, 553.2961
124.4148, 553.5197
124.8969, 549.2885
125.3791, 547.2917
125.8612, 552.0506
126.3433, 560.5765
126.8254, 569.2094
127.3075, 578.2277
127.7896, 585.3827
128.2718, 585.4099
128.7539, 579.5847
129.2360, 576.2562
129.7181, 583.6779
130.2002, 598.4019
130.6823, 609.1169
131.1645, 613.7473
131.6466, 613.5181
132.1287, 609.0392
132.6108, 599.8904
133.0929, 592.1166
133.5750, 591.9793
134.0572, 599.3606
134.5393, 607.3719
135.0214, 613.9371
135.5035, 619.5513
135.9856, 628.2963
136.4677, 641.0889
136.9499, 654.5968
137.4320, 662.7543
137.9141, 663.7031
138.3962, 668.4589
138.8783, 685.3604
139.3604, 718.3350
139.8426, 734.2252
140.3247, 727.0911
140.8068, 706.9051
141.2889, 696.4517
141.7710, 698.2403
142.2531, 705.0186
142.7353, 714.1774
143.2174, 728.1823
143.6995, 738.0396
144.1816, 741.7039
144.6637, 740.0543
145.1458, 740.0097
145.6280, 742.4810
146.1101, 745.6337
146.5922, 748.2408
147.0743, 751.4833
147.5564, 752.3694
148.0385, 749.1561
148.5207, 740.9457
149.0028, 736.3453
149.4849, 736.3728
149.9670, 739.6896
150.4491, 744.7080
150.9312, 758.6479
151.4134, 767.6758
151.8955, 766.7608
152.3776, 748.7270
152.8597, 738.6942
153.3418, 740.5062
153.8239, 751.0609
154.3061, 764.4635
154.7882, 790.4066
155.2703, 811.2911
155.7524, 819.3486
156.2345, 804.3605
156.7166, 789.6264
157.1988, 776.0858
157.6809, 765.0801
158.1630, 761.7396
158.6451, 773.9161
159.1272, 790.5101
159.6093, 804.4545
160.0915, 815.7300
160.5736, 822.2209
161.0557, 819.5475
161.5378, 808.4208
162.0199, 801.9111
162.5020, 809.9547
162.9841, 823.5850
163.4663, 833.5805
163.9484, 834.4232
164.4305, 832.6649
164.9126, 831.3452
165.3947, 830.6836
165.8768, 830.4368
166.3590, 830.0004
166.8411, 829.9848
167.3232, 831.3479
167.8053, 836.2613
168.2874, 841.7668
168.7695, 845.9722
169.2517, 849.0572
169.7338, 849.5652
170.2159, 843.2462
170.6980, 832.9500
171.1801, 826.1539
171.6622, 831.3971
172.1444, 840.8369
172.6265, 844.8026
173.1086, 838.2014
173.5907, 830.3766
174.0728, 831.6696
174.5549, 840.6418
175.0371, 848.8598
175.5192, 848.2983
176.0013, 843.2927
176.4834, 841.1626
176.9655, 845.3272
177.4476, 852.4543
177.9298, 859.0664
178.4119, 865.1928
178.8940, 869.8105
179.3761, 871.7285
179.8582, 871.4881
180.3403, 870.5536
180.8225, 867.3434
181.3046, 864.2824
181.7867, 867.7777
182.2688, 878.6681
182.7509, 889.3763
183.2330, 890.0223
183.7152, 882.3209
184.1973, 874.7217
184.6794, 873.7891
185.1615, 876.2948
185.6436, 869.3405
186.1257, 848.7335
186.6079, 829.3682
187.0900, 838.3828
187.5721, 873.6808
188.0542, 906.6387
188.5363, 918.3806
189.0184, 912.6594
189.5006, 909.7672
189.9827, 912.5697
190.4648, 917.9462
190.9469, 919.3555
191.4290, 916.6003
191.9111, 913.9246
192.3932, 914.8806
192.8754, 919.1627
193.3575, 922.1880
193.8396, 922.6647
194.3217, 921.8055
194.8038, 922.8423
195.2859, 925.7561
195.7681, 930.8038
196.2502, 941.0985
196.7323, 956.9218
197.2144, 965.3645
197.6965, 961.3062
198.1786, 947.4540
198.6608, 937.5353
199.1429, 931.7844
199.6250, 929.4881
200.1071, 930.5038
200.5892, 935.1354
201.0714, 940.2814
201.5535, 944.2991
202.0356, 947.4029
202.5177, 955.9244
202.9998, 972.2835
203.4819, 989.3168
203.9641, 995.1893
204.4462, 987.3081
204.9283, 980.4326
205.4104, 981.0125
205.8925, 990.1401
206.3746, 994.3680
206.8568, 992.8196
207.3389, 987.5288
207.8210, 981.5563
208.3031, 974.4017
208.7852, 968.2216
209.2673, 963.3629
209.7495, 959.2252
210.2316, 960.3751
210.7137, 969.9392
211.1958, 982.8070
211.6779, 986.4022
212.1600, 978.0728
212.6422, 967.1287
213.1243, 957.9698
213.6064, 950.9630
214.0885, 944.6716
214.5706, 939.0616
215.0527, 934.0472
215.5349, 928.6299
216.0170, 920.4582
216.4991, 916.2281
216.9812, 922.2642
217.4633, 944.8384
217.9454, 958.7929
218.4276, 959.0848
218.9097, 948.3696
219.3918, 942.3765
219.8739, 944.0012
220.3560, 946.1188
220.8381, 943.0545
221.3203, 931.8820
221.8024, 922.8145
222.2845, 916.9736
222.7666, 914.3355
223.2487, 915.8604
223.7308, 925.5325
224.2129, 934.5193
224.6951, 934.8425
225.1772, 922.8192
225.6593, 909.6171
226.1414, 894.5355
226.6235, 877.5309
227.1056, 872.6924
227.5878, 888.6129
228.0699, 907.9200
228.5520, 912.1004
229.0341, 891.3156
229.5162, 874.2470
229.9983, 867.8380
230.4805, 873.3309
230.9626, 876.9083
231.4447, 878.0926
231.9268, 877.7188
232.4089, 876.7628
232.8910, 875.2191
233.3732, 873.1221
233.8553, 870.7346
234.3374, 868.3406
234.8195, 863.6357
235.3016, 854.4572
235.7837, 844.4715
236.2659, 839.3568
236.7480, 842.5594
237.2301, 844.8837
237.7122, 843.0236
238.1943, 835.2661
238.6764, 830.3579
239.1586, 828.2682
239.6407, 829.0419
240.1228, 833.5591
240.6049, 846.5070
241.0870, 855.6852
241.5691, 856.0945
242.0513, 844.2331
242.5334, 834.4728
243.0155, 825.8303
243.4976, 819.6922
243.9797, 819.7137
244.4618, 830.8549
244.9440, 840.2760
245.4261, 842.5125
245.9082, 834.0161
246.3903, 828.0295
246.8724, 826.9113
247.3545, 827.4834
247.8367, 821.7725
248.3188, 806.1119
248.8009, 790.0452
249.2830, 777.3282
249.7651, 768.5357
250.2472, 762.0191
250.7294, 757.3832
251.2115, 755.1718
251.6936, 757.8972
252.1757, 770.9370
252.6578, 780.6724
253.1399, 779.6932
253.6220, 760.8893
254.1042, 749.2764
254.5863, 747.7403
255.0684, 753.2344
255.5505, 756.9152
256.0326, 758.8328
256.5147, 758.8135
256.9969, 756.1467
257.4790, 748.7083
257.9611, 744.4275
258.4432, 745.3359
258.9253, 749.2714
259.4074, 748.8501
259.8896, 743.0076
260.3717, 734.5584
260.8538, 723.0753
261.3359, 703.9849
261.8180, 696.5022
262.3001, 707.7875
262.7823, 730.2838
263.2644, 735.6399
263.7465, 716.2193
264.2286, 694.2207
264.7107, 683.6169
265.1928, 687.4255
265.6750, 691.8555
266.1571, 697.2281
266.6392, 702.1936
267.1213, 701.2169
267.6034, 692.3920
268.0855, 681.8479
268.5677, 672.3098
269.0498, 662.7905
269.5319, 659.2857
270.0140, 664.6884
270.4961, 675.7702
270.9782, 680.7264
271.4604, 678.4547
271.9425, 673.1197
272.4246, 666.0994
272.9067, 656.3763
273.3888, 651.4573
273.8709, 654.0099
274.3531, 661.0759
274.8352, 662.3764
275.3173, 656.7056
275.7994, 649.0746
276.2815, 641.3638
276.7636, 633.1164
277.2458, 631.1015
277.7279, 638.7986
278.2100, 651.6910
278.6921, 655.3756
279.1742, 648.6047
279.6563, 638.2764
280.1385, 627.6573
280.6206, 616.7714
281.1027, 609.6071
281.5848, 607.8972
282.0669, 609.3468
282.5490, 608.0725
283.0312, 604.0093
283.5133, 597.7408
283.9954, 587.8353
284.4775, 574.5151
284.9596, 565.7219
285.4417, 563.1523
285.9239, 564.7920
286.4060, 566.8839
286.8881, 569.5075
287.3702, 570.9734
287.8523, 568.0975
288.3344, 561.8824
288.8166, 561.1694
289.2987, 568.8442
289.7808, 580.1569
290.2629, 585.8862
290.7450, 586.0410
291.2271, 583.8009
291.7093, 580.2346
292.1914, 575.7750
292.6735, 572.1136
293.1556, 569.3382
293.6377, 567.8784
294.1198, 569.1057
294.6020, 572.8473
295.0841, 576.8655
295.5662, 581.5262
296.0483, 585.5076
296.5304, 584.2515
297.0125, 575.8133
297.4947, 564.9859
297.9768, 556.8688
298.4589, 551.6663
298.9410, 550.8107
299.4231, 557.6980
299.9052, 569.2455
300.3873, 579.9945
300.8694, 589.8300
301.3516, 596.8265
301.8337, 597.5634
302.3158, 593.1714
302.7979, 588.0698
303.2800, 583.6930
303.7621, 580.4856
304.2443, 579.4958
304.7264, 581.5153
305.2085, 583.6116
305.6906, 581.5833
306.1727, 577.3018
306.6548, 575.6148
307.1370, 581.0576
307.6191, 589.5419
308.1012, 598.3623
308.5833, 608.4213
309.0654, 613.0508
309.5475, 601.4142
310.0297, 580.8096
310.5118, 565.3845
310.9939, 567.6951
311.4760, 574.3997
311.9581, 574.6118
312.4402, 565.9083
312.9224, 557.3604
313.4045, 553.9639
313.8866, 554.0429
314.3687, 555.0375
314.8508, 556.5757
315.3329, 558.2184
315.8151, 560.3397
316.2972, 563.3528
316.7793, 564.1238
317.2614, 558.2755
317.7435, 550.3161
318.2256, 545.9218
318.7078, 554.8810
319.1899, 560.7751
319.6720, 553.2759
320.1541, 530.0491
320.6362, 514.3082
321.1183, 517.4952
321.6005, 529.7204
322.0826, 540.9954
322.5647, 551.8550
323.0468, 558.9421
323.5289, 559.7794
324.0110, 553.9083
324.4932, 549.5453
324.9753, 549.8076
325.4574, 551.1408
325.9395, 550.7259
326.4216, 545.4852
326.9037, 541.5313
327.3859, 539.6932
327.8680, 539.9881
328.3501, 541.7666
328.8322, 548.9550
329.3143, 554.8805
329.7964, 555.1099
330.2786, 544.7616
330.7607, 535.6151
331.2428, 529.6378
331.7249, 526.1886
332.2070, 520.2810
332.6891, 511.5433
333.1713, 500.7133
333.6534, 487.4901
334.1355, 468.2364
334.6176, 454.6111
335.0997, 448.9682
335.5818, 449.3828
336.0640, 448.9240
336.5461, 447.9006
337.0282, 445.3603
337.5103, 440.6710
337.9924, 433.6781
338.4745, 425.0652
338.9567, 413.9497
339.4388, 401.9782
339.9209, 391.9828
340.4030, 383.6183
340.8851, 379.0047
341.3672, 382.6085
341.8494, 395.0349
342.3315, 395.9490
342.8136, 381.8904
343.2957, 362.1248
343.7778, 351.4201
344.2599, 350.0660
344.7421, 350.6645
345.2242, 351.4380
345.7063, 351.8608
346.1884, 347.9720
346.6705, 339.1278
347.1526, 328.9711
347.6348, 321.0978
348.1169, 315.6064
348.5990, 313.0229
349.0811, 316.2959
349.5632, 321.9809
350.0453, 321.8574
350.5275, 315.6599
351.0096, 308.7255
351.4917, 305.9489
351.9738, 306.2117
352.4559, 306.8519
352.9380, 307.8528
353.4202, 308.1108
353.9023, 305.5824
354.3844, 300.5493
354.8665, 295.7501
355.3486, 293.4174
355.8307, 292.4189
356.3129, 291.2618
356.7950, 289.5605
357.2771, 287.5808
357.7592, 285.1133
358.2413, 282.3991
358.7234, 280.3954
359.2056, 280.7646
359.6877, 281.4091
360.1698, 280.1584
360.6519, 274.3307
361.1340, 270.8297
361.6161, 274.2245
362.0982, 282.1581
362.5804, 289.2604
363.0625, 294.4953
363.5446, 297.8540
364.0267, 298.9988
364.5088, 297.0570
364.9909, 295.2422
365.4731, 294.3308
365.9552, 293.9255
366.4373, 293.4287
366.9194, 292.5922
367.4015, 291.8153
367.8836, 291.4645
368.3658, 291.9442
368.8479, 291.1489
369.3300, 289.0055
369.8121, 285.6012
370.2942, 280.8465
370.7763, 271.5509
371.2585, 265.4240
371.7406, 265.3850
372.2227, 271.3395
372.7048, 272.8991
373.1869, 268.1763
373.6690, 261.3395
374.1512, 254.2951
374.6333, 244.2150
375.1154, 242.8929
375.5975, 255.4547
376.0796, 277.3614
376.5617, 288.7847
377.0439, 287.8705
377.5260, 282.4677
378.0081, 276.7396
378.4902, 270.5880
378.9723, 264.7205
379.4544, 258.3730
379.9366, 253.5088
380.4187, 255.5649
380.9008, 264.7112
381.3829, 272.5532
381.8650, 274.5067
382.3471, 271.4652
382.8293, 265.8733
383.3114, 256.8875
383.7935, 249.5033
384.2756, 251.5628
384.7577, 261.0312
385.2398, 269.4875
385.7220, 274.3136
386.2041, 275.7117
386.6862, 272.5922
387.1683, 264.9451
387.6504, 257.8332
388.1325, 256.3927
388.6147, 258.0004
389.0968, 258.3717
389.5789, 253.8413
390.0610, 249.9001
390.5431, 251.9356
391.0252, 258.9052
391.5074, 265.3300
391.9895, 269.6646
392.4716, 271.5470
392.9537, 270.4205
393.4358, 264.6969
393.9179, 258.5876
394.4001, 252.1915
394.8822, 246.5000
395.3643, 243.8020
395.8464, 247.2992
396.3285, 251.8975
396.8106, 255.3899
397.2928, 257.4297
397.7749, 258.8275
398.2570, 261.3539
398.7391, 262.7964
399.2212, 260.0719
399.7033, 245.7888
400.1855, 235.5222
400.6676, 233.8325
401.1497, 241.5224
401.6318, 245.9130
402.1139, 244.1478
402.5960, 241.9396
403.0782, 244.8329
403.5603, 256.3709
404.0424, 264.1313
404.5245, 265.5560
405.0066, 261.9396
405.4887, 258.8932
405.9709, 256.3753
406.4530, 254.5329
406.9351, 253.5239
407.4172, 253.3707
407.8993, 253.9050
408.3814, 255.7639
408.8636, 257.1767
409.3457, 253.3429
409.8278, 244.4967
410.3099, 238.0536
410.7920, 240.3050
411.2741, 247.9947
411.7563, 250.0350
412.2384, 245.5015
412.7205, 240.2961
413.2026, 241.2928
413.6847, 246.4520
414.1668, 250.3880
414.6490, 249.8855
415.1311, 248.0960
415.6132, 249.9150
416.0953, 254.7181
416.5774, 256.6628
417.0595, 249.6792
417.5417, 238.9303
418.0238, 229.4525
418.5059, 221.4189
418.9880, 216.8159
419.4701, 218.7403
419.9522, 225.1581
420.4344, 230.7738
420.9165, 234.7236
421.3986, 236.5350
421.8807, 235.0490
422.3628, 228.1976
422.8449, 224.4386
423.3270, 227.2510
423.8091, 233.4147
424.2913, 238.9428
424.7734, 244.9465
425.2555, 248.5906
425.7376, 248.9375
426.2197, 245.9062
426.7018, 241.7798
427.1840, 233.3006
427.6661, 227.0453
428.1482, 229.2021
428.6303, 245.5064
429.1124, 255.1794
429.5945, 254.4308
430.0767, 246.4963
430.5588, 241.0971
431.0409, 238.7176
431.5230, 237.1757
432.0051, 235.7028
432.4872, 234.2714
432.9694, 231.1961
433.4515, 225.6561
433.9336, 220.6385
434.4157, 221.0669
434.8978, 226.3120
435.3799, 231.6596
435.8621, 235.8485
436.3442, 238.6735
436.8263, 238.8252
437.3084, 236.4026
437.7905, 234.4351
438.2726, 235.8966
438.7548, 239.3167
439.2369, 242.6723
439.7190, 246.6909
440.2011, 248.4871
440.6832, 241.7119
441.1653, 230.1091
441.6475, 224.7269
442.1296, 241.8817
442.6117, 259.4943
443.0938, 260.6548
443.5759, 238.0554
444.0580, 218.3838
444.5402, 210.5860
445.0223, 210.8138
445.5044, 214.4635
445.9865, 225.3845
446.4686, 234.9012
446.9507, 241.6055
447.4329, 245.4977
447.9150, 244.8203
448.3971, 234.0270
448.8792, 223.5540
449.3613, 220.4043
449.8434, 229.5366
450.3256, 235.1458
450.8077, 235.4531
451.2898, 232.0143
451.7719, 228.5388
452.2540, 225.0064
452.7361, 221.5620
453.2183, 217.5190
453.7004, 212.9446
454.1825, 212.2352
454.6646, 216.1355
455.1467, 221.2335
455.6288, 223.5363
456.1110, 223.3338
456.5931, 222.4741
457.0752, 221.8484
457.5573, 220.6582
458.0394, 215.0010
458.5215, 205.7724
459.0037, 201.3336
459.4858, 213.2619
459.9679, 231.6674
460.4500, 242.4051
460.9321, 242.1187
461.4142, 237.4962
461.8964, 229.7181
462.3785, 221.2425
462.8606, 216.6198
463.3427, 221.0679
463.8248, 226.9483
464.3069, 230.4244
464.7891, 231.2299
465.2712, 231.6805
465.7533, 232.5384
466.2354, 233.1805
466.7175, 233.1080
467.1996, 231.1369
467.6818, 229.8192
468.1639, 229.8295
468.6460, 230.6523
469.1281, 230.5259
469.6102, 229.1822
470.0923, 227.2951
470.5745, 225.1814
471.0566, 222.9790
471.5387, 218.8286
472.0208, 210.3009
472.5029, 203.9438
472.9850, 212.4065
473.4672, 237.1402
473.9493, 250.0705
474.4314, 237.7692
474.9135, 211.6734
475.3956, 206.7236
475.8777, 222.6992
476.3599, 239.2129
476.8420, 238.4237
477.3241, 227.0825
477.8062, 219.7635
478.2883, 219.1482
478.7704, 221.0956
479.2526, 222.3574
479.7347, 223.2098
480.2168, 224.2212
480.6989, 226.7952
481.1810, 228.7283
481.6631, 227.7722
482.1453, 223.9468
482.6274, 221.2006
483.1095, 221.9095
483.5916, 223.9377
484.0737, 225.6496
484.5558, 226.6655
485.0379, 227.4585
485.5201, 229.8191
486.0022, 232.0248
486.4843, 229.4408
486.9664, 217.9975
487.4485, 206.6424
487.9306, 196.7363
488.4128, 187.4724
488.8949, 187.7951
489.3770, 201.5621
489.8591, 218.7239
490.3412, 229.6785
490.8233, 234.3252
491.3055, 233.8714
491.7876, 226.9902
492.2697, 216.6194
492.7518, 208.7781
493.2339, 203.5468
493.7160, 201.9935
494.1982, 208.8015
494.6803, 219.3852
495.1624, 220.5277
495.6445, 210.0539
496.1266, 200.9843
496.6087, 209.9017
497.0909, 227.5925
497.5730, 238.5404
498.0551, 231.0202
498.5372, 220.2178
499.0193, 215.7386
499.5014, 216.4326
499.9836, 217.1451
500.4657, 214.5041
500.9478, 212.2654
501.4299, 213.5191
501.9120, 222.3671
502.3941, 225.4470
502.8763, 214.2119
503.3584, 198.6310
503.8405, 191.9538
504.3226, 201.2526
504.8047, 208.7628
505.2868, 211.1950
505.7690, 208.9922
506.2511, 205.3224
506.7332, 199.3347
507.2153, 193.9697
507.6974, 190.7140
508.1795, 189.5745
508.6617, 192.1602
509.1438, 199.7570
509.6259, 207.9971
510.1080, 210.4108
510.5901, 207.6098
511.0722, 203.0787
511.5544, 196.7518
512.0365, 190.4399
512.5186, 186.9161
513.0007, 186.0281
513.4828, 186.7115
513.9650, 190.0162
514.4471, 193.6551
514.9292, 194.4835
515.4113, 189.8444
515.8934, 187.7371
516.3755, 195.0848
516.8576, 206.7407
517.3397, 214.6611
517.8218, 215.3220
518.3040, 213.4826
518.7861, 208.1545
519.2682, 199.2959
519.7503, 197.3988
520.2324, 210.5710
520.7145, 222.4570
521.1967, 222.0060
521.6788, 201.9425
522.1609, 191.1991
522.6430, 193.2227
523.1251, 201.9878
523.6072, 207.8075
524.0894, 210.6048
524.5715, 211.1959
525.0536, 208.8759
525.5357, 204.8476
526.0178, 204.0828
526.4999, 206.5307
526.9821, 206.4675
527.4642, 194.8489
527.9463, 178.6485
528.4284, 171.3582
528.9105, 176.7901
529.3926, 185.2486
529.8748, 189.6579
530.3569, 191.4945
530.8390, 193.2019
531.3211, 199.0874
531.8032, 201.9619
532.2853, 195.4605
532.7675, 180.5519
533.2496, 171.8672
533.7317, 179.5201
534.2138, 188.8100
534.6959, 191.3610
535.1780, 182.0875
535.6602, 176.2173
536.1423, 174.5502
536.6244, 175.5748
537.1065, 176.8226
537.5886, 177.5297
538.0707, 181.4887
538.5529, 191.4313
539.0350, 205.0003
539.5171, 212.4548
539.9992, 213.6252
540.4813, 211.0914
540.9634, 204.1242
541.4456, 194.8039
541.9277, 189.0725
542.4098, 187.4501
542.8919, 189.6010
543.3740, 200.0138
543.8561, 213.2859
544.3383, 219.8592
544.8204, 209.5105
545.3025, 197.4507
545.7846, 193.0845
546.2667, 194.8264
546.7488, 196.0308
547.2310, 191.5572
547.7131, 188.3459
548.1952, 191.4358
548.6773, 206.4464
549.1594, 211.0692
549.6415, 195.8190
550.1237, 176.4357
550.6058, 169.0225
551.0879, 178.7951
551.5700, 187.2669
552.0521, 192.3352
552.5342, 194.2147
553.0164, 192.3010
553.4985, 186.0636
553.9806, 181.2030
554.4627, 182.2047
554.9448, 187.1643
555.4269, 188.1213
555.9091, 184.8598
556.3912, 181.1044
556.8733, 180.3336
557.3554, 181.3496
557.8375, 182.2511
558.3196, 182.6378
558.8018, 182.6518
559.2839, 182.7168
559.7660, 182.4631
560.2481, 181.1428
560.7302, 174.7287
561.2123, 170.7004
561.6945, 173.3409
562.1766, 183.2128
562.6587, 190.8493
563.1408, 196.7667
563.6229, 199.2505
564.1050, 196.4741
564.5872, 184.5668
565.0693, 177.7708
565.5514, 177.6564
566.0335, 181.0319
566.5156, 183.7251
566.9977, 185.8436
567.4799, 185.0026
567.9620, 178.9200
568.4441, 170.4550
568.9262, 165.8869
569.4083, 165.1797
569.8904, 168.3477
570.3726, 180.4895
570.8547, 194.2584
571.3368, 198.8864
571.8189, 192.2229
572.3010, 185.3712
572.7831, 188.3254
573.2653, 193.6341
573.7474, 193.1020
574.2295, 171.2146
574.7116, 158.1758
575.1937, 169.5132
575.6758, 195.7525
576.1580, 206.5805
576.6401, 188.3578
577.1222, 171.7351
577.6043, 166.6920
578.0864, 173.7448
578.5685, 177.7632
579.0507, 177.8107
579.5328, 177.3960
580.0149, 180.3302
580.4970, 186.2717
580.9791, 189.2827
581.4612, 188.5350
581.9434, 185.1384
582.4255, 177.6435
582.9076, 168.3638
583.3897, 164.3680
583.8718, 175.2327
584.3539, 187.3185
584.8361, 187.5294
585.3182, 177.7380
585.8003, 167.5049
586.2824, 159.3844
586.7645, 153.7917
587.2466, 151.2425
587.7288, 152.2662
588.2109, 154.5520
588.6930, 159.9750
589.1751, 165.2308
589.6572, 167.3517
590.1393, 164.5809
590.6215, 162.5733
591.1036, 162.0750
591.5857, 162.5130
592.0678, 162.1102
592.5499, 160.6364
593.0320, 160.8517
593.5142, 165.0372
593.9963, 171.5929
594.4784, 175.6709
594.9605, 177.3443
595.4426, 177.5602
595.9247, 176.1870
596.4069, 174.1515
596.8890, 173.1113
597.3711, 173.9595
597.8532, 173.1973
598.3353, 165.8677
598.8174, 156.8658
599.2996, 152.1302
599.7817, 155.9290
600.2638, 161.0856
600.7459, 167.2472
601.2280, 173.8483
601.7101, 178.9604
602.1923, 183.0468
602.6744, 184.8568
603.1565, 183.8376
603.6386, 179.9818
604.1207, 173.3055
604.6028, 162.8593
605.0850, 153.5520
605.5671, 150.3424
606.0492, 152.1919
606.5313, 154.2794
607.0134, 155.6731
607.4955, 158.4600
607.9777, 167.3154
608.4598, 178.9764
608.9419, 187.3534
609.4240, 189.4975
609.9061, 187.9992
610.3882, 181.9015
610.8704, 172.7626
611.3525, 166.5083
611.8346, 167.8551
612.3167, 169.4906
612.7988, 167.0753
613.2809, 159.0826
613.7631, 158.8166
614.2452, 172.3096
614.7273, 184.9385
615.2094, 182.1801
615.6915, 161.1306
616.1736, 151.7518
616.6558, 159.3788
617.1379, 172.9184
617.6200, 175.2111
618.1021, 168.3272
618.5842, 162.1921
619.0663, 160.0721
619.5485, 160.7211
620.0306, 162.9980
620.5127, 166.8684
620.9948, 172.2251
621.4769, 184.4026
621.9590, 193.6949
622.4412, 191.9244
622.9233, 177.0516
623.4054, 166.3603
623.8875, 166.6273
624.3696, 169.7299
624.8517, 170.4223
625.3339, 167.6387
625.8160, 164.9906
626.2981, 163.1219
626.7802, 160.6778
627.2623, 153.4392
627.7444, 140.8772
628.2266, 136.3653
628.7087, 147.2119
629.1908, 163.8702
629.6729, 165.6521
630.1550, 155.2134
630.6371, 145.3097
631.1193, 142.0371
631.6014, 143.6076
632.0835, 150.3876
632.5656, 162.1535
633.0477, 171.6020
633.5298, 176.6246
634.0120, 177.5106
634.4941, 174.0872
634.9762, 164.1256
635.4583, 154.0123
635.9404, 139.1761
636.4225, 127.7400
636.9047, 131.3961
637.3868, 156.7552
637.8689, 172.4090
638.3510, 170.4887
638.8331, 159.1369
639.3152, 157.5257
639.7973, 164.8947
640.2794, 170.3674
640.7615, 166.7176
641.2437, 158.9963
641.7258, 154.8763
642.2079, 154.0006
642.6900, 153.3571
643.1721, 150.0809
643.6542, 147.0114
644.1364, 146.6571
644.6185, 150.0188
645.1006, 153.0398
645.5827, 156.4509
646.0648, 158.0515
646.5469, 155.3501
647.0291, 141.7702
647.5112, 137.9064
647.9933, 149.3455
648.4754, 166.7018
648.9575, 171.8667
649.4396, 164.3002
649.9218, 155.6288
650.4039, 148.3327
650.8860, 143.1934
651.3681, 144.1644
651.8502, 149.9074
652.3323, 153.1003
652.8145, 144.4549
653.2966, 134.6164
653.7787, 135.8997
654.2608, 148.8119
654.7429, 156.4029
655.2250, 144.0356
655.7072, 129.4660
656.1893, 125.1594
656.6714, 139.1358
657.1535, 148.7967
657.6356, 153.1688
658.1177, 154.1691
658.5999, 153.4050
659.0820, 150.5368
659.5641, 147.6223
660.0462, 144.3980
660.5283, 142.2524
661.0104, 144.4529
661.4926, 150.3211
661.9747, 156.3557
662.4568, 161.9084
662.9389, 166.1922
663.4210, 168.2315
663.9031, 168.1288
664.3853, 166.4394
664.8674, 161.2400
665.3495, 156.3386
665.8316, 154.2157
666.3137, 155.6244
666.7958, 156.0928
667.2780, 155.9244
667.7601, 154.1799
668.2422, 149.2360
668.7243, 138.9182
669.2064, 135.5295
669.6885, 141.7563
670.1707, 149.4893
670.6528, 146.4217
671.1349, 134.7628
671.6170, 127.3374
672.0991, 127.7394
672.5812, 132.7472
673.0634, 142.9210
673.5455, 154.8335
674.0276, 160.6770
674.5097, 149.3251
674.9918, 138.3505
675.4739, 137.9016
675.9561, 146.3397
676.4382, 151.4577
676.9203, 147.7867
677.4024, 144.8264
677.8845, 146.8921
678.3666, 154.5078
678.8488, 155.0444
679.3309, 146.3861
679.8130, 137.0776
680.2951, 133.6054
680.7772, 135.1820
681.2593, 137.8685
681.7415, 141.5816
682.2236, 144.7661
682.7057, 144.5417
683.1878, 143.1843
683.6699, 144.9099
684.1520, 154.9705
684.6342, 160.6574
685.1163, 148.9458
685.5984, 130.7683
686.0805, 124.0699
686.5626, 147.9466
687.0447, 163.9363
687.5269, 164.8478
688.0090, 154.4273
688.4911, 144.2926
688.9732, 133.4438
689.4553, 127.0856
689.9374, 128.7185
690.4196, 136.2872
690.9017, 143.2169
691.3838, 149.4143
691.8659, 154.3745
692.3480, 157.3024
692.8301, 159.0674
693.3123, 161.6109
693.7944, 165.4092
694.2765, 165.2679
694.7586, 154.0296
695.2407, 141.0082
695.7228, 133.4261
696.2050, 134.9853
696.6871, 136.2406
697.1692, 135.1669
697.6513, 135.7991
698.1334, 145.3377
698.6155, 165.8106
699.0977, 177.4924
699.5798, 175.9964
700.0619, 167.3411
700.5440, 159.3602
701.0261, 152.4255
701.5082, 147.8937
701.9904, 146.9973
702.4725, 148.1334
702.9546, 148.8575
703.4367, 150.3583
703.9188, 156.3086
704.4009, 181.4305
704.8831, 198.2786
705.3652, 189.0191
705.8473, 155.2954
706.3294, 139.1560
706.8115, 147.4769
707.2936, 160.5775
707.7758, 170.4502
708.2579, 176.9667
708.7400, 173.8559
709.2221, 160.4367
709.7042, 144.5467
710.1863, 130.5492
710.6685, 119.7284
711.1506, 115.1558
711.6327, 117.6910
712.1148, 123.6443
712.5969, 135.5650
713.0790, 147.3265
713.5612, 152.4434
714.0433, 142.0701
714.5254, 135.1371
715.0075, 134.1639
715.4896, 136.6328
715.9717, 139.4211
716.4539, 143.0678
716.9360, 144.4728
717.4181, 142.0169
717.9002, 138.1825
718.3823, 138.9222
718.8644, 143.5093
719.3466, 147.8461
719.8287, 151.1910
720.3108, 152.4198
720.7929, 149.0391
721.2750, 142.1426
721.7571, 135.9248
722.2393, 130.5923
722.7214, 127.9374
723.2035, 129.7693
723.6856, 136.2610
724.1677, 142.0638
724.6498, 147.7694
725.1320, 151.7334
725.6141, 152.8503
726.0962, 151.0870
726.5783, 148.7254
727.0604, 145.7721
727.5425, 141.9951
728.0247, 134.5011
728.5068, 126.7211
728.9889, 126.6104
729.4710, 136.7765
729.9531, 145.5174
730.4352, 143.5695
730.9174, 137.3665
731.3995, 133.2438
731.8816, 133.8095
732.3637, 134.6482
732.8458, 135.9585
733.3279, 137.0112
733.8101, 136.3657
734.2922, 133.2775
734.7743, 132.4875
735.2564, 135.5735
735.7385, 139.9934
736.2206, 140.1678
736.7028, 137.2091
737.1849, 136.2663
737.6670, 142.7879
738.1491, 148.5258
738.6312, 142.7278
739.1133, 129.9702
739.5955, 122.7718
740.0776, 132.6370
740.5597, 141.4370
741.0418, 140.5869
741.5239, 132.2345
742.0060, 130.5661
742.4882, 138.8475
742.9703, 145.9936
743.4524, 146.7154
743.9345, 141.9709
744.4166, 136.0407
744.8987, 128.9365
745.3809, 124.6027
745.8630, 128.5427
746.3451, 135.4966
746.8272, 138.4159
747.3093, 136.6292
747.7914, 135.5710
748.2736, 138.5995
748.7557, 142.6951
749.2378, 146.4897
749.7199, 152.0233
750.2020, 150.0130
750.6841, 136.2397
751.1663, 121.0794
751.6484, 113.3463
752.1305, 113.1064
752.6126, 118.3242
753.0947, 129.9092
753.5768, 141.2436
754.0590, 144.4941
754.5411, 141.9940
755.0232, 137.6223
755.5053, 131.2024
755.9874, 125.6729
756.4695, 120.7634
756.9517, 118.3065
757.4338, 120.8945
757.9159, 135.4288
758.3980, 145.9663
758.8801, 150.9554
759.3622, 151.4405
759.8444, 148.6229
760.3265, 142.2430
760.8086, 135.7847
761.2907, 129.6783
761.7728, 124.8372
762.2549, 122.2750
762.7370, 122.1849
763.2191, 125.1042
763.7012, 135.7773
764.1833, 145.3501
764.6655, 148.4233
765.1476, 145.9022
765.6297, 141.6520
766.1118, 132.3839
766.5939, 126.0344
767.0760, 124.8396
767.5582, 128.3556
768.0403, 135.1564
768.5224, 146.0561
769.0045, 153.4256
769.4866, 150.4744
769.9688, 141.4573
770.4509, 136.5709
770.9330, 135.4225
771.4151, 134.7458
771.8972, 131.0062
772.3793, 128.1183
772.8615, 129.6602
773.3436, 136.2148
773.8257, 141.6369
774.3078, 146.2378
774.7899, 148.2157
775.2720, 145.4268
775.7542, 137.0836
776.2363, 135.0231
776.7184, 140.6576
777.2005, 145.4423
777.6826, 138.6218
778.1647, 125.8693
778.6469, 122.2860
779.1290, 129.9773
779.6111, 137.0956
780.0932, 131.2518
780.5753, 123.4953
781.0574, 125.1843
781.5396, 145.0436
782.0217, 156.3909
782.5038, 152.9016
782.9859, 144.3963
783.4680, 138.7944
783.9501, 136.2432
784.4323, 135.3556
784.9144, 136.1529
785.3965, 138.1976
785.8786, 141.7118
786.3607, 145.9993
786.8428, 150.0645
787.3250, 154.7093
787.8071, 155.8230
788.2892, 146.7010
788.7713, 134.2429
789.2534, 126.5365
789.7355, 127.7000
790.2177, 130.7544
790.6998, 136.5990
791.1819, 143.1637
791.6640, 147.6386
792.1461, 149.8898
792.6282, 151.3389
793.1104, 152.1313
793.5925, 152.5610
794.0746, 154.2205
794.5567, 155.7887
795.0388, 154.0006
795.5209, 143.0130
796.0031, 134.6768
796.4852, 137.6476
796.9673, 146.8102
797.4494, 152.2642
797.9315, 152.2940
798.4136, 149.5049
798.8958, 143.4965
799.3779, 135.4768
799.8600, 127.2167
800.3421, 118.7930
800.8242, 114.8498
801.3063, 119.1788
801.7885, 125.8407
802.2706, 125.5869
802.7527, 120.9145
803.2348, 117.8495
803.7169, 117.7989
804.1990, 121.1751
804.6812, 132.3957
805.1633, 147.5358
805.6454, 152.7501
806.1275, 142.0349
806.6096, 134.0814
807.0917, 133.7993
807.5739, 139.3745
808.0560, 147.7275
808.5381, 158.1626
809.0202, 163.5286
809.5023, 155.6916
809.9844, 144.7409
810.4666, 142.7654
810.9487, 146.9493
811.4308, 147.9144
811.9129, 137.6687
812.3950, 128.4061
812.8771, 124.3605
813.3593, 124.7563
813.8414, 126.7403
814.3235, 131.0295
814.8056, 134.3275
815.2877, 135.5382
815.7698, 134.7182
816.2520, 130.3916
816.7341, 123.4832
817.2162, 119.1750
817.6983, 123.3882
818.1804, 128.9172
818.6625, 130.8773
819.1447, 129.4190
819.6268, 126.2051
820.1089, 117.7798
820.5910, 112.0391
821.0731, 111.4459
821.5552, 115.4838
822.0374, 121.7954
822.5195, 130.7272
823.0016, 138.4413
823.4837, 142.9482
823.9658, 144.9642
824.4479, 145.1544
824.9301, 143.7964
825.4122, 142.3267
825.8943, 142.5232
826.3764, 141.8246
826.8585, 137.3776
827.3406, 129.6334
827.8228, 126.9931
828.3049, 133.0570
828.7870, 137.0645
829.2691, 132.9301
829.7512, 123.3973
830.2333, 123.0897
830.7155, 131.3699
831.1976, 138.7478
831.6797, 136.9947
832.1618, 133.1744
832.6439, 136.5831
833.1260, 145.6598
833.6082, 149.8112
834.0903, 139.0419
834.5724, 129.3812
835.0545, 127.0969
835.5366, 131.3976
836.0187, 135.9960
836.5009, 141.6943
836.9830, 143.8940
837.4651, 137.0837
837.9472, 126.6073
838.4293, 127.8601
838.9114, 138.4413
839.3936, 145.0842
839.8757, 131.6472
840.3578, 119.5505
840.8399, 127.1864
841.3220, 151.8226
841.8041, 160.3418
842.2863, 139.1175
842.7684, 121.6297
843.2505, 120.8014
843.7326, 132.5826
844.2147, 136.2619
844.6968, 132.2289
845.1790, 130.0764
845.6611, 139.3778
846.1432, 150.4205
846.6253, 151.7128
847.1074, 144.8176
847.5895, 136.3979
848.0717, 123.9332
848.5538, 116.0335
849.0359, 118.8235
849.5180, 128.8841
850.0001, 129.1217
850.4822, 116.5914
850.9644, 108.8891
851.4465, 115.3041
851.9286, 129.3211
852.4107, 137.8010
852.8928, 141.0614
853.3749, 139.7999
853.8571, 127.8757
854.3392, 117.7696
854.8213, 118.6357
855.3034, 127.6717
855.7855, 133.3241
856.2676, 134.1124
856.7498, 133.1723
857.2319, 131.3422
857.7140, 128.1953
858.1961, 119.4629
858.6782, 106.3009
859.1603, 101.4788
859.6425, 116.7963
860.1246, 134.7973
860.6067, 136.4318
861.0888, 127.2003
861.5709, 119.5644
862.0530, 117.7927
862.5352, 117.4837
863.0173, 117.6944
863.4994, 118.6472
863.9815, 122.1304
864.4636, 128.8817
864.9457, 129.6517
865.4279, 119.3961
865.9100, 107.2361
866.3921, 107.8867
866.8742, 117.4645
867.3563, 127.7490
867.8384, 138.5055
868.3206, 145.5765
868.8027, 144.9375
869.2848, 140.2334
869.7669, 137.6720
870.2490, 138.3221
870.7311, 138.1599
871.2133, 136.1708
871.6954, 134.2976
872.1775, 137.4030
872.6596, 143.3963
873.1417, 144.1574
873.6238, 135.5005
874.1060, 127.6537
874.5881, 131.2980
875.0702, 138.6789
875.5523, 140.7474
876.0344, 127.4516
876.5165, 122.4214
876.9987, 130.3955
877.4808, 140.4137
877.9629, 138.1771
878.4450, 125.0779
878.9271, 118.6550
879.4092, 121.5625
879.8914, 126.3215
880.3735, 125.9188
880.8556, 123.3728
881.3377, 122.1374
881.8198, 123.0794
882.3019, 124.4302
882.7841, 125.9690
883.2662, 127.6868
883.7483, 129.8414
884.2304, 132.6524
884.7125, 133.5476
885.1946, 132.2428
885.6768, 131.2466
886.1588, 135.5016
886.6409, 140.1826
887.1230, 135.3255
887.6052, 120.2051
888.0873, 111.1721
888.5694, 121.5003
889.0515, 134.4270
889.5336, 140.7919
890.0157, 140.3723
890.4979, 140.4473
890.9800, 141.3784
891.4621, 141.1329
891.9442, 137.7850
892.4263, 132.5762
892.9084, 127.7662
893.3906, 123.5336
893.8727, 120.7839
894.3548, 121.0816
894.8369, 121.9294
895.3190, 122.1122
895.8011, 121.6573
896.2833, 121.3045
896.7654, 121.4450
897.2475, 120.3902
897.7296, 116.4373
898.2117, 111.9796
898.6938, 115.3008
899.1760, 124.2604
899.6581, 129.7356
900.1402, 124.5317
900.6223, 117.5872
901.1044, 112.0886
901.5865, 109.1904
902.0687, 112.4484
902.5508, 128.3303
903.0329, 138.1680
903.5150, 138.0925
903.9971, 132.7311
904.4792, 130.0658
904.9614, 129.5056
905.4435, 127.5019
905.9256, 122.6551
906.4077, 117.6447
906.8898, 113.6631
907.3719, 111.2650
907.8541, 111.0893
908.3362, 113.1094
908.8183, 118.2671
909.3004, 128.9995
909.7825, 139.5637
910.2646, 143.9309
910.7468, 142.4945
911.2289, 139.7777
911.7110, 136.0465
912.1931, 132.2791
912.6752, 129.4321
913.1573, 126.8800
913.6395, 123.8193
914.1216, 119.9728
914.6037, 116.8780
915.0858, 114.3429
915.5679, 113.1410
916.0500, 114.5397
916.5322, 118.2168
917.0143, 117.1355
917.4964, 111.3164
917.9785, 108.0506
918.4606, 115.1481
918.9427, 125.3304
919.4249, 132.0484
919.9070, 134.9810
920.3891, 134.3276
920.8712, 123.5156
921.3533, 117.1453
921.8354, 121.6620
922.3176, 132.8009
922.7997, 133.6103
923.2818, 124.0217
923.7639, 118.7130
924.2460, 125.3483
924.7281, 135.5580
925.2103, 141.4183
925.6924, 143.1472
926.1745, 141.1681
926.6566, 129.0122
927.1387, 122.0169
927.6208, 125.5899
928.1030, 132.8226
928.5851, 133.5455
929.0672, 127.3853
929.5493, 124.4739
930.0314, 126.6066
930.5135, 130.4186
930.9957, 133.5461
931.4778, 135.4136
931.9599, 134.7199
932.4420, 130.2452
932.9241, 126.9243
933.4063, 128.2036
933.8884, 128.7517
934.3705, 123.4179
934.8526, 111.2281
935.3347, 111.6334
935.8168, 125.4120
936.2990, 137.3171
936.7811, 132.7585
937.2632, 121.3778
937.7453, 112.9356
938.2274, 108.1575
938.7095, 107.9242
939.1917, 116.7469
939.6738, 125.6001
940.1559, 132.3755
940.6380, 136.7971
941.1201, 136.5707
941.6022, 131.6551
942.0844, 128.1724
942.5665, 130.6952
943.0486, 133.1618
943.5307, 125.8551
944.0128, 113.5420
944.4949, 105.8181
944.9771, 111.6021
945.4592, 113.9670
945.9413, 107.1134
946.4234, 98.99324
946.9055, 102.7098
947.3876, 117.9030
947.8698, 125.6497
948.3519, 121.9493
948.8340, 117.8855
949.3161, 128.3813
949.7982, 142.8455
950.2803, 148.0828
950.7625, 139.0378
951.2446, 132.2503
951.7267, 129.0467
952.2088, 129.6149
952.6909, 136.1896
953.1730, 148.1180
953.6552, 152.0540
954.1373, 148.1403
954.6194, 142.3121
955.1015, 137.4118
955.5836, 133.4157
956.0657, 130.3779
956.5479, 128.2661
957.0300, 126.9604
957.5121, 127.1022
957.9942, 126.8399
958.4763, 125.1031
958.9584, 123.2706
959.4406, 126.7713
959.9227, 134.1554
960.4048, 135.7374
960.8869, 124.5969
961.3690, 114.2672
961.8511, 118.0933
962.3333, 127.9606
962.8154, 132.8954
963.2975, 127.3534
963.7796, 123.7207
964.2617, 121.9064
964.7438, 122.3139
965.2260, 125.9881
965.7081, 132.2490
966.1902, 140.8497
966.6723, 151.7582
967.1544, 155.5293
967.6365, 135.3528
968.1187, 114.0133
968.6008, 110.0887
969.0829, 124.4504
969.5650, 133.1942
970.0471, 135.2694
970.5292, 135.0782
971.0114, 133.5424
971.4935, 131.8519
971.9756, 134.3341
972.4577, 139.2998
972.9398, 141.1197
973.4219, 132.8318
973.9041, 125.8752
974.3862, 126.5079
974.8683, 130.7164
975.3504, 131.0620
975.8325, 125.9038
976.3146, 125.0012
976.7968, 130.3125
977.2789, 137.2252
977.7610, 141.6683
978.2431, 143.5106
978.7252, 141.6383
979.2073, 134.9669
979.6895, 130.2668
980.1716, 132.7507
980.6537, 135.2907
981.1358, 133.1074
981.6179, 126.3916
982.1000, 126.9623
982.5822, 135.1161
983.0643, 140.0585
983.5464, 130.2172
984.0285, 117.2619
984.5106, 113.3036
984.9927, 117.0956
985.4749, 123.8533
985.9570, 138.7399
986.4391, 147.7230
986.9212, 147.3103
987.4033, 141.1810
987.8854, 134.0303
988.3676, 126.5592
988.8497, 124.5262
989.3318, 130.5382
989.8139, 136.5368
990.2960, 135.9901
990.7781, 131.9574
991.2603, 127.2373
991.7424, 121.3622
992.2245, 117.2960
992.7066, 114.4460
993.1887, 114.8541
993.6708, 122.8547
994.1530, 134.9250
994.6351, 139.0896
995.1172, 136.3289
995.5993, 133.0348
996.0814, 133.6883
996.5635, 133.6771
997.0457, 129.3825
997.5278, 122.8087
998.0099, 118.7602
998.4920, 116.4002
998.9741, 123.0379
999.4562, 143.9900
999.9384, 164.4674
1000.420, 159.5029
1000.903, 141.3553
1001.385, 131.2069
1001.867, 138.7099
1002.349, 141.6999
1002.831, 130.1630
1003.313, 117.2390
1003.795, 110.5892
1004.277, 110.1722
1004.760, 117.9300
1005.242, 133.8589
1005.724, 146.5979
1006.206, 146.0599
1006.688, 141.2609
1007.170, 139.9512
1007.652, 141.4651
1008.134, 140.9672
1008.616, 137.8461
1009.099, 132.7572
1009.581, 124.5937
1010.063, 116.2306
1010.545, 112.4055
1011.027, 112.6803
1011.509, 116.8853
1011.991, 127.1090
1012.473, 133.7923
1012.955, 124.5257
1013.438, 114.5202
1013.920, 118.6453
1014.402, 140.5105
1014.884, 152.9374
1015.366, 155.0847
1015.848, 153.7843
1016.330, 153.5202
1016.812, 152.9540
1017.294, 149.0006
1017.777, 142.6739
1018.259, 138.2867
1018.741, 140.0666
1019.223, 140.3698
1019.705, 137.0419
1020.187, 131.6783
1020.669, 126.6634
1021.151, 122.2039
1021.634, 120.1399
1022.116, 121.0942
1022.598, 123.4008
1023.080, 125.0019
1023.562, 127.6519
1024.044, 134.8213
1024.526, 150.2136
1025.008, 152.9983
1025.490, 139.5656
1025.973, 124.3700
1026.455, 113.4994
1026.937, 108.1895
1027.419, 115.7994
1027.901, 132.8011
1028.383, 144.7950
1028.865, 141.3043
1029.347, 136.7508
1029.830, 136.5328
1030.312, 137.8481
1030.794, 134.4346
1031.276, 125.6069
1031.758, 128.7567
1032.240, 148.3543
1032.722, 166.7535
1033.204, 167.1790
1033.687, 156.8305
1034.169, 138.8335
1034.651, 111.0463
1035.133, 102.8443
1035.615, 126.4007
1036.097, 148.1038
1036.579, 153.3007
1037.061, 146.3558
1037.543, 136.8186
1038.026, 126.2673
1038.508, 121.0275
1038.990, 128.7408
1039.472, 136.2989
1039.954, 136.1288
1040.436, 133.9044
1040.918, 138.8777
1041.400, 154.1515
1041.882, 154.1200
1042.365, 135.1940
1042.847, 115.8474
1043.329, 115.3353
1043.811, 122.7145
1044.293, 125.4945
1044.775, 122.9814
1045.257, 121.8114
1045.739, 124.7939
1046.222, 126.3831
1046.704, 124.3157
1047.186, 120.4485
1047.668, 118.4124
1048.150, 118.4103
1048.632, 121.8988
1049.114, 131.6826
1049.596, 139.4429
1050.078, 138.7305
1050.561, 135.0329
1051.043, 134.1319
1051.525, 137.2212
1052.007, 135.5267
1052.489, 128.4441
1052.971, 122.1990
1053.453, 121.5299
1053.935, 124.0838
1054.417, 128.8846
1054.900, 134.6975
1055.382, 137.0016
1055.864, 128.8350
1056.346, 126.3721
1056.828, 134.5864
1057.310, 145.9287
1057.792, 147.4903
1058.274, 141.8617
1058.757, 138.0803
1059.239, 138.0344
1059.721, 137.4688
1060.203, 131.3837
1060.685, 126.2655
1061.167, 127.3006
1061.649, 134.1246
1062.131, 137.4348
1062.614, 137.1258
1063.096, 136.4656
1063.578, 137.1357
1064.060, 138.0381
1064.542, 140.3777
1065.024, 141.4498
1065.506, 136.2039
1065.988, 112.2574
1066.470, 100.7629
1066.953, 105.8970
1067.435, 116.0776
1067.917, 118.5388
1068.399, 117.1141
1068.881, 125.2607
1069.363, 142.4778
1069.845, 154.9728
1070.327, 152.3612
1070.809, 146.7669
1071.292, 142.0179
1071.774, 138.4695
1072.256, 137.6347
1072.738, 139.4710
1073.220, 139.1651
1073.702, 134.7265
1074.184, 131.0320
1074.666, 135.6514
1075.148, 141.7203
1075.631, 140.4624
1076.113, 127.3811
1076.595, 124.7746
1077.077, 135.3120
1077.559, 147.1100
1078.041, 155.9126
1078.523, 159.8265
1079.005, 150.4645
1079.488, 132.9758
1079.970, 121.7622
1080.452, 128.8580
1080.934, 133.6631
1081.416, 130.0503
1081.898, 125.9716
1082.380, 134.2033
1082.862, 151.8917
1083.344, 153.5704
1083.827, 137.7914
1084.309, 124.1890
1084.791, 128.5359
1085.273, 137.3606
1085.755, 143.7518
1086.237, 147.3783
1086.719, 147.3998
1087.201, 143.2293
1087.683, 140.3097
1088.166, 140.6758
1088.648, 141.0425
1089.130, 134.6566
1089.612, 127.2586
1090.094, 127.6658
1090.576, 141.2960
1091.058, 146.9512
1091.540, 141.1141
1092.023, 132.7602
1092.505, 125.1884
1092.987, 119.4364
1093.469, 119.7365
1093.951, 124.4822
1094.433, 128.4901
1094.915, 127.3152
1095.397, 128.0050
1095.880, 134.8265
1096.362, 142.0831
1096.844, 143.1578
1097.326, 138.4070
1097.808, 135.2240
1098.290, 134.0099
1098.772, 132.9085
1099.254, 130.5409
1099.736, 127.8501
1100.219, 123.7058
1100.701, 119.6966
1101.183, 124.4321
1101.665, 142.0602
1102.147, 141.6228
1102.629, 110.6754
1103.111, 80.74400
1103.593, 99.31831
1104.075, 136.2874
1104.558, 152.7979
1105.040, 139.0729
1105.522, 127.0205
1106.004, 117.0483
1106.486, 113.7529
1106.968, 121.6905
1107.450, 135.1708
1107.932, 141.5282
1108.415, 142.2585
1108.897, 141.4331
1109.379, 140.0254
1109.861, 137.9648
1110.343, 133.8049
1110.825, 130.5041
1111.307, 131.5403
1111.789, 136.3211
1112.271, 136.0498
1112.754, 131.0467
1113.236, 127.2358
1113.718, 128.2242
1114.200, 131.3564
1114.682, 137.5145
1115.164, 144.0267
1115.646, 144.8731
1116.128, 139.2363
1116.610, 134.8766
1117.093, 132.7599
1117.575, 131.9138
1118.057, 133.1659
1118.539, 133.9109
1119.021, 130.4666
1119.503, 122.8018
1119.985, 118.9621
1120.467, 120.6013
1120.950, 121.6816
1121.432, 120.1123
1121.914, 117.7799
1122.396, 117.9680
1122.878, 119.4100
1123.360, 119.8334
1123.842, 118.2738
1124.324, 117.1999
1124.807, 116.1125
1125.289, 116.9556
1125.771, 121.2537
1126.253, 128.1499
1126.735, 136.4267
1127.217, 144.9263
1127.699, 149.4641
1128.181, 145.1733
1128.663, 140.4762
1129.146, 135.7317
1129.628, 133.5887
1130.110, 139.6742
1130.592, 153.1010
1131.074, 151.5773
1131.556, 135.2776
1132.038, 121.2632
1132.520, 121.6101
1133.002, 126.8362
1133.485, 134.9783
1133.967, 142.8525
1134.449, 143.4958
1134.931, 136.4376
1135.413, 125.2627
1135.895, 109.2991
1136.377, 98.11274
1136.859, 102.9065
1137.342, 115.0772
1137.824, 129.3257
1138.306, 144.5358
1138.788, 150.5053
1139.270, 145.6178
1139.752, 136.7301
1140.234, 123.7770
1140.716, 112.7357
1141.198, 113.4406
1141.681, 121.2100
1142.163, 130.4142
1142.645, 142.0314
1143.127, 145.2000
1143.609, 134.9582
1144.091, 127.2025
1144.573, 133.5861
1145.055, 144.7306
1145.537, 131.9273
1146.020, 106.1118
1146.502, 96.15997
1146.984, 128.4540
1147.466, 148.5892
1147.948, 144.8969
1148.430, 132.3105
1148.912, 117.5204
1149.394, 103.3436
1149.877, 109.0038
1150.359, 130.5602
1150.841, 145.6055
1151.323, 136.0363
1151.805, 125.5665
1152.287, 122.3556
1152.769, 122.5317
1153.251, 120.6048
1153.734, 117.0105
1154.216, 119.0545
1154.698, 127.1890
1155.180, 132.7541
1155.662, 125.5884
1156.144, 118.3379
1156.626, 121.5372
1157.108, 129.7018
1157.590, 126.6376
1158.073, 111.9168
1158.555, 112.5099
1159.037, 136.9169
1159.519, 156.4449
1160.001, 135.2471
1160.483, 106.0892
1160.965, 99.23060
1161.447, 113.6541
1161.929, 121.0674
1162.412, 120.7556
1162.894, 119.6697
1163.376, 119.5295
1163.858, 120.9007
1164.340, 127.5038
1164.822, 134.2998
1165.304, 133.9959
1165.786, 123.2138
1166.269, 120.3118
1166.751, 127.4975
1167.233, 132.4211
1167.715, 126.7644
1168.197, 117.7750
1168.679, 116.2025
1169.161, 118.9307
1169.643, 120.4101
1170.125, 118.4333
1170.608, 116.8601
1171.090, 115.6802
1171.572, 114.8905
1172.054, 114.1522
1172.536, 113.9898
1173.018, 116.6863
1173.500, 120.8355
1173.982, 122.1846
1174.464, 113.8145
1174.947, 111.6806
1175.429, 119.4437
1175.911, 128.4641
1176.393, 128.8695
1176.875, 124.1471
1177.357, 120.6834
1177.839, 119.2113
1178.321, 121.5407
1178.804, 134.8092
1179.286, 142.5392
1179.768, 139.1298
1180.250, 132.7963
1180.732, 138.5629
1181.214, 150.5245
1181.696, 150.5253
1182.178, 136.6084
1182.661, 126.0061
1183.143, 128.6416
1183.625, 133.2113
1184.107, 137.4716
1184.589, 140.2560
1185.071, 137.7260
1185.553, 131.5140
1186.035, 127.3421
1186.517, 126.5309
1187.000, 126.4769
1187.482, 125.6868
1187.964, 125.9067
1188.446, 129.0505
1188.928, 133.2517
1189.410, 129.9743
1189.892, 121.2972
1190.374, 116.9916
1190.856, 121.0355
1191.339, 126.3116
1191.821, 133.9627
1192.303, 136.6668
1192.785, 125.4924
1193.267, 104.8842
1193.749, 113.1988
1194.231, 144.3346
1194.713, 162.4507
1195.195, 145.3575
1195.678, 124.7502
1196.160, 112.8822
1196.642, 107.1634
1197.124, 106.2871
1197.606, 110.1138
1198.088, 113.6937
1198.570, 116.9658
1199.052, 119.2713
1199.535, 116.3660
1200.017, 116.9328
1200.499, 130.8070
1200.981, 146.6237
1201.463, 151.6724
1201.945, 145.9379
1202.427, 135.3605
1202.909, 120.6702
1203.391, 111.1353
1203.874, 119.1112
1204.356, 126.9834
1204.838, 121.5864
1205.320, 112.1082
1205.802, 113.5362
1206.284, 125.7673
1206.766, 128.0104
1207.248, 118.9338
1207.730, 110.4883
1208.213, 110.5538
1208.695, 114.1679
1209.177, 121.7606
1209.659, 129.4663
1210.141, 128.5975
1210.623, 119.3585
1211.105, 115.7663
1211.587, 119.7189
1212.070, 125.5146
1212.552, 131.2858
1213.034, 135.0111
1213.516, 134.4393
1213.998, 131.0662
1214.480, 128.0694
1214.962, 125.4343
1215.444, 123.1400
1215.927, 121.0761
1216.409, 120.5686
1216.891, 124.9025
1217.373, 128.9909
1217.855, 128.6931
1218.337, 125.4222
1218.819, 124.5062
1219.301, 125.8026
1219.783, 126.4020
1220.266, 125.2344
1220.748, 125.2724
1221.230, 130.1331
1221.712, 135.7361
1222.194, 139.9539
1222.676, 142.4145
1223.158, 139.5488
1223.640, 131.9983
1224.122, 127.7601
1224.605, 130.4012
1225.087, 133.2166
1225.569, 131.0203
1226.051, 127.8238
1226.533, 126.9373
1227.015, 127.9021
1227.497, 126.4066
1227.979, 122.8496
1228.462, 121.1409
1228.944, 124.8233
1229.426, 125.7796
1229.908, 114.8803
1230.390, 103.1091
1230.872, 98.57021
1231.354, 100.8507
1231.836, 108.8046
1232.318, 121.1265
1232.801, 128.0599
1233.283, 121.4818
1233.765, 115.8399
1234.247, 120.7374
1234.729, 127.3746
1235.211, 128.4115
1235.693, 124.7237
1236.175, 125.1924
1236.657, 129.1141
1237.140, 132.5887
1237.622, 133.4366
1238.104, 133.9118
1238.586, 134.4258
1239.068, 135.3085
1239.550, 135.6621
1240.032, 136.2711
1240.514, 147.4203
1240.997, 165.8835
1241.479, 175.0053
1241.961, 158.5361
1242.443, 142.4238
1242.925, 131.8498
1243.407, 126.2331
1243.889, 128.0873
1244.371, 134.8027
1244.854, 132.2625
1245.336, 122.6624
1245.818, 116.9767
1246.300, 121.6479
1246.782, 129.6622
1247.264, 143.1963
1247.746, 153.3810
1248.228, 147.2038
1248.710, 131.4509
1249.193, 128.1076
1249.675, 134.9081
1250.157, 138.2816
1250.639, 127.8778
1251.121, 121.0417
1251.603, 119.8091
1252.085, 123.1907
1252.567, 132.6163
1253.049, 144.7093
1253.532, 155.7756
1254.014, 163.9209
1254.496, 161.3614
1254.978, 131.0284
1255.460, 117.2809
1255.942, 128.4165
1256.424, 146.1013
1256.906, 152.9063
1257.389, 151.9859
1257.871, 145.9983
1258.353, 136.2574
1258.835, 127.9531
1259.317, 120.3517
1259.799, 118.6236
1260.281, 124.6864
1260.763, 131.0143
1261.245, 127.1368
1261.728, 121.0491
1262.210, 123.4318
1262.692, 132.7789
1263.174, 137.9828
1263.656, 138.0617
1264.138, 136.0151
1264.620, 131.6885
1265.102, 129.1404
1265.584, 132.3014
1266.067, 139.0705
1266.549, 152.8482
1267.031, 168.3849
1267.513, 164.6445
1267.995, 138.7900
1268.477, 123.4995
1268.959, 123.9983
1269.441, 128.2090
1269.924, 127.2027
1270.406, 125.0269
1270.888, 123.4922
1271.370, 123.3586
1271.852, 126.5776
1272.334, 133.1143
1272.816, 144.1717
1273.298, 160.4975
1273.781, 168.5901
1274.263, 149.1411
1274.745, 130.0148
1275.227, 125.6159
1275.709, 130.4332
1276.191, 135.3976
1276.673, 139.5449
1277.155, 135.6634
1277.637, 122.5551
1278.120, 114.2008
1278.602, 121.5046
1279.084, 129.9129
1279.566, 135.4210
1280.048, 138.4184
1280.530, 139.9163
1281.012, 139.4620
1281.494, 134.1581
1281.976, 123.7431
1282.459, 118.3010
1282.941, 124.9356
1283.423, 129.5525
1283.905, 127.9628
1284.387, 125.1021
1284.869, 130.5392
1285.351, 138.7060
1285.833, 140.1229
1286.316, 133.9338
1286.798, 129.9755
1287.280, 129.3662
1287.762, 130.5409
1288.244, 133.7700
1288.726, 136.3867
1289.208, 134.7038
1289.690, 131.0488
1290.172, 125.9707
1290.655, 120.6764
1291.137, 125.3801
1291.619, 142.4900
1292.101, 148.4880
1292.583, 136.7334
##END=



