##NAMES=Robinsonite
##RRUFFID=R060970
##IDEAL CHEMISTRY=Pb^2+^_4_Sb^3+^_6_S^2-^_13_
##LOCALITY=Mala Zelezna, Zilinsky Kraj, Slovakia
##OWNER=RRUFF
##SOURCE=Michael Scott
##DESCRIPTION=Mass of randomly oriented silvery-gray striated prismatic crystals
##STATUS=The identification of this mineral has been confirmed by single-crystal X-ray diffraction.
##URL=rruff.info/R060970
137.9200, 2123.518
138.4021, 2144.793
138.8842, 2185.499
139.3664, 2246.355
139.8485, 2326.145
140.3306, 2422.040
140.8127, 2540.645
141.2948, 2666.793
141.7769, 2797.528
142.2591, 2930.202
142.7412, 3058.473
143.2233, 3172.902
143.7054, 3278.451
144.1875, 3408.788
144.6696, 3589.152
145.1517, 3765.122
145.6339, 3922.747
146.1160, 4061.273
146.5981, 4180.920
147.0802, 4278.995
147.5623, 4355.999
148.0444, 4432.442
148.5266, 4521.044
149.0087, 4595.017
149.4908, 4644.489
149.9729, 4672.563
150.4550, 4687.371
150.9371, 4695.022
151.4193, 4695.499
151.9014, 4688.945
152.3835, 4672.212
152.8656, 4651.159
153.3477, 4621.040
153.8298, 4586.748
154.3120, 4560.249
154.7941, 4553.892
155.2762, 4571.173
155.7583, 4581.929
156.2404, 4575.560
156.7225, 4572.636
157.2047, 4581.053
157.6868, 4600.699
158.1689, 4627.720
158.6510, 4659.048
159.1331, 4695.794
159.6152, 4731.384
160.0974, 4758.538
160.5795, 4790.726
161.0616, 4838.334
161.5437, 4898.854
162.0258, 4959.793
162.5079, 5007.610
162.9901, 5036.946
163.4722, 5077.083
163.9543, 5140.711
164.4364, 5202.324
164.9185, 5244.553
165.4007, 5268.576
165.8828, 5288.630
166.3649, 5319.616
166.8470, 5364.404
167.3291, 5408.195
167.8112, 5457.648
168.2933, 5501.255
168.7755, 5532.583
169.2576, 5550.924
169.7397, 5557.791
170.2218, 5552.915
170.7039, 5531.483
171.1860, 5520.643
171.6682, 5527.220
172.1503, 5538.292
172.6324, 5548.715
173.1145, 5556.614
173.5966, 5557.908
174.0787, 5546.802
174.5609, 5518.784
175.0430, 5499.967
175.5251, 5494.997
176.0072, 5495.333
176.4893, 5495.185
176.9714, 5493.866
177.4536, 5493.214
177.9357, 5493.890
178.4178, 5495.058
178.8999, 5507.566
179.3820, 5543.360
179.8641, 5581.931
180.3463, 5605.336
180.8284, 5612.352
181.3105, 5617.832
181.7926, 5637.286
182.2747, 5674.156
182.7568, 5701.086
183.2390, 5707.709
183.7211, 5711.300
184.2032, 5724.520
184.6853, 5748.745
185.1674, 5780.218
185.6495, 5816.621
186.1317, 5858.708
186.6138, 5900.373
187.0959, 5947.027
187.5780, 5989.561
188.0601, 6016.667
188.5422, 6028.316
189.0244, 6041.283
189.5065, 6072.127
189.9886, 6121.980
190.4707, 6161.116
190.9528, 6172.598
191.4349, 6184.462
191.9170, 6223.956
192.3992, 6291.513
192.8813, 6361.458
193.3634, 6411.009
193.8455, 6440.771
194.3276, 6481.279
194.8097, 6540.341
195.2919, 6605.342
195.7740, 6668.341
196.2561, 6728.715
196.7382, 6785.170
197.2203, 6833.337
197.7024, 6875.534
198.1846, 6930.613
198.6667, 7022.695
199.1488, 7110.017
199.6309, 7149.233
200.1130, 7144.045
200.5951, 7151.639
201.0773, 7218.415
201.5594, 7335.096
202.0415, 7425.626
202.5236, 7481.718
203.0057, 7518.044
203.4878, 7535.692
203.9700, 7537.513
204.4521, 7545.990
204.9342, 7577.918
205.4163, 7627.942
205.8984, 7666.531
206.3805, 7685.387
206.8627, 7700.076
207.3448, 7721.700
207.8269, 7748.436
208.3090, 7770.103
208.7911, 7779.634
209.2732, 7779.919
209.7554, 7783.159
210.2375, 7796.059
210.7196, 7804.318
211.2017, 7795.675
211.6838, 7774.123
212.1659, 7757.081
212.6480, 7756.017
213.1302, 7762.661
213.6123, 7753.826
214.0944, 7719.377
214.5765, 7686.646
215.0586, 7671.278
215.5407, 7668.566
216.0229, 7665.076
216.5050, 7657.668
216.9871, 7643.177
217.4692, 7614.567
217.9513, 7569.319
218.4334, 7518.916
218.9156, 7462.020
219.3977, 7403.399
219.8798, 7356.003
220.3619, 7327.103
220.8440, 7306.435
221.3261, 7272.765
221.8083, 7222.224
222.2904, 7174.556
222.7725, 7138.660
223.2546, 7109.049
223.7367, 7076.230
224.2188, 7036.965
224.7010, 6994.024
225.1831, 6952.222
225.6652, 6912.239
226.1473, 6869.036
226.6294, 6816.004
227.1115, 6760.520
227.5937, 6714.568
228.0758, 6681.596
228.5579, 6652.561
229.0400, 6614.868
229.5221, 6566.075
230.0042, 6524.551
230.4864, 6495.537
230.9685, 6473.547
231.4506, 6455.700
231.9327, 6441.478
232.4148, 6423.767
232.8969, 6393.665
233.3791, 6348.887
233.8612, 6308.991
234.3433, 6277.570
234.8254, 6249.416
235.3075, 6217.994
235.7896, 6183.501
236.2717, 6155.891
236.7539, 6147.145
237.2360, 6158.320
237.7181, 6149.782
238.2002, 6106.530
238.6823, 6057.197
239.1644, 6017.061
239.6466, 5986.379
240.1287, 5962.189
240.6108, 5944.349
241.0929, 5931.704
241.5750, 5908.063
242.0571, 5860.994
242.5393, 5817.372
243.0214, 5795.377
243.5035, 5786.859
243.9856, 5769.124
244.4677, 5727.891
244.9498, 5668.705
245.4320, 5620.298
245.9141, 5587.167
246.3962, 5557.457
246.8783, 5526.614
247.3604, 5497.615
247.8425, 5478.237
248.3247, 5472.770
248.8068, 5473.313
249.2889, 5458.063
249.7710, 5411.649
250.2531, 5368.700
250.7352, 5333.897
251.2174, 5302.561
251.6995, 5270.856
252.1816, 5237.375
252.6637, 5200.194
253.1458, 5155.584
253.6279, 5090.721
254.1101, 5040.973
254.5922, 5012.736
255.0743, 4994.741
255.5564, 4981.502
256.0385, 4970.511
256.5206, 4957.412
257.0027, 4936.449
257.4849, 4904.743
257.9670, 4874.033
258.4491, 4848.343
258.9312, 4820.286
259.4133, 4782.646
259.8954, 4737.461
260.3776, 4694.663
260.8597, 4664.188
261.3418, 4647.994
261.8239, 4623.735
262.3060, 4581.024
262.7881, 4541.136
263.2703, 4515.704
263.7524, 4498.887
264.2345, 4476.923
264.7166, 4439.310
265.1987, 4388.640
265.6808, 4346.278
266.1630, 4319.914
266.6451, 4293.366
267.1272, 4261.443
267.6093, 4228.010
268.0914, 4198.255
268.5735, 4174.739
269.0557, 4156.266
269.5378, 4140.492
270.0199, 4133.282
270.5020, 4117.376
270.9841, 4086.757
271.4662, 4049.630
271.9484, 4012.310
272.4305, 3976.603
272.9126, 3942.424
273.3947, 3907.923
273.8768, 3870.904
274.3589, 3842.110
274.8411, 3828.853
275.3232, 3820.246
275.8053, 3810.642
276.2874, 3799.310
276.7695, 3788.585
277.2516, 3782.112
277.7338, 3780.063
278.2159, 3773.465
278.6980, 3761.333
279.1801, 3744.256
279.6622, 3717.364
280.1443, 3684.654
280.6265, 3659.835
281.1086, 3660.681
281.5907, 3678.020
282.0728, 3672.288
282.5549, 3630.680
283.0370, 3591.941
283.5192, 3581.832
284.0013, 3589.545
284.4834, 3597.003
284.9655, 3600.597
285.4476, 3598.289
285.9297, 3583.205
286.4119, 3552.847
286.8940, 3527.706
287.3761, 3519.211
287.8582, 3521.886
288.3403, 3527.621
288.8224, 3536.277
289.3046, 3546.477
289.7867, 3555.926
290.2688, 3565.373
290.7509, 3579.690
291.2330, 3601.905
291.7151, 3628.681
292.1972, 3652.792
292.6794, 3671.549
293.1615, 3698.794
293.6436, 3749.036
294.1257, 3810.051
294.6078, 3857.595
295.0899, 3884.467
295.5721, 3905.448
296.0542, 3936.464
296.5363, 3977.732
297.0184, 4027.722
297.5005, 4093.264
297.9826, 4163.126
298.4648, 4228.025
298.9469, 4286.842
299.4290, 4342.747
299.9111, 4397.272
300.3932, 4450.381
300.8753, 4508.801
301.3575, 4572.696
301.8396, 4640.880
302.3217, 4716.450
302.8038, 4795.681
303.2859, 4869.688
303.7680, 4933.069
304.2502, 4988.363
304.7323, 5046.498
305.2144, 5119.886
305.6965, 5180.737
306.1786, 5218.540
306.6607, 5245.630
307.1429, 5279.393
307.6250, 5324.760
308.1071, 5368.181
308.5892, 5384.469
309.0713, 5355.500
309.5534, 5335.408
310.0356, 5333.255
310.5177, 5331.430
310.9998, 5319.792
311.4819, 5297.174
311.9640, 5267.356
312.4461, 5232.161
312.9283, 5191.042
313.4104, 5154.378
313.8925, 5136.761
314.3746, 5108.563
314.8567, 5055.289
315.3388, 4985.057
315.8210, 4913.385
316.3031, 4848.556
316.7852, 4789.506
317.2673, 4732.530
317.7494, 4675.402
318.2315, 4624.924
318.7137, 4585.733
319.1958, 4552.595
319.6779, 4520.842
320.1600, 4489.135
320.6421, 4458.444
321.1242, 4429.285
321.6064, 4401.404
322.0885, 4377.850
322.5706, 4359.104
323.0527, 4345.451
323.5348, 4336.922
324.0169, 4333.427
324.4991, 4333.005
324.9812, 4337.508
325.4633, 4344.028
325.9454, 4344.707
326.4275, 4337.346
326.9096, 4328.303
327.3918, 4325.805
327.8739, 4327.176
328.3560, 4319.954
328.8381, 4299.717
329.3202, 4271.612
329.8023, 4237.041
330.2845, 4197.288
330.7666, 4160.877
331.2487, 4135.767
331.7308, 4115.937
332.2129, 4076.997
332.6950, 4001.295
333.1772, 3932.425
333.6593, 3892.264
334.1414, 3864.948
334.6235, 3824.866
335.1056, 3763.089
335.5877, 3687.838
336.0698, 3611.940
336.5519, 3534.630
337.0341, 3457.801
337.5162, 3377.821
337.9983, 3301.275
338.4804, 3235.717
338.9625, 3179.375
339.4446, 3123.090
339.9268, 3058.321
340.4089, 2984.773
340.8910, 2911.372
341.3731, 2833.903
341.8552, 2761.459
342.3373, 2697.966
342.8195, 2640.790
343.3016, 2585.863
343.7837, 2530.764
344.2658, 2477.297
344.7479, 2430.596
345.2300, 2394.181
345.7122, 2356.628
346.1943, 2313.781
346.6764, 2270.442
347.1585, 2230.091
347.6406, 2193.418
348.1227, 2159.998
348.6049, 2127.423
349.0870, 2096.298
349.5691, 2075.754
350.0512, 2072.460
350.5333, 2072.208
351.0154, 2067.457
351.4976, 2058.100
351.9797, 2043.275
352.4618, 2018.629
352.9439, 1990.075
353.4260, 1964.978
353.9081, 1943.139
354.3903, 1928.441
354.8724, 1927.314
355.3545, 1933.458
355.8366, 1930.299
356.3187, 1913.915
356.8008, 1894.637
357.2830, 1875.418
357.7651, 1857.178
358.2472, 1841.362
358.7293, 1828.344
359.2114, 1818.744
359.6935, 1813.836
360.1757, 1815.188
360.6578, 1816.843
361.1399, 1822.900
361.6220, 1826.006
362.1041, 1818.860
362.5862, 1802.705
363.0684, 1784.554
363.5505, 1769.292
364.0326, 1757.101
364.5147, 1751.698
364.9968, 1758.102
365.4789, 1765.771
365.9611, 1775.181
366.4432, 1783.901
366.9253, 1788.571
367.4074, 1787.842
367.8895, 1784.344
368.3716, 1783.377
368.8538, 1787.289
369.3359, 1786.585
369.8180, 1776.492
370.3001, 1764.618
370.7822, 1753.320
371.2643, 1743.614
371.7465, 1737.386
372.2286, 1736.573
372.7107, 1740.592
373.1928, 1747.988
373.6749, 1761.918
374.1570, 1772.070
374.6392, 1770.785
375.1213, 1762.479
375.6034, 1752.329
376.0855, 1738.221
376.5676, 1727.842
377.0497, 1733.169
377.5319, 1750.710
378.0140, 1759.499
378.4961, 1750.509
378.9782, 1732.672
379.4603, 1720.033
379.9424, 1713.216
380.4246, 1706.099
380.9066, 1693.855
381.3888, 1682.668
381.8709, 1680.530
382.3530, 1687.555
382.8351, 1696.229
383.3172, 1701.014
383.7993, 1701.909
384.2815, 1698.138
384.7636, 1684.299
385.2457, 1672.706
385.7278, 1666.779
386.2099, 1665.262
386.6920, 1668.158
387.1742, 1675.349
387.6563, 1681.655
388.1384, 1674.860
388.6205, 1643.577
389.1026, 1627.449
389.5847, 1640.644
390.0669, 1657.982
390.5490, 1665.051
391.0311, 1662.741
391.5132, 1661.179
391.9953, 1669.792
392.4774, 1685.544
392.9596, 1693.606
393.4417, 1690.703
393.9238, 1687.662
394.4059, 1693.599
394.8880, 1700.924
395.3701, 1698.658
395.8523, 1681.201
396.3344, 1662.191
396.8165, 1654.302
397.2986, 1655.045
397.7807, 1652.409
398.2628, 1641.065
398.7450, 1630.535
399.2271, 1636.415
399.7092, 1659.505
400.1913, 1674.014
400.6734, 1672.640
401.1555, 1663.495
401.6377, 1648.287
402.1198, 1630.022
402.6019, 1619.220
403.0840, 1624.100
403.5661, 1640.655
404.0482, 1648.747
404.5304, 1639.115
405.0125, 1632.598
405.4946, 1635.525
405.9767, 1640.214
406.4588, 1637.053
406.9409, 1624.788
407.4231, 1612.310
407.9052, 1611.036
408.3873, 1622.827
408.8694, 1632.539
409.3515, 1641.056
409.8336, 1646.219
410.3158, 1646.412
410.7979, 1642.834
411.2800, 1636.974
411.7621, 1627.723
412.2442, 1619.617
412.7263, 1622.260
413.2085, 1636.872
413.6906, 1646.739
414.1727, 1643.249
414.6548, 1635.562
415.1369, 1636.450
415.6190, 1647.021
416.1012, 1653.720
416.5833, 1647.538
417.0654, 1635.653
417.5475, 1628.159
418.0296, 1626.057
418.5117, 1625.021
418.9939, 1621.436
419.4760, 1615.874
419.9581, 1614.513
420.4402, 1620.971
420.9223, 1626.712
421.4044, 1628.666
421.8866, 1628.716
422.3687, 1629.860
422.8508, 1632.953
423.3329, 1635.978
423.8150, 1636.022
424.2971, 1632.797
424.7793, 1627.562
425.2614, 1615.138
425.7435, 1605.727
426.2256, 1605.565
426.7077, 1611.568
427.1898, 1616.145
427.6719, 1614.018
428.1541, 1609.804
428.6362, 1615.892
429.1183, 1635.686
429.6004, 1646.996
430.0825, 1636.701
430.5646, 1619.465
431.0468, 1610.130
431.5289, 1609.705
432.0110, 1610.856
432.4931, 1613.751
432.9752, 1614.585
433.4573, 1602.920
433.9395, 1577.550
434.4216, 1558.671
434.9037, 1563.256
435.3858, 1587.529
435.8679, 1600.818
436.3500, 1594.293
436.8322, 1588.814
437.3143, 1591.110
437.7964, 1597.502
438.2785, 1604.154
438.7606, 1609.614
439.2427, 1612.441
439.7249, 1609.677
440.2070, 1598.910
440.6891, 1594.177
441.1712, 1599.526
441.6533, 1607.046
442.1354, 1617.857
442.6176, 1628.362
443.0997, 1632.182
443.5818, 1625.437
444.0639, 1613.147
444.5460, 1602.122
445.0281, 1591.995
445.5103, 1587.474
445.9924, 1591.605
446.4745, 1600.130
446.9566, 1611.098
447.4387, 1624.187
447.9208, 1630.355
448.4030, 1620.593
448.8851, 1605.622
449.3672, 1597.907
449.8493, 1597.574
450.3314, 1599.373
450.8135, 1600.671
451.2957, 1601.533
451.7778, 1602.153
452.2599, 1606.668
452.7420, 1605.322
453.2241, 1589.726
453.7062, 1572.596
454.1884, 1566.454
454.6705, 1572.104
455.1526, 1580.865
455.6347, 1584.887
456.1168, 1584.332
456.5989, 1582.912
457.0811, 1579.021
457.5632, 1576.650
458.0453, 1577.091
458.5274, 1579.366
459.0095, 1582.383
459.4916, 1585.828
459.9738, 1590.126
460.4559, 1597.734
460.9380, 1607.166
461.4201, 1610.006
461.9022, 1603.376
462.3843, 1594.814
462.8665, 1590.722
463.3486, 1590.392
463.8307, 1589.495
464.3128, 1582.738
464.7949, 1580.255
465.2770, 1593.434
465.7592, 1614.313
466.2413, 1625.138
466.7234, 1619.360
467.2055, 1607.063
467.6876, 1604.187
468.1697, 1615.213
468.6519, 1622.111
469.1340, 1624.788
469.6161, 1624.026
470.0982, 1618.142
470.5803, 1609.263
471.0624, 1600.829
471.5445, 1594.225
472.0266, 1590.304
472.5088, 1592.308
472.9909, 1601.639
473.4730, 1606.785
473.9551, 1604.122
474.4372, 1597.241
474.9193, 1588.384
475.4015, 1577.890
475.8836, 1569.483
476.3657, 1563.848
476.8478, 1561.443
477.3299, 1564.456
477.8120, 1571.958
478.2942, 1578.225
478.7763, 1580.224
479.2584, 1579.681
479.7405, 1580.968
480.2226, 1589.717
480.7047, 1590.530
481.1869, 1572.249
481.6690, 1554.439
482.1511, 1553.179
482.6332, 1566.316
483.1153, 1581.120
483.5974, 1589.069
484.0796, 1590.665
484.5617, 1586.339
485.0438, 1571.887
485.5259, 1562.020
486.0080, 1564.406
486.4901, 1570.711
486.9723, 1574.570
487.4544, 1575.428
487.9365, 1577.556
488.4186, 1585.265
488.9007, 1595.145
489.3828, 1601.159
489.8650, 1602.964
490.3471, 1603.654
490.8292, 1605.291
491.3113, 1606.997
491.7934, 1605.466
492.2755, 1598.577
492.7577, 1592.329
493.2398, 1589.856
493.7219, 1586.882
494.2040, 1575.757
494.6861, 1558.383
495.1682, 1547.707
495.6504, 1556.497
496.1325, 1580.870
496.6146, 1592.115
497.0967, 1582.947
497.5788, 1574.000
498.0609, 1570.157
498.5431, 1569.051
499.0252, 1568.886
499.5073, 1569.372
499.9894, 1571.000
500.4715, 1576.362
500.9536, 1582.579
501.4358, 1582.238
501.9179, 1574.444
502.4000, 1567.182
502.8821, 1565.237
503.3642, 1567.584
503.8463, 1570.612
504.3285, 1577.544
504.8106, 1580.207
505.2927, 1572.207
505.7748, 1562.243
506.2569, 1559.753
506.7390, 1564.981
507.2212, 1571.752
507.7033, 1576.072
508.1854, 1576.980
508.6675, 1564.928
509.1496, 1524.844
509.6317, 1500.612
510.1139, 1516.924
510.5960, 1544.466
511.0781, 1557.985
511.5602, 1553.976
512.0423, 1547.038
512.5244, 1544.822
513.0065, 1546.729
513.4886, 1553.891
513.9708, 1566.480
514.4529, 1574.245
514.9350, 1568.580
515.4171, 1555.534
515.8992, 1555.722
516.3813, 1583.627
516.8635, 1598.798
517.3456, 1582.296
517.8277, 1560.657
518.3098, 1559.612
518.7919, 1577.454
519.2740, 1593.299
519.7562, 1590.963
520.2383, 1574.780
520.7204, 1562.454
521.2025, 1554.285
521.6846, 1549.216
522.1667, 1550.148
522.6489, 1552.060
523.1310, 1550.527
523.6131, 1545.573
524.0952, 1542.107
524.5773, 1543.990
525.0594, 1548.007
525.5416, 1550.707
526.0237, 1551.789
526.5058, 1549.410
526.9879, 1541.579
527.4700, 1531.994
527.9521, 1528.877
528.4343, 1537.531
528.9164, 1542.679
529.3985, 1544.786
529.8806, 1543.067
530.3627, 1534.913
530.8448, 1522.533
531.3270, 1510.846
531.8091, 1502.455
532.2912, 1497.000
532.7733, 1495.193
533.2554, 1498.095
533.7375, 1496.159
534.2197, 1482.852
534.7018, 1469.780
535.1839, 1465.120
535.6660, 1468.633
536.1481, 1480.185
536.6302, 1510.070
537.1124, 1538.586
537.5945, 1550.804
538.0766, 1549.842
538.5587, 1541.635
539.0408, 1528.038
539.5229, 1514.983
540.0051, 1510.619
540.4872, 1515.135
540.9693, 1527.624
541.4514, 1566.480
541.9335, 1593.098
542.4156, 1588.303
542.8978, 1566.238
543.3799, 1545.937
543.8620, 1533.639
544.3441, 1527.105
544.8262, 1525.108
545.3083, 1527.161
545.7905, 1532.358
546.2726, 1542.319
546.7547, 1547.986
547.2368, 1540.782
547.7189, 1523.697
548.2010, 1511.638
548.6832, 1501.788
549.1653, 1500.569
549.6474, 1519.948
550.1295, 1542.952
550.6116, 1548.949
551.0938, 1537.084
551.5759, 1523.225
552.0580, 1521.514
552.5401, 1529.096
553.0222, 1527.883
553.5043, 1511.293
553.9865, 1500.933
554.4686, 1511.599
554.9507, 1524.848
555.4328, 1524.999
555.9149, 1511.677
556.3970, 1499.073
556.8792, 1493.737
557.3613, 1492.758
557.8434, 1493.197
558.3255, 1494.941
558.8076, 1498.931
559.2897, 1506.194
559.7719, 1513.390
560.2540, 1514.084
560.7361, 1505.209
561.2182, 1497.722
561.7003, 1486.236
562.1824, 1481.374
562.6646, 1495.818
563.1467, 1518.537
563.6288, 1528.895
564.1109, 1517.293
564.5930, 1497.291
565.0751, 1485.547
565.5573, 1480.979
566.0394, 1472.997
566.5215, 1457.319
567.0036, 1447.903
567.4857, 1461.813
567.9678, 1492.451
568.4500, 1502.132
568.9321, 1464.601
569.4142, 1438.955
569.8963, 1457.273
570.3784, 1487.268
570.8605, 1488.092
571.3427, 1458.412
571.8248, 1431.417
572.3069, 1436.677
572.7890, 1466.862
573.2711, 1485.717
573.7532, 1491.772
574.2354, 1490.181
574.7175, 1473.776
575.1996, 1456.710
575.6817, 1451.952
576.1638, 1459.392
576.6459, 1468.860
577.1281, 1483.023
577.6102, 1492.417
578.0923, 1482.193
578.5744, 1459.017
579.0565, 1444.611
579.5386, 1447.632
580.0208, 1459.105
580.5029, 1466.045
580.9850, 1468.097
581.4671, 1467.067
581.9492, 1460.623
582.4313, 1453.427
582.9134, 1442.773
583.3955, 1433.633
583.8776, 1434.720
584.3597, 1449.278
584.8419, 1463.427
585.3240, 1463.136
585.8061, 1454.112
586.2882, 1450.727
586.7703, 1454.402
587.2524, 1459.873
587.7346, 1465.001
588.2167, 1468.666
588.6988, 1466.966
589.1809, 1453.461
589.6630, 1444.488
590.1451, 1445.606
590.6273, 1446.893
591.1094, 1437.103
591.5915, 1421.723
592.0736, 1417.912
592.5557, 1437.842
593.0378, 1464.977
593.5200, 1470.769
594.0021, 1455.921
594.4842, 1442.727
594.9663, 1434.562
595.4484, 1430.487
595.9305, 1429.922
596.4127, 1433.042
596.8948, 1439.439
597.3769, 1458.767
597.8590, 1469.614
598.3411, 1454.724
598.8232, 1433.714
599.3054, 1432.497
599.7875, 1451.886
600.2696, 1469.046
600.7517, 1463.035
601.2338, 1440.862
601.7159, 1432.076
602.1981, 1440.430
602.6802, 1446.730
603.1623, 1443.385
603.6444, 1438.293
604.1265, 1440.682
604.6086, 1449.926
605.0908, 1456.554
605.5729, 1455.712
606.0550, 1454.094
606.5371, 1457.378
607.0192, 1462.801
607.5013, 1465.118
607.9835, 1462.683
608.4656, 1456.686
608.9477, 1446.854
609.4298, 1433.173
609.9119, 1430.434
610.3940, 1446.884
610.8762, 1458.894
611.3583, 1453.467
611.8404, 1442.240
612.3225, 1436.544
612.8046, 1437.647
613.2867, 1439.411
613.7689, 1439.891
614.2510, 1439.219
614.7331, 1435.520
615.2152, 1430.568
615.6973, 1430.673
616.1794, 1438.736
616.6616, 1450.429
617.1437, 1460.017
617.6258, 1469.129
618.1079, 1467.024
618.5900, 1435.053
619.0721, 1415.651
619.5543, 1436.217
620.0364, 1471.867
620.5185, 1488.646
621.0006, 1478.144
621.4827, 1462.978
621.9648, 1458.598
622.4470, 1457.286
622.9291, 1443.698
623.4112, 1419.988
623.8933, 1406.485
624.3754, 1415.332
624.8575, 1435.481
625.3397, 1441.957
625.8218, 1424.055
626.3039, 1420.615
626.7860, 1453.518
627.2681, 1478.453
627.7502, 1470.785
628.2324, 1446.350
628.7145, 1432.889
629.1966, 1440.295
629.6787, 1449.941
630.1608, 1446.458
630.6429, 1435.785
631.1251, 1428.013
631.6072, 1424.264
632.0893, 1424.452
632.5714, 1429.180
633.0535, 1436.362
633.5356, 1440.308
634.0178, 1440.298
634.4999, 1438.383
634.9820, 1433.234
635.4641, 1427.607
635.9462, 1420.796
636.4283, 1414.781
636.9105, 1413.239
637.3926, 1417.698
637.8747, 1425.642
638.3568, 1440.167
638.8389, 1455.384
639.3210, 1455.685
639.8032, 1440.097
640.2853, 1424.976
640.7674, 1421.013
641.2495, 1425.336
641.7316, 1428.889
642.2137, 1431.483
642.6959, 1433.644
643.1780, 1436.154
643.6601, 1437.531
644.1422, 1436.770
644.6243, 1434.347
645.1064, 1431.229
645.5886, 1427.615
646.0707, 1423.904
646.5528, 1418.052
647.0349, 1412.964
647.5170, 1416.911
647.9991, 1430.315
648.4813, 1443.454
648.9634, 1450.756
649.4455, 1451.796
649.9276, 1444.448
650.4097, 1421.523
650.8918, 1404.580
651.3740, 1393.467
651.8561, 1389.013
652.3382, 1396.506
652.8203, 1410.274
653.3024, 1418.488
653.7845, 1416.532
654.2667, 1410.928
654.7488, 1402.604
655.2309, 1395.622
655.7130, 1400.229
656.1951, 1416.182
656.6772, 1431.288
657.1594, 1438.012
657.6415, 1437.276
658.1236, 1429.848
658.6057, 1406.544
659.0878, 1399.046
659.5699, 1428.961
660.0521, 1454.608
660.5342, 1452.725
661.0163, 1434.167
661.4984, 1420.649
661.9805, 1419.115
662.4626, 1419.429
662.9448, 1415.899
663.4269, 1409.934
663.9090, 1401.790
664.3911, 1392.579
664.8732, 1386.926
665.3553, 1387.647
665.8375, 1392.893
666.3196, 1398.969
666.8017, 1406.520
667.2838, 1412.519
667.7659, 1417.659
668.2480, 1420.074
668.7302, 1416.190
669.2123, 1409.960
669.6944, 1408.245
670.1765, 1413.055
670.6586, 1418.915
671.1407, 1425.568
671.6229, 1430.518
672.1050, 1432.060
672.5870, 1429.508
673.0692, 1419.613
673.5513, 1400.467
674.0334, 1380.388
674.5155, 1374.534
674.9976, 1384.185
675.4797, 1393.073
675.9619, 1401.614
676.4440, 1407.507
676.9261, 1405.896
677.4082, 1402.567
677.8903, 1409.227
678.3724, 1430.592
678.8546, 1442.964
679.3367, 1429.890
679.8188, 1415.641
680.3009, 1422.780
680.7830, 1440.873
681.2651, 1446.503
681.7473, 1431.379
682.2294, 1409.914
682.7115, 1399.764
683.1936, 1399.021
683.6757, 1392.379
684.1578, 1377.595
684.6400, 1370.641
685.1221, 1381.361
685.6042, 1399.439
686.0863, 1409.195
686.5684, 1408.873
687.0505, 1408.589
687.5327, 1409.269
688.0148, 1409.232
688.4969, 1406.509
688.9790, 1403.355
689.4611, 1403.478
689.9432, 1407.146
690.4254, 1409.814
690.9075, 1407.524
691.3896, 1401.952
691.8717, 1393.587
692.3538, 1383.562
692.8359, 1383.591
693.3181, 1398.953
693.8002, 1416.758
694.2823, 1422.418
694.7644, 1415.650
695.2465, 1409.676
695.7286, 1402.237
696.2108, 1398.863
696.6929, 1403.165
697.1750, 1409.527
697.6571, 1414.548
698.1392, 1417.496
698.6213, 1417.224
699.1035, 1409.140
699.5856, 1402.643
700.0677, 1411.300
700.5498, 1426.436
701.0319, 1428.061
701.5140, 1413.734
701.9962, 1398.806
702.4783, 1395.870
702.9604, 1400.923
703.4425, 1398.072
703.9246, 1383.228
704.4067, 1374.261
704.8889, 1371.488
705.3710, 1377.527
705.8531, 1404.143
706.3352, 1439.925
706.8173, 1455.288
707.2994, 1434.843
707.7816, 1417.113
708.2637, 1416.676
708.7458, 1424.153
709.2279, 1436.277
709.7100, 1448.412
710.1921, 1450.046
710.6743, 1435.594
711.1564, 1415.617
711.6385, 1403.514
712.1206, 1399.142
712.6027, 1402.724
713.0848, 1415.675
713.5670, 1427.671
714.0491, 1434.414
714.5312, 1436.021
715.0133, 1431.850
715.4954, 1418.067
715.9775, 1410.367
716.4597, 1411.789
716.9418, 1415.621
717.4239, 1418.636
717.9060, 1422.909
718.3881, 1433.561
718.8702, 1450.841
719.3524, 1463.684
719.8345, 1462.618
720.3166, 1454.234
720.7987, 1443.890
721.2808, 1433.669
721.7629, 1432.476
722.2451, 1442.935
722.7272, 1452.763
723.2093, 1447.719
723.6914, 1429.827
724.1735, 1421.097
724.6556, 1424.595
725.1378, 1430.180
725.6199, 1440.462
726.1020, 1447.525
726.5841, 1442.705
727.0662, 1428.971
727.5483, 1419.428
728.0305, 1415.613
728.5126, 1417.506
728.9947, 1431.742
729.4768, 1447.201
729.9589, 1451.679
730.4410, 1445.987
730.9232, 1436.971
731.4053, 1427.584
731.8874, 1421.216
732.3695, 1425.886
732.8516, 1439.301
733.3337, 1446.423
733.8159, 1445.447
734.2980, 1441.058
734.7801, 1434.408
735.2622, 1428.086
735.7443, 1427.950
736.2264, 1436.292
736.7086, 1444.564
737.1907, 1459.163
737.6728, 1466.375
738.1549, 1453.221
738.6370, 1434.407
739.1191, 1430.675
739.6013, 1445.210
740.0834, 1456.302
740.5655, 1447.300
741.0476, 1434.209
741.5297, 1434.295
742.0118, 1442.296
742.4940, 1444.918
742.9761, 1438.998
743.4582, 1431.486
743.9403, 1429.350
744.4224, 1430.644
744.9045, 1424.962
745.3867, 1409.894
745.8688, 1404.896
746.3509, 1417.036
746.8330, 1434.471
747.3151, 1450.381
747.7972, 1463.599
748.2794, 1467.935
748.7615, 1454.969
749.2436, 1445.732
749.7257, 1442.558
750.2078, 1443.747
750.6899, 1450.949
751.1721, 1461.080
751.6542, 1468.709
752.1363, 1472.127
752.6184, 1470.929
753.1005, 1460.799
753.5826, 1447.705
754.0648, 1442.075
754.5469, 1443.573
755.0290, 1447.078
755.5111, 1450.471
755.9932, 1454.734
756.4753, 1462.763
756.9575, 1474.610
757.4396, 1473.840
757.9217, 1452.540
758.4038, 1441.264
758.8859, 1457.056
759.3680, 1478.992
759.8502, 1481.894
760.3323, 1467.849
760.8144, 1460.797
761.2965, 1473.378
761.7786, 1479.438
762.2607, 1462.295
762.7428, 1441.932
763.2249, 1438.122
763.7070, 1448.612
764.1891, 1458.878
764.6713, 1462.403
765.1534, 1461.027
765.6355, 1454.349
766.1176, 1444.838
766.5997, 1439.040
767.0818, 1437.082
767.5640, 1432.541
768.0461, 1421.284
768.5282, 1410.487
769.0103, 1415.102
769.4924, 1438.029
769.9745, 1452.330
770.4567, 1455.292
770.9388, 1455.299
771.4209, 1452.487
771.9030, 1450.556
772.3851, 1455.201
772.8672, 1466.544
773.3494, 1475.803
773.8315, 1480.326
774.3136, 1484.621
774.7957, 1494.133
775.2778, 1501.606
775.7599, 1494.118
776.2421, 1475.972
776.7242, 1469.575
777.2063, 1492.240
777.6884, 1519.285
778.1705, 1521.492
778.6526, 1507.580
779.1348, 1495.369
779.6169, 1487.769
780.0990, 1487.280
780.5811, 1496.078
781.0632, 1507.969
781.5453, 1509.212
782.0275, 1497.750
782.5096, 1494.888
782.9917, 1504.864
783.4738, 1512.433
783.9559, 1509.086
784.4380, 1502.154
784.9202, 1502.973
785.4023, 1512.505
785.8844, 1517.580
786.3665, 1515.393
786.8486, 1511.430
787.3307, 1502.451
787.8129, 1495.951
788.2950, 1504.323
788.7771, 1523.008
789.2592, 1530.588
789.7413, 1512.793
790.2234, 1489.469
790.7056, 1474.133
791.1877, 1467.114
791.6698, 1473.079
792.1519, 1489.201
792.6340, 1501.845
793.1161, 1503.703
793.5983, 1501.391
794.0804, 1507.650
794.5625, 1521.758
795.0446, 1523.967
795.5267, 1511.567
796.0089, 1501.042
796.4910, 1499.234
796.9731, 1501.277
797.4552, 1501.938
797.9373, 1501.429
798.4194, 1495.787
798.9016, 1474.185
799.3837, 1461.996
799.8658, 1472.301
800.3479, 1484.838
800.8300, 1481.171
801.3121, 1466.529
801.7943, 1461.493
802.2764, 1477.230
802.7585, 1491.509
803.2406, 1490.483
803.7227, 1483.799
804.2048, 1480.476
804.6870, 1480.344
805.1691, 1480.603
805.6512, 1480.125
806.1333, 1478.915
806.6154, 1474.205
807.0975, 1469.320
807.5797, 1476.826
808.0618, 1495.279
808.5439, 1508.920
809.0260, 1513.040
809.5081, 1509.609
809.9902, 1498.409
810.4724, 1482.216
810.9545, 1482.491
811.4366, 1507.166
811.9187, 1525.052
812.4008, 1528.362
812.8829, 1529.469
813.3651, 1539.280
813.8472, 1552.201
814.3293, 1554.323
814.8114, 1541.097
815.2935, 1528.764
815.7756, 1514.556
816.2578, 1507.351
816.7399, 1516.661
817.2220, 1533.449
817.7041, 1547.275
818.1862, 1555.515
818.6683, 1557.135
819.1505, 1548.834
819.6326, 1536.102
820.1147, 1520.763
820.5968, 1506.134
821.0789, 1499.804
821.5610, 1501.778
822.0432, 1504.677
822.5253, 1503.699
823.0074, 1500.805
823.4895, 1498.628
823.9716, 1497.473
824.4537, 1500.438
824.9359, 1507.827
825.4180, 1520.091
825.9001, 1539.896
826.3822, 1557.808
826.8643, 1557.577
827.3464, 1536.690
827.8286, 1527.650
828.3107, 1541.975
828.7928, 1547.359
829.2749, 1523.217
829.7570, 1499.203
830.2391, 1504.656
830.7213, 1531.821
831.2034, 1546.488
831.6855, 1537.261
832.1676, 1527.136
832.6497, 1520.455
833.1318, 1515.971
833.6140, 1512.423
834.0961, 1510.554
834.5782, 1512.848
835.0603, 1520.056
835.5424, 1526.166
836.0245, 1525.551
836.5067, 1522.761
836.9888, 1523.699
837.4709, 1526.522
837.9530, 1526.610
838.4351, 1523.081
838.9172, 1517.727
839.3994, 1511.205
839.8815, 1505.629
840.3636, 1506.074
840.8457, 1512.123
841.3278, 1521.339
841.8099, 1534.038
842.2921, 1540.840
842.7742, 1535.578
843.2563, 1524.304
843.7384, 1517.151
844.2205, 1513.833
844.7026, 1518.454
845.1848, 1540.020
845.6669, 1550.575
846.1490, 1533.792
846.6311, 1511.106
847.1132, 1503.037
847.5953, 1507.776
848.0775, 1513.927
848.5596, 1526.548
849.0417, 1532.544
849.5238, 1521.372
850.0059, 1511.368
850.4880, 1518.396
850.9702, 1533.859
851.4523, 1539.693
851.9343, 1530.855
852.4164, 1523.570
852.8986, 1528.609
853.3807, 1536.720
853.8628, 1541.988
854.3449, 1543.953
854.8270, 1540.521
855.3091, 1532.817
855.7913, 1527.779
856.2734, 1530.746
856.7555, 1536.909
857.2376, 1540.817
857.7197, 1541.809
858.2018, 1534.673
858.6840, 1520.580
859.1661, 1513.332
859.6482, 1519.769
860.1303, 1534.698
860.6124, 1554.042
861.0945, 1576.360
861.5767, 1575.426
862.0588, 1545.619
862.5409, 1528.083
863.0230, 1536.420
863.5051, 1551.934
863.9872, 1560.040
864.4694, 1561.177
864.9515, 1556.962
865.4336, 1539.297
865.9157, 1533.029
866.3978, 1547.670
866.8799, 1563.046
867.3621, 1574.069
867.8442, 1578.981
868.3263, 1572.350
868.8084, 1552.622
869.2905, 1540.557
869.7726, 1543.883
870.2548, 1550.082
870.7369, 1557.060
871.2190, 1563.007
871.7011, 1567.551
872.1832, 1569.666
872.6653, 1565.396
873.1475, 1550.060
873.6296, 1539.930
874.1117, 1555.071
874.5938, 1573.225
875.0759, 1564.386
875.5580, 1541.182
876.0402, 1536.291
876.5223, 1556.820
877.0044, 1576.275
877.4865, 1568.965
877.9686, 1551.969
878.4507, 1556.449
878.9329, 1574.884
879.4150, 1583.938
879.8971, 1580.663
880.3792, 1572.727
880.8613, 1564.159
881.3434, 1556.703
881.8256, 1553.186
882.3077, 1553.595
882.7898, 1559.909
883.2719, 1573.563
883.7540, 1575.379
884.2361, 1556.305
884.7183, 1535.988
885.2004, 1534.807
885.6825, 1548.762
886.1646, 1553.534
886.6467, 1545.511
887.1288, 1538.390
887.6110, 1529.977
888.0931, 1528.358
888.5752, 1542.491
889.0573, 1562.971
889.5394, 1573.146
890.0215, 1570.554
890.5037, 1571.055
890.9858, 1581.039
891.4679, 1585.599
891.9500, 1573.243
892.4321, 1561.337
892.9142, 1569.337
893.3964, 1589.251
893.8785, 1592.672
894.3606, 1564.433
894.8427, 1545.698
895.3248, 1557.837
895.8069, 1575.820
896.2891, 1583.717
896.7712, 1586.186
897.2533, 1592.882
897.7354, 1604.357
898.2175, 1610.522
898.6996, 1603.609
899.1818, 1592.555
899.6639, 1583.548
900.1460, 1575.503
900.6281, 1564.903
901.1102, 1553.943
901.5923, 1551.386
902.0745, 1560.742
902.5566, 1569.989
903.0387, 1562.331
903.5208, 1548.335
904.0029, 1548.999
904.4850, 1560.850
904.9672, 1572.432
905.4493, 1581.062
905.9314, 1588.092
906.4135, 1594.632
906.8956, 1599.699
907.3777, 1599.104
907.8599, 1594.388
908.3420, 1600.766
908.8241, 1619.091
909.3062, 1628.966
909.7883, 1621.906
910.2704, 1609.561
910.7526, 1605.045
911.2347, 1607.026
911.7168, 1607.221
912.1989, 1605.414
912.6810, 1602.761
913.1631, 1598.729
913.6453, 1595.849
914.1274, 1595.302
914.6095, 1597.084
915.0916, 1601.045
915.5737, 1607.012
916.0558, 1617.336
916.5380, 1639.533
917.0201, 1651.349
917.5022, 1638.228
917.9843, 1623.622
918.4664, 1630.048
918.9485, 1650.464
919.4307, 1657.599
919.9128, 1645.919
920.3949, 1632.843
920.8770, 1612.913
921.3591, 1599.087
921.8412, 1601.327
922.3234, 1608.617
922.8055, 1608.676
923.2876, 1601.447
923.7697, 1594.781
924.2518, 1586.277
924.7339, 1584.227
925.2161, 1596.937
925.6982, 1611.091
926.1803, 1620.019
926.6624, 1622.545
927.1445, 1614.193
927.6266, 1594.393
928.1088, 1583.961
928.5909, 1603.110
929.0730, 1622.692
929.5551, 1620.006
930.0372, 1610.297
930.5193, 1612.899
931.0015, 1625.345
931.4836, 1633.253
931.9657, 1630.492
932.4478, 1626.836
932.9299, 1633.199
933.4120, 1639.788
933.8942, 1629.607
934.3763, 1613.589
934.8584, 1616.960
935.3405, 1640.232
935.8226, 1660.177
936.3047, 1662.984
936.7869, 1655.949
937.2690, 1642.073
937.7511, 1627.586
938.2332, 1627.086
938.7153, 1637.637
939.1974, 1648.347
939.6796, 1654.983
940.1617, 1652.226
940.6438, 1630.877
941.1259, 1605.213
941.6080, 1610.492
942.0901, 1636.887
942.5722, 1640.914
943.0543, 1620.891
943.5364, 1609.094
944.0186, 1620.390
944.5007, 1638.098
944.9828, 1641.077
945.4649, 1632.722
945.9470, 1625.634
946.4291, 1620.047
946.9113, 1623.938
947.3934, 1639.289
947.8755, 1646.769
948.3576, 1632.726
948.8397, 1612.022
949.3218, 1613.640
949.8040, 1637.002
950.2861, 1648.708
950.7682, 1646.734
951.2503, 1650.938
951.7324, 1668.810
952.2145, 1681.591
952.6967, 1672.050
953.1788, 1650.184
953.6609, 1646.684
954.1430, 1667.282
954.6251, 1673.789
955.1072, 1659.863
955.5894, 1653.193
956.0715, 1666.351
956.5536, 1683.283
957.0357, 1688.886
957.5178, 1684.186
957.9999, 1673.438
958.4821, 1650.644
958.9642, 1639.782
959.4463, 1650.002
959.9284, 1655.270
960.4105, 1636.856
960.8926, 1617.234
961.3748, 1628.876
961.8569, 1670.095
962.3390, 1690.447
962.8211, 1677.444
963.3032, 1666.773
963.7853, 1660.166
964.2675, 1657.728
964.7496, 1662.713
965.2317, 1670.040
965.7138, 1670.676
966.1959, 1663.394
966.6780, 1661.399
967.1602, 1673.784
967.6423, 1678.317
968.1244, 1662.979
968.6065, 1648.403
969.0886, 1649.099
969.5707, 1658.238
970.0529, 1662.778
970.5350, 1661.437
971.0171, 1659.430
971.4992, 1657.732
971.9813, 1654.694
972.4634, 1644.089
972.9456, 1637.311
973.4277, 1646.485
973.9098, 1665.623
974.3919, 1680.242
974.8740, 1690.210
975.3561, 1689.875
975.8383, 1662.533
976.3204, 1644.641
976.8025, 1660.086
977.2846, 1682.098
977.7667, 1682.335
978.2488, 1667.327
978.7310, 1666.092
979.2131, 1692.483
979.6952, 1706.867
980.1773, 1689.002
980.6594, 1669.175
981.1415, 1659.953
981.6237, 1657.695
982.1058, 1656.196
982.5879, 1656.979
983.0700, 1671.233
983.5521, 1717.572
984.0342, 1739.646
984.5164, 1688.149
984.9985, 1641.665
985.4806, 1661.953
985.9627, 1704.693
986.4448, 1711.093
986.9269, 1680.166
987.4091, 1651.471
987.8912, 1633.213
988.3733, 1626.750
988.8554, 1641.581
989.3375, 1659.155
989.8196, 1667.323
990.3018, 1669.713
990.7839, 1673.540
991.2660, 1678.897
991.7481, 1678.211
992.2302, 1665.411
992.7123, 1651.620
993.1945, 1636.687
993.6766, 1627.446
994.1587, 1629.321
994.6408, 1640.424
995.1229, 1662.201
995.6050, 1692.376
996.0872, 1710.941
996.5693, 1700.725
997.0514, 1690.228
997.5335, 1691.950
998.0156, 1699.529
998.4977, 1712.992
998.9799, 1726.198
999.4620, 1727.755
999.9441, 1716.516
1000.426, 1708.342
1000.908, 1711.792
1001.390, 1717.683
1001.873, 1724.655
1002.355, 1729.261
1002.837, 1727.329
1003.319, 1721.251
1003.801, 1715.146
1004.283, 1709.972
1004.765, 1705.958
1005.247, 1703.950
1005.729, 1702.156
1006.212, 1697.971
1006.694, 1695.149
1007.176, 1699.799
1007.658, 1707.374
1008.140, 1707.770
1008.622, 1699.098
1009.104, 1692.514
1009.586, 1691.728
1010.069, 1695.589
1010.551, 1710.352
1011.033, 1723.448
1011.515, 1720.057
1011.997, 1707.644
1012.479, 1701.252
1012.961, 1704.177
1013.443, 1712.058
1013.925, 1730.401
1014.408, 1743.948
1014.890, 1741.742
1015.372, 1735.063
1015.854, 1737.064
1016.336, 1741.050
1016.818, 1727.836
1017.300, 1693.311
1017.782, 1673.962
1018.265, 1698.390
1018.747, 1720.961
1019.229, 1723.706
1019.711, 1715.077
1020.193, 1692.088
1020.675, 1666.838
1021.157, 1664.270
1021.639, 1689.330
1022.121, 1705.252
1022.604, 1691.667
1023.086, 1678.631
1023.568, 1680.265
1024.050, 1683.780
1024.532, 1674.913
1025.014, 1662.443
1025.496, 1666.494
1025.978, 1690.772
1026.460, 1705.801
1026.943, 1694.707
1027.425, 1686.544
1027.907, 1691.102
1028.389, 1700.583
1028.871, 1713.633
1029.353, 1725.938
1029.835, 1729.202
1030.317, 1722.103
1030.800, 1718.744
1031.282, 1730.134
1031.764, 1733.258
1032.246, 1707.422
1032.728, 1687.965
1033.210, 1706.774
1033.692, 1741.434
1034.174, 1754.440
1034.656, 1742.639
1035.139, 1731.126
1035.621, 1715.878
1036.103, 1710.418
1036.585, 1726.668
1037.067, 1742.334
1037.549, 1741.370
1038.031, 1735.017
1038.513, 1741.873
1038.995, 1762.830
1039.478, 1776.554
1039.960, 1779.792
1040.442, 1781.008
1040.924, 1782.235
1041.406, 1779.296
1041.888, 1763.213
1042.370, 1747.820
1042.852, 1754.854
1043.335, 1782.942
1043.817, 1794.904
1044.299, 1781.895
1044.781, 1772.423
1045.263, 1769.794
1045.745, 1767.968
1046.227, 1764.751
1046.709, 1760.517
1047.192, 1754.373
1047.674, 1747.464
1048.156, 1750.755
1048.638, 1771.585
1049.120, 1774.706
1049.602, 1748.876
1050.084, 1734.624
1050.566, 1750.170
1051.048, 1776.159
1051.531, 1792.977
1052.013, 1803.117
1052.495, 1819.757
1052.977, 1846.374
1053.459, 1850.242
1053.941, 1825.974
1054.423, 1804.544
1054.905, 1796.021
1055.387, 1793.996
1055.870, 1793.870
1056.352, 1793.847
1056.834, 1786.204
1057.316, 1771.481
1057.798, 1774.635
1058.280, 1796.372
1058.762, 1809.001
1059.244, 1805.028
1059.727, 1790.698
1060.209, 1768.741
1060.691, 1748.112
1061.173, 1749.048
1061.655, 1766.344
1062.137, 1775.509
1062.619, 1777.274
1063.101, 1779.425
1063.583, 1783.374
1064.066, 1784.701
1064.548, 1780.564
1065.030, 1775.011
1065.512, 1773.436
1065.994, 1774.534
1066.476, 1775.738
1066.958, 1777.007
1067.440, 1780.071
1067.922, 1783.617
1068.405, 1778.347
1068.887, 1759.893
1069.369, 1746.863
1069.851, 1764.170
1070.333, 1791.531
1070.815, 1806.536
1071.297, 1810.908
1071.779, 1802.509
1072.262, 1786.742
1072.744, 1777.542
1073.226, 1779.297
1073.708, 1783.307
1074.190, 1783.121
1074.672, 1783.605
1075.154, 1792.259
1075.636, 1800.433
1076.118, 1795.520
1076.601, 1784.289
1077.083, 1782.192
1077.565, 1791.254
1078.047, 1797.961
1078.529, 1796.077
1079.011, 1791.710
1079.493, 1785.644
1079.975, 1779.949
1080.458, 1769.290
1080.940, 1764.072
1081.422, 1790.135
1081.904, 1839.705
1082.386, 1851.242
1082.868, 1778.369
1083.350, 1737.924
1083.832, 1780.964
1084.314, 1820.074
1084.797, 1814.249
1085.279, 1794.425
1085.761, 1787.065
1086.243, 1791.114
1086.725, 1801.299
1087.207, 1821.963
1087.689, 1835.443
1088.171, 1844.095
1088.653, 1839.812
1089.136, 1810.541
1089.618, 1785.456
1090.100, 1787.356
1090.582, 1803.794
1091.064, 1808.571
1091.546, 1800.963
1092.028, 1801.398
1092.510, 1812.028
1092.993, 1819.032
1093.475, 1819.633
1093.957, 1819.679
1094.439, 1822.350
1094.921, 1825.342
1095.403, 1825.695
1095.885, 1823.568
1096.367, 1817.948
1096.849, 1809.689
1097.332, 1809.200
1097.814, 1816.763
1098.296, 1822.567
1098.778, 1822.986
1099.260, 1818.145
1099.742, 1806.118
1100.224, 1794.624
1100.706, 1800.273
1101.188, 1815.649
1101.671, 1825.553
1102.153, 1829.090
1102.635, 1824.403
1103.117, 1813.454
1103.599, 1807.714
1104.081, 1814.024
1104.563, 1825.004
1105.045, 1838.450
1105.528, 1848.485
1106.010, 1845.726
1106.492, 1837.323
1106.974, 1834.083
1107.456, 1835.416
1107.938, 1833.901
1108.420, 1826.739
1108.902, 1823.465
1109.385, 1835.810
1109.867, 1843.819
1110.349, 1830.872
1110.831, 1816.040
1111.313, 1815.007
1111.795, 1823.245
1112.277, 1832.291
1112.759, 1841.163
1113.241, 1846.594
1113.724, 1850.954
1114.206, 1847.592
1114.688, 1824.848
1115.170, 1808.163
1115.652, 1808.032
1116.134, 1817.726
1116.616, 1833.298
1117.098, 1852.343
1117.580, 1864.005
1118.063, 1869.955
1118.545, 1858.745
1119.027, 1821.252
1119.509, 1805.291
1119.991, 1828.790
1120.473, 1851.593
1120.955, 1843.580
1121.437, 1822.041
1121.920, 1819.383
1122.402, 1832.818
1122.884, 1844.843
1123.366, 1854.427
1123.848, 1844.818
1124.330, 1817.212
1124.812, 1811.394
1125.294, 1844.524
1125.776, 1881.895
1126.259, 1887.875
1126.741, 1878.009
1127.223, 1876.048
1127.705, 1877.276
1128.187, 1873.619
1128.669, 1865.127
1129.151, 1850.982
1129.633, 1833.311
1130.115, 1824.084
1130.598, 1832.302
1131.080, 1841.487
1131.562, 1838.439
1132.044, 1834.167
1132.526, 1836.412
1133.008, 1842.938
1133.490, 1854.887
1133.972, 1867.769
1134.455, 1868.607
1134.937, 1852.133
1135.419, 1841.783
1135.901, 1844.003
1136.383, 1850.298
1136.865, 1871.206
1137.347, 1881.093
1137.829, 1852.085
1138.312, 1814.833
1138.794, 1814.500
1139.276, 1847.509
1139.758, 1867.002
1140.240, 1870.912
1140.722, 1867.063
1141.204, 1852.423
1141.686, 1845.942
1142.168, 1855.568
1142.651, 1866.915
1143.133, 1868.251
1143.615, 1862.795
1144.097, 1856.247
1144.579, 1848.966
1145.061, 1842.622
1145.543, 1837.376
1146.025, 1833.593
1146.507, 1831.662
1146.990, 1834.021
1147.472, 1841.703
1147.954, 1850.917
1148.436, 1860.601
1148.918, 1866.489
1149.400, 1857.436
1149.882, 1845.639
1150.364, 1850.785
1150.847, 1865.637
1151.329, 1872.850
1151.811, 1870.058
1152.293, 1867.022
1152.775, 1867.846
1153.257, 1868.120
1153.739, 1866.105
1154.221, 1863.030
1154.703, 1857.567
1155.186, 1853.018
1155.668, 1851.441
1156.150, 1853.425
1156.632, 1860.631
1157.114, 1873.536
1157.596, 1888.205
1158.078, 1913.565
1158.560, 1916.786
1159.042, 1882.321
1159.525, 1856.828
1160.007, 1864.299
1160.489, 1881.375
1160.971, 1881.243
1161.453, 1870.468
1161.935, 1872.188
1162.417, 1884.915
1162.899, 1890.821
1163.382, 1890.042
1163.864, 1889.798
1164.346, 1891.701
1164.828, 1893.595
1165.310, 1894.223
1165.792, 1894.770
1166.274, 1894.627
1166.756, 1896.902
1167.238, 1911.014
1167.721, 1926.797
1168.203, 1930.334
1168.685, 1922.013
1169.167, 1900.824
1169.649, 1869.764
1170.131, 1853.561
1170.613, 1869.198
1171.095, 1887.447
1171.578, 1906.979
1172.060, 1915.752
1172.542, 1899.298
1173.024, 1876.295
1173.506, 1861.504
1173.988, 1855.663
1174.470, 1861.633
1174.952, 1882.275
1175.434, 1891.940
1175.917, 1884.063
1176.399, 1890.558
1176.881, 1921.959
1177.363, 1940.265
1177.845, 1926.920
1178.327, 1899.067
1178.809, 1872.146
1179.291, 1851.824
1179.773, 1860.997
1180.256, 1888.629
1180.738, 1885.151
1181.220, 1859.445
1181.702, 1856.825
1182.184, 1881.290
1182.666, 1901.351
1183.148, 1901.584
1183.630, 1895.440
1184.113, 1887.521
1184.595, 1885.289
1185.077, 1905.149
1185.559, 1924.449
1186.041, 1914.873
1186.523, 1890.823
1187.005, 1877.237
1187.487, 1877.093
1187.969, 1884.958
1188.452, 1911.521
1188.934, 1921.866
1189.416, 1899.432
1189.898, 1882.819
1190.380, 1883.913
1190.862, 1889.456
1191.344, 1891.452
1191.826, 1890.820
1192.308, 1889.278
1192.791, 1886.626
1193.273, 1878.412
1193.755, 1865.386
1194.237, 1867.381
1194.719, 1884.744
1195.201, 1899.892
1195.683, 1907.046
1196.165, 1908.513
1196.648, 1905.038
1197.130, 1901.390
1197.612, 1906.075
1198.094, 1911.257
1198.576, 1903.203
1199.058, 1891.809
1199.540, 1894.118
1200.022, 1905.565
1200.505, 1911.362
1200.987, 1908.262
1201.469, 1900.874
1201.951, 1880.700
1202.433, 1871.673
1202.915, 1890.152
1203.397, 1905.770
1203.879, 1908.827
1204.361, 1901.252
1204.844, 1880.122
1205.326, 1853.607
1205.808, 1842.449
1206.290, 1846.907
1206.772, 1844.340
1207.254, 1834.234
1207.736, 1842.786
1208.218, 1872.425
1208.700, 1894.804
1209.183, 1899.032
1209.665, 1897.952
1210.147, 1901.933
1210.629, 1907.412
1211.111, 1908.217
1211.593, 1908.717
1212.075, 1919.118
1212.557, 1930.841
1213.040, 1920.649
1213.522, 1900.330
1214.004, 1915.056
1214.486, 1977.208
1214.968, 2016.097
1215.450, 1994.609
1215.932, 1971.313
1216.414, 1956.331
1216.896, 1945.177
1217.379, 1936.236
1217.861, 1929.703
1218.343, 1925.586
1218.825, 1924.252
1219.307, 1927.999
1219.789, 1936.712
1220.271, 1935.080
1220.753, 1923.501
1221.235, 1914.925
1221.718, 1910.891
1222.200, 1905.912
1222.682, 1898.459
1223.164, 1899.788
1223.646, 1923.142
1224.128, 1945.316
1224.610, 1930.364
1225.092, 1909.527
1225.575, 1921.357
1226.057, 1946.585
1226.539, 1958.918
1227.021, 1959.858
1227.503, 1963.568
1227.985, 1973.096
1228.467, 1972.850
1228.949, 1946.254
1229.432, 1933.463
1229.914, 1944.738
1230.396, 1956.882
1230.878, 1964.742
1231.360, 1964.960
1231.842, 1953.477
1232.324, 1935.631
1232.806, 1920.196
1233.288, 1908.182
1233.771, 1908.001
1234.253, 1916.337
1234.735, 1918.151
1235.217, 1912.690
1235.699, 1903.987
1236.181, 1893.915
1236.663, 1885.295
1237.145, 1879.601
1237.627, 1876.576
1238.110, 1872.402
1238.592, 1875.316
1239.074, 1897.873
1239.556, 1923.499
1240.038, 1942.108
1240.520, 1950.385
1241.002, 1935.589
1241.484, 1901.111
1241.967, 1898.115
1242.449, 1941.920
1242.931, 1962.068
1243.413, 1952.458
1243.895, 1942.182
1244.377, 1937.959
1244.859, 1940.011
1245.341, 1948.690
1245.823, 1961.985
1246.306, 1982.496
1246.788, 1998.998
1247.270, 1985.608
1247.752, 1958.334
1248.234, 1938.594
1248.716, 1928.400
1249.198, 1931.799
1249.680, 1944.494
1250.162, 1948.740
1250.645, 1937.283
1251.127, 1931.089
1251.609, 1938.525
1252.091, 1947.261
1252.573, 1956.101
1253.055, 1964.204
1253.537, 1974.147
1254.019, 1976.856
1254.502, 1960.157
1254.984, 1934.935
1255.466, 1932.013
1255.948, 1947.832
1256.430, 1952.088
1256.912, 1948.234
1257.394, 1957.611
1257.876, 1976.973
1258.358, 1976.349
1258.841, 1949.258
1259.323, 1931.274
1259.805, 1947.479
1260.287, 1966.099
1260.769, 1969.044
1261.251, 1965.708
1261.733, 1955.524
1262.215, 1947.650
1262.698, 1953.460
1263.180, 1965.088
1263.662, 1967.884
1264.144, 1962.963
1264.626, 1961.475
1265.108, 1963.941
##END=



