##NAMES=Rockbridgeite
##RRUFFID=R060858
##IDEAL CHEMISTRY=(Fe^2+^_0.5_Fe^3+^_0.5_)_2_Fe^3+^_3_(PO_4_)_3_(OH)_5_
##LOCALITY=Tip Top mine, Custer County, South Dakota, USA
##OWNER=RRUFF
##SOURCE=Marcus Origlieri
##DESCRIPTION=Dark reddish brown elongated prismatic crystals associated with jahnsite-(CaMnMg), R060213
##STATUS=The identification of this mineral is confirmed by single-crystal X-ray diffraction and chemical analysis.
##URL=rruff.info/R060858
##MEASURED CHEMISTRY=(Fe^2+^_0.62_Mn^2+^_0.33_Mg_0.05_)_Î£=1_Fe^3+^_4.00_(P_1.00_O_4_)_3_(OH)_5_; OH estimated by difference; Fe2+ and Fe3+ by charge balance
165.3335, 181.1445
165.8156, 182.6475
166.2977, 183.6674
166.7798, 183.7365
167.2620, 183.1338
167.7441, 182.1035
168.2262, 180.6153
168.7083, 179.0763
169.1904, 178.8471
169.6725, 181.0189
170.1547, 182.3188
170.6368, 180.4948
171.1189, 176.4943
171.6010, 173.7059
172.0831, 174.2022
172.5652, 176.4386
173.0474, 177.0576
173.5295, 175.5041
174.0116, 173.4104
174.4937, 171.7759
174.9758, 170.5957
175.4579, 170.0069
175.9401, 170.6659
176.4222, 171.6800
176.9043, 171.9865
177.3864, 171.1849
177.8685, 170.1451
178.3506, 170.2367
178.8328, 171.9920
179.3149, 172.9404
179.7970, 171.3753
180.2791, 169.0520
180.7612, 167.4234
181.2433, 167.0179
181.7255, 167.4990
182.2076, 168.3252
182.6897, 170.2229
183.1718, 171.0292
183.6539, 169.4725
184.1360, 167.1347
184.6181, 165.8374
185.1003, 166.5326
185.5824, 168.4048
186.0645, 168.4970
186.5466, 164.3464
187.0287, 161.3606
187.5108, 160.5670
187.9930, 161.2312
188.4751, 162.5534
188.9572, 164.1223
189.4393, 165.8277
189.9214, 167.0142
190.4035, 167.4964
190.8857, 167.6686
191.3678, 167.4962
191.8499, 167.0651
192.3320, 166.5063
192.8141, 165.8988
193.2962, 165.2285
193.7784, 164.3539
194.2605, 162.9517
194.7426, 161.7333
195.2247, 160.7738
195.7068, 160.1609
196.1889, 160.2556
196.6711, 161.5773
197.1532, 163.6573
197.6353, 164.2345
198.1174, 162.0132
198.5995, 159.6423
199.0816, 158.7432
199.5638, 159.1125
200.0459, 159.3605
200.5280, 158.5804
201.0101, 157.0942
201.4922, 155.9700
201.9743, 155.3380
202.4565, 154.9761
202.9386, 154.6269
203.4207, 154.2790
203.9028, 154.3165
204.3849, 155.2078
204.8670, 156.5492
205.3492, 157.8458
205.8313, 159.2679
206.3134, 160.2790
206.7955, 159.8718
207.2776, 157.6544
207.7597, 155.8480
208.2419, 156.3861
208.7240, 157.5131
209.2061, 157.2429
209.6882, 154.4504
210.1703, 151.0029
210.6524, 150.4410
211.1346, 154.0343
211.6167, 157.2758
212.0988, 158.9518
212.5809, 159.5433
213.0630, 159.1831
213.5451, 157.7693
214.0273, 156.0533
214.5094, 155.9078
214.9915, 158.5798
215.4736, 160.5916
215.9557, 161.3625
216.4378, 161.2307
216.9200, 160.2905
217.4021, 158.5490
217.8842, 156.4918
218.3663, 155.5197
218.8484, 156.3472
219.3305, 157.3474
219.8127, 158.7370
220.2948, 160.0256
220.7769, 160.5801
221.2590, 160.1110
221.7411, 159.0444
222.2232, 158.6507
222.7054, 160.0375
223.1875, 160.7841
223.6696, 160.2543
224.1517, 159.1910
224.6338, 158.5029
225.1159, 158.5957
225.5980, 159.1436
226.0802, 159.1992
226.5623, 158.1487
227.0444, 157.3234
227.5265, 156.3631
228.0086, 155.8100
228.4907, 156.7083
228.9729, 159.5759
229.4550, 163.3918
229.9371, 165.4072
230.4192, 164.4455
230.9013, 163.6626
231.3834, 163.6483
231.8656, 164.0710
232.3477, 164.3659
232.8298, 164.2697
233.3119, 164.1438
233.7940, 164.8285
234.2761, 166.3322
234.7583, 168.3333
235.2404, 171.6360
235.7225, 175.2536
236.2046, 177.2477
236.6867, 176.6950
237.1688, 175.0278
237.6510, 174.6958
238.1331, 175.6937
238.6152, 177.1951
239.0973, 179.1392
239.5794, 181.3855
240.0615, 183.8767
240.5437, 187.0118
241.0258, 189.5069
241.5079, 189.5295
241.9900, 187.2217
242.4721, 184.1114
242.9542, 180.1014
243.4364, 175.7516
243.9185, 172.5707
244.4006, 171.0791
244.8827, 170.4492
245.3648, 170.0369
245.8469, 169.8013
246.3290, 169.3681
246.8112, 168.9106
247.2933, 168.1557
247.7754, 165.8727
248.2575, 160.7238
248.7396, 156.0819
249.2217, 155.0823
249.7039, 156.8185
250.1860, 158.2970
250.6681, 157.6731
251.1502, 155.4679
251.6323, 153.5982
252.1144, 152.2702
252.5966, 151.1021
253.0787, 149.6015
253.5608, 148.0458
254.0429, 147.0787
254.5250, 147.3681
255.0071, 148.5502
255.4893, 149.1635
255.9714, 148.8143
256.4535, 148.5114
256.9356, 149.0274
257.4177, 149.8488
257.8998, 150.0738
258.3820, 148.9754
258.8641, 147.0331
259.3462, 145.9576
259.8283, 146.1029
260.3104, 146.6121
260.7925, 147.7466
261.2747, 148.8651
261.7568, 148.9316
262.2389, 147.1897
262.7210, 144.5288
263.2031, 143.6326
263.6852, 145.6043
264.1674, 147.5522
264.6495, 149.0561
265.1316, 150.0811
265.6137, 150.3721
266.0958, 149.7650
266.5779, 148.8653
267.0601, 149.3005
267.5422, 152.4832
268.0243, 154.4119
268.5064, 153.3612
268.9885, 151.6137
269.4706, 151.3946
269.9528, 153.4509
270.4349, 156.5359
270.9170, 158.2141
271.3991, 157.5516
271.8812, 157.2530
272.3633, 157.7698
272.8455, 158.4947
273.3276, 159.0156
273.8097, 159.2148
274.2918, 159.1752
274.7739, 158.9663
275.2560, 158.3338
275.7382, 158.0974
276.2202, 158.0021
276.7024, 158.3880
277.1845, 159.6344
277.6666, 161.7014
278.1487, 164.1182
278.6308, 166.3841
279.1129, 168.6091
279.5951, 170.2336
280.0772, 170.1573
280.5593, 170.5206
281.0414, 172.7506
281.5235, 176.6455
282.0056, 180.9227
282.4878, 184.3740
282.9699, 186.9281
283.4520, 189.2557
283.9341, 191.2950
284.4162, 193.2202
284.8983, 194.9278
285.3805, 196.5589
285.8626, 198.6292
286.3447, 201.7709
286.8268, 205.9151
287.3089, 207.1963
287.7910, 203.1238
288.2732, 199.1232
288.7553, 196.8533
289.2374, 195.7773
289.7195, 194.8252
290.2016, 193.4114
290.6837, 191.4790
291.1659, 188.5786
291.6480, 184.0041
292.1301, 179.3142
292.6122, 174.4050
293.0943, 169.6156
293.5764, 165.2999
294.0586, 161.5875
294.5407, 158.5959
295.0228, 156.6364
295.5049, 157.1864
295.9870, 156.9913
296.4691, 155.6294
296.9513, 153.6008
297.4334, 151.0668
297.9155, 148.1485
298.3976, 145.6136
298.8797, 144.8388
299.3618, 147.3154
299.8440, 148.8476
300.3261, 149.4124
300.8082, 149.0706
301.2903, 147.1703
301.7724, 143.8720
302.2545, 141.0076
302.7367, 140.9316
303.2188, 144.7954
303.7009, 147.0339
304.1830, 147.3249
304.6651, 146.4511
305.1472, 144.1747
305.6294, 140.9199
306.1115, 138.1792
306.5936, 137.3174
307.0757, 138.4614
307.5578, 139.2280
308.0399, 140.1617
308.5221, 140.2814
309.0042, 138.0620
309.4863, 134.5517
309.9684, 132.5740
310.4505, 134.1374
310.9326, 138.6114
311.4148, 141.5435
311.8969, 142.3775
312.3790, 142.6067
312.8611, 142.0601
313.3432, 141.2276
313.8253, 140.9732
314.3075, 141.7334
314.7896, 143.0102
315.2717, 143.5280
315.7538, 143.1442
316.2359, 142.1904
316.7180, 139.5130
317.2001, 136.7905
317.6823, 136.3289
318.1644, 138.7208
318.6465, 141.9649
319.1286, 143.0068
319.6107, 140.4622
320.0928, 138.8887
320.5750, 138.5500
321.0571, 138.9541
321.5392, 140.2718
322.0213, 142.2502
322.5034, 143.6088
322.9855, 142.8499
323.4677, 139.4674
323.9498, 137.7416
324.4319, 138.6587
324.9140, 140.0317
325.3961, 140.7694
325.8782, 141.0011
326.3604, 141.4876
326.8425, 142.8473
327.3246, 144.9368
327.8067, 146.1184
328.2888, 145.6630
328.7709, 145.2714
329.2531, 145.3925
329.7352, 145.8587
330.2173, 146.3452
330.6994, 146.6918
331.1815, 147.0196
331.6636, 147.6638
332.1458, 148.7910
332.6279, 150.0581
333.1100, 152.3255
333.5921, 154.2941
334.0742, 154.1329
334.5563, 151.4947
335.0385, 148.3670
335.5206, 147.8625
336.0027, 152.0481
336.4848, 153.4202
336.9669, 149.8151
337.4490, 145.4285
337.9312, 142.9335
338.4133, 142.4382
338.8954, 142.5517
339.3775, 141.9880
339.8596, 140.6651
340.3417, 139.6770
340.8239, 139.7468
341.3060, 139.3669
341.7881, 137.2258
342.2702, 134.2497
342.7523, 132.5427
343.2344, 133.5448
343.7166, 136.4791
344.1987, 137.5496
344.6808, 133.9760
345.1629, 131.6353
345.6450, 132.1255
346.1271, 133.6850
346.6093, 134.2473
347.0914, 133.0740
347.5735, 131.0651
348.0556, 129.9038
348.5377, 129.8110
349.0198, 130.2678
349.5020, 132.1751
349.9841, 133.8918
350.4662, 133.8739
350.9483, 132.2255
351.4304, 130.5601
351.9125, 130.7913
352.3947, 133.3739
352.8768, 134.8018
353.3589, 134.2430
353.8410, 133.3702
354.3231, 132.5020
354.8052, 131.7761
355.2874, 131.3785
355.7695, 131.5098
356.2516, 132.0029
356.7337, 131.8437
357.2158, 129.9864
357.6979, 128.9263
358.1800, 130.0012
358.6621, 131.6721
359.1443, 131.9485
359.6264, 130.0789
360.1085, 127.5515
360.5906, 127.3306
361.0727, 130.8055
361.5548, 132.9443
362.0370, 132.0845
362.5191, 130.7028
363.0012, 130.1941
363.4833, 130.7297
363.9654, 131.7718
364.4475, 133.0655
364.9297, 134.6834
365.4118, 135.3049
365.8939, 134.3259
366.3760, 132.9221
366.8581, 130.9420
367.3402, 128.9328
367.8224, 128.0039
368.3045, 129.1240
368.7866, 131.5089
369.2687, 132.7532
369.7508, 132.2852
370.2329, 131.9213
370.7151, 132.2816
371.1972, 133.0351
371.6793, 134.0366
372.1614, 135.3028
372.6435, 136.3226
373.1256, 136.0179
373.6078, 134.2109
374.0899, 133.7501
374.5720, 136.9791
375.0541, 140.1652
375.5362, 140.0205
376.0183, 136.8234
376.5005, 133.9386
376.9826, 134.0480
377.4647, 136.3079
377.9468, 137.6741
378.4289, 137.9716
378.9110, 137.3350
379.3932, 135.3861
379.8753, 132.6402
380.3574, 129.9710
380.8395, 127.1547
381.3216, 124.9876
381.8037, 125.1030
382.2859, 127.5667
382.7680, 129.0258
383.2501, 127.2253
383.7322, 124.0815
384.2143, 122.7424
384.6964, 123.6713
385.1786, 124.9924
385.6607, 125.6545
386.1428, 125.8906
386.6249, 126.5131
387.1070, 127.9605
387.5891, 129.1071
388.0713, 128.1005
388.5534, 125.1727
389.0355, 123.0313
389.5176, 122.7319
389.9997, 123.1493
390.4818, 123.3365
390.9640, 123.2113
391.4461, 122.6629
391.9282, 121.3331
392.4103, 119.5580
392.8924, 119.0203
393.3745, 121.0175
393.8567, 122.7193
394.3388, 122.6028
394.8209, 121.4546
395.3030, 120.8696
395.7851, 121.4812
396.2672, 122.6283
396.7494, 123.1935
397.2315, 123.1608
397.7136, 122.4785
398.1957, 120.1887
398.6778, 117.8787
399.1599, 116.9928
399.6420, 117.5694
400.1241, 118.6232
400.6063, 119.3335
401.0884, 119.6992
401.5705, 119.8126
402.0526, 119.7454
402.5347, 119.3933
403.0168, 118.1563
403.4990, 116.7276
403.9811, 116.4313
404.4632, 117.9255
404.9453, 120.2708
405.4274, 121.0870
405.9095, 118.7749
406.3917, 117.6266
406.8738, 118.4657
407.3559, 119.8799
407.8380, 121.2678
408.3201, 122.3153
408.8022, 122.4931
409.2844, 120.9060
409.7665, 117.3484
410.2486, 115.4731
410.7307, 116.6264
411.2128, 118.1211
411.6949, 119.5360
412.1771, 120.6890
412.6592, 121.3992
413.1413, 121.5757
413.6234, 121.2677
414.1055, 120.5418
414.5876, 119.3164
415.0698, 117.9029
415.5519, 115.4824
416.0340, 113.5099
416.5161, 113.3429
416.9982, 115.0366
417.4803, 116.9968
417.9625, 117.7492
418.4446, 117.5075
418.9267, 117.9753
419.4088, 120.0471
419.8909, 121.3819
420.3730, 119.5610
420.8552, 116.0147
421.3373, 113.6681
421.8194, 113.7550
422.3015, 115.1890
422.7836, 117.2501
423.2657, 119.9118
423.7479, 121.4025
424.2300, 120.4383
424.7121, 118.4093
425.1942, 117.6245
425.6763, 118.3428
426.1584, 118.9341
426.6406, 118.2870
427.1227, 117.1777
427.6048, 117.1798
428.0869, 118.6410
428.5690, 120.0037
429.0511, 119.5519
429.5333, 117.3220
430.0154, 116.5281
430.4975, 119.1417
430.9796, 121.3466
431.4617, 120.3492
431.9438, 117.1936
432.4260, 114.6979
432.9081, 114.2282
433.3902, 115.0567
433.8723, 115.4897
434.3544, 115.1488
434.8365, 115.0276
435.3187, 114.9651
435.8008, 115.2607
436.2829, 116.5952
436.7650, 118.7716
437.2471, 120.5118
437.7292, 120.5229
438.2114, 118.7483
438.6935, 117.4955
439.1756, 117.3805
439.6577, 117.1071
440.1398, 116.4320
440.6219, 115.4109
441.1040, 113.8853
441.5862, 111.8019
442.0683, 109.9184
442.5504, 109.8904
443.0325, 112.5955
443.5146, 114.4589
443.9967, 114.7762
444.4789, 114.5074
444.9610, 113.7915
445.4431, 112.8477
445.9252, 112.1904
446.4073, 112.3257
446.8894, 113.0257
447.3716, 113.3791
447.8537, 113.2295
448.3358, 113.1210
448.8179, 113.3887
449.3000, 113.7815
449.7821, 113.9376
450.2643, 113.6818
450.7464, 113.6688
451.2285, 114.9102
451.7106, 117.0390
452.1927, 118.0103
452.6748, 117.0180
453.1570, 115.6090
453.6391, 115.6960
454.1212, 116.8817
454.6033, 117.2007
455.0854, 115.4436
455.5675, 113.1900
456.0497, 111.4685
456.5318, 110.4097
457.0139, 110.6296
457.4960, 112.7969
457.9781, 116.0185
458.4602, 117.8088
458.9424, 117.6533
459.4245, 117.4404
459.9066, 117.8197
460.3887, 118.1139
460.8708, 117.4783
461.3529, 115.8686
461.8351, 113.9831
462.3172, 112.3780
462.7993, 111.0468
463.2814, 110.5488
463.7635, 111.6299
464.2456, 112.6247
464.7278, 113.0563
465.2099, 113.1762
465.6920, 113.3683
466.1741, 113.7813
466.6562, 114.2650
467.1383, 114.6901
467.6205, 115.3410
468.1026, 115.0364
468.5847, 112.3607
469.0668, 109.9568
469.5489, 109.1482
470.0310, 109.6408
470.5132, 110.4651
470.9953, 111.1768
471.4774, 111.6798
471.9595, 111.6114
472.4416, 110.7734
472.9237, 110.1108
473.4059, 110.3181
473.8880, 110.6309
474.3701, 110.0754
474.8522, 108.4976
475.3343, 107.4891
475.8164, 108.8942
476.2986, 111.5605
476.7807, 112.4276
477.2628, 110.8999
477.7449, 108.9337
478.2270, 107.7843
478.7091, 107.4137
479.1913, 107.5013
479.6734, 108.6956
480.1555, 109.6066
480.6376, 109.2222
481.1197, 108.0652
481.6018, 107.2828
482.0839, 107.2654
482.5660, 107.4738
483.0482, 107.0714
483.5303, 105.6619
484.0124, 105.1890
484.4945, 107.2229
484.9766, 108.6667
485.4587, 107.1718
485.9409, 103.7269
486.4230, 100.8451
486.9051, 99.92461
487.3872, 100.5069
487.8693, 101.3375
488.3514, 102.7197
488.8336, 103.7833
489.3157, 104.6037
489.7978, 105.0344
490.2799, 104.7166
490.7620, 103.8236
491.2441, 103.0717
491.7263, 103.1061
492.2084, 103.7548
492.6905, 104.2257
493.1726, 104.5719
493.6547, 104.6098
494.1368, 104.0377
494.6190, 103.2279
495.1011, 102.4376
495.5832, 101.6638
496.0653, 101.2900
496.5474, 102.0309
497.0295, 103.4210
497.5117, 103.9040
497.9938, 103.0731
498.4759, 102.0888
498.9580, 101.9486
499.4401, 102.4935
499.9222, 102.8035
500.4044, 102.3525
500.8865, 102.1397
501.3686, 103.2845
501.8507, 104.9647
502.3328, 105.2068
502.8149, 103.2870
503.2971, 100.7970
503.7792, 100.0266
504.2613, 101.5503
504.7434, 102.8214
505.2255, 104.1274
505.7076, 104.9337
506.1898, 104.5312
506.6719, 103.4836
507.1540, 103.0683
507.6361, 104.0021
508.1182, 105.4313
508.6003, 105.2907
509.0825, 102.9917
509.5646, 100.6961
510.0467, 97.89794
510.5288, 95.76904
511.0109, 95.08500
511.4930, 95.69166
511.9752, 96.89568
512.4573, 98.46802
512.9394, 100.2237
513.4215, 101.7430
513.9036, 103.0110
514.3857, 104.2103
514.8679, 105.7977
515.3500, 107.0284
515.8321, 106.8980
516.3142, 105.2606
516.7963, 103.4294
517.2784, 101.7762
517.7606, 100.3434
518.2427, 99.21291
518.7248, 98.38445
519.2069, 97.72524
519.6890, 97.12304
520.1711, 96.62585
520.6533, 96.51203
521.1354, 97.09616
521.6175, 97.57881
522.0996, 97.57101
522.5817, 97.54774
523.0638, 98.21321
523.5460, 99.53817
524.0281, 100.6891
524.5102, 100.8646
524.9923, 100.0853
525.4744, 98.90707
525.9565, 96.20597
526.4387, 94.65044
526.9208, 95.62987
527.4029, 97.50616
527.8850, 98.66435
528.3671, 98.67964
528.8492, 98.01405
529.3314, 96.65498
529.8135, 94.78278
530.2956, 94.38018
530.7777, 96.24149
531.2598, 98.15685
531.7419, 98.47529
532.2241, 97.99517
532.7062, 98.07903
533.1883, 99.41621
533.6704, 100.4407
534.1525, 99.60380
534.6346, 97.70291
535.1168, 96.73075
535.5989, 97.19460
536.0810, 98.00704
536.5631, 98.14506
537.0452, 97.57081
537.5273, 96.69375
538.0095, 94.45837
538.4916, 93.11630
538.9737, 94.20281
539.4558, 96.46841
539.9379, 98.18360
540.4200, 98.74986
540.9022, 98.45540
541.3843, 97.50843
541.8664, 95.64388
542.3485, 94.63851
542.8306, 95.43929
543.3127, 96.10799
543.7948, 95.84907
544.2769, 95.12601
544.7590, 94.63303
545.2411, 94.61208
545.7233, 94.94975
546.2054, 95.57282
546.6875, 96.46926
547.1696, 97.57254
547.6517, 99.28336
548.1339, 100.4162
548.6160, 98.99704
549.0981, 96.08113
549.5802, 94.77084
550.0623, 97.08511
550.5444, 99.62077
551.0266, 100.1589
551.5087, 99.27161
551.9908, 97.94003
552.4729, 96.40657
552.9550, 95.62376
553.4371, 97.14271
553.9193, 101.7999
554.4014, 103.5557
554.8835, 100.1355
555.3656, 96.77805
555.8477, 95.07051
556.3298, 94.72438
556.8120, 95.52814
557.2941, 97.32435
557.7762, 99.06329
558.2583, 98.90560
558.7404, 96.47733
559.2225, 95.37552
559.7047, 96.86446
560.1868, 98.17075
560.6689, 97.63777
561.1510, 96.16188
561.6331, 95.34626
562.1152, 95.89540
562.5974, 96.57836
563.0795, 96.06690
563.5616, 94.71413
564.0437, 93.74947
564.5258, 93.38415
565.0079, 93.60660
565.4901, 94.71626
565.9722, 96.60810
566.4543, 97.46973
566.9364, 96.07054
567.4185, 95.05578
567.9006, 96.26515
568.3828, 98.15414
568.8649, 98.04404
569.3470, 95.45196
569.8291, 92.82332
570.3112, 93.27285
570.7933, 97.08012
571.2755, 98.92374
571.7576, 97.41265
572.2397, 95.58796
572.7218, 93.31939
573.2039, 91.55380
573.6860, 91.57236
574.1682, 93.65146
574.6503, 96.27805
575.1324, 98.49519
575.6145, 100.1373
576.0966, 100.1430
576.5787, 98.00265
577.0609, 95.98962
577.5430, 95.66025
578.0251, 96.38799
578.5072, 96.57771
578.9893, 95.91641
579.4714, 95.35368
579.9536, 95.53863
580.4357, 95.87086
580.9178, 95.39356
581.3999, 94.12823
581.8820, 93.12424
582.3641, 93.25076
582.8463, 94.26015
583.3284, 94.72544
583.8105, 94.81477
584.2926, 94.03996
584.7747, 90.85395
585.2568, 87.97305
585.7390, 88.00273
586.2211, 90.58593
586.7032, 93.02059
587.1853, 93.15732
587.6674, 91.93175
588.1495, 92.26107
588.6317, 94.61234
589.1138, 95.45034
589.5959, 92.30272
590.0780, 88.41626
590.5601, 88.07008
591.0422, 91.18901
591.5244, 93.35132
592.0065, 92.36938
592.4886, 90.51805
592.9707, 89.68073
593.4528, 89.75925
593.9349, 90.10888
594.4171, 90.45284
594.8992, 90.89876
595.3813, 91.69523
595.8634, 93.16753
596.3455, 94.00708
596.8276, 94.19739
597.3098, 93.87260
597.7919, 92.34163
598.2740, 90.52613
598.7561, 90.20139
599.2382, 92.16062
599.7203, 94.48379
600.2025, 94.12512
600.6846, 91.18962
601.1667, 89.88439
601.6488, 91.48697
602.1309, 93.02632
602.6130, 91.85818
603.0952, 89.25261
603.5773, 87.82228
604.0594, 88.39784
604.5415, 89.22498
605.0236, 89.36207
605.5057, 89.19893
605.9879, 89.28873
606.4700, 89.73183
606.9521, 90.47816
607.4342, 91.55868
607.9163, 92.87680
608.3984, 93.69789
608.8806, 93.31345
609.3627, 93.40313
609.8448, 95.26491
610.3269, 96.77463
610.8090, 95.71043
611.2911, 92.45547
611.7733, 89.52619
612.2554, 88.74203
612.7375, 89.39051
613.2196, 89.94762
613.7017, 90.43151
614.1838, 90.59624
614.6660, 90.07332
615.1481, 89.55980
615.6302, 90.05441
616.1123, 91.47498
616.5944, 92.56372
617.0765, 92.95643
617.5587, 93.04271
618.0408, 92.97161
618.5229, 92.80820
619.0050, 92.71394
619.4871, 92.73964
619.9692, 92.63825
620.4514, 91.91309
620.9335, 90.29487
621.4156, 90.12292
621.8977, 93.58672
622.3798, 95.90092
622.8619, 95.23495
623.3441, 93.09396
623.8262, 90.87631
624.3083, 88.96913
624.7904, 87.91963
625.2725, 88.57256
625.7546, 90.40571
626.2367, 92.27911
626.7188, 94.23062
627.2009, 95.00166
627.6830, 93.35094
628.1652, 90.57661
628.6473, 89.92493
629.1294, 92.31283
629.6115, 93.49081
630.0936, 91.69374
630.5757, 89.46572
631.0579, 88.47835
631.5400, 88.64952
632.0221, 89.53170
632.5042, 90.93311
632.9863, 92.17326
633.4684, 91.65372
633.9506, 88.76994
634.4327, 87.15632
634.9148, 87.79417
635.3969, 88.74584
635.8790, 89.04325
636.3611, 88.97766
636.8433, 89.08910
637.3254, 89.59113
637.8075, 90.02527
638.2896, 90.27734
638.7717, 90.17031
639.2538, 88.91886
639.7360, 86.49625
640.2181, 84.79932
640.7002, 85.31194
641.1823, 87.47115
641.6644, 88.99341
642.1465, 89.39520
642.6287, 89.78336
643.1108, 89.95447
643.5929, 90.29955
644.0750, 91.49454
644.5571, 93.10348
645.0392, 93.80434
645.5214, 92.64932
646.0035, 90.93762
646.4856, 91.34480
646.9677, 93.85648
647.4498, 94.63342
647.9319, 92.22483
648.4141, 89.58254
648.8962, 89.39207
649.3783, 91.01723
649.8604, 92.05210
650.3425, 91.68430
650.8246, 91.55515
651.3068, 92.92260
651.7889, 94.55961
652.2710, 94.49534
652.7531, 92.79933
653.2352, 91.64776
653.7173, 92.88845
654.1995, 95.78374
654.6816, 97.10676
655.1637, 95.91003
655.6458, 95.40124
656.1279, 96.58630
656.6100, 98.19466
657.0922, 99.60503
657.5743, 100.8387
658.0564, 102.1234
658.5385, 103.7447
659.0206, 105.1827
659.5027, 105.8543
659.9849, 105.9432
660.4670, 105.8724
660.9491, 105.7259
661.4312, 105.8693
661.9133, 106.8533
662.3954, 108.5236
662.8776, 108.6698
663.3597, 105.0207
663.8418, 102.8292
664.3239, 103.8909
664.8060, 105.6211
665.2881, 105.8846
665.7703, 104.7224
666.2524, 103.4669
666.7345, 102.9740
667.2166, 102.8425
667.6987, 102.3543
668.1808, 101.5153
668.6630, 100.5195
669.1451, 99.39023
669.6272, 98.17844
670.1093, 96.95113
670.5914, 95.69406
671.0735, 94.34802
671.5557, 92.83248
672.0378, 91.32516
672.5199, 89.64553
673.0020, 88.15604
673.4841, 87.24491
673.9662, 86.95531
674.4484, 87.18832
674.9305, 88.02763
675.4126, 89.07967
675.8947, 88.77332
676.3768, 86.59898
676.8589, 85.34348
677.3411, 85.89871
677.8232, 87.18358
678.3053, 88.80867
678.7874, 90.48661
679.2695, 91.08749
679.7516, 89.65604
680.2338, 87.97137
680.7159, 86.99855
681.1980, 86.48116
681.6801, 85.89095
682.1622, 85.20363
682.6443, 85.07437
683.1265, 86.18729
683.6086, 88.11960
684.0907, 88.70104
684.5728, 87.00365
685.0549, 85.98375
685.5370, 86.82632
686.0192, 87.75166
686.5013, 87.52737
686.9834, 86.53073
687.4655, 86.01533
687.9476, 86.68894
688.4297, 87.55020
688.9119, 87.62444
689.3940, 87.22438
689.8761, 87.05395
690.3582, 87.23887
690.8403, 87.68823
691.3224, 88.49306
691.8046, 89.37466
692.2867, 88.94198
692.7688, 85.46983
693.2509, 83.47718
693.7330, 83.63744
694.2151, 84.76997
694.6973, 87.07004
695.1794, 89.69692
695.6615, 90.76646
696.1436, 89.16291
696.6257, 86.82703
697.1078, 85.83198
697.5900, 85.88123
698.0721, 85.92896
698.5542, 85.82227
699.0363, 85.90668
699.5184, 86.59163
700.0005, 87.51962
700.4827, 87.40002
700.9648, 85.06269
701.4469, 83.58759
701.9290, 83.37490
702.4111, 83.69277
702.8932, 84.17228
703.3754, 84.83083
703.8575, 86.03757
704.3396, 88.00784
704.8217, 89.59362
705.3038, 88.85511
705.7859, 86.39596
706.2681, 85.26248
706.7502, 85.86032
707.2323, 86.63701
707.7144, 86.76350
708.1965, 86.49696
708.6786, 86.47340
709.1607, 86.94217
709.6428, 86.91372
710.1249, 85.69951
710.6071, 84.59192
711.0892, 84.49899
711.5713, 84.96996
712.0534, 85.09005
712.5355, 84.57492
713.0176, 84.11833
713.4998, 84.72038
713.9819, 86.11536
714.4640, 86.88701
714.9461, 86.98778
715.4282, 86.65257
715.9103, 85.95930
716.3925, 84.89622
716.8746, 82.98683
717.3567, 79.90273
717.8388, 78.82685
718.3209, 81.88976
718.8030, 84.98640
719.2852, 86.35722
719.7673, 86.50021
720.2494, 86.03909
720.7315, 85.21931
721.2136, 84.26753
721.6957, 83.23471
722.1779, 82.30589
722.6600, 82.26047
723.1421, 83.19482
723.6242, 84.19897
724.1063, 85.12724
724.5884, 85.86038
725.0706, 86.31933
725.5527, 86.49128
726.0348, 86.17258
726.5169, 84.28625
726.9990, 83.21973
727.4811, 84.97028
727.9633, 87.18678
728.4454, 86.83861
728.9275, 84.15184
729.4096, 81.99280
729.8917, 82.45503
730.3738, 84.27897
730.8560, 84.64188
731.3381, 83.48608
731.8202, 83.00789
732.3023, 83.87276
732.7844, 84.68315
733.2665, 84.22365
733.7487, 82.89094
734.2308, 82.24963
734.7129, 82.77853
735.1950, 83.09215
735.6771, 82.55734
736.1592, 82.00386
736.6414, 82.15805
737.1235, 82.84116
737.6056, 83.50378
738.0877, 83.90484
738.5698, 84.12350
739.0519, 84.23103
739.5341, 84.24046
740.0162, 84.27068
740.4983, 84.32803
740.9804, 84.43423
741.4625, 84.76807
741.9446, 85.01025
742.4268, 84.42472
742.9089, 82.77856
743.3910, 81.58465
743.8731, 80.79996
744.3552, 80.67098
744.8373, 81.78886
745.3195, 83.42596
745.8016, 84.84385
746.2837, 85.73940
746.7658, 85.69287
747.2479, 83.77187
747.7300, 80.91905
748.2122, 79.85357
748.6943, 80.59957
749.1764, 81.72856
749.6585, 83.17696
750.1406, 83.94276
750.6227, 82.50381
751.1049, 78.98579
751.5870, 77.52496
752.0691, 80.45333
752.5512, 82.12044
753.0333, 80.53697
753.5154, 78.08227
753.9976, 76.33620
754.4797, 75.55789
754.9618, 75.72755
755.4439, 77.00590
755.9260, 78.62192
756.4081, 79.53960
756.8903, 79.91702
757.3724, 80.28077
757.8545, 80.67205
758.3366, 81.65073
758.8187, 83.96608
759.3008, 86.54207
759.7830, 86.51053
760.2651, 81.74825
760.7472, 79.42060
761.2293, 81.89371
761.7114, 83.99476
762.1935, 82.83426
762.6757, 80.41418
763.1578, 79.63161
763.6399, 81.10820
764.1220, 82.96437
764.6041, 84.18145
765.0862, 84.77644
765.5684, 84.66682
766.0505, 83.92807
766.5326, 82.63079
767.0147, 80.72901
767.4968, 79.52770
767.9789, 80.82867
768.4611, 84.43312
768.9432, 85.33264
769.4253, 81.38572
769.9074, 78.39064
770.3895, 77.27522
770.8716, 77.29667
771.3538, 78.59313
771.8359, 80.66547
772.3180, 82.12357
772.8001, 82.40936
773.2822, 82.22249
773.7643, 81.66463
774.2465, 81.11392
774.7286, 81.38447
775.2107, 82.32315
775.6928, 82.67808
776.1749, 81.68319
776.6570, 80.36278
777.1392, 81.10386
777.6213, 84.47446
778.1034, 85.59715
778.5855, 83.12255
779.0676, 80.97060
779.5497, 81.76563
780.0319, 83.26278
780.5140, 82.10625
780.9961, 77.96868
781.4782, 75.24673
781.9603, 75.54244
782.4424, 76.95705
782.9246, 78.93639
783.4067, 81.09244
783.8888, 83.23294
784.3709, 85.12978
784.8530, 86.01131
785.3351, 85.09262
785.8173, 83.00457
786.2994, 80.83789
786.7815, 78.59630
787.2636, 78.57445
787.7457, 81.90447
788.2278, 85.13182
788.7100, 85.41625
789.1921, 83.55750
789.6742, 82.73156
790.1563, 83.75780
790.6384, 84.25672
791.1205, 83.94838
791.6026, 83.23972
792.0847, 81.68203
792.5668, 80.11805
793.0490, 79.99883
793.5311, 81.73180
794.0132, 83.94662
794.4953, 85.97776
794.9774, 87.53152
795.4595, 87.74800
795.9417, 86.86179
796.4238, 86.30215
796.9059, 86.55021
797.3880, 86.96138
797.8701, 86.66477
798.3522, 85.79711
798.8344, 86.72015
799.3165, 90.88464
799.7986, 94.04852
800.2807, 95.01609
800.7628, 95.24365
801.2449, 95.07769
801.7271, 94.85379
802.2092, 95.43081
802.6913, 97.33377
803.1734, 99.22789
803.6555, 100.2511
804.1376, 101.0366
804.6198, 102.1433
805.1019, 103.6348
805.5840, 105.3860
806.0661, 107.3465
806.5482, 109.9737
807.0303, 114.2304
807.5125, 119.8682
807.9946, 124.2566
808.4767, 127.1371
808.9588, 130.2877
809.4409, 134.1691
809.9230, 138.7383
810.4052, 144.0569
810.8873, 150.1332
811.3694, 156.2777
811.8515, 162.2126
812.3336, 168.5547
812.8157, 176.0529
813.2979, 183.4613
813.7800, 189.9067
814.2621, 195.3196
814.7442, 200.0495
815.2263, 204.4159
815.7084, 207.1844
816.1906, 206.8616
816.6727, 204.1212
817.1548, 199.8418
817.6369, 194.3236
818.1190, 189.0475
818.6011, 184.7395
819.0833, 180.2250
819.5654, 173.6365
820.0475, 164.8591
820.5296, 156.9298
821.0117, 149.8374
821.4938, 143.5070
821.9760, 138.5279
822.4581, 133.8065
822.9402, 128.3311
823.4223, 122.3076
823.9044, 116.7346
824.3865, 111.1630
824.8687, 107.0674
825.3508, 106.8770
825.8329, 106.9907
826.3150, 102.6759
826.7971, 95.57597
827.2792, 91.26709
827.7614, 92.23044
828.2435, 94.79311
828.7256, 94.35911
829.2077, 91.75188
829.6898, 90.11379
830.1719, 89.53542
830.6541, 89.18108
831.1362, 88.83127
831.6183, 88.26560
832.1004, 87.14957
832.5825, 85.50025
833.0646, 84.12693
833.5468, 83.00943
834.0289, 82.22861
834.5110, 82.39568
834.9931, 82.32590
835.4752, 80.94655
835.9573, 78.76767
836.4395, 77.04549
836.9216, 76.00780
837.4037, 75.75420
837.8858, 76.74733
838.3679, 78.23433
838.8500, 79.67927
839.3322, 80.91060
839.8143, 81.66378
840.2964, 81.86131
840.7785, 81.74780
841.2606, 81.65234
841.7427, 81.43895
842.2249, 80.14966
842.7070, 77.68581
843.1891, 76.91357
843.6712, 79.04098
844.1533, 81.34778
844.6354, 81.45950
845.1176, 79.81187
845.5997, 78.53265
846.0818, 77.77866
846.5639, 77.16582
847.0460, 77.04996
847.5281, 76.68627
848.0103, 75.24056
848.4924, 73.53206
848.9745, 72.76221
849.4566, 73.16688
849.9387, 74.13824
850.4208, 76.06174
850.9030, 77.78113
851.3851, 78.14761
851.8672, 77.56966
852.3493, 76.69516
852.8314, 75.75327
853.3135, 74.94946
853.7957, 74.43826
854.2778, 74.20083
854.7599, 74.29616
855.2420, 74.71398
855.7241, 74.99905
856.2062, 75.17083
856.6884, 74.77689
857.1705, 73.21459
857.6526, 71.42662
858.1347, 71.34011
858.6168, 73.62498
859.0989, 74.56978
859.5811, 72.70426
860.0632, 71.43477
860.5453, 72.18611
861.0274, 73.35729
861.5095, 73.35433
861.9916, 72.37126
862.4738, 71.82951
862.9559, 72.46232
863.4380, 73.18307
863.9201, 73.24181
864.4022, 73.03372
864.8843, 73.09023
865.3665, 73.33212
865.8486, 73.28292
866.3307, 72.75431
866.8128, 72.23464
867.2949, 72.69135
867.7770, 73.66328
868.2592, 72.56267
868.7413, 69.34322
869.2234, 67.74485
869.7055, 69.08515
870.1876, 71.06535
870.6697, 71.40261
871.1519, 73.22883
871.6340, 71.34648
872.1161, 75.42208
872.5981, 77.85172
873.0803, 77.68322
873.5624, 76.59185
874.0445, 74.40539
874.5266, 72.10083
875.0087, 71.17324
875.4908, 71.88792
875.9730, 72.56493
876.4551, 72.90666
876.9372, 72.74039
877.4193, 71.32192
877.9014, 69.68152
878.3835, 69.14286
878.8657, 69.82222
879.3478, 71.25078
879.8299, 73.34061
880.3120, 75.30193
880.7941, 76.01382
881.2762, 75.70444
881.7584, 74.78263
882.2405, 73.38915
882.7226, 72.83302
883.2047, 73.79629
883.6868, 75.04964
884.1689, 74.82321
884.6511, 73.18124
885.1332, 72.25357
885.6153, 72.30599
886.0974, 72.32536
886.5795, 71.95707
887.0616, 71.70708
887.5438, 72.29009
888.0259, 73.27467
888.5080, 73.26054
888.9901, 71.47298
889.4722, 70.47321
889.9543, 71.53332
890.4365, 72.47417
890.9186, 71.86829
891.4007, 70.59138
891.8828, 69.69270
892.3649, 69.42368
892.8470, 69.89787
893.3292, 71.78919
893.8113, 73.68042
894.2934, 74.18399
894.7755, 73.75034
895.2576, 72.74761
895.7397, 71.51622
896.2219, 71.19759
896.7040, 72.42107
897.1861, 74.00504
897.6682, 73.83675
898.1503, 74.77945
898.6324, 75.63337
899.1146, 74.98685
899.5967, 76.32132
900.0788, 75.52607
900.5609, 73.73718
901.0430, 71.86068
901.5251, 69.99989
902.0073, 68.75623
902.4894, 67.76106
902.9715, 68.16780
903.4536, 71.85151
903.9357, 74.82101
904.4178, 74.52208
904.9000, 72.87489
905.3821, 72.72948
905.8642, 74.41616
906.3463, 75.22251
906.8284, 73.07678
907.3105, 71.62608
907.7927, 73.91485
908.2748, 76.75630
908.7569, 76.35241
909.2390, 73.31188
909.7211, 70.73764
910.2032, 69.93772
910.6854, 70.38045
911.1675, 72.75726
911.6496, 75.39986
912.1317, 75.05027
912.6138, 72.43548
913.0959, 70.40685
913.5781, 69.85412
914.0602, 70.17805
914.5423, 70.98946
915.0244, 71.97124
915.5065, 72.04505
915.9886, 71.20171
916.4708, 70.60574
916.9529, 70.39441
917.4350, 70.45719
917.9171, 70.76668
918.3992, 71.25534
918.8813, 71.80000
919.3635, 72.39271
919.8456, 73.21242
920.3277, 75.37012
920.8098, 75.92522
921.2919, 72.12161
921.7740, 68.43130
922.2562, 68.50359
922.7383, 71.20067
923.2204, 73.07656
923.7025, 73.74112
924.1846, 73.55466
924.6667, 71.48516
925.1489, 69.76649
925.6310, 70.21973
926.1131, 71.61172
926.5952, 72.04121
927.0773, 71.37276
927.5594, 71.16087
928.0416, 72.74075
928.5237, 74.31490
929.0058, 73.90231
929.4879, 72.59389
929.9700, 71.94836
930.4521, 72.09827
930.9343, 72.91103
931.4164, 74.29618
931.8985, 75.57384
932.3806, 75.88987
932.8627, 75.48228
933.3448, 75.36131
933.8270, 75.40829
934.3091, 73.74296
934.7912, 69.82481
935.2733, 66.87038
935.7554, 67.32245
936.2375, 69.87551
936.7197, 71.48573
937.2018, 72.09157
937.6839, 72.03897
938.1660, 71.06113
938.6481, 70.06105
939.1302, 69.06506
939.6124, 68.48853
940.0945, 68.84304
940.5766, 70.04672
941.0587, 71.35480
941.5408, 73.40498
942.0229, 74.58624
942.5051, 73.97207
942.9872, 73.40805
943.4693, 74.24088
943.9514, 75.43399
944.4335, 75.30324
944.9156, 73.71302
945.3978, 72.61232
945.8799, 72.73996
946.3620, 73.42497
946.8441, 74.91354
947.3262, 76.34228
947.8083, 76.64146
948.2905, 76.12283
948.7726, 75.85891
949.2547, 76.24801
949.7368, 76.54942
950.2189, 76.11296
950.7010, 75.25629
951.1832, 74.03866
951.6653, 72.82780
952.1474, 72.47762
952.6295, 73.11495
953.1116, 74.59143
953.5938, 76.97847
954.0759, 79.02216
954.5580, 78.09463
955.0400, 74.86726
955.5222, 72.78620
956.0043, 71.96993
956.4864, 72.42336
956.9685, 74.30683
957.4506, 75.83460
957.9327, 75.01793
958.4149, 72.70504
958.8970, 72.81347
959.3791, 76.09605
959.8612, 77.94164
960.3433, 77.67445
960.8254, 76.86327
961.3076, 75.84222
961.7897, 75.12466
962.2718, 75.58833
962.7539, 77.26656
963.2360, 78.30486
963.7181, 79.05247
964.2003, 78.59164
964.6824, 75.25441
965.1645, 72.40150
965.6466, 72.17414
966.1287, 73.46160
966.6108, 74.45883
967.0930, 75.01803
967.5751, 75.16120
968.0572, 74.37218
968.5393, 73.82395
969.0214, 74.14346
969.5035, 74.77486
969.9857, 75.24276
970.4678, 75.56606
970.9499, 76.12803
971.4320, 77.18859
971.9141, 77.35601
972.3962, 74.54063
972.8784, 71.71699
973.3605, 71.57224
973.8426, 73.18123
974.3247, 75.44044
974.8068, 77.81607
975.2889, 79.49027
975.7711, 79.96226
976.2532, 79.81802
976.7353, 79.57178
977.2174, 79.23052
977.6995, 78.83015
978.1816, 78.34383
978.6638, 77.62121
979.1459, 76.65203
979.6280, 75.77071
980.1101, 75.28004
980.5922, 74.93959
981.0743, 73.88256
981.5565, 72.42973
982.0386, 72.82111
982.5207, 75.16397
983.0028, 77.63246
983.4849, 79.56108
983.9670, 80.93575
984.4492, 81.74787
984.9313, 81.98611
985.4134, 81.34127
985.8955, 79.55630
986.3776, 78.86540
986.8597, 79.58719
987.3419, 81.06856
987.8240, 83.11308
988.3061, 85.53604
988.7882, 88.05782
989.2703, 90.67112
989.7524, 93.72688
990.2346, 97.02026
990.7167, 101.3620
991.1988, 108.6747
991.6809, 114.5074
992.1630, 116.1545
992.6451, 114.8509
993.1273, 112.4519
993.6094, 108.7943
994.0915, 105.2821
994.5736, 101.8379
995.0557, 98.64865
995.5378, 96.16668
996.0200, 93.56174
996.5021, 90.10688
996.9842, 86.17796
997.4663, 82.22207
997.9484, 78.03219
998.4305, 75.93565
998.9127, 78.58216
999.3948, 80.86660
999.8769, 80.83434
1000.359, 79.26451
1000.841, 75.70142
1001.323, 71.47399
1001.805, 69.75361
1002.287, 71.71242
1002.770, 74.18212
1003.252, 76.13204
1003.734, 77.37437
1004.216, 77.57865
1004.698, 77.12162
1005.180, 76.18114
1005.662, 75.06944
1006.144, 74.54375
1006.627, 74.97578
1007.109, 75.69126
1007.591, 76.16352
1008.073, 76.59110
1008.555, 77.32072
1009.037, 78.14222
1009.519, 78.94958
1010.001, 79.46989
1010.483, 78.52402
1010.966, 75.19843
1011.448, 71.89563
1011.930, 71.62060
1012.412, 73.31751
1012.894, 75.61703
1013.376, 77.98106
1013.858, 78.72724
1014.340, 77.65736
1014.823, 76.39841
1015.305, 76.05441
1015.787, 76.33047
1016.269, 77.13615
1016.751, 78.12668
1017.233, 77.46385
1017.715, 75.43790
1018.197, 75.01354
1018.679, 76.98893
1019.162, 79.10148
1019.644, 79.54388
1020.126, 78.76094
1020.608, 77.24320
1021.090, 75.16769
1021.572, 75.21696
1022.054, 77.55786
1022.536, 79.97095
1023.018, 81.84533
1023.501, 82.71072
1023.983, 81.98862
1024.465, 80.24187
1024.947, 79.21803
1025.429, 78.96645
1025.911, 78.96751
1026.393, 79.29565
1026.875, 79.34106
1027.358, 78.81754
1027.840, 78.21600
1028.322, 78.10024
1028.804, 78.22884
1029.286, 77.34928
1029.768, 77.91686
1030.250, 74.53200
1030.732, 78.23792
1031.214, 80.88497
1031.697, 80.50839
1032.179, 78.76494
1032.661, 76.97002
1033.143, 75.30824
1033.625, 74.76301
1034.107, 75.81597
1034.589, 76.85786
1035.071, 78.51480
1035.553, 78.89513
1036.036, 75.96102
1036.518, 73.05355
1037.000, 74.09368
1037.482, 78.24357
1037.964, 80.61146
1038.446, 80.42638
1038.928, 79.91777
1039.410, 78.21197
1039.893, 77.37668
1040.375, 79.28053
1040.857, 81.42443
1041.339, 81.00832
1041.821, 78.57305
1042.303, 77.07343
1042.785, 77.03693
1043.267, 76.99625
1043.750, 77.25017
1044.232, 77.04603
1044.714, 75.57621
1045.196, 73.94804
1045.678, 72.89687
1046.160, 72.60038
1046.642, 73.77780
1047.124, 77.78597
1047.606, 80.33508
1048.089, 79.43808
1048.571, 78.72942
1049.053, 80.20902
1049.535, 82.13845
1050.017, 82.74483
1050.499, 82.22346
1050.981, 81.88339
1051.463, 82.32480
1051.945, 81.88482
1052.428, 78.54491
1052.910, 76.27270
1053.392, 78.31464
1053.874, 81.14365
1054.356, 80.76577
1054.838, 77.98087
1055.320, 76.45617
1055.802, 77.19357
1056.285, 78.28532
1056.767, 79.78622
1057.249, 80.79881
1057.731, 80.84962
1058.213, 80.22107
1058.695, 78.48636
1059.177, 76.39961
1059.659, 76.19582
1060.141, 78.88938
1060.624, 81.06864
1061.106, 81.30190
1061.588, 81.03736
1062.070, 80.92004
1062.552, 80.74311
1063.034, 80.03500
1063.516, 79.10059
1063.998, 78.91959
1064.480, 79.88445
1064.963, 80.31582
1065.445, 78.91723
1065.927, 77.58992
1066.409, 77.22669
1066.891, 77.49178
1067.373, 78.48826
1067.855, 79.70801
1068.337, 80.12273
1068.820, 79.46455
1069.302, 78.45161
1069.784, 76.65134
1070.266, 75.49062
1070.748, 75.81641
1071.230, 77.02754
1071.712, 79.38850
1072.194, 81.91722
1072.677, 82.60412
1073.159, 81.05045
1073.641, 79.52640
1074.123, 78.92383
1074.605, 78.71155
1075.087, 79.23869
1075.569, 79.47253
1076.051, 78.24085
1076.533, 76.14825
1077.016, 73.67927
1077.498, 71.21891
1077.980, 71.51965
1078.462, 78.57571
1078.944, 84.52397
1079.426, 84.65112
1079.908, 83.06105
1080.390, 82.89439
1080.872, 83.42122
1081.354, 83.06716
1081.837, 81.66940
1082.319, 80.14491
1082.801, 78.47082
1083.283, 77.44614
1083.765, 77.88248
1084.247, 78.65372
1084.729, 78.71584
1085.211, 78.73181
1085.694, 80.11369
1086.176, 82.53024
1086.658, 83.70523
1087.140, 82.50742
1087.622, 81.08919
1088.104, 79.87315
1088.586, 79.25624
1089.068, 80.12907
1089.551, 81.28568
1090.033, 81.20433
1090.515, 80.10368
1090.997, 79.37929
1091.479, 79.67094
1091.961, 79.10684
1092.443, 75.28383
1092.925, 72.49380
1093.407, 73.64227
1093.890, 76.36217
1094.372, 78.89470
1094.854, 80.87345
1095.336, 81.91812
1095.818, 81.83547
1096.300, 81.95241
1096.782, 83.00410
1097.264, 83.91546
1097.746, 84.57516
1098.229, 84.64180
1098.711, 83.35194
1099.193, 81.48287
1099.675, 80.49010
1100.157, 80.57803
1100.639, 80.60963
1101.121, 79.55848
1101.603, 79.48486
1102.086, 82.28367
1102.568, 84.79070
1103.050, 84.50601
1103.532, 83.02045
1104.014, 82.72034
1104.496, 83.64963
1104.978, 84.13140
1105.460, 83.78295
1105.943, 83.14910
1106.425, 81.50984
1106.907, 80.57021
1107.389, 81.73772
1107.871, 83.49629
1108.353, 84.40105
1108.835, 84.45942
1109.317, 83.96766
1109.799, 82.49245
1110.281, 81.59790
1110.764, 81.59074
1111.246, 81.92091
1111.728, 82.62547
1112.210, 83.43186
1112.692, 84.37017
1113.174, 85.19875
1113.656, 85.17989
1114.138, 83.98082
1114.621, 83.44785
1115.103, 83.92376
1115.585, 84.52991
1116.067, 85.54453
1116.549, 86.08654
1117.031, 85.26566
1117.513, 83.96148
1117.995, 83.72603
1118.478, 83.19661
1118.960, 82.66109
1119.442, 83.07529
1119.924, 82.28042
1120.406, 82.75286
1120.888, 83.21097
1121.370, 83.25998
1121.852, 82.72951
1122.334, 81.02045
1122.817, 78.66013
1123.299, 78.92041
1123.781, 78.55319
1124.263, 77.97407
1124.745, 80.71540
1125.227, 79.15575
1125.709, 81.95030
1126.191, 85.49944
1126.673, 86.88699
1127.156, 86.80549
1127.638, 87.00975
1128.120, 87.54609
1128.602, 86.66280
1129.084, 84.13976
1129.566, 82.37888
1130.048, 81.80065
1130.530, 83.01172
1131.013, 86.76550
1131.495, 90.26278
1131.977, 88.89474
1132.459, 83.91874
1132.941, 81.43648
1133.423, 81.31331
1133.905, 82.36514
1134.387, 84.34656
1134.870, 85.06026
1135.352, 83.64009
1135.834, 82.21540
1136.316, 82.89697
1136.798, 84.73902
1137.280, 86.04307
1137.762, 86.75212
1138.244, 86.57197
1138.726, 85.58349
1139.208, 83.68983
1139.691, 81.18616
1140.173, 80.53161
1140.655, 83.47919
1141.137, 86.89674
1141.619, 86.19132
1142.101, 83.68112
1142.583, 83.75304
1143.065, 85.22168
1143.548, 85.00655
1144.030, 83.27083
1144.512, 82.47942
1144.994, 83.53790
1145.476, 84.67001
1145.958, 84.25610
1146.440, 83.51390
1146.922, 83.34086
1147.405, 83.81824
1147.887, 85.79588
1148.369, 88.23069
1148.851, 88.90907
1149.333, 87.62424
1149.815, 86.16766
1150.297, 85.31886
1150.779, 84.61691
1151.261, 83.07352
1151.744, 82.35997
1152.226, 85.08262
1152.708, 88.33606
1153.190, 88.14351
1153.672, 85.35085
1154.154, 83.50205
1154.636, 83.38227
1155.118, 84.17616
1155.600, 86.59215
1156.083, 88.58277
1156.565, 89.51446
1157.047, 89.71114
1157.529, 88.95136
1158.011, 87.85794
1158.493, 87.62495
1158.975, 88.27072
1159.457, 87.90273
1159.940, 83.97857
1160.422, 83.09081
1160.904, 89.04367
1161.386, 92.71777
1161.868, 89.03056
1162.350, 84.18865
1162.832, 83.87029
1163.314, 86.78769
1163.796, 89.00330
1164.279, 90.41299
1164.761, 91.79844
1165.243, 93.55991
1165.725, 93.61802
1166.207, 90.93790
1166.689, 88.76546
1167.171, 89.12064
1167.653, 90.49777
1168.135, 90.71543
1168.618, 90.05400
1169.100, 90.23695
1169.582, 91.24413
1170.064, 91.45481
1170.546, 90.75362
1171.028, 90.35965
1171.510, 90.67860
1171.992, 91.18768
1172.474, 91.46754
1172.957, 91.68241
1173.439, 92.60616
1173.921, 93.54314
1174.403, 91.75285
1174.885, 88.21692
1175.367, 86.04501
1175.849, 85.77287
1176.331, 87.39333
1176.814, 90.79897
1177.296, 93.59856
1177.778, 93.23121
1178.260, 91.77071
1178.742, 91.70602
1179.224, 91.97417
1179.706, 90.55150
1180.188, 88.51424
1180.671, 88.56538
1181.153, 90.76998
1181.635, 92.56084
1182.117, 92.80762
1182.599, 92.57219
1183.081, 91.76744
1183.563, 91.43343
1184.045, 92.87708
1184.527, 94.54396
1185.010, 94.75943
1185.492, 93.99087
1185.974, 93.57595
1186.456, 93.72184
1186.938, 93.77004
1187.420, 93.76784
1187.902, 93.42629
1188.384, 92.28450
1188.866, 91.30692
1189.349, 90.98579
1189.831, 90.96249
1190.313, 91.06992
1190.795, 91.12929
1191.277, 90.26196
1191.759, 87.89201
1192.241, 87.30437
1192.723, 89.08822
1193.206, 90.56970
1193.688, 91.14643
1194.170, 91.57483
1194.652, 92.31313
1195.134, 93.07615
1195.616, 93.55543
1196.098, 93.62301
1196.580, 92.03651
1197.063, 93.14799
1197.545, 89.78957
1198.027, 93.67526
1198.509, 96.00537
1198.991, 95.43587
1199.473, 93.64926
1199.955, 91.63780
1200.437, 90.34708
1200.919, 91.63000
1201.401, 94.02578
1201.884, 95.21456
1202.366, 95.45859
1202.848, 94.81384
1203.330, 93.86994
1203.812, 94.37743
1204.294, 96.64897
1204.776, 98.24973
1205.258, 97.43994
1205.741, 96.21152
1206.223, 96.21882
1206.705, 95.88126
1207.187, 92.67377
1207.669, 89.36013
1208.151, 89.78417
1208.633, 93.13832
1209.115, 96.05096
1209.598, 98.12148
1210.080, 98.83595
1210.562, 96.35926
1211.044, 95.14186
1211.526, 97.39378
1212.008, 99.45170
1212.490, 99.90865
1212.972, 98.98080
1213.454, 96.36214
1213.937, 92.69353
1214.419, 91.19080
1214.901, 92.27769
1215.383, 93.45132
1215.865, 94.72488
1216.347, 95.94424
1216.829, 97.06059
1217.311, 98.29507
1217.793, 99.83936
1218.276, 101.0745
1218.758, 101.1415
1219.240, 100.3000
1219.722, 98.89502
1220.204, 97.26824
1220.686, 97.18400
1221.168, 98.09518
1221.650, 96.84633
1222.133, 93.24878
1222.615, 91.13437
1223.097, 92.72041
1223.579, 95.70598
1224.061, 99.55260
1224.543, 102.1599
1225.025, 100.2988
1225.507, 96.94011
1225.990, 95.30769
1226.472, 95.14894
1226.954, 95.34490
1227.436, 95.65783
1227.918, 96.10453
1228.400, 96.85328
1228.882, 97.38350
1229.364, 97.44960
1229.846, 97.43993
1230.328, 98.11922
1230.811, 98.10985
1231.293, 95.29687
1231.775, 91.82805
1232.257, 92.04068
1232.739, 95.90057
1233.221, 98.30913
1233.703, 98.97878
1234.185, 99.50920
1234.668, 100.0602
1235.150, 100.1478
1235.632, 99.54627
1236.114, 99.03719
1236.596, 99.25953
1237.078, 99.77684
1237.560, 99.80927
1238.042, 99.52230
1238.525, 99.63168
1239.007, 99.86581
1239.489, 99.09755
1239.971, 97.58012
1240.453, 96.35537
1240.935, 95.90546
1241.417, 97.20153
1241.899, 101.5509
1242.381, 105.3326
1242.864, 105.2755
1243.346, 103.9117
1243.828, 102.4305
1244.310, 101.5713
1244.792, 102.9586
1245.274, 105.2307
1245.756, 104.9142
1246.238, 101.5424
1246.720, 99.76399
1247.203, 102.1787
1247.685, 103.1383
1248.167, 100.9184
1248.649, 99.22271
1249.131, 99.16928
1249.613, 100.1298
1250.095, 102.3280
1250.577, 104.1587
1251.059, 101.8974
1251.542, 96.15159
1252.024, 94.72942
1252.506, 97.59150
1252.988, 99.35634
1253.470, 99.59272
1253.952, 100.2751
1254.434, 101.9734
1254.916, 103.6031
1255.399, 104.4229
1255.881, 104.6077
1256.363, 104.2259
1256.845, 103.4663
1257.327, 102.2626
1257.809, 101.1044
1258.291, 100.5982
1258.773, 100.8083
1259.255, 102.1792
1259.738, 104.4172
1260.220, 105.2545
1260.702, 103.3011
1261.184, 101.5304
1261.666, 100.5890
1262.148, 100.4116
1262.630, 101.8145
1263.112, 103.0784
1263.594, 102.5018
1264.077, 101.4465
1264.559, 102.3048
1265.041, 104.6190
1265.523, 103.9240
1266.005, 99.07415
1266.487, 98.58192
1266.969, 103.2749
1267.451, 106.4857
1267.934, 106.6107
1268.416, 106.1914
1268.898, 106.6387
1269.380, 107.5557
1269.862, 108.7524
1270.344, 109.6406
1270.826, 108.6390
1271.308, 106.8551
1271.791, 106.7908
1272.273, 107.4947
1272.755, 105.8678
1273.237, 102.5564
1273.719, 102.2564
1274.201, 106.8097
1274.683, 110.0319
1275.165, 107.5885
1275.647, 105.5661
1276.130, 107.1195
1276.612, 108.7231
1277.094, 107.9193
1277.576, 106.4528
1278.058, 106.2288
1278.540, 106.8656
1279.022, 107.4069
1279.504, 107.9091
1279.986, 107.3480
1280.469, 105.4280
1280.951, 104.5279
1281.433, 104.9574
1281.915, 106.3025
1282.397, 108.4371
1282.879, 109.2527
1283.361, 106.8899
1283.843, 103.7199
1284.326, 102.5572
1284.808, 103.3997
##END=



