##NAMES=Rodalquilarite
##RRUFFID=R061063
##IDEAL CHEMISTRY=H_3_Fe^3+^_2_(Te^4+^O_3_)_4_Cl
##LOCALITY=Wendy open pit, Tambo mine, El Indio deposit, Elqui Province, Coquimbo Region, Chile
##OWNER=RRUFF
##SOURCE=Bob Jenkins
##DESCRIPTION=Grass bladed crystals on quartz found with alunite
##STATUS=The identification of this mineral has been confirmed by single-crystal X-ray diffraction.
##URL=rruff.info/R061063
133.5810, 3887.942
134.0632, 4090.726
134.5453, 4323.264
135.0274, 4585.740
135.5095, 4878.492
135.9916, 5201.149
136.4737, 5555.852
136.9559, 5942.765
137.4380, 6355.798
137.9201, 6822.966
138.4022, 7382.958
138.8843, 7969.272
139.3664, 8569.844
139.8486, 9169.688
140.3307, 9697.705
140.8128, 10041.53
141.2949, 10184.09
141.7770, 10124.11
142.2591, 9762.089
142.7413, 9239.324
143.2234, 8667.889
143.7055, 8082.046
144.1876, 7518.406
144.6697, 7044.078
145.1518, 6667.991
145.6340, 6359.642
146.1161, 6137.821
146.5982, 5976.200
147.0803, 5844.648
147.5624, 5734.869
148.0445, 5639.706
148.5267, 5543.776
149.0088, 5443.767
149.4909, 5350.682
149.9730, 5267.827
150.4551, 5193.445
150.9372, 5123.699
151.4194, 5055.908
151.9015, 4993.749
152.3836, 4945.885
152.8657, 4916.481
153.3478, 4888.668
153.8299, 4856.553
154.3121, 4821.223
154.7942, 4782.141
155.2763, 4732.711
155.7584, 4687.805
156.2405, 4678.329
156.7226, 4712.850
157.2048, 4759.973
157.6869, 4806.550
158.1690, 4853.134
158.6511, 4902.596
159.1332, 4953.539
159.6153, 5010.264
160.0975, 5079.636
160.5796, 5167.491
161.0617, 5257.066
161.5438, 5331.242
162.0259, 5393.244
162.5080, 5470.849
162.9902, 5579.510
163.4723, 5710.360
163.9544, 5842.077
164.4365, 5968.514
164.9186, 6104.578
165.4007, 6262.158
165.8829, 6440.931
166.3650, 6628.912
166.8471, 6816.763
167.3292, 7013.836
167.8113, 7231.760
168.2934, 7470.182
168.7756, 7730.881
169.2577, 8021.120
169.7398, 8341.591
170.2219, 8664.117
170.7040, 8973.343
171.1861, 9279.889
171.6683, 9599.729
172.1504, 9938.961
172.6325, 10283.31
173.1146, 10622.18
173.5967, 10957.04
174.0788, 11277.46
174.5610, 11585.15
175.0431, 11875.37
175.5252, 12147.68
176.0073, 12417.78
176.4894, 12640.82
176.9715, 12764.07
177.4537, 12781.53
177.9358, 12741.38
178.4179, 12645.30
178.9000, 12504.98
179.3821, 12317.33
179.8642, 12062.84
180.3464, 11799.75
180.8285, 11595.77
181.3106, 11454.42
181.7927, 11351.93
182.2748, 11299.90
182.7569, 11275.09
183.2391, 11256.00
183.7212, 11230.50
184.2033, 11226.34
184.6854, 11286.65
185.1675, 11421.69
185.6496, 11568.67
186.1318, 11718.44
186.6139, 11862.54
187.0960, 11997.11
187.5781, 12125.07
188.0602, 12231.65
188.5423, 12298.95
189.0245, 12324.43
189.5066, 12319.91
189.9887, 12289.30
190.4708, 12229.58
190.9529, 12127.21
191.4350, 11972.83
191.9172, 11798.84
192.3993, 11634.71
192.8814, 11472.77
193.3635, 11359.47
193.8456, 11341.16
194.3277, 11363.57
194.8099, 11384.74
195.2920, 11391.13
195.7741, 11410.50
196.2562, 11487.42
196.7383, 11635.72
197.2204, 11776.06
197.7026, 11890.61
198.1847, 11984.15
198.6668, 12064.99
199.1489, 12138.25
199.6310, 12177.48
200.1131, 12151.20
200.5953, 12056.56
201.0774, 11912.46
201.5595, 11693.13
202.0416, 11439.93
202.5237, 11167.87
203.0058, 10876.19
203.4880, 10600.08
203.9701, 10383.19
204.4522, 10230.87
204.9343, 10095.52
205.4164, 9970.386
205.8985, 9857.495
206.3807, 9759.658
206.8628, 9676.967
207.3449, 9607.485
207.8270, 9561.007
208.3091, 9542.845
208.7912, 9491.968
209.2734, 9386.845
209.7555, 9247.643
210.2376, 9082.612
210.7197, 8892.942
211.2018, 8690.264
211.6839, 8485.786
212.1660, 8279.725
212.6482, 8066.162
213.1303, 7827.585
213.6124, 7597.593
214.0945, 7397.217
214.5766, 7228.661
215.0587, 7083.673
215.5409, 6957.114
216.0230, 6849.297
216.5051, 6765.034
216.9872, 6712.595
217.4693, 6679.919
217.9514, 6654.954
218.4336, 6638.696
218.9157, 6641.178
219.3978, 6670.435
219.8799, 6725.634
220.3620, 6798.519
220.8441, 6887.883
221.3263, 6998.958
221.8084, 7136.007
222.2905, 7296.441
222.7726, 7465.058
223.2547, 7630.003
223.7368, 7795.098
224.2190, 7980.843
224.7011, 8198.375
225.1832, 8423.986
225.6653, 8642.545
226.1474, 8856.094
226.6295, 9072.080
227.1117, 9291.681
227.5938, 9515.530
228.0759, 9756.369
228.5580, 10036.06
229.0401, 10285.49
229.5222, 10455.46
230.0044, 10564.58
230.4865, 10646.38
230.9686, 10728.42
231.4507, 10790.13
231.9328, 10789.35
232.4149, 10721.31
232.8971, 10602.42
233.3792, 10423.43
233.8613, 10203.41
234.3434, 9966.428
234.8255, 9715.016
235.3076, 9454.732
235.7898, 9188.923
236.2719, 8915.575
236.7540, 8646.144
237.2361, 8374.598
237.7182, 8112.816
238.2003, 7878.797
238.6825, 7681.796
239.1646, 7509.100
239.6467, 7348.427
240.1288, 7198.996
240.6109, 7072.148
241.0930, 6984.396
241.5752, 6918.625
242.0573, 6840.657
242.5394, 6733.554
243.0215, 6637.106
243.5036, 6584.313
243.9857, 6571.496
244.4679, 6571.541
244.9500, 6576.879
245.4321, 6587.511
245.9142, 6599.481
246.3963, 6606.481
246.8784, 6629.989
247.3606, 6685.984
247.8427, 6768.096
248.3248, 6856.092
248.8069, 6938.990
249.2890, 7032.092
249.7711, 7162.746
250.2533, 7331.300
250.7354, 7516.715
251.2175, 7712.977
251.6996, 7919.334
252.1817, 8139.147
252.6638, 8374.975
253.1460, 8614.032
253.6281, 8838.105
254.1102, 9044.588
254.5923, 9256.459
255.0744, 9503.172
255.5565, 9747.123
256.0387, 9947.618
256.5208, 10096.87
257.0029, 10200.79
257.4850, 10267.28
257.9671, 10294.07
258.4492, 10256.85
258.9314, 10134.08
259.4135, 9961.348
259.8956, 9759.831
260.3777, 9532.445
260.8598, 9280.688
261.3419, 8997.854
261.8241, 8684.188
262.3062, 8383.404
262.7883, 8085.808
263.2704, 7810.481
263.7525, 7560.848
264.2346, 7339.511
264.7168, 7149.144
265.1989, 6992.443
265.6810, 6867.681
266.1631, 6768.170
266.6452, 6703.655
267.1273, 6648.448
267.6095, 6593.006
268.0916, 6542.959
268.5737, 6508.331
269.0558, 6494.242
269.5379, 6497.592
270.0201, 6508.721
270.5022, 6523.311
270.9843, 6552.590
271.4664, 6598.591
271.9485, 6658.865
272.4306, 6733.086
272.9128, 6820.367
273.3949, 6916.700
273.8770, 7014.989
274.3591, 7121.291
274.8412, 7218.299
275.3233, 7298.130
275.8055, 7375.435
276.2876, 7466.181
276.7697, 7569.917
277.2518, 7667.203
277.7339, 7735.630
278.2160, 7770.782
278.6982, 7793.174
279.1803, 7817.058
279.6624, 7815.717
280.1445, 7769.087
280.6266, 7684.285
281.1087, 7584.900
281.5909, 7487.483
282.0730, 7391.933
282.5551, 7300.101
283.0372, 7209.102
283.5193, 7125.066
284.0014, 7046.616
284.4836, 6976.698
284.9657, 6921.089
285.4478, 6885.440
285.9299, 6864.083
286.4120, 6841.450
286.8941, 6814.959
287.3763, 6793.457
287.8584, 6776.586
288.3405, 6767.302
288.8226, 6769.746
289.3047, 6785.806
289.7868, 6812.387
290.2690, 6846.700
290.7511, 6889.151
291.2332, 6935.200
291.7153, 6978.689
292.1974, 7029.217
292.6795, 7097.608
293.1617, 7186.116
293.6438, 7279.099
294.1259, 7360.517
294.6080, 7434.041
295.0901, 7520.985
295.5722, 7625.940
296.0544, 7745.420
296.5365, 7874.478
297.0186, 8012.666
297.5007, 8167.987
297.9828, 8341.464
298.4649, 8535.208
298.9471, 8753.700
299.4292, 9000.113
299.9113, 9265.726
300.3934, 9541.915
300.8755, 9831.636
301.3576, 10148.81
301.8398, 10496.17
302.3219, 10869.72
302.8040, 11262.00
303.2861, 11675.18
303.7682, 12124.68
304.2503, 12626.97
304.7325, 13174.16
305.2146, 13726.36
305.6967, 14286.73
306.1788, 14846.45
306.6609, 15403.94
307.1430, 15962.01
307.6252, 16532.94
308.1073, 17120.73
308.5894, 17714.02
309.0715, 18280.99
309.5536, 18853.79
310.0357, 19354.37
310.5179, 19765.69
311.0000, 20114.73
311.4821, 20428.50
311.9642, 20712.37
312.4463, 20949.46
312.9284, 21114.52
313.4106, 21192.45
313.8927, 21250.62
314.3748, 21303.58
314.8569, 21328.38
315.3390, 21302.78
315.8211, 21237.09
316.3033, 21161.84
316.7854, 21100.54
317.2675, 21051.27
317.7496, 20988.69
318.2317, 20914.03
318.7138, 20821.94
319.1960, 20730.94
319.6781, 20617.15
320.1602, 20446.75
320.6423, 20201.71
321.1244, 19901.65
321.6065, 19582.51
322.0887, 19237.96
322.5708, 18894.96
323.0529, 18566.68
323.5350, 18237.37
324.0171, 17891.44
324.4992, 17525.81
324.9814, 17163.86
325.4635, 16826.45
325.9456, 16510.49
326.4277, 16206.20
326.9098, 15894.04
327.3919, 15621.05
327.8741, 15419.98
328.3562, 15285.69
328.8383, 15195.21
329.3204, 15139.69
329.8025, 15121.56
330.2846, 15135.75
330.7668, 15177.36
331.2489, 15285.92
331.7310, 15489.79
332.2131, 15789.43
332.6952, 16166.37
333.1773, 16621.75
333.6595, 17151.63
334.1415, 17754.77
334.6237, 18429.67
335.1058, 19160.61
335.5879, 19937.64
336.0700, 20769.86
336.5521, 21691.23
337.0342, 22754.92
337.5164, 23796.56
337.9985, 24776.03
338.4806, 25723.41
338.9627, 26697.54
339.4448, 27704.61
339.9269, 28677.91
340.4091, 29540.34
340.8912, 30296.15
341.3733, 30899.40
341.8554, 31447.87
342.3375, 31783.52
342.8196, 31836.04
343.3018, 31604.12
343.7839, 31104.23
344.2660, 30335.56
344.7481, 29313.41
345.2302, 28156.89
345.7123, 26800.03
346.1945, 25392.71
346.6766, 23896.44
347.1587, 22387.52
347.6408, 20937.39
348.1229, 19565.11
348.6050, 18278.50
349.0872, 17081.21
349.5693, 15962.06
350.0514, 14963.77
350.5335, 14141.26
351.0156, 13415.55
351.4977, 12750.32
351.9799, 12138.41
352.4620, 11577.43
352.9441, 11065.38
353.4262, 10601.44
353.9083, 10190.99
354.3904, 9841.006
354.8726, 9524.865
355.3547, 9233.108
355.8368, 8962.051
356.3189, 8712.705
356.8010, 8489.690
357.2831, 8283.907
357.7653, 8083.125
358.2474, 7890.125
358.7295, 7724.265
359.2116, 7600.673
359.6937, 7503.575
360.1758, 7388.043
360.6580, 7237.094
361.1401, 7104.824
361.6222, 7015.711
362.1043, 6949.311
362.5864, 6877.430
363.0685, 6793.517
363.5507, 6714.886
364.0328, 6664.095
364.5149, 6649.291
364.9970, 6628.288
365.4791, 6598.137
365.9612, 6565.298
366.4434, 6524.158
366.9255, 6482.533
367.4076, 6458.903
367.8897, 6466.615
368.3718, 6499.343
368.8539, 6527.460
369.3361, 6550.095
369.8182, 6568.607
370.3003, 6575.179
370.7824, 6582.358
371.2645, 6603.481
371.7466, 6642.079
372.2288, 6687.710
372.7109, 6726.603
373.1930, 6757.866
373.6751, 6796.485
374.1572, 6847.440
374.6393, 6902.765
375.1215, 6960.438
375.6036, 7018.475
376.0857, 7070.108
376.5678, 7097.339
377.0499, 7120.920
377.5320, 7180.585
378.0142, 7279.592
378.4963, 7388.214
378.9784, 7496.042
379.4605, 7599.910
379.9426, 7691.477
380.4247, 7759.734
380.9069, 7832.995
381.3890, 7923.569
381.8711, 8029.556
382.3532, 8150.222
382.8353, 8286.872
383.3174, 8429.897
383.7996, 8565.030
384.2817, 8686.230
384.7638, 8820.673
385.2459, 8978.354
385.7280, 9140.668
386.2101, 9288.720
386.6923, 9429.351
387.1744, 9585.780
387.6565, 9775.964
388.1386, 9995.867
388.6207, 10217.51
389.1028, 10439.29
389.5850, 10663.38
390.0671, 10880.95
390.5492, 11104.13
391.0313, 11349.51
391.5134, 11620.42
391.9955, 11903.04
392.4777, 12177.08
392.9598, 12441.04
393.4419, 12721.42
393.9240, 13039.57
394.4061, 13353.19
394.8882, 13625.81
395.3704, 13867.60
395.8525, 14116.59
396.3346, 14397.25
396.8167, 14693.25
397.2988, 14974.42
397.7809, 15239.76
398.2631, 15510.86
398.7452, 15804.51
399.2273, 16107.13
399.7094, 16387.42
400.1915, 16629.03
400.6736, 16879.81
401.1558, 17151.63
401.6379, 17447.65
402.1200, 17772.00
402.6021, 18127.78
403.0842, 18508.91
403.5663, 18911.95
404.0485, 19348.54
404.5306, 19752.11
405.0127, 20092.72
405.4948, 20437.37
405.9769, 20832.22
406.4590, 21252.59
406.9412, 21646.20
407.4233, 21983.10
407.9054, 22276.42
408.3875, 22562.10
408.8696, 22880.72
409.3517, 23101.54
409.8339, 23216.33
410.3160, 23229.90
410.7981, 23134.39
411.2802, 22932.13
411.7623, 22644.66
412.2444, 22292.30
412.7266, 21872.09
413.2087, 21349.19
413.6908, 20702.94
414.1729, 19999.77
414.6550, 19257.51
415.1371, 18489.71
415.6193, 17702.45
416.1014, 16876.39
416.5835, 16066.40
417.0656, 15312.96
417.5477, 14611.65
418.0298, 13947.50
418.5120, 13306.97
418.9941, 12709.98
419.4762, 12188.04
419.9583, 11762.56
420.4404, 11353.24
420.9225, 10944.26
421.4047, 10559.49
421.8868, 10217.19
422.3689, 9914.576
422.8510, 9637.198
423.3331, 9377.535
423.8152, 9134.288
424.2974, 8908.034
424.7795, 8693.088
425.2616, 8508.434
425.7437, 8367.535
426.2258, 8248.333
426.7079, 8132.076
427.1901, 8014.831
427.6722, 7903.346
428.1543, 7800.436
428.6364, 7707.241
429.1185, 7634.957
429.6006, 7589.149
430.0828, 7556.044
430.5649, 7528.988
431.0470, 7507.480
431.5291, 7490.653
432.0112, 7473.758
432.4933, 7466.831
432.9755, 7481.515
433.4576, 7514.311
433.9397, 7550.184
434.4218, 7582.613
434.9039, 7619.831
435.3860, 7674.864
435.8682, 7749.911
436.3503, 7837.884
436.8324, 7950.834
437.3145, 8067.055
437.7966, 8165.886
438.2787, 8252.421
438.7609, 8347.604
439.2430, 8468.142
439.7251, 8607.398
440.2072, 8735.322
440.6893, 8850.284
441.1714, 8956.007
441.6536, 9049.465
442.1357, 9137.715
442.6178, 9230.007
443.0999, 9326.534
443.5820, 9413.961
444.0641, 9476.329
444.5463, 9517.435
445.0284, 9563.043
445.5105, 9622.215
445.9926, 9666.706
446.4747, 9675.095
446.9568, 9656.354
447.4390, 9624.272
447.9211, 9582.184
448.4032, 9525.695
448.8853, 9449.349
449.3674, 9356.881
449.8495, 9254.310
450.3317, 9143.921
450.8138, 9026.569
451.2959, 8902.806
451.7780, 8770.181
452.2601, 8643.821
452.7422, 8526.086
453.2244, 8412.867
453.7065, 8297.467
454.1886, 8185.594
454.6707, 8090.483
455.1528, 8020.685
455.6349, 7964.157
456.1171, 7888.911
456.5992, 7780.522
457.0813, 7694.363
457.5634, 7648.925
458.0455, 7619.836
458.5276, 7599.405
459.0098, 7584.550
459.4919, 7567.113
459.9740, 7536.809
460.4561, 7502.248
460.9382, 7476.144
461.4203, 7457.642
461.9025, 7463.610
462.3846, 7513.271
462.8667, 7586.589
463.3488, 7632.712
463.8309, 7633.698
464.3130, 7652.414
464.7952, 7722.099
465.2773, 7809.945
465.7594, 7881.827
466.2415, 7932.459
466.7236, 7970.404
467.2057, 8001.795
467.6879, 8026.948
468.1700, 8053.969
468.6521, 8089.235
469.1342, 8118.182
469.6163, 8149.258
470.0984, 8167.464
470.5806, 8156.996
471.0627, 8113.824
471.5448, 8046.942
472.0269, 7958.820
472.5090, 7851.344
472.9911, 7753.016
473.4733, 7670.607
473.9554, 7585.542
474.4375, 7481.473
474.9196, 7365.695
475.4017, 7253.183
475.8839, 7148.731
476.3660, 7044.380
476.8481, 6931.021
477.3302, 6814.092
477.8123, 6708.904
478.2944, 6620.394
478.7766, 6536.053
479.2587, 6440.114
479.7408, 6327.396
480.2229, 6229.894
480.7050, 6154.658
481.1871, 6084.720
481.6693, 6013.084
482.1514, 5942.794
482.6335, 5881.003
483.1156, 5831.356
483.5977, 5786.847
484.0798, 5735.191
484.5620, 5674.651
485.0441, 5617.823
485.5262, 5564.299
486.0083, 5517.375
486.4904, 5481.890
486.9725, 5454.955
487.4547, 5426.645
487.9368, 5393.635
488.4189, 5357.417
488.9010, 5316.597
489.3831, 5273.175
489.8652, 5237.450
490.3474, 5214.453
490.8295, 5196.922
491.3116, 5173.329
491.7937, 5141.891
492.2758, 5108.672
492.7579, 5070.411
493.2401, 5033.553
493.7222, 5001.434
494.2043, 4973.583
494.6864, 4947.630
495.1685, 4922.242
495.6506, 4898.216
496.1328, 4878.330
496.6149, 4864.619
497.0970, 4846.684
497.5791, 4815.701
498.0612, 4786.629
498.5433, 4770.506
499.0254, 4765.632
499.5075, 4762.233
499.9897, 4760.806
500.4718, 4755.441
500.9539, 4733.444
501.4360, 4698.074
501.9181, 4672.398
502.4002, 4667.722
502.8824, 4674.462
503.3645, 4676.292
503.8466, 4674.575
504.3287, 4663.521
504.8108, 4629.514
505.2929, 4597.928
505.7751, 4584.229
506.2572, 4586.640
506.7393, 4599.095
507.2214, 4619.786
507.7035, 4641.039
508.1856, 4641.292
508.6678, 4613.923
509.1499, 4589.877
509.6320, 4573.550
510.1141, 4563.119
510.5962, 4559.161
511.0783, 4560.541
511.5605, 4561.706
512.0426, 4560.873
512.5247, 4558.188
513.0068, 4551.087
513.4890, 4541.148
513.9711, 4539.855
514.4532, 4554.849
514.9353, 4572.181
515.4174, 4564.962
515.8995, 4514.254
516.3817, 4486.374
516.8638, 4501.476
517.3459, 4520.372
517.8280, 4518.063
518.3101, 4501.882
518.7922, 4494.077
519.2744, 4507.712
519.7565, 4528.607
520.2386, 4525.440
520.7207, 4493.026
521.2028, 4469.346
521.6849, 4464.981
522.1671, 4466.166
522.6492, 4462.070
523.1313, 4454.040
523.6134, 4447.998
524.0955, 4446.405
524.5776, 4447.048
525.0598, 4449.531
525.5419, 4452.878
526.0240, 4454.129
526.5061, 4452.260
526.9882, 4448.023
527.4703, 4442.035
527.9525, 4432.811
528.4346, 4427.775
528.9167, 4429.324
529.3988, 4432.048
529.8809, 4434.500
530.3630, 4436.616
530.8452, 4438.214
531.3273, 4439.108
531.8094, 4440.843
532.2915, 4449.124
532.7736, 4463.090
533.2557, 4461.375
533.7379, 4432.958
534.2200, 4406.226
534.7021, 4407.649
535.1842, 4428.883
535.6663, 4442.480
536.1484, 4438.834
536.6306, 4434.672
537.1127, 4435.629
537.5948, 4441.697
538.0769, 4456.190
538.5590, 4478.717
539.0411, 4498.512
539.5233, 4503.545
540.0054, 4493.668
540.4875, 4486.745
540.9696, 4480.406
541.4517, 4480.983
541.9338, 4495.419
542.4160, 4513.998
542.8981, 4528.491
543.3802, 4537.008
543.8623, 4537.948
544.3444, 4519.811
544.8265, 4495.238
545.3087, 4497.246
545.7908, 4528.973
546.2729, 4564.721
546.7550, 4592.349
547.2371, 4611.593
547.7192, 4620.678
548.2014, 4614.848
548.6835, 4608.351
549.1656, 4597.874
549.6477, 4590.976
550.1298, 4595.015
550.6119, 4608.589
551.0941, 4624.820
551.5762, 4639.066
552.0583, 4652.702
552.5404, 4670.805
553.0225, 4695.569
553.5046, 4713.954
553.9868, 4718.752
554.4689, 4720.147
554.9510, 4727.013
555.4331, 4738.807
555.9152, 4751.309
556.3973, 4763.725
556.8795, 4775.925
557.3616, 4785.959
557.8437, 4795.705
558.3258, 4810.359
558.8079, 4831.969
559.2900, 4857.642
559.7722, 4884.781
560.2543, 4915.954
560.7364, 4935.525
561.2185, 4929.765
561.7006, 4926.793
562.1827, 4934.952
562.6649, 4950.613
563.1470, 4968.747
563.6291, 4988.118
564.1112, 5008.241
564.5933, 5029.569
565.0754, 5051.368
565.5576, 5070.706
566.0397, 5087.050
566.5218, 5103.099
567.0039, 5121.266
567.4860, 5140.464
567.9681, 5155.623
568.4503, 5152.501
568.9324, 5166.209
569.4145, 5220.508
569.8966, 5279.375
570.3787, 5308.373
570.8608, 5310.855
571.3430, 5315.506
571.8251, 5343.493
572.3072, 5385.743
572.7893, 5417.160
573.2714, 5435.682
573.7535, 5454.561
574.2357, 5472.808
574.7178, 5497.182
575.1999, 5537.519
575.6820, 5591.643
576.1641, 5641.633
576.6462, 5673.669
577.1284, 5709.291
577.6105, 5770.847
578.0926, 5844.952
578.5747, 5901.698
579.0568, 5932.225
579.5389, 5955.727
580.0211, 5996.573
580.5032, 6055.834
580.9852, 6118.717
581.4673, 6188.411
581.9495, 6257.600
582.4316, 6320.821
582.9137, 6383.679
583.3958, 6452.029
583.8779, 6526.674
584.3600, 6609.834
584.8422, 6707.097
585.3243, 6812.000
585.8064, 6917.991
586.2885, 7023.536
586.7706, 7117.355
587.2527, 7189.238
587.7349, 7252.797
588.2170, 7341.967
588.6991, 7458.804
589.1812, 7599.297
589.6633, 7775.684
590.1454, 7960.983
590.6276, 8138.001
591.1097, 8312.681
591.5918, 8498.964
592.0739, 8699.521
592.5560, 8923.283
593.0381, 9188.939
593.5203, 9489.246
594.0024, 9788.006
594.4845, 10076.71
594.9666, 10382.32
595.4487, 10726.23
595.9308, 11107.07
596.4130, 11526.20
596.8951, 11964.98
597.3772, 12461.13
597.8593, 13026.28
598.3414, 13645.99
598.8235, 14305.86
599.3057, 15008.69
599.7878, 15768.63
600.2699, 16596.31
600.7520, 17489.80
601.2341, 18445.84
601.7162, 19463.28
602.1984, 20536.15
602.6805, 21653.72
603.1626, 22833.38
603.6447, 24106.58
604.1268, 25470.13
604.6089, 26869.68
605.0911, 28349.19
605.5732, 29813.48
606.0553, 31235.91
606.5374, 32600.23
607.0195, 33889.78
607.5016, 35098.87
607.9838, 36213.17
608.4659, 37255.33
608.9480, 38204.88
609.4301, 38896.59
609.9122, 39354.98
610.3943, 39488.39
610.8765, 39228.00
611.3586, 38626.61
611.8407, 37749.45
612.3228, 36580.87
612.8049, 35291.30
613.2870, 33896.39
613.7692, 32428.24
614.2513, 30865.77
614.7334, 29249.22
615.2155, 27681.49
615.6976, 26198.35
616.1797, 24803.11
616.6619, 23503.97
617.1440, 22296.74
617.6261, 21213.10
618.1082, 20265.20
618.5903, 19436.02
619.0724, 18756.32
619.5546, 18175.63
620.0367, 17631.49
620.5188, 17109.78
621.0009, 16667.06
621.4830, 16355.06
621.9651, 16116.74
622.4473, 15888.75
622.9294, 15677.19
623.4115, 15530.83
623.8936, 15476.80
624.3757, 15484.23
624.8578, 15492.65
625.3400, 15496.67
625.8221, 15521.88
626.3042, 15566.50
626.7863, 15637.05
627.2684, 15725.91
627.7505, 15843.23
628.2327, 16011.59
628.7148, 16245.99
629.1969, 16493.71
629.6790, 16720.10
630.1611, 16944.12
630.6432, 17187.76
631.1254, 17454.13
631.6075, 17745.99
632.0896, 18068.79
632.5717, 18407.81
633.0538, 18720.26
633.5359, 18992.69
634.0181, 19276.35
634.5002, 19584.79
634.9823, 19893.07
635.4644, 20194.68
635.9465, 20485.07
636.4286, 20754.87
636.9108, 20997.94
637.3929, 21229.24
637.8750, 21479.29
638.3571, 21715.32
638.8392, 21881.12
639.3214, 21973.94
639.8035, 22024.29
640.2856, 22050.65
640.7677, 22053.77
641.2498, 22038.80
641.7319, 22016.97
642.2141, 21948.66
642.6962, 21818.04
643.1783, 21650.69
643.6604, 21442.49
644.1425, 21209.56
644.6246, 20989.80
645.1068, 20805.19
645.5889, 20608.34
646.0710, 20362.92
646.5531, 20086.86
647.0352, 19800.13
647.5173, 19509.79
647.9995, 19228.22
648.4816, 18963.27
648.9637, 18718.55
649.4458, 18504.37
649.9279, 18329.86
650.4100, 18160.25
650.8922, 17988.92
651.3743, 17825.57
651.8564, 17672.57
652.3385, 17531.06
652.8206, 17403.49
653.3027, 17297.22
653.7849, 17190.35
654.2670, 17066.48
654.7491, 16935.18
655.2312, 16809.52
655.7133, 16690.70
656.1954, 16573.82
656.6776, 16456.98
657.1597, 16335.34
657.6418, 16194.66
658.1239, 16030.95
658.6060, 15860.04
659.0881, 15676.86
659.5703, 15494.82
660.0524, 15336.20
660.5345, 15181.93
661.0166, 14988.10
661.4987, 14728.98
661.9808, 14465.60
662.4630, 14221.71
662.9451, 13990.29
663.4272, 13763.56
663.9093, 13539.60
664.3914, 13314.60
664.8735, 13086.92
665.3557, 12857.02
665.8378, 12628.76
666.3199, 12400.93
666.8020, 12183.34
667.2841, 11977.81
667.7662, 11781.28
668.2484, 11599.77
668.7305, 11425.33
669.2126, 11241.10
669.6947, 11045.02
670.1768, 10843.15
670.6589, 10618.62
671.1411, 10404.56
671.6232, 10236.29
672.1053, 10104.58
672.5874, 9979.278
673.0695, 9845.650
673.5516, 9701.391
674.0338, 9533.104
674.5159, 9341.632
674.9980, 9185.513
675.4801, 9078.695
675.9622, 8974.607
676.4443, 8846.173
676.9265, 8702.732
677.4086, 8568.187
677.8907, 8446.196
678.3728, 8321.207
678.8549, 8185.090
679.3370, 8051.211
679.8192, 7925.463
680.3013, 7808.452
680.7834, 7701.725
681.2655, 7605.388
681.7476, 7518.301
682.2297, 7445.676
682.7119, 7381.905
683.1940, 7304.284
683.6761, 7211.299
684.1582, 7115.796
684.6403, 7020.106
685.1224, 6931.348
685.6046, 6862.655
686.0867, 6823.245
686.5688, 6775.642
687.0509, 6716.594
687.5330, 6654.144
688.0151, 6582.369
688.4973, 6512.614
688.9794, 6460.016
689.4615, 6427.439
689.9436, 6401.254
690.4257, 6371.832
690.9078, 6342.780
691.3900, 6322.116
691.8721, 6307.712
692.3542, 6288.620
692.8363, 6260.878
693.3184, 6227.609
693.8005, 6191.901
694.2827, 6153.153
694.7648, 6123.021
695.2469, 6107.815
695.7290, 6090.832
696.2111, 6057.908
696.6932, 6028.904
697.1754, 6027.788
697.6575, 6051.761
698.1396, 6064.480
698.6217, 6041.779
699.1038, 6013.993
699.5859, 6000.303
700.0681, 5997.887
700.5502, 6002.694
701.0323, 6013.269
701.5144, 6028.360
701.9965, 6048.225
702.4786, 6070.105
702.9608, 6081.581
703.4429, 6079.534
703.9250, 6085.283
704.4071, 6106.600
704.8892, 6130.877
705.3713, 6144.350
705.8535, 6151.260
706.3356, 6171.895
706.8177, 6219.189
707.2998, 6263.651
707.7819, 6297.297
708.2640, 6326.313
708.7462, 6350.630
709.2283, 6375.027
709.7104, 6412.018
710.1925, 6470.123
710.6746, 6533.100
711.1567, 6576.355
711.6389, 6605.057
712.1210, 6644.300
712.6031, 6697.463
713.0852, 6746.470
713.5673, 6778.623
714.0494, 6802.915
714.5316, 6840.982
715.0137, 6898.101
715.4958, 6956.276
715.9779, 7022.441
716.4600, 7081.546
716.9421, 7117.743
717.4243, 7147.523
717.9064, 7198.830
718.3885, 7278.438
718.8706, 7349.198
719.3527, 7377.120
719.8348, 7394.443
720.3170, 7441.133
720.7991, 7508.756
721.2812, 7568.324
721.7633, 7609.905
722.2454, 7643.580
722.7275, 7682.941
723.2097, 7726.165
723.6918, 7748.981
724.1739, 7745.622
724.6560, 7740.713
725.1381, 7739.048
725.6202, 7740.866
726.1024, 7745.592
726.5845, 7753.475
727.0666, 7768.751
727.5487, 7798.250
728.0308, 7827.319
728.5129, 7857.534
728.9951, 7880.789
729.4772, 7884.081
729.9593, 7871.653
730.4414, 7862.501
730.9235, 7868.726
731.4056, 7880.968
731.8878, 7887.785
732.3699, 7889.267
732.8520, 7880.588
733.3341, 7860.402
733.8162, 7855.549
734.2983, 7885.492
734.7805, 7938.893
735.2626, 7985.333
735.7447, 8024.049
736.2268, 8057.470
736.7089, 8084.048
737.1910, 8106.898
737.6732, 8116.834
738.1553, 8128.407
738.6374, 8167.511
739.1195, 8242.365
739.6016, 8308.146
740.0837, 8340.548
740.5659, 8360.687
741.0480, 8381.987
741.5301, 8405.867
742.0122, 8432.950
742.4943, 8463.325
742.9764, 8495.856
743.4586, 8528.470
743.9407, 8562.709
744.4228, 8604.983
744.9049, 8655.136
745.3870, 8714.996
745.8691, 8790.828
746.3513, 8862.541
746.8334, 8909.585
747.3155, 8933.257
747.7976, 8952.736
748.2797, 8962.941
748.7618, 8976.316
749.2440, 8993.816
749.7261, 9015.065
750.2082, 9038.455
750.6903, 9065.578
751.1724, 9101.854
751.6545, 9152.958
752.1367, 9201.541
752.6188, 9238.091
753.1009, 9262.732
753.5830, 9269.742
754.0651, 9263.925
754.5472, 9264.931
755.0294, 9282.314
755.5115, 9305.478
755.9936, 9316.252
756.4757, 9314.573
756.9578, 9320.508
757.4399, 9333.105
757.9221, 9358.651
758.4042, 9408.238
758.8863, 9462.085
759.3684, 9493.083
759.8505, 9498.223
760.3326, 9505.517
760.8148, 9516.965
761.2969, 9528.049
761.7790, 9532.298
762.2611, 9539.208
762.7432, 9556.833
763.2253, 9585.725
763.7075, 9623.448
764.1896, 9671.356
764.6717, 9722.744
765.1538, 9773.105
765.6359, 9821.534
766.1180, 9862.005
766.6002, 9896.541
767.0823, 9941.188
767.5644, 10005.42
768.0465, 10083.95
768.5286, 10168.73
769.0107, 10260.91
769.4929, 10339.69
769.9750, 10394.34
770.4571, 10463.99
770.9392, 10575.91
771.4213, 10705.73
771.9034, 10814.34
772.3856, 10899.48
772.8677, 10979.87
773.3498, 11035.81
773.8319, 11111.43
774.3140, 11251.87
774.7961, 11399.94
775.2783, 11491.58
775.7604, 11526.05
776.2425, 11554.31
776.7246, 11603.00
777.2067, 11657.42
777.6888, 11712.10
778.1710, 11759.81
778.6531, 11788.39
779.1352, 11795.24
779.6173, 11776.11
780.0994, 11726.83
780.5815, 11658.40
781.0637, 11598.69
781.5458, 11549.86
782.0279, 11463.44
782.5100, 11329.67
782.9921, 11184.17
783.4742, 11051.37
783.9564, 10909.81
784.4385, 10715.45
784.9206, 10447.72
785.4027, 10217.97
785.8848, 10065.14
786.3669, 9902.121
786.8491, 9700.606
787.3312, 9479.308
787.8133, 9248.548
788.2954, 9014.965
788.7775, 8793.283
789.2596, 8597.070
789.7418, 8406.371
790.2239, 8200.522
790.7060, 7991.278
791.1881, 7792.065
791.6702, 7605.999
792.1523, 7432.893
792.6345, 7273.411
793.1166, 7120.433
793.5987, 6956.019
794.0808, 6784.084
794.5629, 6643.576
795.0450, 6540.377
795.5272, 6429.404
796.0093, 6284.854
796.4914, 6135.380
796.9735, 6028.543
797.4556, 5972.530
797.9377, 5886.913
798.4199, 5741.681
798.9020, 5609.767
799.3841, 5514.075
799.8662, 5430.335
800.3483, 5338.251
800.8304, 5240.864
801.3126, 5155.299
801.7947, 5091.213
802.2768, 5031.944
802.7589, 4973.050
803.2410, 4913.531
803.7231, 4849.920
804.2053, 4785.177
804.6874, 4726.213
805.1695, 4676.525
805.6516, 4630.404
806.1337, 4581.917
806.6158, 4532.367
807.0980, 4486.676
807.5801, 4443.535
808.0622, 4392.712
808.5443, 4330.041
809.0264, 4269.107
809.5085, 4225.931
809.9907, 4198.250
810.4728, 4167.351
810.9549, 4132.522
811.4370, 4097.145
811.9191, 4063.784
812.4012, 4026.405
812.8834, 3977.065
813.3655, 3920.169
813.8476, 3872.986
814.3297, 3836.954
814.8118, 3807.481
815.2939, 3792.768
815.7761, 3775.446
816.2582, 3741.462
816.7403, 3701.610
817.2224, 3674.309
817.7045, 3662.775
818.1866, 3646.066
818.6688, 3608.678
819.1509, 3565.340
819.6330, 3524.150
820.1151, 3487.876
820.5972, 3462.609
821.0793, 3447.870
821.5615, 3436.374
822.0436, 3423.472
822.5257, 3409.370
823.0078, 3396.550
823.4899, 3383.522
823.9720, 3357.229
824.4542, 3315.750
824.9363, 3282.351
825.4184, 3270.691
825.9005, 3268.489
826.3826, 3253.570
826.8647, 3223.361
827.3469, 3205.901
827.8290, 3210.306
828.3111, 3208.663
828.7932, 3188.713
829.2753, 3163.914
829.7574, 3147.711
830.2396, 3138.633
830.7217, 3126.178
831.2038, 3107.881
831.6859, 3088.632
832.1680, 3064.622
832.6501, 3044.170
833.1323, 3035.060
833.6144, 3033.319
834.0965, 3030.774
834.5786, 3025.102
835.0607, 3018.067
835.5428, 3009.891
836.0250, 3001.693
836.5071, 2995.509
836.9892, 2990.052
837.4713, 2983.551
837.9534, 2975.028
838.4355, 2961.324
838.9177, 2938.041
839.3998, 2911.534
839.8819, 2895.802
840.3640, 2889.308
840.8461, 2880.384
841.3282, 2867.347
841.8104, 2862.343
842.2925, 2874.481
842.7746, 2892.511
843.2567, 2893.137
843.7388, 2873.186
844.2209, 2861.276
844.7031, 2862.294
845.1852, 2859.507
845.6673, 2845.700
846.1494, 2827.915
846.6315, 2813.205
847.1136, 2801.442
847.5958, 2788.529
848.0779, 2766.973
848.5600, 2754.956
849.0421, 2764.607
849.5242, 2774.882
850.0063, 2771.171
850.4885, 2758.582
850.9706, 2749.245
851.4527, 2746.777
851.9348, 2740.308
852.4169, 2717.854
852.8990, 2696.153
853.3812, 2690.391
853.8633, 2693.470
854.3454, 2692.929
854.8275, 2687.163
855.3096, 2684.693
855.7917, 2694.935
856.2739, 2703.225
856.7560, 2678.638
857.2381, 2638.172
857.7202, 2632.313
858.2023, 2660.873
858.6844, 2682.111
859.1666, 2675.361
859.6487, 2654.063
860.1308, 2636.176
860.6129, 2621.678
861.0950, 2610.667
861.5771, 2603.036
862.0593, 2600.109
862.5414, 2603.803
863.0235, 2607.317
863.5056, 2604.646
863.9877, 2596.508
864.4698, 2585.775
864.9520, 2565.916
865.4341, 2559.315
865.9162, 2582.194
866.3983, 2598.144
866.8804, 2581.362
867.3625, 2551.440
867.8447, 2535.129
868.3268, 2534.036
868.8089, 2537.018
869.2910, 2550.878
869.7731, 2558.332
870.2552, 2546.179
870.7374, 2531.200
871.2195, 2531.870
871.7016, 2543.466
872.1837, 2545.436
872.6658, 2527.212
873.1479, 2510.041
873.6301, 2505.555
874.1122, 2508.310
874.5943, 2519.045
875.0764, 2530.920
875.5585, 2529.546
876.0406, 2512.546
876.5228, 2494.544
877.0049, 2487.760
877.4870, 2485.886
877.9691, 2477.806
878.4512, 2467.145
878.9333, 2466.729
879.4155, 2476.320
879.8976, 2479.471
880.3797, 2466.350
880.8618, 2449.217
881.3439, 2450.396
881.8260, 2467.324
882.3082, 2475.870
882.7903, 2475.791
883.2724, 2467.945
883.7545, 2451.636
884.2366, 2431.932
884.7188, 2411.906
885.2009, 2393.910
885.6830, 2392.602
886.1651, 2416.431
886.6472, 2427.515
887.1293, 2417.907
887.6115, 2405.006
888.0936, 2395.228
888.5757, 2388.909
889.0578, 2387.017
889.5399, 2390.148
890.0220, 2393.742
890.5042, 2401.056
890.9863, 2404.376
891.4684, 2398.087
891.9505, 2391.079
892.4326, 2389.673
892.9147, 2392.924
893.3969, 2397.741
893.8790, 2404.977
894.3611, 2409.725
894.8432, 2412.857
895.3253, 2410.634
895.8074, 2392.066
896.2896, 2371.510
896.7717, 2373.089
897.2538, 2396.111
897.7359, 2410.767
898.2180, 2398.132
898.7001, 2378.636
899.1823, 2364.603
899.6644, 2354.474
900.1465, 2344.940
900.6286, 2337.605
901.1107, 2340.473
901.5928, 2355.949
902.0750, 2367.252
902.5571, 2349.658
903.0392, 2323.156
903.5213, 2326.396
904.0034, 2348.598
904.4855, 2357.748
904.9677, 2348.939
905.4498, 2335.340
905.9319, 2324.695
906.4140, 2319.031
906.8961, 2327.401
907.3782, 2345.096
907.8604, 2340.788
908.3425, 2314.052
908.8246, 2292.865
909.3067, 2286.745
909.7888, 2288.471
910.2709, 2291.119
910.7530, 2295.020
911.2351, 2303.675
911.7172, 2319.075
912.1993, 2322.573
912.6815, 2309.296
913.1636, 2294.726
913.6457, 2286.581
914.1278, 2281.834
914.6099, 2275.142
915.0920, 2265.989
915.5742, 2263.097
916.0563, 2271.041
916.5384, 2275.667
917.0205, 2274.746
917.5026, 2269.181
917.9847, 2254.792
918.4669, 2237.064
918.9490, 2233.542
919.4311, 2253.484
919.9132, 2262.754
920.3953, 2252.893
920.8774, 2242.288
921.3596, 2234.130
921.8417, 2229.636
922.3238, 2232.077
922.8059, 2239.782
923.2880, 2243.952
923.7701, 2240.239
924.2523, 2237.867
924.7344, 2242.920
925.2165, 2246.054
925.6986, 2237.520
926.1807, 2225.239
926.6628, 2222.767
927.1450, 2231.296
927.6271, 2236.453
928.1092, 2227.494
928.5913, 2219.056
929.0734, 2219.692
929.5555, 2224.268
930.0377, 2229.387
930.5198, 2233.435
931.0019, 2233.629
931.4840, 2229.030
931.9661, 2224.898
932.4482, 2225.426
932.9304, 2227.745
933.4125, 2230.367
933.8946, 2232.142
934.3767, 2231.470
934.8588, 2228.124
935.3409, 2221.591
935.8231, 2211.051
936.3052, 2202.076
936.7873, 2203.208
937.2694, 2208.617
937.7515, 2208.730
938.2336, 2204.117
938.7158, 2196.536
939.1979, 2187.032
939.6800, 2179.227
940.1621, 2175.856
940.6442, 2175.340
941.1263, 2174.118
941.6085, 2173.582
942.0906, 2182.076
942.5727, 2197.667
943.0548, 2202.325
943.5369, 2189.755
944.0190, 2173.801
944.5012, 2168.288
944.9833, 2170.432
945.4654, 2174.286
945.9475, 2179.109
946.4296, 2175.111
946.9117, 2161.108
947.3939, 2144.286
947.8760, 2127.347
948.3581, 2114.878
948.8402, 2113.990
949.3223, 2123.306
949.8044, 2132.334
950.2866, 2141.425
950.7687, 2145.304
951.2508, 2142.313
951.7329, 2138.051
952.2150, 2136.009
952.6971, 2134.862
953.1793, 2132.877
953.6614, 2130.420
954.1435, 2118.577
954.6256, 2092.567
955.1077, 2075.813
955.5898, 2074.672
956.0720, 2082.671
956.5541, 2098.534
957.0362, 2116.658
957.5183, 2120.207
958.0004, 2103.750
958.4825, 2095.674
958.9647, 2101.962
959.4468, 2102.939
959.9289, 2088.474
960.4110, 2072.829
960.8931, 2069.976
961.3752, 2077.147
961.8574, 2081.227
962.3395, 2082.439
962.8216, 2079.748
963.3037, 2068.607
963.7858, 2060.326
964.2679, 2060.218
964.7501, 2063.700
965.2322, 2066.410
965.7143, 2068.378
966.1964, 2070.198
966.6785, 2075.203
967.1606, 2074.822
967.6428, 2064.293
968.1249, 2053.744
968.6070, 2046.919
969.0891, 2042.731
969.5712, 2039.095
970.0533, 2036.073
970.5355, 2038.009
971.0176, 2050.506
971.4997, 2060.171
971.9818, 2065.092
972.4639, 2066.890
972.9460, 2065.238
973.4282, 2061.609
973.9103, 2056.857
974.3924, 2050.917
974.8745, 2050.186
975.3566, 2061.988
975.8387, 2070.267
976.3209, 2070.190
976.8030, 2066.311
977.2851, 2063.459
977.7672, 2058.360
978.2493, 2040.284
978.7314, 2005.696
979.2136, 1989.229
979.6957, 2018.448
980.1778, 2040.886
980.6599, 2029.106
981.1420, 2011.957
981.6241, 2015.034
982.1063, 2030.271
982.5884, 2037.649
983.0705, 2033.374
983.5526, 2022.843
984.0347, 1996.918
984.5168, 1978.595
984.9990, 1980.391
985.4811, 1992.161
985.9632, 2009.999
986.4453, 2028.755
986.9274, 2038.433
987.4095, 2035.520
987.8917, 2030.786
988.3738, 2029.927
988.8559, 2026.025
989.3380, 2012.903
989.8201, 1996.998
990.3022, 1983.512
990.7844, 1973.248
991.2665, 1965.086
991.7486, 1957.247
992.2307, 1959.179
992.7128, 1990.585
993.1949, 2014.644
993.6771, 1999.467
994.1592, 1973.189
994.6413, 1968.547
995.1234, 1982.319
995.6055, 1991.911
996.0876, 1990.441
996.5698, 1985.228
997.0519, 1974.335
997.5340, 1966.485
998.0161, 1968.175
998.4982, 1975.292
998.9803, 1985.598
999.4625, 1996.617
999.9446, 2002.743
1000.427, 2001.854
1000.909, 1997.220
1001.391, 1986.177
1001.873, 1976.435
1002.355, 1971.707
1002.837, 1972.161
1003.319, 1983.563
1003.802, 2000.447
1004.284, 2001.671
1004.766, 1973.918
1005.248, 1952.603
1005.730, 1963.551
1006.212, 1976.055
1006.694, 1963.699
1007.176, 1944.938
1007.658, 1946.713
1008.141, 1965.597
1008.623, 1976.012
1009.105, 1967.390
1009.587, 1956.786
1010.069, 1948.676
1010.551, 1944.550
1011.033, 1949.109
1011.515, 1955.727
1011.997, 1955.157
1012.480, 1948.786
1012.962, 1946.054
1013.444, 1950.947
1013.926, 1956.354
1014.408, 1961.515
1014.890, 1963.795
1015.372, 1959.109
1015.854, 1952.320
1016.337, 1950.233
1016.819, 1951.643
1017.301, 1948.757
1017.783, 1936.786
1018.265, 1928.760
1018.747, 1934.028
1019.229, 1939.336
1019.711, 1935.918
1020.193, 1929.491
1020.676, 1924.109
1021.158, 1921.843
1021.640, 1928.967
1022.122, 1953.159
1022.604, 1966.112
1023.086, 1944.341
1023.568, 1926.633
1024.050, 1939.899
1024.533, 1960.682
1025.015, 1963.002
1025.497, 1950.840
1025.979, 1945.857
1026.461, 1956.776
1026.943, 1959.004
1027.425, 1932.309
1027.907, 1913.630
1028.390, 1928.014
1028.872, 1949.478
1029.354, 1954.607
1029.836, 1946.000
1030.318, 1936.373
1030.800, 1927.518
1031.282, 1917.428
1031.764, 1896.903
1032.246, 1886.671
1032.729, 1905.089
1033.211, 1926.473
1033.693, 1930.192
1034.175, 1920.064
1034.657, 1907.259
1035.139, 1890.423
1035.621, 1879.462
1036.103, 1878.915
1036.585, 1879.086
1037.068, 1873.039
1037.550, 1871.408
1038.032, 1886.862
1038.514, 1911.069
1038.996, 1924.653
1039.478, 1925.704
1039.960, 1924.854
1040.442, 1923.315
1040.925, 1917.724
1041.407, 1902.921
1041.889, 1889.636
1042.371, 1885.083
1042.853, 1886.095
1043.335, 1887.292
1043.817, 1888.881
1044.299, 1888.361
1044.781, 1882.788
1045.264, 1881.916
1045.746, 1889.455
1046.228, 1897.889
1046.710, 1904.787
1047.192, 1908.008
1047.674, 1903.213
1048.156, 1890.603
1048.638, 1880.950
1049.120, 1873.647
1049.603, 1872.162
1050.085, 1878.651
1050.567, 1886.250
1051.049, 1893.139
1051.531, 1895.756
1052.013, 1887.165
1052.495, 1870.712
1052.977, 1872.970
1053.460, 1897.825
1053.942, 1908.339
1054.424, 1899.264
1054.906, 1891.534
1055.388, 1894.387
1055.870, 1895.271
1056.352, 1877.224
1056.834, 1852.341
1057.317, 1872.282
1057.799, 1933.721
1058.281, 1944.006
1058.763, 1898.232
1059.245, 1862.479
1059.727, 1858.086
1060.209, 1865.231
1060.691, 1867.986
1061.173, 1868.903
1061.656, 1875.159
1062.138, 1884.319
1062.620, 1883.349
1063.102, 1873.855
1063.584, 1869.192
1064.066, 1871.806
1064.548, 1870.269
1065.030, 1856.297
1065.512, 1840.733
1065.995, 1842.153
1066.477, 1851.549
1066.959, 1846.142
1067.441, 1832.523
1067.923, 1832.013
1068.405, 1845.295
1068.887, 1856.372
1069.369, 1857.432
1069.852, 1855.627
1070.334, 1856.295
1070.816, 1859.435
1071.298, 1872.124
1071.780, 1883.241
1072.262, 1867.147
1072.744, 1833.261
1073.226, 1816.988
1073.708, 1829.467
1074.191, 1845.297
1074.673, 1848.873
1075.155, 1848.145
1075.637, 1847.010
1076.119, 1846.198
1076.601, 1845.713
1077.083, 1846.414
1077.565, 1851.887
1078.047, 1861.669
1078.530, 1864.923
1079.012, 1854.494
1079.494, 1841.506
1079.976, 1824.673
1080.458, 1812.837
1080.940, 1811.365
1081.422, 1818.553
1081.904, 1839.947
1082.386, 1870.019
1082.869, 1876.491
1083.351, 1837.944
1083.833, 1810.640
1084.315, 1803.818
1084.797, 1807.097
1085.279, 1829.059
1085.761, 1848.898
1086.243, 1844.107
1086.726, 1823.424
1087.208, 1813.454
1087.690, 1817.472
1088.172, 1819.057
1088.654, 1818.558
1089.136, 1813.855
1089.618, 1798.752
1090.100, 1791.224
1090.583, 1806.101
1091.065, 1830.695
1091.547, 1842.600
1092.029, 1842.072
1092.511, 1837.376
1092.993, 1827.335
1093.475, 1821.529
1093.957, 1821.458
1094.439, 1824.780
1094.922, 1831.494
1095.404, 1834.162
1095.886, 1822.806
1096.368, 1803.085
1096.850, 1792.042
1097.332, 1789.331
1097.814, 1793.902
1098.296, 1804.756
1098.778, 1816.105
1099.261, 1825.739
1099.743, 1828.556
1100.225, 1819.810
1100.707, 1807.055
1101.189, 1799.026
1101.671, 1796.505
1102.153, 1804.993
1102.635, 1819.211
1103.118, 1824.198
1103.600, 1820.448
1104.082, 1823.699
1104.564, 1841.732
1105.046, 1856.060
1105.528, 1846.419
1106.010, 1831.681
1106.492, 1830.478
1106.974, 1833.347
1107.457, 1825.135
1107.939, 1811.972
1108.421, 1812.082
1108.903, 1828.838
1109.385, 1842.370
1109.867, 1843.865
1110.349, 1841.657
1110.831, 1838.023
1111.313, 1832.498
1111.796, 1822.254
1112.278, 1811.611
1112.760, 1806.438
1113.242, 1806.402
1113.724, 1806.076
1114.206, 1800.554
1114.688, 1804.609
1115.170, 1833.484
1115.653, 1848.093
1116.135, 1827.923
1116.617, 1804.969
1117.099, 1805.128
1117.581, 1817.190
1118.063, 1814.133
1118.545, 1794.258
1119.027, 1789.906
1119.510, 1804.592
1119.992, 1815.239
1120.474, 1817.508
1120.956, 1821.898
1121.438, 1834.535
1121.920, 1845.395
1122.402, 1841.840
1122.884, 1827.330
1123.366, 1809.549
1123.849, 1790.397
1124.331, 1780.626
1124.813, 1780.358
1125.295, 1787.817
1125.777, 1801.025
1126.259, 1809.028
1126.741, 1803.589
1127.223, 1792.884
1127.705, 1784.487
1128.188, 1778.985
1128.670, 1780.242
1129.152, 1783.578
1129.634, 1779.939
1130.116, 1770.226
1130.598, 1760.221
1131.080, 1751.857
1131.562, 1748.783
1132.045, 1757.838
1132.527, 1766.541
1133.009, 1767.626
1133.491, 1765.943
1133.973, 1762.447
1134.455, 1760.573
1134.937, 1767.953
1135.419, 1783.458
1135.901, 1790.251
1136.384, 1781.558
1136.866, 1771.844
1137.348, 1754.653
1137.830, 1747.677
1138.312, 1766.079
1138.794, 1782.972
1139.276, 1774.151
1139.758, 1751.155
1140.240, 1740.641
1140.723, 1743.109
1141.205, 1752.890
1141.687, 1772.730
1142.169, 1779.027
1142.651, 1766.663
1143.133, 1755.272
1143.615, 1753.971
1144.097, 1759.345
1144.580, 1769.435
1145.062, 1779.742
1145.544, 1776.536
1146.026, 1764.237
1146.508, 1757.621
1146.990, 1756.338
1147.472, 1753.883
1147.954, 1749.936
1148.437, 1754.130
1148.919, 1773.433
1149.401, 1787.794
1149.883, 1772.143
1150.365, 1749.692
1150.847, 1741.953
1151.329, 1742.010
1151.811, 1740.761
1152.293, 1739.338
1152.776, 1743.237
1153.258, 1753.414
1153.740, 1763.862
1154.222, 1778.278
1154.704, 1784.330
1155.186, 1772.134
1155.668, 1759.096
1156.150, 1753.138
1156.632, 1750.766
1157.115, 1746.338
1157.597, 1742.856
1158.079, 1752.195
1158.561, 1779.493
1159.043, 1791.029
1159.525, 1783.253
1160.007, 1772.482
1160.489, 1760.186
1160.972, 1752.656
1161.454, 1753.440
1161.936, 1759.140
1162.418, 1766.544
1162.900, 1773.829
1163.382, 1774.805
1163.864, 1770.797
1164.346, 1764.949
1164.828, 1759.234
1165.311, 1763.351
1165.793, 1776.934
1166.275, 1782.237
1166.757, 1768.005
1167.239, 1751.393
1167.721, 1750.072
1168.203, 1751.732
1168.685, 1739.818
1169.167, 1727.519
1169.650, 1735.722
1170.132, 1754.959
1170.614, 1760.706
1171.096, 1749.469
1171.578, 1742.648
1172.060, 1752.912
1172.542, 1757.055
1173.024, 1742.466
1173.507, 1732.374
1173.989, 1738.595
1174.471, 1749.551
1174.953, 1757.370
1175.435, 1761.737
1175.917, 1761.062
1176.399, 1754.817
1176.881, 1754.428
1177.364, 1761.109
1177.846, 1761.253
1178.328, 1752.420
1178.810, 1749.663
1179.292, 1759.647
1179.774, 1768.450
1180.256, 1761.594
1180.738, 1748.122
1181.220, 1741.765
1181.703, 1742.440
1182.185, 1756.642
1182.667, 1775.370
1183.149, 1773.621
1183.631, 1754.578
1184.113, 1745.678
1184.595, 1757.546
1185.077, 1770.066
1185.559, 1769.607
1186.042, 1769.313
1186.524, 1781.843
1187.006, 1790.793
1187.488, 1779.282
1187.970, 1759.932
1188.452, 1747.734
1188.934, 1743.958
1189.416, 1750.387
1189.899, 1772.636
1190.381, 1786.657
1190.863, 1790.988
1191.345, 1790.296
1191.827, 1783.766
1192.309, 1778.588
1192.791, 1778.854
1193.273, 1781.971
1193.755, 1784.522
1194.238, 1787.453
1194.720, 1793.651
1195.202, 1802.801
1195.684, 1815.870
1196.166, 1830.641
1196.648, 1836.208
1197.130, 1832.881
1197.612, 1836.081
1198.094, 1853.969
1198.577, 1872.954
1199.059, 1882.244
1199.541, 1888.600
1200.023, 1896.175
1200.505, 1904.164
1200.987, 1910.916
1201.469, 1917.853
1201.951, 1927.271
1202.434, 1939.256
1202.916, 1952.864
1203.398, 1968.858
1203.880, 1985.312
1204.362, 2010.193
1204.844, 2016.743
1205.326, 1990.412
1205.808, 1967.574
1206.291, 1970.185
1206.773, 1986.558
1207.255, 2002.934
1207.737, 2016.742
1208.219, 2016.726
1208.701, 2005.245
1209.183, 1933.789
1209.665, 1955.838
1210.147, 1963.320
1210.630, 1956.989
1211.112, 1895.598
1211.594, 1905.337
1212.076, 1886.569
1212.558, 1866.635
1213.040, 1886.382
1213.522, 1833.006
1214.004, 1896.911
1214.486, 1874.521
1214.969, 1835.946
1215.451, 1819.452
1215.933, 1824.066
1216.415, 1817.311
1216.897, 1788.833
1217.379, 1771.287
1217.861, 1769.987
1218.343, 1766.304
1218.826, 1755.415
1219.308, 1746.155
1219.790, 1743.718
1220.272, 1743.107
1220.754, 1738.640
1221.236, 1730.823
1221.718, 1718.110
1222.200, 1703.981
1222.682, 1701.980
1223.165, 1709.325
1223.647, 1717.534
1224.129, 1723.767
1224.611, 1726.079
1225.093, 1723.699
1225.575, 1714.557
1226.057, 1683.606
1226.539, 1664.362
1227.021, 1690.267
1227.504, 1716.852
1227.986, 1709.548
1228.468, 1689.034
1228.950, 1679.408
1229.432, 1679.281
1229.914, 1681.714
1230.396, 1687.885
1230.878, 1686.607
1231.361, 1675.660
1231.843, 1668.634
1232.325, 1667.577
1232.807, 1667.511
1233.289, 1666.675
1233.771, 1660.514
1234.253, 1643.491
1234.735, 1626.920
1235.218, 1632.612
1235.700, 1647.413
1236.182, 1650.828
1236.664, 1645.303
1237.146, 1628.898
1237.628, 1610.320
1238.110, 1613.125
1238.592, 1639.345
1239.074, 1653.000
1239.557, 1632.049
1240.039, 1618.391
1240.521, 1624.849
1241.003, 1635.231
1241.485, 1648.622
1241.967, 1658.048
1242.449, 1657.883
1242.931, 1653.202
1243.413, 1652.504
1243.896, 1653.495
1244.378, 1640.766
1244.860, 1616.946
1245.342, 1610.182
1245.824, 1619.731
1246.306, 1634.905
1246.788, 1651.097
1247.270, 1658.584
1247.753, 1652.729
1248.235, 1642.185
1248.717, 1627.349
1249.199, 1618.996
1249.681, 1630.593
1250.163, 1645.574
1250.645, 1655.819
1251.127, 1657.895
1251.609, 1642.143
1252.092, 1616.034
1252.574, 1606.471
1253.056, 1615.500
1253.538, 1625.818
1254.020, 1639.157
1254.502, 1645.461
1254.984, 1642.833
1255.466, 1640.697
1255.948, 1642.331
1256.431, 1646.079
1256.913, 1651.568
1257.395, 1652.069
1257.877, 1630.709
1258.359, 1604.881
1258.841, 1602.812
1259.323, 1613.197
1259.805, 1621.937
1260.288, 1628.353
1260.770, 1637.522
1261.252, 1647.892
1261.734, 1646.156
1262.216, 1624.016
1262.698, 1605.941
1263.180, 1593.027
1263.662, 1588.034
1264.145, 1594.071
1264.627, 1602.605
1265.109, 1610.707
1265.591, 1615.895
1266.073, 1614.542
1266.555, 1611.044
1267.037, 1619.915
##END=



