##NAMES=Roeblingite
##RRUFFID=R140328
##IDEAL CHEMISTRY=Pb^2+^_2_Ca_6_Mn^2+^(Si_3_O_9_)_2_(S^6+^O_4_)_2_(OH)_2_&#183;4H_2_O
##LOCALITY=LÃ¥ngban, Varmland, Sweden
##OWNER=RRUFF
##SOURCE=Benjamin N. Schumer
##DESCRIPTION=Tabular, colorless crystals
##STATUS=The identification of this mineral has been confirmed by single-crystal X-ray diffraction.
##URL=rruff.info/R140328
189.1598, 298.1279
189.6419, 312.9530
190.1240, 327.1198
190.6061, 340.8378
191.0883, 353.0970
191.5704, 363.2679
192.0525, 371.4853
192.5346, 378.0943
193.0167, 382.8911
193.4988, 386.0447
193.9810, 387.2478
194.4631, 386.1211
194.9452, 384.8753
195.4273, 383.1249
195.9094, 380.8939
196.3915, 380.6409
196.8737, 383.0883
197.3558, 387.6456
197.8379, 392.3178
198.3200, 396.9209
198.8021, 402.3493
199.2842, 409.3793
199.7664, 418.0542
200.2485, 427.5123
200.7306, 437.7438
201.2127, 448.6618
201.6948, 460.0779
202.1769, 472.0648
202.6591, 484.4065
203.1412, 496.8037
203.6233, 509.3395
204.1054, 521.9174
204.5875, 534.8273
205.0696, 547.9031
205.5518, 559.3655
206.0339, 568.9720
206.5160, 577.5920
206.9981, 586.3670
207.4802, 595.5726
207.9623, 603.3008
208.4445, 608.8617
208.9266, 612.3610
209.4087, 615.9211
209.8908, 620.0754
210.3729, 623.4042
210.8550, 624.1149
211.3372, 621.6102
211.8193, 618.6409
212.3014, 615.8159
212.7835, 613.1592
213.2656, 610.2364
213.7477, 606.9355
214.2299, 603.5076
214.7120, 599.9774
215.1941, 595.6354
215.6762, 593.0731
216.1583, 593.3245
216.6404, 596.5472
217.1226, 599.0804
217.6047, 600.3239
218.0868, 601.5805
218.5689, 604.5654
219.0510, 609.9189
219.5331, 615.5207
220.0153, 620.8138
220.4974, 625.7258
220.9795, 631.5021
221.4616, 638.5257
221.9437, 646.0775
222.4258, 653.3206
222.9080, 659.7933
223.3901, 666.8943
223.8722, 675.0463
224.3543, 684.5187
224.8364, 693.4380
225.3185, 701.8892
225.8007, 709.5963
226.2828, 716.3717
226.7649, 722.3532
227.2470, 726.9946
227.7291, 729.9637
228.2112, 731.1864
228.6934, 731.5917
229.1755, 731.1676
229.6576, 729.9388
230.1397, 727.8242
230.6218, 724.1844
231.1039, 720.7921
231.5861, 718.1256
232.0682, 716.2040
232.5503, 714.7141
233.0324, 713.8194
233.5145, 713.2523
233.9966, 712.4593
234.4788, 710.3798
234.9609, 710.0369
235.4430, 712.5684
235.9251, 718.4398
236.4072, 724.0139
236.8893, 729.6750
237.3715, 734.7239
237.8536, 737.8707
238.3357, 736.8270
238.8178, 737.9936
239.2999, 743.8787
239.7820, 755.4055
240.2642, 763.9518
240.7463, 767.9738
241.2284, 770.2888
241.7105, 774.3398
242.1926, 780.8894
242.6747, 787.7429
243.1569, 794.4852
243.6390, 801.2005
244.1211, 807.2867
244.6032, 813.0121
245.0853, 817.9286
245.5674, 821.5967
246.0496, 824.3021
246.5317, 825.2692
247.0138, 824.3336
247.4959, 821.4697
247.9780, 816.8967
248.4601, 809.8928
248.9423, 801.9048
249.4244, 794.4265
249.9065, 787.3935
250.3886, 781.0228
250.8707, 775.3014
251.3528, 770.2680
251.8350, 766.1340
252.3171, 763.0909
252.7992, 760.7772
253.2813, 758.9122
253.7634, 757.7305
254.2455, 756.4679
254.7277, 754.7302
255.2098, 752.4769
255.6919, 751.4162
256.1740, 751.8785
256.6561, 753.0833
257.1382, 754.3176
257.6204, 755.5548
258.1025, 756.8782
258.5846, 758.2485
259.0667, 759.6789
259.5488, 761.3606
260.0309, 763.1548
260.5131, 765.3603
260.9952, 768.3203
261.4773, 772.4075
261.9594, 776.2795
262.4415, 779.5867
262.9236, 782.4428
263.4058, 785.5763
263.8879, 788.9097
264.3700, 792.7241
264.8521, 797.5681
265.3342, 803.8956
265.8163, 809.5129
266.2985, 813.6786
266.7806, 816.7806
267.2627, 821.2985
267.7448, 827.5806
268.2269, 834.4774
268.7090, 841.1702
269.1912, 847.6680
269.6733, 854.1186
270.1554, 860.3788
270.6375, 866.6506
271.1196, 873.6617
271.6017, 881.6482
272.0839, 889.6713
272.5660, 896.9241
273.0481, 903.3564
273.5302, 909.6746
274.0123, 916.2850
274.4944, 922.6833
274.9766, 927.2578
275.4587, 929.6613
275.9408, 931.6120
276.4229, 933.9580
276.9050, 936.7098
277.3871, 939.9730
277.8693, 943.9213
278.3514, 948.2107
278.8335, 951.8271
279.3156, 954.5990
279.7977, 957.9313
280.2798, 962.7372
280.7620, 968.9784
281.2441, 975.5261
281.7262, 982.3746
282.2083, 989.4000
282.6904, 995.9629
283.1725, 1001.931
283.6547, 1009.203
284.1368, 1018.767
284.6189, 1030.466
285.1010, 1044.120
285.5831, 1060.378
286.0652, 1076.736
286.5474, 1089.034
287.0295, 1097.352
287.5116, 1105.541
287.9937, 1114.998
288.4758, 1125.764
288.9579, 1137.457
289.4401, 1150.219
289.9222, 1163.739
290.4043, 1177.820
290.8864, 1192.419
291.3685, 1207.236
291.8506, 1222.192
292.3328, 1237.247
292.8149, 1252.237
293.2970, 1267.349
293.7791, 1281.105
294.2612, 1293.120
294.7433, 1302.795
295.2255, 1307.401
295.7076, 1305.616
296.1897, 1298.395
296.6718, 1287.003
297.1539, 1271.545
297.6360, 1253.354
298.1182, 1232.751
298.6003, 1210.366
299.0824, 1187.055
299.5645, 1162.067
300.0466, 1137.269
300.5287, 1115.271
301.0109, 1095.961
301.4930, 1077.788
301.9751, 1059.480
302.4572, 1041.727
302.9393, 1026.219
303.4214, 1013.531
303.9036, 1002.431
304.3857, 991.7836
304.8678, 981.6526
305.3499, 972.0211
305.8320, 962.4922
306.3141, 953.6978
306.7963, 946.5810
307.2784, 941.3000
307.7605, 937.4457
308.2426, 934.9767
308.7247, 933.6696
309.2068, 932.9957
309.6890, 932.7449
310.1711, 932.9457
310.6532, 933.5756
311.1353, 934.5758
311.6174, 936.1891
312.0995, 938.8147
312.5817, 942.0908
313.0638, 945.4709
313.5459, 948.3701
314.0280, 951.6080
314.5101, 955.8573
314.9922, 961.2020
315.4744, 966.6696
315.9565, 971.5628
316.4386, 976.4128
316.9207, 981.7559
317.4028, 987.7411
317.8849, 994.3596
318.3671, 1001.943
318.8492, 1010.493
319.3313, 1018.667
319.8134, 1025.949
320.2955, 1032.752
320.7776, 1039.317
321.2598, 1045.386
321.7419, 1051.606
322.2240, 1058.831
322.7061, 1066.612
323.1882, 1072.655
323.6703, 1076.125
324.1525, 1078.000
324.6346, 1078.738
325.1167, 1077.498
325.5988, 1076.366
326.0809, 1076.055
326.5630, 1076.041
327.0452, 1074.864
327.5273, 1071.399
328.0094, 1067.690
328.4915, 1064.371
328.9736, 1061.391
329.4557, 1058.994
329.9379, 1056.974
330.4200, 1055.600
330.9021, 1055.341
331.3842, 1056.656
331.8663, 1058.445
332.3484, 1060.455
332.8306, 1062.625
333.3127, 1065.103
333.7948, 1068.013
334.2769, 1071.119
334.7590, 1074.271
335.2411, 1077.990
335.7233, 1080.716
336.2054, 1082.360
336.6875, 1082.882
337.1696, 1081.051
337.6517, 1076.322
338.1339, 1070.358
338.6160, 1064.663
339.0981, 1059.458
339.5802, 1053.123
340.0623, 1044.935
340.5444, 1035.671
341.0266, 1028.413
341.5087, 1023.209
341.9908, 1019.179
342.4729, 1015.844
342.9550, 1013.214
343.4371, 1010.993
343.9193, 1009.165
344.4014, 1007.732
344.8835, 1006.573
345.3656, 1005.694
345.8477, 1005.717
346.3298, 1007.202
346.8120, 1009.923
347.2941, 1012.894
347.7762, 1016.160
348.2583, 1019.537
348.7404, 1022.872
349.2225, 1026.166
349.7047, 1029.386
350.1868, 1032.254
350.6689, 1035.146
351.1510, 1039.005
351.6331, 1043.790
352.1152, 1048.504
352.5974, 1052.095
353.0795, 1055.045
353.5616, 1058.229
354.0437, 1061.778
354.5258, 1065.767
355.0079, 1070.734
355.4901, 1076.406
355.9722, 1081.651
356.4543, 1085.213
356.9364, 1088.257
357.4185, 1092.093
357.9006, 1097.184
358.3828, 1102.459
358.8649, 1106.522
359.3470, 1110.335
359.8291, 1115.868
360.3112, 1125.304
360.7933, 1135.718
361.2755, 1145.129
361.7576, 1153.034
362.2397, 1162.265
362.7218, 1173.907
363.2039, 1187.423
363.6860, 1202.217
364.1682, 1217.323
364.6503, 1234.613
365.1324, 1254.842
365.6145, 1278.061
366.0966, 1301.824
366.5787, 1324.571
367.0609, 1348.463
367.5430, 1374.884
368.0251, 1405.946
368.5072, 1437.437
368.9893, 1468.550
369.4714, 1499.639
369.9536, 1531.070
370.4357, 1563.153
370.9178, 1595.408
371.3999, 1627.520
371.8820, 1660.347
372.3641, 1691.553
372.8463, 1721.502
373.3284, 1749.250
373.8105, 1773.145
374.2926, 1791.486
374.7747, 1809.796
375.2568, 1829.254
375.7390, 1849.927
376.2211, 1873.160
376.7032, 1898.893
377.1853, 1927.786
377.6674, 1961.758
378.1495, 2001.390
378.6317, 2042.005
379.1138, 2082.933
379.5959, 2124.378
380.0780, 2169.961
380.5601, 2220.068
381.0422, 2267.728
381.5244, 2308.854
382.0065, 2343.874
382.4886, 2374.026
382.9707, 2401.127
383.4528, 2419.466
383.9349, 2421.953
384.4171, 2408.841
384.8992, 2382.525
385.3813, 2341.706
385.8634, 2289.092
386.3455, 2225.911
386.8276, 2152.110
387.3098, 2075.759
387.7919, 2000.479
388.2740, 1926.963
388.7561, 1856.881
389.2382, 1788.734
389.7203, 1725.275
390.2025, 1669.274
390.6846, 1620.777
391.1667, 1578.686
391.6488, 1544.844
392.1309, 1516.358
392.6130, 1490.731
393.0952, 1467.625
393.5773, 1447.748
394.0594, 1432.227
394.5415, 1420.297
395.0236, 1410.532
395.5057, 1404.093
395.9879, 1398.371
396.4700, 1392.720
396.9521, 1387.298
397.4342, 1380.604
397.9163, 1371.273
398.3984, 1361.124
398.8806, 1351.813
399.3627, 1345.401
399.8448, 1337.569
400.3269, 1327.035
400.8090, 1314.235
401.2911, 1302.887
401.7733, 1293.323
402.2554, 1284.695
402.7375, 1276.527
403.2196, 1268.558
403.7017, 1261.674
404.1838, 1255.936
404.6660, 1251.307
405.1481, 1247.880
405.6302, 1245.694
406.1123, 1244.497
406.5944, 1244.291
407.0765, 1245.060
407.5587, 1246.425
408.0408, 1248.446
408.5229, 1250.823
409.0050, 1253.029
409.4871, 1255.122
409.9692, 1258.110
410.4514, 1262.099
410.9335, 1267.225
411.4156, 1274.309
411.8977, 1283.139
412.3798, 1292.058
412.8619, 1299.766
413.3441, 1306.713
413.8262, 1313.818
414.3083, 1321.201
414.7904, 1328.798
415.2725, 1335.823
415.7546, 1343.082
416.2368, 1352.424
416.7189, 1366.153
417.2010, 1381.113
417.6831, 1394.539
418.1652, 1406.441
418.6473, 1419.658
419.1295, 1435.796
419.6116, 1453.801
420.0937, 1472.444
420.5758, 1491.079
421.0579, 1511.117
421.5400, 1534.522
422.0222, 1559.855
422.5043, 1584.237
422.9864, 1606.846
423.4685, 1628.238
423.9506, 1649.260
424.4327, 1670.760
424.9149, 1688.715
425.3970, 1703.322
425.8791, 1714.211
426.3612, 1721.233
426.8433, 1725.430
427.3254, 1723.884
427.8076, 1715.691
428.2897, 1701.160
428.7718, 1682.895
429.2539, 1660.697
429.7360, 1635.614
430.2181, 1607.529
430.7003, 1575.586
431.1824, 1546.188
431.6645, 1519.692
432.1466, 1495.739
432.6287, 1474.155
433.1108, 1455.128
433.5930, 1438.591
434.0751, 1424.962
434.5572, 1413.805
435.0393, 1403.677
435.5214, 1394.619
436.0035, 1386.794
436.4857, 1380.565
436.9678, 1375.799
437.4499, 1372.017
437.9320, 1369.126
438.4141, 1367.155
438.8962, 1366.276
439.3784, 1366.354
439.8605, 1367.010
440.3426, 1367.718
440.8247, 1369.101
441.3068, 1372.148
441.7889, 1377.072
442.2711, 1381.489
442.7532, 1383.481
443.2353, 1384.623
443.7174, 1386.554
444.1995, 1390.438
444.6816, 1394.418
445.1638, 1397.915
445.6459, 1401.042
446.1280, 1404.494
446.6101, 1409.427
447.0922, 1413.830
447.5743, 1416.642
448.0565, 1416.802
448.5386, 1418.031
449.0207, 1421.120
449.5028, 1424.777
449.9849, 1427.064
450.4670, 1426.808
450.9492, 1427.911
451.4313, 1431.449
451.9134, 1437.137
452.3955, 1442.737
452.8776, 1447.981
453.3597, 1453.757
453.8419, 1460.497
454.3240, 1468.157
454.8061, 1477.404
455.2882, 1488.369
455.7703, 1500.513
456.2524, 1512.785
456.7346, 1525.409
457.2167, 1538.656
457.6988, 1553.509
458.1809, 1568.872
458.6630, 1582.843
459.1451, 1595.397
459.6273, 1608.346
460.1094, 1623.759
460.5915, 1639.971
461.0736, 1654.998
461.5557, 1669.046
462.0378, 1680.784
462.5200, 1688.650
463.0021, 1693.729
463.4842, 1697.943
463.9663, 1702.287
464.4484, 1705.792
464.9305, 1707.699
465.4127, 1707.922
465.8948, 1708.029
466.3769, 1708.002
466.8590, 1708.183
467.3411, 1708.821
467.8232, 1710.560
468.3054, 1712.011
468.7875, 1713.926
469.2696, 1715.376
469.7517, 1714.147
470.2338, 1710.465
470.7159, 1703.591
471.1981, 1692.906
471.6802, 1678.303
472.1623, 1662.023
472.6444, 1643.791
473.1265, 1625.163
473.6086, 1607.797
474.0908, 1591.681
474.5729, 1576.474
475.0550, 1562.042
475.5371, 1548.577
476.0192, 1536.200
476.5013, 1524.938
476.9835, 1515.500
477.4656, 1509.122
477.9477, 1504.400
478.4298, 1498.930
478.9119, 1492.574
479.3940, 1486.602
479.8762, 1482.056
480.3583, 1478.480
480.8404, 1475.265
481.3225, 1472.181
481.8046, 1469.479
482.2867, 1467.447
482.7689, 1465.940
483.2510, 1464.553
483.7331, 1462.647
484.2152, 1461.318
484.6973, 1461.319
485.1794, 1463.072
485.6616, 1464.272
486.1437, 1464.575
486.6258, 1464.339
487.1079, 1463.692
487.5900, 1461.458
488.0721, 1460.940
488.5543, 1463.021
489.0364, 1466.776
489.5185, 1469.530
490.0006, 1470.963
490.4827, 1472.224
490.9648, 1473.552
491.4470, 1474.977
491.9291, 1477.651
492.4112, 1481.808
492.8933, 1486.023
493.3754, 1488.536
493.8575, 1489.783
494.3397, 1491.697
494.8218, 1494.940
495.3039, 1498.589
495.7860, 1501.005
496.2681, 1502.638
496.7502, 1504.981
497.2324, 1509.403
497.7145, 1514.584
498.1966, 1519.144
498.6787, 1523.037
499.1608, 1527.389
499.6429, 1533.525
500.1251, 1539.997
500.6072, 1545.624
501.0893, 1548.942
501.5714, 1552.905
502.0535, 1558.802
502.5356, 1565.766
503.0178, 1571.849
503.4999, 1575.764
503.9820, 1580.137
504.4641, 1585.522
504.9462, 1591.931
505.4283, 1599.328
505.9105, 1608.239
506.3926, 1617.309
506.8747, 1625.385
507.3568, 1632.234
507.8389, 1639.615
508.3210, 1647.531
508.8032, 1656.092
509.2853, 1665.977
509.7674, 1677.050
510.2495, 1687.103
510.7316, 1694.757
511.2137, 1701.045
511.6959, 1708.708
512.1780, 1717.504
512.6601, 1725.379
513.1422, 1731.104
513.6243, 1734.864
514.1064, 1737.072
514.5886, 1738.054
515.0707, 1736.579
515.5528, 1730.922
516.0349, 1722.612
516.5170, 1713.776
516.9991, 1704.599
517.4813, 1695.556
517.9634, 1686.011
518.4455, 1676.329
518.9276, 1669.231
519.4097, 1666.575
519.8918, 1665.340
520.3740, 1664.483
520.8561, 1664.045
521.3382, 1663.747
521.8203, 1663.383
522.3024, 1663.343
522.7845, 1664.242
523.2667, 1666.269
523.7488, 1667.948
524.2309, 1668.787
524.7130, 1669.235
525.1951, 1670.483
525.6772, 1672.529
526.1594, 1674.806
526.6415, 1677.305
527.1236, 1679.796
527.6057, 1681.564
528.0878, 1682.588
528.5699, 1683.674
529.0521, 1685.444
529.5342, 1687.699
530.0163, 1690.177
530.4984, 1692.771
530.9805, 1695.631
531.4626, 1699.147
531.9448, 1702.935
532.4269, 1706.236
532.9090, 1708.037
533.3911, 1710.084
533.8732, 1713.250
534.3553, 1717.569
534.8375, 1721.105
535.3196, 1723.092
535.8017, 1724.913
536.2838, 1727.421
536.7659, 1731.236
537.2480, 1733.795
537.7302, 1734.470
538.2123, 1734.682
538.6944, 1736.894
539.1765, 1741.335
539.6586, 1744.819
540.1407, 1746.185
540.6229, 1746.330
541.1050, 1747.485
541.5871, 1749.538
542.0692, 1751.124
542.5513, 1750.695
543.0334, 1749.589
543.5156, 1749.884
543.9977, 1751.766
544.4798, 1754.245
544.9619, 1756.975
545.4440, 1759.764
545.9261, 1762.334
546.4083, 1763.870
546.8904, 1766.174
547.3725, 1770.803
547.8546, 1776.486
548.3367, 1780.645
548.8188, 1781.261
549.3010, 1781.952
549.7831, 1783.445
550.2652, 1785.727
550.7473, 1788.677
551.2294, 1792.506
551.7115, 1796.668
552.1937, 1801.117
552.6758, 1806.011
553.1579, 1809.887
553.6400, 1812.634
554.1221, 1814.618
554.6042, 1815.797
555.0864, 1816.424
555.5685, 1818.071
556.0506, 1821.475
556.5327, 1825.737
557.0148, 1829.607
557.4969, 1833.201
557.9791, 1837.027
558.4612, 1841.959
558.9433, 1846.767
559.4254, 1850.026
559.9075, 1851.618
560.3896, 1853.718
560.8718, 1858.193
561.3539, 1862.888
561.8360, 1866.157
562.3181, 1866.397
562.8002, 1867.334
563.2823, 1869.367
563.7645, 1872.167
564.2466, 1875.374
564.7287, 1879.496
565.2108, 1882.813
565.6929, 1884.480
566.1750, 1885.097
566.6572, 1887.798
567.1393, 1892.875
567.6214, 1897.753
568.1035, 1900.512
568.5856, 1901.741
569.0677, 1903.795
569.5499, 1906.721
570.0320, 1910.338
570.5141, 1915.553
570.9962, 1921.031
571.4783, 1924.384
571.9604, 1924.184
572.4426, 1923.564
572.9247, 1924.286
573.4068, 1926.038
573.8889, 1928.280
574.3710, 1931.992
574.8531, 1935.034
575.3353, 1936.220
575.8174, 1935.727
576.2995, 1936.255
576.7816, 1938.862
577.2637, 1941.328
577.7458, 1942.515
578.2280, 1941.991
578.7101, 1942.386
579.1922, 1943.685
579.6743, 1945.930
580.1564, 1949.899
580.6385, 1955.399
581.1207, 1958.953
581.6028, 1959.368
582.0849, 1958.840
582.5670, 1961.197
583.0491, 1965.487
583.5313, 1968.747
584.0134, 1968.184
584.4955, 1966.915
584.9776, 1967.778
585.4597, 1970.532
585.9418, 1973.717
586.4240, 1977.766
586.9061, 1981.156
587.3882, 1982.606
587.8703, 1981.088
588.3524, 1981.069
588.8345, 1984.106
589.3167, 1988.169
589.7988, 1991.715
590.2809, 1994.415
590.7630, 1997.329
591.2451, 2000.455
591.7272, 2003.944
592.2094, 2008.284
592.6915, 2013.507
593.1736, 2018.551
593.6557, 2022.864
594.1378, 2026.898
594.6199, 2032.042
595.1021, 2038.097
595.5842, 2043.742
596.0663, 2047.398
596.5484, 2050.533
597.0305, 2055.068
597.5126, 2061.197
597.9948, 2067.402
598.4769, 2072.643
598.9590, 2077.622
599.4411, 2083.060
599.9232, 2090.037
600.4053, 2095.954
600.8875, 2098.887
601.3696, 2101.063
601.8517, 2105.666
602.3338, 2113.874
602.8159, 2122.206
603.2980, 2130.385
603.7802, 2138.156
604.2623, 2144.856
604.7444, 2150.394
605.2265, 2155.094
605.7086, 2158.668
606.1907, 2161.489
606.6729, 2165.409
607.1550, 2170.354
607.6371, 2174.330
608.1192, 2175.225
608.6013, 2174.342
609.0834, 2173.351
609.5656, 2172.600
610.0477, 2171.453
610.5298, 2169.484
611.0119, 2167.012
611.4940, 2164.369
611.9761, 2161.454
612.4583, 2158.721
612.9404, 2156.366
613.4225, 2154.280
613.9046, 2152.075
614.3867, 2149.582
614.8688, 2147.430
615.3510, 2145.537
615.8331, 2144.086
616.3152, 2144.490
616.7973, 2146.854
617.2794, 2149.603
617.7615, 2151.420
618.2437, 2152.720
618.7258, 2155.136
619.2079, 2158.790
619.6900, 2161.888
620.1721, 2161.878
620.6542, 2160.808
621.1364, 2161.394
621.6185, 2164.974
622.1006, 2168.686
622.5827, 2171.178
623.0648, 2173.145
623.5469, 2175.546
624.0291, 2178.922
624.5112, 2182.427
624.9933, 2185.980
625.4754, 2189.667
625.9575, 2193.609
626.4396, 2197.874
626.9218, 2202.414
627.4039, 2207.506
627.8860, 2212.913
628.3681, 2216.933
628.8502, 2219.516
629.3323, 2221.861
629.8145, 2224.798
630.2966, 2228.114
630.7787, 2231.590
631.2608, 2235.222
631.7429, 2238.534
632.2250, 2241.119
632.7072, 2243.182
633.1893, 2244.985
633.6714, 2246.567
634.1535, 2247.843
634.6356, 2248.595
635.1177, 2249.055
635.5999, 2249.616
636.0820, 2250.274
636.5641, 2251.040
637.0462, 2251.851
637.5283, 2252.798
638.0104, 2254.335
638.4926, 2256.621
638.9747, 2258.619
639.4568, 2259.374
639.9389, 2259.615
640.4210, 2261.880
640.9031, 2266.138
641.3853, 2271.148
641.8674, 2277.177
642.3495, 2282.913
642.8316, 2285.854
643.3137, 2285.361
643.7958, 2286.474
644.2780, 2292.903
644.7601, 2301.431
645.2422, 2309.202
645.7243, 2315.047
646.2064, 2321.097
646.6885, 2326.917
647.1707, 2333.282
647.6528, 2341.312
648.1349, 2351.692
648.6170, 2361.542
649.0991, 2370.118
649.5812, 2378.195
650.0634, 2387.868
650.5455, 2399.156
651.0276, 2411.079
651.5097, 2423.104
651.9918, 2435.711
652.4739, 2449.780
652.9561, 2465.073
653.4382, 2481.402
653.9203, 2499.640
654.4024, 2517.840
654.8845, 2534.530
655.3666, 2549.300
655.8488, 2564.844
656.3309, 2580.391
656.8130, 2598.025
657.2951, 2619.114
657.7772, 2644.972
658.2593, 2670.548
658.7415, 2694.989
659.2236, 2720.534
659.7057, 2749.958
660.1878, 2783.080
660.6699, 2818.100
661.1520, 2854.486
661.6342, 2891.640
662.1163, 2929.046
662.5984, 2966.401
663.0805, 3003.016
663.5626, 3041.284
664.0447, 3075.922
664.5269, 3104.235
665.0090, 3125.888
665.4911, 3140.759
665.9732, 3152.139
666.4553, 3153.434
666.9374, 3140.452
667.4196, 3114.009
667.9017, 3082.100
668.3838, 3042.792
668.8659, 3001.231
669.3480, 2958.821
669.8301, 2915.616
670.3123, 2874.243
670.7944, 2834.286
671.2765, 2798.394
671.7586, 2769.095
672.2407, 2745.020
672.7228, 2723.751
673.2050, 2704.797
673.6871, 2688.104
674.1692, 2673.571
674.6513, 2660.959
675.1334, 2650.230
675.6155, 2642.092
676.0977, 2634.420
676.5798, 2627.146
677.0619, 2620.045
677.5440, 2612.654
678.0261, 2603.817
678.5082, 2597.454
678.9904, 2594.729
679.4725, 2594.617
679.9546, 2594.725
680.4367, 2595.085
680.9188, 2595.038
681.4009, 2594.175
681.8831, 2592.862
682.3652, 2591.278
682.8473, 2589.672
683.3294, 2589.281
683.8115, 2592.385
684.2936, 2595.774
684.7758, 2596.206
685.2579, 2593.531
685.7400, 2593.470
686.2221, 2599.633
686.7042, 2607.009
687.1863, 2613.185
687.6685, 2618.007
688.1506, 2621.901
688.6327, 2624.413
689.1148, 2626.969
689.5969, 2630.977
690.0790, 2636.344
690.5612, 2641.701
691.0433, 2646.978
691.5254, 2651.617
692.0075, 2654.521
692.4896, 2656.281
692.9717, 2657.948
693.4539, 2659.724
693.9360, 2661.613
694.4181, 2663.693
694.9002, 2665.865
695.3823, 2667.981
695.8644, 2668.534
696.3466, 2671.048
696.8287, 2677.415
697.3108, 2685.783
697.7929, 2690.752
698.2750, 2691.354
698.7571, 2692.558
699.2393, 2696.416
699.7214, 2701.817
700.2035, 2704.775
700.6856, 2705.631
701.1677, 2707.209
701.6498, 2711.953
702.1320, 2717.780
702.6141, 2722.080
703.0962, 2724.993
703.5783, 2728.381
704.0604, 2733.752
704.5425, 2739.270
705.0247, 2743.477
705.5068, 2745.741
705.9889, 2749.762
706.4710, 2756.818
706.9531, 2763.928
707.4352, 2768.925
707.9174, 2771.550
708.3995, 2774.957
708.8816, 2779.371
709.3637, 2783.840
709.8458, 2787.262
710.3279, 2789.993
710.8101, 2792.991
711.2922, 2796.467
711.7743, 2800.124
712.2564, 2804.467
712.7385, 2808.652
713.2206, 2811.587
713.7028, 2810.615
714.1849, 2811.701
714.6670, 2817.287
715.1491, 2824.999
715.6312, 2831.974
716.1133, 2838.378
716.5955, 2843.212
717.0776, 2845.704
717.5597, 2847.137
718.0418, 2850.338
718.5239, 2855.129
719.0060, 2859.715
719.4882, 2863.030
719.9703, 2866.079
720.4524, 2870.697
720.9345, 2876.141
721.4166, 2880.429
721.8987, 2880.755
722.3809, 2881.417
722.8630, 2884.645
723.3451, 2890.220
723.8272, 2895.850
724.3093, 2902.171
724.7914, 2907.400
725.2736, 2910.566
725.7557, 2911.898
726.2378, 2913.898
726.7199, 2916.673
727.2020, 2919.784
727.6841, 2923.038
728.1663, 2926.485
728.6484, 2930.469
729.1305, 2934.960
729.6126, 2938.647
730.0947, 2938.889
730.5768, 2939.124
731.0590, 2942.575
731.5411, 2950.393
732.0232, 2957.271
732.5053, 2961.442
732.9874, 2964.948
733.4695, 2968.931
733.9517, 2973.323
734.4338, 2978.397
734.9159, 2984.375
735.3980, 2990.387
735.8801, 2995.603
736.3622, 3000.077
736.8444, 3003.810
737.3265, 3006.641
737.8086, 3009.762
738.2907, 3014.282
738.7728, 3019.804
739.2549, 3025.900
739.7371, 3033.423
740.2192, 3039.952
740.7013, 3043.646
741.1834, 3046.489
741.6655, 3051.187
742.1476, 3058.287
742.6298, 3065.759
743.1119, 3073.254
743.5940, 3081.051
744.0761, 3089.938
744.5582, 3099.681
745.0403, 3109.068
745.5225, 3117.569
746.0046, 3125.746
746.4867, 3134.135
746.9688, 3142.746
747.4509, 3151.578
747.9330, 3162.052
748.4152, 3171.233
748.8973, 3177.435
749.3794, 3181.506
749.8615, 3186.095
750.3436, 3191.934
750.8257, 3197.428
751.3079, 3202.308
751.7900, 3206.584
752.2721, 3210.121
752.7542, 3212.977
753.2363, 3214.733
753.7184, 3213.956
754.2006, 3212.784
754.6827, 3215.139
755.1648, 3220.297
755.6469, 3225.093
756.1290, 3226.633
756.6111, 3228.563
757.0933, 3234.065
757.5754, 3242.752
758.0575, 3247.876
758.5396, 3247.552
759.0217, 3245.929
759.5038, 3244.536
759.9860, 3243.257
760.4681, 3240.329
760.9502, 3235.558
761.4323, 3231.425
761.9144, 3229.664
762.3965, 3229.611
762.8787, 3230.751
763.3608, 3232.855
763.8429, 3233.902
764.3250, 3230.429
764.8071, 3227.192
765.2892, 3228.133
765.7714, 3234.316
766.2535, 3238.521
766.7356, 3239.220
767.2177, 3239.387
767.6998, 3240.405
768.1819, 3242.272
768.6641, 3245.836
769.1462, 3251.289
769.6283, 3256.823
770.1104, 3260.265
770.5925, 3262.882
771.0746, 3267.459
771.5568, 3274.326
772.0389, 3280.914
772.5210, 3285.511
773.0031, 3289.205
773.4852, 3292.802
773.9673, 3296.278
774.4495, 3299.936
774.9316, 3304.016
775.4137, 3307.912
775.8958, 3311.005
776.3779, 3313.198
776.8600, 3315.872
777.3422, 3319.067
777.8243, 3322.948
778.3064, 3328.756
778.7885, 3335.136
779.2706, 3339.162
779.7527, 3340.003
780.2349, 3340.869
780.7170, 3344.394
781.1991, 3348.410
781.6812, 3350.780
782.1633, 3348.606
782.6454, 3350.238
783.1276, 3357.762
783.6097, 3366.642
784.0918, 3371.787
784.5739, 3373.075
785.0560, 3377.055
785.5381, 3384.853
786.0203, 3392.424
786.5024, 3393.896
786.9845, 3392.366
787.4666, 3393.170
787.9487, 3397.686
788.4308, 3403.980
788.9130, 3413.023
789.3951, 3422.394
789.8772, 3429.640
790.3593, 3433.066
790.8414, 3436.924
791.3235, 3441.208
791.8057, 3445.862
792.2878, 3450.568
792.7699, 3455.396
793.2520, 3461.022
793.7341, 3467.719
794.2162, 3474.522
794.6984, 3481.200
795.1805, 3487.140
795.6626, 3491.130
796.1447, 3491.983
796.6268, 3493.212
797.1089, 3496.247
797.5911, 3500.312
798.0732, 3504.555
798.5553, 3509.277
799.0374, 3513.708
799.5195, 3517.980
800.0016, 3521.762
800.4838, 3523.914
800.9659, 3525.018
801.4480, 3528.890
801.9301, 3536.937
802.4122, 3544.922
802.8943, 3547.867
803.3765, 3548.517
803.8586, 3550.531
804.3407, 3555.477
804.8228, 3560.578
805.3049, 3565.260
805.7870, 3569.819
806.2692, 3574.230
806.7513, 3577.813
807.2334, 3584.453
807.7155, 3595.441
808.1976, 3606.493
808.6797, 3611.054
809.1619, 3611.071
809.6440, 3612.312
810.1261, 3616.164
810.6082, 3620.693
811.0903, 3624.483
811.5724, 3628.153
812.0546, 3632.340
812.5367, 3636.813
813.0188, 3642.722
813.5009, 3651.383
813.9830, 3660.342
814.4651, 3666.811
814.9473, 3670.772
815.4294, 3673.963
815.9115, 3676.452
816.3936, 3679.015
816.8757, 3682.256
817.3578, 3686.263
817.8400, 3691.288
818.3221, 3697.503
818.8042, 3704.264
819.2863, 3711.123
819.7684, 3718.339
820.2505, 3726.344
820.7327, 3736.322
821.2148, 3743.664
821.6969, 3747.054
822.1790, 3750.028
822.6611, 3757.231
823.1432, 3767.718
823.6254, 3774.822
824.1075, 3777.624
824.5896, 3779.035
825.0717, 3780.180
825.5538, 3782.202
826.0359, 3786.989
826.5181, 3796.227
827.0002, 3803.572
827.4823, 3807.554
827.9644, 3809.367
828.4465, 3809.101
828.9286, 3805.744
829.4108, 3806.222
829.8929, 3811.231
830.3750, 3817.493
830.8571, 3821.712
831.3392, 3825.011
831.8214, 3830.063
832.3035, 3837.149
832.7856, 3844.337
833.2677, 3850.229
833.7498, 3855.724
834.2319, 3861.446
834.7141, 3867.436
835.1962, 3873.486
835.6783, 3879.912
836.1604, 3885.631
836.6425, 3889.343
837.1246, 3891.226
837.6068, 3894.133
838.0889, 3898.065
838.5710, 3904.047
839.0531, 3915.285
839.5352, 3927.523
840.0173, 3935.364
840.4995, 3938.634
840.9816, 3943.208
841.4637, 3954.214
841.9458, 3963.788
842.4279, 3967.610
842.9100, 3965.829
843.3922, 3967.746
843.8743, 3973.782
844.3564, 3980.988
844.8385, 3987.806
845.3206, 3994.449
845.8027, 4002.121
846.2849, 4010.360
846.7670, 4016.458
847.2491, 4016.028
847.7312, 4015.702
848.2133, 4020.305
848.6954, 4029.290
849.1776, 4035.369
849.6597, 4037.269
850.1418, 4038.701
850.6239, 4040.376
851.1060, 4042.819
851.5881, 4048.178
852.0703, 4056.192
852.5524, 4064.508
853.0345, 4072.304
853.5166, 4079.417
853.9987, 4085.222
854.4808, 4090.214
854.9630, 4095.725
855.4451, 4102.340
855.9272, 4109.033
856.4093, 4115.574
856.8914, 4121.910
857.3735, 4128.503
857.8557, 4135.462
858.3378, 4140.976
858.8199, 4144.021
859.3020, 4146.661
859.7841, 4152.562
860.2662, 4160.307
860.7484, 4166.782
861.2305, 4169.814
861.7126, 4173.165
862.1947, 4178.203
862.6768, 4184.444
863.1589, 4191.282
863.6411, 4199.835
864.1232, 4205.634
864.6053, 4207.481
865.0874, 4208.386
865.5695, 4213.277
866.0516, 4220.553
866.5338, 4224.569
867.0159, 4223.493
867.4980, 4223.266
867.9801, 4229.020
868.4622, 4237.172
868.9443, 4244.369
869.4265, 4250.095
869.9086, 4254.935
870.3907, 4258.346
870.8728, 4261.779
871.3549, 4266.599
871.8370, 4272.680
872.3192, 4278.060
872.8013, 4282.713
873.2834, 4287.225
873.7655, 4291.777
874.2476, 4296.583
874.7297, 4302.074
875.2119, 4308.326
875.6940, 4313.925
876.1761, 4317.268
876.6582, 4321.118
877.1403, 4326.826
877.6224, 4334.186
878.1046, 4340.532
878.5867, 4345.850
879.0688, 4350.463
879.5509, 4353.419
880.0330, 4356.426
880.5151, 4363.017
880.9973, 4372.109
881.4794, 4379.390
881.9615, 4380.513
882.4436, 4382.354
882.9257, 4388.185
883.4078, 4396.583
883.8900, 4403.641
884.3721, 4408.893
884.8542, 4415.438
885.3363, 4424.771
885.8184, 4434.789
886.3005, 4440.818
886.7827, 4444.563
887.2648, 4450.401
887.7469, 4460.813
888.2290, 4472.143
888.7111, 4484.301
889.1932, 4495.748
889.6754, 4504.018
890.1575, 4506.754
890.6396, 4512.594
891.1217, 4522.894
891.6038, 4534.718
892.0859, 4545.132
892.5681, 4554.160
893.0502, 4561.096
893.5323, 4565.274
894.0144, 4571.214
894.4965, 4584.545
894.9786, 4599.240
895.4608, 4609.828
895.9429, 4613.915
896.4250, 4620.530
896.9071, 4630.774
897.3892, 4641.139
897.8713, 4649.945
898.3535, 4656.922
898.8356, 4658.518
899.3177, 4655.156
899.7998, 4653.340
900.2819, 4660.125
900.7640, 4667.954
901.2462, 4670.302
901.7283, 4667.613
902.2104, 4667.352
902.6925, 4671.784
903.1746, 4676.135
903.6567, 4678.585
904.1389, 4680.266
904.6210, 4685.409
905.1031, 4693.626
905.5852, 4701.521
906.0673, 4707.163
906.5494, 4712.633
907.0316, 4719.184
907.5137, 4726.968
907.9958, 4736.394
908.4779, 4749.766
908.9600, 4761.615
909.4421, 4771.230
909.9243, 4779.326
910.4064, 4786.996
910.8885, 4794.212
911.3706, 4801.332
911.8527, 4808.638
912.3348, 4814.493
912.8170, 4816.367
913.2991, 4816.464
913.7812, 4817.398
914.2633, 4820.041
914.7454, 4821.724
915.2275, 4821.438
915.7097, 4820.894
916.1918, 4820.709
916.6739, 4820.916
917.1560, 4823.535
917.6381, 4828.561
918.1202, 4833.920
918.6024, 4838.353
919.0845, 4842.211
919.5666, 4845.562
920.0487, 4848.534
920.5308, 4851.994
921.0129, 4856.095
921.4951, 4860.790
921.9772, 4866.117
922.4593, 4871.945
922.9414, 4878.063
923.4235, 4884.376
923.9056, 4890.560
924.3878, 4896.623
924.8699, 4902.187
925.3520, 4906.759
925.8341, 4910.621
926.3162, 4914.290
926.7983, 4917.159
927.2805, 4921.149
927.7626, 4927.205
928.2447, 4933.869
928.7268, 4939.593
929.2089, 4944.429
929.6910, 4950.013
930.1732, 4956.630
930.6553, 4962.412
931.1374, 4963.755
931.6195, 4964.474
932.1016, 4969.423
932.5837, 4979.234
933.0659, 4988.635
933.5480, 4995.490
934.0301, 5002.620
934.5122, 5011.310
934.9943, 5021.096
935.4764, 5028.525
935.9586, 5033.641
936.4407, 5038.576
936.9228, 5044.993
937.4049, 5051.232
937.8870, 5055.464
938.3691, 5058.243
938.8513, 5060.764
939.3334, 5062.456
939.8155, 5065.496
940.2976, 5070.880
940.7797, 5077.177
941.2618, 5081.380
941.7440, 5083.880
942.2261, 5089.250
942.7082, 5098.711
943.1903, 5109.271
943.6724, 5116.415
944.1545, 5123.914
944.6367, 5136.574
945.1188, 5156.979
945.6009, 5174.260
946.0830, 5187.323
946.5651, 5197.182
947.0472, 5202.693
947.5294, 5204.851
948.0115, 5212.786
948.4936, 5226.044
948.9757, 5239.711
949.4578, 5251.938
949.9399, 5262.349
950.4221, 5270.296
950.9042, 5276.290
951.3863, 5281.892
951.8684, 5288.241
952.3505, 5293.232
952.8326, 5296.729
953.3148, 5298.817
953.7969, 5298.604
954.2790, 5296.903
954.7611, 5297.095
955.2432, 5300.439
955.7253, 5304.299
956.2075, 5305.824
956.6896, 5307.372
957.1717, 5311.580
957.6538, 5319.710
958.1359, 5326.210
958.6180, 5329.896
959.1002, 5334.549
959.5823, 5343.558
960.0644, 5355.546
960.5465, 5365.969
961.0286, 5375.107
961.5107, 5385.618
961.9929, 5400.374
962.4750, 5415.681
962.9571, 5429.848
963.4392, 5443.025
963.9213, 5456.630
964.4034, 5471.100
964.8856, 5483.724
965.3677, 5493.471
965.8498, 5501.963
966.3319, 5509.628
966.8140, 5518.491
967.2961, 5533.364
967.7783, 5558.512
968.2604, 5581.995
968.7425, 5596.894
969.2246, 5610.378
969.7067, 5628.171
970.1888, 5650.290
970.6710, 5674.649
971.1531, 5701.131
971.6352, 5728.795
972.1173, 5755.954
972.5994, 5783.907
973.0815, 5817.502
973.5637, 5854.776
974.0458, 5885.343
974.5279, 5903.792
975.0100, 5917.198
975.4921, 5929.787
975.9742, 5937.469
976.4564, 5928.346
976.9385, 5903.136
977.4206, 5874.390
977.9027, 5844.001
978.3848, 5816.768
978.8669, 5797.598
979.3491, 5784.062
979.8312, 5773.087
980.3133, 5763.922
980.7954, 5758.647
981.2775, 5758.040
981.7596, 5759.796
982.2418, 5761.666
982.7239, 5764.246
983.2060, 5771.306
983.6881, 5782.538
984.1702, 5795.769
984.6523, 5808.616
985.1345, 5823.897
985.6166, 5844.489
986.0987, 5869.116
986.5808, 5892.910
987.0629, 5915.766
987.5450, 5938.015
988.0272, 5959.865
988.5093, 5980.998
988.9914, 6001.199
989.4735, 6020.108
989.9556, 6035.577
990.4377, 6045.396
990.9199, 6059.731
991.4020, 6085.601
991.8841, 6115.346
992.3662, 6143.708
992.8483, 6170.116
993.3304, 6200.248
993.8126, 6234.202
994.2947, 6270.079
994.7768, 6305.307
995.2589, 6342.705
995.7410, 6385.655
996.2231, 6433.783
996.7053, 6487.295
997.1874, 6542.949
997.6695, 6607.587
998.1516, 6679.925
998.6337, 6763.756
999.1158, 6868.000
999.5980, 6991.965
1000.080, 7124.128
1000.562, 7265.315
1001.044, 7407.754
1001.526, 7554.956
1002.009, 7696.494
1002.491, 7830.665
1002.973, 7961.225
1003.455, 8036.501
1003.937, 8060.732
1004.419, 8015.182
1004.901, 7876.847
1005.383, 7675.609
1005.865, 7450.950
1006.348, 7215.902
1006.830, 7000.987
1007.312, 6814.711
1007.794, 6659.754
1008.276, 6539.871
1008.758, 6447.905
1009.240, 6379.442
1009.722, 6336.565
1010.205, 6299.329
1010.687, 6266.008
1011.169, 6238.844
1011.651, 6221.404
1012.133, 6209.516
1012.615, 6198.368
1013.097, 6187.864
1013.579, 6182.007
1014.061, 6184.438
1014.544, 6186.405
1015.026, 6185.083
1015.508, 6182.090
1015.990, 6180.891
1016.472, 6181.432
1016.954, 6183.580
1017.436, 6187.628
1017.918, 6192.452
1018.401, 6197.930
1018.883, 6203.467
1019.365, 6208.462
1019.847, 6212.703
1020.329, 6217.519
1020.811, 6222.958
1021.293, 6228.948
1021.775, 6235.429
1022.257, 6242.443
1022.740, 6250.042
1023.222, 6258.290
1023.704, 6267.423
1024.186, 6278.183
1024.668, 6288.823
1025.150, 6298.068
1025.632, 6307.686
1026.114, 6321.186
1026.596, 6337.943
1027.079, 6355.305
1027.561, 6373.126
1028.043, 6388.781
1028.525, 6397.787
1029.007, 6405.459
1029.489, 6416.267
1029.971, 6430.761
1030.453, 6446.190
1030.936, 6462.806
1031.418, 6479.862
1031.900, 6497.137
1032.382, 6514.889
1032.864, 6531.766
1033.346, 6549.527
1033.828, 6572.457
1034.310, 6612.774
1034.792, 6641.650
1035.275, 6647.697
1035.757, 6643.463
1036.239, 6638.483
1036.721, 6632.834
1037.203, 6625.593
1037.685, 6616.915
1038.167, 6609.143
1038.649, 6601.843
1039.132, 6598.165
1039.614, 6601.716
1040.096, 6611.568
1040.578, 6621.984
1041.060, 6632.481
1041.542, 6643.551
1042.024, 6654.731
1042.506, 6667.894
1042.989, 6687.503
1043.471, 6710.969
1043.953, 6732.886
1044.435, 6752.063
1044.917, 6771.647
1045.399, 6793.238
1045.881, 6815.224
1046.363, 6835.434
1046.845, 6854.872
1047.328, 6882.142
1047.810, 6917.310
1048.292, 6954.500
1048.774, 6992.772
1049.256, 7030.239
1049.738, 7066.851
1050.220, 7101.602
1050.702, 7132.825
1051.184, 7159.984
1051.667, 7187.084
1052.149, 7217.346
1052.631, 7237.140
1053.113, 7234.025
1053.595, 7212.486
1054.077, 7176.866
1054.559, 7129.526
1055.041, 7083.215
1055.523, 7040.798
1056.006, 7003.373
1056.488, 6971.477
1056.970, 6943.742
1057.452, 6917.343
1057.934, 6892.481
1058.416, 6870.147
1058.898, 6850.311
1059.380, 6834.753
1059.863, 6825.633
1060.345, 6821.297
1060.827, 6821.089
1061.309, 6824.872
1061.791, 6831.412
1062.273, 6841.632
1062.755, 6849.883
1063.237, 6853.219
1063.719, 6853.572
1064.202, 6852.179
1064.684, 6850.437
1065.166, 6851.055
1065.648, 6854.879
1066.130, 6861.571
1066.612, 6873.646
1067.094, 6884.608
1067.576, 6887.190
1068.059, 6883.593
1068.541, 6886.768
1069.023, 6896.298
1069.505, 6907.174
1069.987, 6917.644
1070.469, 6927.333
1070.951, 6936.440
1071.433, 6944.237
1071.916, 6948.618
1072.398, 6949.013
1072.880, 6949.830
1073.362, 6951.101
1073.844, 6956.556
1074.326, 6975.797
1074.808, 6997.391
1075.290, 7007.243
1075.772, 7004.117
1076.255, 7007.196
1076.737, 7020.932
1077.219, 7033.201
1077.701, 7039.200
1078.183, 7042.748
1078.665, 7051.322
1079.147, 7063.354
1079.629, 7075.096
1080.111, 7085.182
1080.594, 7096.178
1081.076, 7109.040
1081.558, 7122.985
1082.040, 7137.320
1082.522, 7152.075
1083.004, 7167.405
1083.486, 7183.432
1083.968, 7200.502
1084.450, 7221.498
1084.933, 7240.664
1085.415, 7254.578
1085.897, 7263.982
1086.379, 7270.452
1086.861, 7273.013
1087.343, 7277.239
1087.825, 7283.708
1088.307, 7290.081
1088.790, 7295.893
1089.272, 7299.479
1089.754, 7295.445
1090.236, 7286.231
1090.718, 7285.850
1091.200, 7303.881
1091.682, 7317.719
1092.164, 7322.476
1092.646, 7323.416
1093.129, 7328.884
1093.611, 7336.821
1094.093, 7341.861
1094.575, 7342.929
1095.057, 7344.563
1095.539, 7349.579
1096.021, 7354.525
1096.503, 7357.354
1096.986, 7359.078
1097.468, 7363.665
1097.950, 7371.012
1098.432, 7380.135
1098.914, 7391.594
1099.396, 7402.650
1099.878, 7411.304
1100.360, 7418.629
1100.843, 7425.725
1101.325, 7432.783
1101.807, 7438.812
1102.289, 7443.707
1102.771, 7449.088
1103.253, 7456.657
1103.735, 7464.374
1104.217, 7466.602
1104.699, 7467.849
1105.182, 7477.289
1105.664, 7508.406
1106.146, 7524.268
1106.628, 7519.828
1107.110, 7511.296
1107.592, 7512.042
1108.074, 7519.606
1108.556, 7529.917
1109.038, 7542.463
1109.521, 7555.798
1110.003, 7570.726
1110.485, 7584.911
1110.967, 7599.626
1111.449, 7611.492
1111.931, 7612.169
1112.413, 7605.065
1112.895, 7607.366
1113.377, 7621.283
1113.860, 7633.756
1114.342, 7634.255
1114.824, 7633.860
1115.306, 7639.373
1115.788, 7648.656
1116.270, 7653.679
1116.752, 7654.628
1117.234, 7658.065
1117.717, 7665.809
1118.199, 7675.792
1118.681, 7688.942
1119.163, 7701.469
1119.645, 7708.548
1120.127, 7709.675
1120.609, 7714.695
1121.091, 7724.106
1121.573, 7733.966
1122.056, 7743.529
1122.538, 7751.097
1123.020, 7752.616
1123.502, 7751.546
1123.984, 7753.346
1124.466, 7760.192
1124.948, 7768.114
1125.430, 7777.240
1125.913, 7787.267
1126.395, 7799.875
1126.877, 7812.512
1127.359, 7817.745
1127.841, 7818.189
1128.323, 7820.875
1128.805, 7829.847
1129.287, 7839.537
1129.770, 7849.905
1130.252, 7859.538
1130.734, 7865.877
1131.216, 7870.236
1131.698, 7878.882
1132.180, 7891.479
1132.662, 7904.330
1133.144, 7916.686
1133.626, 7927.031
1134.109, 7933.273
1134.591, 7938.513
1135.073, 7948.692
1135.555, 7963.048
1136.037, 7972.984
1136.519, 7977.488
1137.001, 7982.006
1137.483, 7992.841
1137.965, 8002.927
1138.448, 8007.364
1138.930, 8007.667
1139.412, 8006.811
1139.894, 8004.650
1140.376, 8007.529
1140.858, 8017.383
1141.340, 8029.836
1141.822, 8043.677
1142.304, 8056.246
1142.787, 8063.882
1143.269, 8066.452
1143.751, 8073.214
1144.233, 8084.563
1144.715, 8097.170
1145.197, 8110.084
1145.679, 8122.348
1146.161, 8131.931
1146.644, 8140.068
1147.126, 8148.070
1147.608, 8155.284
1148.090, 8166.619
1148.572, 8184.080
1149.054, 8199.360
1149.536, 8208.109
1150.018, 8212.663
1150.500, 8214.552
1150.983, 8216.092
1151.465, 8222.065
1151.947, 8236.832
1152.429, 8250.147
1152.911, 8261.296
1153.393, 8271.151
1153.875, 8280.445
1154.357, 8288.887
1154.840, 8295.356
1155.322, 8300.276
1155.804, 8304.669
1156.286, 8305.856
1156.768, 8311.416
1157.250, 8323.937
1157.732, 8338.269
1158.214, 8349.280
1158.697, 8358.026
1159.179, 8369.131
1159.661, 8382.323
1160.143, 8395.134
1160.625, 8403.971
1161.107, 8415.340
1161.589, 8433.082
1162.071, 8452.226
1162.553, 8466.041
1163.036, 8475.265
1163.518, 8485.793
1164.000, 8498.020
1164.482, 8510.176
1164.964, 8521.513
1165.446, 8532.315
1165.928, 8542.185
1166.410, 8552.043
1166.892, 8564.313
1167.375, 8578.746
1167.857, 8589.259
1168.339, 8595.082
1168.821, 8598.325
1169.303, 8595.829
1169.785, 8595.648
1170.267, 8605.961
1170.749, 8622.154
1171.231, 8631.178
1171.714, 8633.038
1172.196, 8634.180
1172.678, 8635.400
1173.160, 8638.955
1173.642, 8650.037
1174.124, 8661.518
1174.606, 8666.437
1175.088, 8666.155
1175.571, 8668.683
1176.053, 8674.251
1176.535, 8679.410
1177.017, 8683.013
1177.499, 8686.838
1177.981, 8692.854
1178.463, 8699.736
1178.945, 8705.802
1179.427, 8710.925
1179.910, 8719.321
1180.392, 8731.450
1180.874, 8742.545
1181.356, 8751.282
1181.838, 8757.132
1182.320, 8756.146
1182.802, 8753.885
1183.284, 8757.687
1183.767, 8769.104
1184.249, 8778.817
1184.731, 8786.895
1185.213, 8793.725
1185.695, 8799.490
1186.177, 8804.173
1186.659, 8806.770
1187.141, 8808.786
1187.624, 8812.851
1188.106, 8821.034
1188.588, 8823.151
1189.070, 8817.264
1189.552, 8817.078
1190.034, 8834.287
1190.516, 8857.433
1190.998, 8873.640
1191.480, 8885.031
1191.963, 8895.105
1192.445, 8902.846
1192.927, 8913.386
1193.409, 8927.463
1193.891, 8940.483
1194.373, 8945.606
1194.855, 8950.522
1195.337, 8968.489
1195.819, 8993.512
1196.302, 9011.917
1196.784, 9017.406
1197.266, 9026.665
1197.748, 9041.159
1198.230, 9054.311
1198.712, 9058.267
1199.194, 9059.559
1199.676, 9068.606
1200.158, 9082.251
1200.641, 9091.119
1201.123, 9091.449
1201.605, 9091.951
1202.087, 9092.071
1202.569, 9097.005
1203.051, 9116.940
1203.533, 9140.653
1204.015, 9151.670
1204.498, 9153.201
1204.980, 9158.798
1205.462, 9173.329
1205.944, 9184.275
1206.426, 9189.788
1206.908, 9194.938
1207.390, 9206.763
1207.872, 9219.751
1208.354, 9224.268
1208.837, 9222.795
1209.319, 9228.969
1209.801, 9248.516
1210.283, 9263.640
1210.765, 9271.517
1211.247, 9277.775
1211.729, 9288.325
1212.211, 9300.918
1212.694, 9314.300
1213.176, 9327.495
1213.658, 9334.663
1214.140, 9333.253
1214.622, 9333.191
1215.104, 9335.860
1215.586, 9341.009
1216.068, 9351.159
1216.551, 9362.006
1217.033, 9366.887
1217.515, 9366.828
1217.997, 9371.420
1218.479, 9382.357
1218.961, 9394.146
1219.443, 9406.254
1219.925, 9417.536
1220.407, 9424.792
1220.890, 9431.733
1221.372, 9443.427
1221.854, 9459.326
1222.336, 9472.652
1222.818, 9482.088
1223.300, 9493.054
1223.782, 9507.213
1224.264, 9520.130
1224.746, 9524.971
1225.229, 9527.474
1225.711, 9533.691
1226.193, 9543.983
1226.675, 9554.976
1227.157, 9567.464
1227.639, 9575.904
1228.121, 9578.331
1228.603, 9580.446
1229.085, 9586.781
1229.568, 9596.784
1230.050, 9611.978
1230.532, 9631.278
1231.014, 9645.163
1231.496, 9653.229
1231.978, 9659.208
1232.460, 9663.526
1232.942, 9668.179
1233.425, 9676.896
1233.907, 9685.472
1234.389, 9688.690
1234.871, 9687.943
1235.353, 9691.854
1235.835, 9700.434
1236.317, 9715.517
1236.799, 9739.538
1237.281, 9759.045
1237.764, 9756.691
1238.246, 9750.551
1238.728, 9756.382
1239.210, 9771.204
1239.692, 9781.260
1240.174, 9786.673
1240.656, 9795.474
1241.138, 9809.927
1241.621, 9825.060
1242.103, 9837.311
1242.585, 9848.536
1243.067, 9859.927
1243.549, 9871.155
1244.031, 9880.399
1244.513, 9888.044
1244.995, 9896.980
1245.478, 9907.869
1245.960, 9920.326
1246.442, 9936.099
1246.924, 9951.542
1247.406, 9965.255
1247.888, 9976.874
1248.370, 9983.413
1248.852, 9986.200
1249.334, 9990.868
1249.817, 9998.835
1250.299, 10008.03
1250.781, 10020.09
1251.263, 10030.07
1251.745, 10035.22
1252.227, 10037.94
1252.709, 10044.18
1253.191, 10052.90
1253.673, 10061.25
1254.156, 10068.74
1254.638, 10075.38
1255.120, 10079.20
1255.602, 10084.92
1256.084, 10093.07
1256.566, 10105.34
1257.048, 10130.38
1257.530, 10160.58
1258.012, 10178.27
1258.495, 10178.86
1258.977, 10184.36
1259.459, 10199.94
1259.941, 10215.72
1260.423, 10228.13
1260.905, 10240.03
1261.387, 10259.76
1261.869, 10280.07
1262.352, 10288.25
1262.834, 10281.53
1263.316, 10282.49
1263.798, 10295.12
1264.280, 10304.54
1264.762, 10304.87
1265.244, 10305.19
1265.726, 10319.58
1266.208, 10338.15
1266.691, 10347.70
1267.173, 10347.73
1267.655, 10359.49
1268.137, 10385.12
1268.619, 10404.92
1269.101, 10412.92
1269.583, 10416.53
1270.065, 10420.92
1270.548, 10425.60
1271.030, 10429.60
1271.512, 10433.42
1271.994, 10439.55
1272.476, 10447.97
1272.958, 10457.73
1273.440, 10469.10
1273.922, 10478.72
1274.405, 10481.67
1274.887, 10485.03
1275.369, 10493.83
1275.851, 10505.95
1276.333, 10514.37
1276.815, 10520.35
1277.297, 10531.80
1277.779, 10550.53
1278.261, 10566.80
1278.744, 10571.17
1279.226, 10576.84
1279.708, 10588.07
1280.190, 10603.60
1280.672, 10625.85
1281.154, 10649.88
1281.636, 10660.46
1282.118, 10655.54
1282.600, 10657.01
1283.083, 10678.76
1283.565, 10693.84
1284.047, 10694.23
1284.529, 10690.48
1285.011, 10698.49
1285.493, 10711.97
1285.975, 10720.60
1286.457, 10724.03
1286.939, 10731.47
1287.422, 10745.64
1287.904, 10757.09
1288.386, 10763.62
1288.868, 10769.12
1289.350, 10777.12
1289.832, 10786.69
1290.314, 10797.51
1290.796, 10808.97
1291.279, 10818.28
1291.761, 10824.58
1292.243, 10836.55
1292.725, 10855.70
1293.207, 10873.42
1293.689, 10880.17
1294.171, 10885.49
1294.653, 10898.40
1295.135, 10912.65
1295.618, 10914.18
1296.100, 10905.17
1296.582, 10909.08
1297.064, 10928.48
1297.546, 10948.58
1298.028, 10959.08
1298.510, 10965.77
1298.992, 10969.80
1299.475, 10974.73
1299.957, 10984.90
1300.439, 11000.08
1300.921, 11018.26
1301.403, 11039.66
1301.885, 11064.50
##END=



