##NAMES=Roeblingite
##RRUFFID=R070713
##IDEAL CHEMISTRY=Pb^2+^_2_Ca_6_Mn^2+^(Si_3_O_9_)_2_(S^6+^O_4_)_2_(OH)_2_&#183;4H_2_O
##LOCALITY=Parker Shaft, Franklin mine, Franklin, Franklin Mining District, Sussex County, New Jersey, USA
##OWNER=RRUFF
##SOURCE=Michael Scott
##DESCRIPTION=Milky white massive fragment
##STATUS=The identification of this mineral has been confirmed by X-ray diffraction.
##URL=rruff.info/R070713
105.0599, 2392.454
105.5421, 2438.883
106.0242, 2494.303
106.5063, 2555.354
106.9884, 2643.937
107.4705, 2721.851
107.9526, 2767.548
108.4348, 2780.102
108.9169, 2776.558
109.3990, 2781.343
109.8811, 2796.730
110.3632, 2818.299
110.8453, 2845.734
111.3275, 2878.339
111.8096, 2919.344
112.2917, 2970.023
112.7738, 3024.178
113.2559, 3057.130
113.7380, 3056.014
114.2202, 3050.180
114.7023, 3046.833
115.1844, 3043.352
115.6665, 3031.512
116.1486, 3002.782
116.6307, 2960.765
117.1129, 2935.393
117.5950, 2933.813
118.0771, 2942.382
118.5592, 2953.849
119.0413, 2968.050
119.5234, 2980.725
120.0056, 2980.645
120.4877, 2974.246
120.9698, 2983.262
121.4519, 3026.665
121.9340, 3089.731
122.4161, 3138.854
122.8982, 3171.041
123.3804, 3186.675
123.8625, 3191.936
124.3446, 3185.970
124.8267, 3164.326
125.3088, 3119.491
125.7909, 3049.934
126.2731, 2978.752
126.7552, 2904.324
127.2373, 2831.517
127.7194, 2760.021
128.2015, 2690.434
128.6837, 2628.963
129.1658, 2584.535
129.6479, 2561.019
130.1300, 2549.733
130.6121, 2556.385
131.0942, 2569.228
131.5764, 2576.664
132.0585, 2573.546
132.5406, 2565.451
133.0227, 2572.198
133.5048, 2615.912
133.9869, 2651.250
134.4691, 2674.090
134.9512, 2684.973
135.4333, 2684.056
135.9154, 2670.242
136.3975, 2644.350
136.8796, 2622.719
137.3618, 2605.902
137.8439, 2591.797
138.3260, 2580.217
138.8081, 2570.841
139.2902, 2562.297
139.7723, 2553.413
140.2545, 2544.247
140.7366, 2535.861
141.2187, 2524.057
141.7008, 2514.986
142.1829, 2517.958
142.6650, 2536.514
143.1472, 2556.980
143.6293, 2565.770
144.1114, 2564.941
144.5935, 2560.405
145.0756, 2551.832
145.5577, 2540.914
146.0399, 2532.962
146.5220, 2527.880
147.0041, 2527.833
147.4862, 2533.134
147.9683, 2543.771
148.4504, 2559.399
148.9326, 2582.480
149.4147, 2614.372
149.8968, 2640.805
150.3789, 2642.250
150.8610, 2648.217
151.3431, 2678.185
151.8252, 2736.095
152.3074, 2807.273
152.7895, 2866.915
153.2716, 2902.544
153.7537, 2954.930
154.2358, 3033.799
154.7179, 3126.049
155.2001, 3223.331
155.6822, 3322.617
156.1643, 3421.133
156.6464, 3510.147
157.1285, 3566.923
157.6106, 3641.903
158.0928, 3743.652
158.5749, 3865.619
159.0570, 4000.482
159.5391, 4144.522
160.0212, 4297.069
160.5033, 4443.865
160.9855, 4566.718
161.4676, 4702.931
161.9497, 4863.346
162.4318, 5046.860
162.9139, 5249.734
163.3960, 5472.548
163.8782, 5716.493
164.3603, 5947.880
164.8424, 6181.702
165.3245, 6394.999
165.8066, 6591.997
166.2887, 6769.307
166.7709, 6874.827
167.2530, 6847.156
167.7351, 6683.720
168.2172, 6480.183
168.6993, 6235.678
169.1814, 5959.398
169.6636, 5653.705
170.1457, 5312.403
170.6278, 4967.829
171.1099, 4646.056
171.5920, 4343.672
172.0741, 4066.648
172.5563, 3818.199
173.0384, 3596.337
173.5205, 3397.103
174.0026, 3215.758
174.4847, 3064.288
174.9668, 2946.192
175.4490, 2860.238
175.9311, 2798.255
176.4132, 2760.248
176.8953, 2745.483
177.3774, 2734.567
177.8595, 2730.093
178.3417, 2723.833
178.8238, 2714.520
179.3059, 2701.313
179.7880, 2676.393
180.2701, 2626.912
180.7522, 2545.500
181.2344, 2469.355
181.7165, 2408.529
182.1986, 2351.697
182.6807, 2290.571
183.1628, 2223.330
183.6449, 2156.520
184.1271, 2101.970
184.6092, 2066.530
185.0913, 2030.660
185.5734, 1989.223
186.0555, 1948.069
186.5376, 1912.237
187.0198, 1883.711
187.5019, 1860.994
187.9840, 1839.557
188.4661, 1817.081
188.9482, 1799.574
189.4303, 1788.884
189.9125, 1782.681
190.3946, 1779.591
190.8767, 1779.153
191.3588, 1779.679
191.8409, 1772.922
192.3230, 1747.740
192.8052, 1727.663
193.2873, 1721.166
193.7694, 1722.410
194.2515, 1721.617
194.7336, 1713.187
195.2157, 1697.467
195.6979, 1676.432
196.1800, 1644.413
196.6621, 1614.198
197.1442, 1591.447
197.6263, 1574.636
198.1084, 1558.334
198.5906, 1538.104
199.0727, 1514.894
199.5548, 1498.225
200.0369, 1489.785
200.5190, 1485.711
201.0011, 1483.246
201.4833, 1482.628
201.9654, 1486.976
202.4475, 1500.525
202.9296, 1522.289
203.4117, 1540.130
203.8938, 1547.965
204.3760, 1555.349
204.8581, 1571.535
205.3402, 1597.410
205.8223, 1625.665
206.3044, 1649.790
206.7865, 1671.498
207.2687, 1696.957
207.7508, 1728.907
208.2329, 1764.582
208.7150, 1801.416
209.1971, 1840.075
209.6792, 1876.585
210.1614, 1903.027
210.6435, 1924.090
211.1256, 1951.561
211.6077, 1996.264
212.0898, 2049.575
212.5719, 2090.046
213.0541, 2108.726
213.5362, 2131.179
214.0183, 2174.475
214.5004, 2234.112
214.9825, 2301.125
215.4646, 2371.208
215.9468, 2444.825
216.4289, 2524.908
216.9110, 2623.939
217.3931, 2711.150
217.8752, 2775.911
218.3573, 2818.561
218.8395, 2839.947
219.3216, 2841.906
219.8037, 2824.159
220.2858, 2780.204
220.7679, 2692.128
221.2500, 2594.277
221.7322, 2501.424
222.2143, 2412.867
222.6964, 2323.506
223.1785, 2227.607
223.6606, 2124.633
224.1427, 2026.660
224.6249, 1922.055
225.1070, 1834.483
225.5891, 1779.007
226.0712, 1751.039
226.5533, 1733.236
227.0354, 1709.551
227.5176, 1678.316
227.9997, 1653.510
228.4818, 1642.648
228.9639, 1632.111
229.4460, 1617.418
229.9281, 1598.181
230.4103, 1575.719
230.8924, 1550.437
231.3745, 1520.411
231.8566, 1496.069
232.3387, 1485.055
232.8208, 1472.752
233.3030, 1450.245
233.7851, 1418.508
234.2672, 1386.012
234.7493, 1362.602
235.2314, 1351.992
235.7135, 1337.099
236.1957, 1309.897
236.6778, 1285.516
237.1599, 1274.242
237.6420, 1275.517
238.1241, 1280.479
238.6062, 1278.557
239.0884, 1265.967
239.5705, 1259.097
240.0526, 1260.529
240.5347, 1264.511
241.0168, 1266.836
241.4989, 1267.541
241.9811, 1270.407
242.4632, 1280.464
242.9453, 1301.763
243.4274, 1317.711
243.9095, 1325.638
244.3916, 1331.010
244.8738, 1336.587
245.3559, 1343.037
245.8380, 1350.788
246.3201, 1361.461
246.8022, 1379.558
247.2843, 1383.655
247.7665, 1365.775
248.2486, 1341.010
248.7307, 1318.699
249.2128, 1300.528
249.6949, 1284.495
250.1770, 1268.227
250.6592, 1251.028
251.1413, 1236.803
251.6234, 1230.167
252.1055, 1223.249
252.5876, 1209.054
253.0697, 1187.179
253.5519, 1162.937
254.0340, 1141.750
254.5161, 1123.711
254.9982, 1111.084
255.4803, 1105.012
255.9624, 1103.453
256.4445, 1106.556
256.9267, 1113.860
257.4088, 1121.406
257.8909, 1124.610
258.3730, 1121.939
258.8551, 1123.164
259.3372, 1134.114
259.8194, 1145.200
260.3015, 1146.143
260.7836, 1136.419
261.2657, 1127.211
261.7478, 1130.057
262.2299, 1147.358
262.7121, 1161.778
263.1942, 1167.983
263.6763, 1174.541
264.1584, 1191.935
264.6405, 1220.374
265.1227, 1245.559
265.6048, 1252.357
266.0869, 1239.070
266.5690, 1233.926
267.0511, 1240.724
267.5332, 1253.659
268.0154, 1267.965
268.4975, 1283.327
268.9796, 1302.442
269.4617, 1328.619
269.9438, 1362.141
270.4259, 1393.136
270.9081, 1421.090
271.3902, 1446.634
271.8723, 1469.256
272.3544, 1489.274
272.8365, 1509.605
273.3186, 1534.183
273.8008, 1561.710
274.2829, 1581.408
274.7650, 1587.242
275.2471, 1589.589
275.7292, 1597.733
276.2113, 1611.165
276.6935, 1620.658
277.1756, 1618.504
277.6577, 1606.199
278.1398, 1597.805
278.6219, 1594.243
279.1040, 1593.803
279.5862, 1595.277
280.0683, 1598.731
280.5504, 1604.785
281.0325, 1613.391
281.5146, 1625.420
281.9967, 1641.870
282.4789, 1659.208
282.9610, 1684.024
283.4431, 1725.324
283.9252, 1780.253
284.4073, 1831.687
284.8894, 1869.855
285.3716, 1898.394
285.8537, 1929.993
286.3358, 1959.671
286.8179, 1998.144
287.3000, 2056.671
287.7821, 2130.869
288.2643, 2202.243
288.7464, 2263.633
289.2285, 2316.385
289.7106, 2365.026
290.1927, 2407.983
290.6748, 2449.975
291.1570, 2495.681
291.6391, 2542.694
292.1212, 2584.756
292.6033, 2622.116
293.0854, 2649.114
293.5675, 2654.867
294.0497, 2638.946
294.5318, 2609.643
295.0139, 2570.061
295.4960, 2519.559
295.9781, 2454.825
296.4602, 2372.505
296.9424, 2280.210
297.4245, 2189.271
297.9066, 2096.366
298.3887, 2015.023
298.8708, 1957.691
299.3529, 1913.160
299.8351, 1860.320
300.3172, 1791.823
300.7993, 1720.255
301.2814, 1663.507
301.7635, 1621.949
302.2456, 1583.973
302.7278, 1551.051
303.2099, 1519.090
303.6920, 1481.748
304.1741, 1437.319
304.6562, 1391.717
305.1383, 1349.456
305.6205, 1310.307
306.1026, 1280.401
306.5847, 1270.350
307.0668, 1264.712
307.5489, 1244.933
308.0310, 1208.655
308.5132, 1172.047
308.9953, 1149.880
309.4774, 1143.180
309.9595, 1138.697
310.4416, 1138.531
310.9237, 1138.610
311.4059, 1134.783
311.8880, 1127.278
312.3701, 1120.391
312.8522, 1116.870
313.3343, 1117.105
313.8164, 1120.619
314.2986, 1129.690
314.7807, 1139.808
315.2628, 1147.052
315.7449, 1152.536
316.2270, 1161.648
316.7091, 1178.470
317.1913, 1201.469
317.6734, 1221.301
318.1555, 1235.384
318.6376, 1249.656
319.1197, 1263.352
319.6018, 1278.845
320.0840, 1303.336
320.5661, 1341.823
321.0482, 1388.582
321.5303, 1423.404
322.0124, 1439.917
322.4945, 1455.513
322.9767, 1474.715
323.4588, 1494.984
323.9409, 1512.346
324.4230, 1525.249
324.9051, 1535.298
325.3872, 1545.720
325.8694, 1556.489
326.3515, 1567.633
326.8336, 1580.989
327.3157, 1593.762
327.7978, 1603.673
328.2799, 1610.009
328.7621, 1612.217
329.2442, 1608.517
329.7263, 1592.708
330.2084, 1587.628
330.6905, 1600.190
331.1726, 1617.931
331.6548, 1632.944
332.1369, 1643.917
332.6190, 1653.526
333.1011, 1665.580
333.5832, 1682.767
334.0653, 1685.532
334.5475, 1663.942
335.0296, 1639.985
335.5117, 1627.015
335.9938, 1621.826
336.4759, 1611.915
336.9580, 1587.382
337.4402, 1548.436
337.9223, 1507.793
338.4044, 1457.357
338.8865, 1414.156
339.3686, 1384.754
339.8507, 1365.262
340.3329, 1349.894
340.8150, 1335.652
341.2971, 1321.555
341.7792, 1302.974
342.2613, 1270.035
342.7434, 1245.355
343.2256, 1235.040
343.7077, 1232.504
344.1898, 1230.404
344.6719, 1225.874
345.1540, 1221.691
345.6361, 1222.872
346.1183, 1227.326
346.6004, 1242.415
347.0825, 1276.421
347.5646, 1313.793
348.0467, 1342.151
348.5288, 1359.463
349.0110, 1374.751
349.4931, 1400.317
349.9752, 1439.967
350.4573, 1475.046
350.9394, 1504.313
351.4215, 1529.882
351.9037, 1548.479
352.3858, 1562.926
352.8679, 1582.229
353.3500, 1616.738
353.8321, 1665.735
354.3142, 1706.797
354.7964, 1731.414
355.2785, 1757.966
355.7606, 1793.189
356.2427, 1835.599
356.7248, 1882.066
357.2069, 1930.767
357.6891, 1982.083
358.1712, 2038.595
358.6533, 2105.872
359.1354, 2166.136
359.6175, 2206.456
360.0996, 2238.428
360.5818, 2275.106
361.0639, 2321.536
361.5460, 2371.821
362.0281, 2419.093
362.5102, 2463.741
362.9923, 2503.646
363.4745, 2538.846
363.9566, 2567.974
364.4387, 2589.930
364.9208, 2604.702
365.4029, 2611.458
365.8850, 2606.087
366.3672, 2590.813
366.8493, 2578.540
367.3314, 2575.290
367.8135, 2570.794
368.2956, 2549.592
368.7777, 2513.336
369.2599, 2487.302
369.7420, 2487.214
370.2241, 2502.540
370.7062, 2515.582
371.1883, 2523.904
371.6704, 2532.880
372.1526, 2544.730
372.6347, 2560.647
373.1168, 2587.253
373.5989, 2628.988
374.0810, 2679.127
374.5631, 2732.790
375.0453, 2790.087
375.5274, 2851.941
376.0095, 2918.310
376.4916, 2990.607
376.9737, 3073.650
377.4558, 3171.105
377.9380, 3273.971
378.4201, 3380.605
378.9022, 3490.435
379.3843, 3599.667
379.8664, 3705.819
380.3485, 3815.510
380.8307, 3941.860
381.3128, 4101.684
381.7949, 4247.778
382.2770, 4369.832
382.7591, 4481.259
383.2412, 4595.603
383.7234, 4714.854
384.2055, 4828.122
384.6876, 4922.396
385.1697, 4996.293
385.6518, 5055.411
386.1339, 5091.526
386.6161, 5123.346
387.0982, 5161.381
387.5803, 5203.480
388.0624, 5241.952
388.5445, 5272.430
389.0266, 5294.211
389.5088, 5299.113
389.9909, 5264.059
390.4730, 5237.896
390.9551, 5232.185
391.4372, 5238.882
391.9193, 5250.232
392.4015, 5263.230
392.8836, 5272.747
393.3657, 5271.873
393.8478, 5270.684
394.3299, 5232.134
394.8120, 5133.337
395.2942, 5010.882
395.7763, 4891.742
396.2584, 4778.340
396.7405, 4649.329
397.2226, 4476.325
397.7047, 4259.702
398.1869, 4044.988
398.6690, 3832.806
399.1511, 3625.680
399.6332, 3423.653
400.1153, 3228.027
400.5974, 3040.766
401.0796, 2859.035
401.5617, 2687.637
402.0438, 2539.743
402.5259, 2420.036
403.0080, 2305.182
403.4901, 2175.433
403.9723, 2044.756
404.4544, 1936.812
404.9365, 1860.473
405.4186, 1799.304
405.9007, 1746.099
406.3828, 1698.872
406.8650, 1644.692
407.3471, 1574.300
407.8292, 1501.519
408.3113, 1447.474
408.7934, 1411.854
409.2755, 1389.435
409.7577, 1385.245
410.2398, 1391.066
410.7219, 1397.281
411.2040, 1402.126
411.6861, 1404.547
412.1682, 1401.897
412.6504, 1392.936
413.1325, 1393.393
413.6146, 1407.381
414.0967, 1426.518
414.5788, 1446.409
415.0609, 1467.481
415.5431, 1491.984
416.0252, 1521.290
416.5073, 1555.165
416.9894, 1593.119
417.4715, 1634.797
417.9536, 1681.663
418.4358, 1736.880
418.9179, 1795.971
419.4000, 1852.500
419.8821, 1905.105
420.3642, 1960.956
420.8463, 2033.324
421.3285, 2131.551
421.8106, 2219.780
422.2927, 2294.632
422.7748, 2362.785
423.2569, 2427.775
423.7390, 2488.900
424.2212, 2543.934
424.7033, 2594.168
425.1854, 2637.027
425.6675, 2656.608
426.1496, 2648.265
426.6317, 2622.308
427.1139, 2580.768
427.5960, 2527.147
428.0781, 2464.675
428.5602, 2394.363
429.0423, 2317.211
429.5244, 2230.408
430.0066, 2133.557
430.4887, 2045.544
430.9708, 1974.707
431.4529, 1912.538
431.9350, 1846.374
432.4171, 1775.259
432.8993, 1715.000
433.3814, 1675.967
433.8635, 1652.157
434.3456, 1632.123
434.8277, 1614.164
435.3098, 1602.452
435.7920, 1600.021
436.2741, 1607.656
436.7562, 1624.406
437.2383, 1659.056
437.7204, 1694.672
438.2025, 1720.880
438.6847, 1739.862
439.1668, 1759.395
439.6489, 1783.706
440.1310, 1809.791
440.6131, 1829.379
441.0952, 1838.528
441.5774, 1846.696
442.0595, 1852.802
442.5416, 1859.062
443.0237, 1868.348
443.5058, 1880.693
443.9879, 1893.229
444.4701, 1904.177
444.9522, 1915.224
445.4343, 1912.167
445.9164, 1882.323
446.3985, 1850.947
446.8806, 1826.518
447.3628, 1806.327
447.8449, 1784.636
448.3270, 1758.408
448.8091, 1728.318
449.2912, 1694.556
449.7733, 1654.581
450.2555, 1618.327
450.7376, 1589.490
451.2197, 1564.718
451.7018, 1541.891
452.1839, 1520.819
452.6660, 1501.466
453.1482, 1481.520
453.6303, 1462.641
454.1124, 1453.999
454.5945, 1459.710
455.0766, 1468.842
455.5587, 1468.267
456.0409, 1462.854
456.5230, 1468.909
457.0051, 1496.526
457.4872, 1532.256
457.9693, 1566.479
458.4514, 1599.015
458.9336, 1629.478
459.4157, 1658.312
459.8978, 1684.181
460.3799, 1702.047
460.8620, 1705.459
461.3441, 1714.345
461.8262, 1739.888
462.3083, 1768.499
462.7905, 1784.909
463.2726, 1786.818
463.7547, 1782.536
464.2368, 1779.860
464.7189, 1778.301
465.2010, 1782.781
465.6832, 1801.992
466.1653, 1817.548
466.6474, 1822.620
467.1295, 1820.184
467.6116, 1815.322
468.0938, 1810.439
468.5759, 1805.518
469.0580, 1801.827
469.5401, 1802.661
470.0222, 1795.217
470.5043, 1770.313
470.9865, 1741.505
471.4686, 1721.404
471.9507, 1709.041
472.4328, 1686.185
472.9149, 1629.036
473.3970, 1549.390
473.8792, 1492.408
474.3613, 1466.134
474.8434, 1444.336
475.3255, 1411.858
475.8076, 1371.460
476.2897, 1327.136
476.7719, 1271.775
477.2540, 1222.489
477.7361, 1195.725
478.2182, 1185.107
478.7003, 1171.176
479.1824, 1147.039
479.6646, 1118.226
480.1467, 1093.069
480.6288, 1071.756
481.1109, 1053.701
481.5930, 1035.995
482.0751, 1023.891
482.5573, 1022.344
483.0394, 1030.325
483.5215, 1043.664
484.0036, 1060.352
484.4857, 1078.948
484.9678, 1089.498
485.4500, 1080.173
485.9321, 1078.546
486.4142, 1091.179
486.8963, 1111.130
487.3784, 1133.647
487.8605, 1156.813
488.3427, 1177.700
488.8248, 1192.697
489.3069, 1201.621
489.7890, 1208.447
490.2711, 1212.995
490.7532, 1215.831
491.2354, 1219.836
491.7175, 1222.639
492.1996, 1218.512
492.6817, 1203.117
493.1638, 1182.065
493.6459, 1159.444
494.1281, 1135.653
494.6102, 1117.911
495.0923, 1112.179
495.5744, 1109.995
496.0565, 1094.491
496.5386, 1062.010
497.0208, 1035.188
497.5029, 1024.497
497.9850, 1018.736
498.4671, 1004.359
498.9492, 981.6202
499.4313, 962.8159
499.9135, 958.6277
500.3956, 967.7416
500.8777, 972.3688
501.3598, 965.8412
501.8419, 962.8241
502.3240, 968.9722
502.8062, 978.3251
503.2883, 984.1193
503.7704, 984.3837
504.2525, 982.2253
504.7346, 979.0580
505.2167, 973.0395
505.6989, 980.7813
506.1810, 1018.641
506.6631, 1051.885
507.1452, 1058.018
507.6273, 1047.660
508.1094, 1044.610
508.5916, 1058.409
509.0737, 1084.839
509.5558, 1124.939
510.0379, 1177.715
510.5200, 1217.425
511.0021, 1231.531
511.4843, 1232.547
511.9664, 1240.202
512.4485, 1256.176
512.9306, 1266.140
513.4127, 1260.650
513.8948, 1251.188
514.3770, 1254.095
514.8591, 1267.181
515.3412, 1269.412
515.8233, 1244.972
516.3054, 1197.786
516.7875, 1153.704
517.2697, 1109.278
517.7518, 1072.326
518.2339, 1051.068
518.7160, 1033.249
519.1981, 1004.622
519.6802, 963.4818
520.1624, 922.6074
520.6445, 897.7441
521.1266, 889.4142
521.6087, 875.0606
522.0908, 848.8851
522.5729, 825.4602
523.0551, 811.5862
523.5372, 804.1635
524.0193, 798.8686
524.5014, 795.0608
524.9835, 791.3530
525.4656, 786.6071
525.9478, 780.8420
526.4299, 774.4019
526.9120, 767.9778
527.3941, 759.3440
527.8762, 742.6139
528.3583, 717.0104
528.8405, 703.2642
529.3226, 718.7926
529.8047, 733.0106
530.2868, 719.1884
530.7689, 686.9194
531.2510, 665.1838
531.7332, 669.2357
532.2153, 689.0387
532.6974, 700.0367
533.1795, 697.0165
533.6616, 694.3326
534.1437, 692.1625
534.6259, 690.5045
535.1080, 690.1894
535.5901, 690.5632
536.0722, 689.2742
536.5543, 683.0842
537.0364, 674.8978
537.5186, 675.4877
538.0007, 688.0098
538.4828, 697.2745
538.9649, 695.4132
539.4470, 688.5768
539.9291, 682.0707
540.4113, 675.3219
540.8934, 675.3067
541.3755, 689.7934
541.8576, 711.5308
542.3397, 731.7101
542.8218, 748.9617
543.3040, 757.4762
543.7861, 749.8062
544.2682, 729.2436
544.7503, 724.4544
545.2324, 749.7729
545.7145, 770.7260
546.1967, 776.6756
546.6788, 776.9564
547.1609, 782.5178
547.6430, 795.2778
548.1251, 808.1137
548.6072, 810.6885
549.0894, 802.2244
549.5715, 809.2938
550.0536, 845.5109
550.5357, 877.9897
551.0178, 892.4239
551.4999, 897.1837
551.9821, 903.3428
552.4642, 913.8359
552.9463, 926.8829
553.4284, 942.0624
553.9105, 958.6792
554.3926, 974.9689
554.8748, 991.9193
555.3569, 1003.295
555.8390, 1001.202
556.3211, 985.6752
556.8032, 973.9196
557.2853, 968.3333
557.7675, 964.3221
558.2496, 962.4661
558.7317, 960.0989
559.2138, 951.7747
559.6959, 935.7510
560.1780, 917.1132
560.6602, 903.5577
561.1423, 896.0009
561.6244, 889.9641
562.1065, 888.4115
562.5886, 885.5152
563.0707, 877.9312
563.5529, 867.7856
564.0350, 859.6531
564.5171, 856.6226
564.9992, 853.0577
565.4813, 837.7953
565.9634, 812.0496
566.4456, 797.0429
566.9277, 801.7130
567.4098, 810.9332
567.8919, 807.4786
568.3740, 792.8611
568.8561, 780.4725
569.3383, 770.4982
569.8204, 764.8899
570.3025, 767.0710
570.7846, 774.4889
571.2667, 781.7852
571.7488, 786.7921
572.2310, 789.1879
572.7131, 787.8408
573.1952, 780.2902
573.6773, 775.6461
574.1594, 773.9734
574.6415, 774.9409
575.1237, 780.5986
575.6058, 788.6133
576.0879, 793.5353
576.5700, 791.1783
577.0521, 788.6490
577.5342, 799.3788
578.0164, 823.4545
578.4985, 843.1172
578.9806, 852.8622
579.4627, 858.8856
579.9448, 868.0642
580.4269, 879.8907
580.9091, 889.0580
581.3912, 888.0386
581.8733, 889.9523
582.3554, 908.1609
582.8375, 936.5665
583.3196, 958.2106
583.8018, 965.6534
584.2839, 968.6084
584.7660, 985.0353
585.2481, 1022.908
585.7302, 1051.292
586.2123, 1056.892
586.6945, 1066.985
587.1766, 1096.542
587.6587, 1138.702
588.1408, 1178.799
588.6229, 1209.818
589.1050, 1237.008
589.5872, 1269.324
590.0693, 1306.535
590.5514, 1335.391
591.0335, 1347.386
591.5156, 1361.113
591.9977, 1402.133
592.4799, 1465.680
592.9620, 1514.184
593.4441, 1536.035
593.9262, 1547.893
594.4083, 1556.777
594.8904, 1563.115
595.3726, 1567.649
595.8547, 1570.580
596.3368, 1569.214
596.8189, 1558.717
597.3010, 1536.642
597.7831, 1517.306
598.2653, 1507.894
598.7474, 1493.631
599.2295, 1464.661
599.7116, 1429.452
600.1937, 1401.178
600.6758, 1385.333
601.1580, 1374.084
601.6401, 1361.187
602.1222, 1346.229
602.6043, 1325.537
603.0864, 1296.606
603.5685, 1269.363
604.0507, 1252.881
604.5328, 1246.397
605.0149, 1238.030
605.4970, 1229.940
605.9791, 1217.481
606.4612, 1195.960
606.9434, 1170.609
607.4255, 1148.060
607.9076, 1129.806
608.3897, 1112.341
608.8718, 1091.040
609.3539, 1066.140
609.8361, 1049.974
610.3182, 1049.251
610.8003, 1046.044
611.2824, 1034.452
611.7645, 1017.709
612.2466, 997.7558
612.7288, 974.6362
613.2109, 953.2928
613.6930, 936.8488
614.1751, 924.5280
614.6572, 914.6994
615.1393, 907.2308
615.6215, 903.5773
616.1036, 905.8683
616.5857, 911.6440
617.0678, 911.9186
617.5499, 897.8619
618.0320, 890.6424
618.5142, 897.1189
618.9963, 906.1396
619.4784, 908.0344
619.9605, 904.0180
620.4426, 901.6290
620.9247, 905.3466
621.4069, 915.2867
621.8890, 933.5178
622.3711, 961.7932
622.8532, 988.0087
623.3353, 1008.968
623.8174, 1026.782
624.2996, 1042.354
624.7817, 1055.992
625.2638, 1073.417
625.7459, 1098.791
626.2280, 1126.217
626.7101, 1151.380
627.1923, 1174.789
627.6744, 1198.574
628.1565, 1223.412
628.6386, 1248.967
629.1207, 1275.500
629.6028, 1306.070
630.0850, 1325.173
630.5671, 1324.035
631.0492, 1319.850
631.5313, 1319.231
632.0134, 1318.542
632.4955, 1313.173
632.9777, 1302.488
633.4598, 1281.922
633.9419, 1239.611
634.4240, 1183.401
634.9061, 1141.815
635.3882, 1120.288
635.8704, 1099.925
636.3525, 1064.272
636.8346, 1017.534
637.3167, 986.9949
637.7988, 984.4107
638.2809, 980.2363
638.7631, 964.9650
639.2452, 949.0717
639.7273, 942.5495
640.2094, 945.8705
640.6915, 953.8531
641.1736, 963.9270
641.6558, 974.2865
642.1379, 975.4389
642.6200, 962.7963
643.1021, 961.5268
643.5842, 984.6976
644.0663, 1016.981
644.5485, 1041.686
645.0306, 1059.043
645.5127, 1077.442
645.9948, 1096.742
646.4769, 1120.139
646.9590, 1151.618
647.4412, 1189.031
647.9233, 1226.652
648.4054, 1262.073
648.8875, 1297.977
649.3696, 1338.716
649.8517, 1384.689
650.3339, 1432.319
650.8160, 1482.774
651.2981, 1533.174
651.7802, 1582.965
652.2623, 1632.308
652.7444, 1681.902
653.2266, 1732.326
653.7087, 1781.626
654.1908, 1825.306
654.6729, 1867.697
655.1550, 1919.554
655.6371, 1981.921
656.1193, 2046.271
656.6014, 2106.370
657.0835, 2164.906
657.5656, 2230.406
658.0477, 2318.627
658.5298, 2392.058
659.0120, 2424.429
659.4941, 2464.011
659.9762, 2547.568
660.4583, 2668.882
660.9404, 2798.892
661.4225, 2923.775
661.9047, 3045.960
662.3868, 3171.586
662.8689, 3300.825
663.3510, 3426.232
663.8331, 3549.689
664.3152, 3660.591
664.7974, 3747.412
665.2795, 3809.885
665.7616, 3862.507
666.2437, 3915.185
666.7258, 3946.913
667.2079, 3949.509
667.6901, 3926.881
668.1722, 3879.252
668.6543, 3809.575
669.1364, 3729.270
669.6185, 3646.037
670.1006, 3561.377
670.5828, 3485.111
671.0649, 3418.640
671.5470, 3354.944
672.0291, 3288.475
672.5112, 3225.948
672.9933, 3173.870
673.4755, 3132.632
673.9576, 3097.270
674.4397, 3064.236
674.9218, 3038.403
675.4039, 3023.259
675.8860, 3018.376
676.3682, 3020.493
676.8503, 3028.461
677.3324, 3049.152
677.8145, 3094.949
678.2966, 3169.170
678.7787, 3240.731
679.2609, 3295.179
679.7430, 3368.407
680.2251, 3475.410
680.7072, 3606.729
681.1893, 3747.947
681.6714, 3894.692
682.1536, 4066.663
682.6357, 4283.164
683.1178, 4525.503
683.5999, 4763.991
684.0820, 5000.960
684.5641, 5253.507
685.0463, 5529.773
685.5284, 5836.860
686.0105, 6191.690
686.4926, 6609.456
686.9747, 7038.108
687.4568, 7464.589
687.9390, 7918.443
688.4211, 8415.773
688.9032, 8948.515
689.3853, 9501.314
689.8674, 10079.93
690.3495, 10654.34
690.8317, 11213.67
691.3138, 11747.99
691.7959, 12250.66
692.2780, 12715.77
692.7601, 13100.31
693.2422, 13375.13
693.7244, 13537.79
694.2065, 13574.37
694.6886, 13460.19
695.1707, 13251.77
695.6528, 12933.18
696.1349, 12545.08
696.6171, 12101.40
697.0992, 11607.66
697.5813, 11076.38
698.0634, 10505.20
698.5455, 9915.710
699.0276, 9320.794
699.5098, 8728.245
699.9919, 8159.585
700.4740, 7620.159
700.9561, 7106.898
701.4382, 6616.527
701.9203, 6149.983
702.4025, 5715.340
702.8846, 5319.000
703.3667, 4947.148
703.8488, 4603.317
704.3309, 4280.868
704.8130, 3968.719
705.2952, 3670.871
705.7773, 3396.212
706.2594, 3150.452
706.7415, 2932.336
707.2236, 2743.636
707.7057, 2581.450
708.1879, 2429.984
708.6700, 2285.390
709.1521, 2153.459
709.6342, 2041.557
710.1163, 1948.731
710.5984, 1862.564
711.0806, 1783.689
711.5627, 1710.156
712.0448, 1640.992
712.5269, 1577.580
713.0090, 1520.858
713.4911, 1471.026
713.9733, 1428.330
714.4554, 1394.869
714.9375, 1366.649
715.4196, 1338.805
715.9017, 1310.993
716.3839, 1279.743
716.8660, 1243.621
717.3481, 1206.560
717.8302, 1170.919
718.3123, 1136.861
718.7944, 1110.796
719.2766, 1101.687
719.7587, 1088.141
720.2408, 1060.551
720.7229, 1030.947
721.2050, 1011.116
721.6871, 1000.909
722.1693, 991.5839
722.6514, 979.2194
723.1335, 962.6250
723.6156, 934.8708
724.0977, 898.7415
724.5798, 876.3661
725.0620, 875.7579
725.5441, 879.0105
726.0262, 866.1788
726.5083, 837.2650
726.9904, 821.8107
727.4725, 835.5970
727.9547, 841.8283
728.4368, 827.1030
728.9189, 807.8102
729.4010, 801.3275
729.8831, 806.1440
730.3652, 804.4714
730.8474, 779.0142
731.3295, 748.1140
731.8116, 741.2092
732.2937, 753.7361
732.7758, 762.9031
733.2579, 762.8618
733.7401, 758.9816
734.2222, 756.0610
734.7043, 754.1266
735.1864, 753.5908
735.6685, 756.9835
736.1506, 758.4152
736.6328, 754.9783
737.1149, 751.0724
737.5970, 750.8164
738.0791, 753.6723
738.5612, 755.6090
739.0433, 754.4092
739.5255, 751.5158
740.0076, 747.3263
740.4897, 742.7534
740.9718, 740.2599
741.4539, 740.3969
741.9360, 744.9173
742.4182, 757.1051
742.9003, 774.9448
743.3824, 779.8536
743.8645, 761.6780
744.3466, 747.9437
744.8287, 741.4652
745.3109, 740.6163
745.7930, 748.1812
746.2751, 761.0737
746.7572, 768.8212
747.2393, 764.6209
747.7214, 758.2859
748.2036, 755.6223
748.6857, 757.2203
749.1678, 766.3879
749.6499, 782.7545
750.1320, 798.7032
750.6141, 808.9444
751.0963, 813.3501
751.5784, 809.5981
752.0605, 791.4485
752.5426, 782.8725
753.0247, 792.0430
753.5068, 806.0906
753.9890, 819.8271
754.4711, 832.0167
754.9532, 839.2225
755.4353, 838.4072
755.9174, 836.9562
756.3995, 842.7636
756.8817, 847.5910
757.3638, 837.6229
757.8459, 815.3300
758.3280, 797.4324
758.8101, 794.8381
759.2922, 799.8611
759.7744, 794.6476
760.2565, 777.5199
760.7386, 767.9188
761.2207, 771.4130
761.7028, 775.2026
762.1849, 771.4099
762.6671, 761.9825
763.1492, 751.8748
763.6313, 739.8359
764.1134, 730.2488
764.5955, 725.4208
765.0776, 722.2644
765.5598, 720.2708
766.0419, 717.7641
766.5240, 711.5829
767.0061, 700.3283
767.4882, 686.0745
767.9703, 669.8596
768.4525, 652.5601
768.9346, 639.5216
769.4167, 631.1898
769.8988, 627.0789
770.3809, 629.3304
770.8630, 632.5742
771.3452, 625.3371
771.8273, 600.8701
772.3094, 585.6227
772.7915, 588.0776
773.2736, 589.8459
773.7557, 580.2203
774.2379, 567.0018
774.7200, 562.7837
775.2021, 569.9907
775.6842, 575.6595
776.1663, 566.2242
776.6484, 551.2874
777.1306, 547.3144
777.6127, 552.6138
778.0948, 556.8870
778.5769, 556.4907
779.0590, 553.5266
779.5411, 550.2104
780.0233, 546.5012
780.5054, 545.1524
780.9875, 550.9609
781.4696, 551.1053
781.9517, 536.8279
782.4338, 520.1025
782.9160, 509.1707
783.3981, 504.5719
783.8802, 505.5372
784.3623, 517.9741
784.8444, 529.3916
785.3265, 530.3772
785.8087, 525.6576
786.2908, 521.9418
786.7729, 520.6851
787.2550, 520.9301
787.7371, 522.2888
788.2192, 523.8980
788.7014, 523.5711
789.1835, 521.3996
789.6656, 515.4562
790.1477, 502.6624
790.6298, 492.0616
791.1119, 492.2300
791.5941, 500.6218
792.0762, 504.8713
792.5583, 498.4809
793.0404, 498.3233
793.5225, 515.5741
794.0046, 532.1541
794.4868, 533.5889
794.9689, 524.0632
795.4510, 514.6746
795.9331, 509.6754
796.4152, 508.9493
796.8973, 515.3343
797.3795, 525.3372
797.8616, 529.4981
798.3437, 527.4166
798.8258, 524.5491
799.3079, 523.6486
799.7900, 523.2289
800.2722, 520.2155
800.7543, 513.2729
801.2364, 509.8714
801.7185, 511.2695
802.2006, 514.6174
802.6827, 520.9216
803.1649, 527.4296
803.6470, 530.3045
804.1291, 529.2159
804.6112, 529.6891
805.0933, 538.1511
805.5754, 544.6889
806.0576, 536.5693
806.5397, 523.0270
807.0218, 521.9455
807.5039, 536.2607
807.9860, 553.8338
808.4681, 565.7260
808.9503, 570.7554
809.4324, 560.2352
809.9145, 532.5172
810.3966, 520.2577
810.8787, 535.4943
811.3608, 554.8958
811.8430, 556.1698
812.3251, 543.1536
812.8072, 544.7925
813.2893, 580.4874
813.7714, 602.4053
814.2535, 595.1584
814.7357, 583.6810
815.2178, 582.9357
815.6999, 591.2999
816.1820, 602.3771
816.6641, 614.5789
817.1462, 625.6875
817.6284, 630.9059
818.1105, 635.3451
818.5926, 650.3216
819.0747, 673.8511
819.5568, 691.6201
820.0389, 696.6803
820.5211, 697.1037
821.0032, 705.7847
821.4853, 723.2791
821.9674, 739.6571
822.4495, 753.5797
822.9316, 770.0757
823.4138, 793.5128
823.8959, 818.2227
824.3780, 836.4796
824.8601, 848.2765
825.3422, 859.6570
825.8243, 869.7017
826.3065, 881.3463
826.7886, 898.4813
827.2707, 916.0187
827.7528, 928.6321
828.2349, 935.9596
828.7170, 940.2892
829.1992, 941.1235
829.6813, 943.0506
830.1633, 958.5302
830.6454, 980.2914
831.1276, 980.4513
831.6097, 955.5267
832.0918, 930.9516
832.5739, 925.0208
833.0560, 928.9921
833.5381, 916.8009
834.0203, 880.1268
834.5024, 856.1384
834.9845, 852.4381
835.4666, 852.1508
835.9487, 851.7481
836.4308, 847.6790
836.9130, 832.2793
837.3951, 802.1718
837.8772, 777.4747
838.3593, 760.7524
838.8414, 753.4262
839.3235, 764.4801
839.8057, 781.9416
840.2878, 786.2626
840.7699, 774.5662
841.2520, 763.9824
841.7341, 773.2522
842.2162, 788.3689
842.6984, 779.6993
843.1805, 752.2382
843.6626, 731.9425
844.1447, 725.0031
844.6268, 722.5242
845.1089, 716.5238
845.5911, 709.2220
846.0732, 711.8611
846.5553, 730.4618
847.0374, 742.4406
847.5195, 740.9642
848.0016, 738.4381
848.4838, 743.7562
848.9659, 752.5887
849.4480, 756.1273
849.9301, 751.7379
850.4122, 748.2151
850.8943, 745.1851
851.3765, 746.4723
851.8586, 757.7385
852.3407, 774.1112
852.8228, 786.9859
853.3049, 794.1549
853.7870, 800.7975
854.2692, 813.1364
854.7513, 827.0768
855.2334, 834.4172
855.7155, 836.1905
856.1976, 836.4001
856.6797, 836.0463
857.1619, 836.5453
857.6440, 835.9815
858.1261, 839.9799
858.6082, 885.1253
859.0903, 994.4963
859.5724, 1071.610
860.0546, 1102.285
860.5367, 1101.437
861.0188, 1059.070
861.5009, 995.3962
861.9830, 960.7823
862.4651, 969.2087
862.9473, 975.3090
863.4294, 969.5157
863.9115, 960.3729
864.3936, 949.1962
864.8757, 939.6045
865.3578, 939.3223
865.8400, 949.4256
866.3221, 955.7219
866.8042, 945.2427
867.2863, 926.6758
867.7684, 909.1110
868.2505, 893.6711
868.7327, 882.7547
869.2148, 876.9992
869.6969, 876.9936
870.1790, 883.8119
870.6611, 895.8308
871.1432, 908.2725
871.6254, 921.6443
872.1075, 931.0904
872.5896, 935.1978
873.0717, 936.9860
873.5538, 936.2714
874.0359, 935.6257
874.5181, 942.4543
875.0002, 961.8872
875.4823, 977.6329
875.9644, 987.7960
876.4465, 996.2643
876.9286, 1003.900
877.4108, 1011.132
877.8929, 1017.021
878.3750, 1021.823
878.8571, 1031.087
879.3392, 1052.702
879.8214, 1074.759
880.3035, 1082.891
880.7856, 1087.067
881.2677, 1110.542
881.7498, 1151.113
882.2319, 1176.626
882.7141, 1162.793
883.1962, 1129.695
883.6783, 1112.063
884.1604, 1107.912
884.6425, 1103.336
885.1246, 1096.526
885.6068, 1097.108
886.0889, 1112.556
886.5710, 1132.041
887.0531, 1133.223
887.5352, 1110.163
888.0173, 1103.864
888.4995, 1128.255
888.9816, 1145.460
889.4637, 1134.012
889.9458, 1117.603
890.4279, 1122.739
890.9100, 1147.363
891.3922, 1162.426
891.8743, 1157.506
892.3564, 1150.822
892.8385, 1145.135
893.3206, 1142.389
893.8027, 1141.905
894.2849, 1145.946
894.7670, 1163.188
895.2491, 1200.815
895.7312, 1231.383
896.2133, 1225.348
896.6954, 1201.337
897.1776, 1183.643
897.6597, 1174.198
898.1418, 1174.997
898.6239, 1186.185
899.1060, 1196.978
899.5881, 1194.127
900.0703, 1181.294
900.5524, 1174.501
901.0345, 1173.761
901.5166, 1180.583
901.9987, 1198.363
902.4808, 1211.537
902.9630, 1204.789
903.4451, 1184.636
903.9272, 1178.079
904.4093, 1189.480
904.8914, 1205.475
905.3735, 1226.926
905.8557, 1251.609
906.3378, 1279.688
906.8199, 1309.872
907.3020, 1339.931
907.7841, 1369.693
908.2662, 1400.612
908.7484, 1424.103
909.2305, 1459.259
909.7126, 1527.896
910.1947, 1605.600
910.6768, 1663.327
911.1589, 1700.460
911.6411, 1734.306
912.1232, 1771.742
912.6053, 1814.290
913.0874, 1866.240
913.5695, 1922.998
914.0516, 1980.025
914.5338, 2034.669
915.0159, 2079.473
915.4980, 2110.911
915.9801, 2134.818
916.4622, 2159.572
916.9443, 2184.117
917.4265, 2200.181
917.9086, 2207.372
918.3907, 2216.939
918.8728, 2235.010
919.3549, 2244.968
919.8370, 2230.727
920.3192, 2194.210
920.8013, 2147.109
921.2834, 2081.200
921.7655, 2024.375
922.2476, 1984.272
922.7297, 1947.092
923.2119, 1908.793
923.6940, 1867.117
924.1761, 1816.823
924.6582, 1754.708
925.1403, 1697.518
925.6224, 1649.998
926.1046, 1604.962
926.5867, 1559.464
927.0688, 1515.052
927.5509, 1472.735
928.0330, 1432.981
928.5151, 1396.684
928.9973, 1363.369
929.4794, 1335.062
929.9615, 1317.502
930.4436, 1302.901
930.9257, 1278.891
931.4078, 1248.155
931.8900, 1223.402
932.3721, 1210.056
932.8542, 1199.093
933.3363, 1178.945
933.8184, 1153.716
934.3005, 1133.483
934.7827, 1118.259
935.2648, 1108.757
935.7469, 1105.179
936.2290, 1099.828
936.7111, 1085.317
937.1932, 1064.464
937.6754, 1046.540
938.1575, 1031.462
938.6396, 1021.288
939.1217, 1017.773
939.6038, 1014.415
940.0859, 1007.324
940.5681, 998.8915
941.0502, 994.0179
941.5323, 994.2329
942.0144, 989.8494
942.4965, 973.1929
942.9786, 962.9888
943.4608, 971.6116
943.9429, 981.0774
944.4250, 973.3722
944.9071, 952.9203
945.3892, 941.1583
945.8713, 945.6983
946.3535, 951.2877
946.8356, 956.3322
947.3177, 958.8278
947.7998, 953.2578
948.2819, 945.7581
948.7640, 948.0387
949.2462, 962.5394
949.7283, 976.0411
950.2104, 979.4813
950.6925, 979.8919
951.1746, 982.0407
951.6567, 986.1423
952.1389, 992.9462
952.6210, 1002.050
953.1031, 1011.880
953.5852, 1021.994
954.0673, 1029.916
954.5494, 1030.959
955.0316, 1027.552
955.5137, 1024.977
955.9958, 1023.976
956.4779, 1028.861
956.9600, 1041.273
957.4421, 1048.270
957.9243, 1031.474
958.4064, 999.7465
958.8885, 999.0152
959.3706, 1031.615
959.8527, 1049.534
960.3348, 1041.858
960.8170, 1032.654
961.2991, 1037.593
961.7812, 1051.623
962.2633, 1062.614
962.7454, 1068.653
963.2275, 1080.381
963.7097, 1098.228
964.1918, 1120.999
964.6739, 1149.589
965.1560, 1181.705
965.6381, 1214.418
966.1202, 1248.095
966.6024, 1286.329
967.0845, 1328.286
967.5666, 1376.069
968.0487, 1432.950
968.5308, 1492.098
969.0129, 1548.590
969.4951, 1605.085
969.9772, 1668.584
970.4593, 1740.481
970.9414, 1808.442
971.4235, 1862.000
971.9056, 1917.685
972.3878, 1996.131
972.8699, 2072.841
973.3520, 2117.402
973.8341, 2133.879
974.3162, 2151.108
974.7983, 2184.807
975.2805, 2208.820
975.7626, 2195.086
976.2447, 2166.953
976.7268, 2150.616
977.2089, 2143.254
977.6910, 2132.582
978.1732, 2116.104
978.6553, 2103.861
979.1374, 2102.951
979.6195, 2112.314
980.1016, 2134.361
980.5837, 2164.744
981.0659, 2190.932
981.5480, 2211.794
982.0301, 2231.310
982.5122, 2251.506
982.9943, 2272.938
983.4764, 2298.477
983.9586, 2326.200
984.4407, 2345.807
984.9228, 2357.389
985.4049, 2356.756
985.8870, 2342.012
986.3691, 2323.540
986.8513, 2310.286
987.3334, 2298.582
987.8155, 2276.854
988.2976, 2244.314
988.7797, 2206.210
989.2618, 2160.457
989.7440, 2114.502
990.2261, 2065.807
990.7082, 2027.485
991.1903, 2016.685
991.6724, 2032.951
992.1545, 2056.595
992.6367, 2087.848
993.1188, 2125.446
993.6009, 2162.541
994.0830, 2214.543
994.5651, 2284.590
995.0472, 2377.668
995.5294, 2505.333
996.0115, 2671.067
996.4936, 2854.076
996.9757, 3037.315
997.4578, 3258.412
997.9399, 3540.197
998.4221, 3852.843
998.9042, 4176.490
999.3863, 4509.340
999.8684, 4861.576
1000.351, 5258.653
1000.833, 5618.195
1001.315, 5945.029
1001.797, 6202.268
1002.279, 6377.008
1002.761, 6465.582
1003.243, 6474.729
1003.725, 6400.155
1004.207, 6206.653
1004.690, 5839.274
1005.172, 5406.428
1005.654, 4938.141
1006.136, 4461.159
1006.618, 3991.978
1007.100, 3542.152
1007.582, 3122.261
1008.064, 2737.280
1008.547, 2406.576
1009.029, 2165.189
1009.511, 1970.457
1009.993, 1779.299
1010.475, 1604.808
1010.957, 1470.092
1011.439, 1373.838
1011.921, 1298.419
1012.403, 1235.944
1012.886, 1180.327
1013.368, 1123.739
1013.850, 1070.274
1014.332, 1024.845
1014.814, 988.8813
1015.296, 970.0049
1015.778, 967.4296
1016.260, 961.5790
1016.742, 936.4167
1017.225, 904.9402
1017.707, 891.2502
1018.189, 890.6114
1018.671, 887.4965
1019.153, 880.3982
1019.635, 864.9417
1020.117, 839.5034
1020.599, 818.9948
1021.082, 820.7553
1021.564, 837.0540
1022.046, 841.9566
1022.528, 836.2734
1023.010, 829.9182
1023.492, 823.8989
1023.974, 827.4949
1024.456, 846.6668
1024.938, 871.2135
1025.421, 886.3722
1025.903, 892.6978
1026.385, 896.6422
1026.867, 897.6831
1027.349, 900.5075
1027.831, 905.0984
1028.313, 916.7004
1028.795, 940.3520
1029.278, 970.6164
1029.760, 995.9020
1030.242, 1016.570
1030.724, 1028.732
1031.206, 1027.786
1031.688, 1035.076
1032.170, 1060.050
1032.652, 1086.646
1033.135, 1099.784
1033.617, 1103.600
1034.099, 1115.638
1034.581, 1145.787
1035.063, 1153.184
1035.545, 1121.778
1036.027, 1100.403
1036.509, 1114.858
1036.991, 1136.589
1037.474, 1132.750
1037.956, 1106.426
1038.438, 1090.452
1038.920, 1094.827
1039.402, 1090.020
1039.884, 1068.356
1040.366, 1045.811
1040.848, 1025.190
1041.330, 1010.446
1041.813, 1008.284
1042.295, 1019.262
1042.777, 1030.617
1043.259, 1040.966
1043.741, 1053.648
1044.223, 1064.438
1044.705, 1082.475
1045.187, 1119.607
1045.670, 1164.502
1046.152, 1195.533
1046.634, 1208.803
1047.116, 1231.783
1047.598, 1268.188
1048.080, 1312.260
1048.562, 1368.866
1049.044, 1426.793
1049.526, 1485.396
1050.009, 1537.788
1050.491, 1568.074
1050.973, 1569.304
1051.455, 1572.443
1051.937, 1593.785
1052.419, 1603.564
1052.901, 1587.019
1053.383, 1558.065
1053.865, 1526.257
1054.348, 1492.981
1054.830, 1459.842
1055.312, 1428.796
1055.794, 1392.796
1056.276, 1347.514
1056.758, 1300.034
1057.240, 1247.625
1057.722, 1199.357
1058.205, 1164.374
1058.687, 1142.225
1059.169, 1128.214
1059.651, 1123.804
1060.133, 1121.210
1060.615, 1115.059
1061.097, 1113.263
1061.579, 1124.245
1062.062, 1139.879
1062.544, 1148.073
1063.026, 1149.715
1063.508, 1158.475
1063.990, 1181.411
1064.472, 1206.647
1064.954, 1225.951
1065.436, 1249.817
1065.918, 1287.690
1066.401, 1333.590
1066.883, 1377.963
1067.365, 1420.096
1067.847, 1467.159
1068.329, 1521.668
1068.811, 1582.248
1069.293, 1652.342
1069.775, 1724.066
1070.257, 1786.844
1070.740, 1848.880
1071.222, 1925.571
1071.704, 2018.788
1072.186, 2112.827
1072.668, 2201.833
1073.150, 2290.051
1073.632, 2380.925
1074.114, 2470.138
1074.597, 2556.997
1075.079, 2637.618
1075.561, 2708.255
1076.043, 2767.546
1076.525, 2809.912
1077.007, 2832.389
1077.489, 2838.002
1077.971, 2827.611
1078.453, 2801.646
1078.936, 2758.627
1079.418, 2700.975
1079.900, 2630.055
1080.382, 2546.312
1080.864, 2464.349
1081.346, 2403.139
1081.828, 2330.376
1082.310, 2219.445
1082.792, 2097.556
1083.275, 1986.094
1083.757, 1886.936
1084.239, 1800.573
1084.721, 1727.531
1085.203, 1656.567
1085.685, 1580.331
1086.167, 1507.909
1086.649, 1446.240
1087.131, 1388.927
1087.614, 1326.196
1088.096, 1263.167
1088.578, 1214.974
1089.060, 1186.258
1089.542, 1155.611
1090.024, 1106.223
1090.506, 1062.413
1090.988, 1042.669
1091.471, 1029.098
1091.953, 1005.874
1092.435, 974.0416
1092.917, 938.2652
1093.399, 898.2191
1093.881, 868.3951
1094.363, 863.2720
1094.845, 858.2982
1095.328, 836.1218
1095.810, 813.3661
1096.292, 808.6971
1096.774, 815.8988
1097.256, 817.0320
1097.738, 807.6522
1098.220, 797.0759
1098.702, 789.9379
1099.184, 780.1639
1099.667, 762.2479
1100.149, 743.0701
1100.631, 726.9183
1101.113, 714.9776
1101.595, 708.6921
1102.077, 708.3724
1102.559, 713.3943
1103.041, 733.8396
1103.523, 746.3150
1104.006, 732.2579
1104.488, 715.6182
1104.970, 718.5756
1105.452, 734.5514
1105.934, 745.0088
1106.416, 746.6481
1106.898, 747.7606
1107.380, 748.7287
1107.863, 750.7582
1108.345, 754.5217
1108.827, 759.1920
1109.309, 764.3367
1109.791, 769.8296
1110.273, 776.6037
1110.755, 786.6019
1111.237, 788.7386
1111.719, 772.0093
1112.202, 761.1492
1112.684, 769.1681
1113.166, 777.6566
1113.648, 772.5905
1114.130, 758.9553
1114.612, 747.9919
1115.094, 740.1666
1115.576, 733.6356
1116.058, 726.2559
1116.541, 723.6162
1117.023, 733.6113
1117.505, 740.2865
1117.987, 732.7305
1118.469, 715.5223
1118.951, 695.9645
1119.433, 672.2410
1119.915, 660.0256
1120.398, 666.2233
1120.880, 669.3018
1121.362, 663.7368
1121.844, 658.1050
1122.326, 658.8235
1122.808, 661.2034
1123.290, 655.7725
1123.772, 641.7836
1124.255, 637.0577
1124.737, 645.7675
1125.219, 650.4128
1125.701, 647.5688
1126.183, 642.6143
1126.665, 638.0881
1127.147, 633.8458
1127.629, 629.3609
1128.111, 624.7952
1128.594, 623.3429
1129.076, 625.5743
1129.558, 627.4025
1130.040, 628.4907
1130.522, 627.9567
1131.004, 625.1366
1131.486, 621.2573
1131.968, 617.3041
1132.450, 614.0930
1132.933, 617.9550
1133.415, 628.8004
1133.897, 633.2911
1134.379, 629.8204
1134.861, 627.9490
1135.343, 631.6816
1135.825, 640.4225
1136.307, 656.0095
1136.790, 672.2222
1137.272, 666.1992
1137.754, 643.3748
1138.236, 636.4791
1138.718, 646.3256
1139.200, 653.8406
1139.682, 652.5980
1140.164, 654.7224
1140.646, 673.7512
1141.129, 696.1942
1141.611, 693.4305
1142.093, 676.2756
1142.575, 673.3721
1143.057, 682.7596
1143.539, 689.0571
1144.021, 688.7881
1144.503, 691.1220
1144.985, 703.3993
1145.468, 718.0162
1145.950, 725.9407
1146.432, 730.3984
1146.914, 735.2195
1147.396, 740.8222
1147.878, 747.2175
1148.360, 754.5284
1148.842, 763.1305
1149.325, 773.1026
1149.807, 784.9356
1150.289, 799.9453
1150.771, 816.0013
1151.253, 832.4184
1151.735, 847.7905
1152.217, 857.1498
1152.699, 863.5718
1153.182, 879.6133
1153.664, 911.9429
1154.146, 940.6975
1154.628, 948.9370
1155.110, 959.8445
1155.592, 989.5573
1156.074, 1025.798
1156.556, 1058.392
1157.038, 1086.433
1157.521, 1109.121
1158.003, 1124.507
1158.485, 1147.356
1158.967, 1185.626
1159.449, 1225.104
1159.931, 1261.224
1160.413, 1297.477
1160.895, 1333.038
1161.377, 1371.791
1161.860, 1424.161
1162.342, 1492.545
1162.824, 1547.956
1163.306, 1580.303
1163.788, 1618.277
1164.270, 1667.988
1164.752, 1718.194
1165.234, 1763.571
1165.717, 1807.344
1166.199, 1854.988
1166.681, 1905.228
1167.163, 1947.058
1167.645, 1982.180
1168.127, 2000.363
1168.609, 1997.711
1169.091, 1992.507
1169.573, 1991.876
1170.056, 1989.291
1170.538, 1978.302
1171.020, 1960.611
1171.502, 1939.025
1171.984, 1914.281
1172.466, 1902.797
1172.948, 1903.934
1173.430, 1885.884
1173.912, 1841.222
1174.395, 1804.228
1174.877, 1800.838
1175.359, 1806.566
1175.841, 1777.994
1176.323, 1729.984
1176.805, 1705.665
1177.287, 1695.460
1177.769, 1665.942
1178.252, 1615.452
1178.734, 1565.408
1179.216, 1525.572
1179.698, 1493.179
1180.180, 1471.836
1180.662, 1450.156
1181.144, 1413.701
1181.626, 1369.362
1182.109, 1322.339
1182.591, 1277.522
1183.073, 1247.229
1183.555, 1233.475
1184.037, 1213.011
1184.519, 1162.808
1185.001, 1117.348
1185.483, 1098.616
1185.965, 1086.977
1186.448, 1068.872
1186.930, 1046.897
1187.412, 1027.489
1187.894, 1010.350
1188.376, 986.8842
1188.858, 945.9169
1189.340, 916.1932
1189.822, 910.0554
1190.304, 904.9747
1190.787, 890.5198
1191.269, 875.2347
1191.751, 867.2423
1192.233, 864.2469
1192.715, 859.0372
1193.197, 851.4857
1193.679, 842.3674
1194.161, 831.6622
1194.644, 818.2023
1195.126, 798.6710
1195.608, 787.0883
1196.090, 794.5837
1196.572, 808.9830
1197.054, 809.9369
1197.536, 799.0819
1198.018, 788.2509
1198.500, 777.5352
1198.983, 766.6177
1199.465, 755.7607
1199.947, 751.3967
1200.429, 756.1240
1200.911, 763.9924
1201.393, 769.9949
1201.875, 773.5713
1202.357, 773.3173
1202.839, 769.9742
1203.322, 763.7975
1203.804, 756.2502
1204.286, 752.1907
1204.768, 751.5677
1205.250, 747.1703
1205.732, 733.6703
1206.214, 721.0870
1206.696, 719.9412
1207.179, 720.4757
1207.661, 713.1639
1208.143, 703.0077
1208.625, 696.3813
1209.107, 693.1512
1209.589, 690.8237
1210.071, 689.0077
1210.553, 686.4428
1211.036, 683.7160
1211.518, 678.8524
1212.000, 668.9755
1212.482, 659.1752
1212.964, 651.6739
1213.446, 646.8904
1213.928, 645.9139
1214.410, 648.5225
1214.892, 649.4930
1215.375, 647.0360
1215.857, 648.6592
1216.339, 658.1461
1216.821, 661.0015
1217.303, 650.5244
1217.785, 637.0384
1218.267, 629.8121
1218.749, 626.2326
1219.231, 618.8575
1219.714, 608.2925
1220.196, 604.1177
1220.678, 605.9686
1221.160, 609.9885
1221.642, 615.0478
1222.124, 618.1030
1222.606, 617.5013
1223.088, 615.6287
1223.571, 616.2932
1224.053, 616.2359
1224.535, 607.3963
1225.017, 595.8368
1225.499, 592.8350
1225.981, 596.2787
1226.463, 597.5348
1226.945, 595.0635
1227.427, 596.1494
1227.910, 608.6620
1228.392, 616.4381
1228.874, 605.4442
1229.356, 592.8184
1229.838, 589.1356
1230.320, 590.6805
1230.802, 595.4036
1231.284, 600.9091
1231.766, 599.8801
1232.249, 589.0129
1232.731, 580.8347
1233.213, 573.8995
1233.695, 573.1360
1234.177, 582.1089
1234.659, 592.7335
1235.141, 601.8649
1235.623, 608.0762
1236.106, 608.9965
1236.588, 605.2549
1237.070, 600.8104
1237.552, 595.6185
1238.034, 589.9929
1238.516, 584.0044
1238.998, 581.2438
1239.480, 582.7714
1239.963, 586.5248
1240.445, 591.1623
1240.927, 595.9265
1241.409, 601.9282
1241.891, 605.7900
1242.373, 598.5330
1242.855, 585.3379
1243.337, 575.6843
1243.819, 570.9927
1244.302, 570.4885
1244.784, 573.8807
1245.266, 577.9434
1245.748, 581.6893
1246.230, 584.4647
1246.712, 589.9395
1247.194, 590.1696
1247.676, 570.6317
1248.158, 547.5215
1248.641, 547.0062
1249.123, 566.6437
1249.605, 575.0964
1250.087, 563.5247
1250.569, 558.8724
1251.051, 565.9977
1251.533, 568.9950
1252.015, 561.3367
1252.498, 555.8864
1252.980, 562.3218
1253.462, 572.8382
1253.944, 573.8284
1254.426, 567.2391
1254.908, 565.9675
1255.390, 569.2540
1255.872, 569.1744
1256.354, 565.6838
1256.837, 566.1248
1257.319, 572.3216
1257.801, 575.4734
1258.283, 567.7562
1258.765, 558.7784
1259.247, 561.7302
1259.729, 567.6722
1260.211, 563.6031
1260.693, 556.4388
1261.176, 561.4229
1261.658, 573.2715
1262.140, 568.3692
1262.622, 538.5132
1263.104, 523.4587
1263.586, 551.3710
1264.068, 572.8493
1264.550, 571.6176
1265.033, 563.8839
1265.515, 554.0040
1265.997, 546.0385
1266.479, 545.8426
1266.961, 551.0081
1267.443, 549.9990
1267.925, 540.7020
1268.407, 538.2781
1268.890, 543.4304
1269.372, 549.7252
1269.854, 555.9291
1270.336, 558.2621
1270.818, 554.3645
1271.300, 549.1644
1271.782, 549.1096
1272.264, 551.4000
1272.746, 550.7402
1273.229, 548.2432
1273.711, 545.6581
1274.193, 543.2823
1274.675, 541.3477
1275.157, 539.8503
1275.639, 538.3563
1276.121, 536.4092
1276.603, 535.4261
1277.085, 536.5365
1277.568, 538.2106
1278.050, 540.1864
1278.532, 541.9165
1279.014, 542.3839
1279.496, 542.5828
1279.978, 544.9091
1280.460, 549.3106
1280.942, 550.9357
1281.425, 549.2177
1281.907, 546.6514
##END=



