##NAMES=Romarchite
##RRUFFID=R080006
##IDEAL CHEMISTRY=SnO
##LOCALITY=Boundary Falls, Winnipeg River, Ontario, Canada
##OWNER=RRUFF
##SOURCE=Royal Ontario Museum
##DESCRIPTION=Incrusted lustrous black crystals, reported to be fine-grained psuedomorphs of an unknown phase. Co-type material.
##STATUS=The identification of this mineral has been confirmed by X-ray diffraction and chemical analysis
##URL=rruff.info/R080006
##MEASURED CHEMISTRY=Sn_1.00_O
121.3690, 219.8999
121.8511, 220.4382
122.3332, 221.8329
122.8154, 223.2971
123.2975, 224.4969
123.7796, 225.5283
124.2617, 226.4475
124.7438, 227.1415
125.2259, 227.9612
125.7081, 229.3874
126.1902, 231.1790
126.6723, 231.7402
127.1544, 230.9192
127.6365, 229.8671
128.1186, 229.0362
128.6008, 228.5337
129.0829, 228.2819
129.5650, 228.3749
130.0471, 228.7809
130.5292, 228.9433
131.0113, 228.3231
131.4935, 227.0495
131.9756, 225.6046
132.4577, 223.9578
132.9398, 222.2854
133.4219, 221.1817
133.9040, 220.6615
134.3862, 220.4427
134.8683, 220.3735
135.3504, 220.4467
135.8325, 220.2659
136.3146, 219.4756
136.7967, 218.1971
137.2789, 217.7839
137.7610, 218.4474
138.2431, 219.4444
138.7252, 219.8449
139.2073, 219.6241
139.6894, 218.9536
140.1716, 217.7431
140.6537, 215.8605
141.1358, 214.3821
141.6179, 213.3462
142.1000, 212.6347
142.5821, 212.0569
143.0643, 211.6284
143.5464, 211.2879
144.0285, 211.0069
144.5106, 210.7813
144.9927, 210.6377
145.4748, 210.6295
145.9570, 210.6949
146.4391, 210.6466
146.9212, 210.3828
147.4033, 210.1274
147.8854, 209.9983
148.3675, 210.2439
148.8497, 210.2162
149.3318, 209.7211
149.8139, 208.8812
150.2960, 208.3154
150.7781, 208.2292
151.2602, 208.2643
151.7424, 208.2290
152.2245, 208.1081
152.7066, 207.9325
153.1887, 207.7030
153.6708, 207.4199
154.1529, 207.0788
154.6351, 206.5987
155.1172, 206.1011
155.5993, 205.6678
156.0814, 205.5147
156.5635, 205.2102
157.0456, 204.4514
157.5278, 203.2472
158.0099, 202.5533
158.4920, 202.9045
158.9741, 203.6880
159.4562, 204.3584
159.9383, 204.5423
160.4205, 204.8218
160.9026, 205.5307
161.3847, 206.7224
161.8668, 207.6511
162.3489, 207.9102
162.8310, 207.8162
163.3132, 207.7365
163.7953, 207.5741
164.2774, 207.6249
164.7595, 208.1087
165.2416, 209.0935
165.7237, 210.1243
166.2059, 210.9180
166.6880, 211.6254
167.1701, 212.4773
167.6522, 213.8597
168.1343, 215.2360
168.6164, 216.0987
169.0986, 216.2537
169.5807, 216.5627
170.0628, 217.7367
170.5449, 219.4771
171.0270, 221.1938
171.5091, 222.6104
171.9913, 223.8609
172.4734, 225.0560
172.9555, 226.2024
173.4376, 227.3503
173.9197, 228.4990
174.4018, 229.6793
174.8840, 230.9686
175.3661, 232.3652
175.8482, 233.8974
176.3303, 235.6099
176.8124, 237.5416
177.2945, 239.5910
177.7767, 241.6329
178.2588, 243.7048
178.7409, 245.8758
179.2230, 248.3181
179.7051, 250.8997
180.1872, 253.2925
180.6694, 255.3521
181.1515, 257.4117
181.6336, 259.9445
182.1157, 262.9059
182.5978, 265.9673
183.0799, 268.8838
183.5621, 271.7531
184.0442, 274.8054
184.5263, 278.1853
185.0084, 281.6739
185.4905, 284.9101
185.9726, 287.8934
186.4547, 290.9647
186.9369, 294.5228
187.4190, 298.4550
187.9011, 302.0894
188.3832, 305.1985
188.8653, 308.0740
189.3474, 311.3672
189.8296, 315.1162
190.3117, 319.0897
190.7938, 323.1666
191.2759, 327.3383
191.7580, 331.5164
192.2401, 335.7671
192.7223, 340.0101
193.2044, 344.0720
193.6865, 347.9928
194.1686, 351.7182
194.6507, 354.9391
195.1328, 357.6923
195.6150, 360.9922
196.0971, 365.3041
196.5792, 370.2585
197.0613, 374.3391
197.5434, 377.4135
198.0255, 380.1856
198.5077, 383.3152
198.9898, 386.8399
199.4719, 390.0686
199.9540, 392.7931
200.4361, 395.0756
200.9182, 397.4161
201.4004, 399.9205
201.8825, 402.1254
202.3646, 403.5728
202.8467, 404.2267
203.3288, 404.3495
203.8109, 403.8942
204.2931, 402.9274
204.7752, 402.1164
205.2573, 401.6659
205.7394, 400.8895
206.2215, 398.9951
206.7036, 395.8643
207.1858, 392.3346
207.6679, 388.5390
208.1500, 384.4900
208.6321, 380.4536
209.1142, 376.5716
209.5963, 372.4369
210.0785, 367.5351
210.5606, 361.7457
211.0427, 355.7448
211.5248, 349.5975
212.0069, 343.3102
212.4890, 337.1283
212.9712, 331.0638
213.4533, 325.0637
213.9354, 319.1415
214.4175, 313.2294
214.8996, 307.4440
215.3817, 301.7354
215.8639, 296.1504
216.3460, 290.7584
216.8281, 285.6109
217.3102, 280.5603
217.7923, 275.4741
218.2744, 270.2109
218.7566, 265.1466
219.2387, 260.4527
219.7208, 256.0857
220.2029, 252.0158
220.6850, 248.4153
221.1671, 244.9471
221.6493, 241.2467
222.1314, 237.0446
222.6135, 233.1395
223.0956, 229.7581
223.5777, 226.8581
224.0598, 224.4852
224.5420, 222.9215
225.0241, 221.5513
225.5062, 219.6311
225.9883, 216.8294
226.4704, 214.2122
226.9525, 212.1477
227.4347, 210.6428
227.9168, 208.7674
228.3989, 206.1918
228.8810, 203.5972
229.3631, 201.8062
229.8452, 201.3058
230.3274, 200.6075
230.8095, 199.3721
231.2916, 197.5806
231.7737, 195.7856
232.2558, 193.9106
232.7379, 192.1118
233.2201, 190.5664
233.7022, 189.3048
234.1843, 188.2570
234.6664, 187.5423
235.1485, 187.1767
235.6306, 186.3616
236.1128, 184.8033
236.5949, 183.0835
237.0770, 181.7553
237.5591, 181.0073
238.0412, 180.2872
238.5233, 179.5000
239.0055, 178.6427
239.4876, 177.8308
239.9697, 177.0041
240.4518, 176.2816
240.9339, 175.8067
241.4160, 175.7954
241.8982, 175.6068
242.3803, 175.0935
242.8624, 174.2626
243.3445, 173.4458
243.8266, 172.4817
244.3087, 171.7030
244.7909, 171.4714
245.2730, 172.2784
245.7551, 172.6185
246.2372, 172.0735
246.7193, 170.7354
247.2014, 169.9289
247.6836, 169.9799
248.1657, 170.1729
248.6478, 169.9480
249.1299, 169.0808
249.6120, 168.2748
250.0941, 167.5891
250.5762, 167.0276
251.0584, 166.6636
251.5405, 166.7140
252.0226, 166.6798
252.5047, 166.1332
252.9868, 164.6594
253.4689, 163.6743
253.9511, 163.5214
254.4332, 164.0154
254.9153, 164.0852
255.3974, 163.6024
255.8795, 162.9047
256.3617, 162.1476
256.8438, 161.1745
257.3259, 160.5632
257.8080, 160.4890
258.2901, 160.8011
258.7722, 160.9075
259.2544, 160.7504
259.7365, 160.4799
260.2186, 160.1176
260.7007, 159.5349
261.1828, 159.2728
261.6649, 159.4890
262.1471, 159.9984
262.6292, 160.2428
263.1113, 160.1200
263.5934, 159.9270
264.0755, 159.7972
264.5576, 159.7245
265.0398, 159.7417
265.5219, 159.8995
266.0040, 160.1159
266.4861, 160.2230
266.9682, 160.2412
267.4503, 160.1021
267.9325, 159.7119
268.4146, 158.9617
268.8967, 158.4579
269.3788, 158.2378
269.8609, 158.2305
270.3430, 158.3603
270.8252, 158.6981
271.3073, 158.9360
271.7894, 158.8906
272.2715, 158.5211
272.7536, 158.3304
273.2357, 158.3833
273.7179, 158.5188
274.2000, 158.4688
274.6821, 158.1828
275.1642, 157.9265
275.6463, 157.7912
276.1284, 157.7760
276.6106, 157.8185
277.0927, 157.9494
277.5748, 158.0704
278.0569, 158.0464
278.5390, 157.8648
279.0211, 157.6492
279.5032, 157.4021
279.9854, 157.1437
280.4675, 157.0557
280.9496, 157.1752
281.4317, 157.3467
281.9138, 157.3775
282.3959, 157.2605
282.8781, 157.2367
283.3602, 157.4480
283.8423, 157.7902
284.3244, 157.7782
284.8065, 157.3778
285.2886, 156.8430
285.7708, 156.3944
286.2529, 156.0247
286.7350, 155.5735
287.2171, 154.8744
287.6992, 154.1607
288.1813, 154.2596
288.6635, 155.2137
289.1456, 156.1567
289.6277, 156.2977
290.1098, 155.7616
290.5919, 155.4151
291.0740, 155.4541
291.5562, 155.6524
292.0383, 155.5458
292.5204, 155.1466
293.0025, 154.7368
293.4846, 154.4780
293.9667, 154.3540
294.4489, 154.3118
294.9310, 154.3521
295.4131, 154.4618
295.8952, 154.7647
296.3773, 155.1977
296.8594, 155.3597
297.3416, 154.7310
297.8237, 153.6978
298.3058, 153.2208
298.7879, 153.4379
299.2700, 153.8379
299.7521, 153.8001
300.2343, 153.4390
300.7164, 153.1217
301.1985, 153.0127
301.6806, 153.0559
302.1627, 153.2002
302.6448, 153.4507
303.1270, 153.6942
303.6091, 153.7912
304.0912, 153.8040
304.5733, 153.8680
305.0554, 154.1804
305.5375, 154.4923
306.0197, 154.4375
306.5018, 154.0384
306.9839, 153.6900
307.4660, 153.8692
307.9481, 154.2419
308.4302, 154.3142
308.9124, 153.6113
309.3945, 152.8736
309.8766, 152.8558
310.3587, 153.4177
310.8408, 153.8208
311.3229, 153.3752
311.8051, 152.6581
312.2872, 152.3035
312.7693, 152.7039
313.2514, 153.0762
313.7335, 152.7465
314.2156, 151.9834
314.6978, 151.5665
315.1799, 152.3285
315.6620, 153.2792
316.1441, 153.6691
316.6262, 153.2209
317.1083, 152.6415
317.5905, 152.1161
318.0726, 151.6728
318.5547, 151.3549
319.0368, 151.3582
319.5189, 151.3501
320.0010, 151.1210
320.4832, 150.5864
320.9653, 150.1723
321.4474, 150.1260
321.9295, 150.2225
322.4116, 150.1988
322.8937, 149.8103
323.3759, 149.4782
323.8580, 149.4061
324.3401, 149.6227
324.8222, 149.6369
325.3043, 148.9598
325.7864, 148.2805
326.2686, 148.1302
326.7507, 149.4101
327.2328, 150.2798
327.7149, 150.2565
328.1970, 149.4421
328.6791, 148.9863
329.1613, 149.2027
329.6434, 149.5445
330.1255, 149.7327
330.6076, 149.5111
331.0897, 149.5103
331.5718, 149.8868
332.0540, 150.4868
332.5361, 150.8845
333.0182, 151.0963
333.5003, 151.0876
333.9824, 150.7836
334.4645, 149.9903
334.9467, 149.5092
335.4288, 149.4812
335.9109, 149.6696
336.3930, 149.6633
336.8751, 149.3286
337.3572, 149.1211
337.8394, 149.2555
338.3215, 149.7588
338.8036, 149.9152
339.2857, 149.5997
339.7678, 149.1543
340.2499, 148.9219
340.7321, 148.9151
341.2142, 149.0843
341.6963, 149.4876
342.1784, 150.0501
342.6605, 150.4126
343.1426, 150.5550
343.6248, 150.5735
344.1069, 150.5151
344.5890, 150.3830
345.0711, 150.2254
345.5532, 150.0218
346.0353, 149.8358
346.5175, 149.8328
346.9996, 150.0101
347.4817, 150.2093
347.9638, 150.4825
348.4459, 150.7227
348.9280, 150.4044
349.4102, 149.3748
349.8923, 148.2807
350.3744, 148.0483
350.8565, 148.5046
351.3386, 148.9759
351.8207, 149.1734
352.3029, 149.1753
352.7850, 149.1174
353.2671, 149.0025
353.7492, 147.6943
354.2313, 148.9662
354.7134, 149.6460
355.1956, 149.7654
355.6777, 147.6463
356.1598, 148.4178
356.6419, 148.0309
357.1240, 147.5965
357.6061, 148.7749
358.0883, 146.9814
358.5704, 148.1342
359.0525, 148.1108
359.5346, 148.6258
360.0167, 147.9752
360.4988, 147.6845
360.9810, 148.5599
361.4631, 148.7896
361.9452, 148.0048
362.4273, 148.5540
362.9094, 146.7197
363.3915, 146.9770
363.8737, 148.1366
364.3558, 147.4104
364.8379, 147.9809
365.3200, 148.0575
365.8021, 145.8898
366.2842, 146.2551
366.7664, 146.2521
367.2485, 146.7667
367.7306, 147.0842
368.2127, 147.0389
368.6948, 146.8262
369.1769, 146.5764
369.6591, 146.2797
370.1412, 145.9655
370.6233, 145.5674
371.1054, 145.1416
371.5875, 144.9062
372.0696, 144.9721
372.5518, 145.0963
373.0339, 145.1807
373.5160, 145.2065
373.9981, 145.2336
374.4802, 145.2095
374.9623, 145.2277
375.4445, 145.5383
375.9266, 146.4033
376.4087, 146.8107
376.8908, 146.2698
377.3729, 144.8263
377.8550, 144.0336
378.3372, 144.0420
378.8193, 144.3185
379.3014, 144.3599
379.7835, 144.1562
380.2656, 143.9209
380.7477, 143.6374
381.2299, 143.3977
381.7120, 143.5257
382.1941, 144.0283
382.6762, 144.4775
383.1583, 144.5578
383.6404, 144.3380
384.1226, 144.0582
384.6047, 143.7208
385.0868, 143.4025
385.5689, 143.1726
386.0510, 143.0366
386.5331, 143.0086
387.0153, 143.2491
387.4974, 143.5392
387.9795, 143.4648
388.4616, 143.0248
388.9437, 142.6916
389.4258, 142.9891
389.9080, 143.5867
390.3901, 144.0123
390.8722, 144.1161
391.3543, 144.0110
391.8364, 143.6127
392.3185, 143.0271
392.8007, 142.6310
393.2828, 142.7093
393.7649, 142.9750
394.2470, 143.2493
394.7291, 143.5261
395.2112, 143.7375
395.6934, 143.9411
396.1755, 144.0437
396.6576, 143.9075
397.1397, 142.9239
397.6218, 142.2384
398.1039, 142.3929
398.5861, 143.5011
399.0682, 144.3012
399.5503, 144.4666
400.0324, 144.4034
400.5145, 144.4154
400.9966, 144.7005
401.4788, 144.7834
401.9609, 144.5103
402.4430, 144.0014
402.9251, 143.7356
403.4072, 143.8517
403.8893, 144.0034
404.3714, 144.0562
404.8535, 144.0215
405.3357, 143.8077
405.8178, 143.3174
406.2999, 142.7786
406.7820, 142.5354
407.2641, 142.6251
407.7462, 142.7971
408.2284, 143.0136
408.7105, 143.2510
409.1926, 143.3847
409.6747, 143.3995
410.1568, 143.4260
410.6389, 143.6354
411.1211, 143.9798
411.6032, 144.1773
412.0853, 144.1536
412.5674, 144.0232
413.0495, 143.9179
413.5316, 143.8450
414.0138, 143.8392
414.4959, 144.0226
414.9780, 144.2480
415.4601, 144.2300
415.9422, 143.9355
416.4243, 143.6893
416.9065, 143.8416
417.3886, 144.1918
417.8707, 144.4378
418.3528, 144.3562
418.8349, 144.2502
419.3170, 144.3396
419.7992, 144.5827
420.2813, 144.7803
420.7634, 144.8570
421.2455, 144.8526
421.7276, 144.7731
422.2097, 144.5547
422.6919, 144.4166
423.1740, 144.5471
423.6561, 144.7606
424.1382, 144.7746
424.6203, 144.1096
425.1024, 143.6801
425.5846, 143.8248
426.0667, 144.5855
426.5488, 145.1368
427.0309, 145.4391
427.5130, 145.5724
427.9951, 145.5682
428.4773, 145.3089
428.9594, 145.1779
429.4415, 145.2531
429.9236, 145.4493
430.4057, 145.5726
430.8878, 145.6465
431.3700, 145.5727
431.8521, 145.2299
432.3342, 144.6192
432.8163, 144.2497
433.2984, 144.1473
433.7805, 144.1999
434.2627, 144.2924
434.7448, 144.4279
435.2269, 144.6554
435.7090, 145.0563
436.1911, 145.4872
436.6732, 145.6198
437.1554, 145.4838
437.6375, 145.3194
438.1196, 145.2453
438.6017, 145.2563
439.0838, 145.3668
439.5659, 145.5943
440.0481, 145.8292
440.5302, 146.0711
441.0123, 146.2459
441.4944, 146.2296
441.9765, 145.5706
442.4586, 145.0395
442.9408, 145.3046
443.4229, 146.2559
443.9050, 146.9592
444.3871, 146.7649
444.8692, 146.3639
445.3513, 146.2391
445.8335, 146.7805
446.3156, 147.0374
446.7977, 146.5023
447.2798, 145.6282
447.7619, 145.2178
448.2440, 145.7796
448.7262, 146.3188
449.2083, 146.6304
449.6904, 146.7095
450.1725, 146.6828
450.6546, 146.4758
451.1367, 146.2565
451.6189, 146.1712
452.1010, 146.2827
452.5831, 146.3088
453.0652, 146.2009
453.5473, 146.0194
454.0294, 145.9018
454.5116, 145.8556
454.9937, 145.8096
455.4758, 145.6747
455.9579, 145.4963
456.4400, 145.5751
456.9221, 145.9346
457.4043, 146.3288
457.8864, 146.5398
458.3685, 146.5935
458.8506, 146.5621
459.3327, 146.4330
459.8148, 146.2748
460.2970, 146.1838
460.7791, 146.1355
461.2612, 146.0522
461.7433, 145.7515
462.2254, 145.4844
462.7076, 145.5475
463.1897, 146.0015
463.6718, 146.3697
464.1539, 146.2194
464.6360, 145.9404
465.1181, 145.9231
465.6003, 146.7168
466.0824, 147.3013
466.5645, 147.2733
467.0466, 146.7932
467.5287, 146.4812
468.0108, 146.5792
468.4930, 146.6996
468.9751, 146.7178
469.4572, 146.6335
469.9393, 146.4166
470.4214, 145.8724
470.9035, 145.3729
471.3857, 145.4019
471.8678, 146.2070
472.3499, 146.7392
472.8320, 146.7539
473.3141, 146.4034
473.7962, 146.2047
474.2784, 146.1705
474.7605, 146.2038
475.2426, 146.2043
475.7247, 146.2086
476.2068, 146.5290
476.6889, 147.2424
477.1711, 147.8702
477.6532, 147.7526
478.1353, 145.9711
478.6174, 147.2943
479.0995, 148.0253
479.5816, 148.1959
480.0638, 146.1280
480.5459, 146.9508
481.0280, 146.6151
481.5101, 146.2319
481.9922, 147.4615
482.4743, 145.7192
482.9565, 146.9232
483.4386, 146.9511
483.9207, 147.5173
484.4028, 146.9179
484.8849, 146.6785
485.3670, 147.6050
485.8492, 147.8860
486.3313, 147.1524
486.8134, 147.7528
487.2955, 145.9698
487.7776, 147.2356
488.2597, 147.8394
488.7419, 148.0383
489.2240, 147.7447
489.7061, 147.4455
490.1882, 147.0733
490.6703, 146.7960
491.1524, 146.8885
491.6346, 147.4275
492.1167, 147.7045
492.5988, 147.4913
493.0809, 147.0208
493.5630, 146.8761
494.0451, 147.0486
494.5273, 147.3596
495.0094, 147.8405
495.4915, 148.3618
495.9736, 148.6237
496.4557, 148.6063
496.9378, 148.4372
497.4200, 148.0023
497.9021, 147.5440
498.3842, 147.4802
498.8663, 148.2581
499.3484, 149.0000
499.8305, 149.0141
500.3127, 148.5532
500.7948, 148.2574
501.2769, 148.7289
501.7590, 149.1029
502.2411, 148.8740
502.7232, 147.8929
503.2054, 147.1407
503.6875, 146.8000
504.1696, 146.7094
504.6517, 146.7703
505.1338, 147.0939
505.6159, 147.3749
506.0981, 147.6169
506.5802, 147.7927
507.0623, 147.8309
507.5444, 147.7053
508.0265, 147.5114
508.5086, 147.2080
508.9908, 146.8394
509.4729, 146.8520
509.9550, 147.2917
510.4371, 147.7524
510.9192, 147.8080
511.4013, 147.5710
511.8835, 147.4932
512.3655, 147.6864
512.8477, 147.9175
513.3298, 147.8469
513.8119, 147.6015
514.2940, 147.4807
514.7761, 147.8596
515.2582, 148.2341
515.7404, 148.0984
516.2225, 147.5331
516.7046, 147.1567
517.1867, 147.3617
517.6688, 147.7649
518.1509, 148.1590
518.6331, 148.6091
519.1152, 148.8108
519.5973, 148.4551
520.0794, 147.9163
520.5615, 147.6798
521.0436, 148.0225
521.5258, 148.2244
522.0079, 148.1315
522.4900, 147.8039
522.9721, 147.5189
523.4542, 147.2605
523.9363, 147.1036
524.4185, 147.0965
524.9006, 147.2400
525.3827, 147.5267
525.8648, 148.0083
526.3469, 148.3936
526.8290, 148.1925
527.3112, 147.5894
527.7933, 147.3069
528.2754, 147.6055
528.7575, 148.1325
529.2396, 148.6567
529.7217, 149.0940
530.2039, 149.1906
530.6860, 148.3507
531.1681, 147.4740
531.6502, 147.3322
532.1323, 147.9399
532.6144, 148.3693
533.0966, 148.0980
533.5787, 147.6167
534.0608, 147.2547
534.5429, 147.0067
535.0250, 146.9717
535.5071, 147.2761
535.9893, 147.7520
536.4714, 148.1940
536.9535, 148.7756
537.4356, 148.9594
537.9177, 148.4448
538.3998, 147.4061
538.8820, 147.0116
539.3641, 147.3831
539.8462, 147.8548
540.3283, 148.0574
540.8104, 148.0081
541.2925, 147.7547
541.7747, 147.2631
542.2568, 146.8149
542.7389, 146.7314
543.2210, 146.9236
543.7031, 147.2042
544.1852, 147.6043
544.6674, 147.9394
545.1495, 148.0148
545.6316, 147.8888
546.1137, 147.7060
546.5958, 147.5230
547.0779, 147.3092
547.5601, 146.9825
548.0422, 146.5345
548.5243, 146.2847
549.0064, 146.2432
549.4885, 146.4638
549.9706, 147.0399
550.4528, 148.6185
550.9349, 149.2657
551.4170, 148.4954
551.8991, 147.1853
552.3812, 146.7068
552.8633, 147.3173
553.3455, 147.6732
553.8276, 147.3133
554.3097, 146.5536
554.7918, 146.5312
555.2739, 147.2461
555.7560, 147.9155
556.2382, 148.0250
556.7203, 147.7570
557.2024, 147.4358
557.6845, 147.0714
558.1666, 146.8474
558.6487, 147.0371
559.1309, 147.4165
559.6130, 147.7024
560.0951, 147.8306
560.5772, 147.8491
561.0593, 147.6935
561.5414, 147.4556
562.0236, 147.2999
562.5057, 147.2418
562.9878, 147.2912
563.4699, 147.5571
563.9520, 147.9970
564.4341, 148.1661
564.9163, 147.9374
565.3984, 147.6124
565.8805, 147.2978
566.3626, 146.9641
566.8447, 146.8468
567.3268, 146.9988
567.8090, 147.2128
568.2911, 147.2505
568.7732, 147.1291
569.2553, 146.9815
569.7374, 146.7991
570.2195, 146.6756
570.7017, 146.8250
571.1838, 147.1568
571.6659, 147.3808
572.1480, 147.2733
572.6301, 147.0606
573.1122, 146.9488
573.5944, 146.9224
574.0765, 146.8246
574.5586, 146.3674
575.0407, 145.9795
575.5228, 145.9778
576.0049, 146.6252
576.4871, 147.0200
576.9692, 146.9176
577.4513, 146.6452
577.9334, 146.4910
578.4155, 146.4636
578.8976, 146.5553
579.3798, 146.8133
579.8619, 147.1541
580.3440, 147.3520
580.8261, 147.3941
581.3082, 147.4651
581.7903, 147.7305
582.2725, 148.0564
582.7546, 147.9527
583.2367, 147.4545
583.7188, 147.0105
584.2009, 147.0172
584.6830, 147.2499
585.1652, 147.4381
585.6473, 147.5513
586.1294, 147.5834
586.6115, 147.4552
587.0936, 147.2762
587.5757, 147.1628
588.0579, 147.0708
588.5400, 147.1304
589.0221, 147.5010
589.5042, 148.0278
589.9863, 148.3605
590.4684, 148.4640
590.9506, 148.4124
591.4327, 148.1446
591.9148, 147.7083
592.3969, 147.5573
592.8790, 147.7420
593.3611, 148.0011
593.8433, 148.2008
594.3254, 148.3382
594.8075, 148.3702
595.2896, 148.2813
595.7717, 148.2429
596.2538, 148.5708
596.7360, 149.0414
597.2181, 149.2106
597.7002, 148.8106
598.1823, 148.4210
598.6644, 148.5323
599.1465, 148.9014
599.6287, 149.1113
600.1108, 148.7837
600.5929, 148.5268
601.0750, 148.5874
601.5571, 148.9238
602.0392, 149.1379
602.5214, 149.1668
603.0035, 149.1485
603.4856, 149.1018
603.9677, 149.0111
604.4498, 149.1169
604.9319, 149.4618
605.4141, 149.8674
605.8962, 150.1759
606.3783, 150.3982
606.8604, 150.6016
607.3425, 150.8136
607.8246, 150.9333
608.3068, 150.6763
608.7889, 150.2436
609.2710, 150.0886
609.7531, 150.6365
610.2352, 151.2042
610.7173, 151.2538
611.1995, 150.9644
611.6816, 150.8245
612.1637, 151.2072
612.6458, 151.5618
613.1279, 151.6365
613.6100, 151.4119
614.0922, 151.3291
614.5743, 151.4948
615.0564, 151.6631
615.5385, 151.6642
616.0206, 151.4359
616.5027, 151.4376
616.9849, 151.7185
617.4670, 152.0825
617.9491, 152.2893
618.4312, 152.3718
618.9133, 152.5059
619.3954, 152.7519
619.8776, 152.9971
620.3597, 152.9844
620.8418, 152.8707
621.3239, 153.0032
621.8060, 153.8273
622.2881, 154.6647
622.7703, 155.1249
623.2524, 155.2668
623.7345, 155.3507
624.2166, 155.4444
624.6987, 155.4850
625.1808, 155.3591
625.6630, 155.0266
626.1451, 155.1289
626.6272, 155.9369
627.1093, 156.7372
627.5914, 156.9423
628.0735, 156.4903
628.5557, 156.3817
629.0378, 156.7201
629.5199, 157.1863
630.0020, 157.4581
630.4841, 157.5559
630.9662, 157.4783
631.4484, 157.0617
631.9305, 156.8303
632.4126, 157.6495
632.8947, 159.0029
633.3768, 159.8640
633.8589, 159.1696
634.3411, 158.5370
634.8232, 158.8194
635.3053, 159.8391
635.7874, 160.4492
636.2695, 159.9897
636.7516, 159.7091
637.2338, 160.1730
637.7159, 161.4436
638.1980, 161.9221
638.6801, 161.3240
639.1622, 160.7373
639.6443, 161.2353
640.1265, 162.6390
640.6086, 163.3233
641.0907, 163.0610
641.5728, 162.6672
642.0549, 163.1733
642.5370, 164.1302
643.0192, 164.6826
643.5013, 164.4111
643.9834, 164.0696
644.4655, 164.1693
644.9476, 164.5201
645.4297, 164.8005
645.9119, 164.8201
646.3940, 164.8768
646.8761, 165.0833
647.3582, 165.3952
647.8403, 165.6320
648.3224, 165.7752
648.8046, 165.8900
649.2867, 166.0232
649.7688, 166.1602
650.2509, 166.1110
650.7330, 165.8563
651.2151, 165.6125
651.6973, 165.5894
652.1794, 165.6892
652.6615, 165.6749
653.1436, 165.5256
653.6257, 165.3416
654.1078, 165.0490
654.5900, 164.8370
655.0721, 164.9569
655.5542, 165.7012
656.0363, 166.2849
656.5184, 166.3695
657.0005, 166.1919
657.4827, 166.0680
657.9648, 166.1784
658.4469, 166.0256
658.9290, 165.3357
659.4111, 164.4682
659.8932, 164.4298
660.3754, 165.3360
660.8575, 166.0892
661.3396, 166.2766
661.8217, 166.0418
662.3038, 165.5607
662.7859, 164.8957
663.2681, 164.4830
663.7502, 164.8663
664.2323, 165.4581
664.7144, 165.6673
665.1965, 165.4734
665.6786, 165.2417
666.1608, 165.0201
666.6429, 164.8918
667.1250, 164.9319
667.6071, 165.2419
668.0892, 165.4737
668.5714, 165.6096
669.0535, 165.6950
669.5356, 165.7828
670.0177, 165.8912
670.4998, 165.8605
670.9819, 165.6266
671.4641, 165.3808
671.9462, 165.4713
672.4283, 165.8042
672.9104, 165.9981
673.3925, 165.8392
673.8746, 165.6628
674.3568, 165.8848
674.8389, 166.3411
675.3210, 166.6807
675.8031, 166.6242
676.2852, 166.5539
676.7673, 166.6117
677.2495, 166.7864
677.7316, 166.9848
678.2137, 167.2315
678.6958, 167.4607
679.1779, 167.6462
679.6600, 167.7915
680.1422, 167.9696
680.6243, 168.2179
681.1064, 168.3035
681.5885, 167.9356
682.0706, 167.2770
682.5527, 166.8782
683.0349, 166.7691
683.5170, 166.7375
683.9991, 166.5942
684.4812, 166.4436
684.9633, 166.4276
685.4454, 166.6418
685.9276, 166.7761
686.4097, 166.6595
686.8918, 166.4431
687.3739, 166.2910
687.8560, 166.2591
688.3381, 166.2149
688.8203, 166.1979
689.3024, 166.1182
689.7845, 165.7370
690.2666, 165.0095
690.7487, 164.5573
691.2308, 164.6519
691.7130, 164.9314
692.1951, 164.7405
692.6772, 164.1743
693.1593, 163.5846
693.6414, 163.0711
694.1235, 162.6584
694.6057, 162.4870
695.0878, 162.4730
695.5699, 162.2587
696.0520, 161.3589
696.5341, 160.6077
697.0162, 160.4883
697.4984, 160.9894
697.9805, 160.9679
698.4626, 160.2324
698.9447, 159.3713
699.4268, 158.7487
699.9089, 158.3441
700.3911, 157.6696
700.8732, 156.6893
701.3553, 155.8953
701.8374, 155.9047
702.3195, 156.3376
702.8016, 156.5407
703.2838, 156.4069
703.7659, 156.1812
704.2480, 155.9375
704.7301, 155.7136
705.2122, 155.5624
705.6943, 155.7290
706.1765, 155.5554
706.6586, 154.6774
707.1407, 153.6665
707.6228, 153.2625
708.1049, 153.6764
708.5870, 153.8084
709.0692, 153.4384
709.5513, 152.8277
710.0334, 152.3714
710.5155, 152.0659
710.9976, 151.9168
711.4797, 152.0281
711.9618, 152.1570
712.4439, 152.0967
712.9260, 151.8570
713.4081, 151.4613
713.8903, 150.6910
714.3724, 149.9989
714.8545, 149.5203
715.3366, 149.2629
715.8187, 149.2053
716.3008, 149.4790
716.7830, 149.7254
717.2651, 149.8050
717.7472, 149.7472
718.2293, 149.8249
718.7114, 150.0525
719.1935, 150.1842
719.6757, 149.9867
720.1578, 149.6100
720.6399, 149.2866
721.1220, 149.0323
721.6041, 148.9162
722.0862, 149.0847
722.5684, 149.3382
723.0505, 149.5548
723.5326, 149.7322
724.0147, 149.7851
724.4968, 149.6243
724.9789, 149.3985
725.4611, 149.1570
725.9432, 148.8254
726.4253, 148.8440
726.9074, 149.3252
727.3895, 149.8374
727.8716, 149.8282
728.3538, 149.4381
728.8359, 149.2141
729.3180, 149.2456
729.8001, 149.4612
730.2822, 150.0820
730.7643, 150.7473
731.2465, 150.9251
731.7286, 149.9409
732.2107, 149.2769
732.6928, 149.6081
733.1749, 150.4070
733.6570, 150.8590
734.1392, 150.8076
734.6213, 150.7291
735.1034, 150.6642
735.5855, 150.6225
736.0676, 150.6167
736.5497, 150.6475
737.0319, 150.7523
737.5140, 150.9864
737.9961, 151.2388
738.4782, 151.3869
738.9603, 151.4373
739.4424, 151.4052
739.9246, 151.1834
740.4067, 150.9987
740.8888, 151.0536
741.3709, 151.2644
741.8530, 151.2119
742.3351, 150.6241
742.8173, 150.1750
743.2994, 150.1020
743.7815, 150.3208
744.2636, 150.3864
744.7457, 150.2934
745.2278, 150.1068
745.7100, 149.7947
746.1921, 149.4402
746.6742, 149.2568
747.1563, 149.2114
747.6384, 149.0851
748.1205, 148.7141
748.6027, 148.2418
749.0848, 147.6763
749.5669, 147.0132
750.0490, 146.6604
750.5311, 147.0628
751.0132, 147.3380
751.4954, 147.0083
751.9775, 146.0084
752.4596, 145.3434
752.9417, 145.0539
753.4238, 144.8669
753.9059, 144.6396
754.3881, 144.3354
754.8702, 143.7825
755.3523, 142.9690
755.8344, 142.2123
756.3165, 141.7498
756.7986, 141.4582
757.2808, 141.2810
757.7629, 141.2950
758.2450, 141.0942
758.7271, 140.3916
759.2092, 139.6339
759.6913, 139.1012
760.1735, 138.8110
760.6556, 138.7460
761.1377, 138.9879
761.6198, 139.1873
762.1019, 138.7984
762.5840, 138.0369
763.0662, 137.6830
763.5483, 137.9425
764.0304, 138.1885
764.5125, 137.8040
764.9946, 137.1529
765.4767, 136.6501
765.9589, 136.3988
766.4410, 136.2796
766.9231, 136.4960
767.4052, 136.6977
767.8873, 136.4632
768.3694, 135.6412
768.8516, 134.9869
769.3337, 134.5863
769.8158, 134.3657
770.2979, 134.2510
770.7800, 134.2285
771.2621, 134.2680
771.7443, 134.4066
772.2264, 134.4925
772.7085, 134.3368
773.1906, 134.0622
773.6727, 133.8523
774.1548, 133.8764
774.6370, 133.8255
775.1191, 133.5988
775.6012, 133.2926
776.0833, 133.0566
776.5654, 132.9002
777.0475, 132.7816
777.5297, 132.7162
778.0118, 132.6423
778.4939, 132.3875
778.9760, 132.0142
779.4581, 131.7497
779.9402, 131.6464
780.4224, 131.7256
780.9045, 132.2079
781.3866, 132.8514
781.8687, 133.1991
782.3508, 132.8339
782.8329, 132.5037
783.3151, 132.3629
783.7972, 132.3409
784.2793, 132.2708
784.7614, 132.1323
785.2435, 132.0811
785.7256, 132.2272
786.2078, 132.3974
786.6899, 132.1206
787.1720, 131.5368
787.6541, 131.1679
788.1362, 131.4884
788.6183, 131.8644
789.1005, 131.8775
789.5826, 131.6210
790.0647, 131.3240
790.5468, 130.8161
791.0289, 130.5616
791.5110, 130.8145
791.9932, 131.3353
792.4753, 131.3029
792.9574, 130.6436
793.4395, 130.0723
793.9216, 129.8120
794.4037, 129.8092
794.8859, 130.1043
795.3680, 130.5889
795.8501, 130.9087
796.3322, 130.7377
796.8143, 130.5042
797.2964, 130.4583
797.7786, 130.5471
798.2607, 130.5740
798.7428, 130.5156
799.2249, 130.4006
799.7070, 130.2284
800.1891, 130.0098
800.6713, 129.7068
801.1534, 129.3188
801.6355, 129.1520
802.1176, 129.3909
802.5997, 129.8719
803.0818, 130.5464
803.5640, 131.2835
804.0461, 131.6832
804.5282, 131.2897
805.0103, 130.8014
805.4924, 130.5661
805.9745, 130.4954
806.4567, 130.0993
806.9388, 128.9916
807.4209, 128.4533
807.9030, 129.0986
808.3851, 130.3876
808.8672, 130.5422
809.3494, 129.6887
809.8315, 128.9911
810.3136, 129.1422
810.7957, 129.5879
811.2778, 129.8129
811.7599, 129.8732
812.2421, 129.9267
812.7242, 130.0766
813.2063, 130.1739
813.6884, 130.1332
814.1705, 130.0090
814.6526, 130.0022
815.1348, 130.1761
815.6169, 130.1666
816.0990, 129.6857
816.5811, 129.1436
817.0632, 129.7976
817.5453, 131.3006
818.0275, 132.2263
818.5096, 131.3111
818.9917, 130.1379
819.4738, 129.6512
819.9559, 129.7110
820.4380, 129.9440
820.9202, 130.7406
821.4023, 131.0819
821.8844, 130.5935
822.3665, 129.6414
822.8486, 129.2232
823.3307, 129.3589
823.8129, 129.4571
824.2950, 129.2807
824.7771, 129.0266
825.2592, 128.9629
825.7413, 129.0517
826.2234, 129.1990
826.7056, 129.5696
827.1877, 129.7656
827.6698, 129.4815
828.1519, 128.9364
828.6340, 128.6379
829.1161, 128.6878
829.5983, 128.7399
830.0804, 128.6900
830.5625, 128.6681
831.0446, 129.0693
831.5267, 129.7779
832.0089, 130.1893
832.4910, 130.0106
832.9731, 129.6393
833.4552, 129.3479
833.9373, 129.1281
834.4194, 128.9665
834.9016, 128.7344
835.3837, 128.7388
835.8658, 129.1304
836.3479, 129.6806
836.8300, 130.0719
837.3121, 130.3036
837.7943, 130.3207
838.2764, 130.0718
838.7585, 129.7258
839.2406, 129.4496
839.7227, 129.2581
840.2048, 129.1910
840.6870, 129.2941
841.1691, 129.4426
841.6512, 129.6585
842.1333, 129.8492
842.6154, 129.8940
843.0975, 129.7093
843.5797, 129.5545
844.0618, 129.4245
844.5439, 129.3548
845.0260, 129.4896
845.5081, 129.7506
845.9902, 129.6398
846.4724, 129.0036
846.9545, 128.5138
847.4366, 129.1172
847.9187, 129.9969
848.4008, 130.1858
848.8829, 129.1497
849.3651, 128.4421
849.8472, 128.3911
850.3293, 128.5880
850.8114, 128.7894
851.2935, 129.0134
851.7756, 129.0537
852.2578, 128.8899
852.7399, 128.6503
853.2220, 128.3402
853.7041, 128.0736
854.1862, 128.0439
854.6683, 128.2770
855.1505, 128.6234
855.6326, 129.2200
856.1147, 129.7371
856.5968, 129.9098
857.0789, 129.6877
857.5610, 129.6442
858.0432, 129.8392
858.5253, 130.0244
859.0074, 130.0830
859.4895, 129.9974
859.9716, 129.5805
860.4537, 128.8768
860.9359, 128.3811
861.4180, 128.5896
861.9001, 128.9664
862.3822, 129.1379
862.8643, 129.0961
863.3464, 129.1175
863.8286, 129.2613
864.3107, 129.4133
864.7928, 129.5425
865.2749, 129.6489
865.7570, 129.7150
866.2391, 129.7443
866.7213, 129.7734
867.2034, 129.8810
867.6855, 129.9499
868.1676, 129.7751
868.6497, 129.4516
869.1318, 129.2586
869.6140, 129.3540
870.0961, 129.5109
870.5782, 129.6985
871.0603, 129.8920
871.5424, 130.0321
872.0245, 130.1153
872.5067, 130.1831
872.9888, 130.2824
873.4709, 130.3023
873.9530, 129.9743
874.4351, 129.4495
874.9172, 129.0652
875.3994, 129.0127
875.8815, 128.9940
876.3636, 128.9033
876.8457, 128.7832
877.3278, 128.6743
877.8099, 128.5221
878.2921, 128.5507
878.7742, 128.7843
879.2563, 129.1964
879.7384, 130.0536
880.2205, 131.0545
880.7026, 131.2281
881.1848, 130.2746
881.6669, 129.2375
882.1490, 128.7223
882.6311, 128.4979
883.1132, 128.3584
883.5953, 128.2701
884.0775, 128.3094
884.5596, 128.5142
885.0417, 128.7702
885.5238, 129.0624
886.0059, 129.3492
886.4880, 129.2654
886.9702, 128.8129
887.4523, 128.4594
887.9344, 128.6847
888.4165, 129.0596
888.8986, 129.1704
889.3807, 128.9978
889.8629, 129.0270
890.3450, 129.6165
890.8271, 129.9814
891.3092, 129.7028
891.7913, 128.9659
892.2734, 128.8661
892.7556, 129.3706
893.2377, 129.7537
893.7198, 129.5270
894.2019, 129.0743
894.6840, 128.6076
895.1661, 128.2318
895.6483, 128.2440
896.1304, 129.3882
896.6125, 130.0942
897.0946, 129.8823
897.5767, 129.1497
898.0588, 128.6924
898.5410, 128.5056
899.0231, 128.5862
899.5052, 129.0253
899.9873, 129.4806
900.4694, 129.4800
900.9515, 129.2138
901.4337, 128.9851
901.9158, 128.8024
902.3979, 128.8159
902.8800, 129.3552
903.3621, 129.9086
903.8442, 129.9993
904.3264, 129.5277
904.8085, 129.1592
905.2906, 128.9134
905.7727, 128.7877
906.2548, 128.8537
906.7369, 129.0029
907.2191, 129.0275
907.7012, 128.9016
908.1833, 128.8543
908.6654, 129.1097
909.1475, 129.3623
909.6296, 129.4512
910.1118, 129.3787
910.5939, 129.2036
911.0760, 128.8872
911.5581, 128.6862
912.0402, 128.8498
912.5223, 129.1686
913.0045, 129.2030
913.4866, 129.0137
913.9687, 128.8190
914.4508, 128.6758
914.9329, 128.5999
915.4150, 128.6343
915.8972, 128.7370
916.3793, 128.8057
916.8614, 128.8317
917.3435, 128.8481
917.8256, 128.8515
918.3077, 128.8671
918.7899, 128.9986
919.2720, 129.1683
919.7541, 129.1530
920.2362, 128.7319
920.7183, 128.4952
921.2004, 128.8961
921.6826, 129.5150
922.1647, 129.9549
922.6468, 130.2801
923.1289, 130.1325
923.6110, 129.3745
924.0931, 128.6028
924.5753, 128.4578
925.0574, 128.7133
925.5395, 128.9391
926.0216, 129.0979
926.5037, 129.0948
926.9858, 128.5764
927.4680, 128.1438
927.9501, 128.3229
928.4322, 129.0456
928.9143, 129.2780
929.3964, 128.8719
929.8785, 128.5341
930.3607, 128.6259
930.8428, 128.9441
931.3249, 128.9690
931.8070, 128.8144
932.2891, 128.8528
932.7712, 129.6152
933.2534, 130.2037
933.7355, 130.1069
934.2176, 129.6226
934.6997, 129.3307
935.1818, 129.2434
935.6639, 129.3413
936.1461, 129.6843
936.6282, 130.0388
937.1103, 130.1276
937.5924, 129.9905
938.0745, 129.6494
938.5566, 129.0448
939.0388, 128.5739
939.5209, 128.4669
940.0030, 128.5543
940.4851, 128.7531
940.9672, 129.0928
941.4493, 129.2020
941.9315, 129.0150
942.4136, 128.8931
942.8957, 129.1485
943.3778, 129.6110
943.8599, 130.0344
944.3420, 130.3836
944.8242, 130.5240
945.3063, 130.1865
945.7884, 129.8410
946.2705, 129.7065
946.7526, 129.7093
947.2347, 129.6285
947.7169, 129.4346
948.1990, 129.3983
948.6811, 129.6582
949.1632, 129.9514
949.6453, 129.8524
950.1274, 129.5190
950.6096, 129.2404
951.0917, 129.0965
951.5738, 129.0030
952.0559, 128.8463
952.5380, 128.7984
953.0201, 129.0569
953.5023, 129.6930
953.9844, 130.0927
954.4665, 130.2446
954.9486, 130.1393
955.4307, 129.4664
955.9128, 128.7073
956.3950, 128.5738
956.8771, 129.0479
957.3591, 129.4432
957.8412, 129.4711
958.3234, 129.4655
958.8055, 129.5762
959.2876, 129.7279
959.7697, 129.6049
960.2518, 129.2113
960.7339, 128.7482
961.2161, 128.1423
961.6982, 127.7446
962.1803, 128.2005
962.6624, 129.0286
963.1445, 129.4770
963.6266, 128.8966
964.1088, 128.6168
964.5909, 128.8498
965.0730, 129.2067
965.5551, 129.1774
966.0372, 128.8440
966.5193, 129.1034
967.0015, 130.0247
967.4836, 130.8262
967.9657, 130.8946
968.4478, 130.5771
968.9299, 129.9555
969.4120, 129.0660
969.8942, 128.7915
970.3763, 129.4892
970.8584, 130.1037
971.3405, 130.2565
971.8226, 130.0779
972.3047, 129.8339
972.7869, 129.5595
973.2690, 129.3862
973.7511, 129.3033
974.2332, 129.4306
974.7153, 130.0651
975.1974, 130.8531
975.6796, 131.3055
976.1617, 131.3590
976.6438, 131.1721
977.1259, 130.6872
977.6080, 130.1938
978.0901, 129.9709
978.5723, 129.9700
979.0544, 130.1699
979.5365, 130.5611
980.0186, 130.8308
980.5007, 130.7391
980.9828, 130.5657
981.4650, 130.4425
981.9471, 130.3600
982.4292, 130.2327
982.9113, 130.0531
983.3934, 129.9180
983.8755, 129.9080
984.3577, 129.8989
984.8398, 129.6567
985.3219, 129.3065
985.8040, 129.0836
986.2861, 129.0046
986.7682, 129.1696
987.2504, 129.7785
987.7325, 130.4119
988.2146, 130.6290
988.6967, 130.4476
989.1788, 130.0939
989.6609, 129.5707
990.1431, 129.1986
990.6252, 129.3191
991.1073, 129.6323
991.5894, 129.9204
992.0715, 130.1620
992.5536, 130.3491
993.0358, 130.4722
993.5179, 130.5708
994.0000, 130.6655
994.4821, 130.7337
994.9642, 130.6946
995.4464, 130.5763
995.9285, 130.4794
996.4106, 130.4700
996.8927, 130.4286
997.3748, 130.1340
997.8569, 129.8672
998.3391, 129.9746
998.8212, 130.6535
999.3033, 130.9891
999.7854, 130.9267
1000.268, 130.7393
1000.750, 130.6457
1001.232, 130.5875
1001.714, 130.4360
1002.196, 130.2108
1002.678, 130.0863
1003.160, 130.4401
1003.642, 130.5160
1004.124, 129.8977
1004.607, 128.9496
1005.089, 128.7910
1005.571, 129.3804
1006.053, 129.8582
1006.535, 129.9664
1007.017, 129.9614
1007.499, 130.0405
1007.981, 130.1709
1008.464, 130.3298
1008.946, 130.5725
1009.428, 130.6393
1009.910, 130.4090
1010.392, 130.2494
1010.874, 130.5639
1011.356, 131.1519
1011.838, 131.1799
1012.320, 130.7428
1012.803, 130.3830
1013.285, 130.6337
1013.767, 130.7916
1014.249, 130.2575
1014.731, 129.4552
1015.213, 129.3603
1015.695, 130.1179
1016.177, 130.7160
1016.659, 130.9870
1017.142, 131.0489
1017.624, 130.9644
1018.106, 130.7900
1018.588, 130.5735
1019.070, 130.2974
1019.552, 130.1470
1020.034, 130.2197
1020.516, 130.3446
1020.999, 130.4545
1021.481, 130.5515
1021.963, 130.6411
1022.445, 130.7260
1022.927, 130.8267
1023.409, 131.0217
1023.891, 131.1555
1024.373, 131.0659
1024.855, 130.8634
1025.338, 130.7356
1025.820, 130.6729
1026.302, 130.7771
1026.784, 131.1208
1027.266, 131.4073
1027.748, 131.2444
1028.230, 130.8368
1028.712, 130.5531
1029.195, 130.4228
1029.677, 130.3248
1030.159, 130.0692
1030.641, 130.0162
1031.123, 130.3637
1031.605, 130.9739
1032.087, 131.4413
1032.569, 131.7563
1033.052, 131.7751
1033.534, 131.3652
1034.016, 130.8651
1034.498, 130.4132
1034.980, 130.1277
1035.462, 130.2014
1035.944, 130.8858
1036.426, 131.2619
1036.908, 131.2486
1037.391, 131.1557
1037.873, 131.2178
1038.355, 131.3618
1038.837, 131.3996
1039.319, 131.3458
1039.801, 131.2672
1040.283, 131.1449
1040.765, 131.0638
1041.247, 131.0718
1041.730, 131.1215
1042.212, 131.1580
1042.694, 131.1812
1043.176, 131.0957
1043.658, 130.8747
1044.140, 130.6279
1044.622, 130.3515
1045.104, 130.1622
1045.587, 130.2510
1046.069, 130.6617
1046.551, 130.7895
1047.033, 130.4962
1047.515, 130.2225
1047.997, 130.1504
1048.479, 130.1893
1048.961, 130.0715
1049.443, 129.9072
1049.926, 130.0092
1050.408, 130.8010
1050.890, 131.3121
1051.372, 130.8559
1051.854, 130.2551
1052.336, 130.2052
1052.818, 130.7451
1053.300, 131.0302
1053.782, 131.0510
1054.265, 131.0794
1054.747, 131.4973
1055.229, 131.8431
1055.711, 131.5438
1056.193, 130.8218
1056.675, 130.5672
1057.157, 131.0921
1057.639, 131.3804
1058.122, 131.2261
1058.604, 130.9024
1059.086, 130.7476
1059.568, 130.7127
1060.050, 130.7243
1060.532, 130.7804
1061.014, 130.7650
1061.496, 130.4349
1061.979, 130.2523
1062.461, 130.4946
1062.943, 131.0355
1063.425, 131.2703
1063.907, 131.2214
1064.389, 131.0854
1064.871, 130.9002
1065.353, 130.7267
1065.835, 130.5181
1066.318, 130.3972
1066.800, 130.5654
1067.282, 131.2144
1067.764, 131.4643
1068.246, 131.2311
1068.728, 130.9818
1069.210, 131.1879
1069.692, 131.5382
1070.174, 131.4695
1070.657, 131.0834
1071.139, 130.8173
1071.621, 130.8946
1072.103, 131.0129
1072.585, 131.1973
1073.067, 131.3033
1073.549, 131.0056
1074.031, 130.4244
1074.514, 130.0427
1074.996, 129.9297
1075.478, 130.0309
1075.960, 130.5287
1076.442, 131.0364
1076.924, 131.3165
1077.406, 131.3922
1077.888, 131.2893
1078.370, 130.9849
1078.853, 130.9975
1079.335, 131.7091
1079.817, 132.3351
1080.299, 131.6636
1080.781, 130.5202
1081.263, 130.0590
1081.745, 130.8576
1082.227, 131.3509
1082.709, 131.4923
1083.192, 131.4276
1083.674, 131.1269
1084.156, 130.7358
1084.638, 130.6699
1085.120, 130.8457
1085.602, 130.9730
1086.084, 130.8266
1086.566, 130.7601
1087.048, 130.9173
1087.531, 131.1282
1088.013, 131.1732
1088.495, 131.0703
1088.977, 131.0054
1089.459, 130.9927
1089.941, 131.0885
1090.423, 131.4662
1090.905, 131.8423
1091.388, 132.0586
1091.870, 132.1100
1092.352, 131.9876
1092.834, 131.6657
1093.316, 131.3062
1093.798, 130.8843
1094.280, 130.6551
1094.762, 131.1465
1095.245, 131.8858
1095.727, 132.3051
1096.209, 132.2831
1096.691, 132.0377
1097.173, 131.4290
1097.655, 131.0035
1098.137, 131.1075
1098.619, 131.4616
1099.101, 131.3642
1099.583, 130.9776
1100.066, 130.7119
1100.548, 130.7177
1101.030, 130.8535
1101.512, 131.2389
1101.994, 131.5777
1102.476, 131.5555
1102.958, 131.2154
1103.440, 131.3634
1103.923, 131.9350
1104.405, 132.2121
1104.887, 131.2236
1105.369, 130.3934
1105.851, 130.8528
1106.333, 131.9032
1106.815, 132.0781
1107.297, 131.1702
1107.780, 131.0185
1108.262, 131.8865
1108.744, 132.7575
1109.226, 132.5581
1109.708, 132.0021
1110.190, 131.8138
1110.672, 131.9987
1111.154, 132.0199
1111.636, 131.7625
1112.119, 131.5720
1112.601, 131.5170
1113.083, 131.5892
1113.565, 131.9783
1114.047, 132.4170
1114.529, 132.2959
1115.011, 131.3607
1115.493, 130.9195
1115.975, 131.7353
1116.458, 132.3477
1116.940, 132.0255
1117.422, 131.1281
1117.904, 130.7597
1118.386, 130.8358
1118.868, 131.0709
1119.350, 131.4656
1119.832, 131.7973
1120.315, 131.8508
1120.797, 131.9085
1121.279, 132.2793
1121.761, 132.9537
1122.243, 132.9973
1122.725, 132.4482
1123.207, 131.9006
1123.689, 131.6394
1124.172, 131.5710
1124.654, 131.7533
1125.136, 132.0476
1125.618, 132.1865
1126.100, 132.1130
1126.582, 132.2118
1127.064, 132.5306
1127.546, 132.7959
1128.028, 132.6842
1128.510, 132.4664
1128.993, 132.3971
1129.475, 132.4780
1129.957, 132.6328
1130.439, 132.8754
1130.921, 133.1569
1131.403, 133.5248
1131.885, 133.7626
1132.367, 133.3998
1132.850, 132.8089
1133.332, 132.5916
1133.814, 132.8260
1134.296, 133.0520
1134.778, 133.2102
1135.260, 133.2776
1135.742, 133.2232
1136.224, 133.1014
1136.707, 133.0009
1137.189, 132.9301
1137.671, 132.9171
1138.153, 132.9822
1138.635, 133.0446
1139.117, 132.9874
1139.599, 133.0215
1140.081, 133.3150
1140.563, 133.7749
1141.046, 133.9557
1141.528, 133.8979
1142.010, 133.8172
1142.492, 133.8329
1142.974, 133.7888
1143.456, 133.3496
1143.938, 133.0234
1144.420, 133.4142
1144.902, 134.5817
1145.385, 134.6999
1145.867, 133.8209
1146.349, 133.0571
1146.831, 133.1223
1147.313, 133.5175
1147.795, 134.0566
1148.277, 134.6355
1148.759, 135.1301
1149.242, 135.5847
1149.724, 135.6200
1150.206, 135.1862
1150.688, 134.7443
1151.170, 134.8494
1151.652, 134.9881
1152.134, 134.5605
1152.616, 133.7430
1153.099, 133.2508
1153.581, 133.1281
1154.063, 133.3443
1154.545, 133.9741
1155.027, 134.5923
1155.509, 134.6720
1155.991, 134.4805
1156.473, 134.3295
1156.955, 134.2419
1157.438, 134.1132
1157.920, 133.8766
1158.402, 133.7211
1158.884, 133.6667
1159.366, 133.7719
1159.848, 134.3511
1160.330, 135.0636
1160.812, 135.2526
1161.294, 134.7545
1161.777, 134.4111
1162.259, 134.3864
1162.741, 134.5350
1163.223, 134.8772
1163.705, 135.2738
1164.187, 135.4062
1164.669, 135.3453
1165.151, 135.2533
1165.634, 135.1530
1166.116, 135.0736
1166.598, 134.9053
1167.080, 134.9310
1167.562, 135.4364
1168.044, 136.1823
1168.526, 136.2265
1169.008, 135.7439
1169.490, 135.3432
1169.973, 135.2073
1170.455, 135.2645
1170.937, 135.7408
1171.419, 136.1555
1171.901, 136.0874
1172.383, 135.6344
1172.865, 135.6794
1173.347, 136.1196
1173.829, 136.3767
1174.312, 135.9245
1174.794, 135.5059
1175.276, 135.5110
1175.758, 135.6192
1176.240, 135.4622
1176.722, 135.0559
1177.204, 135.0582
1177.686, 135.4483
1178.169, 135.8134
1178.651, 135.9106
1179.133, 135.8959
1179.615, 135.7670
1180.097, 135.6193
1180.579, 135.6320
1181.061, 135.8093
1181.543, 135.6885
1182.026, 135.2365
1182.508, 134.9612
1182.990, 135.4808
1183.472, 136.0516
1183.954, 136.1801
1184.436, 135.9935
1184.918, 135.7201
1185.400, 135.3425
1185.882, 135.3481
1186.365, 135.8337
1186.847, 136.2808
1187.329, 136.1818
1187.811, 135.9514
1188.293, 135.9001
1188.775, 136.0022
1189.257, 136.1338
1189.739, 136.3042
1190.221, 136.3766
1190.704, 136.3115
1191.186, 136.2224
1191.668, 136.1621
1192.150, 136.1688
1192.632, 136.3497
1193.114, 136.6611
1193.596, 136.7171
1194.078, 136.4866
1194.561, 136.2707
1195.043, 136.1309
1195.525, 136.1065
1196.007, 136.4030
1196.489, 136.7215
1196.971, 136.6794
1197.453, 136.2607
1197.935, 136.1862
1198.417, 136.4996
1198.900, 136.7986
1199.382, 136.9558
1199.864, 137.0065
1200.346, 136.9457
1200.828, 136.8281
1201.310, 136.7025
1201.792, 136.5688
1202.274, 136.5090
1202.756, 136.5327
1203.239, 136.5331
1203.721, 136.3595
1204.203, 136.3214
1204.685, 137.0837
1205.167, 138.0319
1205.649, 138.1922
1206.131, 137.2364
1206.613, 137.0257
1207.096, 137.6412
1207.578, 138.2616
1208.060, 138.4649
1208.542, 138.4272
1209.024, 138.2331
1209.506, 137.9665
1209.988, 137.7654
1210.470, 137.6463
1210.953, 137.5598
1211.435, 137.5086
1211.917, 137.4803
1212.399, 137.3881
1212.881, 137.3918
1213.363, 137.8653
1213.845, 138.4864
1214.327, 138.6093
1214.809, 137.9286
1215.292, 137.7547
1215.774, 138.1452
1216.256, 138.6080
1216.738, 138.8723
1217.220, 138.9480
1217.702, 138.6720
1218.184, 138.2603
1218.666, 138.2031
1219.148, 138.6606
1219.631, 138.8398
1220.113, 138.6776
1220.595, 138.5321
1221.077, 138.7568
1221.559, 139.0626
1222.041, 139.1974
1222.523, 139.2126
1223.005, 139.2719
1223.488, 139.4290
1223.970, 139.3513
1224.452, 138.9870
1224.934, 138.7364
1225.416, 139.2260
1225.898, 139.6882
1226.380, 139.2073
1226.862, 138.2155
1227.344, 138.0021
1227.827, 138.7253
1228.309, 139.2315
1228.791, 139.4156
1229.273, 139.4381
1229.755, 139.3603
1230.237, 139.2408
1230.719, 139.0863
1231.201, 138.9348
1231.683, 138.8501
1232.166, 138.8197
1232.648, 139.0867
1233.130, 139.6994
1233.612, 140.2350
1234.094, 140.4051
1234.576, 140.3197
1235.058, 139.9174
1235.540, 139.3508
1236.023, 138.9330
1236.505, 138.6630
1236.987, 138.6155
1237.469, 138.8088
1237.951, 139.0515
1238.433, 139.2020
1238.915, 139.3513
1239.397, 139.5643
1239.880, 139.8193
1240.362, 140.1571
1240.844, 140.5488
1241.326, 140.4555
1241.808, 139.7552
1242.290, 139.2159
1242.772, 139.5467
1243.254, 139.9946
1243.736, 140.1993
1244.219, 140.2065
1244.701, 140.0196
1245.183, 139.7033
1245.665, 139.7699
1246.147, 140.3294
1246.629, 140.8044
1247.111, 140.8251
1247.593, 140.7261
1248.075, 140.6444
1248.558, 140.5699
1249.040, 140.4488
1249.522, 140.3121
1250.004, 140.3012
1250.486, 140.4462
1250.968, 140.6119
1251.450, 140.8346
1251.932, 140.9371
1252.415, 140.8316
1252.897, 140.6125
1253.379, 140.4017
1253.861, 140.2555
1254.343, 140.3667
1254.825, 140.7850
1255.307, 141.1315
1255.789, 141.2842
1256.271, 141.3386
1256.754, 141.3157
1257.236, 141.2112
1257.718, 140.8288
1258.200, 140.4266
1258.682, 140.5945
1259.164, 141.4751
1259.646, 142.1856
1260.128, 142.6938
1260.610, 142.7863
1261.093, 142.3140
1261.575, 141.5889
1262.057, 140.8382
1262.539, 140.2719
1263.021, 140.2511
1263.503, 140.8638
1263.985, 141.6153
1264.467, 142.6499
1264.950, 143.1476
1265.432, 142.7505
1265.914, 142.0833
1266.396, 141.8982
1266.878, 141.9250
1267.360, 141.8064
1267.842, 141.5144
1268.324, 141.6135
1268.807, 142.1618
1269.289, 142.5987
1269.771, 142.7430
1270.253, 142.8014
1270.735, 142.9458
1271.217, 143.1280
1271.699, 143.3634
1272.181, 143.6103
1272.663, 143.5820
1273.146, 143.2826
1273.628, 142.8603
1274.110, 142.2932
1274.592, 141.9022
1275.074, 142.0296
1275.556, 142.3314
1276.038, 142.6512
1276.520, 142.9243
1277.002, 142.7722
1277.485, 142.3090
1277.967, 142.2693
1278.449, 142.9093
1278.931, 143.5222
1279.413, 143.8156
1279.895, 143.8601
1280.377, 143.5754
1280.859, 143.1780
1281.342, 143.3530
1281.824, 143.8701
1282.306, 144.0153
1282.788, 143.5777
1283.270, 143.2463
1283.752, 143.3053
1284.234, 143.3447
1284.716, 143.1564
1285.198, 143.0022
1285.681, 143.6558
1286.163, 144.5760
1286.645, 144.6869
1287.127, 143.7368
1287.609, 143.0964
1288.091, 142.9003
1288.573, 143.0107
1289.055, 143.4595
1289.537, 143.9943
1290.020, 144.4504
1290.502, 144.6797
1290.984, 144.3089
1291.466, 143.3311
1291.948, 143.1259
1292.430, 143.8214
1292.912, 144.3646
1293.394, 144.4760
1293.877, 144.3967
1294.359, 144.2191
1294.841, 144.0630
1295.323, 144.0954
1295.805, 144.2431
1296.287, 144.2119
1296.769, 144.0101
1297.251, 143.7140
1297.734, 143.2976
1298.216, 143.1646
1298.698, 143.9150
1299.180, 144.6472
1299.662, 144.8815
1300.144, 144.8134
1300.626, 144.9352
1301.108, 145.1632
1301.590, 145.1938
1302.073, 144.9711
1302.555, 144.6845
1303.037, 144.1945
1303.519, 143.9694
1304.001, 144.1887
1304.483, 144.5906
1304.965, 144.8536
##END=



