##NAMES=Romeite
##RRUFFID=R060736
##IDEAL CHEMISTRY=(Ca,Fe^2+^,Mn^2+^,Na)_2_(Sb^5+^,Ti^4+^)_2_O_6_(O,OH,F)
##LOCALITY=Le Cetine di Cotorniano, Chiusdino, Siena Province, Tuscany, Italy
##OWNER=RRUFF
##SOURCE=Michael Scott
##DESCRIPTION=Brown octahedra associated with brizziite, R060611
##STATUS=The identification of this mineral is confirmed by single-crystal X-ray diffraction and chemical analysis.
##URL=rruff.info/R060736
##MEASURED CHEMISTRY=dark core: (Ca_1.06_Na_0.70_Fe^2+^_0.18_Mg_0.06_)_Σ=2_Sb^5+^_2.00_O_6_((OH)_0.70_O_0.30_)_Σ=1_; trace amounts of F; OH estimated by charge balance; rim: (Na_1.10_Sb^3+^_0.64_Fe^3+^_0.10_Mg_0.07_Ca_0.06_Mn_0.02_Pb_0.01_)_Σ=2_Sb^5+^_2.00_O_6_(OH); 
143.7051, 7601.137
144.1872, 7920.873
144.6693, 8210.715
145.1514, 8508.021
145.6335, 8835.344
146.1157, 9157.193
146.5978, 9452.564
147.0799, 9712.409
147.5620, 9930.267
148.0441, 10095.33
148.5262, 10181.69
149.0084, 10239.85
149.4905, 10271.34
149.9726, 10275.69
150.4547, 10248.29
150.9368, 10187.34
151.4189, 10103.67
151.9010, 10021.01
152.3832, 9943.843
152.8653, 9861.854
153.3474, 9773.655
153.8295, 9681.006
154.3116, 9581.800
154.7937, 9474.793
155.2759, 9367.794
155.7580, 9283.347
156.2401, 9214.506
156.7222, 9174.293
157.2043, 9179.403
157.6864, 9211.744
158.1686, 9244.167
158.6507, 9264.944
159.1328, 9279.849
159.6149, 9304.925
160.0970, 9333.771
160.5791, 9378.890
161.0613, 9450.343
161.5434, 9539.672
162.0255, 9630.521
162.5076, 9714.214
162.9897, 9797.019
163.4718, 9897.461
163.9540, 10028.88
164.4361, 10151.16
164.9182, 10249.02
165.4003, 10327.33
165.8824, 10396.32
166.3645, 10459.08
166.8467, 10515.81
167.3288, 10567.37
167.8109, 10616.47
168.2930, 10657.39
168.7751, 10684.60
169.2572, 10701.29
169.7394, 10717.99
170.2215, 10743.00
170.7036, 10765.82
171.1857, 10764.18
171.6678, 10730.38
172.1499, 10691.56
172.6321, 10657.31
173.1142, 10628.17
173.5963, 10607.47
174.0784, 10601.39
174.5605, 10599.95
175.0426, 10583.32
175.5248, 10546.51
176.0069, 10507.64
176.4890, 10470.93
176.9711, 10438.58
177.4532, 10420.19
177.9353, 10421.44
178.4175, 10438.32
178.8996, 10462.81
179.3817, 10498.71
179.8638, 10531.59
180.3459, 10545.65
180.8280, 10545.47
181.3102, 10560.09
181.7923, 10610.84
182.2744, 10671.19
182.7565, 10698.34
183.2386, 10682.12
183.7207, 10665.88
184.2029, 10677.88
184.6850, 10715.38
185.1671, 10761.42
185.6492, 10816.80
186.1313, 10872.67
186.6134, 10918.17
187.0956, 10951.63
187.5777, 10980.25
188.0598, 11009.66
188.5419, 11038.91
189.0240, 11060.12
189.5061, 11061.80
189.9883, 11063.63
190.4704, 11092.85
190.9525, 11154.90
191.4346, 11209.21
191.9167, 11216.85
192.3988, 11185.30
192.8810, 11171.07
193.3631, 11195.15
193.8452, 11236.24
194.3273, 11272.52
194.8094, 11303.62
195.2915, 11330.73
195.7737, 11354.08
196.2558, 11373.95
196.7379, 11392.00
197.2200, 11408.94
197.7021, 11423.63
198.1842, 11434.49
198.6664, 11441.52
199.1485, 11449.24
199.6306, 11463.24
200.1127, 11481.67
200.5948, 11494.96
201.0770, 11506.65
201.5591, 11504.47
202.0412, 11472.21
202.5233, 11412.26
203.0054, 11360.48
203.4875, 11348.05
203.9697, 11365.66
204.4518, 11367.50
204.9339, 11340.51
205.4160, 11304.63
205.8981, 11274.66
206.3802, 11250.10
206.8624, 11229.02
207.3445, 11210.43
207.8266, 11194.46
208.3087, 11181.98
208.7908, 11174.93
209.2729, 11168.36
209.7551, 11156.02
210.2372, 11140.03
210.7193, 11129.19
211.2014, 11131.64
211.6835, 11142.90
212.1656, 11149.83
212.6478, 11151.96
213.1299, 11148.84
213.6120, 11134.59
214.0941, 11114.51
214.5762, 11102.90
215.0583, 11113.43
215.5405, 11136.72
216.0226, 11150.63
216.5047, 11154.12
216.9868, 11149.85
217.4689, 11135.57
217.9510, 11115.43
218.4332, 11097.13
218.9153, 11080.47
219.3974, 11068.75
219.8795, 11072.76
220.3616, 11099.89
220.8437, 11119.28
221.3259, 11110.10
221.8080, 11081.49
222.2901, 11043.31
222.7722, 10990.98
223.2543, 10936.04
223.7364, 10896.17
224.2186, 10873.87
224.7007, 10852.69
225.1828, 10821.07
225.6649, 10785.84
226.1470, 10757.02
226.6291, 10740.81
227.1113, 10726.43
227.5934, 10697.05
228.0755, 10651.00
228.5576, 10616.72
229.0397, 10621.33
229.5218, 10638.43
230.0040, 10629.92
230.4861, 10581.77
230.9682, 10527.19
231.4503, 10494.45
231.9324, 10482.85
232.4145, 10477.77
232.8967, 10473.00
233.3788, 10473.83
233.8609, 10488.21
234.3430, 10520.67
234.8251, 10551.90
235.3072, 10565.56
235.7894, 10565.11
236.2715, 10569.47
236.7536, 10585.56
237.2357, 10607.32
237.7178, 10625.97
238.1999, 10640.64
238.6821, 10658.01
239.1642, 10682.77
239.6463, 10712.90
240.1284, 10744.23
240.6105, 10777.94
241.0926, 10808.21
241.5748, 10824.29
242.0569, 10826.86
242.5390, 10835.97
243.0211, 10865.38
243.5032, 10904.61
243.9853, 10935.64
244.4675, 10955.32
244.9496, 10968.62
245.4317, 10975.05
245.9138, 10976.27
246.3959, 10989.14
246.8780, 11025.39
247.3602, 11071.28
247.8423, 11112.22
248.3244, 11146.68
248.8065, 11176.75
249.2886, 11207.06
249.7707, 11234.88
250.2529, 11245.01
250.7350, 11216.08
251.2171, 11183.21
251.6992, 11174.67
252.1813, 11189.86
252.6634, 11212.83
253.1456, 11235.69
253.6277, 11257.34
254.1098, 11273.60
254.5919, 11275.18
255.0740, 11280.22
255.5561, 11301.89
256.0382, 11335.53
256.5204, 11365.89
257.0025, 11384.73
257.4846, 11395.16
257.9667, 11408.39
258.4488, 11429.02
258.9309, 11445.99
259.4131, 11453.60
259.8952, 11455.89
260.3773, 11459.64
260.8594, 11467.46
261.3415, 11478.25
261.8236, 11489.88
262.3058, 11502.83
262.7879, 11515.83
263.2700, 11535.70
263.7521, 11552.67
264.2342, 11551.67
264.7163, 11529.43
265.1985, 11502.54
265.6806, 11494.75
266.1627, 11517.94
266.6448, 11531.02
267.1269, 11521.95
267.6090, 11511.85
268.0912, 11523.06
268.5733, 11553.55
269.0554, 11576.80
269.5375, 11562.76
270.0196, 11501.12
270.5017, 11468.30
270.9839, 11476.32
271.4660, 11495.31
271.9481, 11522.53
272.4302, 11550.49
272.9123, 11563.07
273.3944, 11545.29
273.8766, 11500.55
274.3587, 11482.24
274.8408, 11514.36
275.3229, 11547.69
275.8050, 11574.46
276.2871, 11595.73
276.7693, 11611.96
277.2514, 11622.63
277.7335, 11632.70
278.2156, 11659.33
278.6977, 11722.72
279.1798, 11772.02
279.6620, 11796.55
280.1441, 11808.52
280.6262, 11814.27
281.1083, 11816.80
281.5904, 11825.90
282.0725, 11862.95
282.5547, 11947.22
283.0368, 12005.40
283.5189, 12013.35
284.0010, 12008.58
284.4831, 12008.44
284.9652, 12016.53
285.4474, 12031.46
285.9295, 12058.98
286.4116, 12101.48
286.8937, 12119.07
287.3758, 12095.42
287.8579, 12061.05
288.3401, 12021.25
288.8222, 11981.92
289.3043, 11956.69
289.7864, 11961.67
290.2685, 11987.65
290.7506, 11997.43
291.2328, 11983.85
291.7149, 11968.23
292.1970, 11961.53
292.6791, 11959.54
293.1612, 11956.50
293.6433, 11951.61
294.1255, 11943.24
294.6076, 11928.05
295.0897, 11905.29
295.5718, 11880.78
296.0539, 11849.85
296.5360, 11822.19
297.0182, 11810.17
297.5003, 11817.73
297.9824, 11832.29
298.4645, 11848.53
298.9466, 11864.96
299.4287, 11873.01
299.9109, 11867.35
300.3930, 11856.21
300.8751, 11850.69
301.3572, 11850.97
301.8393, 11850.57
302.3214, 11844.60
302.8036, 11837.23
303.2857, 11838.72
303.7678, 11852.30
304.2499, 11860.29
304.7320, 11839.26
305.2141, 11788.98
305.6963, 11759.38
306.1784, 11776.98
306.6605, 11798.80
307.1426, 11791.53
307.6247, 11756.73
308.1068, 11714.07
308.5890, 11676.54
309.0711, 11642.52
309.5532, 11600.96
310.0353, 11536.52
310.5174, 11482.92
310.9995, 11460.91
311.4817, 11454.77
311.9638, 11437.33
312.4459, 11396.57
312.9280, 11341.95
313.4101, 11295.39
313.8922, 11260.11
314.3744, 11229.80
314.8565, 11208.53
315.3386, 11189.91
315.8207, 11169.53
316.3028, 11146.20
316.7849, 11120.28
317.2671, 11091.51
317.7492, 11059.09
318.2313, 11028.45
318.7134, 10955.81
319.1955, 10912.59
319.6776, 10893.27
320.1598, 10867.54
320.6419, 10835.76
321.1240, 10779.78
321.6061, 10755.05
322.0882, 10717.79
322.5703, 10680.03
323.0525, 10659.69
323.5346, 10607.23
324.0167, 10586.62
324.4988, 10553.29
324.9809, 10525.79
325.4630, 10485.69
325.9452, 10449.47
326.4273, 10425.86
326.9094, 10395.27
327.3915, 10353.72
327.8736, 10326.58
328.3557, 10273.68
328.8379, 10243.39
329.3200, 10222.85
329.8021, 10147.27
330.2842, 10104.68
330.7663, 10058.46
331.2484, 10006.16
331.7306, 9949.100
332.2127, 9884.167
332.6948, 9814.688
333.1769, 9751.533
333.6590, 9707.270
334.1411, 9666.576
334.6233, 9610.005
335.1054, 9537.390
335.5875, 9462.724
336.0696, 9394.044
336.5517, 9329.961
337.0338, 9263.450
337.5160, 9185.309
337.9981, 9116.506
338.4802, 9075.700
338.9623, 9050.170
339.4444, 9010.038
339.9265, 8942.441
340.4087, 8865.956
340.8908, 8813.009
341.3729, 8793.776
341.8550, 8777.469
342.3371, 8768.745
342.8192, 8758.655
343.3014, 8738.119
343.7835, 8707.225
344.2656, 8673.434
344.7477, 8643.421
345.2298, 8617.280
345.7119, 8593.907
346.1941, 8576.872
346.6762, 8558.209
347.1583, 8530.917
347.6404, 8500.893
348.1225, 8479.859
348.6046, 8475.020
349.0868, 8478.297
349.5689, 8466.612
350.0510, 8433.198
350.5331, 8397.700
351.0152, 8357.552
351.4973, 8320.248
351.9795, 8297.378
352.4616, 8289.411
352.9437, 8276.984
353.4258, 8231.478
353.9079, 8153.172
354.3900, 8100.332
354.8722, 8095.184
355.3543, 8094.372
355.8364, 8069.407
356.3185, 8026.462
356.8006, 7984.036
357.2827, 7952.690
357.7649, 7926.011
358.2470, 7894.137
358.7291, 7857.172
359.2112, 7814.010
359.6933, 7757.414
360.1754, 7696.788
360.6576, 7651.435
361.1397, 7624.458
361.6218, 7608.263
362.1039, 7604.271
362.5860, 7607.801
363.0681, 7608.521
363.5503, 7603.561
364.0324, 7594.258
364.5145, 7581.681
364.9966, 7564.475
365.4787, 7549.218
365.9608, 7529.625
366.4430, 7516.992
366.9251, 7526.487
367.4072, 7553.571
367.8893, 7575.146
368.3714, 7571.507
368.8535, 7546.199
369.3357, 7542.543
369.8178, 7574.487
370.2999, 7612.438
370.7820, 7658.976
371.2641, 7706.162
371.7462, 7743.998
372.2284, 7768.972
372.7105, 7787.740
373.1926, 7811.155
373.6747, 7840.730
374.1568, 7869.940
374.6389, 7897.227
375.1211, 7924.973
375.6032, 7953.778
376.0853, 7983.984
376.5674, 8017.046
377.0495, 8057.011
377.5316, 8100.682
378.0138, 8132.648
378.4959, 8145.863
378.9780, 8166.249
379.4601, 8216.701
379.9422, 8279.922
380.4243, 8332.577
380.9065, 8366.544
381.3886, 8397.363
381.8707, 8435.891
382.3528, 8481.974
382.8349, 8536.863
383.3170, 8605.292
383.7992, 8673.456
384.2813, 8715.152
384.7634, 8726.365
385.2455, 8755.671
385.7276, 8827.453
386.2097, 8910.469
386.6919, 8974.355
387.1740, 9019.222
387.6561, 9064.122
388.1382, 9122.888
388.6203, 9194.555
389.1024, 9266.402
389.5846, 9330.255
390.0667, 9403.613
390.5488, 9499.123
391.0309, 9602.200
391.5130, 9693.782
391.9951, 9767.529
392.4773, 9835.064
392.9594, 9915.773
393.4415, 10017.53
393.9236, 10106.03
394.4057, 10168.79
394.8878, 10228.09
395.3700, 10286.78
395.8521, 10349.56
396.3342, 10427.37
396.8163, 10535.81
397.2984, 10658.80
397.7805, 10748.28
398.2627, 10794.96
398.7448, 10840.06
399.2269, 10902.48
399.7090, 10971.53
400.1911, 11036.57
400.6732, 11096.39
401.1554, 11151.50
401.6375, 11199.94
402.1196, 11243.95
402.6017, 11287.70
403.0838, 11331.17
403.5659, 11379.61
404.0481, 11441.22
404.5302, 11516.75
405.0123, 11586.03
405.4944, 11647.50
405.9765, 11702.96
406.4586, 11753.33
406.9408, 11799.04
407.4229, 11840.11
407.9050, 11876.45
408.3871, 11909.17
408.8692, 11940.96
409.3513, 11970.18
409.8335, 12001.19
410.3156, 12040.89
410.7977, 12077.48
411.2798, 12097.71
411.7619, 12103.12
412.2440, 12109.61
412.7262, 12133.10
413.2083, 12172.65
413.6904, 12208.07
414.1725, 12240.55
414.6546, 12266.09
415.1367, 12280.40
415.6189, 12288.83
416.1010, 12302.51
416.5831, 12329.82
417.0652, 12345.70
417.5473, 12309.99
418.0294, 12229.04
418.5116, 12172.85
418.9937, 12165.90
419.4758, 12175.60
419.9579, 12163.01
420.4400, 12130.36
420.9221, 12108.20
421.4043, 12120.12
421.8864, 12133.92
422.3685, 12113.72
422.8506, 12064.90
423.3327, 12022.27
423.8148, 12007.08
424.2970, 12012.60
424.7791, 12014.40
425.2612, 12020.14
425.7433, 12012.02
426.2254, 11977.60
426.7076, 11935.51
427.1897, 11905.42
427.6718, 11888.59
428.1539, 11869.35
428.6360, 11829.05
429.1181, 11766.95
429.6003, 11715.55
430.0824, 11673.55
430.5645, 11645.52
431.0466, 11645.80
431.5287, 11655.37
432.0108, 11644.46
432.4930, 11598.74
432.9751, 11546.51
433.4572, 11527.60
433.9393, 11539.58
434.4214, 11539.92
434.9035, 11517.30
435.3857, 11483.61
435.8678, 11441.94
436.3499, 11394.58
436.8320, 11369.99
437.3141, 11387.64
437.7962, 11422.21
438.2784, 11455.73
438.7605, 11486.72
439.2426, 11512.26
439.7247, 11529.12
440.2068, 11542.88
440.6889, 11569.28
441.1711, 11615.61
441.6532, 11665.24
442.1353, 11718.06
442.6174, 11773.97
443.0995, 11839.31
443.5816, 11910.35
444.0638, 11968.20
444.5459, 11990.13
445.0280, 11981.69
445.5101, 12009.64
445.9922, 12094.04
446.4743, 12182.93
446.9565, 12264.85
447.4386, 12340.22
447.9207, 12408.96
448.4028, 12470.60
448.8849, 12529.76
449.3670, 12587.43
449.8492, 12645.34
450.3313, 12714.24
450.8134, 12798.61
451.2955, 12885.56
451.7776, 12966.78
452.2597, 13042.18
452.7419, 13112.05
453.2240, 13178.22
453.7061, 13237.34
454.1882, 13289.57
454.6703, 13333.21
455.1524, 13362.49
455.6346, 13374.77
456.1167, 13379.20
456.5988, 13393.39
457.0809, 13434.17
457.5630, 13438.80
458.0451, 13378.91
458.5273, 13314.82
459.0093, 13276.11
459.4915, 13257.98
459.9736, 13245.18
460.4557, 13230.97
460.9378, 13211.11
461.4199, 13173.75
461.9020, 13114.75
462.3842, 13054.94
462.8663, 13001.77
463.3484, 12947.96
463.8305, 12887.12
464.3126, 12819.45
464.7947, 12751.04
465.2769, 12677.00
465.7590, 12608.24
466.2411, 12570.09
466.7232, 12561.77
467.2053, 12536.65
467.6874, 12460.93
468.1696, 12353.07
468.6517, 12279.05
469.1338, 12250.90
469.6159, 12233.01
470.0980, 12224.06
470.5801, 12220.92
471.0623, 12222.15
471.5444, 12226.59
472.0265, 12231.31
472.5086, 12232.74
472.9907, 12231.55
473.4728, 12237.14
473.9550, 12242.43
474.4371, 12266.74
474.9192, 12313.96
475.4013, 12380.08
475.8834, 12464.91
476.3655, 12568.62
476.8477, 12677.00
477.3298, 12778.51
477.8119, 12874.93
478.2940, 12965.02
478.7761, 13042.11
479.2582, 13141.17
479.7404, 13295.06
480.2225, 13496.41
480.7046, 13691.31
481.1867, 13867.35
481.6688, 14051.06
482.1509, 14241.27
482.6331, 14449.26
483.1152, 14693.70
483.5973, 14977.74
484.0794, 15286.68
484.5615, 15601.78
485.0436, 15921.17
485.5258, 16253.65
486.0079, 16580.34
486.4900, 16939.53
486.9721, 17335.02
487.4542, 17772.16
487.9363, 18270.08
488.4185, 18837.56
488.9006, 19429.96
489.3827, 19983.54
489.8648, 20503.79
490.3469, 21065.05
490.8290, 21683.32
491.3112, 22338.72
491.7933, 23025.71
492.2754, 23737.41
492.7575, 24461.43
493.2396, 25186.17
493.7217, 25936.34
494.2039, 26738.33
494.6860, 27577.19
495.1681, 28435.63
495.6502, 29302.27
496.1323, 30177.11
496.6144, 31047.82
497.0966, 31920.32
497.5787, 32778.11
498.0608, 33611.88
498.5429, 34442.92
499.0250, 35282.62
499.5071, 36121.84
499.9893, 36949.66
500.4714, 37766.46
500.9535, 38534.11
501.4356, 39187.49
501.9177, 39726.94
502.3998, 40272.91
502.8820, 40880.60
503.3641, 41438.25
503.8462, 41859.51
504.3283, 42159.05
504.8104, 42358.80
505.2925, 42438.81
505.7747, 42445.76
506.2568, 42426.53
506.7389, 42355.55
507.2210, 42170.63
507.7031, 41851.68
508.1852, 41433.77
508.6674, 40966.66
509.1495, 40451.64
509.6316, 39870.71
510.1137, 39200.14
510.5958, 38488.62
511.0779, 37723.66
511.5601, 36934.75
512.0422, 36170.13
512.5243, 35448.91
513.0064, 34748.22
513.4885, 34040.91
513.9706, 33327.14
514.4528, 32608.52
514.9349, 31872.68
515.4170, 31155.27
515.8991, 30493.94
516.3812, 29878.81
516.8633, 29279.46
517.3455, 28691.08
517.8276, 28123.84
518.3097, 27596.43
518.7918, 27092.16
519.2739, 26583.38
519.7560, 26061.66
520.2382, 25548.00
520.7203, 25070.92
521.2024, 24634.56
521.6845, 24202.78
522.1666, 23778.74
522.6487, 23358.61
523.1309, 22933.61
523.6130, 22515.22
524.0951, 22112.70
524.5772, 21730.53
525.0593, 21358.31
525.5414, 20975.77
526.0236, 20592.04
526.5057, 20254.98
526.9878, 19977.75
527.4699, 19713.16
527.9520, 19429.86
528.4341, 19134.05
528.9163, 18853.68
529.3984, 18590.44
529.8805, 18340.52
530.3626, 18101.28
530.8447, 17874.87
531.3268, 17666.17
531.8090, 17474.50
532.2911, 17284.65
532.7732, 17079.97
533.2553, 16865.03
533.7374, 16691.23
534.2195, 16590.96
534.7017, 16474.75
535.1838, 16303.04
535.6659, 16117.98
536.1480, 15956.08
536.6301, 15822.30
537.1122, 15698.21
537.5944, 15572.01
538.0765, 15448.53
538.5586, 15342.98
539.0407, 15254.40
539.5228, 15148.64
540.0049, 15003.61
540.4871, 14832.45
540.9692, 14665.13
541.4513, 14495.28
541.9334, 14342.75
542.4155, 14225.21
542.8976, 14109.80
543.3798, 13971.16
543.8619, 13814.38
544.3440, 13659.02
544.8261, 13518.29
545.3082, 13384.85
545.7903, 13246.55
546.2725, 13105.46
546.7546, 12945.34
547.2367, 12747.93
547.7188, 12548.11
548.2009, 12382.22
548.6830, 12242.57
549.1652, 12087.41
549.6473, 11889.28
550.1294, 11687.72
550.6115, 11516.61
551.0936, 11365.25
551.5757, 11205.66
552.0579, 11029.36
552.5400, 10844.84
553.0221, 10661.01
553.5042, 10475.50
553.9863, 10310.08
554.4684, 10198.51
554.9506, 10071.07
555.4327, 9889.175
555.9148, 9689.561
556.3969, 9523.374
556.8790, 9405.901
557.3611, 9297.087
557.8433, 9159.349
558.3254, 9000.758
558.8075, 8848.094
559.2896, 8703.872
559.7717, 8564.441
560.2538, 8430.347
560.7360, 8298.833
561.2181, 8160.791
561.7002, 7996.138
562.1823, 7858.147
562.6644, 7776.109
563.1465, 7708.845
563.6287, 7627.774
564.1108, 7528.425
564.5929, 7413.142
565.0750, 7278.964
565.5571, 7138.996
566.0392, 7035.891
566.5214, 6979.386
567.0035, 6916.001
567.4856, 6829.811
567.9677, 6737.085
568.4498, 6652.139
568.9319, 6574.245
569.4141, 6497.686
569.8962, 6404.583
570.3783, 6327.140
570.8604, 6308.782
571.3425, 6323.303
571.8246, 6306.652
572.3068, 6238.324
572.7889, 6155.262
573.2710, 6106.637
573.7531, 6098.748
574.2352, 6073.725
574.7173, 6011.299
575.1995, 5957.171
575.6816, 5926.914
576.1637, 5909.337
576.6458, 5892.690
577.1279, 5874.473
577.6100, 5852.006
578.0922, 5823.469
578.5743, 5789.172
579.0564, 5746.272
579.5385, 5694.906
580.0206, 5649.121
580.5027, 5617.378
580.9849, 5595.902
581.4670, 5575.235
581.9491, 5559.003
582.4312, 5537.087
582.9133, 5503.182
583.3954, 5469.191
583.8776, 5439.867
584.3597, 5416.779
584.8418, 5403.446
585.3239, 5404.245
585.8060, 5405.923
586.2881, 5385.354
586.7703, 5343.358
587.2524, 5301.083
587.7345, 5258.616
588.2166, 5225.151
588.6987, 5213.423
589.1808, 5219.455
589.6630, 5214.322
590.1451, 5182.853
590.6272, 5157.840
591.1093, 5154.361
591.5914, 5160.312
592.0735, 5162.807
592.5557, 5159.450
593.0378, 5153.147
593.5199, 5144.735
594.0020, 5136.494
594.4841, 5082.382
594.9662, 5094.339
595.4484, 5099.892
595.9305, 5099.389
596.4126, 5074.684
596.8947, 5081.229
597.3768, 5075.251
597.8589, 5068.760
598.3411, 5079.703
598.8232, 5101.215
599.3053, 5122.581
599.7874, 5153.453
600.2695, 5180.524
600.7516, 5199.002
601.2338, 5206.470
601.7159, 5195.370
602.1980, 5162.886
602.6801, 5158.871
603.1622, 5206.394
603.6443, 5246.897
604.1265, 5255.205
604.6086, 5251.267
605.0907, 5257.762
605.5728, 5278.527
606.0549, 5295.991
606.5370, 5289.730
607.0192, 5281.232
607.5013, 5304.495
607.9834, 5354.621
608.4655, 5397.309
608.9476, 5415.592
609.4297, 5422.390
609.9119, 5442.792
610.3940, 5482.792
610.8761, 5517.770
611.3582, 5544.673
611.8403, 5569.769
612.3224, 5592.511
612.8046, 5615.718
613.2867, 5644.588
613.7688, 5681.658
614.2509, 5717.999
614.7330, 5741.287
615.2151, 5759.942
615.6973, 5794.166
616.1794, 5845.104
616.6615, 5898.929
617.1436, 5948.482
617.6257, 5992.230
618.1078, 6024.501
618.5900, 6035.214
619.0721, 6052.002
619.5542, 6078.575
620.0363, 6107.200
620.5184, 6130.788
621.0005, 6153.543
621.4827, 6186.982
621.9648, 6239.029
622.4469, 6290.646
622.9290, 6315.934
623.4111, 6322.996
623.8932, 6340.734
624.3754, 6373.849
624.8575, 6410.882
625.3396, 6442.751
625.8217, 6472.153
626.3038, 6511.208
626.7859, 6581.354
627.2681, 6632.057
627.7502, 6641.820
628.2323, 6648.457
628.7144, 6676.769
629.1965, 6724.643
629.6786, 6780.021
630.1608, 6839.736
630.6429, 6896.008
631.1250, 6931.637
631.6071, 6952.228
632.0892, 6994.504
632.5714, 7069.189
633.0535, 7140.867
633.5356, 7179.524
634.0177, 7189.509
634.4998, 7205.670
634.9819, 7227.680
635.4641, 7255.920
635.9462, 7291.292
636.4283, 7331.977
636.9104, 7379.963
637.3925, 7432.403
637.8746, 7482.257
638.3568, 7526.531
638.8389, 7563.457
639.3210, 7585.448
639.8031, 7595.246
640.2852, 7611.606
640.7673, 7638.241
641.2495, 7672.813
641.7316, 7713.837
642.2137, 7761.286
642.6958, 7814.146
643.1779, 7882.286
643.6600, 7942.216
644.1422, 7986.330
644.6243, 8024.366
645.1064, 8063.011
645.5885, 8103.050
646.0706, 8142.884
646.5527, 8181.749
647.0349, 8219.819
647.5170, 8254.344
647.9991, 8287.106
648.4812, 8331.247
648.9633, 8391.098
649.4454, 8455.194
649.9276, 8513.910
650.4097, 8567.764
650.8918, 8621.363
651.3739, 8674.966
651.8560, 8728.371
652.3381, 8787.650
652.8203, 8841.749
653.3024, 8876.577
653.7845, 8896.618
654.2666, 8921.341
654.7487, 8963.396
655.2308, 9012.202
655.7130, 9055.542
656.1951, 9093.223
656.6772, 9120.830
657.1593, 9135.688
657.6414, 9157.123
658.1235, 9203.929
658.6057, 9272.491
659.0878, 9333.923
659.5699, 9390.139
660.0520, 9436.259
660.5341, 9471.508
661.0162, 9497.366
661.4984, 9511.875
661.9805, 9517.727
662.4626, 9521.938
662.9447, 9528.298
663.4268, 9533.717
663.9089, 9529.080
664.3911, 9520.966
664.8732, 9528.822
665.3553, 9556.271
665.8374, 9598.351
666.3195, 9655.652
666.8016, 9721.008
667.2838, 9757.344
667.7659, 9738.945
668.2480, 9737.068
668.7301, 9769.090
669.2122, 9806.370
669.6943, 9831.890
670.1765, 9849.380
670.6586, 9870.554
671.1407, 9897.365
671.6228, 9933.822
672.1049, 9993.938
672.5870, 10062.67
673.0692, 10110.03
673.5513, 10133.80
674.0334, 10152.00
674.5155, 10176.62
674.9976, 10204.61
675.4797, 10223.04
675.9619, 10220.13
676.4440, 10242.96
676.9261, 10311.61
677.4082, 10387.92
677.8903, 10459.68
678.3724, 10522.72
678.8546, 10567.48
679.3367, 10586.95
679.8188, 10602.41
680.3009, 10625.01
680.7830, 10648.81
681.2651, 10663.02
681.7473, 10671.06
682.2294, 10686.53
682.7115, 10716.49
683.1936, 10759.61
683.6757, 10815.96
684.1578, 10887.25
684.6400, 10955.38
685.1221, 11021.84
685.6042, 11081.25
686.0863, 11125.73
686.5684, 11163.45
687.0505, 11210.73
687.5327, 11272.96
688.0148, 11327.39
688.4969, 11366.58
688.9790, 11398.49
689.4611, 11424.25
689.9432, 11448.05
690.4254, 11479.54
690.9075, 11521.74
691.3896, 11559.83
691.8717, 11567.50
692.3538, 11554.22
692.8359, 11572.46
693.3181, 11625.78
693.8002, 11688.09
694.2823, 11757.75
694.7644, 11815.56
695.2465, 11824.26
695.7286, 11765.31
696.2108, 11742.77
696.6929, 11788.31
697.1750, 11831.28
697.6571, 11858.61
698.1392, 11864.70
698.6213, 11833.28
699.1035, 11767.86
699.5856, 11712.17
700.0677, 11714.74
700.5498, 11735.10
701.0319, 11709.11
701.5140, 11644.53
701.9962, 11573.33
702.4783, 11504.09
702.9604, 11441.22
703.4425, 11391.22
703.9246, 11353.00
704.4067, 11300.87
704.8889, 11212.31
705.3710, 11149.86
705.8531, 11163.32
706.3352, 11173.17
706.8173, 11110.79
707.2994, 10992.55
707.7816, 10897.28
708.2637, 10862.93
708.7458, 10839.68
709.2279, 10799.75
709.7100, 10749.92
710.1921, 10699.87
710.6743, 10650.54
711.1564, 10595.78
711.6385, 10529.64
712.1206, 10462.78
712.6027, 10422.46
713.0848, 10411.47
713.5670, 10397.98
714.0491, 10380.69
714.5312, 10355.88
715.0133, 10320.74
715.4954, 10276.14
715.9775, 10223.87
716.4597, 10156.96
716.9418, 10099.06
717.4239, 10053.25
717.9060, 10017.00
718.3881, 9994.366
718.8702, 9978.391
719.3524, 9959.262
719.8345, 9933.465
720.3166, 9898.895
720.7987, 9843.218
721.2808, 9779.800
721.7629, 9747.451
722.2451, 9744.579
722.7272, 9732.686
723.2093, 9695.708
723.6914, 9644.545
724.1735, 9594.406
724.6556, 9545.629
725.1378, 9494.307
725.6199, 9435.800
726.1020, 9382.175
726.5841, 9340.178
727.0662, 9301.463
727.5483, 9262.679
728.0305, 9221.909
728.5126, 9168.772
728.9947, 9083.440
729.4768, 9001.458
729.9589, 8952.500
730.4410, 8920.576
730.9232, 8885.032
731.4053, 8839.814
731.8874, 8779.431
732.3695, 8697.263
732.8516, 8603.146
733.3337, 8519.327
733.8159, 8445.298
734.2980, 8395.927
734.7801, 8383.866
735.2622, 8366.695
735.7443, 8312.062
736.2264, 8229.737
736.7086, 8154.320
737.1907, 8088.884
737.6728, 8023.328
738.1549, 7950.438
738.6370, 7883.945
739.1191, 7842.127
739.6013, 7809.217
740.0834, 7755.205
740.5655, 7670.145
741.0476, 7583.281
741.5297, 7514.803
742.0118, 7459.831
742.4940, 7414.660
742.9761, 7377.125
743.4582, 7348.166
743.9403, 7328.646
744.4224, 7283.645
744.9045, 7153.038
745.3867, 6942.136
745.8688, 6837.556
746.3509, 6879.712
746.8330, 6918.189
747.3151, 6918.287
747.7972, 6893.691
748.2794, 6849.645
748.7615, 6789.511
749.2436, 6739.619
749.7257, 6709.311
750.2078, 6680.973
750.6899, 6653.959
751.1721, 6622.956
751.6542, 6581.843
752.1363, 6531.852
752.6184, 6478.980
753.1005, 6425.458
753.5826, 6373.449
754.0648, 6326.206
754.5469, 6282.578
755.0290, 6238.177
755.5111, 6192.855
755.9932, 6153.778
756.4753, 6126.613
756.9575, 6100.914
757.4396, 6051.937
757.9217, 5968.352
758.4038, 5918.370
758.8859, 5926.429
759.3680, 5929.397
759.8502, 5893.983
760.3323, 5847.779
760.8144, 5821.696
761.2965, 5817.462
761.7786, 5808.669
762.2607, 5786.902
762.7429, 5761.392
763.2250, 5726.481
763.7071, 5696.347
764.1892, 5695.216
764.6713, 5720.364
765.1534, 5741.406
765.6356, 5736.999
766.1177, 5718.740
766.5998, 5700.649
767.0819, 5684.498
767.5640, 5680.163
768.0461, 5689.381
768.5283, 5700.077
769.0104, 5701.818
769.4925, 5704.209
769.9746, 5737.396
770.4567, 5822.368
770.9388, 5876.886
771.4210, 5883.959
771.9031, 5883.135
772.3852, 5887.959
772.8673, 5896.479
773.3494, 5905.250
773.8315, 5913.387
774.3137, 5928.454
774.7958, 5959.933
775.2779, 5990.997
775.7600, 6019.758
776.2421, 6038.106
776.7242, 6025.085
777.2064, 5984.646
777.6885, 5958.342
778.1706, 5979.751
778.6527, 6028.396
779.1348, 6074.466
779.6169, 6118.778
780.0991, 6166.051
780.5812, 6217.253
781.0633, 6256.883
781.5454, 6271.906
782.0275, 6272.375
782.5096, 6289.219
782.9918, 6329.323
783.4739, 6360.688
783.9560, 6374.876
784.4381, 6391.350
784.9202, 6424.381
785.4023, 6463.037
785.8845, 6492.127
786.3666, 6511.153
786.8487, 6520.347
787.3308, 6504.193
787.8129, 6495.227
788.2950, 6516.063
788.7772, 6549.483
789.2593, 6577.958
789.7414, 6596.339
790.2235, 6601.036
790.7056, 6587.145
791.1877, 6562.291
791.6699, 6525.516
792.1520, 6486.809
792.6341, 6481.518
793.1162, 6510.343
793.5983, 6525.997
794.0804, 6497.083
794.5626, 6437.654
795.0447, 6372.974
795.5268, 6299.558
796.0089, 6261.132
796.4910, 6279.200
796.9731, 6276.845
797.4553, 6208.656
797.9374, 6107.758
798.4195, 6025.238
798.9016, 5961.926
799.3837, 5914.560
799.8658, 5894.577
800.3480, 5876.707
800.8301, 5856.022
801.3122, 5832.556
801.7943, 5804.144
802.2764, 5772.568
802.7585, 5745.838
803.2407, 5727.586
803.7228, 5714.776
804.2049, 5705.482
804.6870, 5700.171
805.1691, 5704.159
805.6512, 5713.475
806.1334, 5710.054
806.6155, 5683.993
807.0976, 5657.581
807.5797, 5669.688
808.0618, 5711.706
808.5439, 5735.850
809.0261, 5740.411
809.5082, 5730.122
809.9903, 5703.271
810.4724, 5674.548
810.9545, 5662.617
811.4366, 5667.394
811.9188, 5669.273
812.4009, 5661.023
812.8830, 5663.751
813.3651, 5694.704
813.8472, 5724.547
814.3293, 5728.613
814.8115, 5715.657
815.2936, 5715.066
815.7757, 5744.227
816.2578, 5756.934
816.7399, 5725.014
817.2220, 5687.325
817.7042, 5664.043
818.1863, 5657.835
818.6684, 5676.064
819.1505, 5719.233
819.6326, 5754.346
820.1147, 5753.781
820.5969, 5732.454
821.0790, 5701.905
821.5611, 5668.387
822.0432, 5651.408
822.5253, 5653.834
823.0074, 5657.714
823.4896, 5648.444
823.9717, 5630.586
824.4538, 5616.557
824.9359, 5606.476
825.4180, 5596.384
825.9001, 5587.755
826.3823, 5569.259
826.8644, 5529.772
827.3465, 5482.857
827.8286, 5457.679
828.3107, 5463.478
828.7928, 5452.313
829.2749, 5415.864
829.7570, 5373.269
830.2391, 5325.406
830.7213, 5276.652
831.2034, 5232.001
831.6855, 5190.735
832.1676, 5146.645
832.6497, 5094.741
833.1318, 5044.208
833.6140, 4991.770
834.0961, 4946.976
834.5782, 4930.494
835.0603, 4927.571
835.5424, 4899.604
836.0245, 4830.193
836.5067, 4751.205
836.9888, 4685.125
837.4709, 4630.796
837.9530, 4592.462
838.4351, 4564.461
838.9172, 4529.151
839.3994, 4481.356
839.8815, 4425.282
840.3636, 4362.367
840.8457, 4298.199
841.3278, 4252.575
841.8099, 4226.032
842.2921, 4200.732
842.7742, 4174.587
843.2563, 4146.969
843.7384, 4118.016
844.2205, 4086.619
844.7026, 4050.538
845.1848, 4010.597
845.6669, 3962.503
846.1490, 3894.621
846.6311, 3835.563
847.1132, 3799.348
847.5953, 3773.376
848.0775, 3748.432
848.5596, 3723.698
849.0417, 3692.214
849.5238, 3646.694
850.0059, 3602.548
850.4880, 3565.348
850.9702, 3530.335
851.4523, 3492.882
851.9344, 3454.690
852.4165, 3421.535
852.8986, 3395.913
853.3807, 3370.235
853.8629, 3336.055
854.3450, 3301.884
854.8271, 3282.900
855.3092, 3270.027
855.7913, 3239.386
856.2734, 3187.510
856.7556, 3137.194
857.2377, 3106.812
857.7198, 3089.816
858.2019, 3078.964
858.6840, 3070.850
859.1661, 3044.094
859.6483, 2996.708
860.1304, 2957.829
860.6125, 2945.011
861.0946, 2945.474
861.5767, 2935.401
862.0588, 2914.035
862.5410, 2896.734
863.0231, 2886.118
863.5052, 2869.137
863.9873, 2838.242
864.4694, 2805.685
864.9515, 2785.166
865.4337, 2775.255
865.9158, 2760.957
866.3979, 2743.434
866.8800, 2719.606
867.3621, 2677.062
867.8442, 2641.369
868.3264, 2632.680
868.8085, 2636.715
869.2906, 2627.874
869.7727, 2601.083
870.2548, 2578.928
870.7369, 2567.570
871.2191, 2561.710
871.7012, 2563.447
872.1833, 2566.157
872.6654, 2562.537
873.1475, 2552.581
873.6296, 2540.563
874.1118, 2526.953
874.5939, 2515.490
875.0760, 2512.338
875.5581, 2510.779
876.0402, 2496.756
876.5223, 2476.735
877.0045, 2474.624
877.4866, 2497.294
877.9687, 2516.324
878.4508, 2495.429
878.9329, 2456.404
879.4150, 2452.153
879.8972, 2474.151
880.3793, 2483.365
880.8614, 2472.511
881.3435, 2455.557
881.8256, 2441.317
882.3077, 2430.351
882.7899, 2423.801
883.2720, 2421.745
883.7541, 2426.153
884.2362, 2439.745
884.7183, 2442.847
885.2004, 2424.692
885.6826, 2402.093
886.1647, 2395.437
886.6468, 2403.300
887.1289, 2404.368
887.6110, 2393.821
888.0931, 2387.313
888.5753, 2388.362
889.0574, 2391.360
889.5395, 2393.343
890.0216, 2394.931
890.5037, 2397.958
890.9858, 2403.721
891.4680, 2405.447
891.9501, 2400.217
892.4322, 2393.995
892.9143, 2389.675
893.3964, 2384.443
893.8785, 2372.594
894.3607, 2356.897
894.8428, 2349.104
895.3249, 2355.615
895.8070, 2363.945
896.2891, 2371.912
896.7712, 2376.781
897.2534, 2374.942
897.7355, 2368.997
898.2176, 2363.919
898.6997, 2360.706
899.1818, 2355.795
899.6639, 2342.576
900.1461, 2330.973
900.6282, 2334.708
901.1103, 2344.677
901.5924, 2344.982
902.0745, 2336.112
902.5566, 2328.997
903.0388, 2329.028
903.5209, 2332.492
904.0030, 2337.066
904.4851, 2341.004
904.9672, 2338.641
905.4493, 2331.396
905.9315, 2327.053
906.4136, 2327.393
906.8957, 2326.308
907.3778, 2318.176
907.8599, 2306.715
908.3420, 2301.372
908.8242, 2301.751
909.3063, 2300.480
909.7884, 2296.526
910.2705, 2299.078
910.7526, 2313.758
911.2347, 2329.929
911.7169, 2333.497
912.1990, 2325.231
912.6811, 2316.272
913.1632, 2305.797
913.6453, 2298.842
914.1274, 2298.655
914.6096, 2296.018
915.0917, 2282.296
915.5738, 2264.179
916.0559, 2257.439
916.5380, 2265.053
917.0201, 2272.620
917.5023, 2283.297
917.9844, 2288.905
918.4665, 2281.635
918.9486, 2273.485
919.4307, 2277.239
919.9128, 2289.881
920.3950, 2297.227
920.8771, 2301.101
921.3592, 2295.642
921.8413, 2268.232
922.3234, 2244.972
922.8055, 2241.679
923.2877, 2247.550
923.7698, 2248.764
924.2519, 2244.091
924.7340, 2239.454
925.2161, 2231.569
925.6982, 2230.411
926.1804, 2247.618
926.6625, 2265.874
927.1446, 2270.163
927.6267, 2264.324
928.1088, 2257.815
928.5909, 2252.977
929.0731, 2250.348
929.5552, 2251.005
930.0373, 2253.088
930.5194, 2252.970
931.0015, 2254.764
931.4836, 2268.434
931.9658, 2289.879
932.4479, 2302.826
932.9300, 2299.995
933.4121, 2285.526
933.8942, 2248.384
934.3763, 2212.525
934.8585, 2213.995
935.3406, 2240.112
935.8227, 2263.846
936.3048, 2277.162
936.7869, 2279.911
937.2690, 2270.056
937.7512, 2254.725
938.2333, 2241.977
938.7154, 2231.641
939.1975, 2221.371
939.6796, 2212.664
940.1617, 2214.082
940.6439, 2228.121
941.1260, 2243.494
941.6081, 2248.850
942.0902, 2247.204
942.5723, 2245.726
943.0544, 2243.855
943.5366, 2238.879
944.0187, 2230.413
944.5008, 2217.681
944.9829, 2199.777
945.4650, 2183.730
945.9471, 2182.396
946.4293, 2192.264
946.9114, 2189.781
947.3935, 2175.145
947.8756, 2165.470
948.3577, 2164.339
948.8398, 2169.404
949.3220, 2180.058
949.8041, 2192.656
950.2862, 2198.242
950.7683, 2196.098
951.2504, 2202.630
951.7325, 2220.974
952.2147, 2226.570
952.6968, 2208.818
953.1789, 2188.764
953.6610, 2185.587
954.1431, 2194.172
954.6252, 2194.277
955.1074, 2181.055
955.5895, 2183.356
956.0716, 2211.215
956.5537, 2226.919
957.0358, 2210.178
957.5179, 2186.544
958.0001, 2186.992
958.4822, 2207.829
958.9643, 2212.299
959.4464, 2190.992
959.9285, 2177.335
960.4106, 2175.987
960.8928, 2178.479
961.3749, 2181.431
961.8570, 2185.658
962.3391, 2193.803
962.8212, 2206.313
963.3033, 2210.235
963.7855, 2191.212
964.2676, 2189.103
964.7497, 2230.146
965.2318, 2263.066
965.7139, 2249.660
966.1960, 2213.271
966.6782, 2196.603
967.1603, 2202.802
967.6424, 2209.267
968.1245, 2224.818
968.6066, 2228.043
969.0887, 2200.632
969.5709, 2173.717
970.0530, 2168.594
970.5351, 2179.531
971.0172, 2194.346
971.4993, 2215.644
971.9814, 2227.509
972.4636, 2219.622
972.9457, 2213.447
973.4278, 2216.285
973.9099, 2222.692
974.3920, 2231.186
974.8741, 2239.197
975.3563, 2239.265
975.8384, 2226.906
976.3205, 2216.960
976.8026, 2209.470
977.2847, 2208.035
977.7668, 2220.211
978.2490, 2234.601
978.7311, 2239.756
979.2132, 2236.537
979.6953, 2231.863
980.1774, 2223.656
980.6595, 2222.285
981.1417, 2243.414
981.6238, 2257.383
982.1059, 2235.986
982.5880, 2206.716
983.0701, 2205.658
983.5522, 2231.185
984.0344, 2251.790
984.5165, 2258.381
984.9986, 2260.264
985.4807, 2250.965
985.9628, 2248.095
986.4449, 2271.281
986.9271, 2303.157
987.4092, 2317.520
987.8913, 2313.399
988.3734, 2313.700
988.8555, 2324.871
989.3376, 2343.573
989.8198, 2366.716
990.3019, 2398.590
990.7840, 2449.630
991.2661, 2508.179
991.7482, 2553.479
992.2303, 2584.112
992.7125, 2623.113
993.1946, 2689.154
993.6767, 2752.486
994.1588, 2803.313
994.6409, 2843.212
995.1230, 2881.469
995.6052, 2906.796
996.0873, 2895.780
996.5694, 2845.626
997.0515, 2786.546
997.5336, 2726.855
998.0157, 2667.070
998.4979, 2603.106
998.9800, 2543.647
999.4621, 2497.337
999.9442, 2460.988
1000.426, 2427.243
1000.908, 2394.647
1001.391, 2367.217
1001.873, 2346.722
1002.355, 2331.823
1002.837, 2325.262
1003.319, 2320.915
1003.801, 2315.030
1004.283, 2306.361
1004.765, 2289.469
1005.247, 2263.301
1005.730, 2252.070
1006.212, 2286.419
1006.694, 2313.681
1007.176, 2294.610
1007.658, 2265.985
1008.140, 2267.648
1008.622, 2286.145
1009.104, 2283.283
1009.587, 2249.692
1010.069, 2224.547
1010.551, 2236.614
1011.033, 2246.733
1011.515, 2225.869
1011.997, 2201.356
1012.479, 2203.249
1012.961, 2221.153
1013.443, 2226.821
1013.926, 2213.102
1014.408, 2201.882
1014.890, 2203.836
1015.372, 2207.665
1015.854, 2208.804
1016.336, 2208.452
1016.818, 2210.197
1017.300, 2210.750
1017.783, 2200.188
1018.265, 2175.115
1018.747, 2158.914
1019.229, 2172.841
1019.711, 2180.737
1020.193, 2161.193
1020.675, 2133.798
1021.157, 2108.883
1021.639, 2091.673
1022.122, 2094.881
1022.604, 2123.830
1023.086, 2135.690
1023.568, 2102.463
1024.050, 2069.882
1024.532, 2053.770
1025.014, 2047.241
1025.496, 2045.562
1025.979, 2048.677
1026.461, 2059.660
1026.943, 2080.300
1027.425, 2094.460
1027.907, 2096.457
1028.389, 2094.092
1028.871, 2079.892
1029.353, 2071.666
1029.835, 2090.895
1030.318, 2122.550
1030.800, 2134.357
1031.282, 2120.319
1031.764, 2114.650
1032.246, 2138.975
1032.728, 2149.163
1033.210, 2115.293
1033.692, 2083.819
1034.175, 2089.727
1034.657, 2117.120
1035.139, 2136.870
1035.621, 2146.969
1036.103, 2154.237
1036.585, 2157.343
1037.067, 2160.291
1037.549, 2165.672
1038.031, 2168.973
1038.514, 2166.370
1038.996, 2160.658
1039.478, 2155.840
1039.960, 2151.805
1040.442, 2150.251
1040.924, 2154.408
1041.406, 2155.308
1041.888, 2148.204
1042.370, 2143.064
1042.853, 2130.546
1043.335, 2144.539
1043.817, 2152.131
1044.299, 2153.665
1044.781, 2130.996
1045.263, 2139.580
1045.745, 2135.639
1046.227, 2131.185
1046.710, 2144.166
1047.192, 2125.018
1047.674, 2137.723
1048.156, 2137.713
1048.638, 2143.523
1049.120, 2136.731
1049.602, 2133.832
1050.084, 2143.538
1050.567, 2146.262
1051.049, 2138.020
1051.531, 2132.797
1052.013, 2130.569
1052.495, 2122.080
1052.977, 2110.456
1053.459, 2113.677
1053.941, 2134.514
1054.423, 2138.835
1054.906, 2121.890
1055.388, 2110.942
1055.870, 2116.344
1056.352, 2128.406
1056.834, 2140.086
1057.316, 2146.695
1057.798, 2127.724
1058.280, 2086.024
1058.762, 2075.289
1059.245, 2096.715
1059.727, 2112.204
1060.209, 2110.604
1060.691, 2109.280
1061.173, 2123.212
1061.655, 2140.328
1062.137, 2133.813
1062.619, 2110.866
1063.102, 2099.440
1063.584, 2099.404
1064.066, 2106.390
1064.548, 2118.474
1065.030, 2130.506
1065.512, 2139.611
1065.994, 2144.024
1066.476, 2136.045
1066.958, 2124.616
1067.441, 2130.215
1067.923, 2147.222
1068.405, 2163.983
1068.887, 2176.236
1069.369, 2175.341
1069.851, 2156.498
1070.333, 2138.945
1070.815, 2146.496
1071.297, 2160.226
1071.780, 2152.022
1072.262, 2137.557
1072.744, 2146.972
1073.226, 2173.365
1073.708, 2186.427
1074.190, 2175.910
1074.672, 2162.790
1075.154, 2155.133
1075.637, 2156.193
1076.119, 2180.937
1076.601, 2204.929
1077.083, 2193.835
1077.565, 2165.387
1078.047, 2161.712
1078.529, 2189.253
1079.011, 2207.307
1079.493, 2190.892
1079.976, 2174.991
1080.458, 2173.295
1080.940, 2175.307
1081.422, 2174.607
1081.904, 2172.929
1082.386, 2173.980
1082.868, 2177.532
1083.350, 2178.642
1083.833, 2174.848
1084.315, 2171.566
1084.797, 2172.742
1085.279, 2170.435
1085.761, 2156.367
1086.243, 2141.785
1086.725, 2139.020
1087.207, 2144.857
1087.689, 2145.656
1088.172, 2137.255
1088.654, 2136.322
1089.136, 2145.265
1089.618, 2157.036
1090.100, 2173.386
1090.582, 2184.219
1091.064, 2179.357
1091.546, 2167.267
1092.028, 2167.668
1092.511, 2181.152
1092.993, 2190.969
1093.475, 2197.829
1093.957, 2192.306
1094.439, 2170.651
1094.921, 2154.063
1095.403, 2154.396
1095.885, 2163.928
1096.368, 2173.754
1096.850, 2182.326
1097.332, 2180.699
1097.814, 2171.240
1098.296, 2170.790
1098.778, 2180.009
1099.260, 2187.650
1099.742, 2189.454
1100.224, 2189.118
1100.707, 2189.460
1101.189, 2190.844
1101.671, 2197.022
1102.153, 2203.073
1102.635, 2194.023
1103.117, 2177.078
1103.599, 2175.979
1104.081, 2192.698
1104.563, 2203.923
1105.046, 2194.988
1105.528, 2183.405
1106.010, 2182.030
1106.492, 2186.667
1106.974, 2194.885
1107.456, 2205.557
1107.938, 2220.945
1108.420, 2237.356
1108.903, 2242.661
1109.385, 2231.013
1109.867, 2224.395
1110.349, 2243.418
1110.831, 2253.550
1111.313, 2222.346
1111.795, 2193.420
1112.277, 2207.994
1112.760, 2247.077
1113.242, 2274.112
1113.724, 2286.177
1114.206, 2290.861
1114.688, 2287.323
1115.170, 2278.136
1115.652, 2258.367
1116.134, 2240.920
1116.616, 2232.808
1117.099, 2227.617
1117.581, 2217.365
1118.063, 2204.133
1118.545, 2198.326
1119.027, 2201.097
1119.509, 2206.432
1119.991, 2215.000
1120.473, 2221.318
1120.955, 2223.795
1121.438, 2224.151
1121.920, 2223.458
1122.402, 2222.223
1122.884, 2221.474
1123.366, 2221.016
1123.848, 2221.205
1124.330, 2221.010
1124.812, 2211.901
1125.295, 2194.767
1125.777, 2184.107
1126.259, 2186.549
1126.741, 2193.761
1127.223, 2196.056
1127.705, 2200.490
1128.187, 2225.106
1128.669, 2253.206
1129.151, 2254.672
1129.634, 2238.015
1130.116, 2226.942
1130.598, 2226.525
1131.080, 2228.840
1131.562, 2233.996
1132.044, 2231.012
1132.526, 2203.517
1133.008, 2177.292
1133.490, 2173.389
1133.973, 2177.979
1134.455, 2176.619
1134.937, 2168.896
1135.419, 2157.342
1135.901, 2139.572
1136.383, 2129.938
1136.865, 2137.606
1137.347, 2142.302
1137.830, 2139.031
1138.312, 2133.635
1138.794, 2129.898
1139.276, 2125.204
1139.758, 2115.100
1140.240, 2100.138
1140.722, 2085.896
1141.204, 2071.045
1141.687, 2066.100
1142.169, 2073.388
1142.651, 2078.869
1143.133, 2077.551
1143.615, 2075.205
1144.097, 2077.589
1144.579, 2078.992
1145.061, 2065.185
1145.543, 2040.966
1146.026, 2021.247
1146.508, 2007.409
1146.990, 2005.889
1147.472, 2015.141
1147.954, 2022.710
1148.436, 2022.924
1148.918, 2020.577
1149.400, 2018.314
1149.882, 2017.369
1150.365, 2019.443
1150.847, 2023.178
1151.329, 2028.341
1151.811, 2033.313
1152.293, 2036.728
1152.775, 2037.669
1153.257, 2031.294
1153.739, 2005.350
1154.222, 1994.622
1154.704, 2031.820
1155.186, 2057.774
1155.668, 2032.184
1156.150, 1996.311
1156.632, 1989.893
1157.114, 2002.460
1157.596, 2007.930
1158.078, 2005.133
1158.561, 2004.497
1159.043, 2008.133
1159.525, 2006.635
1160.007, 1998.166
1160.489, 1985.269
1160.971, 1967.482
1161.453, 1953.878
1161.935, 1956.422
1162.417, 1968.544
1162.900, 1970.614
1163.382, 1964.619
1163.864, 1962.017
1164.346, 1961.763
1164.828, 1951.317
1165.310, 1931.061
1165.792, 1926.639
1166.274, 1954.626
1166.757, 1977.616
1167.239, 1949.064
1167.721, 1907.197
1168.203, 1883.839
1168.685, 1878.548
1169.167, 1901.388
1169.649, 1936.937
1170.131, 1953.347
1170.614, 1945.262
1171.096, 1933.457
1171.578, 1920.565
1172.060, 1911.073
1172.542, 1906.184
1173.024, 1904.822
1173.506, 1908.340
1173.988, 1913.621
1174.470, 1918.388
1174.953, 1922.773
1175.435, 1927.505
1175.917, 1933.114
1176.399, 1934.241
1176.881, 1931.005
1177.363, 1919.903
1177.845, 1898.452
1178.327, 1888.323
1178.809, 1900.366
1179.292, 1919.805
1179.774, 1932.444
1180.256, 1937.583
1180.738, 1928.286
1181.220, 1912.306
1181.702, 1909.567
1182.184, 1918.539
1182.666, 1935.469
1183.149, 1956.201
1183.631, 1968.017
1184.113, 1964.663
1184.595, 1957.563
1185.077, 1950.832
1185.559, 1947.393
1186.041, 1949.191
1186.523, 1955.138
1187.005, 1969.795
1187.488, 1985.019
1187.970, 1984.076
1188.452, 1967.223
1188.934, 1963.101
1189.416, 1985.610
1189.898, 1996.734
1190.380, 1990.781
1190.862, 1985.541
1191.344, 1985.104
1191.827, 1989.083
1192.309, 1998.890
1192.791, 2008.241
1193.273, 2003.634
1193.755, 1989.458
1194.237, 1992.904
1194.719, 2010.544
1195.201, 2021.381
1195.684, 2024.288
1196.166, 2026.135
1196.648, 2029.495
1197.130, 2035.672
1197.612, 2046.049
1198.094, 2057.532
1198.576, 2071.420
1199.058, 2080.518
1199.541, 2073.593
1200.023, 2060.988
1200.505, 2054.653
1200.987, 2054.132
1201.469, 2058.449
1201.951, 2068.196
1202.433, 2059.800
1202.915, 1992.016
1203.397, 1967.579
1203.880, 2031.683
1204.362, 2078.749
1204.844, 2063.927
1205.326, 2031.101
1205.808, 2017.906
1206.290, 2015.755
1206.772, 2002.701
1207.254, 1979.988
1207.736, 1965.009
1208.219, 1958.682
1208.701, 1974.306
1209.183, 2010.860
1209.665, 2050.060
1210.147, 2083.772
1210.629, 2104.882
1211.111, 2104.222
1211.593, 2097.889
1212.076, 2103.001
1212.558, 2111.045
1213.040, 2114.527
1213.522, 2114.005
1214.004, 2110.261
1214.486, 2103.934
1214.968, 2094.790
1215.450, 2081.786
1215.932, 2076.090
1216.415, 2084.901
1216.897, 2092.354
1217.379, 2093.353
1217.861, 2099.797
1218.343, 2121.142
1218.825, 2139.349
1219.307, 2136.116
1219.789, 2120.185
1220.271, 2113.995
1220.754, 2116.015
1221.236, 2107.801
1221.718, 2091.625
1222.200, 2079.478
1222.682, 2073.841
1223.164, 2079.092
1223.646, 2095.655
1224.128, 2110.035
1224.611, 2111.966
1225.093, 2109.648
1225.575, 2109.957
1226.057, 2109.310
1226.539, 2103.206
1227.021, 2095.489
1227.503, 2087.726
1227.985, 2082.979
1228.468, 2090.660
1228.950, 2114.393
1229.432, 2125.496
1229.914, 2119.342
1230.396, 2109.089
1230.878, 2092.546
1231.360, 2081.782
1231.842, 2081.753
1232.324, 2086.362
1232.807, 2091.743
1233.289, 2094.239
1233.771, 2085.454
1234.253, 2068.749
1234.735, 2056.518
1235.217, 2045.465
##END=



