##NAMES=Romerite
##RRUFFID=R060238
##IDEAL CHEMISTRY=Fe^2+^Fe^3+^_2_(S^6+^O_4_)_4_&#183;14H_2_O
##LOCALITY=Dexter no. 7 mine, Calf Mesa, San Rafael Swell, Emery County, Utah, USA
##OWNER=RRUFF
##SOURCE=University of Arizona Mineral Museum
##DESCRIPTION=Orange color massive blebs associated with voltaite and coquimbite
##STATUS=The identification of this mineral has been confirmed by single-crystal X-ray diffraction.
##URL=rruff.info/R060238
150.8323, 1345.550
151.3145, 1363.801
151.7966, 1382.484
152.2787, 1399.947
152.7608, 1413.869
153.2429, 1429.910
153.7250, 1449.892
154.2072, 1472.448
154.6893, 1493.745
155.1714, 1506.808
155.6535, 1510.698
156.1356, 1515.026
156.6177, 1519.671
157.0999, 1527.102
157.5820, 1538.868
158.0641, 1554.093
158.5462, 1569.208
159.0283, 1581.581
159.5104, 1594.547
159.9926, 1610.269
160.4747, 1627.854
160.9568, 1649.472
161.4389, 1677.403
161.9210, 1710.555
162.4031, 1743.982
162.8853, 1774.328
163.3674, 1804.316
163.8495, 1836.433
164.3316, 1871.516
164.8137, 1908.782
165.2958, 1948.063
165.7780, 1989.478
166.2601, 2031.993
166.7422, 2076.976
167.2243, 2122.788
167.7064, 2166.733
168.1885, 2209.099
168.6707, 2248.865
169.1528, 2285.925
169.6349, 2320.572
170.1170, 2350.540
170.5991, 2375.467
171.0812, 2395.084
171.5634, 2408.566
172.0455, 2415.551
172.5276, 2416.602
173.0097, 2412.474
173.4918, 2403.306
173.9739, 2388.281
174.4561, 2366.334
174.9382, 2337.892
175.4203, 2303.739
175.9024, 2264.156
176.3845, 2219.534
176.8666, 2169.900
177.3488, 2114.427
177.8309, 2056.301
178.3130, 1997.659
178.7951, 1938.416
179.2772, 1880.682
179.7593, 1823.721
180.2415, 1769.002
180.7236, 1718.189
181.2057, 1671.332
181.6878, 1628.475
182.1699, 1588.984
182.6520, 1553.380
183.1342, 1520.352
183.6163, 1489.064
184.0984, 1459.849
184.5805, 1435.033
185.0626, 1415.265
185.5447, 1398.974
186.0269, 1383.179
186.5090, 1367.975
186.9911, 1354.247
187.4732, 1342.967
187.9553, 1333.746
188.4374, 1325.169
188.9196, 1316.531
189.4017, 1308.766
189.8838, 1303.975
190.3659, 1302.161
190.8480, 1302.194
191.3301, 1303.821
191.8123, 1306.881
192.2944, 1309.361
192.7765, 1310.319
193.2586, 1310.806
193.7407, 1314.234
194.2228, 1320.882
194.7050, 1328.462
195.1871, 1335.224
195.6692, 1341.178
196.1513, 1346.820
196.6334, 1352.372
197.1155, 1357.642
197.5977, 1362.295
198.0798, 1366.548
198.5619, 1369.180
199.0440, 1368.680
199.5261, 1364.906
200.0082, 1360.338
200.4904, 1355.678
200.9725, 1350.698
201.4546, 1343.867
201.9367, 1335.137
202.4188, 1324.626
202.9009, 1311.759
203.3831, 1295.892
203.8652, 1281.694
204.3473, 1270.772
204.8294, 1262.776
205.3115, 1253.471
205.7936, 1242.161
206.2758, 1231.029
206.7579, 1222.305
207.2400, 1216.229
207.7221, 1211.844
208.2042, 1208.931
208.6863, 1207.496
209.1685, 1207.699
209.6506, 1209.464
210.1327, 1212.984
210.6148, 1218.704
211.0969, 1226.927
211.5790, 1236.156
212.0612, 1246.170
212.5433, 1256.894
213.0254, 1267.997
213.5075, 1279.526
213.9896, 1291.406
214.4717, 1303.473
214.9538, 1316.020
215.4360, 1328.242
215.9181, 1340.288
216.4002, 1352.140
216.8823, 1362.248
217.3644, 1370.077
217.8465, 1376.752
218.3287, 1383.965
218.8108, 1392.511
219.2929, 1399.804
219.7750, 1405.032
220.2571, 1407.967
220.7392, 1411.079
221.2214, 1414.566
221.7035, 1418.070
222.1856, 1421.264
222.6677, 1424.294
223.1498, 1426.629
223.6319, 1427.633
224.1141, 1426.884
224.5962, 1428.301
225.0783, 1432.928
225.5604, 1438.763
226.0425, 1443.033
226.5246, 1444.469
227.0068, 1446.762
227.4889, 1451.095
227.9710, 1457.921
228.4531, 1464.130
228.9352, 1469.651
229.4173, 1474.613
229.8995, 1479.160
230.3816, 1483.687
230.8637, 1487.158
231.3458, 1489.093
231.8279, 1489.282
232.3100, 1489.507
232.7922, 1490.012
233.2743, 1490.366
233.7564, 1489.990
234.2385, 1488.671
234.7206, 1486.994
235.2027, 1484.888
235.6849, 1482.132
236.1670, 1480.452
236.6491, 1480.174
237.1312, 1480.715
237.6133, 1481.189
238.0954, 1480.699
238.5776, 1481.705
239.0597, 1484.803
239.5418, 1490.010
240.0239, 1496.879
240.5060, 1505.167
240.9881, 1515.309
241.4703, 1527.923
241.9524, 1543.408
242.4345, 1560.555
242.9166, 1578.741
243.3987, 1597.816
243.8808, 1619.839
244.3630, 1645.660
244.8451, 1673.861
245.3272, 1702.639
245.8093, 1731.227
246.2914, 1761.977
246.7735, 1796.010
247.2557, 1833.799
247.7378, 1871.337
248.2199, 1907.711
248.7020, 1944.997
249.1841, 1985.669
249.6662, 2031.045
250.1484, 2077.152
250.6305, 2123.280
251.1126, 2168.953
251.5947, 2215.677
252.0768, 2263.342
252.5589, 2311.467
253.0411, 2359.566
253.5232, 2407.123
254.0053, 2454.593
254.4874, 2501.981
254.9695, 2549.482
255.4516, 2597.035
255.9338, 2644.185
256.4159, 2691.945
256.8980, 2741.218
257.3801, 2794.642
257.8622, 2844.371
258.3444, 2888.784
258.8265, 2928.162
259.3086, 2963.120
259.7907, 2992.955
260.2728, 3018.559
260.7549, 3040.205
261.2371, 3058.212
261.7192, 3072.007
262.2013, 3081.701
262.6834, 3087.207
263.1655, 3086.816
263.6476, 3080.215
264.1298, 3068.140
264.6119, 3050.880
265.0940, 3028.571
265.5761, 3000.917
266.0582, 2967.663
266.5403, 2929.242
267.0225, 2886.234
267.5046, 2837.411
267.9867, 2787.038
268.4688, 2738.591
268.9509, 2692.317
269.4330, 2644.822
269.9152, 2595.516
270.3973, 2544.552
270.8794, 2494.273
271.3615, 2444.808
271.8436, 2395.854
272.3257, 2348.272
272.8079, 2301.900
273.2900, 2256.570
273.7721, 2211.574
274.2542, 2167.636
274.7363, 2126.335
275.2184, 2088.032
275.7006, 2051.356
276.1827, 2016.496
276.6648, 1983.383
277.1469, 1950.903
277.6290, 1918.701
278.1111, 1887.403
278.5933, 1858.640
279.0754, 1832.323
279.5575, 1807.417
280.0396, 1783.360
280.5217, 1760.337
281.0038, 1737.908
281.4860, 1716.124
281.9681, 1694.731
282.4502, 1673.166
282.9323, 1651.365
283.4144, 1630.061
283.8965, 1609.571
284.3787, 1590.026
284.8608, 1570.576
285.3429, 1550.889
285.8250, 1532.204
286.3071, 1517.259
286.7892, 1505.968
287.2714, 1493.871
287.7535, 1477.928
288.2356, 1459.035
288.7177, 1443.319
289.1998, 1430.875
289.6819, 1420.170
290.1641, 1410.117
290.6462, 1400.550
291.1283, 1389.990
291.6104, 1377.186
292.0925, 1363.100
292.5746, 1351.287
293.0568, 1341.849
293.5389, 1332.655
294.0210, 1321.830
294.5031, 1309.520
294.9852, 1296.303
295.4673, 1281.832
295.9495, 1266.962
296.4316, 1254.309
296.9137, 1243.833
297.3958, 1232.712
297.8779, 1217.904
298.3600, 1200.671
298.8422, 1183.842
299.3243, 1168.428
299.8064, 1153.398
300.2885, 1137.049
300.7706, 1119.614
301.2527, 1102.072
301.7349, 1085.676
302.2170, 1069.660
302.6991, 1053.047
303.1812, 1035.261
303.6633, 1017.117
304.1454, 999.3733
304.6276, 982.0184
305.1097, 964.5876
305.5918, 946.3677
306.0739, 928.2318
306.5560, 911.8251
307.0381, 897.7175
307.5203, 883.8141
308.0024, 867.6818
308.4845, 850.3295
308.9666, 834.1221
309.4487, 821.1114
309.9308, 809.2369
310.4130, 796.8344
310.8951, 783.6469
311.3772, 770.6697
311.8593, 758.4421
312.3414, 747.0196
312.8235, 736.3129
313.3057, 726.7909
313.7878, 717.4775
314.2699, 707.7318
314.7520, 697.5372
315.2341, 687.2623
315.7162, 675.8123
316.1984, 664.8582
316.6805, 656.4029
317.1626, 654.3177
317.6447, 651.7338
318.1268, 645.2746
318.6089, 635.1044
319.0911, 625.6767
319.5732, 618.5703
320.0553, 612.7125
320.5374, 607.3535
321.0195, 602.5643
321.5016, 597.9473
321.9838, 593.6071
322.4659, 589.4432
322.9480, 584.9612
323.4301, 579.3698
323.9122, 573.9057
324.3943, 569.3328
324.8765, 566.7932
325.3586, 563.5380
325.8407, 558.5153
326.3228, 552.5537
326.8049, 547.7518
327.2870, 544.9177
327.7692, 542.7177
328.2513, 540.7856
328.7334, 539.4210
329.2155, 537.6794
329.6976, 535.4081
330.1797, 532.7994
330.6619, 530.1489
331.1440, 527.0307
331.6261, 524.4286
332.1082, 522.8683
332.5903, 522.6776
333.0724, 521.3544
333.5546, 518.2413
334.0367, 514.5908
334.5188, 511.7852
335.0009, 510.0616
335.4830, 508.5706
335.9651, 507.0241
336.4473, 505.4848
336.9294, 505.0535
337.4115, 506.1328
337.8936, 507.5275
338.3757, 508.3541
338.8578, 508.5959
339.3399, 508.4018
339.8221, 507.7320
340.3042, 506.6784
340.7863, 505.3421
341.2684, 503.5281
341.7505, 502.3172
342.2326, 502.6088
342.7148, 504.3877
343.1969, 506.0357
343.6790, 507.5068
344.1611, 508.6385
344.6432, 508.8552
345.1253, 508.1645
345.6075, 507.7076
346.0896, 508.3943
346.5717, 509.8391
347.0538, 510.1757
347.5359, 509.2088
348.0180, 508.0869
348.5002, 508.1475
348.9823, 509.2072
349.4644, 510.5368
349.9465, 512.1009
350.4286, 513.6497
350.9107, 514.6368
351.3929, 515.0856
351.8750, 515.5963
352.3571, 516.7447
352.8392, 518.3032
353.3213, 519.7989
353.8034, 520.8817
354.2856, 522.2044
354.7677, 524.9872
355.2498, 528.7922
355.7319, 531.8715
356.2140, 532.3713
356.6961, 531.9933
357.1783, 532.4486
357.6604, 534.1187
358.1425, 536.3325
358.6246, 539.3184
359.1067, 542.5163
359.5888, 544.8775
360.0710, 544.5004
360.5531, 544.2338
361.0352, 545.9799
361.5173, 550.1190
361.9994, 554.2985
362.4815, 557.8234
362.9637, 560.8552
363.4458, 563.5679
363.9279, 565.7891
364.4100, 567.9406
364.8921, 569.9081
365.3742, 571.7611
365.8564, 574.1536
366.3385, 577.5877
366.8206, 581.3381
367.3027, 584.9700
367.7848, 588.4637
368.2669, 591.8530
368.7491, 595.1076
369.2312, 598.2433
369.7133, 601.2108
370.1954, 603.9168
370.6775, 606.5826
371.1596, 609.2362
371.6418, 611.8124
372.1239, 614.6439
372.6060, 617.7039
373.0881, 621.0191
373.5702, 624.7977
374.0523, 629.5236
374.5345, 633.5709
375.0166, 636.1451
375.4987, 637.2914
375.9808, 640.0148
376.4629, 644.8333
376.9450, 650.1278
377.4272, 654.2421
377.9093, 656.9437
378.3914, 660.8436
378.8735, 666.9886
379.3556, 674.1822
379.8377, 679.0612
380.3199, 681.4560
380.8020, 683.2390
381.2841, 685.3538
381.7662, 687.8457
382.2483, 690.8636
382.7304, 694.5002
383.2126, 698.5281
383.6947, 702.6776
384.1768, 707.0068
384.6589, 711.6952
385.1410, 717.0941
385.6231, 722.8882
386.1053, 728.6992
386.5874, 734.4998
387.0695, 740.2786
387.5516, 746.3987
388.0337, 752.5033
388.5158, 757.8910
388.9980, 761.8367
389.4801, 765.6059
389.9622, 770.1577
390.4443, 775.3630
390.9264, 780.8217
391.4085, 787.3448
391.8907, 793.3737
392.3728, 797.3583
392.8549, 798.0858
393.3370, 799.0792
393.8191, 802.1456
394.3012, 806.3961
394.7834, 810.3337
395.2655, 814.1230
395.7476, 816.9639
396.2297, 818.4144
396.7118, 818.3445
397.1939, 817.7485
397.6761, 816.6645
398.1582, 815.1746
398.6403, 813.3482
399.1224, 811.4229
399.6045, 808.8848
400.0866, 805.6440
400.5688, 801.7283
401.0509, 797.4210
401.5330, 792.8525
402.0151, 787.7272
402.4972, 781.7714
402.9793, 774.4030
403.4615, 767.7901
403.9436, 762.3729
404.4257, 757.3856
404.9078, 751.5522
405.3899, 744.6030
405.8720, 737.6732
406.3542, 730.8878
406.8363, 724.2919
407.3184, 719.1273
407.8005, 715.5707
408.2826, 712.5394
408.7647, 708.8170
409.2469, 704.5095
409.7290, 700.8995
410.2111, 698.3089
410.6932, 696.4071
411.1753, 694.4362
411.6574, 692.4789
412.1396, 691.1392
412.6217, 691.0463
413.1038, 691.8138
413.5859, 692.4973
414.0680, 692.8741
414.5501, 694.0959
415.0323, 697.7629
415.5144, 703.0374
415.9965, 708.3715
416.4786, 712.6892
416.9607, 717.0294
417.4428, 722.3129
417.9250, 728.4271
418.4071, 734.7753
418.8892, 741.1441
419.3713, 747.4871
419.8534, 753.5746
420.3355, 758.7709
420.8177, 764.7907
421.2998, 773.0598
421.7819, 782.5726
422.2640, 791.3571
422.7461, 798.3183
423.2282, 804.9719
423.7104, 811.8029
424.1925, 818.7104
424.6746, 826.2742
425.1567, 835.4113
425.6388, 844.6599
426.1209, 852.7966
426.6031, 859.0500
427.0852, 865.2853
427.5673, 871.3593
428.0494, 877.5428
428.5315, 885.3239
429.0136, 895.3422
429.4958, 905.3366
429.9779, 913.7510
430.4600, 920.2429
430.9421, 927.2792
431.4242, 934.7068
431.9063, 943.0380
432.3885, 953.2547
432.8706, 965.2887
433.3527, 977.6276
433.8348, 989.5763
434.3169, 1001.486
434.7990, 1014.234
435.2812, 1027.769
435.7633, 1042.518
436.2454, 1058.825
436.7275, 1076.434
437.2096, 1095.303
437.6917, 1115.748
438.1739, 1136.636
438.6560, 1155.904
439.1381, 1174.544
439.6202, 1195.178
440.1023, 1220.101
440.5844, 1246.923
441.0666, 1274.255
441.5487, 1301.762
442.0308, 1329.698
442.5129, 1358.186
442.9950, 1387.119
443.4771, 1416.395
443.9593, 1446.759
444.4414, 1476.636
444.9235, 1506.838
445.4056, 1536.468
445.8877, 1563.397
446.3698, 1585.142
446.8520, 1605.918
447.3341, 1627.744
447.8162, 1651.575
448.2983, 1672.915
448.7804, 1690.882
449.2625, 1706.800
449.7447, 1721.718
450.2268, 1735.281
450.7089, 1748.826
451.1910, 1762.100
451.6731, 1775.480
452.1552, 1791.184
452.6374, 1809.548
453.1195, 1827.992
453.6016, 1844.246
454.0837, 1858.320
454.5658, 1874.670
455.0479, 1893.592
455.5301, 1914.411
456.0122, 1936.645
456.4943, 1960.224
456.9764, 1982.630
457.4585, 2002.944
457.9406, 2021.921
458.4228, 2042.235
458.9049, 2063.346
459.3870, 2081.782
459.8691, 2093.233
460.3512, 2100.992
460.8333, 2109.551
461.3155, 2120.970
461.7976, 2130.117
462.2797, 2133.514
462.7618, 2132.435
463.2439, 2129.032
463.7260, 2123.094
464.2082, 2115.898
464.6903, 2108.569
465.1724, 2101.148
465.6545, 2091.186
466.1366, 2075.761
466.6187, 2059.291
467.1009, 2044.709
467.5830, 2032.536
468.0651, 2021.525
468.5472, 2012.000
469.0293, 2003.646
469.5114, 1995.708
469.9936, 1987.839
470.4757, 1981.202
470.9578, 1976.479
471.4399, 1973.642
471.9220, 1970.231
472.4041, 1966.215
472.8863, 1961.822
473.3684, 1956.935
473.8505, 1951.586
474.3326, 1947.416
474.8147, 1944.857
475.2968, 1943.197
475.7790, 1941.284
476.2611, 1939.160
476.7432, 1937.192
477.2253, 1936.238
477.7074, 1935.288
478.1895, 1932.809
478.6717, 1928.776
479.1538, 1923.512
479.6359, 1916.689
480.1180, 1908.984
480.6001, 1901.398
481.0822, 1895.158
481.5644, 1887.423
482.0465, 1876.416
482.5286, 1862.859
483.0107, 1848.300
483.4928, 1833.074
483.9749, 1817.031
484.4571, 1800.402
484.9392, 1783.277
485.4213, 1764.229
485.9034, 1743.543
486.3855, 1720.561
486.8676, 1694.511
487.3498, 1664.143
487.8319, 1632.555
488.3140, 1599.734
488.7961, 1565.920
489.2782, 1531.996
489.7603, 1498.523
490.2425, 1463.938
490.7246, 1427.510
491.2067, 1389.397
491.6888, 1352.713
492.1709, 1317.681
492.6530, 1284.005
493.1352, 1252.220
493.6173, 1221.748
494.0994, 1190.308
494.5815, 1157.353
495.0636, 1124.348
495.5457, 1093.293
496.0279, 1064.134
496.5100, 1036.813
496.9921, 1011.548
497.4742, 987.6063
497.9563, 964.3964
498.4384, 941.6927
498.9206, 919.7800
499.4027, 897.9916
499.8848, 877.3359
500.3669, 858.1552
500.8490, 841.4104
501.3311, 825.0253
501.8133, 808.1086
502.2954, 791.2043
502.7775, 775.2872
503.2596, 760.7860
503.7417, 746.5630
504.2238, 732.4401
504.7060, 718.4202
505.1881, 704.8088
505.6702, 691.3074
506.1523, 678.8646
506.6344, 668.3673
507.1165, 660.1235
507.5987, 651.8414
508.0808, 643.5486
508.5629, 635.1569
509.0450, 626.5143
509.5271, 617.6470
510.0092, 608.8722
510.4914, 600.0588
510.9735, 591.4774
511.4556, 583.7462
511.9377, 576.8432
512.4199, 569.9828
512.9020, 562.0350
513.3841, 554.1036
513.8662, 547.8771
514.3483, 543.9845
514.8304, 539.7952
515.3126, 533.0954
515.7947, 525.3366
516.2768, 518.2723
516.7589, 512.4007
517.2410, 507.3304
517.7231, 503.1366
518.2053, 499.7068
518.6874, 496.5049
519.1695, 494.1961
519.6516, 491.4523
520.1337, 487.7729
520.6158, 482.9275
521.0980, 478.0233
521.5801, 472.6328
522.0622, 467.7415
522.5443, 464.6596
523.0264, 463.8599
523.5085, 461.9493
523.9907, 458.0983
524.4728, 453.2438
524.9549, 449.1783
525.4370, 445.8866
525.9191, 443.3122
526.4012, 442.1342
526.8834, 441.4612
527.3655, 439.1431
527.8476, 435.2111
528.3297, 431.0668
528.8118, 427.5343
529.2939, 424.5764
529.7761, 422.3062
530.2582, 421.1729
530.7403, 419.7559
531.2224, 416.5820
531.7045, 412.7398
532.1866, 410.0278
532.6688, 410.2226
533.1509, 410.2907
533.6330, 409.0153
534.1151, 406.4604
534.5972, 404.6984
535.0793, 404.4283
535.5615, 404.2755
536.0436, 403.6809
536.5257, 402.7422
537.0078, 400.8146
537.4899, 397.3821
537.9720, 393.7954
538.4542, 391.9813
538.9363, 392.0361
539.4184, 392.0621
539.9005, 391.6545
540.3826, 390.9540
540.8647, 390.4347
541.3469, 390.0126
541.8290, 389.0243
542.3111, 386.4355
542.7932, 383.3052
543.2753, 381.1258
543.7574, 379.9466
544.2396, 379.4708
544.7217, 380.1300
545.2038, 381.0968
545.6859, 381.5137
546.1680, 380.9503
546.6501, 380.2382
547.1323, 379.7241
547.6144, 379.2300
548.0965, 378.4398
548.5786, 376.4457
549.0607, 375.1282
549.5428, 375.2665
550.0250, 376.6485
550.5071, 376.9312
550.9892, 375.6107
551.4713, 374.1080
551.9534, 373.2412
552.4355, 373.1049
552.9177, 372.5565
553.3998, 371.4605
553.8819, 370.3708
554.3640, 370.0185
554.8461, 370.2918
555.3282, 370.5451
555.8104, 370.5458
556.2925, 370.5779
556.7746, 371.2391
557.2567, 372.2929
557.7388, 373.0032
558.2209, 372.7891
558.7031, 372.2143
559.1852, 371.3577
559.6673, 370.2897
560.1494, 370.1480
560.6315, 372.8243
561.1136, 375.6186
561.5958, 376.6337
562.0779, 374.2987
562.5600, 372.7272
563.0421, 372.3412
563.5242, 372.7084
564.0063, 373.3957
564.4885, 374.6755
564.9706, 375.6036
565.4527, 375.9637
565.9348, 375.8647
566.4169, 375.4978
566.8990, 374.7717
567.3812, 374.5416
567.8633, 375.4276
568.3454, 377.1779
568.8275, 379.1272
569.3096, 381.2666
569.7917, 382.9957
570.2739, 383.4254
570.7560, 383.2011
571.2381, 383.3285
571.7202, 384.1199
572.2023, 384.9839
572.6844, 385.5527
573.1666, 385.9604
573.6487, 386.4187
574.1308, 386.7417
574.6129, 387.3918
575.0950, 388.8033
575.5771, 390.7857
576.0593, 392.1479
576.5414, 392.0324
577.0235, 392.3120
577.5056, 393.7413
577.9877, 396.4116
578.4698, 399.4795
578.9520, 403.2939
579.4341, 406.6336
579.9162, 408.0113
580.3983, 407.5767
580.8804, 407.6103
581.3625, 408.3433
581.8447, 409.8593
582.3268, 412.9333
582.8089, 416.9333
583.2910, 420.1748
583.7731, 421.3097
584.2552, 421.9521
584.7373, 423.4982
585.2194, 425.7777
585.7015, 428.1469
586.1837, 430.2154
586.6658, 432.3683
587.1479, 434.7630
587.6300, 437.3543
588.1121, 440.5241
588.5942, 444.9315
589.0764, 449.4806
589.5585, 453.3651
590.0406, 455.8510
590.5227, 459.5453
591.0048, 465.0134
591.4869, 471.1573
591.9691, 476.2574
592.4512, 480.2351
592.9333, 483.9295
593.4154, 487.4058
593.8975, 490.9069
594.3796, 494.6941
594.8618, 498.8383
595.3439, 503.9575
595.8260, 511.4530
596.3081, 519.4998
596.7902, 526.1529
597.2723, 531.3488
597.7545, 536.0707
598.2366, 540.0594
598.7187, 544.2191
599.2008, 549.3152
599.6829, 555.8130
600.1650, 562.5023
600.6472, 569.8849
601.1293, 576.9918
601.6114, 582.5919
602.0935, 585.6880
602.5756, 589.3441
603.0577, 594.4608
603.5399, 600.1339
604.0220, 603.9128
604.5041, 605.6183
604.9862, 607.0252
605.4683, 608.7528
605.9504, 610.7968
606.4326, 613.6350
606.9147, 617.1379
607.3968, 619.7031
607.8789, 619.1218
608.3610, 617.3818
608.8431, 617.2255
609.3253, 619.2747
609.8074, 620.7064
610.2895, 619.6713
610.7716, 617.4301
611.2537, 615.1735
611.7358, 613.5070
612.2180, 611.4208
612.7001, 608.6404
613.1822, 605.4341
613.6643, 602.0220
614.1464, 597.9376
614.6285, 594.9101
615.1107, 593.7026
615.5928, 593.7793
616.0749, 593.0195
616.5570, 591.4532
617.0391, 588.8183
617.5212, 584.0522
618.0034, 578.2252
618.4855, 574.2513
618.9676, 572.1249
619.4497, 570.5203
619.9318, 568.9127
620.4139, 566.9877
620.8961, 564.1490
621.3782, 559.7712
621.8603, 556.0994
622.3424, 554.9373
622.8245, 554.6412
623.3066, 553.3242
623.7888, 548.8975
624.2709, 545.6934
624.7530, 544.4963
625.2351, 544.6373
625.7172, 544.5682
626.1993, 544.1981
626.6815, 543.8554
627.1636, 543.4445
627.6457, 543.1779
628.1278, 544.1409
628.6099, 546.3360
629.0920, 548.7794
629.5742, 550.8617
630.0563, 552.7357
630.5384, 554.3760
631.0205, 555.7836
631.5026, 558.2252
631.9847, 563.3384
632.4669, 569.5319
632.9490, 575.3125
633.4311, 580.0536
633.9132, 585.0225
634.3953, 590.3788
634.8774, 596.2076
635.3596, 602.6996
635.8417, 610.1310
636.3238, 617.7226
636.8059, 625.3563
637.2880, 633.1321
637.7701, 641.2282
638.2523, 649.6484
638.7344, 658.8655
639.2165, 669.4344
639.6986, 680.8590
640.1807, 691.3971
640.6628, 701.2411
641.1450, 711.3791
641.6271, 722.7527
642.1092, 734.6543
642.5913, 746.3270
643.0734, 757.8199
643.5555, 768.4612
644.0377, 777.2740
644.5198, 785.6943
645.0019, 794.8162
645.4840, 805.5115
645.9661, 815.3715
646.4482, 824.1829
646.9304, 832.2089
647.4125, 839.6377
647.8946, 846.6719
648.3767, 852.6563
648.8588, 857.6585
649.3409, 861.4537
649.8231, 863.4979
650.3052, 863.9075
650.7873, 863.7922
651.2694, 863.9352
651.7515, 863.4310
652.2336, 860.6076
652.7158, 855.9182
653.1979, 850.8449
653.6800, 847.1371
654.1621, 842.6016
654.6442, 835.3724
655.1263, 825.3920
655.6085, 815.5344
656.0906, 806.5778
656.5727, 797.7787
657.0548, 788.5743
657.5369, 778.4913
658.0190, 770.2225
658.5012, 764.5746
658.9833, 759.2477
659.4654, 751.9346
659.9475, 742.7346
660.4296, 733.2560
660.9117, 723.7420
661.3939, 714.3732
661.8760, 705.4494
662.3581, 696.8843
662.8402, 688.4826
663.3223, 680.2019
663.8044, 672.0322
664.2866, 663.9054
664.7687, 655.9216
665.2508, 648.1177
665.7329, 640.7515
666.2150, 633.3299
666.6971, 625.4526
667.1793, 617.2802
667.6614, 609.9599
668.1435, 603.6213
668.6256, 597.8023
669.1077, 592.6384
669.5898, 587.9558
670.0720, 581.3936
670.5541, 572.7411
671.0362, 564.3364
671.5183, 558.2180
672.0004, 553.4625
672.4825, 548.3141
672.9647, 542.5579
673.4468, 536.5405
673.9289, 529.8762
674.4110, 523.3004
674.8931, 517.6927
675.3752, 513.5826
675.8574, 509.5518
676.3395, 505.7224
676.8216, 501.6778
677.3037, 496.8804
677.7858, 490.7246
678.2679, 485.3111
678.7501, 480.9652
679.2322, 477.4126
679.7143, 474.0781
680.1964, 471.0180
680.6785, 468.0651
681.1606, 465.1880
681.6428, 462.4089
682.1249, 459.9700
682.6070, 457.7314
683.0891, 455.2787
683.5712, 452.0617
684.0533, 448.7966
684.5355, 445.6411
685.0176, 442.7039
685.4997, 440.5821
685.9818, 440.6114
686.4639, 440.4087
686.9460, 438.7101
687.4282, 435.2180
687.9103, 432.9888
688.3924, 432.3422
688.8745, 432.1350
689.3566, 431.7638
689.8387, 431.1792
690.3209, 429.5204
690.8030, 426.6038
691.2851, 423.8558
691.7672, 423.1734
692.2493, 423.5829
692.7314, 423.4346
693.2136, 422.1859
693.6957, 420.9436
694.1778, 420.2163
694.6599, 419.9203
695.1420, 419.9516
695.6241, 420.8766
696.1063, 421.3867
696.5884, 421.4467
697.0705, 421.0071
697.5526, 419.7938
698.0347, 417.4949
698.5168, 415.6824
698.9990, 414.7670
699.4811, 414.5490
699.9632, 414.7830
700.4453, 415.3824
700.9274, 415.8113
701.4095, 415.8940
701.8917, 415.6063
702.3738, 414.6274
702.8559, 413.1521
703.3380, 412.0895
703.8201, 411.9247
704.3022, 412.1880
704.7844, 412.9820
705.2665, 414.3674
705.7486, 414.5976
706.2307, 412.8979
706.7128, 411.1461
707.1949, 410.2530
707.6771, 410.2248
708.1592, 410.9247
708.6413, 412.4455
709.1234, 414.0718
709.6055, 415.4554
710.0876, 416.4144
710.5698, 416.2331
711.0519, 414.6559
711.5340, 413.4830
712.0161, 414.6129
712.4982, 416.5079
712.9803, 417.5674
713.4625, 416.9604
713.9446, 416.4113
714.4267, 416.4586
714.9088, 416.5858
715.3909, 416.2344
715.8730, 415.2249
716.3552, 414.2238
716.8373, 413.1729
717.3194, 412.3994
717.8015, 412.8036
718.2836, 414.1953
718.7657, 415.0261
719.2479, 414.6331
719.7300, 413.8193
720.2121, 413.6106
720.6942, 413.7032
721.1763, 413.4040
721.6584, 411.8918
722.1406, 410.4677
722.6227, 409.5618
723.1048, 409.1860
723.5869, 409.3925
724.0690, 410.7094
724.5511, 411.7036
725.0333, 411.7468
725.5154, 411.1196
725.9975, 411.6606
726.4796, 413.5176
726.9617, 414.8521
727.4438, 414.3578
727.9260, 412.7360
728.4081, 411.1031
728.8902, 409.5535
729.3723, 408.7661
729.8544, 409.8596
730.3365, 411.3461
730.8187, 412.1657
731.3008, 412.1882
731.7829, 412.0478
732.2650, 411.7306
732.7471, 411.3737
733.2292, 410.9067
733.7114, 410.1710
734.1935, 410.5758
734.6756, 412.5163
735.1577, 414.2278
735.6398, 413.8658
736.1219, 411.9315
736.6041, 410.1996
737.0862, 408.8264
737.5683, 407.8486
738.0504, 407.5625
738.5325, 407.5806
739.0146, 407.4322
739.4968, 406.8681
739.9789, 406.5558
740.4610, 407.1878
740.9431, 407.8677
741.4252, 407.7212
741.9073, 406.5811
742.3895, 404.9318
742.8716, 402.5372
743.3537, 400.0797
743.8358, 398.5620
744.3179, 397.9125
744.8000, 397.5124
745.2822, 397.3145
745.7643, 397.0707
746.2464, 396.3926
746.7285, 395.4912
747.2106, 394.7443
747.6927, 394.8830
748.1749, 394.4882
748.6570, 392.5321
749.1391, 389.7824
749.6212, 388.0305
750.1033, 388.7789
750.5854, 387.3908
751.0676, 381.8376
751.5497, 374.6351
752.0318, 372.9998
752.5139, 376.7422
752.9960, 379.5274
753.4781, 378.4728
753.9603, 375.6910
754.4424, 374.2548
754.9245, 373.6510
755.4066, 372.4262
755.8887, 368.7417
756.3708, 365.4077
756.8530, 363.7560
757.3351, 363.6508
757.8172, 364.0713
758.2993, 366.0414
758.7814, 366.7201
759.2635, 364.7741
759.7457, 360.8603
760.2278, 358.4364
760.7099, 357.5619
761.1920, 357.1602
761.6741, 357.0884
762.1563, 356.9078
762.6384, 355.7005
763.1205, 353.6183
763.6026, 351.4370
764.0847, 349.1158
764.5668, 347.2440
765.0490, 346.5663
765.5311, 347.0877
766.0132, 346.6613
766.4953, 344.5760
766.9774, 342.4185
767.4595, 340.8458
767.9417, 339.8317
768.4238, 339.1633
768.9059, 338.9035
769.3880, 338.2924
769.8701, 336.3046
770.3522, 333.7775
770.8344, 332.3754
771.3165, 332.1036
771.7986, 331.7278
772.2807, 330.0980
772.7628, 328.4287
773.2449, 327.7017
773.7271, 328.2635
774.2092, 328.0613
774.6913, 326.5775
775.1734, 324.9431
775.6555, 323.8784
776.1376, 323.4232
776.6198, 322.6515
777.1019, 321.5551
777.5840, 320.2682
778.0661, 318.4787
778.5482, 316.7277
779.0303, 316.2130
779.5125, 317.1187
779.9946, 317.8172
780.4767, 317.5157
780.9588, 316.5518
781.4409, 314.9713
781.9230, 312.2505
782.4052, 310.6885
782.8873, 310.8531
783.3694, 311.3739
783.8515, 311.1810
784.3336, 310.2696
784.8157, 309.5812
785.2979, 309.1972
785.7800, 308.6721
786.2621, 307.2296
786.7442, 305.4986
787.2263, 304.4682
787.7084, 304.3472
788.1906, 304.5340
788.6727, 305.2025
789.1548, 305.7537
789.6369, 305.5926
790.1190, 304.1864
790.6011, 303.5639
791.0833, 304.2109
791.5654, 304.8444
792.0475, 304.1260
792.5296, 302.1631
793.0117, 300.1998
793.4938, 298.2553
793.9760, 296.8586
794.4581, 296.9226
794.9402, 297.6595
795.4223, 297.9494
795.9044, 297.4675
796.3865, 297.0764
796.8687, 297.1532
797.3508, 297.4101
797.8329, 297.6282
798.3150, 297.9008
798.7971, 297.8347
799.2792, 297.2627
799.7614, 296.7403
800.2435, 297.0436
800.7256, 297.9471
801.2077, 298.2523
801.6898, 297.7742
802.1719, 297.1239
802.6541, 296.6752
803.1362, 296.4388
803.6183, 296.4512
804.1004, 296.8063
804.5825, 297.1398
805.0646, 297.6365
805.5468, 297.8771
806.0289, 297.4248
806.5110, 295.9815
806.9931, 295.1205
807.4752, 294.9415
807.9573, 295.1551
808.4395, 295.7393
808.9216, 296.4542
809.4037, 296.6774
809.8858, 296.3094
810.3679, 295.5500
810.8500, 293.8110
811.3322, 292.1911
811.8143, 291.7902
812.2964, 293.4037
812.7785, 294.6987
813.2606, 295.7673
813.7427, 296.2559
814.2249, 295.5439
814.7070, 293.5314
815.1891, 292.7747
815.6712, 293.5264
816.1533, 294.4274
816.6354, 293.9721
817.1176, 292.8526
817.5997, 292.0714
818.0818, 291.7651
818.5639, 291.8842
819.0460, 292.8863
819.5281, 293.9620
820.0103, 294.4729
820.4924, 294.2927
820.9745, 294.0064
821.4566, 293.6243
821.9387, 293.0999
822.4208, 292.4336
822.9030, 291.6003
823.3851, 290.2590
823.8672, 288.3664
824.3493, 287.0354
824.8314, 287.8810
825.3135, 289.3233
825.7957, 289.5277
826.2778, 288.0113
826.7599, 287.4349
827.2420, 290.0670
827.7241, 292.2534
828.2062, 291.8555
828.6884, 288.5658
829.1705, 286.7025
829.6526, 286.4673
830.1347, 286.5568
830.6168, 285.7848
831.0989, 284.6949
831.5811, 284.5703
832.0632, 285.4017
832.5453, 285.9857
833.0274, 285.0164
833.5095, 284.0418
833.9916, 284.3417
834.4738, 286.1932
834.9559, 286.7671
835.4380, 285.4505
835.9201, 284.0194
836.4022, 283.3868
836.8843, 283.4195
837.3665, 283.1791
837.8486, 282.6943
838.3307, 282.4770
838.8128, 283.2816
839.2949, 284.2272
839.7770, 284.2012
840.2592, 283.3636
840.7413, 283.0009
841.2234, 284.2773
841.7055, 285.2656
842.1876, 285.0142
842.6697, 283.8459
843.1519, 284.1520
843.6340, 286.2572
844.1161, 287.4771
844.5982, 285.8253
845.0803, 283.0754
845.5624, 283.1586
846.0446, 285.3306
846.5267, 286.9871
847.0088, 286.1153
847.4909, 285.1322
847.9730, 285.5384
848.4551, 286.8460
848.9373, 287.0881
849.4194, 285.3945
849.9015, 284.4787
850.3836, 285.1222
850.8657, 286.7838
851.3478, 288.3867
851.8300, 289.9075
852.3121, 291.2074
852.7942, 292.2783
853.2763, 293.0217
853.7584, 293.1678
854.2405, 292.9709
854.7227, 292.8769
855.2048, 292.8811
855.6869, 293.1870
856.1690, 294.0069
856.6511, 294.9780
857.1332, 295.5167
857.6154, 295.5910
858.0975, 295.8018
858.5796, 296.2439
859.0617, 296.8966
859.5438, 297.8001
860.0259, 298.8749
860.5081, 299.9873
860.9902, 301.1555
861.4723, 302.2198
861.9544, 302.7974
862.4365, 303.4329
862.9186, 304.7172
863.4008, 307.0861
863.8829, 308.7918
864.3650, 309.7342
864.8471, 310.1728
865.3292, 310.0015
865.8113, 309.5717
866.2935, 309.9779
866.7756, 311.3926
867.2577, 312.9116
867.7398, 313.9886
868.2219, 314.8959
868.7040, 315.9072
869.1862, 317.1588
869.6683, 317.9917
870.1504, 318.1997
870.6325, 318.3560
871.1146, 318.7489
871.5967, 319.3849
872.0789, 320.3318
872.5610, 321.5908
873.0431, 322.9834
873.5252, 324.6055
874.0073, 326.1430
874.4894, 327.2722
874.9716, 328.0192
875.4537, 328.6873
875.9358, 329.2216
876.4179, 329.8150
876.9000, 330.4359
877.3821, 331.1665
877.8643, 332.6241
878.3464, 334.8152
878.8285, 336.5479
879.3106, 337.0052
879.7927, 336.9420
880.2748, 337.5536
880.7570, 338.4429
881.2391, 338.6179
881.7212, 336.4523
882.2033, 334.9817
882.6854, 335.2671
883.1675, 336.6976
883.6497, 338.5256
884.1318, 340.9480
884.6139, 342.4930
885.0960, 342.7466
885.5781, 342.3565
886.0602, 342.1405
886.5424, 342.0050
887.0245, 341.5975
887.5066, 340.2727
887.9887, 340.0400
888.4708, 343.5975
888.9529, 347.6064
889.4351, 348.5180
889.9172, 344.7560
890.3993, 342.2965
890.8814, 341.4322
891.3635, 341.2230
891.8456, 340.7701
892.3278, 340.2467
892.8099, 340.1965
893.2920, 340.6758
893.7741, 341.2207
894.2562, 341.7114
894.7383, 342.0218
895.2205, 342.1167
895.7026, 342.0036
896.1847, 341.3484
896.6668, 339.8942
897.1489, 338.5066
897.6310, 337.5568
898.1132, 337.0460
898.5953, 337.4200
899.0774, 338.4660
899.5595, 338.7846
900.0416, 336.8882
900.5237, 334.6048
901.0059, 332.7000
901.4880, 331.3771
901.9701, 331.3819
902.4522, 334.1850
902.9343, 335.6006
903.4164, 334.3473
903.8986, 331.7169
904.3807, 330.6485
904.8628, 330.8662
905.3449, 330.4388
905.8270, 328.4393
906.3091, 326.4715
906.7913, 326.5479
907.2734, 327.2579
907.7555, 326.7363
908.2376, 322.8858
908.7197, 320.5832
909.2018, 320.6164
909.6840, 321.3471
910.1661, 321.1837
910.6482, 320.1982
911.1303, 319.3156
911.6124, 318.6129
912.0945, 317.8473
912.5767, 316.6685
913.0588, 315.4171
913.5409, 314.3874
914.0230, 313.6092
914.5051, 313.1421
914.9872, 313.7108
915.4694, 313.5591
915.9515, 311.3510
916.4336, 307.6227
916.9157, 307.0623
917.3978, 309.4932
917.8799, 311.1916
918.3621, 308.9846
918.8442, 305.8921
919.3263, 305.0068
919.8084, 305.7079
920.2905, 306.1411
920.7726, 305.8933
921.2548, 305.1489
921.7369, 303.5682
922.2190, 301.8192
922.7011, 301.3927
923.1832, 302.2184
923.6653, 302.6399
924.1475, 302.0656
924.6296, 301.7801
925.1117, 304.3970
925.5938, 307.5221
926.0759, 307.8551
926.5580, 303.0351
927.0402, 299.6382
927.5223, 298.9249
928.0044, 299.1171
928.4865, 298.9983
928.9686, 298.5750
929.4507, 298.0636
929.9329, 297.4653
930.4150, 297.2090
930.8971, 298.0088
931.3792, 299.0435
931.8613, 299.5346
932.3434, 299.4555
932.8256, 299.1382
933.3077, 298.0442
933.7898, 297.5637
934.2719, 298.4350
934.7540, 300.0677
935.2361, 300.0564
935.7183, 298.5451
936.2004, 297.7062
936.6825, 298.6074
937.1646, 300.0606
937.6467, 301.1386
938.1288, 301.9056
938.6110, 302.4423
939.0931, 302.7665
939.5752, 302.8037
940.0573, 302.2157
940.5394, 301.7958
941.0215, 302.6311
941.5037, 304.5802
941.9858, 306.2900
942.4679, 307.6679
942.9500, 308.5689
943.4321, 308.3786
943.9142, 307.9974
944.3964, 308.2863
944.8785, 309.3907
945.3606, 310.3072
945.8427, 310.6612
946.3248, 311.3247
946.8069, 312.7202
947.2891, 314.7084
947.7712, 316.6946
948.2533, 318.6772
948.7354, 320.6179
949.2175, 322.8257
949.6996, 324.6485
950.1818, 325.3109
950.6639, 325.3063
951.1460, 325.6843
951.6281, 326.5314
952.1102, 327.7730
952.5923, 329.3990
953.0745, 331.4304
953.5566, 334.4236
954.0387, 337.8912
954.5208, 339.7887
955.0029, 339.6130
955.4850, 339.4507
955.9672, 340.7011
956.4493, 342.5374
956.9314, 344.2769
957.4135, 345.8032
957.8956, 348.0783
958.3777, 351.5075
958.8599, 354.4829
959.3420, 355.6932
959.8241, 356.0168
960.3062, 357.9124
960.7883, 361.0098
961.2704, 363.7379
961.7526, 364.4718
962.2347, 365.6309
962.7168, 368.4341
963.1989, 372.3675
963.6810, 376.5615
964.1631, 381.1546
964.6453, 385.1029
965.1274, 388.0958
965.6095, 390.9333
966.0916, 394.6856
966.5737, 399.0008
967.0558, 403.3094
967.5380, 407.6363
968.0201, 411.3945
968.5022, 413.1598
968.9843, 415.4734
969.4664, 420.0729
969.9485, 426.8670
970.4307, 432.8789
970.9128, 438.0180
971.3949, 443.3465
971.8770, 449.8120
972.3591, 456.5060
972.8412, 462.2281
973.3234, 467.3051
973.8055, 472.7390
974.2876, 478.3828
974.7697, 485.0687
975.2518, 493.1835
975.7339, 502.1717
976.2161, 511.2743
976.6982, 520.5486
977.1803, 529.7225
977.6624, 538.5789
978.1445, 547.9177
978.6266, 558.8455
979.1088, 570.4276
979.5909, 581.6648
980.0730, 592.2074
980.5551, 603.7167
981.0372, 616.4745
981.5193, 629.9553
982.0015, 643.8535
982.4836, 658.4248
982.9657, 674.5775
983.4478, 692.2313
983.9299, 711.0085
984.4120, 730.9467
984.8942, 751.7120
985.3763, 772.6791
985.8584, 794.7286
986.3405, 819.4900
986.8226, 847.6081
987.3047, 875.9476
987.7869, 903.9186
988.2690, 933.0010
988.7511, 964.4777
989.2332, 998.1434
989.7153, 1033.495
990.1974, 1070.481
990.6796, 1109.033
991.1617, 1148.884
991.6438, 1190.714
992.1259, 1235.219
992.6080, 1281.566
993.0901, 1329.084
993.5723, 1377.790
994.0544, 1427.235
994.5365, 1477.760
995.0186, 1528.280
995.5007, 1577.986
995.9828, 1627.186
996.4650, 1677.551
996.9471, 1731.654
997.4292, 1782.720
997.9113, 1830.199
998.3934, 1874.830
998.8755, 1918.651
999.3577, 1961.365
999.8398, 1998.644
1000.322, 2030.704
1000.804, 2059.478
1001.286, 2085.102
1001.768, 2109.542
1002.250, 2132.345
1002.732, 2154.445
1003.215, 2181.658
1003.697, 2214.014
1004.179, 2250.718
1004.661, 2290.015
1005.143, 2336.626
1005.625, 2398.055
1006.107, 2473.748
1006.589, 2564.297
1007.072, 2670.972
1007.554, 2789.063
1008.036, 2922.641
1008.518, 3064.999
1009.000, 3215.708
1009.482, 3375.310
1009.964, 3531.336
1010.446, 3686.021
1010.928, 3821.052
1011.411, 3937.906
1011.893, 4019.678
1012.375, 4055.065
1012.857, 4042.097
1013.339, 3973.843
1013.821, 3838.719
1014.303, 3669.185
1014.785, 3462.592
1015.268, 3237.939
1015.750, 3015.151
1016.232, 2798.163
1016.714, 2599.625
1017.196, 2419.709
1017.678, 2261.641
1018.160, 2128.020
1018.642, 2016.828
1019.124, 1925.367
1019.607, 1852.886
1020.089, 1797.427
1020.571, 1759.366
1021.053, 1735.569
1021.535, 1725.578
1022.017, 1727.820
1022.499, 1739.771
1022.981, 1762.018
1023.464, 1795.901
1023.946, 1843.500
1024.428, 1901.285
1024.910, 1967.959
1025.392, 2045.945
1025.874, 2132.591
1026.356, 2230.894
1026.838, 2338.450
1027.320, 2455.109
1027.803, 2580.021
1028.285, 2713.469
1028.767, 2854.690
1029.249, 3002.502
1029.731, 3156.575
1030.213, 3317.816
1030.695, 3488.631
1031.177, 3659.812
1031.660, 3831.153
1032.142, 4000.355
1032.624, 4165.314
1033.106, 4323.776
1033.588, 4471.017
1034.070, 4613.595
1034.552, 4721.955
1035.034, 4790.301
1035.516, 4820.751
1035.999, 4813.582
1036.481, 4768.985
1036.963, 4684.190
1037.445, 4561.390
1037.927, 4411.256
1038.409, 4228.756
1038.891, 4032.458
1039.373, 3824.776
1039.855, 3612.810
1040.338, 3410.706
1040.820, 3214.861
1041.302, 3033.895
1041.784, 2865.977
1042.266, 2713.038
1042.748, 2574.420
1043.230, 2450.860
1043.712, 2343.627
1044.195, 2251.614
1044.677, 2172.637
1045.159, 2109.430
1045.641, 2054.619
1046.123, 2005.964
1046.605, 1963.972
1047.087, 1930.696
1047.569, 1905.616
1048.052, 1887.595
1048.534, 1876.603
1049.016, 1871.023
1049.498, 1871.219
1049.980, 1875.172
1050.462, 1880.539
1050.944, 1886.288
1051.426, 1896.631
1051.908, 1912.198
1052.391, 1929.807
1052.873, 1948.430
1053.355, 1967.516
1053.837, 1986.324
1054.319, 2004.873
1054.801, 2023.208
1055.283, 2044.344
1055.765, 2061.098
1056.247, 2072.403
1056.730, 2079.325
1057.212, 2083.255
1057.694, 2084.099
1058.176, 2081.860
1058.658, 2076.582
1059.140, 2065.186
1059.622, 2045.258
1060.104, 2018.943
1060.587, 1986.865
1061.069, 1949.422
1061.551, 1908.223
1062.033, 1863.285
1062.515, 1814.094
1062.997, 1760.189
1063.479, 1703.742
1063.961, 1646.224
1064.443, 1588.017
1064.926, 1529.159
1065.408, 1469.414
1065.890, 1411.951
1066.372, 1357.332
1066.854, 1304.016
1067.336, 1250.749
1067.818, 1197.844
1068.300, 1148.373
1068.782, 1102.014
1069.265, 1058.128
1069.747, 1017.545
1070.229, 978.4162
1070.711, 940.5831
1071.193, 904.4362
1071.675, 870.6740
1072.157, 839.5559
1072.639, 811.3479
1073.122, 786.4237
1073.604, 762.1331
1074.086, 735.6277
1074.568, 709.6529
1075.050, 686.8366
1075.532, 667.1017
1076.014, 648.3600
1076.496, 630.7039
1076.979, 613.5331
1077.461, 596.6286
1077.943, 580.7023
1078.425, 567.2845
1078.907, 555.4655
1079.389, 543.5091
1079.871, 530.9203
1080.353, 518.9836
1080.835, 507.8521
1081.318, 497.8415
1081.800, 489.6153
1082.282, 482.6437
1082.764, 474.9135
1083.246, 466.5348
1083.728, 458.5410
1084.210, 451.3893
1084.692, 444.5786
1085.174, 437.8330
1085.656, 431.3061
1086.139, 424.9505
1086.621, 418.7649
1087.103, 412.7456
1087.585, 406.8034
1088.067, 402.1104
1088.549, 400.4787
1089.031, 399.6917
1089.513, 397.2334
1089.996, 393.6573
1090.478, 390.4429
1090.960, 388.0068
1091.442, 385.5745
1091.924, 383.0394
1092.406, 380.5958
1092.888, 378.3226
1093.370, 376.3454
1093.853, 374.9772
1094.335, 374.2011
1094.817, 373.5634
1095.299, 372.9608
1095.781, 372.3616
1096.263, 371.6318
1096.745, 371.0034
1097.227, 371.1677
1097.709, 371.9613
1098.192, 372.3083
1098.674, 371.9247
1099.156, 371.5631
1099.638, 371.0801
1100.120, 371.4029
1100.602, 373.7502
1101.084, 377.8215
1101.566, 379.9082
1102.048, 379.9088
1102.531, 380.2246
1103.013, 381.8697
1103.495, 384.0822
1103.977, 386.3332
1104.459, 388.4797
1104.941, 390.2867
1105.423, 391.4026
1105.905, 393.1567
1106.388, 395.7032
1106.870, 398.4084
1107.352, 401.1008
1107.834, 403.5614
1108.316, 404.9857
1108.798, 405.9145
1109.280, 407.8413
1109.762, 412.8929
1110.245, 416.5707
1110.727, 417.8341
1111.209, 418.5335
1111.691, 420.8320
1112.173, 424.1983
1112.655, 426.5551
1113.137, 427.8853
1113.619, 428.8771
1114.101, 429.2697
1114.583, 430.1639
1115.066, 432.3108
1115.548, 435.0214
1116.030, 437.2057
1116.512, 438.8696
1116.994, 439.7731
1117.476, 439.8788
1117.958, 439.2667
1118.440, 437.0639
1118.923, 434.9619
1119.405, 434.5907
1119.887, 435.6162
1120.369, 435.8126
1120.851, 435.1440
1121.333, 433.9121
1121.815, 432.1403
1122.297, 430.0146
1122.780, 427.7922
1123.262, 425.2578
1123.744, 421.9866
1124.226, 417.6765
1124.708, 414.0851
1125.190, 411.4444
1125.672, 408.8719
1126.154, 405.9461
1126.636, 402.8565
1127.119, 400.2231
1127.601, 397.5997
1128.083, 394.0112
1128.565, 388.0479
1129.047, 383.7319
1129.529, 382.1730
1130.011, 380.8805
1130.493, 377.9888
1130.975, 374.0145
1131.458, 370.4103
1131.940, 367.2020
1132.422, 364.4857
1132.904, 362.7279
1133.386, 360.9171
1133.868, 358.7260
1134.350, 356.4049
1134.832, 354.1093
1135.315, 351.8871
1135.797, 350.1425
1136.279, 348.8351
1136.761, 347.3235
1137.243, 344.2524
1137.725, 341.9095
1138.207, 342.2785
1138.689, 343.7829
1139.172, 343.5185
1139.654, 341.4120
1140.136, 340.9232
1140.618, 342.4996
1141.100, 344.6324
1141.582, 346.9178
1142.064, 348.5927
1142.546, 348.4760
1143.028, 347.1308
1143.510, 347.4355
1143.993, 349.6629
1144.475, 351.5791
1144.957, 352.5912
1145.439, 353.5860
1145.921, 355.6831
1146.403, 358.1169
1146.885, 360.0204
1147.367, 361.2616
1147.850, 363.0162
1148.332, 365.4229
1148.814, 367.9160
1149.296, 370.3642
1149.778, 372.6919
1150.260, 374.6973
1150.742, 376.5804
1151.224, 378.4073
1151.707, 379.8217
1152.189, 383.3602
1152.671, 390.0388
1153.153, 396.4984
1153.635, 401.0609
1154.117, 404.5351
1154.599, 408.2522
1155.081, 412.2564
1155.563, 416.5590
1156.046, 421.5229
1156.528, 425.9727
1157.010, 429.4662
1157.492, 433.0407
1157.974, 437.5211
1158.456, 442.5859
1158.938, 447.1808
1159.420, 451.3571
1159.902, 455.1980
1160.385, 458.4718
1160.867, 461.8036
1161.349, 465.4579
1161.831, 469.0443
1162.313, 472.2086
1162.795, 474.9910
1163.277, 477.6845
1163.759, 480.3043
1164.242, 482.8793
1164.724, 485.6826
1165.206, 488.1178
1165.688, 490.1564
1166.170, 491.5466
1166.652, 491.8244
1167.134, 491.0717
1167.616, 489.9139
1168.099, 488.4262
1168.581, 487.1074
1169.063, 486.6996
1169.545, 486.0799
1170.027, 484.4075
1170.509, 482.3052
1170.991, 480.7296
1171.473, 479.6552
1171.955, 478.4179
1172.438, 476.9471
1172.920, 475.9285
1173.402, 476.4874
1173.884, 477.0721
1174.366, 476.6164
1174.848, 475.4171
1175.330, 474.0298
1175.812, 472.4283
1176.294, 471.3521
1176.777, 470.9305
1177.259, 470.8586
1177.741, 470.7215
1178.223, 470.9659
1178.705, 472.1653
1179.187, 474.0943
1179.669, 475.6365
1180.151, 476.7445
1180.634, 478.4815
1181.116, 481.1247
1181.598, 484.3339
1182.080, 487.8565
1182.562, 491.7331
1183.044, 496.2753
1183.526, 501.3803
1184.008, 505.8637
1184.490, 509.7369
1184.973, 513.0741
1185.455, 515.5759
1185.937, 518.4788
1186.419, 523.3014
1186.901, 529.0372
1187.383, 534.8002
1187.865, 540.5460
1188.347, 545.1669
1188.829, 548.4935
1189.312, 551.7780
1189.794, 555.5071
1190.276, 559.3779
1190.758, 563.1750
1191.240, 566.8275
1191.722, 570.3843
1192.204, 573.8996
1192.686, 576.6410
1193.169, 578.6548
1193.651, 579.5297
1194.133, 578.8537
1194.615, 577.3119
1195.097, 575.6014
1195.579, 573.5969
1196.061, 571.1062
1196.543, 568.0378
1197.026, 564.9630
1197.508, 562.0508
1197.990, 558.1751
1198.472, 552.7846
1198.954, 546.0617
1199.436, 537.6810
1199.918, 528.4200
1200.400, 519.5868
1200.882, 511.7108
1201.365, 503.2133
1201.847, 493.9179
1202.329, 484.9227
1202.811, 477.4930
1203.293, 470.3804
1203.775, 461.8878
1204.257, 452.6064
1204.739, 443.4666
1205.221, 434.3383
1205.704, 426.0305
1206.186, 418.6180
1206.668, 411.2481
1207.150, 403.2546
1207.632, 395.0132
1208.114, 386.8723
1208.596, 378.7386
1209.078, 370.4180
1209.561, 361.1324
1210.043, 353.6171
1210.525, 347.9746
1211.007, 343.5502
1211.489, 340.9212
1211.971, 338.2367
1212.453, 333.0605
1212.935, 326.2232
1213.417, 320.0576
1213.900, 314.7974
1214.382, 310.0683
1214.864, 305.9045
1215.346, 301.8939
1215.828, 297.4094
1216.310, 293.0677
1216.792, 289.7831
1217.274, 287.1260
1217.756, 283.8933
1218.239, 279.7776
1218.721, 275.9240
1219.203, 272.3465
1219.685, 269.3278
1220.167, 267.9903
1220.649, 266.5760
1221.131, 262.8512
1221.613, 257.6581
1222.096, 253.6744
1222.578, 251.2923
1223.060, 248.6575
1223.542, 245.5315
1224.024, 242.7656
1224.506, 241.2650
1224.988, 240.3208
1225.470, 239.5477
1225.953, 238.7621
1226.435, 237.4439
1226.917, 235.4439
1227.399, 234.0192
1227.881, 233.3838
1228.363, 232.3576
1228.845, 229.1854
1229.327, 225.8938
1229.809, 224.4159
1230.292, 224.1137
1230.774, 222.8320
1231.256, 220.4363
1231.738, 218.7153
1232.220, 217.9023
1232.702, 217.4181
1233.184, 217.3266
1233.666, 216.8760
1234.148, 215.3932
1234.631, 213.1587
1235.113, 210.5072
1235.595, 207.4372
1236.077, 206.0516
1236.559, 206.6830
1237.041, 207.4725
1237.523, 207.0950
1238.005, 206.4026
1238.488, 205.8721
1238.970, 205.4202
1239.452, 205.0706
1239.934, 204.7527
1240.416, 203.0708
1240.898, 199.8419
1241.380, 197.2162
1241.862, 197.3185
1242.344, 197.6257
1242.827, 196.7273
1243.309, 196.8244
1243.791, 196.5034
1244.273, 195.8803
1244.755, 195.7571
1245.237, 194.5944
1245.719, 193.7535
1246.201, 194.6008
1246.683, 195.1168
1247.166, 194.3784
1247.648, 194.6110
1248.130, 192.9028
1248.612, 193.2946
1249.094, 192.6286
1249.576, 190.7448
1250.058, 189.2804
1250.540, 189.6498
1251.023, 189.5895
1251.505, 188.3785
1251.987, 186.7044
1252.469, 185.3231
1252.951, 184.4084
1253.433, 184.5894
1253.915, 185.8686
1254.397, 186.9556
1254.880, 187.6501
1255.362, 187.7409
1255.844, 186.9790
1256.326, 186.0455
1256.808, 186.0410
1257.290, 186.4420
1257.772, 186.3044
1258.254, 185.5985
1258.736, 185.0802
1259.219, 185.0305
1259.701, 184.6489
1260.183, 183.6651
1260.665, 182.7626
1261.147, 183.3694
1261.629, 184.1171
1262.111, 182.8192
1262.593, 179.7513
1263.075, 178.2737
1263.558, 178.9487
1264.040, 179.3865
1264.522, 179.1635
1265.004, 178.7622
1265.486, 178.7326
1265.968, 178.6827
1266.450, 177.7714
1266.932, 176.5057
1267.415, 177.4199
1267.897, 180.9051
1268.379, 181.7100
1268.861, 178.8865
1269.343, 176.0733
1269.825, 176.6806
1270.307, 177.8206
1270.789, 177.2785
1271.271, 175.8842
1271.754, 175.3669
1272.236, 175.6800
1272.718, 175.9455
1273.200, 176.0630
1273.682, 176.2195
1274.164, 176.7874
1274.646, 177.0979
1275.128, 176.7800
1275.610, 176.1508
1276.093, 175.6818
1276.575, 175.3419
1277.057, 174.9270
1277.539, 174.4514
1278.021, 174.2638
1278.503, 174.8044
1278.985, 175.3028
1279.467, 175.6437
1279.950, 175.7808
1280.432, 175.5042
1280.914, 175.0441
1281.396, 174.8696
1281.878, 174.9994
1282.360, 175.3693
1282.842, 176.5220
1283.324, 176.7073
1283.807, 175.4554
1284.289, 174.1253
1284.771, 174.6433
1285.253, 175.5791
1285.735, 174.5949
1286.217, 172.2770
1286.699, 171.2578
1287.181, 172.0839
1287.663, 172.6808
1288.146, 172.8546
1288.628, 172.9922
1289.110, 173.5728
1289.592, 174.1098
1290.074, 174.1885
1290.556, 173.8978
1291.038, 173.3478
1291.520, 172.4641
1292.002, 172.8460
1292.485, 174.5006
1292.967, 175.3790
1293.449, 173.1375
1293.931, 170.9172
1294.413, 170.4966
1294.895, 170.8700
1295.377, 171.1843
1295.859, 171.4216
1296.342, 171.4149
1296.824, 171.1946
1297.306, 170.9316
1297.788, 170.9570
1298.270, 170.5146
1298.752, 169.2248
1299.234, 167.9408
1299.716, 167.2869
1300.198, 167.2478
1300.681, 168.3679
1301.163, 170.0475
1301.645, 170.6828
1302.127, 169.7674
##END=



