##NAMES=Romerite
##RRUFFID=R060820
##IDEAL CHEMISTRY=Fe^2+^Fe^3+^_2_(S^6+^O_4_)_4_&#183;14H_2_O
##LOCALITY=Alcaparrosa mine, Tierra Amarilla, Chile
##OWNER=RRUFF
##SOURCE=Bob Jenkins
##DESCRIPTION=Reddish-brown isolated grains associated with copiapite, R060821
##STATUS=The identification of this mineral has been confirmed by single-crystal X-ray diffraction.
##URL=rruff.info/R060820
123.938, 1191.888
124.420, 1319.275
124.902, 1464.277
125.385, 1623.990
125.867, 1789.094
126.349, 1961.593
126.831, 2132.818
127.313, 2296.536
127.795, 2451.834
128.277, 2600.934
128.760, 2748.687
129.242, 2894.489
129.724, 3028.483
130.206, 3157.125
130.688, 3264.201
131.170, 3339.183
131.652, 3380.425
132.134, 3392.727
132.616, 3377.229
133.098, 3331.108
133.581, 3272.155
134.063, 3191.883
134.545, 3106.941
135.027, 3024.352
135.509, 2945.827
135.991, 2876.444
136.473, 2823.597
136.956, 2788.867
137.438, 2767.579
137.920, 2756.389
138.402, 2757.699
138.884, 2773.879
139.366, 2805.756
139.848, 2852.821
140.330, 2914.477
140.812, 2989.847
141.294, 3083.531
141.777, 3199.973
142.259, 3328.334
142.741, 3458.911
143.223, 3587.199
143.705, 3717.458
144.187, 3862.698
144.669, 4037.312
145.151, 4205.868
145.634, 4364.482
146.116, 4515.280
146.598, 4665.264
147.080, 4817.574
147.562, 4964.023
148.044, 5077.340
148.526, 5129.750
149.008, 5177.974
149.490, 5227.572
149.973, 5276.055
150.455, 5324.571
150.937, 5374.663
151.419, 5418.639
151.901, 5421.661
152.383, 5353.772
152.865, 5276.690
153.347, 5198.035
153.829, 5115.087
154.312, 5023.173
154.794, 4918.770
155.276, 4802.805
155.758, 4677.733
156.240, 4535.771
156.722, 4394.383
157.204, 4241.964
157.686, 4092.641
158.169, 3971.322
158.651, 3893.724
159.133, 3854.443
159.615, 3820.097
160.097, 3783.521
160.579, 3757.695
161.061, 3745.010
161.543, 3745.867
162.025, 3761.008
162.508, 3791.120
162.990, 3836.030
163.472, 3892.881
163.954, 3963.860
164.436, 4041.392
164.918, 4123.330
165.400, 4209.441
165.883, 4303.063
166.365, 4408.029
166.847, 4520.139
167.329, 4617.398
167.811, 4692.972
168.293, 4762.741
168.775, 4831.111
169.257, 4898.666
169.739, 4968.430
170.221, 5045.701
170.704, 5124.689
171.186, 5181.930
171.668, 5213.144
172.150, 5229.551
172.632, 5234.857
173.114, 5229.613
173.596, 5215.689
174.078, 5194.231
174.561, 5163.939
175.043, 5123.970
175.525, 5071.048
176.007, 5012.662
176.489, 4951.912
176.971, 4888.785
177.453, 4824.094
177.935, 4757.637
178.417, 4689.595
178.900, 4620.855
179.382, 4548.293
179.864, 4477.441
180.346, 4410.757
180.828, 4348.273
181.310, 4290.482
181.792, 4237.163
182.274, 4189.363
182.757, 4147.447
183.239, 4114.079
183.721, 4083.242
184.203, 4050.637
184.685, 4016.707
185.167, 3984.364
185.649, 3952.605
186.131, 3925.553
186.613, 3910.489
187.096, 3913.880
187.578, 3919.786
188.060, 3918.287
188.542, 3909.679
189.024, 3895.551
189.506, 3870.442
189.988, 3844.315
190.470, 3835.533
190.952, 3853.698
191.435, 3873.181
191.917, 3870.883
192.399, 3849.949
192.881, 3837.849
193.363, 3846.245
193.845, 3871.003
194.327, 3904.375
194.809, 3952.659
195.292, 3994.538
195.774, 4005.876
196.256, 3991.482
196.738, 3991.763
197.220, 4028.490
197.702, 4082.577
198.184, 4126.068
198.666, 4159.027
199.148, 4180.361
199.631, 4181.706
200.113, 4166.750
200.595, 4161.326
201.077, 4179.691
201.559, 4205.999
202.041, 4216.570
202.523, 4207.611
203.005, 4200.813
203.488, 4211.832
203.970, 4237.894
204.452, 4264.665
204.934, 4289.999
205.416, 4312.093
205.898, 4326.072
206.380, 4330.221
206.862, 4342.210
207.344, 4370.192
207.827, 4414.092
208.309, 4474.349
208.791, 4553.257
209.273, 4647.004
209.755, 4748.652
210.237, 4857.354
210.719, 4976.551
211.201, 5107.386
211.684, 5249.375
212.166, 5406.733
212.648, 5586.412
213.130, 5770.984
213.612, 5948.444
214.094, 6118.307
214.576, 6276.233
215.058, 6408.919
215.540, 6528.141
216.023, 6561.000
216.505, 6632.865
216.987, 6695.261
217.469, 6748.708
217.951, 6766.350
218.433, 6830.213
218.915, 6875.554
219.397, 6920.134
219.880, 6990.503
220.362, 7013.361
220.844, 7083.321
221.326, 7134.475
221.808, 7194.236
222.290, 7235.359
222.772, 7281.748
223.254, 7321.015
223.736, 7384.407
224.219, 7473.981
224.701, 7574.420
225.183, 7683.168
225.665, 7794.885
226.147, 7891.536
226.629, 7958.654
227.111, 8014.465
227.593, 8081.946
228.076, 8162.705
228.558, 8241.521
229.040, 8312.585
229.522, 8373.017
230.004, 8417.039
230.486, 8443.502
230.968, 8453.292
231.450, 8445.193
231.932, 8419.372
232.415, 8383.312
232.897, 8343.089
233.379, 8292.910
233.861, 8223.581
234.343, 8130.207
234.825, 8023.271
235.307, 7904.762
235.789, 7776.922
236.271, 7652.254
236.754, 7536.927
237.236, 7429.427
237.718, 7324.993
238.200, 7219.797
238.682, 7124.415
239.164, 7047.735
239.646, 6985.909
240.128, 6924.254
240.611, 6853.732
241.093, 6787.719
241.575, 6751.371
242.057, 6747.441
242.539, 6754.019
243.021, 6768.989
243.503, 6788.425
243.985, 6802.264
244.467, 6805.444
244.950, 6810.630
245.432, 6838.247
245.914, 6888.928
246.396, 6946.813
246.878, 7008.469
247.360, 7076.074
247.842, 7156.284
248.324, 7250.717
248.807, 7346.230
249.289, 7427.204
249.771, 7492.564
250.253, 7554.895
250.735, 7613.632
251.217, 7670.751
251.699, 7726.989
252.181, 7772.333
252.663, 7812.085
253.146, 7846.212
253.628, 7874.713
254.110, 7897.587
254.592, 7914.835
255.074, 7926.459
255.556, 7932.455
256.038, 7932.824
256.520, 7927.567
257.003, 7916.683
257.485, 7900.174
257.967, 7878.034
258.449, 7850.270
258.931, 7816.882
259.413, 7777.869
259.895, 7733.226
260.377, 7682.955
260.859, 7624.691
261.342, 7565.255
261.824, 7508.413
262.306, 7460.651
262.788, 7407.283
263.270, 7339.618
263.752, 7267.316
264.234, 7200.307
264.716, 7142.447
265.198, 7096.131
265.681, 7067.231
266.163, 7070.658
266.645, 7070.638
267.127, 7067.511
267.609, 7060.957
268.091, 7047.662
268.573, 7028.307
269.056, 7010.507
269.538, 7005.236
270.020, 7018.074
270.502, 7027.504
270.984, 7033.365
271.466, 7036.805
271.948, 7041.125
272.430, 7044.537
272.912, 7040.131
273.395, 7019.785
273.877, 6981.447
274.359, 6951.062
274.841, 6943.365
275.323, 6929.042
275.805, 6898.258
276.287, 6854.081
276.769, 6803.559
277.251, 6751.029
277.734, 6696.392
278.216, 6639.905
278.698, 6587.813
279.180, 6523.847
279.662, 6442.739
280.144, 6349.738
280.626, 6250.946
281.108, 6148.976
281.591, 6042.743
282.073, 5928.170
282.555, 5803.321
283.037, 5677.125
283.519, 5547.234
284.001, 5419.303
284.483, 5299.625
284.965, 5189.300
285.447, 5080.443
285.930, 4961.597
286.412, 4832.090
286.894, 4706.221
287.376, 4578.452
287.858, 4463.063
288.340, 4374.281
288.822, 4309.538
289.304, 4244.807
289.786, 4160.818
290.269, 4061.751
290.751, 3967.840
291.233, 3877.437
291.715, 3798.361
292.197, 3738.113
292.679, 3692.281
293.161, 3651.580
293.643, 3619.362
294.125, 3587.391
294.608, 3540.185
295.090, 3475.952
295.572, 3409.996
296.054, 3348.598
296.536, 3292.839
297.018, 3244.641
297.500, 3209.356
297.983, 3175.659
298.465, 3132.512
298.947, 3082.233
299.429, 3038.563
299.911, 3009.797
300.393, 2988.526
300.875, 2958.887
301.357, 2918.686
301.839, 2877.685
302.322, 2840.151
302.804, 2803.978
303.286, 2766.091
303.768, 2725.651
304.250, 2682.051
304.732, 2631.885
305.214, 2570.493
305.696, 2523.964
306.178, 2510.383
306.661, 2501.450
307.143, 2469.973
307.625, 2415.734
308.107, 2361.190
308.589, 2326.027
309.071, 2311.546
309.553, 2291.181
310.035, 2260.004
310.517, 2229.313
311.000, 2204.847
311.482, 2184.220
311.964, 2161.882
312.446, 2134.764
312.928, 2103.689
313.410, 2071.814
313.892, 2034.148
314.374, 2002.046
314.857, 1976.227
315.339, 1956.481
315.821, 1943.703
316.303, 1937.855
316.785, 1935.946
317.267, 1935.117
317.749, 1940.490
318.231, 1932.763
318.714, 1899.176
319.196, 1863.372
319.678, 1837.510
320.160, 1821.875
320.642, 1810.051
321.124, 1795.587
321.606, 1778.923
322.088, 1769.654
322.570, 1774.518
323.052, 1778.079
323.535, 1771.009
324.017, 1758.831
324.499, 1751.449
324.981, 1754.510
325.463, 1763.738
325.945, 1772.575
326.427, 1781.922
326.909, 1786.609
327.392, 1780.809
327.874, 1770.962
328.356, 1764.078
328.838, 1762.132
329.320, 1759.316
329.802, 1748.694
330.284, 1732.348
330.766, 1721.365
331.249, 1719.405
331.731, 1722.152
332.213, 1724.535
332.695, 1726.518
333.177, 1730.834
333.659, 1743.602
334.141, 1756.704
334.623, 1758.128
335.105, 1746.670
335.588, 1732.965
336.070, 1724.265
336.552, 1721.022
337.034, 1722.136
337.516, 1733.674
337.998, 1743.451
338.480, 1742.762
338.962, 1735.499
339.444, 1731.657
339.927, 1736.429
340.409, 1746.747
340.891, 1754.080
341.373, 1753.285
341.855, 1756.048
342.337, 1764.319
342.819, 1775.422
343.302, 1787.641
343.784, 1800.225
344.266, 1812.551
344.748, 1823.799
345.230, 1833.997
345.712, 1842.992
346.194, 1852.057
346.676, 1858.850
347.158, 1857.459
347.641, 1852.822
348.123, 1856.729
348.605, 1878.931
349.087, 1914.158
349.569, 1939.154
350.051, 1949.473
350.533, 1957.307
351.015, 1963.434
351.497, 1970.369
351.980, 1980.865
352.462, 1995.820
352.944, 2013.558
353.426, 2034.325
353.908, 2058.220
354.390, 2076.091
354.872, 2084.911
355.354, 2087.971
355.836, 2084.309
356.319, 2075.342
356.801, 2076.215
357.283, 2105.429
357.765, 2145.649
358.247, 2163.349
358.729, 2154.025
359.211, 2142.175
359.693, 2145.201
360.176, 2160.282
360.658, 2172.088
361.140, 2177.272
361.622, 2181.987
362.104, 2187.462
362.586, 2194.958
363.068, 2209.257
363.550, 2233.528
364.033, 2261.171
364.515, 2278.458
364.997, 2274.714
365.479, 2280.969
365.961, 2307.753
366.443, 2339.077
366.925, 2362.737
367.407, 2376.874
367.889, 2385.754
368.371, 2392.583
368.854, 2396.966
369.336, 2405.686
369.818, 2424.078
370.300, 2441.272
370.782, 2458.502
371.264, 2471.751
371.746, 2472.571
372.228, 2455.685
372.711, 2432.303
373.193, 2428.697
373.675, 2453.162
374.157, 2472.729
374.639, 2478.120
375.121, 2478.648
375.603, 2479.336
376.085, 2480.881
376.568, 2482.219
377.050, 2482.008
377.532, 2480.779
378.014, 2481.521
378.496, 2486.020
378.978, 2488.823
379.460, 2481.424
379.942, 2469.400
380.424, 2465.540
380.907, 2481.162
381.389, 2498.279
381.871, 2498.302
382.353, 2484.907
382.835, 2476.483
383.317, 2481.567
383.799, 2494.515
384.281, 2502.735
384.763, 2501.638
385.246, 2508.338
385.728, 2532.602
386.210, 2562.135
386.692, 2585.335
387.174, 2600.445
387.656, 2610.365
388.138, 2616.003
388.620, 2616.304
389.103, 2632.547
389.585, 2679.603
390.067, 2725.100
390.549, 2762.600
391.031, 2792.101
391.513, 2811.437
391.995, 2819.309
392.477, 2825.179
392.960, 2850.490
393.442, 2904.918
393.924, 2950.676
394.406, 2975.510
394.888, 2996.322
395.370, 3024.982
395.852, 3060.429
396.334, 3090.452
396.816, 3103.554
397.298, 3104.055
397.781, 3106.359
398.263, 3110.371
398.745, 3116.979
399.227, 3132.391
399.709, 3149.396
400.191, 3153.676
400.673, 3133.831
401.155, 3116.062
401.638, 3126.293
402.120, 3153.625
402.602, 3164.416
403.084, 3146.811
403.566, 3116.202
404.048, 3094.016
404.530, 3084.467
405.012, 3065.928
405.495, 2985.125
405.977, 2937.205
406.459, 2921.099
406.941, 2910.296
407.423, 2916.190
407.905, 2918.032
408.387, 2916.038
408.869, 2898.722
409.351, 2901.192
409.834, 2895.732
410.316, 2889.947
410.798, 2895.201
411.280, 2887.473
411.762, 2886.349
412.244, 2900.091
412.726, 2914.919
413.208, 2930.843
413.690, 2944.136
414.173, 2948.551
414.655, 2959.006
415.137, 2981.752
415.619, 3015.332
416.101, 3057.214
416.583, 3109.770
417.065, 3166.378
417.547, 3221.478
418.030, 3274.539
418.512, 3319.370
418.994, 3350.226
419.476, 3375.899
419.958, 3411.599
420.440, 3458.666
420.922, 3504.487
421.404, 3547.924
421.887, 3587.630
422.369, 3620.162
422.851, 3646.502
423.333, 3674.476
423.815, 3710.989
424.297, 3754.636
424.779, 3790.044
425.261, 3813.763
425.743, 3833.826
426.225, 3855.110
426.708, 3871.412
427.190, 3875.205
427.672, 3864.703
428.154, 3845.197
428.636, 3821.377
429.118, 3792.181
429.600, 3767.817
430.082, 3757.693
430.565, 3741.264
431.047, 3701.612
431.529, 3649.853
432.011, 3609.938
432.493, 3595.805
432.975, 3591.988
433.457, 3573.636
433.939, 3541.784
434.422, 3526.281
434.904, 3543.261
435.386, 3573.592
435.868, 3588.006
436.350, 3584.634
436.832, 3585.740
437.314, 3595.317
437.796, 3612.913
438.278, 3638.491
438.761, 3671.771
439.243, 3712.675
439.725, 3761.720
440.207, 3817.515
440.689, 3873.480
441.171, 3928.677
441.653, 3984.838
442.135, 4034.585
442.617, 4089.597
443.100, 4164.239
443.582, 4259.542
444.064, 4361.459
444.546, 4456.763
445.028, 4545.424
445.510, 4626.217
445.992, 4697.114
446.474, 4763.118
446.957, 4819.233
447.439, 4874.168
447.921, 4943.750
448.403, 5038.953
448.885, 5135.267
449.367, 5206.296
449.849, 5256.212
450.331, 5304.670
450.814, 5356.594
451.296, 5408.949
451.778, 5456.491
452.260, 5499.096
452.742, 5547.460
453.224, 5599.792
453.706, 5660.822
454.188, 5736.258
454.670, 5822.967
455.152, 5914.783
455.635, 6009.389
456.117, 6101.959
456.599, 6179.884
457.081, 6227.170
457.563, 6288.361
458.045, 6376.456
458.527, 6466.507
459.009, 6548.613
459.492, 6619.544
459.974, 6676.477
460.456, 6718.187
460.938, 6744.309
461.420, 6751.420
461.902, 6734.848
462.384, 6716.292
462.866, 6702.384
463.349, 6691.871
463.831, 6686.073
464.313, 6687.414
464.795, 6679.115
465.277, 6643.061
465.759, 6596.000
466.241, 6563.484
466.723, 6548.447
467.205, 6541.852
467.688, 6536.642
468.170, 6533.671
468.652, 6541.727
469.134, 6576.993
469.616, 6601.809
470.098, 6595.739
470.580, 6582.096
471.062, 6593.383
471.544, 6633.658
472.027, 6671.775
472.509, 6673.166
472.991, 6636.856
473.473, 6584.730
473.955, 6507.833
474.437, 6427.414
474.919, 6346.261
475.401, 6269.453
475.884, 6205.982
476.366, 6161.320
476.848, 6120.586
477.330, 6067.340
477.812, 6006.072
478.294, 5954.373
478.776, 5915.424
479.258, 5888.236
479.741, 5875.772
480.223, 5878.314
480.705, 5871.083
481.187, 5842.568
481.669, 5815.841
482.151, 5810.124
482.633, 5811.899
483.115, 5795.368
483.597, 5750.950
484.079, 5691.943
484.562, 5638.981
485.044, 5595.279
485.526, 5546.018
486.008, 5495.225
486.490, 5433.881
486.972, 5351.892
487.454, 5257.470
487.936, 5166.614
488.419, 5087.540
488.901, 5012.917
489.383, 4936.208
489.865, 4857.020
490.347, 4763.957
490.829, 4648.546
491.311, 4528.287
491.793, 4424.500
492.276, 4335.979
492.758, 4241.505
493.240, 4134.805
493.722, 4024.935
494.204, 3915.494
494.686, 3808.150
495.168, 3702.965
495.650, 3599.552
496.132, 3503.588
496.615, 3426.839
497.097, 3381.959
497.579, 3326.302
498.061, 3249.835
498.543, 3172.700
499.025, 3106.233
499.507, 3046.403
499.989, 2980.618
500.471, 2897.390
500.954, 2814.826
501.436, 2768.120
501.918, 2757.495
502.400, 2737.806
502.882, 2694.556
503.364, 2641.905
503.846, 2593.447
504.328, 2548.797
504.811, 2511.552
505.293, 2489.206
505.775, 2468.557
506.257, 2440.457
506.739, 2406.185
507.221, 2369.260
507.703, 2330.930
508.185, 2293.506
508.668, 2261.340
509.150, 2235.310
509.632, 2212.825
510.114, 2198.594
510.596, 2183.132
511.078, 2161.086
511.560, 2134.541
512.042, 2108.293
512.524, 2083.763
513.006, 2062.608
513.489, 2048.540
513.971, 2041.309
514.453, 2032.868
514.935, 2021.619
515.417, 2007.988
515.899, 1989.998
516.381, 1968.097
516.864, 1952.049
517.346, 1948.630
517.828, 1946.043
518.310, 1934.937
518.792, 1919.525
519.274, 1910.615
519.756, 1912.454
520.238, 1916.405
520.720, 1907.793
521.203, 1881.924
521.685, 1860.989
522.167, 1845.359
522.649, 1834.739
523.131, 1832.902
523.613, 1835.232
524.095, 1833.038
524.577, 1821.394
525.059, 1810.103
525.542, 1814.090
526.024, 1829.189
526.506, 1833.061
526.988, 1819.141
527.470, 1801.733
527.952, 1793.823
528.434, 1795.344
528.916, 1795.171
529.398, 1793.236
529.881, 1789.760
530.363, 1785.423
530.845, 1779.378
531.327, 1768.363
531.809, 1752.454
532.291, 1738.618
532.773, 1736.636
533.255, 1746.858
533.737, 1749.219
534.220, 1735.854
534.702, 1727.320
535.184, 1737.534
535.666, 1753.586
536.148, 1757.719
536.630, 1744.136
537.112, 1734.176
537.594, 1746.733
538.077, 1771.369
538.559, 1788.980
539.041, 1797.314
539.523, 1802.024
540.005, 1806.771
540.487, 1811.118
540.969, 1812.824
541.451, 1805.744
541.933, 1804.317
542.416, 1815.901
542.898, 1828.952
543.380, 1833.554
543.862, 1829.909
544.344, 1824.780
544.826, 1823.019
545.308, 1823.595
545.791, 1824.353
546.273, 1826.045
546.755, 1822.659
547.237, 1803.835
547.719, 1787.347
548.201, 1799.122
548.683, 1839.847
549.165, 1868.892
549.647, 1867.787
550.130, 1857.152
550.612, 1850.317
551.094, 1848.172
551.576, 1850.404
552.058, 1856.938
552.540, 1867.054
553.022, 1880.320
553.504, 1899.117
553.987, 1913.544
554.469, 1916.855
554.951, 1922.504
555.433, 1940.035
555.915, 1962.391
556.397, 1975.901
556.879, 1974.021
557.361, 1968.322
557.843, 1970.783
558.326, 1979.094
558.808, 1984.991
559.290, 1986.835
559.772, 1987.319
560.254, 1986.886
560.736, 1986.314
561.218, 1996.233
561.700, 2028.142
562.182, 2054.253
562.665, 2068.297
563.147, 2074.303
563.629, 2073.932
564.111, 2069.039
564.593, 2064.737
565.075, 2065.571
565.557, 2070.478
566.039, 2075.198
566.521, 2079.679
567.004, 2083.991
567.486, 2086.975
567.968, 2090.828
568.450, 2099.483
568.932, 2113.478
569.414, 2123.592
569.896, 2119.574
570.378, 2117.037
570.860, 2131.417
571.343, 2158.346
571.825, 2183.665
572.307, 2201.142
572.789, 2215.785
573.271, 2237.753
573.753, 2272.403
574.235, 2294.371
574.718, 2295.398
575.200, 2292.670
575.682, 2290.738
576.164, 2290.289
576.646, 2291.729
577.128, 2294.672
577.610, 2301.356
578.092, 2318.105
578.574, 2339.099
579.057, 2349.053
579.539, 2345.883
580.021, 2342.118
580.503, 2346.198
580.985, 2357.807
581.467, 2375.257
581.949, 2411.604
582.431, 2436.290
582.914, 2441.247
583.396, 2438.987
583.878, 2433.047
584.360, 2427.793
584.842, 2433.806
585.324, 2462.297
585.806, 2500.163
586.288, 2521.802
586.770, 2527.624
587.253, 2533.214
587.735, 2541.004
588.217, 2553.732
588.699, 2576.373
589.181, 2609.697
589.663, 2638.436
590.145, 2657.185
590.627, 2677.227
591.109, 2708.029
591.592, 2740.765
592.074, 2760.063
592.556, 2763.896
593.038, 2768.595
593.520, 2792.198
594.002, 2832.655
594.484, 2873.479
594.966, 2914.859
595.448, 2954.970
595.931, 2988.518
596.413, 3023.388
596.895, 3071.954
597.377, 3136.714
597.859, 3197.585
598.341, 3243.815
598.823, 3287.737
599.305, 3339.872
599.788, 3398.182
600.270, 3455.715
600.752, 3509.634
601.234, 3561.153
601.716, 3612.075
602.198, 3662.079
602.680, 3713.567
603.162, 3769.741
603.644, 3823.301
604.127, 3873.572
604.609, 3918.575
605.091, 3956.099
605.573, 3986.810
606.055, 4006.773
606.537, 4008.386
607.019, 4000.813
607.502, 3998.284
607.984, 4000.655
608.466, 3997.294
608.948, 3981.341
609.430, 3955.591
609.912, 3929.234
610.394, 3910.696
610.876, 3872.248
611.358, 3789.101
611.841, 3707.693
612.323, 3657.543
612.805, 3625.792
613.287, 3579.330
613.769, 3501.354
614.251, 3417.484
614.733, 3348.746
615.215, 3291.304
615.697, 3238.558
616.180, 3189.062
616.662, 3132.040
617.144, 3056.646
617.626, 2967.292
618.108, 2890.357
618.590, 2830.513
619.072, 2776.462
619.554, 2733.693
620.036, 2690.713
620.519, 2639.969
621.001, 2581.957
621.483, 2520.083
621.965, 2450.964
622.447, 2385.563
622.929, 2340.248
623.411, 2310.355
623.893, 2278.197
624.375, 2239.455
624.858, 2199.717
625.340, 2164.189
625.822, 2132.605
626.304, 2103.436
626.786, 2084.815
627.268, 2057.977
627.750, 2010.467
628.232, 1961.284
628.715, 1925.860
629.197, 1905.016
629.679, 1892.056
630.161, 1884.669
630.643, 1880.986
631.125, 1882.196
631.607, 1886.222
632.089, 1877.336
632.571, 1849.352
633.054, 1816.581
633.536, 1793.471
634.018, 1780.271
634.500, 1771.311
634.982, 1766.650
635.464, 1765.924
635.946, 1768.595
636.429, 1775.483
636.911, 1790.498
637.393, 1811.971
637.875, 1829.743
638.357, 1836.449
638.839, 1835.502
639.321, 1827.914
639.803, 1815.588
640.285, 1817.759
640.768, 1842.336
641.250, 1875.014
641.732, 1899.569
642.214, 1915.561
642.696, 1930.030
643.178, 1936.769
643.660, 1949.834
644.142, 1978.898
644.625, 2011.617
645.107, 2035.372
645.589, 2048.903
646.071, 2059.836
646.553, 2071.423
647.035, 2084.962
647.517, 2102.482
647.999, 2123.973
648.481, 2150.780
648.964, 2184.740
649.446, 2217.532
649.928, 2237.547
650.410, 2242.907
650.892, 2259.741
651.374, 2301.372
651.856, 2337.630
652.338, 2357.628
652.820, 2372.244
653.303, 2393.914
653.785, 2422.940
654.267, 2448.006
654.749, 2457.773
655.231, 2461.699
655.713, 2474.676
656.195, 2495.151
656.677, 2514.171
657.159, 2528.756
657.642, 2543.115
658.124, 2562.920
658.606, 2588.745
659.088, 2607.241
659.570, 2612.123
660.052, 2617.399
660.534, 2625.101
661.016, 2634.225
661.498, 2650.606
661.981, 2670.529
662.463, 2671.978
662.945, 2625.492
663.427, 2568.456
663.909, 2551.317
664.391, 2562.106
664.873, 2559.511
665.356, 2532.094
665.838, 2500.772
666.320, 2488.631
666.802, 2494.115
667.284, 2481.926
667.766, 2443.334
668.248, 2401.244
668.730, 2352.573
669.212, 2307.253
669.695, 2277.010
670.177, 2258.780
670.659, 2234.769
671.141, 2192.584
671.623, 2147.178
672.105, 2109.184
672.587, 2077.358
673.069, 2050.073
673.552, 2026.669
674.034, 2004.127
674.516, 1980.953
674.998, 1955.783
675.480, 1920.446
675.962, 1870.515
676.444, 1821.757
676.926, 1770.805
677.408, 1728.368
677.891, 1707.808
678.373, 1702.730
678.855, 1688.656
679.337, 1649.277
679.819, 1614.552
680.301, 1608.821
680.783, 1611.704
681.265, 1595.136
681.747, 1558.338
682.230, 1519.285
682.712, 1489.278
683.194, 1467.770
683.676, 1457.100
684.158, 1459.585
684.640, 1449.795
685.122, 1418.476
685.604, 1385.374
686.086, 1361.866
686.569, 1348.089
687.051, 1344.206
687.533, 1359.830
688.015, 1368.397
688.497, 1361.616
688.979, 1347.346
689.461, 1327.153
689.943, 1305.247
690.425, 1291.110
690.908, 1289.885
691.390, 1291.965
691.872, 1281.719
692.354, 1262.110
692.836, 1252.040
693.318, 1254.163
693.800, 1257.826
694.282, 1258.840
694.765, 1255.364
695.247, 1241.846
695.729, 1208.025
696.211, 1187.862
696.693, 1188.429
697.175, 1194.865
697.657, 1206.906
698.139, 1217.972
698.622, 1218.498
699.104, 1205.723
699.586, 1188.913
700.068, 1171.807
700.550, 1156.874
701.032, 1149.898
701.514, 1149.668
701.996, 1148.229
702.479, 1142.275
702.961, 1135.266
703.443, 1132.104
703.925, 1133.019
704.407, 1134.965
704.889, 1139.344
705.371, 1142.480
705.853, 1143.812
706.335, 1143.134
706.818, 1139.512
707.300, 1133.106
707.782, 1126.944
708.264, 1123.143
708.746, 1118.771
709.228, 1111.564
709.710, 1102.513
710.192, 1091.614
710.674, 1079.840
711.157, 1072.467
711.639, 1075.229
712.121, 1084.314
712.603, 1085.725
713.085, 1078.163
713.567, 1075.930
714.049, 1084.416
714.531, 1094.002
715.013, 1096.617
715.496, 1092.963
715.978, 1088.939
716.460, 1082.613
716.942, 1078.547
717.424, 1078.610
717.906, 1080.205
718.388, 1082.017
718.870, 1083.622
719.352, 1085.497
719.835, 1088.794
720.317, 1088.040
720.799, 1071.818
721.281, 1047.771
721.763, 1037.196
722.245, 1041.614
722.727, 1048.456
723.209, 1051.066
723.692, 1051.097
724.174, 1052.078
724.656, 1054.977
725.138, 1055.350
725.620, 1052.816
726.102, 1048.173
726.584, 1039.573
727.066, 1030.312
727.549, 1024.198
728.031, 1021.693
728.513, 1021.898
728.995, 1027.095
729.477, 1032.481
729.959, 1034.748
730.441, 1034.377
730.923, 1031.944
731.406, 1027.883
731.888, 1023.558
732.370, 1019.454
732.852, 1016.604
733.334, 1021.460
733.816, 1035.067
734.298, 1037.949
734.780, 1020.832
735.262, 1002.422
735.745, 998.410
736.227, 1008.536
736.709, 1030.258
737.191, 1089.638
737.673, 1123.479
738.155, 1111.135
738.637, 1083.565
739.119, 1055.768
739.601, 1031.430
740.084, 1013.549
740.566, 1003.586
741.048, 998.985
741.530, 1002.216
742.012, 1007.397
742.494, 1001.797
742.976, 987.034
743.458, 979.508
743.940, 988.354
744.423, 998.998
744.905, 981.067
745.387, 929.970
745.869, 905.544
746.351, 917.004
746.833, 932.879
747.315, 942.367
747.797, 948.546
748.279, 957.985
748.762, 971.841
749.244, 974.121
749.726, 951.627
750.208, 930.619
750.690, 924.406
751.172, 923.595
751.654, 914.052
752.136, 896.685
752.619, 888.237
753.101, 905.159
753.583, 928.056
754.065, 928.515
754.547, 912.396
755.029, 898.367
755.511, 889.742
755.993, 882.164
756.476, 872.248
756.958, 861.636
757.440, 855.405
757.922, 854.257
758.404, 855.663
758.886, 864.023
759.368, 868.529
759.850, 858.727
760.333, 843.159
760.815, 835.265
761.297, 837.486
761.779, 839.941
762.261, 843.739
762.743, 843.523
763.225, 831.089
763.707, 814.333
764.189, 806.287
764.672, 809.558
765.154, 815.376
765.636, 818.398
766.118, 817.893
766.600, 810.661
767.082, 798.064
767.564, 787.677
768.046, 781.366
768.528, 776.078
769.011, 768.674
769.493, 760.447
769.975, 758.873
770.457, 767.942
770.939, 772.728
771.421, 767.905
771.903, 763.106
772.385, 765.274
772.867, 771.272
773.350, 774.322
773.832, 771.905
774.314, 772.086
774.796, 780.819
775.278, 789.194
775.760, 792.330
776.242, 790.272
776.724, 781.528
777.206, 766.539
777.689, 754.777
778.171, 757.990
778.653, 768.313
779.135, 770.002
779.617, 764.828
780.099, 762.315
780.581, 765.097
781.063, 768.787
781.546, 769.411
782.028, 767.209
782.510, 762.529
782.992, 752.626
783.474, 749.576
783.956, 759.089
784.438, 770.185
784.920, 778.723
785.403, 782.883
785.885, 776.739
786.367, 752.658
786.849, 736.333
787.331, 735.822
787.813, 740.837
788.295, 750.222
788.777, 758.944
789.260, 757.442
789.742, 744.116
790.224, 734.235
790.706, 744.823
791.188, 761.449
791.670, 761.767
792.152, 751.281
792.634, 748.574
793.116, 757.533
793.599, 765.349
794.081, 760.299
794.563, 746.405
795.045, 737.337
795.527, 733.505
796.009, 731.844
796.491, 733.511
796.973, 733.254
797.455, 726.302
797.938, 715.686
798.420, 709.531
798.902, 710.041
799.384, 710.214
799.866, 710.913
800.348, 710.253
800.830, 706.036
801.312, 700.784
801.794, 698.116
802.277, 698.384
802.759, 697.780
803.241, 687.859
803.723, 682.978
804.205, 702.674
804.687, 731.437
805.169, 741.500
805.651, 731.776
806.133, 724.700
806.616, 736.425
807.098, 754.950
807.580, 756.564
808.062, 744.564
808.544, 742.291
809.026, 752.539
809.508, 762.010
809.990, 763.663
810.473, 760.661
810.955, 758.488
811.437, 757.261
811.919, 755.994
812.401, 753.566
812.883, 753.089
813.365, 758.425
813.847, 763.830
814.330, 763.227
814.812, 757.250
815.294, 752.087
815.776, 748.561
816.258, 746.072
816.740, 743.911
817.222, 743.158
817.704, 745.236
818.187, 749.473
818.669, 754.534
819.151, 760.282
819.633, 764.082
820.115, 761.695
820.597, 757.214
821.079, 757.444
821.561, 761.221
822.043, 764.133
822.526, 764.538
823.008, 761.523
823.490, 752.951
823.972, 740.851
824.454, 733.594
824.936, 731.262
825.418, 732.841
825.900, 739.550
826.382, 744.682
826.865, 743.552
827.347, 736.587
827.829, 724.173
828.311, 696.857
828.793, 684.474
829.275, 696.842
829.757, 712.513
830.239, 730.761
830.721, 743.520
831.204, 735.882
831.686, 705.393
832.168, 685.632
832.650, 692.766
833.132, 702.601
833.614, 705.052
834.096, 703.434
834.578, 702.715
835.060, 702.138
835.543, 695.492
836.025, 677.007
836.507, 659.379
836.989, 657.163
837.471, 663.065
837.953, 665.491
838.435, 663.707
838.917, 659.019
839.400, 652.086
839.882, 646.704
840.364, 648.424
840.846, 655.938
841.328, 663.174
841.810, 670.282
842.292, 672.407
842.774, 667.667
843.256, 660.188
843.739, 653.056
844.221, 646.540
844.703, 641.793
845.185, 639.156
845.667, 637.606
846.149, 638.233
846.631, 638.394
847.114, 635.058
847.596, 631.216
848.078, 632.166
848.560, 639.145
849.042, 643.084
849.524, 641.958
850.006, 638.516
850.488, 631.633
850.970, 624.505
851.453, 619.339
851.935, 616.855
852.417, 618.685
852.899, 628.267
853.381, 635.893
853.863, 632.399
854.345, 624.559
854.827, 619.758
855.309, 618.252
855.792, 618.182
856.274, 618.885
856.756, 621.424
857.238, 628.569
857.720, 637.682
858.202, 642.447
858.684, 643.233
859.166, 641.080
859.648, 636.273
860.131, 633.271
860.613, 636.133
861.095, 641.838
861.577, 640.975
862.059, 632.382
862.541, 627.518
863.023, 627.493
863.505, 629.859
863.987, 634.536
864.470, 639.596
864.952, 642.135
865.434, 641.945
865.916, 641.440
866.398, 639.726
866.880, 639.054
867.362, 641.334
867.844, 643.335
868.327, 643.439
868.809, 641.449
869.291, 636.417
869.773, 625.454
870.255, 618.424
870.737, 620.237
871.219, 624.250
871.701, 624.779
872.183, 625.641
872.666, 635.634
873.148, 654.584
873.630, 667.237
874.112, 659.123
874.594, 647.703
875.076, 650.478
875.558, 657.923
876.041, 653.923
876.523, 640.096
877.005, 630.383
877.487, 631.771
877.969, 636.914
878.451, 636.939
878.933, 633.926
879.415, 634.901
879.897, 638.495
880.380, 632.960
880.862, 615.238
881.344, 602.619
881.826, 612.869
882.308, 637.738
882.790, 649.393
883.272, 647.330
883.754, 645.683
884.237, 645.920
884.719, 647.275
885.201, 650.043
885.683, 652.244
886.165, 649.748
886.647, 641.504
887.129, 639.529
887.611, 648.733
888.093, 653.820
888.576, 647.808
889.058, 640.481
889.540, 639.465
890.022, 643.880
890.504, 649.764
890.986, 659.908
891.468, 666.197
891.950, 663.285
892.432, 661.846
892.915, 669.594
893.397, 679.901
893.879, 683.075
894.361, 678.687
894.843, 676.976
895.325, 685.439
895.807, 691.893
896.289, 689.182
896.771, 683.295
897.254, 678.226
897.736, 675.296
898.218, 676.412
898.700, 682.545
899.182, 688.877
899.664, 691.544
900.146, 692.985
900.628, 696.268
901.110, 700.210
901.593, 701.941
902.075, 701.309
902.557, 700.849
903.039, 702.335
903.521, 704.466
904.003, 703.410
904.485, 702.043
904.968, 711.301
905.450, 728.952
905.932, 738.583
906.414, 733.744
906.896, 722.368
907.378, 711.701
907.860, 702.780
908.342, 700.099
908.824, 703.496
909.307, 710.449
909.789, 721.252
910.271, 725.441
910.753, 715.050
911.235, 698.416
911.717, 692.324
912.199, 697.686
912.681, 701.962
913.164, 704.307
913.646, 709.794
914.128, 723.833
914.610, 732.765
915.092, 721.253
915.574, 694.464
916.056, 678.610
916.538, 677.519
917.020, 678.919
917.503, 684.121
917.985, 689.704
918.467, 697.373
918.949, 702.688
919.431, 696.135
919.913, 677.354
920.395, 671.866
920.877, 693.898
921.359, 710.474
921.842, 717.008
922.324, 715.854
922.806, 702.238
923.288, 684.052
923.770, 676.234
924.252, 682.101
924.734, 690.303
925.216, 700.841
925.698, 709.274
926.181, 714.098
926.663, 715.285
927.145, 712.055
927.627, 705.219
928.109, 696.658
928.591, 685.573
929.073, 677.856
929.555, 678.607
930.038, 682.428
930.520, 683.783
931.002, 685.211
931.484, 693.282
931.966, 707.651
932.448, 718.447
932.930, 717.989
933.412, 715.250
933.894, 721.710
934.377, 729.386
934.859, 724.969
935.341, 711.320
935.823, 697.917
936.305, 688.601
936.787, 685.688
937.269, 692.930
937.752, 706.379
938.234, 724.589
938.716, 742.720
939.198, 746.328
939.680, 735.700
940.162, 723.036
940.644, 714.460
941.126, 712.167
941.608, 725.143
942.091, 745.674
942.573, 744.892
943.055, 726.747
943.537, 715.972
944.019, 718.146
944.501, 726.732
944.983, 738.089
945.465, 748.269
945.947, 746.582
946.430, 734.711
946.912, 733.919
947.394, 745.114
947.876, 749.004
948.358, 738.317
948.840, 728.642
949.322, 736.531
949.804, 755.401
950.286, 759.425
950.769, 747.011
951.251, 740.477
951.733, 742.582
952.215, 744.751
952.697, 743.151
953.179, 740.030
953.661, 737.119
954.143, 735.150
954.625, 744.537
955.108, 771.012
955.590, 785.413
956.072, 780.774
956.554, 772.271
957.036, 767.247
957.518, 764.481
958.000, 761.214
958.482, 756.769
958.965, 760.062
959.447, 750.142
959.929, 771.069
960.411, 784.509
960.893, 790.864
961.375, 768.909
961.857, 783.509
962.339, 783.459
962.821, 782.809
963.304, 802.554
963.786, 784.718
964.268, 802.138
964.750, 798.903
965.232, 801.265
965.714, 808.754
966.196, 819.817
966.679, 828.452
967.161, 832.458
967.643, 838.968
968.125, 853.363
968.607, 863.544
969.089, 858.128
969.571, 852.782
970.053, 867.997
970.535, 898.561
971.018, 912.906
971.500, 894.974
971.982, 885.404
972.464, 893.664
972.946, 904.664
973.428, 911.002
973.910, 917.028
974.392, 928.831
974.875, 946.079
975.357, 962.123
975.839, 978.470
976.321, 989.559
976.803, 990.075
977.285, 989.564
977.767, 991.563
978.249, 996.896
978.731, 1005.983
979.214, 1018.874
979.696, 1036.471
980.178, 1069.844
980.660, 1092.800
981.142, 1085.459
981.624, 1077.229
982.106, 1090.145
982.588, 1115.938
983.070, 1139.145
983.553, 1157.280
984.035, 1175.014
984.517, 1193.114
984.999, 1211.984
985.481, 1229.170
985.963, 1249.511
986.445, 1280.023
986.927, 1315.712
987.409, 1344.126
987.892, 1362.195
988.374, 1386.521
988.856, 1430.806
989.338, 1473.154
989.820, 1495.135
990.302, 1517.075
990.784, 1560.585
991.266, 1619.068
991.748, 1675.065
992.231, 1724.552
992.713, 1768.044
993.195, 1789.231
993.677, 1824.211
994.159, 1898.925
994.641, 1992.370
995.123, 2085.460
995.606, 2177.341
996.088, 2273.468
996.570, 2375.078
997.052, 2483.551
997.534, 2590.308
998.016, 2715.553
998.498, 2875.771
998.980, 3057.937
999.462, 3245.990
999.945, 3440.817
1000.427, 3647.187
1000.909, 3860.517
1001.391, 4114.440
1001.873, 4425.188
1002.355, 4779.336
1002.837, 5169.697
1003.319, 5596.819
1003.801, 6053.518
1004.284, 6552.229
1004.766, 7124.555
1005.248, 7775.982
1005.730, 8526.314
1006.212, 9411.458
1006.694, 10369.010
1007.176, 11357.820
1007.658, 12401.110
1008.141, 13546.380
1008.623, 14783.120
1009.105, 16059.420
1009.587, 17381.240
1010.069, 18663.260
1010.551, 19985.801
1011.033, 21125.949
1011.515, 21986.779
1011.997, 22544.910
1012.480, 22790.529
1012.962, 22717.910
1013.444, 22294.721
1013.926, 21466.100
1014.408, 20434.949
1014.890, 19196.600
1015.372, 17879.770
1015.854, 16477.641
1016.336, 15101.730
1016.819, 13854.350
1017.301, 12746.520
1017.783, 11738.400
1018.265, 10813.200
1018.747, 10001.260
1019.229, 9337.474
1019.711, 8763.250
1020.193, 8258.144
1020.676, 7811.964
1021.158, 7417.338
1021.640, 7072.088
1022.122, 6773.176
1022.604, 6518.187
1023.086, 6310.066
1023.568, 6175.572
1024.050, 6059.033
1024.532, 5923.143
1025.015, 5797.147
1025.497, 5717.611
1025.979, 5679.057
1026.461, 5645.200
1026.943, 5601.274
1027.425, 5582.973
1027.907, 5614.218
1028.389, 5654.477
1028.871, 5674.706
1029.354, 5703.508
1029.836, 5778.333
1030.318, 5888.767
1030.800, 5986.007
1031.282, 6051.761
1031.764, 6134.627
1032.246, 6256.896
1032.728, 6379.327
1033.211, 6487.200
1033.693, 6589.435
1034.175, 6693.427
1034.657, 6799.172
1035.139, 6908.560
1035.621, 7037.878
1036.103, 7127.069
1036.585, 7149.490
1037.068, 7160.622
1037.550, 7162.769
1038.032, 7171.438
1038.514, 7203.551
1038.996, 7252.251
1039.478, 7295.432
1039.960, 7330.964
1040.442, 7366.430
1040.924, 7388.261
1041.406, 7430.545
1041.889, 7496.086
1042.371, 7591.292
1042.853, 7731.784
1043.335, 7900.933
1043.817, 8052.072
1044.299, 8169.313
1044.781, 8344.547
1045.263, 8598.960
1045.746, 8867.427
1046.228, 9139.003
1046.710, 9416.876
1047.192, 9697.217
1047.674, 9992.114
1048.156, 10332.230
1048.638, 10724.080
1049.120, 11101.130
1049.603, 11452.410
1050.085, 11823.260
1050.567, 12219.340
1051.049, 12644.390
1051.531, 13101.970
1052.013, 13584.720
1052.495, 14086.100
1052.977, 14604.700
1053.459, 15125.230
1053.942, 15653.600
1054.424, 16127.800
1054.906, 16533.500
1055.388, 16929.699
1055.870, 17356.029
1056.352, 17772.199
1056.834, 18130.990
1057.316, 18428.619
1057.798, 18645.590
1058.281, 18782.949
1058.763, 18865.199
1059.245, 18894.840
1059.727, 18840.160
1060.209, 18686.920
1060.691, 18450.199
1061.173, 18144.760
1061.655, 17774.631
1062.138, 17346.150
1062.620, 16864.381
1063.102, 16324.150
1063.584, 15734.740
1064.066, 15157.570
1064.548, 14612.190
1065.030, 14066.360
1065.512, 13490.950
1065.995, 12896.760
1066.477, 12291.730
1066.959, 11691.750
1067.441, 11122.010
1067.923, 10585.150
1068.405, 10072.150
1068.887, 9582.027
1069.369, 9129.464
1069.851, 8724.456
1070.333, 8345.391
1070.816, 7966.756
1071.298, 7600.807
1071.780, 7268.091
1072.262, 6960.376
1072.744, 6659.355
1073.226, 6365.019
1073.708, 6099.783
1074.190, 5877.401
1074.673, 5668.198
1075.155, 5450.020
1075.637, 5237.424
1076.119, 5043.079
1076.601, 4860.737
1077.083, 4672.855
1077.565, 4486.885
1078.047, 4331.321
1078.530, 4218.973
1079.012, 4111.605
1079.494, 3994.270
1079.976, 3876.722
1080.458, 3760.590
1080.940, 3649.047
1081.422, 3539.305
1081.904, 3437.606
1082.386, 3361.641
1082.869, 3317.176
1083.351, 3267.335
1083.833, 3195.788
1084.315, 3132.813
1084.797, 3094.960
1085.279, 3057.217
1085.761, 3001.423
1086.243, 2938.385
1086.726, 2882.812
1087.208, 2834.785
1087.690, 2798.275
1088.172, 2778.741
1088.654, 2758.470
1089.136, 2733.890
1089.618, 2713.362
1090.100, 2701.958
1090.583, 2693.573
1091.065, 2681.515
1091.547, 2666.364
1092.029, 2651.015
1092.511, 2635.699
1092.993, 2616.767
1093.475, 2592.178
1093.957, 2577.137
1094.439, 2577.236
1094.922, 2582.655
1095.404, 2585.321
1095.886, 2587.769
1096.368, 2595.298
1096.850, 2607.786
1097.332, 2625.962
1097.814, 2648.733
1098.296, 2666.152
1098.778, 2676.644
1099.261, 2687.921
1099.743, 2704.409
1100.225, 2723.878
1100.707, 2742.713
1101.189, 2763.087
1101.671, 2793.670
1102.153, 2827.970
1102.635, 2848.112
1103.118, 2856.584
1103.600, 2870.646
1104.082, 2896.339
1104.564, 2924.058
1105.046, 2946.681
1105.528, 2967.993
1106.010, 2991.826
1106.492, 3015.882
1106.974, 3037.481
1107.457, 3057.432
1107.939, 3077.588
1108.421, 3098.190
1108.903, 3118.369
1109.385, 3140.250
1109.867, 3156.354
1110.349, 3161.446
1110.831, 3162.158
1111.313, 3151.844
1111.796, 3147.034
1112.278, 3174.927
1112.760, 3225.315
1113.242, 3253.110
1113.724, 3246.642
1114.206, 3237.547
1114.688, 3224.733
1115.170, 3213.919
1115.653, 3209.988
1116.135, 3203.256
1116.617, 3183.161
1117.099, 3159.935
1117.581, 3155.600
1118.063, 3171.058
1118.545, 3164.116
1119.027, 3129.513
1119.510, 3096.203
1119.992, 3067.764
1120.474, 3041.094
1120.956, 3015.215
1121.438, 2988.619
1121.920, 2959.944
1122.402, 2929.282
1122.884, 2897.198
1123.366, 2863.678
1123.849, 2828.790
1124.331, 2791.812
1124.813, 2743.858
1125.295, 2683.946
1125.777, 2627.393
1126.259, 2584.544
1126.741, 2546.610
1127.223, 2500.552
1127.705, 2452.974
1128.188, 2417.373
1128.670, 2386.696
1129.152, 2345.990
1129.634, 2295.895
1130.116, 2245.390
1130.598, 2197.468
1131.080, 2154.429
1131.562, 2120.655
1132.045, 2088.777
1132.527, 2053.601
1133.009, 2019.029
1133.491, 1990.585
1133.973, 1964.245
1134.455, 1931.667
1134.937, 1892.734
1135.419, 1857.067
1135.901, 1823.146
1136.384, 1798.033
1136.866, 1792.757
1137.348, 1782.979
1137.830, 1756.752
1138.312, 1726.526
1138.794, 1703.103
1139.276, 1683.803
1139.758, 1660.845
1140.240, 1633.588
1140.723, 1605.834
1141.205, 1576.290
1141.687, 1551.911
1142.169, 1533.459
1142.651, 1525.068
1143.133, 1530.945
1143.615, 1536.234
1144.097, 1518.272
1144.580, 1487.309
1145.062, 1479.674
1145.544, 1488.960
1146.026, 1483.867
1146.508, 1465.705
1146.990, 1456.711
1147.472, 1461.866
1147.954, 1463.748
1148.437, 1449.162
1148.919, 1431.719
1149.401, 1423.611
1149.883, 1422.355
1150.365, 1429.180
1150.847, 1438.270
1151.329, 1439.269
1151.811, 1434.707
1152.293, 1437.298
1152.776, 1451.647
1153.258, 1460.492
1153.740, 1447.406
1154.222, 1441.306
1154.704, 1460.201
1155.186, 1481.446
1155.668, 1490.086
1156.150, 1491.784
1156.632, 1496.800
1157.115, 1504.108
1157.597, 1501.208
1158.079, 1478.096
1158.561, 1471.278
1159.043, 1484.229
1159.525, 1506.712
1160.007, 1539.083
1160.489, 1570.491
1160.972, 1595.251
1161.454, 1607.110
1161.936, 1585.868
1162.418, 1541.440
1162.900, 1544.019
1163.382, 1584.792
1163.864, 1605.669
1164.346, 1601.725
1164.828, 1597.217
1165.311, 1601.576
1165.793, 1609.512
1166.275, 1617.841
1166.757, 1624.859
1167.239, 1627.514
1167.721, 1628.598
1168.203, 1632.313
1168.685, 1636.611
1169.167, 1636.367
1169.650, 1632.779
1170.132, 1632.383
1170.614, 1636.976
1171.096, 1645.922
1171.578, 1662.938
1172.060, 1678.867
1172.542, 1696.086
1173.024, 1705.443
1173.507, 1690.776
1173.989, 1670.627
1174.471, 1673.137
1174.953, 1696.473
1175.435, 1717.630
1175.917, 1737.223
1176.399, 1751.429
1176.881, 1758.715
1177.364, 1766.938
1177.846, 1778.100
1178.328, 1792.449
1178.810, 1809.697
1179.292, 1832.817
1179.774, 1872.586
1180.256, 1920.725
1180.738, 1947.328
1181.220, 1959.195
1181.703, 1976.025
1182.185, 1999.632
1182.667, 2023.295
1183.149, 2045.671
1183.631, 2077.563
1184.113, 2132.501
1184.595, 2185.403
1185.077, 2212.140
1185.559, 2234.797
1186.042, 2271.116
1186.524, 2314.392
1187.006, 2352.831
1187.488, 2389.811
1187.970, 2441.583
1188.452, 2516.373
1188.934, 2576.841
1189.416, 2620.721
1189.899, 2647.925
1190.381, 2648.049
1190.863, 2651.214
1191.345, 2671.654
1191.827, 2701.001
1192.309, 2730.433
1192.791, 2760.528
1193.273, 2797.884
1193.755, 2840.761
1194.238, 2856.783
1194.720, 2848.606
1195.202, 2849.729
1195.684, 2864.489
1196.166, 2865.972
1196.648, 2840.406
1197.130, 2810.444
1197.612, 2800.278
1198.094, 2794.460
1198.577, 2780.881
1199.059, 2757.321
1199.541, 2714.113
1200.023, 2662.446
1200.505, 2622.041
1200.987, 2593.869
1201.469, 2564.492
1201.951, 2533.556
1202.434, 2493.266
1202.916, 2426.621
1203.398, 2373.399
1203.880, 2357.952
1204.362, 2337.254
1204.844, 2281.579
1205.326, 2212.121
1205.808, 2160.056
1206.291, 2122.655
1206.773, 2081.645
1207.255, 2036.909
1207.737, 1996.644
1208.219, 1961.420
1208.701, 1929.143
1209.183, 1899.526
1209.665, 1877.723
1210.147, 1867.851
1210.630, 1854.732
1211.112, 1814.232
1211.594, 1767.818
1212.076, 1745.132
1212.558, 1730.419
1213.040, 1701.037
1213.522, 1663.670
1214.004, 1635.892
1214.486, 1619.448
1214.969, 1600.764
1215.451, 1572.243
1215.933, 1550.482
1216.415, 1544.179
1216.897, 1536.503
1217.379, 1525.483
1217.861, 1507.601
1218.343, 1476.273
1218.826, 1443.118
1219.308, 1426.975
1219.790, 1425.409
1220.272, 1424.848
1220.754, 1424.694
1221.236, 1411.500
1221.718, 1386.297
1222.200, 1365.257
1222.682, 1352.631
1223.165, 1344.863
1223.647, 1340.463
1224.129, 1334.615
1224.611, 1319.581
1225.093, 1304.074
1225.575, 1301.684
1226.057, 1299.249
1226.539, 1275.748
1227.021, 1244.405
1227.504, 1232.657
1227.986, 1241.143
1228.468, 1242.349
1228.950, 1230.143
1229.432, 1214.767
1229.914, 1193.975
1230.396, 1175.283
1230.878, 1160.504
1231.361, 1147.828
1231.843, 1136.260
1232.325, 1126.293
1232.807, 1119.347
1233.289, 1113.821
1233.771, 1101.881
1234.253, 1087.025
1234.735, 1087.292
1235.218, 1097.264
1235.700, 1095.321
1236.182, 1077.939
1236.664, 1049.952
1237.146, 1012.254
1237.628, 985.004
1238.110, 988.578
1238.592, 996.532
1239.074, 994.788
1239.557, 991.220
1240.039, 993.360
1240.521, 996.148
1241.003, 991.322
1241.485, 980.930
1241.967, 972.854
1242.449, 966.783
1242.931, 966.721
1243.413, 975.146
1243.896, 970.985
1244.378, 950.028
1244.860, 933.733
1245.342, 931.500
1245.824, 932.422
1246.306, 926.688
1246.788, 917.568
1247.270, 907.714
1247.753, 899.379
1248.235, 896.797
1248.717, 897.363
1249.199, 898.961
1249.681, 899.182
1250.163, 891.340
1250.645, 873.995
1251.127, 864.134
1251.609, 875.305
1252.092, 878.599
1252.574, 864.046
1253.056, 852.877
1253.538, 854.055
1254.020, 854.516
1254.502, 843.514
1254.984, 829.069
1255.466, 825.834
1255.948, 831.084
1256.431, 835.105
1256.913, 836.509
1257.395, 826.529
1257.877, 808.700
1258.359, 797.419
1258.841, 795.292
1259.323, 795.391
1259.805, 794.901
1260.288, 792.943
1260.770, 789.151
1261.252, 783.526
1261.734, 774.172
1262.216, 764.985
1262.698, 756.920
1263.180, 752.129
1263.662, 753.982
1264.145, 760.732
1264.627, 766.242
1265.109, 770.956
1265.591, 768.259
1266.073, 758.118
1266.555, 749.705
1267.037, 744.564
1267.519, 743.480
1268.001, 746.281
1268.484, 745.637
1268.966, 733.812
##END=



