##NAMES=Rongibbsite
##RRUFFID=R100031
##IDEAL CHEMISTRY=Pb^2+^_2_(AlSi_4_)O_11_(OH)
##LOCALITY=A prospect near Evening Star mine, Bighorn Mountains, Maricopa County, Arizona
##OWNER=RRUFF
##SOURCE=Ron Gibbs
##DESCRIPTION=Radiating, bladed to prismatic colorless crystals, type sample
##STATUS=The identification of this mineral is confirmed by single-crystal X-ray diffraction and chemical analysis.
##URL=rruff.info/R100031
##MEASURED CHEMISTRY=Pb_2.05_(Al_1.11_Si_3.89_)_Î£=5.00_O_11_(OH)
91.03516, 27.60247
91.51727, 26.47107
91.99939, 27.42748
92.48151, 29.82687
92.96362, 31.84297
93.44574, 32.29115
93.92786, 31.72652
94.40997, 31.35739
94.89210, 31.32330
95.37421, 31.31338
95.85633, 30.81563
96.33845, 29.84801
96.82056, 28.80728
97.30268, 27.87636
97.78480, 27.06716
98.26691, 26.49453
98.74903, 26.24010
99.23115, 26.18594
99.71326, 25.94965
100.1954, 25.46524
100.6775, 25.06011
101.1596, 25.04747
101.6417, 25.51536
102.1239, 25.96032
102.6060, 26.33975
103.0881, 26.64627
103.5702, 26.69097
104.0523, 26.41695
104.5344, 25.95171
105.0166, 25.39950
105.4987, 24.68230
105.9808, 24.01633
106.4629, 23.38078
106.9450, 22.66875
107.4271, 22.47801
107.9093, 23.24820
108.3914, 24.38263
108.8735, 24.99465
109.3556, 24.47932
109.8377, 23.99521
110.3198, 23.91273
110.8020, 24.66416
111.2841, 24.98416
111.7662, 24.56188
112.2483, 23.67633
112.7304, 22.94676
113.2125, 22.25944
113.6947, 21.87161
114.1768, 21.94846
114.6589, 23.13645
115.1410, 23.95833
115.6231, 23.77077
116.1052, 22.84526
116.5874, 22.20822
117.0695, 22.50619
117.5516, 23.09073
118.0337, 23.46418
118.5158, 23.41732
118.9980, 23.19656
119.4801, 22.80105
119.9622, 22.25664
120.4443, 21.84043
120.9264, 21.68573
121.4085, 21.75298
121.8907, 21.99475
122.3728, 22.84961
122.8549, 23.58751
123.3370, 23.42739
123.8191, 22.31395
124.3012, 21.16590
124.7834, 20.62078
125.2655, 20.58389
125.7476, 20.85390
126.2297, 21.71618
126.7118, 22.70855
127.1939, 23.08238
127.6761, 22.71829
128.1582, 22.10412
128.6403, 21.72496
129.1224, 21.55964
129.6045, 21.50603
130.0867, 21.41319
130.5688, 21.37480
131.0509, 21.69882
131.5330, 22.44016
132.0151, 23.49553
132.4972, 24.84456
132.9794, 26.48806
133.4615, 27.98675
133.9436, 28.64791
134.4257, 28.60145
134.9078, 29.63946
135.3899, 32.31739
135.8721, 35.99276
136.3542, 38.82260
136.8363, 40.63230
137.3184, 42.38126
137.8005, 44.79640
138.2826, 47.95553
138.7648, 51.32769
139.2469, 54.62176
139.7290, 58.01896
140.2111, 62.65817
140.6932, 68.73910
141.1753, 75.76597
141.6575, 83.46693
142.1396, 92.50439
142.6217, 100.5778
143.1038, 106.8872
143.5859, 111.3671
144.0681, 116.5738
144.5502, 122.7497
145.0323, 129.4738
145.5144, 136.4282
145.9965, 143.7639
146.4786, 151.0287
146.9608, 157.8901
147.4429, 164.2742
147.9250, 171.0163
148.4071, 178.1999
148.8892, 185.7293
149.3713, 193.3006
149.8535, 200.7046
150.3356, 208.4558
150.8177, 216.6289
151.2998, 224.9471
151.7819, 234.2779
152.2640, 245.5428
152.7462, 257.7690
153.2283, 268.9963
153.7104, 278.2859
154.1925, 287.2424
154.6746, 296.6273
155.1567, 308.0754
155.6389, 316.9581
156.1210, 320.9692
156.6031, 321.9243
157.0852, 324.3518
157.5673, 331.5605
158.0495, 338.7522
158.5316, 343.5216
159.0137, 343.7934
159.4958, 343.9238
159.9779, 344.9545
160.4600, 346.7212
160.9422, 348.6872
161.4243, 350.1234
161.9064, 352.0137
162.3885, 355.0186
162.8706, 359.7143
163.3527, 365.1135
163.8349, 370.6705
164.3170, 376.5374
164.7991, 383.4415
165.2812, 392.0547
165.7633, 401.7169
166.2454, 411.8166
166.7276, 421.5802
167.2097, 432.2646
167.6918, 445.1283
168.1739, 459.8732
168.6560, 474.9775
169.1381, 489.4465
169.6203, 503.5936
170.1024, 514.5469
170.5845, 524.1351
171.0666, 534.3151
171.5487, 545.3379
172.0309, 557.1164
172.5130, 569.1159
172.9951, 581.2586
173.4772, 593.3315
173.9593, 605.0364
174.4414, 615.3987
174.9236, 625.7353
175.4057, 637.2625
175.8878, 650.0746
176.3699, 663.5861
176.8520, 677.9069
177.3341, 692.6867
177.8163, 707.2253
178.2984, 720.3723
178.7805, 733.2543
179.2626, 747.7116
179.7447, 763.5780
180.2268, 780.1557
180.7090, 796.0881
181.1911, 811.8455
181.6732, 828.7773
182.1553, 847.4019
182.6374, 867.5846
183.1195, 888.6123
183.6017, 910.7656
184.0838, 933.5331
184.5659, 956.8773
185.0480, 980.6981
185.5301, 1005.742
186.0123, 1033.091
186.4944, 1061.963
186.9765, 1088.601
187.4586, 1112.751
187.9407, 1136.133
188.4228, 1161.768
188.9050, 1189.274
189.3871, 1216.023
189.8692, 1240.358
190.3513, 1262.464
190.8334, 1283.964
191.3155, 1304.920
191.7977, 1325.006
192.2798, 1344.198
192.7619, 1362.525
193.2440, 1378.402
193.7261, 1390.885
194.2082, 1400.103
194.6904, 1408.244
195.1725, 1415.884
195.6546, 1421.712
196.1367, 1422.599
196.6188, 1418.368
197.1009, 1412.184
197.5831, 1406.015
198.0652, 1399.797
198.5473, 1390.808
199.0294, 1378.382
199.5115, 1363.829
199.9937, 1349.760
200.4758, 1336.480
200.9579, 1322.777
201.4400, 1307.966
201.9221, 1291.940
202.4042, 1276.359
202.8864, 1261.871
203.3685, 1247.303
203.8506, 1230.070
204.3327, 1210.398
204.8148, 1187.895
205.2969, 1162.559
205.7791, 1134.514
206.2612, 1102.660
206.7433, 1066.370
207.2254, 1026.702
207.7075, 986.0890
208.1896, 944.1926
208.6718, 902.0309
209.1539, 859.0193
209.6360, 814.8564
210.1181, 773.3261
210.6002, 734.5463
211.0823, 698.5558
211.5645, 665.5540
212.0466, 635.5801
212.5287, 608.2022
213.0108, 583.2696
213.4929, 560.7148
213.9750, 540.2735
214.4572, 521.9906
214.9393, 505.8146
215.4214, 491.1208
215.9035, 477.9312
216.3856, 466.0448
216.8678, 455.6220
217.3499, 446.6063
217.8320, 438.7566
218.3141, 432.2782
218.7962, 426.9234
219.2783, 422.0513
219.7605, 417.7196
220.2426, 413.8124
220.7247, 410.3762
221.2068, 407.6180
221.6889, 404.7206
222.1710, 401.5167
222.6532, 398.1933
223.1353, 395.4186
223.6174, 393.1752
224.0995, 391.4715
224.5816, 390.3754
225.0637, 390.1131
225.5459, 389.8805
226.0280, 389.6899
226.5101, 389.5082
226.9922, 389.2440
227.4743, 388.9077
227.9564, 388.4709
228.4386, 387.8007
228.9207, 386.4637
229.4028, 386.0117
229.8849, 386.8445
230.3670, 388.4739
230.8492, 389.5251
231.3313, 389.6274
231.8134, 389.6955
232.2955, 390.1289
232.7776, 390.9511
233.2597, 392.0919
233.7419, 393.6311
234.2240, 395.4784
234.7061, 397.3085
235.1882, 398.8752
235.6703, 400.8043
236.1524, 403.5779
236.6346, 408.1698
237.1167, 411.2988
237.5988, 412.4807
238.0809, 412.3994
238.5630, 412.6212
239.0451, 413.1938
239.5273, 413.9867
240.0094, 414.9561
240.4915, 416.1333
240.9736, 417.3813
241.4557, 418.6564
241.9378, 420.0144
242.4200, 421.6392
242.9021, 423.9352
243.3842, 425.8783
243.8663, 426.9600
244.3484, 426.6924
244.8306, 427.0207
245.3127, 428.0437
245.7948, 429.6035
246.2769, 431.4839
246.7590, 433.9448
247.2411, 436.2365
247.7233, 437.8145
248.2054, 437.9957
248.6875, 440.1564
249.1696, 445.1163
249.6517, 451.4811
250.1338, 456.9076
250.6160, 460.7349
251.0981, 464.8416
251.5802, 469.8230
252.0623, 475.8789
252.5444, 481.9135
253.0265, 487.7417
253.5087, 493.6644
253.9908, 500.0999
254.4729, 507.5807
254.9550, 514.5906
255.4371, 520.6907
255.9192, 525.7500
256.4014, 530.6906
256.8835, 536.1624
257.3656, 540.8683
257.8477, 543.5249
258.3298, 544.3657
258.8120, 542.6028
259.2941, 537.8914
259.7762, 530.1222
260.2583, 520.4406
260.7404, 508.0224
261.2225, 494.5861
261.7047, 481.4448
262.1868, 468.2767
262.6689, 456.1475
263.1510, 445.2136
263.6331, 435.5475
264.1152, 426.4791
264.5974, 417.9391
265.0795, 410.1966
265.5616, 404.0292
266.0437, 400.0131
266.5258, 395.2341
267.0079, 388.5137
267.4901, 380.2899
267.9722, 375.3583
268.4543, 374.8365
268.9364, 375.2868
269.4185, 373.7230
269.9006, 369.5376
270.3828, 365.9789
270.8649, 363.4175
271.3470, 361.8441
271.8291, 361.2436
272.3112, 361.7579
272.7933, 362.8399
273.2755, 364.1252
273.7576, 365.6054
274.2397, 367.2542
274.7218, 368.9903
275.2039, 370.9142
275.6860, 373.3955
276.1682, 376.5470
276.6503, 379.9182
277.1324, 383.2911
277.6145, 386.6439
278.0966, 389.9839
278.5787, 393.3356
279.0609, 396.6576
279.5430, 400.0216
280.0251, 403.4955
280.5072, 406.5633
280.9893, 409.0384
281.4715, 410.9071
281.9536, 411.9527
282.4357, 412.0599
282.9178, 411.5459
283.3999, 411.2628
283.8820, 411.2860
284.3642, 410.0419
284.8463, 406.3319
285.3284, 400.3410
285.8105, 394.5730
286.2926, 389.0314
286.7747, 383.6105
287.2569, 378.3611
287.7390, 373.2554
288.2211, 367.6491
288.7032, 361.0091
289.1853, 353.6161
289.6674, 346.5870
290.1496, 339.9019
290.6317, 333.5058
291.1138, 327.4385
291.5959, 321.6376
292.0780, 315.8686
292.5602, 310.0054
293.0423, 304.0965
293.5244, 298.1653
294.0065, 292.2314
294.4886, 286.5271
294.9707, 281.1637
295.4529, 276.1294
295.9350, 271.5086
296.4171, 267.3390
296.8992, 263.5026
297.3813, 259.9433
297.8634, 256.6538
298.3456, 253.3550
298.8277, 249.6778
299.3098, 245.8732
299.7919, 242.5779
300.2740, 240.1177
300.7561, 237.9136
301.2383, 235.2681
301.7204, 232.2431
302.2025, 229.2947
302.6846, 226.4737
303.1667, 223.9563
303.6488, 221.9779
304.1310, 220.6376
304.6131, 219.7035
305.0952, 219.2542
305.5773, 219.0875
306.0594, 218.6587
306.5415, 217.4506
307.0237, 215.9452
307.5058, 214.5634
307.9879, 213.3303
308.4700, 212.3829
308.9521, 211.9672
309.4343, 211.8906
309.9164, 211.8008
310.3985, 211.5943
310.8806, 211.2811
311.3627, 210.8342
311.8448, 210.2474
312.3270, 209.6601
312.8091, 209.1351
313.2912, 208.6623
313.7733, 208.2298
314.2554, 207.2361
314.7375, 206.7977
315.2197, 207.9384
315.7018, 210.4539
316.1839, 212.5389
316.6660, 213.2884
317.1481, 213.3158
317.6302, 213.1069
318.1124, 212.7072
318.5945, 212.1849
319.0766, 211.2443
319.5587, 210.1219
320.0408, 209.6177
320.5229, 210.5619
321.0051, 211.7857
321.4872, 212.6359
321.9693, 212.8198
322.4514, 212.9711
322.9335, 213.2670
323.4156, 213.6115
323.8978, 213.8190
324.3799, 213.6669
324.8620, 213.5394
325.3441, 213.5234
325.8262, 213.5464
326.3083, 213.9328
326.7905, 214.8669
327.2726, 216.1302
327.7547, 217.4397
328.2368, 219.4900
328.7189, 220.8578
329.2010, 220.9042
329.6832, 219.4265
330.1653, 218.8922
330.6474, 219.9014
331.1295, 221.4223
331.6116, 222.6697
332.0938, 223.7997
332.5759, 224.3670
333.0580, 223.9098
333.5401, 222.6732
334.0222, 222.5647
334.5043, 224.0271
334.9865, 226.0001
335.4686, 227.9498
335.9507, 230.0203
336.4328, 231.6637
336.9149, 232.7589
337.3970, 233.4737
337.8792, 234.1379
338.3613, 234.6365
338.8434, 235.4337
339.3255, 236.8852
339.8076, 239.1358
340.2898, 240.9289
340.7719, 242.1428
341.2540, 243.1436
341.7361, 244.5002
342.2182, 246.2143
342.7003, 248.0554
343.1825, 249.9063
343.6646, 251.8065
344.1467, 253.9591
344.6288, 256.4318
345.1109, 258.9043
345.5930, 260.8566
346.0752, 262.3687
346.5573, 264.5665
347.0394, 268.0035
347.5215, 272.0567
348.0036, 275.6045
348.4857, 278.6236
348.9679, 280.9911
349.4500, 281.9369
349.9321, 282.1327
350.4142, 283.6051
350.8963, 286.8702
351.3784, 290.9704
351.8606, 294.9044
352.3427, 298.6358
352.8248, 302.1145
353.3069, 304.9024
353.7890, 307.5336
354.2711, 310.9476
354.7533, 315.2915
355.2354, 319.6061
355.7175, 322.7523
356.1996, 325.2998
356.6817, 328.2414
357.1638, 332.4138
357.6460, 336.8282
358.1281, 340.7194
358.6102, 344.1051
359.0923, 347.5753
359.5744, 351.7161
360.0565, 355.9530
360.5387, 359.6944
361.0208, 362.2185
361.5029, 364.9319
361.9850, 368.5435
362.4671, 372.8439
362.9492, 377.1466
363.4314, 381.6546
363.9135, 385.7827
364.3956, 389.0750
364.8777, 390.9794
365.3598, 393.2683
365.8419, 396.4082
366.3241, 400.1348
366.8062, 404.0358
367.2883, 408.7274
367.7704, 412.9380
368.2526, 416.1684
368.7347, 418.2132
369.2168, 420.4663
369.6989, 423.4822
370.1810, 426.3978
370.6631, 428.5377
371.1453, 429.6997
371.6274, 430.3806
372.1095, 430.6028
372.5916, 430.3809
373.0737, 429.9046
373.5558, 429.5692
374.0380, 428.3887
374.5201, 425.7181
375.0022, 421.2785
375.4843, 416.3169
375.9664, 410.7113
376.4485, 404.7462
376.9307, 398.9291
377.4128, 393.4480
377.8949, 387.5240
378.3770, 380.8746
378.8591, 373.5476
379.3412, 365.7286
379.8234, 357.4063
380.3055, 348.8638
380.7876, 340.4276
381.2697, 332.0459
381.7518, 324.0960
382.2339, 316.7774
382.7161, 309.8962
383.1982, 302.6776
383.6803, 295.2105
384.1624, 288.2607
384.6445, 282.7220
385.1266, 278.1933
385.6088, 273.7150
386.0909, 269.1802
386.5730, 264.5935
387.0551, 259.7219
387.5372, 254.8237
388.0193, 250.5524
388.5015, 247.6003
388.9836, 245.3114
389.4657, 243.1374
389.9478, 241.0577
390.4299, 238.7529
390.9120, 235.5305
391.3942, 232.0949
391.8763, 229.3682
392.3584, 228.2612
392.8405, 227.3665
393.3226, 225.8468
393.8047, 223.8761
394.2869, 222.2493
394.7690, 221.3645
395.2511, 220.8600
395.7332, 220.5497
396.2154, 220.5210
396.6975, 220.4429
397.1796, 220.0511
397.6617, 219.5965
398.1438, 219.5083
398.6259, 220.5305
399.1081, 221.2528
399.5902, 221.0556
400.0723, 219.6990
400.5544, 219.0775
401.0365, 219.6017
401.5186, 220.5530
402.0008, 221.3256
402.4829, 221.6967
402.9650, 222.3195
403.4471, 223.3345
403.9292, 224.6567
404.4113, 225.8840
404.8935, 226.9424
405.3756, 228.0903
405.8577, 229.5017
406.3398, 231.2070
406.8219, 232.8289
407.3040, 234.3013
407.7862, 235.8231
408.2683, 237.8097
408.7504, 240.2818
409.2325, 242.6106
409.7146, 244.4606
410.1967, 246.0269
410.6789, 248.2099
411.1610, 251.0383
411.6431, 253.8309
412.1252, 255.7122
412.6073, 257.0554
413.0894, 258.9644
413.5716, 261.7373
414.0537, 264.8605
414.5358, 267.8802
415.0179, 270.7318
415.5000, 273.3125
415.9821, 275.4915
416.4643, 277.3686
416.9464, 279.0317
417.4285, 280.4738
417.9106, 281.6919
418.3927, 282.6368
418.8748, 283.3696
419.3570, 283.9473
419.8391, 284.2303
420.3212, 284.5226
420.8033, 285.2116
421.2854, 286.1171
421.7675, 286.4093
422.2497, 285.0258
422.7318, 283.5746
423.2139, 283.0220
423.6960, 284.1393
424.1781, 284.7116
424.6602, 284.3701
425.1424, 283.3863
425.6245, 282.1318
426.1066, 280.1632
426.5887, 278.5346
427.0709, 277.7108
427.5530, 277.6891
428.0351, 276.8590
428.5172, 274.8915
428.9993, 272.5429
429.4814, 270.2555
429.9636, 267.9321
430.4457, 266.0622
430.9278, 264.7687
431.4099, 263.8658
431.8920, 262.8950
432.3741, 261.7964
432.8563, 261.0460
433.3384, 261.3934
433.8205, 262.4750
434.3026, 261.4955
434.7847, 258.2516
435.2668, 254.5649
435.7490, 252.1709
436.2311, 250.8520
436.7132, 249.9746
437.1953, 249.5474
437.6774, 249.2326
438.1595, 248.7943
438.6417, 248.1389
439.1238, 246.8753
439.6059, 243.9281
440.0880, 240.6840
440.5701, 238.7938
441.0522, 238.6019
441.5344, 238.5476
442.0165, 237.5527
442.4986, 236.1587
442.9807, 235.0327
443.4628, 234.2971
443.9449, 233.9655
444.4271, 234.2891
444.9092, 235.1282
445.3913, 235.7096
445.8734, 235.3461
446.3555, 235.0438
446.8376, 235.3038
447.3198, 236.3322
447.8019, 237.6046
448.2840, 239.3149
448.7661, 241.1588
449.2482, 242.6899
449.7303, 243.6449
450.2125, 244.6997
450.6946, 245.9275
451.1767, 247.3548
451.6588, 249.2826
452.1409, 251.8266
452.6230, 254.6381
453.1052, 257.3552
453.5873, 259.9533
454.0694, 263.2288
454.5515, 267.4361
455.0337, 271.9268
455.5158, 275.3204
455.9979, 277.7350
456.4800, 280.4916
456.9621, 284.5043
457.4442, 289.1774
457.9264, 293.2555
458.4085, 296.7284
458.8906, 299.6859
459.3727, 302.1353
459.8548, 304.1057
460.3369, 305.5620
460.8191, 306.4460
461.3012, 306.9923
461.7833, 307.7175
462.2654, 308.2436
462.7475, 307.7851
463.2296, 305.6920
463.7118, 302.7676
464.1939, 299.3653
464.6760, 295.4767
465.1581, 291.2589
465.6402, 286.2048
466.1223, 281.1973
466.6045, 276.9254
467.0866, 274.8520
467.5687, 271.8196
468.0508, 266.7399
468.5329, 260.6570
469.0150, 255.8388
469.4972, 252.8681
469.9793, 250.3734
470.4614, 248.0732
470.9435, 245.9862
471.4256, 243.6332
471.9077, 240.7115
472.3899, 238.1360
472.8720, 236.9554
473.3541, 237.3037
473.8362, 237.2334
474.3183, 236.2962
474.8004, 235.0902
475.2826, 234.8378
475.7647, 235.4889
476.2468, 236.3431
476.7289, 236.8798
477.2110, 237.4004
477.6931, 238.6402
478.1753, 240.6043
478.6574, 242.8059
479.1395, 245.0231
479.6216, 247.1705
480.1037, 249.0095
480.5858, 250.0484
481.0680, 251.5970
481.5501, 254.6521
482.0322, 258.8707
482.5143, 263.5207
482.9964, 269.2195
483.4786, 274.5103
483.9607, 278.5832
484.4428, 281.2823
484.9249, 283.8824
485.4070, 286.7250
485.8892, 289.4645
486.3713, 291.8720
486.8534, 294.4996
487.3355, 295.9538
487.8176, 295.9593
488.2997, 294.8501
488.7819, 293.3379
489.2640, 291.5123
489.7461, 289.0524
490.2282, 285.9229
490.7103, 282.0792
491.1924, 277.0177
491.6746, 270.4132
492.1567, 263.7907
492.6388, 258.8812
493.1209, 255.3709
493.6030, 250.9873
494.0851, 245.1527
494.5673, 238.9245
495.0494, 233.9460
495.5315, 229.9238
496.0136, 225.9884
496.4957, 221.5858
496.9778, 217.1141
497.4600, 212.8423
497.9421, 208.7912
498.4242, 204.9573
498.9063, 201.1712
499.3884, 197.6684
499.8705, 194.6419
500.3527, 192.3137
500.8348, 190.0713
501.3169, 187.6054
501.7990, 185.1679
502.2811, 183.0981
502.7632, 181.7446
503.2454, 180.4900
503.7275, 179.2063
504.2096, 177.9033
504.6917, 176.6346
505.1738, 175.5189
505.6559, 174.3027
506.1381, 172.7339
506.6202, 170.5255
507.1023, 169.2497
507.5844, 169.1990
508.0665, 169.5591
508.5486, 169.2116
509.0308, 168.1371
509.5129, 167.0288
509.9950, 165.9358
510.4771, 165.0358
510.9592, 165.0020
511.4413, 165.7157
511.9235, 166.0687
512.4056, 164.7617
512.8877, 162.8736
513.3698, 162.2256
513.8519, 163.0361
514.3340, 163.7553
514.8162, 163.1591
515.2983, 161.8551
515.7804, 160.5544
516.2625, 159.2964
516.7446, 158.3000
517.2267, 157.9563
517.7089, 157.9586
518.1910, 157.5521
518.6731, 156.1249
519.1552, 154.6882
519.6373, 153.5936
520.1194, 152.8543
520.6016, 152.2586
521.0837, 151.9741
521.5658, 151.6522
522.0479, 150.9226
522.5300, 149.4927
523.0121, 148.7942
523.4943, 149.0981
523.9764, 149.9354
524.4585, 150.5512
524.9406, 150.9350
525.4227, 151.1311
525.9048, 151.1238
526.3870, 150.9536
526.8691, 150.6095
527.3513, 150.1141
527.8334, 149.8114
528.3155, 150.1076
528.7976, 150.6909
529.2797, 151.0234
529.7618, 150.9654
530.2440, 151.1291
530.7261, 152.4360
531.2082, 154.0663
531.6903, 154.9480
532.1724, 153.5119
532.6545, 152.5764
533.1367, 153.4058
533.6188, 155.5280
534.1009, 157.2723
534.5830, 157.9599
535.0651, 158.6391
535.5472, 159.6632
536.0294, 161.1046
536.5115, 162.4718
536.9936, 163.8804
537.4757, 165.0559
537.9578, 165.5582
538.4399, 165.1623
538.9221, 165.7053
539.4042, 167.7102
539.8863, 170.1574
540.3684, 171.2998
540.8505, 171.1945
541.3326, 170.5158
541.8148, 169.5038
542.2969, 168.1157
542.7790, 166.1030
543.2611, 163.5356
543.7432, 160.9115
544.2253, 158.3705
544.7075, 156.0491
545.1896, 154.2151
545.6717, 153.0228
546.1538, 151.6379
546.6359, 149.2467
547.1180, 146.6153
547.6002, 144.5891
548.0823, 143.7891
548.5644, 143.1171
549.0465, 142.4112
549.5286, 141.6888
550.0107, 141.0086
550.4929, 140.3967
550.9750, 139.7871
551.4571, 139.1729
551.9392, 138.5510
552.4213, 137.7940
552.9034, 136.8118
553.3856, 135.9587
553.8677, 135.7077
554.3498, 135.9767
554.8319, 135.6773
555.3140, 134.5944
555.7961, 133.3217
556.2783, 132.5465
556.7604, 132.2074
557.2425, 132.1756
557.7246, 132.7180
558.2067, 133.2198
558.6888, 132.9381
559.1710, 132.0776
559.6531, 131.3302
560.1352, 131.3690
560.6173, 131.3627
561.0994, 130.6163
561.5815, 128.9202
562.0637, 127.8573
562.5458, 128.4483
563.0279, 129.3207
563.5100, 129.4617
563.9921, 128.3237
564.4742, 127.3833
564.9564, 126.6191
565.4385, 126.1054
565.9206, 126.0880
566.4027, 126.7043
566.8848, 127.1191
567.3669, 127.0742
567.8491, 126.6658
568.3312, 126.0923
568.8133, 125.3669
569.2954, 124.7890
569.7775, 124.6308
570.2596, 124.7344
570.7418, 124.8178
571.2239, 124.8635
571.7060, 124.9563
572.1881, 125.2650
572.6702, 125.6100
573.1523, 125.8025
573.6345, 125.8134
574.1166, 125.6304
574.5987, 125.0328
575.0808, 124.2827
575.5629, 123.8063
576.0450, 123.7053
576.5272, 123.8772
577.0093, 124.4668
577.4914, 125.3691
577.9735, 125.8653
578.4556, 125.7713
578.9377, 125.6474
579.4199, 125.8437
579.9020, 126.3706
580.3841, 126.3622
580.8662, 125.6688
581.3483, 125.2417
581.8304, 126.4948
582.3126, 128.8755
582.7947, 130.3286
583.2768, 130.2360
583.7589, 129.8553
584.2410, 130.5777
584.7231, 131.9906
585.2053, 133.2780
585.6874, 133.8060
586.1696, 134.3807
586.6517, 135.3444
587.1338, 136.6948
587.6159, 138.4053
588.0980, 141.1364
588.5801, 143.6254
589.0623, 145.1861
589.5444, 145.6261
590.0265, 146.4004
590.5086, 147.3936
590.9907, 148.8680
591.4728, 151.2931
591.9550, 154.9316
592.4371, 157.5882
592.9192, 158.8445
593.4013, 159.6448
593.8834, 161.4045
594.3655, 163.9846
594.8477, 166.5293
595.3298, 168.8295
595.8119, 170.8416
596.2940, 172.2828
596.7761, 173.3188
597.2582, 174.5500
597.7404, 176.6521
598.2225, 178.7797
598.7046, 180.2466
599.1867, 181.0144
599.6688, 181.8917
600.1509, 183.6072
600.6331, 185.1628
601.1152, 185.8669
601.5973, 185.3078
602.0794, 184.8560
602.5615, 184.5794
603.0436, 184.3486
603.5258, 184.1050
604.0079, 183.9390
604.4900, 183.2085
604.9721, 181.6026
605.4542, 179.7081
605.9363, 178.9047
606.4185, 179.0644
606.9006, 178.9593
607.3827, 177.8565
607.8648, 176.2862
608.3469, 175.0595
608.8290, 174.0978
609.3112, 173.0246
609.7933, 171.3475
610.2754, 169.6469
610.7575, 168.4148
611.2396, 167.8005
611.7217, 167.0416
612.2039, 165.8986
612.6860, 164.5585
613.1681, 163.1460
613.6502, 161.7258
614.1323, 160.1294
614.6144, 158.2080
615.0966, 156.2568
615.5787, 154.6426
616.0608, 153.3938
616.5429, 152.3827
617.0250, 151.6330
617.5071, 151.0461
617.9893, 150.5343
618.4714, 150.0564
618.9535, 149.3132
619.4356, 147.8638
619.9177, 146.2037
620.3998, 144.8916
620.8820, 143.9337
621.3641, 143.2917
621.8462, 142.9138
622.3283, 142.8554
622.8104, 143.2772
623.2925, 144.3977
623.7747, 145.1767
624.2568, 145.1805
624.7389, 144.9157
625.2210, 144.7919
625.7031, 144.9206
626.1852, 144.9564
626.6674, 144.9245
627.1495, 144.7419
627.6316, 144.1325
628.1137, 143.0662
628.5958, 142.3189
629.0779, 142.1619
629.5601, 142.3983
630.0422, 142.7496
630.5243, 143.1831
631.0064, 143.5545
631.4885, 143.8380
631.9706, 143.9873
632.4528, 143.8401
632.9349, 143.4377
633.4170, 143.2258
633.8991, 143.7356
634.3812, 144.2439
634.8633, 144.3284
635.3455, 143.8815
635.8276, 143.1628
636.3097, 141.8222
636.7918, 140.5482
637.2739, 140.0190
637.7560, 140.5170
638.2382, 140.6323
638.7203, 140.2251
639.2024, 139.4480
639.6845, 138.3725
640.1666, 137.0479
640.6487, 135.9393
641.1309, 135.2225
641.6130, 134.7118
642.0951, 134.2342
642.5772, 133.7670
643.0594, 133.2695
643.5415, 132.9503
644.0236, 132.3902
644.5057, 131.0789
644.9879, 129.1274
645.4700, 127.6538
645.9521, 127.2203
646.4342, 127.0455
646.9163, 126.8187
647.3984, 126.5500
647.8806, 126.1688
648.3627, 125.6678
648.8448, 125.0715
649.3269, 124.3715
649.8090, 123.5691
650.2911, 122.7058
650.7733, 121.7190
651.2554, 120.9157
651.7375, 120.9657
652.2196, 121.4654
652.7017, 121.3557
653.1838, 120.0376
653.6660, 118.6252
654.1481, 117.8642
654.6302, 117.6241
655.1123, 117.6693
655.5944, 118.2370
656.0765, 118.7460
656.5587, 119.1646
657.0408, 119.4046
657.5229, 119.0612
658.0050, 117.7072
658.4871, 116.4926
658.9692, 115.7709
659.4514, 115.5320
659.9335, 115.8442
660.4156, 116.7959
660.8977, 117.5643
661.3798, 117.3266
661.8619, 116.4676
662.3441, 116.0322
662.8262, 116.0880
663.3083, 116.2833
663.7904, 116.5749
664.2725, 116.7423
664.7546, 116.4570
665.2368, 115.3956
665.7189, 114.5954
666.2010, 114.6698
666.6831, 115.0633
667.1652, 115.1354
667.6473, 114.6723
668.1295, 114.1979
668.6116, 113.7150
669.0937, 113.2612
669.5758, 112.9271
670.0579, 112.7205
670.5400, 112.5231
671.0222, 112.2435
671.5043, 112.0112
671.9864, 112.1790
672.4685, 112.6704
672.9506, 113.1133
673.4327, 113.2448
673.9149, 113.2678
674.3970, 113.4012
674.8791, 113.6177
675.3612, 113.6992
675.8433, 113.3349
676.3254, 113.0029
676.8076, 113.0488
677.2897, 113.6089
677.7718, 113.7183
678.2539, 113.0366
678.7360, 112.3830
679.2181, 112.4612
679.7003, 113.4033
680.1824, 113.5335
680.6645, 112.6214
681.1466, 111.6742
681.6287, 112.0969
682.1108, 113.3681
682.5930, 113.9481
683.0751, 113.3694
683.5572, 112.6278
684.0393, 112.5186
684.5214, 112.7909
685.0035, 113.0841
685.4857, 113.1883
685.9678, 113.4062
686.4499, 114.1307
686.9320, 114.9696
687.4141, 115.0313
687.8962, 113.7310
688.3784, 112.7684
688.8605, 112.6082
689.3426, 113.0118
689.8247, 113.1771
690.3068, 113.0997
690.7889, 112.9633
691.2711, 112.7665
691.7532, 112.6134
692.2353, 112.7665
692.7174, 113.1871
693.1995, 113.6396
693.6816, 114.1240
694.1638, 114.4796
694.6459, 114.5676
695.1280, 114.3734
695.6101, 114.0434
696.0922, 113.2586
696.5743, 112.6542
697.0565, 112.6155
697.5386, 113.3268
698.0207, 113.8158
698.5028, 113.9960
698.9849, 114.1408
699.4670, 114.6295
699.9492, 115.3958
700.4313, 115.6699
700.9135, 115.2979
701.3956, 114.7852
701.8777, 114.6323
702.3598, 114.7231
702.8419, 114.8578
703.3240, 114.9526
703.8062, 115.1353
704.2883, 115.6276
704.7704, 116.2011
705.2525, 116.5141
705.7346, 116.1449
706.2167, 116.0091
706.6989, 116.4556
707.1810, 117.0730
707.6631, 116.7437
708.1452, 115.2330
708.6273, 114.2704
709.1094, 114.5980
709.5916, 115.5828
710.0737, 115.7687
710.5558, 115.2711
711.0379, 114.6907
711.5200, 114.1930
712.0021, 113.8736
712.4843, 113.9004
712.9664, 114.2070
713.4485, 114.4516
713.9306, 114.7179
714.4127, 114.6955
714.8948, 114.0582
715.3770, 112.7926
715.8591, 111.9484
716.3412, 111.5598
716.8233, 111.5270
717.3054, 111.9903
717.7875, 112.9141
718.2697, 113.1357
718.7518, 112.6066
719.2339, 112.0710
719.7160, 112.3751
720.1981, 113.0193
720.6802, 113.1080
721.1624, 112.4775
721.6445, 111.9470
722.1266, 112.2773
722.6087, 112.7605
723.0908, 112.7548
723.5729, 111.8055
724.0551, 111.0921
724.5372, 110.7513
725.0193, 110.5887
725.5014, 110.4066
725.9835, 110.1804
726.4656, 110.1188
726.9478, 110.2961
727.4299, 110.4999
727.9120, 110.3039
728.3941, 109.8689
728.8762, 109.7506
729.3583, 110.2344
729.8405, 110.7934
730.3226, 111.0841
730.8047, 111.1324
731.2868, 110.9740
731.7689, 110.1741
732.2510, 109.6905
732.7332, 110.0871
733.2153, 110.8665
733.6974, 110.9583
734.1795, 109.9921
734.6616, 109.3790
735.1437, 109.5867
735.6259, 110.2658
736.1080, 110.5414
736.5901, 110.4421
737.0722, 110.2158
737.5543, 109.7640
738.0364, 109.4125
738.5186, 109.6548
739.0007, 110.3492
739.4828, 110.9980
739.9649, 111.6357
740.4470, 111.9408
740.9291, 111.5604
741.4113, 110.5625
741.8934, 109.9827
742.3755, 109.9397
742.8576, 110.1190
743.3397, 110.5123
743.8218, 111.0527
744.3040, 111.0085
744.7861, 110.3596
745.2682, 109.9595
745.7503, 110.7639
746.2324, 112.0378
746.7145, 112.5209
747.1967, 112.2164
747.6788, 111.8420
748.1609, 111.8483
748.6430, 111.8767
749.1251, 111.6317
749.6072, 110.9834
750.0894, 110.6283
750.5715, 110.7004
751.0536, 110.9186
751.5357, 111.1059
752.0178, 111.2532
752.4999, 111.5866
752.9821, 112.1619
753.4642, 112.5749
753.9463, 112.0936
754.4284, 111.2526
754.9105, 111.2431
755.3926, 112.2892
755.8748, 113.3928
756.3569, 114.0573
756.8390, 114.4052
757.3211, 114.5517
757.8032, 114.5093
758.2853, 114.2314
758.7675, 113.4605
759.2496, 112.7205
759.7318, 112.4934
760.2139, 112.8290
760.6960, 113.4586
761.1781, 114.5213
761.6602, 115.2896
762.1423, 114.5737
762.6245, 112.8979
763.1066, 111.4717
763.5887, 110.5093
764.0708, 110.0226
764.5529, 110.4833
765.0350, 111.2450
765.5172, 111.5409
765.9993, 110.5371
766.4814, 109.9709
766.9635, 110.1839
767.4456, 110.6800
767.9277, 110.7826
768.4099, 110.4155
768.8920, 110.1603
769.3741, 110.1228
769.8562, 110.1885
770.3383, 110.1883
770.8204, 110.1537
771.3026, 110.1786
771.7847, 110.3369
772.2668, 110.4806
772.7489, 110.5533
773.2310, 110.5365
773.7131, 110.4007
774.1953, 109.9076
774.6774, 109.6034
775.1595, 109.5659
775.6416, 109.7347
776.1237, 110.0447
776.6058, 110.5260
777.0880, 110.9258
777.5701, 111.1947
778.0522, 111.3244
778.5343, 111.2699
779.0164, 111.0583
779.4985, 110.7615
779.9807, 110.2876
780.4628, 109.8872
780.9449, 109.6845
781.4270, 109.6696
781.9091, 109.8175
782.3912, 110.1557
782.8734, 110.6369
783.3555, 111.3513
783.8376, 112.1634
784.3197, 112.7351
784.8018, 113.0643
785.2839, 113.2035
785.7661, 113.0402
786.2482, 112.8851
786.7303, 113.4630
787.2124, 114.4991
787.6945, 115.2257
788.1766, 114.9783
788.6588, 114.6390
789.1409, 114.6723
789.6230, 114.9642
790.1051, 115.2002
790.5872, 115.6227
791.0693, 115.5005
791.5515, 114.3327
792.0336, 112.7130
792.5157, 112.5933
792.9978, 113.9820
793.4799, 115.2330
793.9620, 115.8148
794.4442, 115.8523
794.9263, 115.1611
795.4084, 114.0579
795.8905, 113.4156
796.3726, 114.3678
796.8547, 115.0848
797.3369, 114.6590
797.8190, 113.3539
798.3011, 112.1183
798.7832, 110.6027
799.2653, 109.9539
799.7474, 110.8206
800.2296, 112.4605
800.7117, 112.7058
801.1938, 111.6601
801.6759, 110.4233
802.1580, 109.1732
802.6401, 108.2693
803.1223, 108.5838
803.6044, 109.6067
804.0865, 110.0034
804.5686, 108.2359
805.0507, 106.9236
805.5328, 107.4893
806.0150, 109.0861
806.4971, 109.3935
806.9792, 107.9172
807.4613, 106.7701
807.9434, 106.6630
808.4255, 107.0927
808.9077, 106.7267
809.3898, 105.7946
809.8719, 105.3563
810.3540, 106.5198
810.8361, 107.6743
811.3182, 107.2547
811.8004, 105.8646
812.2825, 104.9275
812.7646, 105.1282
813.2467, 105.4419
813.7288, 105.7580
814.2109, 106.0285
814.6931, 106.1327
815.1752, 106.0697
815.6573, 105.8321
816.1394, 105.3181
816.6215, 104.7915
817.1037, 104.7745
817.5858, 105.1078
818.0679, 105.3696
818.5500, 105.3339
819.0322, 105.2337
819.5143, 105.1115
819.9964, 105.0129
820.4785, 105.0403
820.9606, 105.1847
821.4427, 105.4988
821.9249, 106.1350
822.4070, 106.7954
822.8891, 106.7374
823.3712, 106.0344
823.8533, 105.5115
824.3354, 105.4618
824.8176, 105.5546
825.2997, 105.4059
825.7818, 105.1414
826.2639, 104.9785
826.7460, 105.0451
827.2281, 105.1549
827.7103, 105.4240
828.1924, 105.6416
828.6745, 105.4215
829.1566, 104.5328
829.6387, 104.2059
830.1208, 104.7613
830.6030, 105.6054
831.0851, 105.9146
831.5672, 105.7643
832.0493, 105.2599
832.5314, 104.2029
833.0135, 103.4139
833.4957, 103.6384
833.9778, 104.3784
834.4599, 105.0574
834.9420, 105.8656
835.4241, 106.0972
835.9063, 105.4509
836.3884, 104.5934
836.8705, 104.3999
837.3526, 104.8469
837.8347, 104.9817
838.3168, 104.6311
838.7990, 104.2798
839.2811, 104.5894
839.7632, 105.1508
840.2453, 105.3500
840.7274, 104.9261
841.2095, 104.6282
841.6917, 104.8485
842.1738, 105.1950
842.6559, 105.3420
843.1380, 105.1810
843.6201, 105.2743
844.1022, 105.7322
844.5844, 106.0646
845.0665, 105.6280
845.5486, 104.7200
846.0307, 104.1448
846.5128, 103.9748
846.9949, 104.0448
847.4771, 104.3428
847.9592, 104.7669
848.4413, 105.3066
848.9234, 106.0314
849.4055, 106.4346
849.8876, 106.4148
850.3698, 106.2108
850.8519, 105.8365
851.3340, 105.3333
851.8161, 105.4233
852.2982, 106.1003
852.7803, 106.6351
853.2625, 106.3470
853.7446, 105.7349
854.2267, 105.2563
854.7088, 104.9408
855.1909, 104.7827
855.6730, 104.9198
856.1552, 105.0759
856.6373, 105.1414
857.1194, 105.1317
857.6015, 105.1632
858.0836, 105.2378
858.5657, 105.3573
859.0479, 105.6075
859.5300, 105.8468
860.0121, 105.6807
860.4942, 105.2387
860.9763, 104.9764
861.4584, 105.2943
861.9406, 105.6722
862.4227, 105.9822
862.9048, 106.1574
863.3869, 105.9931
863.8690, 105.2778
864.3511, 104.7149
864.8333, 104.3879
865.3154, 104.3968
865.7975, 105.1941
866.2796, 106.5721
866.7617, 107.6503
867.2438, 108.1539
867.7260, 108.2177
868.2081, 107.6463
868.6902, 106.7922
869.1723, 106.1978
869.6544, 105.9349
870.1365, 106.0441
870.6187, 106.7669
871.1008, 107.5904
871.5829, 107.7260
872.0650, 107.2126
872.5471, 106.8212
873.0292, 106.6695
873.5114, 106.6531
873.9935, 106.6003
874.4756, 106.6486
874.9577, 107.0866
875.4399, 108.2646
875.9220, 108.8824
876.4041, 107.9312
876.8862, 106.8847
877.3683, 106.7285
877.8505, 107.6171
878.3326, 108.4291
878.8147, 109.1973
879.2968, 109.6344
879.7789, 109.2485
880.2610, 108.4601
880.7432, 107.8324
881.2253, 107.4213
881.7074, 107.4310
882.1895, 108.4807
882.6716, 109.5047
883.1537, 109.8301
883.6359, 109.5011
884.1180, 109.4065
884.6001, 109.5628
885.0822, 109.8913
885.5643, 110.4622
886.0464, 111.1189
886.5286, 111.5346
887.0107, 111.7098
887.4928, 111.6435
887.9749, 110.9647
888.4570, 110.4207
888.9391, 110.5164
889.4213, 111.0605
889.9034, 111.4094
890.3855, 111.5011
890.8676, 111.4671
891.3497, 111.2323
891.8318, 111.0292
892.3140, 111.4969
892.7961, 112.4176
893.2782, 112.8759
893.7603, 112.3813
894.2424, 111.8576
894.7245, 112.0814
895.2067, 112.6337
895.6888, 113.0017
896.1709, 112.8189
896.6530, 112.9421
897.1351, 113.5486
897.6172, 114.1816
898.0994, 114.2364
898.5815, 113.8263
899.0636, 113.8390
899.5457, 114.3772
900.0278, 114.9522
900.5099, 115.2108
900.9921, 115.2921
901.4742, 115.1936
901.9563, 114.8326
902.4384, 115.1231
902.9205, 117.0001
903.4026, 118.2613
903.8848, 117.3434
904.3669, 114.7134
904.8490, 114.6708
905.3311, 117.1237
905.8132, 119.5128
906.2953, 120.1631
906.7775, 120.1101
907.2596, 120.1809
907.7417, 120.4190
908.2238, 120.9161
908.7059, 122.1119
909.1880, 123.0335
909.6702, 123.3392
910.1523, 123.3413
910.6344, 123.8201
911.1165, 124.7659
911.5986, 125.6914
912.0807, 126.4759
912.5629, 127.1618
913.0450, 127.7677
913.5271, 128.3151
914.0092, 128.8155
914.4913, 128.9647
914.9734, 129.6423
915.4556, 131.4338
915.9377, 133.3589
916.4198, 134.4927
916.9019, 134.7858
917.3840, 135.1407
917.8661, 135.6040
918.3483, 136.1369
918.8304, 136.4641
919.3125, 136.9803
919.7946, 138.4688
920.2767, 141.0046
920.7589, 142.8913
921.2410, 142.7835
921.7231, 142.7912
922.2052, 143.8223
922.6873, 145.7424
923.1694, 147.4238
923.6516, 148.8513
924.1337, 150.0777
924.6158, 151.0020
925.0979, 151.8480
925.5800, 152.9365
926.0621, 154.1706
926.5443, 155.3241
927.0264, 156.2970
927.5085, 157.2040
927.9906, 158.0858
928.4727, 158.9243
928.9548, 159.7006
929.4370, 160.4167
929.9191, 160.8598
930.4012, 160.8594
930.8833, 161.1449
931.3654, 163.0396
931.8475, 165.5087
932.3297, 167.1334
932.8118, 167.4404
933.2939, 167.5549
933.7761, 167.3107
934.2582, 167.3776
934.7403, 168.2658
935.2224, 170.0060
935.7045, 171.4051
936.1866, 172.4636
936.6688, 173.4455
937.1509, 174.5239
937.6330, 175.6404
938.1151, 176.5830
938.5972, 177.4610
939.0793, 178.7695
939.5615, 181.0874
940.0436, 183.3728
940.5257, 185.2674
941.0078, 187.0010
941.4899, 188.9814
941.9720, 191.2245
942.4542, 194.2082
942.9363, 198.3065
943.4184, 202.6850
943.9005, 206.5495
944.3826, 210.0639
944.8647, 213.5214
945.3469, 216.5707
945.8290, 220.3822
946.3111, 225.4962
946.7932, 230.7589
947.2753, 234.9039
947.7574, 238.0802
948.2396, 242.5366
948.7217, 248.3757
949.2038, 254.2616
949.6859, 258.9775
950.1680, 263.4077
950.6501, 268.3739
951.1323, 273.8940
951.6144, 279.3214
952.0965, 284.5212
952.5786, 289.6602
953.0607, 294.8780
953.5428, 300.0016
954.0250, 304.4263
954.5071, 308.2374
954.9892, 311.9626
955.4713, 315.8085
955.9534, 319.5448
956.4355, 323.0315
956.9177, 326.2645
957.3998, 329.2825
957.8819, 332.0811
958.3640, 334.7155
958.8461, 337.2348
959.3282, 339.5143
959.8104, 341.3727
960.2925, 342.8548
960.7746, 343.9682
961.2567, 344.7220
961.7388, 345.4220
962.2209, 347.0635
962.7031, 348.0592
963.1852, 346.8856
963.6673, 343.6512
964.1494, 341.3897
964.6315, 340.6254
965.1136, 339.0469
965.5958, 335.5545
966.0779, 330.9461
966.5600, 326.7484
967.0421, 322.7762
967.5242, 318.6589
968.0063, 314.3119
968.4885, 309.6486
968.9706, 304.3734
969.4527, 298.8714
969.9348, 293.6390
970.4169, 288.9275
970.8990, 283.0993
971.3812, 275.8465
971.8633, 268.7990
972.3454, 264.0430
972.8275, 260.4165
973.3096, 256.1791
973.7917, 251.1875
974.2739, 246.1213
974.7560, 240.9314
975.2381, 236.0551
975.7202, 231.6137
976.2023, 227.5937
976.6844, 223.9816
977.1666, 220.7429
977.6487, 217.2131
978.1308, 212.7272
978.6129, 208.5382
979.0950, 206.4476
979.5771, 205.4109
980.0593, 203.6951
980.5414, 200.1078
981.0235, 196.9191
981.5056, 194.2505
981.9877, 191.9084
982.4698, 189.6563
982.9520, 187.5123
983.4341, 185.5101
983.9162, 183.6556
984.3983, 182.2900
984.8804, 182.2744
985.3625, 182.3216
985.8447, 181.4037
986.3268, 179.5112
986.8089, 177.8428
987.2910, 176.4164
987.7731, 175.1856
988.2552, 174.1346
988.7374, 173.2728
989.2195, 172.8051
989.7016, 172.5451
990.1837, 172.0231
990.6658, 171.1086
991.1479, 169.8566
991.6301, 167.9451
992.1122, 165.9292
992.5944, 164.3084
993.0765, 163.1258
993.5586, 162.3981
994.0407, 162.2159
994.5228, 161.7531
995.0049, 159.8400
995.4871, 157.5406
995.9692, 156.4895
996.4513, 156.5142
996.9334, 156.0158
997.4155, 154.1536
997.8976, 152.0740
998.3798, 149.8423
998.8619, 147.7188
999.3440, 146.5177
999.8261, 146.1039
1000.308, 145.1843
1000.790, 143.2937
1001.272, 141.2534
1001.755, 139.6218
1002.237, 138.2571
1002.719, 137.0253
1003.201, 135.8714
1003.683, 134.9948
1004.165, 134.5172
1004.647, 133.9908
1005.129, 133.0595
1005.612, 131.8580
1006.094, 130.6750
1006.576, 129.5434
1007.058, 128.5594
1007.540, 127.9307
1008.022, 127.3040
1008.504, 126.4520
1008.986, 125.5295
1009.468, 124.7883
1009.951, 124.2454
1010.433, 123.8037
1010.915, 123.4704
1011.397, 123.1029
1011.879, 122.4136
1012.361, 121.6674
1012.843, 121.2561
1013.325, 121.2979
1013.807, 121.1182
1014.290, 120.3042
1014.772, 119.7084
1015.254, 119.8505
1015.736, 120.4654
1016.218, 120.4363
1016.700, 119.8429
1017.182, 119.1301
1017.664, 118.2565
1018.147, 117.6374
1018.629, 117.7986
1019.111, 118.2801
1019.593, 118.3446
1020.075, 117.7488
1020.557, 117.4464
1021.039, 117.5407
1021.521, 117.6758
1022.003, 117.4872
1022.486, 117.1166
1022.968, 116.7190
1023.450, 116.3351
1023.932, 116.2533
1024.414, 117.1250
1024.896, 117.6648
1025.378, 117.2837
1025.860, 116.3805
1026.343, 116.1813
1026.825, 116.6278
1027.307, 116.8670
1027.789, 116.6472
1028.271, 116.2203
1028.753, 115.5536
1029.235, 114.9432
1029.717, 114.7623
1030.199, 115.2023
1030.682, 115.5903
1031.164, 115.9689
1031.646, 116.1830
1032.128, 116.0475
1032.610, 115.7114
1033.092, 115.4887
1033.574, 115.3954
1034.056, 115.4981
1034.539, 116.3586
1035.021, 116.7549
1035.503, 115.6930
1035.985, 114.3607
1036.467, 114.6014
1036.949, 116.4735
1037.431, 117.3208
1037.913, 116.7578
1038.396, 116.0862
1038.878, 116.6727
1039.360, 117.5548
1039.842, 117.7535
1040.324, 117.1873
1040.806, 116.8686
1041.288, 116.8178
1041.770, 117.1244
1042.252, 117.9678
1042.734, 118.9843
1043.217, 119.2877
1043.699, 119.1680
1044.181, 119.4288
1044.663, 120.5330
1045.145, 121.5315
1045.627, 122.1551
1046.109, 122.4380
1046.591, 122.2515
1047.074, 121.5532
1047.556, 121.6044
1048.038, 122.4078
1048.520, 123.2855
1049.002, 123.7204
1049.484, 124.0817
1049.966, 124.8575
1050.448, 125.0730
1050.931, 126.2602
1051.413, 125.7490
1051.895, 125.5778
1052.377, 125.9253
1052.859, 126.5548
1053.341, 127.4524
1053.823, 128.3524
1054.305, 128.4486
1054.787, 127.6464
1055.270, 127.2953
1055.752, 128.4497
1056.234, 129.7222
1056.716, 130.6055
1057.198, 131.1106
1057.680, 131.0973
1058.162, 130.6121
1058.644, 130.4016
1059.126, 130.7661
1059.609, 131.3274
1060.091, 132.0378
1060.573, 132.5929
1061.055, 132.5575
1061.537, 131.6929
1062.019, 131.0074
1062.501, 130.4088
1062.983, 130.3383
1063.466, 131.4850
1063.948, 133.1427
1064.430, 134.1307
1064.912, 134.5183
1065.394, 134.5103
1065.876, 133.5226
1066.358, 133.0694
1066.840, 133.6002
1067.323, 134.4989
1067.805, 135.0556
1068.287, 135.3017
1068.769, 135.4209
1069.251, 135.4288
1069.733, 135.3376
1070.215, 135.0149
1070.697, 134.7190
1071.179, 134.7850
1071.661, 134.3099
1072.144, 134.7009
1072.626, 133.6225
1073.108, 132.7889
1073.590, 132.4526
1074.072, 132.4686
1074.554, 132.8826
1075.036, 133.4361
1075.518, 133.7338
1076.001, 133.5901
1076.483, 133.8026
1076.965, 134.6572
1077.447, 135.4003
1077.929, 135.6596
1078.411, 135.5144
1078.893, 134.9263
1079.375, 134.1060
1079.858, 133.7551
1080.340, 134.6208
1080.822, 135.3357
1081.304, 135.4460
1081.786, 135.1685
1082.268, 134.5818
1082.750, 133.6807
1083.232, 132.9748
1083.714, 132.4683
1084.197, 131.9687
1084.679, 131.2256
1085.161, 130.5397
1085.643, 130.2243
1086.125, 130.1627
1086.607, 129.9054
1087.089, 129.3518
1087.571, 128.9584
1088.054, 128.8192
1088.536, 128.7543
1089.018, 128.6671
1089.500, 128.4586
1089.982, 127.9343
1090.464, 127.0683
1090.946, 126.2077
1091.428, 125.0893
1091.911, 124.5766
1092.393, 125.2271
1092.875, 126.3459
1093.357, 126.0197
1093.839, 124.7427
1094.321, 124.1330
1094.803, 124.8808
1095.285, 125.5523
1095.767, 125.4953
1096.250, 125.0863
1096.732, 124.4629
1097.214, 123.6623
1097.696, 123.5306
1098.178, 124.0196
1098.660, 124.1321
1099.142, 122.8843
1099.624, 121.6248
1100.106, 121.5280
1100.589, 122.0374
1101.071, 122.2939
1101.553, 122.2999
1102.035, 121.8042
1102.517, 120.6867
1102.999, 119.7174
1103.481, 119.5908
1103.963, 119.9685
1104.446, 120.6405
1104.928, 121.4562
1105.410, 121.8891
1105.892, 121.8511
1106.374, 121.2418
1106.856, 119.7017
1107.338, 118.2408
1107.820, 118.5798
1108.302, 119.9785
1108.785, 120.6868
1109.267, 120.4968
1109.749, 119.9770
1110.231, 118.9560
1110.713, 118.1509
1111.195, 117.9465
1111.677, 118.0472
1112.159, 117.5865
1112.641, 116.6472
1113.124, 115.6846
1113.606, 114.7346
1114.088, 114.0896
1114.570, 114.3256
1115.052, 114.6321
1115.534, 114.2301
1116.016, 113.1736
1116.498, 112.8909
1116.981, 113.4111
1117.463, 113.7328
1117.945, 113.3803
1118.427, 112.6989
1118.909, 111.6276
1119.391, 110.6180
1119.873, 110.4235
1120.355, 111.5800
1120.838, 112.0527
1121.320, 111.7308
1121.802, 111.1958
1122.284, 110.8017
1122.766, 110.4779
1123.248, 110.0861
1123.730, 109.6670
1124.212, 109.3270
1124.694, 109.4868
1125.177, 109.0477
1125.659, 107.6312
1126.141, 106.2073
1126.623, 105.9964
1127.105, 106.5396
1127.587, 106.5638
1128.069, 106.0813
1128.551, 105.7344
1129.033, 106.2363
1129.516, 106.3178
1129.998, 105.3727
1130.480, 104.1135
1130.962, 103.8893
1131.444, 104.4662
1131.926, 104.5374
1132.408, 103.8955
1132.890, 103.3507
1133.373, 103.7496
1133.855, 104.0426
1134.337, 103.4867
1134.819, 102.3890
1135.301, 101.8550
1135.783, 101.8684
1136.265, 101.8453
1136.747, 101.6592
1137.229, 101.3006
1137.712, 100.4847
1138.194, 99.69557
1138.676, 99.45537
1139.158, 99.76036
1139.640, 99.89152
1140.122, 99.83414
1140.604, 99.76423
1141.086, 99.82009
1141.569, 99.77002
1142.051, 99.20719
1142.533, 98.44372
1143.015, 97.89454
1143.497, 97.66730
1143.979, 97.52778
1144.461, 97.49673
1144.943, 97.47224
1145.426, 97.36441
1145.908, 97.24915
1146.390, 97.37569
1146.872, 97.56908
1147.354, 97.46309
1147.836, 96.48701
1148.318, 95.94351
1148.800, 95.93606
1149.282, 96.18832
1149.765, 96.74229
1150.247, 97.28267
1150.729, 96.91311
1151.211, 95.83420
1151.693, 94.93417
1152.175, 94.53935
1152.657, 94.45026
1153.139, 94.88648
1153.621, 95.20175
1154.104, 94.12482
1154.586, 92.32473
1155.068, 92.44892
1155.550, 94.45689
1156.032, 95.96143
1156.514, 95.43705
1156.996, 94.61942
1157.478, 93.91922
1157.961, 93.42656
1158.443, 93.44004
1158.925, 93.84376
1159.407, 93.91115
1159.889, 93.52856
1160.371, 93.28959
1160.853, 93.93984
1161.335, 94.40388
1161.818, 93.95444
1162.300, 92.98269
1162.782, 92.72697
1163.264, 93.10798
1163.746, 93.04509
1164.228, 92.19163
1164.710, 91.55199
1165.192, 92.15364
1165.674, 92.99216
1166.156, 93.28679
1166.639, 93.13403
1167.121, 93.24013
1167.603, 93.60229
1168.085, 93.74252
1168.567, 93.46924
1169.049, 93.05429
1169.531, 92.48141
1170.013, 92.05421
1170.496, 92.15988
1170.978, 92.79659
1171.460, 93.37545
1171.942, 93.91247
1172.424, 94.11462
1172.906, 93.64449
1173.388, 93.14357
1173.870, 93.61398
1174.353, 94.26356
1174.835, 93.80688
1175.317, 91.77366
1175.799, 91.27524
1176.281, 92.52104
1176.763, 93.59487
1177.245, 93.23482
1177.727, 92.35226
1178.209, 91.78690
1178.692, 91.49383
1179.174, 91.42604
1179.656, 91.70813
1180.138, 91.79517
1180.620, 91.63929
1181.102, 91.53442
1181.584, 91.74879
1182.066, 92.09097
1182.548, 92.41106
1183.031, 92.65235
1183.513, 92.69053
1183.995, 92.57221
1184.477, 91.99978
1184.959, 90.77973
1185.441, 89.79664
1185.923, 90.14467
1186.405, 90.99407
1186.888, 91.16383
1187.370, 90.81404
1187.852, 90.61967
1188.334, 90.75972
1188.816, 90.97095
1189.298, 91.27290
1189.780, 91.49533
1190.262, 91.25413
1190.745, 90.93776
1191.227, 91.47108
1191.709, 92.60408
1192.191, 92.73003
1192.673, 90.53179
1193.155, 89.40359
1193.637, 90.09396
1194.119, 91.15016
1194.601, 90.55283
1195.084, 89.30833
1195.566, 89.14806
1196.048, 90.09206
1196.530, 90.80672
1197.012, 90.80384
1197.494, 91.10655
1197.976, 92.11635
1198.458, 92.99568
1198.941, 92.35315
1199.423, 90.85388
1199.905, 89.39957
1200.387, 88.11023
1200.869, 87.71998
1201.351, 88.91740
1201.833, 89.87333
1202.315, 90.14483
1202.797, 89.97335
1203.280, 89.48084
1203.762, 88.92821
1204.244, 88.82561
1204.726, 89.27165
1205.208, 89.67315
1205.690, 90.02023
1206.172, 90.09863
1206.654, 89.71724
1207.136, 89.26680
1207.619, 89.60140
1208.101, 90.29099
1208.583, 90.59081
1209.065, 90.34362
1209.547, 89.84975
1210.029, 88.84534
1210.511, 88.32011
1210.993, 88.81616
1211.476, 89.67281
1211.958, 89.65543
1212.440, 89.12979
1212.922, 88.68157
1213.404, 88.36360
1213.886, 88.52902
1214.368, 89.40996
1214.850, 90.24453
1215.333, 90.76204
1215.815, 90.98612
1216.297, 90.84323
1216.779, 90.47974
1217.261, 90.11061
1217.743, 89.69131
1218.225, 89.74565
1218.707, 90.63225
1219.189, 91.07044
1219.672, 90.19711
1220.154, 88.86693
1220.636, 88.69800
1221.118, 89.20364
1221.600, 89.50626
1222.082, 89.27260
1222.564, 89.28155
1223.046, 89.66706
1223.528, 89.98981
1224.011, 89.98492
1224.493, 89.82711
1224.975, 89.80545
1225.457, 89.84998
1225.939, 89.81547
1226.421, 89.54499
1226.903, 89.63865
1227.385, 90.26706
1227.868, 90.65520
1228.350, 90.23335
1228.832, 89.47585
1229.314, 89.02458
1229.796, 88.78816
1230.278, 88.59701
1230.760, 88.29240
1231.242, 88.51142
1231.724, 89.38689
1232.207, 90.16282
1232.689, 90.45162
1233.171, 90.32930
1233.653, 89.45104
1234.135, 88.39492
1234.617, 88.24128
1235.099, 89.59624
1235.581, 90.11368
1236.063, 89.67410
1236.546, 89.21394
1237.028, 89.50096
1237.510, 89.86361
1237.992, 89.49560
1238.474, 88.75282
1238.956, 88.17441
1239.438, 87.66188
1239.920, 88.06313
1240.403, 89.47155
1240.885, 90.40798
1241.367, 89.41708
1241.849, 88.06447
1242.331, 87.45908
1242.813, 87.51045
1243.295, 88.19678
1243.777, 89.77700
1244.260, 90.25945
1244.742, 89.64996
1245.224, 89.05541
1245.706, 89.17983
1246.188, 89.53690
1246.670, 89.92985
1247.152, 90.28461
1247.634, 90.56519
1248.116, 90.80254
1248.599, 90.35434
1249.081, 89.29519
1249.563, 88.72014
1250.045, 89.97667
1250.527, 91.09447
1251.009, 90.74580
1251.491, 89.92876
1251.973, 89.66954
1252.455, 89.93948
1252.938, 89.95670
1253.420, 89.77766
1253.902, 89.90337
1254.384, 91.48981
1254.866, 92.26994
1255.348, 90.61340
1255.830, 88.63026
1256.313, 88.31703
1256.795, 89.37571
1257.277, 90.02199
1257.759, 90.28643
1258.241, 90.42513
1258.723, 90.33031
1259.205, 90.47081
1259.687, 91.05169
1260.169, 91.68864
1260.651, 92.08205
1261.134, 92.25267
1261.616, 92.23866
1262.098, 92.05866
1262.580, 91.77687
1263.062, 91.36080
1263.544, 90.90245
1264.026, 90.35111
1264.508, 89.89566
1264.991, 89.67102
1265.473, 89.66788
1265.955, 90.00883
1266.437, 90.54556
1266.919, 90.88937
1267.401, 90.82688
1267.883, 90.77796
1268.365, 90.76694
1268.848, 90.70555
1269.330, 90.35634
1269.812, 90.05263
1270.294, 90.45152
1270.776, 91.17841
1271.258, 91.33728
1271.740, 90.55323
1272.222, 90.23698
1272.704, 90.43699
1273.187, 90.83339
1273.669, 91.40577
1274.151, 91.87646
1274.633, 91.94831
1275.115, 91.76934
1275.597, 91.59067
1276.079, 91.42794
1276.561, 91.20599
1277.043, 90.92882
1277.526, 90.67579
1278.008, 90.39037
1278.490, 90.27128
1278.972, 90.59309
1279.454, 91.03489
1279.936, 91.22918
1280.418, 91.57392
1280.900, 91.47702
1281.383, 92.02537
1281.865, 92.40548
1282.347, 92.40316
1282.829, 92.19138
1283.311, 91.66713
1283.793, 91.13914
1284.275, 90.81135
1284.757, 90.67600
1285.240, 90.77495
1285.722, 91.04408
1286.204, 91.27376
1286.686, 91.37742
1287.168, 91.44862
1287.650, 91.49694
1288.132, 91.53389
1288.614, 91.65380
1289.096, 91.70505
1289.578, 91.13637
1290.061, 90.31194
1290.543, 89.99649
1291.025, 90.63526
1291.507, 91.25906
1291.989, 91.92799
1292.471, 92.27596
1292.953, 91.88236
1293.435, 91.32862
1293.918, 91.23989
1294.400, 91.47708
1294.882, 91.93569
1295.364, 92.66618
1295.846, 92.82681
1296.328, 92.40665
1296.810, 92.20555
1297.292, 92.87365
1297.775, 93.37184
1298.257, 92.41673
1298.739, 91.35055
1299.221, 91.58784
1299.703, 92.92150
1300.185, 93.18035
1300.667, 92.51175
1301.149, 91.74474
1301.631, 91.08659
1302.114, 90.63016
1302.596, 90.52824
##END=



