##NAMES=Rosasite
##RRUFFID=R100077
##IDEAL CHEMISTRY=Cu^2+^Zn^2+^CO_3_(OH)_2_
##LOCALITY=79 mine, Hayden, Gila County, Arizona, USA
##OWNER=RRUFF
##SOURCE=Mark Ascher
##DESCRIPTION=Elongated, prismatic but curved, aqua blue crystals, associated with colorless hemimorphite and white granular smithsonite
##STATUS=The identification of this mineral has been confirmed by single-crystal X-ray diffraction.
##URL=rruff.info/R100077
91.53320, 134.5466
92.01532, 137.1440
92.49744, 137.7236
92.97955, 137.1700
93.46167, 135.0749
93.94379, 132.6997
94.42590, 131.3398
94.90802, 130.1876
95.39014, 127.9668
95.87225, 124.4919
96.35437, 120.9096
96.83649, 117.1807
97.31860, 113.8310
97.80072, 111.6229
98.28284, 111.1610
98.76495, 111.8162
99.24707, 110.9473
99.72919, 106.6118
100.2113, 102.9778
100.6934, 101.4689
101.1755, 101.4451
101.6577, 101.4917
102.1398, 100.2619
102.6219, 97.29388
103.1040, 95.52194
103.5861, 95.48240
104.0682, 95.81277
104.5504, 95.84527
105.0325, 95.44839
105.5146, 94.83542
105.9967, 94.29438
106.4788, 93.91644
106.9609, 93.32391
107.4431, 92.23255
107.9252, 90.97405
108.4073, 89.98035
108.8894, 89.37880
109.3715, 89.12624
109.8536, 89.19048
110.3358, 89.62048
110.8179, 90.05720
111.3000, 90.26295
111.7821, 90.26685
112.2642, 90.35591
112.7463, 90.67258
113.2285, 91.11592
113.7106, 91.55261
114.1927, 91.92242
114.6748, 92.38633
115.1569, 93.22751
115.6390, 94.65208
116.1212, 95.94298
116.6033, 96.59846
117.0854, 97.14156
117.5675, 98.14088
118.0496, 99.92735
118.5317, 102.3127
119.0139, 104.3849
119.4960, 106.1796
119.9781, 107.5434
120.4602, 108.1437
120.9423, 108.3075
121.4244, 108.5786
121.9066, 109.3925
122.3887, 110.8014
122.8708, 112.0551
123.3529, 113.2109
123.8350, 114.2152
124.3171, 115.0865
124.7993, 115.8035
125.2814, 116.2448
125.7635, 116.2067
126.2456, 115.5306
126.7277, 115.2596
127.2098, 115.6959
127.6920, 116.4152
128.1741, 116.9928
128.6562, 117.3388
129.1383, 117.5618
129.6204, 117.8768
130.1025, 118.2817
130.5847, 118.3658
131.0668, 117.7137
131.5489, 116.5540
132.0310, 115.6999
132.5131, 115.4340
132.9952, 115.4189
133.4774, 115.4177
133.9595, 115.4192
134.4416, 115.2724
134.9237, 114.7582
135.4058, 113.8024
135.8879, 112.9885
136.3701, 112.8244
136.8522, 112.5870
137.3343, 111.9065
137.8164, 110.6764
138.2985, 108.9596
138.7806, 106.7255
139.2628, 103.3036
139.7449, 100.6312
140.2270, 99.42280
140.7091, 98.65891
141.1912, 97.34469
141.6733, 95.04027
142.1555, 92.11707
142.6376, 89.88836
143.1197, 89.34365
143.6018, 88.43374
144.0839, 86.67142
144.5660, 84.43233
145.0482, 82.32299
145.5303, 80.70722
146.0124, 79.51730
146.4945, 78.20399
146.9766, 76.60469
147.4587, 75.07315
147.9409, 73.88651
148.4230, 72.95518
148.9051, 71.84875
149.3872, 70.16635
149.8693, 68.02969
150.3514, 66.21365
150.8336, 64.85430
151.3157, 63.74514
151.7978, 62.71621
152.2799, 61.75815
152.7620, 60.88178
153.2441, 60.14399
153.7263, 59.49158
154.2084, 58.83217
154.6905, 58.17059
155.1726, 57.48293
155.6547, 56.62822
156.1368, 55.34208
156.6190, 54.41143
157.1011, 54.39488
157.5832, 54.98022
158.0653, 55.57790
158.5474, 55.86342
159.0295, 55.84461
159.5117, 55.61008
159.9938, 54.80676
160.4759, 54.13056
160.9580, 53.85944
161.4401, 53.93153
161.9222, 54.15041
162.4044, 54.36370
162.8865, 54.58417
163.3686, 54.72345
163.8507, 54.78344
164.3328, 54.77036
164.8149, 54.61718
165.2971, 54.36020
165.7792, 54.12829
166.2613, 54.05419
166.7434, 54.10960
167.2255, 54.48063
167.7076, 55.50529
168.1898, 56.57268
168.6719, 57.21336
169.1540, 57.34905
169.6361, 57.26879
170.1182, 57.36703
170.6003, 57.70779
171.0825, 58.09537
171.5646, 58.58491
172.0467, 59.09290
172.5288, 59.51677
173.0109, 59.82277
173.4930, 60.06872
173.9752, 60.33661
174.4573, 60.61924
174.9394, 60.93812
175.4215, 61.37043
175.9036, 61.84455
176.3857, 62.20514
176.8679, 62.42163
177.3500, 62.47889
177.8321, 62.29164
178.3142, 61.81902
178.7963, 61.50425
179.2784, 61.77723
179.7606, 62.54741
180.2427, 63.04580
180.7248, 62.90058
181.2069, 62.53819
181.6890, 62.29101
182.1711, 62.18060
182.6533, 62.22514
183.1354, 62.54098
183.6175, 63.18862
184.0996, 63.62865
184.5817, 63.60817
185.0638, 63.41040
185.5460, 63.15100
186.0281, 62.85958
186.5102, 62.55499
186.9923, 62.27870
187.4744, 62.07658
187.9565, 61.77309
188.4387, 61.32146
188.9208, 60.79066
189.4029, 60.23220
189.8850, 59.65843
190.3671, 59.04902
190.8492, 58.32775
191.3314, 57.27925
191.8135, 56.50023
192.2956, 56.32129
192.7777, 56.25110
193.2598, 55.75303
193.7419, 54.63365
194.2241, 53.24728
194.7062, 52.45044
195.1883, 53.18718
195.6704, 53.44379
196.1525, 52.75378
196.6346, 51.69878
197.1168, 50.99474
197.5989, 50.96276
198.0810, 51.34310
198.5631, 51.38277
199.0452, 50.83201
199.5273, 50.29883
200.0095, 49.78881
200.4916, 49.36921
200.9737, 49.18398
201.4558, 49.33331
201.9379, 49.68416
202.4200, 49.87339
202.9022, 50.00500
203.3843, 49.87206
203.8664, 49.05895
204.3485, 47.87305
204.8306, 47.26993
205.3127, 47.90874
205.7949, 49.09958
206.2770, 49.27993
206.7591, 48.06065
207.2412, 46.78228
207.7233, 46.26617
208.2054, 46.40181
208.6876, 46.53337
209.1697, 46.44334
209.6518, 46.16602
210.1339, 45.79357
210.6160, 45.32927
211.0981, 44.77259
211.5803, 44.00066
212.0624, 43.01302
212.5445, 42.30711
213.0266, 42.28642
213.5087, 42.51031
213.9908, 42.53987
214.4730, 42.27829
214.9551, 42.01324
215.4372, 42.18428
215.9193, 42.91670
216.4014, 43.30737
216.8836, 42.65652
217.3657, 41.80900
217.8478, 41.31855
218.3299, 41.32235
218.8120, 41.57412
219.2941, 41.80714
219.7763, 42.09032
220.2584, 42.11153
220.7405, 41.63544
221.2226, 41.00642
221.7047, 40.37313
222.1868, 39.79043
222.6690, 39.36994
223.1511, 39.35981
223.6332, 40.06459
224.1153, 40.47922
224.5974, 40.45919
225.0795, 40.20034
225.5617, 39.78401
226.0438, 39.25049
226.5259, 38.67089
227.0080, 38.13540
227.4901, 37.47422
227.9722, 37.22015
228.4544, 37.77651
228.9365, 38.45020
229.4186, 38.64410
229.9007, 38.21401
230.3828, 37.50971
230.8649, 37.15223
231.3471, 37.50030
231.8292, 37.62749
232.3113, 37.37685
232.7934, 37.01775
233.2755, 36.79585
233.7576, 36.77154
234.2398, 36.78990
234.7219, 36.58517
235.2040, 35.89877
235.6861, 35.45497
236.1682, 35.49212
236.6503, 35.63730
237.1325, 35.51332
237.6146, 35.03004
238.0967, 34.42844
238.5788, 34.06404
239.0609, 34.03159
239.5430, 34.05932
240.0252, 34.14812
240.5073, 34.29081
240.9894, 34.59049
241.4715, 35.06994
241.9536, 35.39390
242.4357, 34.98076
242.9179, 33.54864
243.4000, 32.66901
243.8821, 32.97107
244.3642, 33.67615
244.8463, 33.88727
245.3284, 33.40992
245.8106, 32.76508
246.2927, 32.61356
246.7748, 32.98022
247.2569, 33.15845
247.7390, 33.05654
248.2211, 32.70770
248.7033, 32.07146
249.1854, 31.10748
249.6675, 30.10622
250.1496, 29.25300
250.6317, 28.55687
251.1138, 28.28237
251.5960, 28.85682
252.0781, 29.72620
252.5602, 30.20207
253.0423, 30.20584
253.5244, 29.90794
254.0065, 29.19865
254.4887, 28.25954
254.9708, 27.62859
255.4529, 27.75123
255.9350, 28.13380
256.4171, 27.94365
256.8992, 26.98777
257.3813, 26.23768
257.8635, 26.77245
258.3456, 27.96711
258.8277, 28.79186
259.3098, 28.82735
259.7919, 28.40900
260.2740, 27.93062
260.7562, 27.34751
261.2383, 26.89804
261.7204, 26.76462
262.2025, 26.83747
262.6846, 27.03437
263.1667, 27.41553
263.6489, 27.80885
264.1310, 27.97788
264.6131, 27.90382
265.0952, 27.68535
265.5773, 27.18909
266.0594, 26.64026
266.5416, 26.25664
267.0237, 26.11057
267.5058, 26.10915
267.9879, 26.12661
268.4700, 26.15032
268.9521, 26.25363
269.4343, 26.58425
269.9164, 26.94265
270.3985, 27.16768
270.8806, 27.21601
271.3627, 27.17948
271.8448, 27.21491
272.3270, 27.37776
272.8091, 27.32150
273.2912, 26.53770
273.7733, 25.77566
274.2554, 25.50710
274.7375, 25.81052
275.2197, 26.44378
275.7018, 27.39112
276.1839, 28.82777
276.6660, 29.41152
277.1481, 27.80344
277.6302, 26.09963
278.1124, 25.37165
278.5945, 25.66467
279.0766, 26.33603
279.5587, 26.87207
280.0408, 27.29602
280.5229, 27.39069
281.0051, 26.79154
281.4872, 26.14310
281.9693, 25.61918
282.4514, 25.26619
282.9335, 25.12535
283.4156, 25.26993
283.8978, 25.70526
284.3799, 26.17752
284.8620, 26.85341
285.3441, 27.38820
285.8262, 27.68468
286.3083, 27.74950
286.7905, 27.57647
287.2726, 27.05430
287.7547, 26.26599
288.2368, 26.06769
288.7189, 27.22654
289.2010, 28.07483
289.6832, 27.97883
290.1653, 27.32853
290.6474, 26.71462
291.1295, 26.47304
291.6116, 26.52623
292.0938, 26.55493
292.5759, 26.42105
293.0580, 26.47945
293.5401, 26.98928
294.0222, 27.63639
294.5043, 28.07556
294.9865, 28.15259
295.4686, 27.95612
295.9507, 27.65778
296.4328, 27.03323
296.9149, 26.73254
297.3970, 27.02474
297.8792, 27.51460
298.3613, 27.89265
298.8434, 28.05804
299.3255, 28.06569
299.8076, 27.98036
300.2897, 27.71265
300.7719, 27.55869
301.2540, 27.56653
301.7361, 27.64673
302.2182, 27.75310
302.7003, 27.87346
303.1824, 28.01163
303.6646, 28.15167
304.1467, 28.24444
304.6288, 28.52629
305.1109, 29.35876
305.5930, 30.05796
306.0751, 30.16584
306.5573, 29.79275
307.0394, 29.42621
307.5215, 29.53762
308.0036, 30.17306
308.4857, 30.62127
308.9678, 30.76348
309.4500, 30.82596
309.9321, 30.81864
310.4142, 30.78052
310.8963, 30.80437
311.3784, 30.99208
311.8605, 31.27708
312.3427, 31.11364
312.8248, 29.56721
313.3069, 28.68055
313.7890, 29.28849
314.2711, 30.61722
314.7532, 31.66951
315.2354, 31.94452
315.7175, 31.68342
316.1996, 31.58854
316.6817, 31.94630
317.1638, 31.99788
317.6459, 31.36633
318.1281, 30.58668
318.6102, 30.18353
319.0923, 30.30841
319.5744, 30.66059
320.0565, 30.72453
320.5386, 30.31322
321.0208, 30.04397
321.5029, 30.07681
321.9850, 30.13409
322.4671, 29.95952
322.9492, 29.57363
323.4313, 29.27123
323.9135, 29.43612
324.3956, 30.21338
324.8777, 30.71720
325.3598, 30.87803
325.8419, 30.83041
326.3240, 30.48067
326.8062, 29.94305
327.2883, 29.48987
327.7704, 29.37451
328.2525, 29.56370
328.7346, 29.44793
329.2167, 28.61686
329.6989, 27.93490
330.1810, 27.69112
330.6631, 27.70877
331.1452, 27.74685
331.6273, 27.69065
332.1094, 27.52133
332.5916, 27.14391
333.0737, 26.30712
333.5558, 25.70255
334.0379, 25.57708
334.5200, 25.63200
335.0021, 25.56530
335.4843, 25.28264
335.9664, 24.96646
336.4485, 25.00773
336.9306, 25.69908
337.4127, 25.85944
337.8948, 24.85882
338.3770, 23.71330
338.8591, 22.90368
339.3412, 22.52436
339.8233, 22.52563
340.3055, 23.01535
340.7876, 24.07817
341.2697, 24.76036
341.7518, 25.08259
342.2339, 24.93918
342.7160, 23.90151
343.1982, 22.34596
343.6803, 21.13053
344.1624, 20.92183
344.6445, 21.50576
345.1266, 21.79788
345.6087, 21.60903
346.0909, 21.42568
346.5730, 21.41331
347.0551, 21.49723
347.5372, 21.57132
348.0193, 21.58045
348.5014, 21.60448
348.9836, 21.85744
349.4657, 22.47850
349.9478, 22.85382
350.4299, 22.53848
350.9120, 22.09086
351.3941, 21.95016
351.8763, 22.19298
352.3584, 22.49621
352.8405, 22.52010
353.3226, 22.25725
353.8047, 21.97491
354.2868, 21.59631
354.7690, 21.33061
355.2511, 21.42688
355.7332, 21.78660
356.2153, 21.99777
356.6974, 21.64159
357.1795, 20.89692
357.6617, 20.46160
358.1438, 20.39122
358.6259, 20.54597
359.1080, 21.00505
359.5901, 21.59309
360.0722, 22.04463
360.5544, 22.31161
361.0365, 22.34692
361.5186, 21.99888
362.0007, 21.21552
362.4828, 20.45170
362.9649, 19.65862
363.4471, 19.13522
363.9292, 19.34104
364.4113, 20.48444
364.8934, 21.63118
365.3755, 22.04965
365.8576, 21.83581
366.3398, 21.47551
366.8219, 20.95488
367.3040, 20.50653
367.7861, 20.45630
368.2682, 20.75968
368.7503, 20.94320
369.2325, 20.66044
369.7146, 20.18446
370.1967, 20.00445
370.6788, 20.19212
371.1609, 20.49305
371.6430, 20.78741
372.1252, 21.04299
372.6073, 21.14702
373.0894, 20.89819
373.5715, 20.64053
374.0536, 20.74478
374.5357, 21.13558
375.0179, 21.31089
375.5000, 20.88859
375.9821, 20.23201
376.4642, 20.26314
376.9463, 21.35223
377.4284, 22.18262
377.9106, 22.05811
378.3927, 21.40270
378.8748, 20.90210
379.3569, 20.72921
379.8390, 20.81738
380.3211, 21.19429
380.8033, 21.97638
381.2854, 22.30108
381.7675, 21.53662
382.2496, 20.69977
382.7317, 20.71714
383.2138, 21.55429
383.6960, 22.42872
384.1781, 22.74047
384.6602, 22.53706
385.1423, 22.56846
385.6244, 23.33406
386.1065, 23.73788
386.5887, 23.07062
387.0708, 21.86126
387.5529, 21.01631
388.0350, 20.93776
388.5171, 21.35629
388.9992, 21.68783
389.4814, 21.96426
389.9635, 22.08032
390.4456, 21.89678
390.9277, 21.64788
391.4098, 21.48166
391.8919, 21.44043
392.3741, 21.53890
392.8562, 21.81358
393.3383, 22.30107
393.8204, 22.69237
394.3025, 23.09097
394.7846, 23.29689
395.2668, 23.11308
395.7489, 22.69919
396.2310, 22.33378
396.7131, 22.17629
397.1952, 22.19082
397.6773, 22.26942
398.1595, 22.55302
398.6416, 22.65634
399.1237, 22.27682
399.6058, 21.87146
400.0879, 21.87482
400.5700, 22.36793
401.0522, 23.03950
401.5343, 23.58605
402.0164, 24.03521
402.4985, 24.16457
402.9806, 23.68393
403.4627, 23.13001
403.9449, 22.57914
404.4270, 22.13202
404.9091, 22.02721
405.3912, 22.61459
405.8733, 23.55062
406.3554, 23.60036
406.8376, 22.24618
407.3197, 21.30498
407.8018, 22.02950
408.2839, 23.28307
408.7660, 23.89137
409.2481, 23.52198
409.7303, 22.82800
410.2124, 22.45481
410.6945, 22.37876
411.1766, 22.20647
411.6587, 21.79842
412.1408, 21.34052
412.6230, 20.89694
413.1051, 20.49848
413.5872, 20.42737
414.0693, 21.12977
414.5514, 22.11104
415.0335, 22.54614
415.5157, 22.35672
415.9978, 21.97370
416.4799, 21.54049
416.9620, 21.14828
417.4441, 21.05066
417.9262, 21.52618
418.4084, 21.93913
418.8905, 21.85500
419.3726, 21.42664
419.8547, 21.06503
420.3368, 20.93011
420.8189, 20.84335
421.3011, 20.44368
421.7832, 19.55966
422.2653, 19.10749
422.7474, 19.58177
423.2295, 20.26032
423.7116, 20.48947
424.1938, 20.25465
424.6759, 19.98230
425.1580, 20.02628
425.6401, 20.35660
426.1222, 20.40814
426.6043, 19.85287
427.0865, 19.44472
427.5686, 19.42597
428.0507, 19.64836
428.5328, 19.90852
429.0149, 20.12765
429.4970, 20.33987
429.9792, 20.63815
430.4613, 21.24475
430.9434, 21.42853
431.4255, 20.87243
431.9076, 20.25027
432.3897, 19.96786
432.8719, 19.97849
433.3540, 19.97329
433.8361, 19.68055
434.3182, 19.16809
434.8003, 18.94860
435.2824, 19.28039
435.7646, 19.51511
436.2467, 19.42929
436.7288, 19.20723
437.2109, 19.03797
437.6930, 18.98063
438.1751, 18.97728
438.6573, 19.01200
439.1394, 19.10190
439.6215, 18.94657
440.1036, 18.18343
440.5857, 17.53049
441.0678, 17.55407
441.5500, 18.10077
442.0321, 18.56948
442.5142, 18.57888
442.9963, 18.35050
443.4784, 18.30808
443.9605, 18.47983
444.4427, 18.62333
444.9248, 18.65745
445.4069, 18.56056
445.8890, 18.26105
446.3711, 17.61982
446.8532, 17.15485
447.3354, 17.33881
447.8175, 17.88495
448.2996, 18.16341
448.7817, 18.02259
449.2638, 17.67113
449.7459, 17.23618
450.2281, 16.71004
450.7102, 16.54827
451.1923, 17.13898
451.6744, 17.76883
452.1565, 18.15047
452.6386, 18.21020
453.1208, 17.65288
453.6029, 16.21007
454.0850, 14.43019
454.5671, 13.84673
455.0492, 15.97754
455.5313, 17.26404
456.0135, 16.98656
456.4956, 16.30757
456.9777, 16.21997
457.4598, 16.79998
457.9419, 17.41709
458.4240, 17.42793
458.9062, 16.81888
459.3883, 16.58879
459.8704, 17.26259
460.3525, 17.73292
460.8346, 17.63813
461.3167, 17.25043
461.7989, 16.89148
462.2810, 16.68063
462.7631, 16.60540
463.2452, 16.68048
463.7273, 16.93919
464.2094, 17.15054
464.6916, 17.28208
465.1737, 17.35771
465.6558, 17.38063
466.1379, 17.35858
466.6200, 17.31392
467.1021, 17.22446
467.5843, 17.13550
468.0664, 17.14643
468.5485, 17.26714
469.0306, 17.42351
469.5127, 17.64077
469.9948, 17.83735
470.4770, 17.88171
470.9591, 17.73764
471.4412, 17.56220
471.9233, 17.43974
472.4054, 17.33751
472.8875, 17.15775
473.3697, 16.87360
473.8518, 16.66842
474.3339, 16.73954
474.8160, 17.08715
475.2981, 17.33206
475.7802, 17.43910
476.2624, 17.48325
476.7445, 17.52713
477.2266, 17.52780
477.7087, 17.36361
478.1908, 16.98180
478.6729, 16.53489
479.1551, 16.30710
479.6372, 16.43107
480.1193, 16.46733
480.6014, 16.21553
481.0835, 16.06617
481.5656, 16.32873
482.0478, 16.89020
482.5299, 17.42059
483.0120, 17.70675
483.4941, 17.79027
483.9762, 17.80784
484.4583, 17.72725
484.9405, 17.64543
485.4226, 17.53408
485.9047, 17.46020
486.3868, 17.48630
486.8689, 17.61637
487.3510, 17.79486
487.8332, 18.02314
488.3153, 18.27188
488.7974, 18.40546
489.2795, 18.41679
489.7616, 18.31599
490.2437, 17.98139
490.7259, 17.56661
491.2080, 17.31571
491.6901, 17.32158
492.1722, 17.40265
492.6543, 17.39911
493.1364, 17.36542
493.6186, 17.51655
494.1007, 17.95895
494.5828, 18.37468
495.0649, 18.36210
495.5470, 17.86976
496.0291, 17.48482
496.5113, 17.11503
496.9934, 16.95868
497.4755, 17.38995
497.9576, 18.12458
498.4397, 18.42551
498.9218, 17.91654
499.4040, 16.99400
499.8861, 16.56895
500.3682, 17.13409
500.8503, 17.29368
501.3324, 16.70773
501.8145, 16.05599
502.2967, 15.74471
502.7788, 15.74961
503.2609, 15.83750
503.7430, 15.85501
504.2251, 15.82030
504.7072, 15.80877
505.1894, 15.84616
505.6715, 15.84675
506.1536, 15.61021
506.6357, 15.44571
507.1178, 15.66629
507.5999, 16.29122
508.0821, 16.95701
508.5642, 17.50021
509.0463, 17.87541
509.5284, 17.89852
510.0105, 17.49899
510.4926, 17.00296
510.9748, 16.52112
511.4569, 16.11294
511.9390, 15.91658
512.4211, 16.06346
512.9032, 16.19824
513.3853, 16.12416
513.8674, 15.92814
514.3495, 15.74938
514.8317, 15.61784
515.3138, 15.52789
515.7959, 15.49734
516.2780, 15.53989
516.7601, 15.39985
517.2422, 14.72519
517.7244, 14.29072
518.2065, 14.47248
518.6886, 15.01820
519.1707, 15.67729
519.6528, 16.33092
520.1349, 16.74682
520.6171, 16.45064
521.0992, 15.15769
521.5813, 14.31416
522.0634, 14.11193
522.5455, 14.20611
523.0276, 14.66965
523.5098, 15.31472
523.9919, 15.82896
524.4740, 16.08231
524.9561, 16.13390
525.4382, 16.08859
525.9203, 15.94847
526.4025, 15.53122
526.8846, 14.55439
527.3667, 13.61249
527.8488, 13.33150
528.3309, 13.62042
528.8130, 13.92583
529.2952, 14.12667
529.7773, 14.24494
530.2594, 14.19029
530.7415, 14.03753
531.2236, 14.19046
531.7057, 14.91365
532.1879, 15.78239
532.6700, 15.94544
533.1521, 14.95440
533.6342, 14.25649
534.1163, 13.91158
534.5984, 13.83856
535.0806, 14.14965
535.5627, 14.69772
536.0448, 15.13374
536.5269, 15.23718
537.0090, 15.09574
537.4911, 14.98168
537.9733, 14.97102
538.4554, 14.81275
538.9375, 14.15230
539.4196, 13.60901
539.9017, 13.66091
540.3839, 14.22517
540.8660, 14.82183
541.3481, 15.25163
541.8302, 15.44737
542.3123, 15.07109
542.7944, 14.01220
543.2766, 13.38486
543.7587, 13.86106
544.2408, 14.81212
544.7229, 15.33758
545.2050, 15.41436
545.6871, 15.33250
546.1693, 15.01347
546.6514, 14.69308
547.1335, 14.68754
547.6156, 14.96909
548.0977, 15.23470
548.5798, 15.30501
549.0620, 15.21837
549.5441, 15.10459
550.0262, 14.90004
550.5083, 14.75472
550.9904, 14.74503
551.4725, 14.73699
551.9547, 14.60924
552.4368, 14.37940
552.9189, 14.15683
553.4010, 14.02625
553.8831, 13.96385
554.3652, 13.84518
554.8474, 13.56333
555.3295, 13.49765
555.8116, 14.10194
556.2937, 14.71096
556.7758, 14.76268
557.2579, 14.26109
557.7401, 13.76320
558.2222, 13.57621
558.7043, 13.60935
559.1864, 13.82355
559.6685, 14.21711
560.1506, 14.29528
560.6328, 13.67923
561.1149, 12.73330
561.5970, 12.28385
562.0791, 12.47328
562.5612, 12.59341
563.0433, 12.24171
563.5255, 11.97281
564.0076, 12.45287
564.4897, 13.51568
564.9718, 14.36196
565.4539, 14.46382
565.9360, 14.03411
566.4182, 13.78695
566.9003, 13.81699
567.3824, 13.85378
567.8645, 13.84366
568.3466, 13.86242
568.8287, 14.05152
569.3109, 14.33088
569.7930, 14.40497
570.2751, 13.97620
570.7572, 13.34746
571.2393, 13.22618
571.7214, 13.66109
572.2036, 14.02517
572.6857, 14.18465
573.1678, 14.11204
573.6499, 13.63327
574.1320, 12.76243
574.6141, 12.23834
575.0963, 12.52591
575.5784, 13.03402
576.0605, 13.28175
576.5426, 13.30458
577.0247, 13.27874
577.5068, 13.27221
577.9890, 13.33634
578.4711, 13.60031
578.9532, 14.29628
579.4353, 14.58357
579.9174, 14.08017
580.3995, 13.60298
580.8817, 13.56939
581.3638, 13.85090
581.8459, 14.19714
582.3280, 14.50911
582.8101, 14.68200
583.2922, 14.41693
583.7744, 13.65917
584.2565, 13.31923
584.7386, 13.79010
585.2207, 14.30902
585.7029, 14.31069
586.1850, 13.94470
586.6671, 13.56893
587.1492, 13.19220
587.6313, 12.93116
588.1135, 12.85329
588.5956, 12.95653
589.0777, 13.35794
589.5598, 14.10018
590.0419, 14.68620
590.5240, 14.50062
591.0062, 13.48871
591.4883, 13.00341
591.9704, 13.50398
592.4525, 13.90725
592.9346, 13.94151
593.4167, 13.74048
593.8989, 13.38070
594.3810, 12.92619
594.8631, 12.56919
595.3452, 12.49555
595.8273, 12.69990
596.3094, 13.19724
596.7916, 14.26114
597.2737, 14.99808
597.7558, 14.68048
598.2379, 14.00581
598.7200, 13.67848
599.2021, 13.78855
599.6843, 14.08106
600.1664, 14.70473
600.6485, 15.29734
601.1306, 15.16807
601.6127, 14.36213
602.0948, 13.74394
602.5770, 13.85013
603.0591, 14.41332
603.5412, 14.70181
604.0233, 14.61481
604.5054, 14.38880
604.9875, 13.91190
605.4697, 13.39522
605.9518, 12.86488
606.4339, 12.41184
606.9160, 12.25424
607.3981, 12.54893
607.8802, 13.03604
608.3624, 13.17921
608.8445, 12.93069
609.3266, 12.70288
609.8087, 12.50973
610.2908, 12.41966
610.7729, 12.47944
611.2551, 12.67322
611.7372, 12.96746
612.2193, 13.43189
612.7014, 13.89649
613.1835, 14.39340
613.6656, 14.77855
614.1478, 14.61233
614.6299, 13.79272
615.1120, 12.87759
615.5941, 12.39167
616.0762, 12.33568
616.5583, 12.65933
617.0405, 13.94344
617.5226, 14.87998
618.0047, 15.05666
618.4868, 14.91373
618.9689, 14.85694
619.4510, 14.95858
619.9332, 15.07319
620.4153, 15.06486
620.8974, 14.97503
621.3795, 15.00044
621.8616, 15.19847
622.3438, 15.18464
622.8259, 14.63709
623.3080, 13.96562
623.7901, 13.76268
624.2722, 14.05379
624.7543, 14.26008
625.2365, 14.15569
625.7186, 13.96706
626.2007, 13.83894
626.6828, 13.78312
627.1649, 13.82874
627.6470, 13.99105
628.1292, 14.16374
628.6113, 14.14609
629.0934, 13.83444
629.5755, 13.76701
630.0576, 14.34472
630.5397, 14.73962
631.0219, 14.53544
631.5040, 14.06905
631.9861, 13.83230
632.4682, 13.97275
632.9503, 14.17677
633.4324, 14.21896
633.9146, 14.09424
634.3967, 13.60547
634.8788, 12.65099
635.3609, 12.23657
635.8430, 13.24889
636.3251, 15.04971
636.8073, 15.71080
637.2894, 14.74221
637.7715, 14.01068
638.2536, 13.92976
638.7357, 14.07636
639.2178, 14.13235
639.7000, 14.12490
640.1821, 14.28974
640.6642, 14.77703
641.1463, 15.31436
641.6284, 15.27799
642.1105, 14.52393
642.5927, 13.94974
643.0748, 13.52133
643.5569, 13.44400
644.0390, 14.18416
644.5211, 15.26368
645.0032, 15.65047
645.4854, 14.85388
645.9675, 13.93988
646.4496, 13.60092
646.9317, 13.63974
647.4138, 13.74316
647.8959, 13.85268
648.3781, 13.90350
648.8602, 13.82328
649.3423, 13.66733
649.8244, 13.70466
650.3065, 14.20272
650.7886, 14.49185
651.2708, 14.26287
651.7529, 14.07445
652.2350, 14.43375
652.7171, 15.16399
653.1992, 15.68646
653.6813, 15.67234
654.1635, 15.36738
654.6456, 15.08295
655.1277, 14.82550
655.6098, 14.69789
656.0919, 14.75828
656.5740, 14.83820
657.0562, 14.75983
657.5383, 14.56224
658.0204, 14.52134
658.5025, 14.83562
658.9846, 15.05857
659.4667, 14.92832
659.9489, 14.72388
660.4310, 14.89888
660.9131, 15.37228
661.3952, 15.47548
661.8773, 14.61637
662.3594, 13.21279
662.8416, 12.73376
663.3237, 13.49000
663.8058, 14.00940
664.2879, 13.74756
664.7700, 13.47730
665.2521, 13.82327
665.7343, 14.62438
666.2164, 15.33095
666.6985, 15.92713
667.1806, 16.20639
667.6627, 15.75161
668.1448, 14.94714
668.6270, 14.57311
669.1091, 14.76711
669.5912, 15.10294
670.0733, 15.23680
670.5554, 15.17174
671.0375, 14.89574
671.5197, 13.92863
672.0018, 13.56235
672.4839, 14.43618
672.9660, 15.46958
673.4481, 15.98132
673.9302, 15.98682
674.4124, 15.77697
674.8945, 15.41752
675.3766, 15.03596
675.8587, 14.76739
676.3408, 14.61183
676.8229, 14.59757
677.3051, 14.74913
677.7872, 14.91693
678.2693, 14.95004
678.7514, 14.86944
679.2335, 14.92038
679.7156, 15.15969
680.1978, 15.44058
680.6799, 15.90795
681.1620, 16.28665
681.6441, 16.22648
682.1262, 15.83361
682.6083, 15.57443
683.0905, 15.77663
683.5726, 16.19061
684.0547, 16.37150
684.5368, 16.31892
685.0189, 16.07528
685.5010, 15.52709
685.9832, 15.06921
686.4653, 15.09669
686.9474, 15.51909
687.4295, 15.83359
687.9116, 15.96096
688.3937, 16.07139
688.8759, 16.18606
689.3580, 16.32582
689.8401, 16.63611
690.3222, 17.02173
690.8043, 17.05856
691.2864, 16.40875
691.7686, 15.46582
692.2507, 15.24631
692.7328, 15.88235
693.2149, 16.40060
693.6970, 16.62834
694.1791, 16.77773
694.6613, 17.04675
695.1434, 17.34234
695.6255, 17.42244
696.1076, 17.08664
696.5897, 16.86734
697.0718, 17.18664
697.5540, 17.64969
698.0361, 17.78050
698.5182, 17.56284
699.0003, 17.18482
699.4824, 16.73984
699.9645, 16.33251
700.4467, 16.29440
700.9288, 16.82101
701.4109, 16.96509
701.8930, 16.22528
702.3751, 15.65065
702.8572, 15.96554
703.3394, 16.71327
703.8215, 17.10460
704.3036, 16.91544
704.7857, 16.62545
705.2678, 16.50503
705.7499, 16.45029
706.2321, 16.29995
706.7142, 16.06668
707.1963, 15.87775
707.6784, 15.79576
708.1605, 15.81426
708.6426, 15.95813
709.1248, 16.34747
709.6069, 16.42154
710.0890, 15.65413
710.5711, 15.19833
711.0532, 15.98336
711.5353, 17.05281
712.0175, 16.95086
712.4996, 15.33851
712.9817, 13.93487
713.4638, 14.05220
713.9459, 14.85720
714.4280, 15.20540
714.9102, 15.13198
715.3923, 15.13209
715.8744, 15.42526
716.3565, 15.76139
716.8386, 15.72548
717.3207, 15.21075
717.8029, 15.10078
718.2850, 15.78569
718.7671, 16.40266
719.2492, 16.88469
719.7313, 17.12905
720.2134, 16.90484
720.6956, 16.25212
721.1777, 15.71901
721.6598, 15.73531
722.1419, 15.97379
722.6240, 16.02944
723.1061, 15.93899
723.5883, 15.84590
724.0704, 15.79091
724.5525, 15.76825
725.0346, 15.78518
725.5167, 15.83785
725.9988, 15.78314
726.4810, 15.32020
726.9631, 15.19361
727.4452, 15.89274
727.9273, 16.62017
728.4094, 16.74404
728.8915, 16.33247
729.3737, 15.81047
729.8558, 15.22100
730.3379, 14.86320
730.8200, 15.34541
731.3021, 16.29268
731.7842, 16.54237
732.2664, 15.90453
732.7485, 15.26019
733.2306, 15.29124
733.7127, 15.81870
734.1948, 16.13505
734.6769, 16.11560
735.1591, 16.10843
735.6412, 16.18623
736.1233, 16.21463
736.6054, 16.03799
737.0875, 15.78403
737.5696, 15.72674
738.0518, 15.98965
738.5339, 16.22761
739.0160, 15.99521
739.4981, 15.61709
739.9802, 15.81352
740.4623, 16.55120
740.9445, 17.11431
741.4266, 17.13066
741.9087, 16.84314
742.3908, 16.68269
742.8729, 16.68359
743.3550, 16.66171
743.8372, 16.66158
744.3193, 16.58109
744.8014, 16.27492
745.2835, 15.94360
745.7656, 15.83540
746.2477, 15.97279
746.7299, 16.11349
747.2120, 16.11864
747.6941, 16.06285
748.1762, 15.96013
748.6583, 15.86734
749.1404, 15.98655
749.6226, 16.37189
750.1047, 16.84838
750.5868, 17.26437
751.0689, 17.60563
751.5510, 17.72557
752.0331, 17.57025
752.5153, 17.29423
752.9974, 16.70156
753.4795, 16.18703
753.9616, 15.99109
754.4437, 16.08361
754.9258, 16.35913
755.4080, 16.92555
755.8901, 17.39679
756.3722, 17.38264
756.8543, 17.16795
757.3364, 17.27682
757.8185, 17.67476
758.3007, 17.81679
758.7828, 17.35033
759.2649, 16.57081
759.7470, 16.11806
760.2291, 16.05523
760.7112, 15.99232
761.1934, 15.83808
761.6755, 15.81306
762.1576, 16.26833
762.6397, 16.79395
763.1218, 16.74872
763.6039, 15.98941
764.0861, 15.52526
764.5682, 16.06057
765.0503, 16.69179
765.5324, 16.58266
766.0145, 16.06763
766.4966, 15.88146
766.9788, 16.21666
767.4609, 16.70037
767.9430, 16.97823
768.4251, 17.07221
768.9072, 17.02498
769.3893, 16.75399
769.8715, 16.82888
770.3536, 17.70563
770.8357, 18.51889
771.3178, 18.30487
771.7999, 17.27296
772.2820, 16.50329
772.7642, 15.99936
773.2463, 15.84191
773.7284, 16.33708
774.2105, 16.96740
774.6926, 17.41663
775.1747, 17.57677
775.6569, 17.18786
776.1390, 16.05547
776.6211, 14.96740
777.1032, 15.16473
777.5853, 16.41681
778.0674, 17.52003
778.5496, 18.43418
779.0317, 18.76909
779.5138, 18.18045
779.9959, 17.13342
780.4780, 16.40611
780.9601, 16.01733
781.4423, 15.90983
781.9244, 16.34085
782.4065, 16.72710
782.8886, 16.86898
783.3707, 16.88077
783.8528, 16.90109
784.3350, 16.93995
784.8171, 16.89247
785.2992, 16.55031
785.7813, 16.25109
786.2634, 16.64702
786.7455, 17.46192
787.2277, 17.71063
787.7098, 17.20497
788.1919, 16.58310
788.6740, 16.32445
789.1561, 16.37239
789.6382, 16.53798
790.1204, 16.87409
790.6025, 17.19967
791.0846, 17.61876
791.5667, 17.89579
792.0488, 17.93009
792.5309, 17.75952
793.0131, 17.34965
793.4952, 16.62463
793.9773, 16.19847
794.4594, 16.58995
794.9415, 17.21019
795.4236, 17.57282
795.9058, 17.70436
796.3879, 17.77484
796.8700, 17.82510
797.3521, 17.66863
797.8342, 16.99599
798.3163, 15.99701
798.7985, 15.75797
799.2806, 16.43844
799.7627, 16.93607
800.2448, 16.92974
800.7269, 16.79562
801.2090, 16.81502
801.6912, 16.98214
802.1733, 17.23782
802.6554, 17.70464
803.1375, 18.06457
803.6196, 18.35991
804.1017, 18.43755
804.5839, 17.85052
805.0660, 17.02732
805.5481, 16.98418
806.0302, 18.10267
806.5123, 19.24823
806.9944, 19.19062
807.4766, 18.33905
807.9587, 17.46145
808.4408, 16.63929
808.9229, 16.55118
809.4050, 17.54096
809.8871, 18.74997
810.3693, 19.16303
810.8514, 18.78482
811.3335, 18.25169
811.8156, 17.29666
812.2977, 16.63351
812.7798, 16.63047
813.2620, 16.70081
813.7441, 16.33412
814.2262, 15.72808
814.7083, 15.49377
815.1904, 15.88471
815.6725, 16.43818
816.1547, 17.00812
816.6368, 17.52784
817.1189, 17.93391
817.6010, 18.22060
818.0831, 18.39879
818.5652, 18.47251
819.0474, 18.40444
819.5295, 18.00948
820.0116, 17.37502
820.4937, 17.45415
820.9758, 18.42567
821.4579, 18.98821
821.9401, 18.53323
822.4222, 17.87422
822.9043, 17.99894
823.3864, 18.85223
823.8685, 19.01838
824.3506, 17.50074
824.8328, 16.72251
825.3149, 17.80501
825.7970, 19.07257
826.2791, 19.24672
826.7612, 18.62252
827.2433, 18.09171
827.7255, 17.96044
828.2076, 18.07869
828.6897, 18.49735
829.1718, 18.99180
829.6539, 19.12296
830.1360, 18.95527
830.6182, 18.92768
831.1003, 19.20820
831.5824, 19.44135
832.0645, 19.14908
832.5466, 18.39555
833.0287, 18.00560
833.5109, 18.05651
833.9930, 18.26686
834.4751, 18.79378
834.9572, 19.20458
835.4393, 18.97390
835.9214, 18.34317
836.4036, 18.03004
836.8857, 18.26229
837.3678, 18.45969
837.8499, 18.37554
838.3320, 18.30711
838.8141, 18.59613
839.2963, 19.02252
839.7784, 19.12374
840.2605, 18.77152
840.7426, 18.34738
841.2247, 18.17414
841.7068, 18.16987
842.1890, 18.24112
842.6711, 18.35342
843.1532, 18.22510
843.6353, 17.76928
844.1174, 17.50433
844.5995, 17.95200
845.0817, 18.90125
845.5638, 19.37566
846.0459, 19.22762
846.5280, 19.00576
847.0101, 18.63431
847.4922, 18.34375
847.9744, 18.24402
848.4565, 18.29936
848.9386, 18.53114
849.4207, 18.99974
849.9028, 19.20725
850.3849, 18.76514
850.8671, 18.29748
851.3492, 18.19269
851.8313, 18.27893
852.3134, 18.34898
852.7955, 18.34154
853.2776, 18.21695
853.7598, 17.89124
854.2419, 17.56136
854.7240, 17.53516
855.2061, 17.76525
855.6882, 18.15855
856.1703, 18.69147
856.6525, 18.95686
857.1346, 18.70212
857.6167, 18.12796
858.0988, 17.55727
858.5809, 16.91864
859.0630, 16.79165
859.5452, 17.49394
860.0273, 18.14504
860.5094, 18.60888
860.9915, 18.80520
861.4736, 18.47305
861.9557, 17.74047
862.4379, 17.37173
862.9200, 17.79680
863.4021, 18.18895
863.8842, 18.21658
864.3663, 18.12993
864.8484, 18.17208
865.3306, 18.28244
865.8127, 18.25882
866.2948, 18.02532
866.7769, 17.71286
867.2590, 17.36038
867.7411, 17.05913
868.2233, 17.11828
868.7054, 17.44845
869.1875, 17.52791
869.6696, 17.20580
870.1517, 16.67659
870.6339, 16.06071
871.1160, 15.46516
871.5981, 15.44533
872.0802, 16.23000
872.5623, 16.75724
873.0444, 16.82907
873.5266, 16.78860
874.0087, 16.73989
874.4908, 16.73894
874.9729, 16.91529
875.4550, 17.31859
875.9371, 17.61361
876.4193, 17.80162
876.9014, 17.81798
877.3835, 17.54452
877.8656, 17.14501
878.3477, 16.65152
878.8298, 16.18291
879.3120, 16.12674
879.7941, 16.85565
880.2762, 17.58321
880.7583, 17.36268
881.2404, 16.70079
881.7225, 16.50363
882.2047, 16.76781
882.6868, 17.11556
883.1689, 17.38185
883.6510, 17.44235
884.1331, 17.07468
884.6152, 16.35443
885.0974, 15.86042
885.5795, 15.60777
886.0616, 15.49015
886.5437, 15.49730
887.0258, 15.60085
887.5079, 15.78950
887.9901, 16.05422
888.4722, 16.37386
888.9543, 16.99650
889.4364, 17.19423
889.9185, 16.66254
890.4006, 16.06981
890.8828, 15.59941
891.3649, 15.25830
891.8470, 14.98492
892.3291, 14.79399
892.8112, 14.90703
893.2933, 15.82971
893.7755, 16.60998
894.2576, 16.51591
894.7397, 16.02448
895.2218, 15.63932
895.7039, 15.44318
896.1860, 15.47419
896.6682, 15.76666
897.1503, 15.92476
897.6324, 15.23384
898.1145, 14.06716
898.5966, 13.54930
899.0787, 13.66271
899.5609, 13.93675
900.0430, 14.23215
900.5251, 14.56220
901.0072, 14.94178
901.4893, 15.36555
901.9714, 15.86241
902.4536, 16.59284
902.9357, 16.74636
903.4178, 15.84457
903.8999, 15.10732
904.3820, 15.51924
904.8641, 16.29809
905.3463, 15.93911
905.8284, 14.24866
906.3105, 13.10619
906.7926, 12.92510
907.2747, 12.94958
907.7568, 13.10170
908.2390, 13.23868
908.7211, 13.20190
909.2032, 13.04788
909.6853, 12.98268
910.1674, 13.10463
910.6495, 13.22001
911.1317, 13.06253
911.6138, 12.93736
912.0959, 13.35130
912.5780, 14.05448
913.0601, 14.34818
913.5422, 14.09742
914.0244, 13.91425
914.5065, 14.40568
914.9886, 15.17210
915.4707, 15.38181
915.9528, 15.08936
916.4349, 14.52328
916.9171, 13.70939
917.3992, 13.15579
917.8813, 13.16291
918.3634, 13.49208
918.8455, 13.76366
919.3276, 13.97792
919.8098, 14.13403
920.2919, 14.23250
920.7740, 14.27937
921.2561, 14.33356
921.7382, 14.25799
922.2203, 13.73723
922.7025, 12.98665
923.1846, 12.87165
923.6667, 13.86822
924.1488, 14.45567
924.6309, 14.17560
925.1130, 13.82149
925.5952, 13.80791
926.0773, 13.89134
926.5594, 13.62784
927.0415, 13.06438
927.5236, 12.90261
928.0057, 13.86090
928.4879, 14.67392
928.9700, 14.33138
929.4521, 13.52129
929.9342, 12.93271
930.4163, 12.62750
930.8984, 12.51187
931.3806, 12.54529
931.8627, 12.67063
932.3448, 12.86404
932.8269, 13.09019
933.3090, 13.29209
933.7911, 13.46346
934.2733, 13.56564
934.7554, 13.59364
935.2375, 13.61757
935.7196, 13.70168
936.2017, 13.72771
936.6838, 13.29004
937.1660, 12.32693
937.6481, 12.28804
938.1302, 13.45862
938.6123, 14.28781
939.0944, 14.20340
939.5765, 13.70957
940.0587, 13.23394
940.5408, 12.79655
941.0229, 12.57281
941.5050, 12.71048
941.9871, 12.79138
942.4692, 12.95166
942.9514, 12.88147
943.4335, 12.05697
943.9156, 11.15878
944.3977, 11.12505
944.8798, 11.99555
945.3619, 12.87648
945.8441, 14.00822
946.3262, 14.56030
946.8083, 13.64752
947.2904, 12.54618
947.7725, 12.41342
948.2546, 12.95706
948.7368, 13.33535
949.2189, 13.29457
949.7010, 13.11397
950.1831, 12.80667
950.6652, 12.60131
951.1473, 12.92437
951.6295, 13.43547
952.1116, 13.52034
952.5937, 13.12286
953.0758, 12.43970
953.5579, 11.52269
954.0400, 10.88546
954.5222, 11.59641
955.0043, 13.07291
955.4864, 13.51490
955.9685, 12.98255
956.4506, 12.34154
956.9327, 11.85256
957.4149, 11.68004
957.8970, 12.02775
958.3791, 12.67639
958.8612, 12.96765
959.3433, 12.88647
959.8254, 12.59030
960.3076, 12.00094
960.7897, 11.61011
961.2718, 11.69245
961.7539, 11.93881
962.2360, 11.97053
962.7181, 11.79460
963.2003, 11.55337
963.6824, 11.05460
964.1645, 10.89787
964.6466, 11.43689
965.1287, 11.95748
965.6108, 12.05058
966.0930, 11.90394
966.5751, 11.72911
967.0572, 11.50684
967.5393, 11.53078
968.0214, 12.25194
968.5035, 12.65997
968.9857, 12.05695
969.4678, 11.42661
969.9499, 11.60777
970.4320, 12.34110
970.9141, 13.01675
971.3962, 13.52681
971.8784, 13.64279
972.3605, 12.84548
972.8426, 12.05991
973.3247, 12.13757
973.8068, 12.47274
974.2889, 12.14195
974.7711, 11.25498
975.2532, 10.66126
975.7353, 10.76916
976.2174, 11.13729
976.6995, 11.47359
977.1816, 11.75435
977.6638, 11.95023
978.1459, 12.06182
978.6280, 12.04490
979.1101, 11.92340
979.5922, 11.87895
980.0743, 12.04429
980.5565, 12.32930
981.0386, 12.74530
981.5207, 13.14734
982.0028, 12.86516
982.4849, 11.95515
982.9670, 11.12584
983.4492, 10.61529
983.9313, 10.67656
984.4134, 11.70089
984.8955, 13.19444
985.3776, 13.43925
985.8597, 12.38758
986.3419, 11.63512
986.8240, 11.31549
987.3061, 11.25384
987.7882, 11.44463
988.2703, 11.65556
988.7524, 11.59794
989.2346, 11.29575
989.7167, 10.97685
990.1988, 10.52357
990.6809, 10.42836
991.1630, 10.87929
991.6451, 11.42901
992.1273, 11.90962
992.6094, 12.31619
993.0915, 12.64216
993.5736, 12.88651
994.0557, 13.05998
994.5378, 13.32726
995.0200, 13.27361
995.5021, 12.52079
995.9842, 11.79959
996.4663, 11.34984
996.9484, 11.25085
997.4305, 11.81866
997.9127, 13.16879
998.3948, 13.86357
998.8769, 13.14840
999.3590, 12.44582
999.8411, 12.20151
1000.323, 12.12255
1000.805, 11.95041
1001.287, 11.76894
1001.770, 11.89131
1002.252, 12.41909
1002.734, 12.58818
1003.216, 11.54318
1003.698, 10.67797
1004.180, 11.06808
1004.662, 11.87504
1005.144, 12.19692
1005.627, 12.08844
1006.109, 12.04085
1006.591, 12.23436
1007.073, 12.29554
1007.555, 11.63591
1008.037, 11.04012
1008.519, 11.55815
1009.001, 12.51103
1009.483, 12.69681
1009.966, 12.17831
1010.448, 11.86032
1010.930, 12.17599
1011.412, 12.62796
1011.894, 12.62346
1012.376, 12.50160
1012.858, 12.97808
1013.340, 13.73718
1013.823, 13.88052
1014.305, 13.35000
1014.787, 12.79854
1015.269, 12.60171
1015.751, 12.53575
1016.233, 12.38255
1016.715, 12.09935
1017.197, 11.34213
1017.679, 10.30114
1018.162, 9.959682
1018.644, 10.49408
1019.126, 11.24955
1019.608, 11.80500
1020.090, 12.21831
1020.572, 12.61943
1021.054, 12.97785
1021.536, 13.05363
1022.018, 12.85368
1022.501, 12.58329
1022.983, 12.27773
1023.465, 12.21825
1023.947, 12.67158
1024.429, 13.27369
1024.911, 13.15101
1025.393, 12.27963
1025.875, 11.82212
1026.358, 11.80263
1026.840, 12.08054
1027.322, 12.72580
1027.804, 13.13102
1028.286, 12.71511
1028.768, 11.92692
1029.250, 11.97960
1029.732, 13.04446
1030.214, 13.57733
1030.697, 13.39875
1031.179, 13.34460
1031.661, 13.78428
1032.143, 14.03288
1032.625, 13.44315
1033.107, 12.34740
1033.589, 11.67346
1034.071, 11.44151
1034.553, 11.59404
1035.036, 12.49077
1035.518, 12.95841
1036.000, 12.37112
1036.482, 11.76054
1036.964, 12.09828
1037.446, 12.97149
1037.928, 13.10752
1038.410, 12.16015
1038.893, 11.69998
1039.375, 12.00983
1039.857, 12.35630
1040.339, 12.52117
1040.821, 12.71877
1041.303, 13.29290
1041.785, 14.00049
1042.267, 14.11338
1042.750, 13.47337
1043.232, 12.77484
1043.714, 11.59469
1044.196, 10.94136
1044.678, 11.34562
1045.160, 12.07456
1045.642, 12.81446
1046.124, 13.42375
1046.606, 13.55616
1047.089, 13.06627
1047.571, 12.63457
1048.053, 12.07596
1048.535, 11.92759
1049.017, 12.73568
1049.499, 13.63520
1049.981, 14.01557
1050.463, 13.97332
1050.945, 13.71595
1051.428, 13.19826
1051.910, 12.92090
1052.392, 13.27121
1052.874, 13.48353
1053.356, 13.01468
1053.838, 12.59744
1054.320, 13.17118
1054.802, 14.10433
1055.285, 13.86816
1055.767, 12.09663
1056.249, 11.04268
1056.731, 11.82337
1057.213, 12.71869
1057.695, 13.23153
1058.177, 13.49720
1058.659, 13.52261
1059.141, 13.42896
1059.624, 13.46400
1060.106, 13.66990
1060.588, 13.64589
1061.070, 12.85006
1061.552, 12.35474
1062.034, 12.71245
1062.516, 13.40798
1062.998, 14.30078
1063.480, 15.12454
1063.963, 15.40756
1064.445, 15.10914
1064.927, 14.91871
1065.409, 15.17060
1065.891, 15.46612
1066.373, 15.59619
1066.855, 15.75428
1067.337, 16.08529
1067.820, 16.54782
1068.302, 17.08931
1068.784, 17.68758
1069.266, 18.28412
1069.748, 18.95736
1070.230, 19.44385
1070.712, 19.43838
1071.194, 19.39596
1071.677, 19.73606
1072.159, 20.21899
1072.641, 20.46107
1073.123, 20.44882
1073.605, 20.42423
1074.087, 20.39180
1074.569, 20.55950
1075.051, 21.21119
1075.533, 21.90105
1076.016, 22.54204
1076.498, 22.87988
1076.980, 22.30320
1077.462, 21.09161
1077.944, 20.57335
1078.426, 21.44670
1078.908, 22.12899
1079.390, 21.55134
1079.873, 20.91256
1080.355, 21.06359
1080.837, 21.55017
1081.319, 22.03768
1081.801, 22.31839
1082.283, 21.93039
1082.765, 20.61728
1083.247, 19.42592
1083.729, 18.70623
1084.212, 18.39214
1084.694, 18.92184
1085.176, 19.45533
1085.658, 18.98044
1086.140, 17.82961
1086.622, 16.99824
1087.104, 16.73722
1087.586, 16.36910
1088.068, 15.32208
1088.551, 14.46479
1089.033, 14.37387
1089.515, 14.52670
1089.997, 14.60842
1090.479, 14.52528
1090.961, 14.09478
1091.443, 13.31660
1091.925, 12.75252
1092.408, 12.67739
1092.890, 12.76732
1093.372, 13.19705
1093.854, 13.43437
1094.336, 12.72685
1094.818, 11.77574
1095.300, 11.89882
1095.782, 13.01683
1096.265, 13.32590
1096.747, 11.73006
1097.229, 10.38579
1097.711, 10.05255
1098.193, 10.12758
1098.675, 10.57356
1099.157, 11.01049
1099.639, 10.92079
1100.121, 10.42260
1100.604, 10.18144
1101.086, 10.45498
1101.568, 10.61821
1102.050, 10.30674
1102.532, 10.10452
1103.014, 10.58100
1103.496, 11.00832
1103.978, 10.53495
1104.460, 9.503278
1104.943, 8.892612
1105.425, 8.900369
1105.907, 8.958879
1106.389, 8.688410
1106.871, 8.837887
1107.353, 10.21281
1107.835, 11.48724
1108.317, 11.71802
1108.800, 11.23880
1109.282, 10.51181
1109.764, 9.547313
1110.246, 9.047490
1110.728, 9.245234
1111.210, 9.652898
1111.692, 10.62291
1112.174, 11.30648
1112.656, 11.07474
1113.139, 10.48496
1113.621, 10.17391
1114.103, 10.13622
1114.585, 10.19878
1115.067, 10.37957
1115.549, 10.63030
1116.031, 11.25503
1116.513, 11.50520
1116.995, 10.84516
1117.478, 10.04473
1117.960, 9.848684
1118.442, 10.02492
1118.924, 9.750536
1119.406, 8.698786
1119.888, 8.550625
1120.370, 9.974010
1120.852, 10.90026
1121.335, 10.77732
1121.817, 10.23105
1122.299, 9.426101
1122.781, 8.720581
1123.263, 8.827189
1123.745, 9.764691
1124.227, 10.63435
1124.709, 11.59951
1125.192, 11.87834
1125.674, 11.24980
1126.156, 10.22536
1126.638, 8.836303
1127.120, 7.670465
1127.602, 7.475489
1128.084, 8.071069
1128.566, 8.597274
1129.048, 9.049597
1129.531, 9.528442
1130.013, 10.08889
1130.495, 10.25230
1130.977, 9.808208
1131.459, 9.348465
1131.941, 9.384973
1132.423, 9.632419
1132.905, 9.319678
1133.387, 8.528990
1133.870, 8.788225
1134.352, 10.03858
1134.834, 10.46872
1135.316, 9.742234
1135.798, 9.077777
1136.280, 9.137577
1136.762, 9.584397
1137.244, 10.07663
1137.727, 10.52851
1138.209, 10.61638
1138.691, 10.43054
1139.173, 10.38752
1139.655, 10.48802
1140.137, 10.43062
1140.619, 10.12345
1141.101, 9.828785
1141.583, 9.806828
1142.066, 9.756498
1142.548, 8.919249
1143.030, 7.872274
1143.512, 8.003757
1143.994, 8.917134
1144.476, 9.333461
1144.958, 9.123806
1145.440, 9.153636
1145.922, 9.894228
1146.405, 10.44408
1146.887, 9.534121
1147.369, 8.393044
1147.851, 8.547568
1148.333, 9.310410
1148.815, 9.696609
1149.297, 9.726100
1149.779, 9.790603
1150.262, 9.996930
1150.744, 10.18994
1151.226, 10.30674
1151.708, 10.34095
1152.190, 10.34013
1152.672, 10.20331
1153.154, 9.485058
1153.636, 8.789838
1154.119, 9.248607
1154.601, 10.63029
1155.083, 11.39137
1155.565, 10.99391
1156.047, 10.36874
1156.529, 9.495874
1157.011, 8.875498
1157.493, 8.814402
1157.975, 9.014477
1158.458, 9.251911
1158.940, 9.550007
1159.422, 10.15017
1159.904, 11.13886
1160.386, 11.35705
1160.868, 9.616382
1161.350, 8.786948
1161.832, 10.02037
1162.314, 11.10386
1162.797, 10.95526
1163.279, 10.40486
1163.761, 10.39084
1164.243, 10.73401
1164.725, 10.54241
1165.207, 9.516004
1165.689, 9.038681
1166.171, 9.311335
1166.654, 9.548605
1167.136, 9.594563
1167.618, 9.444190
1168.100, 9.007689
1168.582, 8.581446
1169.064, 8.710223
1169.546, 9.321202
1170.028, 9.755616
1170.510, 10.01098
1170.993, 10.22630
1171.475, 10.41825
1171.957, 10.48432
1172.439, 10.38557
1172.921, 10.14145
1173.403, 9.729055
1173.885, 9.334863
1174.367, 9.444187
1174.849, 9.859839
1175.332, 9.834351
1175.814, 9.490720
1176.296, 9.432046
1176.778, 9.707808
1177.260, 9.877001
1177.742, 9.728712
1178.224, 9.590186
1178.706, 9.901269
1179.189, 10.25332
1179.671, 10.08696
1180.153, 9.640525
1180.635, 9.065965
1181.117, 8.578101
1181.599, 8.659491
1182.081, 9.301104
1182.563, 9.900402
1183.046, 10.21974
1183.528, 10.29429
1184.010, 9.867885
1184.492, 9.520314
1184.974, 9.787638
1185.456, 10.21912
1185.938, 10.39533
1186.420, 10.31490
1186.902, 10.05494
1187.385, 9.619110
1187.867, 9.222587
1188.349, 8.593101
1188.831, 8.479079
1189.313, 9.746201
1189.795, 10.68809
1190.277, 10.09457
1190.759, 9.102843
1191.241, 8.791194
1191.724, 9.048753
1192.206, 9.499133
1192.688, 10.34277
1193.170, 10.45169
1193.652, 9.455034
1194.134, 8.879148
1194.616, 9.084975
1195.098, 9.591784
1195.581, 10.21737
1196.063, 10.72711
1196.545, 10.77133
1197.027, 10.45446
1197.509, 10.21434
1197.991, 10.04592
1198.473, 9.909741
1198.955, 9.794138
1199.438, 9.561769
1199.920, 9.189517
1200.402, 8.841558
1200.884, 8.610769
1201.366, 8.664695
1201.848, 9.498347
1202.330, 10.58953
1202.812, 10.99575
1203.294, 10.86662
1203.776, 10.26899
1204.259, 9.474691
1204.741, 9.169320
1205.223, 9.485751
1205.705, 9.805766
1206.187, 9.742963
1206.669, 9.681501
1207.151, 9.831850
1207.633, 10.14899
1208.116, 10.91637
1208.598, 11.58389
1209.080, 11.30991
1209.562, 10.44638
1210.044, 10.10970
1210.526, 10.55602
1211.008, 10.64982
1211.490, 9.713305
1211.973, 9.103248
1212.455, 9.190705
1212.937, 9.511492
1213.419, 10.10777
1213.901, 10.57748
1214.383, 10.38737
1214.865, 9.798145
1215.347, 9.759589
1215.829, 10.43266
1216.312, 10.46238
1216.794, 9.639712
1217.276, 9.279044
1217.758, 9.681310
1218.240, 10.07491
1218.722, 10.08010
1219.204, 9.955892
1219.686, 10.00359
1220.168, 10.11457
1220.651, 9.933958
1221.133, 9.579449
1221.615, 9.621636
1222.097, 9.947349
1222.579, 9.953373
1223.061, 9.590053
1223.543, 9.260605
1224.025, 9.158102
1224.508, 9.325944
1224.990, 10.05893
1225.472, 10.76106
1225.954, 10.68124
1226.436, 10.36925
1226.918, 10.46287
1227.400, 10.78208
1227.882, 11.05040
1228.365, 11.16122
1228.847, 10.89218
1229.329, 10.03267
1229.811, 9.429425
1230.293, 9.277113
1230.775, 9.468159
1231.257, 10.71795
1231.739, 11.48153
1232.221, 9.996480
1232.703, 8.029989
1233.186, 8.020444
1233.668, 9.625724
1234.150, 10.57236
1234.632, 10.73382
1235.114, 10.64421
1235.596, 10.17267
1236.078, 10.16941
1236.560, 10.91192
1237.043, 11.57396
1237.525, 11.68304
1238.007, 11.44384
1238.489, 11.07029
1238.971, 10.63710
1239.453, 10.40968
1239.935, 10.28317
1240.417, 9.758803
1240.900, 9.017897
1241.382, 8.847938
1241.864, 9.308024
1242.346, 9.791890
1242.828, 10.01074
1243.310, 10.06627
1243.792, 9.829875
1244.274, 9.714581
1244.756, 10.22889
1245.239, 10.85306
1245.721, 11.12424
1246.203, 11.13533
1246.685, 11.02437
1247.167, 10.84710
1247.649, 10.75866
1248.131, 10.86391
1248.613, 10.79475
1249.095, 10.17655
1249.578, 9.905788
1250.060, 10.45793
1250.542, 10.84944
1251.024, 10.43049
1251.506, 9.861730
1251.988, 9.961345
1252.470, 10.54576
1252.952, 10.93330
1253.435, 11.12478
1253.917, 11.11359
1254.399, 10.90453
1254.881, 10.57726
1255.363, 10.16757
1255.845, 9.941757
1256.327, 10.01935
1256.809, 10.16835
1257.292, 10.15511
1257.774, 10.12868
1258.256, 10.38185
1258.738, 10.68096
1259.220, 10.58151
1259.702, 10.34581
1260.184, 10.54258
1260.666, 11.04734
1261.148, 11.20498
1261.630, 10.83401
1262.113, 10.66867
1262.595, 11.48011
1263.077, 11.77798
1263.559, 10.41706
1264.041, 9.341055
1264.523, 10.03668
1265.005, 10.90221
1265.487, 10.28280
1265.970, 8.964383
1266.452, 8.822760
1266.934, 9.881570
1267.416, 10.47640
1267.898, 10.55781
1268.380, 10.50760
1268.862, 10.34827
1269.344, 10.37860
1269.827, 10.69920
1270.309, 10.84037
1270.791, 10.43765
1271.273, 9.893427
1271.755, 9.748994
1272.237, 9.872901
1272.719, 10.09510
1273.201, 10.36780
1273.683, 10.69681
1274.166, 10.96979
1274.648, 10.92215
1275.130, 10.55267
1275.612, 10.11626
1276.094, 9.660749
1276.576, 9.350660
1277.058, 9.230101
1277.540, 9.298499
1278.022, 9.690647
1278.505, 10.12412
1278.987, 10.36195
1279.469, 10.59093
1279.951, 11.15976
1280.433, 11.87078
1280.915, 11.79606
1281.397, 10.73371
1281.879, 10.60793
1282.362, 11.54030
1282.844, 12.03551
1283.326, 11.85068
1283.808, 11.22629
1284.290, 10.26983
1284.772, 9.526958
1285.254, 9.429488
1285.736, 9.974043
##END=



