##NAMES=Rosasite
##RRUFFID=R050294
##IDEAL CHEMISTRY=Cu^2+^Zn^2+^CO_3_(OH)_2_
##LOCALITY=79 mine, 4th level, Hayden, Gila County, Arizona, USA
##OWNER=RRUFF
##SOURCE=George Godas, John Callahan
##DESCRIPTION=Green botryoidal crust associated with intergrown smithsonite
##STATUS=The identification of this mineral has been confirmed by X-ray diffraction and chemical analysis
##URL=rruff.info/R050294
##MEASURED CHEMISTRY=(Cu_1.24_Zn_0.76_)_Î£=2_(CO_3_)(OH)_2_
114.0488, 57.90910
114.5309, 61.04435
115.0130, 63.39256
115.4951, 66.13123
115.9772, 69.76953
116.4594, 74.32079
116.9415, 78.90406
117.4236, 83.04955
117.9057, 87.10989
118.3878, 91.44347
118.8699, 96.30289
119.3521, 101.4277
119.8342, 106.8937
120.3163, 112.7577
120.7984, 118.3549
121.2805, 123.4263
121.7626, 127.9476
122.2448, 131.8773
122.7269, 135.1501
123.2090, 137.8441
123.6911, 139.9655
124.1732, 141.4557
124.6553, 142.6220
125.1375, 143.4238
125.6196, 144.0485
126.1017, 145.0887
126.5838, 147.0727
127.0659, 149.6844
127.5480, 152.3796
128.0302, 155.1090
128.5123, 157.8728
128.9944, 160.5935
129.4765, 163.2947
129.9586, 166.1975
130.4407, 169.5636
130.9229, 173.2953
131.4050, 176.9497
131.8871, 180.1566
132.3692, 183.3977
132.8513, 187.8228
133.3334, 193.1884
133.8156, 198.1337
134.2977, 202.0140
134.7798, 205.5462
135.2619, 209.6531
135.7440, 214.6850
136.2261, 220.3961
136.7083, 226.3027
137.1904, 232.6478
137.6725, 238.5553
138.1546, 243.1874
138.6367, 246.4855
139.1188, 249.0979
139.6010, 251.2469
140.0831, 252.9357
140.5652, 253.8497
141.0473, 253.8674
141.5294, 253.3232
142.0115, 252.6773
142.4937, 252.0582
142.9758, 251.0108
143.4579, 249.2190
143.9400, 246.4000
144.4221, 244.1962
144.9042, 242.5679
145.3864, 241.5366
145.8685, 241.2798
146.3506, 242.6160
146.8327, 243.6015
147.3148, 243.6015
147.7969, 242.3296
148.2791, 240.7374
148.7612, 238.8914
149.2433, 236.7415
149.7254, 234.1102
150.2075, 230.5763
150.6896, 226.9562
151.1718, 223.6054
151.6539, 221.1707
152.1360, 218.0690
152.6181, 213.7278
153.1002, 208.6182
153.5823, 204.1679
154.0645, 201.1196
154.5466, 198.2268
155.0287, 194.9147
155.5108, 190.6723
155.9929, 186.4785
156.4750, 182.3577
156.9572, 178.3605
157.4393, 174.8060
157.9214, 171.8916
158.4035, 169.3167
158.8856, 166.8839
159.3677, 164.3278
159.8499, 162.1187
160.3320, 160.5675
160.8141, 159.5757
161.2962, 158.5524
161.7783, 156.9418
162.2604, 155.3851
162.7426, 154.4108
163.2247, 154.8368
163.7068, 155.2963
164.1889, 155.0315
164.6710, 154.1022
165.1531, 153.3952
165.6353, 153.5279
166.1174, 154.0467
166.5995, 154.4631
167.0816, 154.1468
167.5637, 154.0053
168.0458, 154.7335
168.5280, 156.3299
169.0101, 158.0914
169.4922, 159.5978
169.9743, 160.9704
170.4564, 162.3696
170.9385, 163.4054
171.4207, 164.7636
171.9028, 167.2932
172.3849, 171.0616
172.8670, 174.9182
173.3491, 177.7656
173.8312, 180.0979
174.3134, 182.8748
174.7955, 186.9092
175.2776, 191.4273
175.7597, 195.4253
176.2418, 198.8309
176.7239, 202.1854
177.2061, 206.1596
177.6882, 210.5937
178.1703, 214.9695
178.6524, 218.9590
179.1345, 222.8063
179.6166, 226.9038
180.0988, 231.3532
180.5809, 235.8449
181.0630, 240.0179
181.5451, 243.9604
182.0272, 247.8464
182.5093, 251.5472
182.9915, 255.3129
183.4736, 259.7404
183.9557, 264.9851
184.4378, 270.6049
184.9199, 276.1979
185.4020, 281.6806
185.8842, 287.2164
186.3663, 292.8847
186.8484, 298.6619
187.3305, 304.2050
187.8126, 309.4951
188.2947, 314.6908
188.7769, 320.4048
189.2590, 326.5815
189.7411, 331.9846
190.2232, 335.7373
190.7053, 338.0252
191.1874, 340.1830
191.6696, 342.4193
192.1517, 344.4254
192.6338, 345.9073
193.1159, 346.8954
193.5980, 346.6631
194.0801, 344.8795
194.5623, 341.5616
195.0444, 336.5562
195.5265, 329.7899
196.0086, 321.4557
196.4907, 311.8231
196.9728, 300.8484
197.4550, 288.9484
197.9371, 275.9930
198.4192, 261.9565
198.9013, 248.4310
199.3834, 235.4888
199.8655, 223.2462
200.3477, 211.7531
200.8298, 201.0191
201.3119, 191.1278
201.7940, 182.0162
202.2761, 173.6774
202.7582, 166.2243
203.2404, 159.7787
203.7225, 154.1400
204.2046, 148.7504
204.6867, 143.5645
205.1688, 138.7611
205.6509, 134.4815
206.1331, 130.6985
206.6152, 127.5188
207.0973, 125.1565
207.5794, 123.2969
208.0615, 120.9098
208.5436, 117.8120
209.0258, 114.6565
209.5079, 111.8218
209.9900, 109.3140
210.4721, 107.1406
210.9542, 105.3286
211.4363, 103.8410
211.9185, 102.5956
212.4006, 101.6736
212.8827, 100.8071
213.3648, 99.84772
213.8469, 98.74960
214.3290, 97.66579
214.8112, 96.52196
215.2933, 95.42144
215.7754, 94.71974
216.2575, 94.51023
216.7396, 94.52106
217.2217, 94.63509
217.7038, 94.92371
218.1860, 95.08778
218.6681, 95.06496
219.1502, 94.90954
219.6323, 94.79726
220.1144, 94.67693
220.5965, 94.69054
221.0787, 94.97781
221.5608, 95.73420
222.0429, 96.21253
222.5250, 96.23762
223.0071, 95.96745
223.4892, 96.00375
223.9714, 96.51704
224.4535, 97.07038
224.9356, 97.39735
225.4177, 97.29980
225.8998, 97.45573
226.3819, 97.93448
226.8641, 98.68560
227.3462, 99.54981
227.8283, 100.6412
228.3104, 101.6689
228.7925, 102.4928
229.2746, 103.1717
229.7568, 103.5287
230.2389, 103.5476
230.7210, 103.2456
231.2031, 102.6502
231.6852, 101.6245
232.1673, 100.5093
232.6495, 99.48999
233.1316, 98.67994
233.6137, 97.70663
234.0958, 96.51940
234.5779, 95.18417
235.0600, 93.90096
235.5422, 92.66755
236.0243, 91.46911
236.5064, 90.28519
236.9885, 89.06087
237.4706, 87.98255
237.9527, 87.12926
238.4349, 86.41356
238.9170, 85.60830
239.3991, 84.57827
239.8812, 83.66049
240.3633, 83.01728
240.8454, 82.78098
241.3276, 82.49978
241.8097, 82.20509
242.2918, 81.85757
242.7739, 81.34877
243.2560, 80.53450
243.7381, 79.78174
244.2203, 79.22968
244.7024, 78.91856
245.1845, 78.70732
245.6666, 78.66489
246.1487, 78.68999
246.6308, 78.56242
247.1130, 78.12741
247.5951, 77.79398
248.0772, 77.74628
248.5593, 78.10378
249.0414, 78.30135
249.5235, 78.27665
250.0057, 78.13026
250.4878, 78.03399
250.9699, 78.04435
251.4520, 77.99986
251.9341, 77.81712
252.4162, 77.43584
252.8984, 77.21317
253.3805, 77.19022
253.8626, 77.29477
254.3447, 77.42683
254.8268, 77.60176
255.3089, 77.77869
255.7911, 77.95797
256.2732, 78.15036
256.7553, 78.23246
257.2374, 78.06030
257.7195, 77.92135
258.2017, 78.23783
258.6838, 79.30821
259.1659, 80.14283
259.6480, 80.36157
260.1301, 79.91904
260.6122, 80.07961
261.0944, 81.10496
261.5765, 82.41394
262.0586, 83.34896
262.5407, 83.69910
263.0228, 84.27800
263.5049, 85.40304
263.9871, 87.04125
264.4692, 87.99165
264.9513, 87.91132
265.4334, 87.70641
265.9155, 88.29915
266.3976, 89.95606
266.8798, 91.46545
267.3619, 92.55425
267.8440, 93.29253
268.3261, 94.15108
268.8082, 95.11480
269.2903, 96.22412
269.7725, 97.48328
270.2546, 98.84750
270.7367, 100.5200
271.2188, 102.6542
271.7009, 105.0779
272.1830, 107.0225
272.6652, 108.2822
273.1473, 109.5871
273.6294, 111.4920
274.1115, 114.0887
274.5936, 116.7290
275.0757, 119.3515
275.5579, 121.9978
276.0400, 124.6561
276.5221, 127.2685
277.0042, 130.1206
277.4863, 133.4514
277.9684, 137.2957
278.4506, 141.0564
278.9327, 144.5518
279.4148, 148.1206
279.8969, 152.5575
280.3790, 157.9463
280.8611, 163.6138
281.3433, 169.0802
281.8254, 174.3783
282.3075, 180.4584
282.7896, 187.4976
283.2717, 195.0748
283.7538, 202.5797
284.2360, 210.0104
284.7181, 217.4497
285.2002, 224.7194
285.6823, 231.9143
286.1644, 240.0575
286.6465, 249.2138
287.1287, 258.7910
287.6108, 267.8748
288.0929, 276.5094
288.5750, 285.5382
289.0571, 295.2823
289.5392, 305.7110
290.0214, 316.4626
290.5035, 327.4681
290.9856, 338.9482
291.4677, 351.2085
291.9498, 364.2227
292.4319, 377.3813
292.9141, 390.5404
293.3962, 403.8270
293.8783, 417.5013
294.3604, 431.5077
294.8425, 446.0109
295.3246, 461.6139
295.8068, 478.0710
296.2889, 494.1600
296.7710, 509.5516
297.2531, 524.7661
297.7352, 540.9269
298.2173, 557.7858
298.6995, 573.8736
299.1816, 588.2881
299.6637, 601.0506
300.1458, 611.8939
300.6279, 620.9335
301.1100, 627.9187
301.5922, 633.0625
302.0743, 636.0160
302.5564, 635.4047
303.0385, 630.1653
303.5206, 620.9490
304.0027, 608.3184
304.4849, 592.2509
304.9670, 573.5944
305.4491, 552.8148
305.9312, 530.1962
306.4133, 506.4109
306.8954, 480.8669
307.3776, 454.7933
307.8597, 429.7296
308.3418, 405.5582
308.8239, 382.3203
309.3060, 359.9131
309.7881, 338.2458
310.2703, 317.8949
310.7524, 298.9415
311.2345, 281.1815
311.7166, 264.6012
312.1987, 249.2060
312.6808, 235.2964
313.1630, 223.3604
313.6451, 212.7408
314.1272, 202.6282
314.6093, 192.7704
315.0914, 183.4752
315.5735, 174.9758
316.0557, 167.2570
316.5378, 160.2447
317.0199, 154.0866
317.5020, 148.5424
317.9841, 143.3727
318.4662, 138.7607
318.9484, 134.3361
319.4305, 129.9480
319.9126, 125.6575
320.3947, 121.6247
320.8768, 117.8246
321.3589, 114.3480
321.8411, 111.2218
322.3232, 108.4709
322.8053, 106.1004
323.2874, 104.3887
323.7695, 103.0098
324.2516, 101.4476
324.7338, 99.25275
325.2159, 97.20328
325.6980, 95.55952
326.1801, 94.39537
326.6622, 93.33635
327.1443, 92.54825
327.6265, 91.76358
328.1086, 90.70598
328.5907, 88.97239
329.0728, 87.42881
329.5549, 86.25540
330.0370, 85.45210
330.5192, 84.63839
331.0013, 83.84326
331.4834, 83.00829
331.9655, 82.08244
332.4476, 81.02798
332.9297, 79.93768
333.4119, 78.79272
333.8940, 77.61774
334.3761, 76.57911
334.8582, 75.90097
335.3403, 75.04052
335.8224, 73.63462
336.3046, 71.35204
336.7867, 69.52738
337.2688, 68.32197
337.7509, 67.47089
338.2330, 66.39075
338.7151, 65.00646
339.1973, 63.65147
339.6794, 62.42833
340.1615, 61.34838
340.6436, 60.41515
341.1257, 59.69176
341.6078, 59.00158
342.0899, 58.12467
342.5721, 57.07175
343.0542, 55.89011
343.5363, 54.49702
344.0184, 53.00668
344.5005, 51.95493
344.9826, 51.39679
345.4648, 50.93850
345.9469, 50.21627
346.4290, 49.25695
346.9111, 48.34492
347.3932, 47.50837
347.8753, 46.76902
348.3575, 46.21838
348.8396, 45.84661
349.3217, 45.52418
349.8038, 45.25002
350.2859, 44.95923
350.7680, 44.45088
351.2502, 43.65460
351.7323, 42.81927
352.2144, 42.23112
352.6965, 41.83751
353.1786, 41.49692
353.6607, 41.16715
354.1429, 40.83746
354.6250, 40.52784
355.1071, 40.24314
355.5892, 39.86218
356.0713, 39.15010
356.5534, 38.31222
357.0356, 37.65246
357.5177, 37.37044
357.9998, 37.22880
358.4819, 37.11145
358.9640, 37.00969
359.4461, 36.87677
359.9283, 36.65783
360.4104, 36.41303
360.8925, 36.18963
361.3746, 35.98965
361.8567, 35.82606
362.3388, 35.77724
362.8210, 35.77018
363.3031, 35.63886
363.7852, 35.13956
364.2673, 34.65771
364.7494, 34.40674
365.2315, 34.49207
365.7137, 34.49996
366.1958, 34.26274
366.6779, 33.93687
367.1600, 33.70413
367.6421, 33.59644
368.1242, 33.57159
368.6064, 33.64521
369.0885, 33.82285
369.5706, 33.99227
370.0527, 34.20576
370.5348, 34.37233
371.0169, 34.42162
371.4991, 34.20317
371.9812, 34.12562
372.4633, 34.26006
372.9454, 34.55375
373.4275, 34.84548
373.9096, 35.23797
374.3918, 35.45340
374.8739, 35.26956
375.3560, 34.50516
375.8381, 34.18555
376.3202, 34.44869
376.8023, 34.98043
377.2845, 35.28220
377.7666, 35.29586
378.2487, 35.38580
378.7308, 35.69082
379.2129, 36.17952
379.6950, 36.60601
380.1772, 36.96100
380.6593, 37.31899
381.1414, 37.75950
381.6235, 38.27244
382.1056, 38.81709
382.5877, 39.41530
383.0699, 39.99265
383.5520, 40.31092
384.0341, 40.40860
384.5162, 40.64637
384.9983, 41.37387
385.4804, 42.39408
385.9626, 43.30302
386.4447, 44.06183
386.9268, 44.70325
387.4089, 45.19670
387.8910, 45.59846
388.3731, 46.02394
388.8553, 46.46801
389.3374, 46.99594
389.8195, 47.67721
390.3016, 48.49970
390.7837, 49.41317
391.2658, 50.45564
391.7480, 51.53363
392.2301, 52.54703
392.7122, 53.42306
393.1943, 54.29210
393.6764, 55.17585
394.1585, 56.09454
394.6407, 57.08571
395.1228, 57.97820
395.6049, 59.09555
396.0870, 60.70709
396.5691, 63.05336
397.0512, 65.17459
397.5334, 66.72495
398.0155, 68.01206
398.4976, 69.40026
398.9797, 70.90292
399.4618, 72.54632
399.9439, 74.35538
400.4261, 76.32765
400.9082, 78.37151
401.3903, 80.60889
401.8724, 82.79959
402.3545, 84.80692
402.8366, 86.61528
403.3188, 88.23861
403.8009, 89.72384
404.2830, 91.00374
404.7651, 91.88180
405.2472, 92.27782
405.7293, 92.48145
406.2115, 92.63565
406.6936, 92.74717
407.1757, 92.57207
407.6578, 92.12225
408.1399, 91.35043
408.6220, 90.15282
409.1042, 88.53459
409.5863, 86.65791
410.0684, 84.35463
410.5505, 81.98851
411.0326, 80.56718
411.5147, 80.04815
411.9969, 79.31953
412.4790, 77.23135
412.9611, 74.34787
413.4432, 72.08250
413.9253, 70.66603
414.4074, 69.62021
414.8896, 68.56818
415.3717, 67.48797
415.8538, 66.33214
416.3359, 64.92780
416.8180, 63.54258
417.3001, 62.46125
417.7823, 61.66978
418.2644, 60.97770
418.7465, 60.13459
419.2286, 59.37933
419.7107, 58.97962
420.1928, 59.38858
420.6750, 59.63265
421.1571, 59.22660
421.6392, 58.36421
422.1213, 57.55767
422.6034, 56.85778
423.0855, 56.31633
423.5677, 56.01667
424.0498, 56.09530
424.5319, 55.95302
425.0140, 55.36108
425.4961, 54.61353
425.9782, 54.01354
426.4604, 53.77536
426.9425, 53.36620
427.4246, 52.62846
427.9067, 51.62370
428.3888, 50.83570
428.8709, 50.33767
429.3531, 49.92867
429.8352, 49.51755
430.3173, 49.13018
430.7994, 48.63118
431.2815, 48.00772
431.7636, 47.28698
432.2458, 46.49021
432.7279, 45.60931
433.2100, 44.77669
433.6921, 44.02494
434.1742, 43.35614
434.6563, 42.84044
435.1385, 42.47670
435.6206, 42.09680
436.1027, 41.54190
436.5848, 40.85690
437.0669, 40.14564
437.5490, 39.39725
438.0312, 38.70242
438.5133, 38.21772
438.9954, 37.87173
439.4775, 37.46524
439.9596, 36.79021
440.4417, 36.07676
440.9239, 35.52962
441.4060, 35.16089
441.8881, 34.87533
442.3702, 34.73863
442.8523, 34.60765
443.3344, 34.33852
443.8166, 33.69341
444.2987, 33.13908
444.7808, 32.80910
445.2629, 32.67699
445.7450, 32.66588
446.2271, 32.88628
446.7093, 33.11518
447.1914, 33.30153
447.6735, 33.49894
448.1556, 33.45009
448.6377, 32.97747
449.1198, 32.37887
449.6020, 31.94320
450.0841, 31.69599
450.5662, 31.58746
451.0483, 31.67738
451.5304, 31.89879
452.0125, 31.92730
452.4947, 31.70398
452.9768, 31.47034
453.4589, 31.33599
453.9410, 31.30070
454.4231, 31.42974
454.9052, 31.77365
455.3874, 32.12301
455.8695, 32.16278
456.3516, 31.93596
456.8337, 31.76360
457.3158, 31.78022
457.7979, 31.88409
458.2801, 31.86421
458.7622, 31.74275
459.2443, 31.67577
459.7264, 31.87121
460.2085, 32.14700
460.6906, 32.22275
461.1728, 32.00991
461.6549, 31.82872
462.1370, 32.01319
462.6191, 32.35532
463.1012, 32.54597
463.5833, 32.29368
464.0655, 32.03028
464.5476, 31.94135
465.0297, 32.01778
465.5118, 32.14621
465.9939, 32.30796
466.4760, 32.50333
466.9582, 32.74338
467.4403, 33.13826
467.9224, 33.37882
468.4045, 33.31223
468.8866, 33.15104
469.3687, 33.21864
469.8509, 33.68960
470.3330, 34.06196
470.8151, 34.15701
471.2972, 34.02131
471.7793, 34.17039
472.2614, 34.68364
472.7436, 35.27074
473.2257, 35.76735
473.7078, 36.17569
474.1899, 36.41931
474.6720, 36.46093
475.1541, 36.42956
475.6363, 36.50502
476.1184, 36.67711
476.6005, 36.88103
477.0826, 37.08141
477.5647, 37.30317
478.0468, 37.59947
478.5290, 37.96571
479.0111, 38.36049
479.4932, 38.86571
479.9753, 39.33546
480.4574, 39.57185
480.9395, 39.48745
481.4217, 39.34318
481.9038, 39.18245
482.3859, 39.09013
482.8680, 39.19569
483.3501, 39.80698
483.8322, 40.36497
484.3144, 40.66640
484.7965, 40.71356
485.2786, 40.67863
485.7607, 40.40757
486.2428, 40.20097
486.7249, 40.20710
487.2071, 40.48041
487.6892, 40.85640
488.1713, 41.39678
488.6534, 41.99658
489.1355, 42.50441
489.6176, 42.88740
490.0998, 43.27465
490.5819, 43.65739
491.0640, 44.07973
491.5461, 44.82377
492.0282, 45.94339
492.5103, 47.02132
492.9925, 47.62064
493.4746, 47.88475
493.9567, 48.55869
494.4388, 49.75807
494.9209, 51.08208
495.4030, 52.06080
495.8852, 52.80980
496.3673, 53.65398
496.8494, 54.79086
497.3315, 55.98769
497.8136, 56.92085
498.2957, 57.69007
498.7779, 58.66847
499.2600, 60.14222
499.7421, 61.84621
500.2242, 63.68642
500.7063, 65.76579
501.1884, 67.53388
501.6706, 68.58359
502.1527, 69.34142
502.6348, 70.21815
503.1169, 71.37640
503.5990, 72.53118
504.0811, 73.78224
504.5633, 75.01467
505.0454, 75.80029
505.5275, 75.97595
506.0096, 75.96350
506.4917, 75.94534
506.9738, 75.94114
507.4560, 75.66936
507.9381, 75.10050
508.4202, 74.34318
508.9023, 73.50405
509.3844, 72.58047
509.8665, 71.52427
510.3487, 70.32037
510.8308, 68.99187
511.3129, 67.56072
511.7950, 66.03347
512.2772, 64.43945
512.7593, 62.64746
513.2414, 60.87842
513.7235, 59.38109
514.2056, 58.15577
514.6877, 57.07379
515.1699, 56.18545
515.6520, 55.33318
516.1341, 54.35899
516.6162, 53.14478
517.0983, 51.96544
517.5804, 50.85632
518.0626, 49.84129
518.5447, 48.95966
519.0268, 48.46826
519.5089, 47.83681
519.9910, 46.88897
520.4731, 45.64858
520.9553, 44.52931
521.4374, 43.54079
521.9195, 42.67693
522.4016, 41.96373
522.8837, 41.44701
523.3658, 40.87297
523.8480, 40.22933
524.3301, 39.54876
524.8122, 38.88780
525.2943, 38.24645
525.7764, 37.57241
526.2585, 36.85688
526.7407, 36.09574
527.2228, 35.21838
527.7049, 34.24775
528.1870, 33.34522
528.6691, 32.65153
529.1512, 32.04472
529.6334, 31.36198
530.1155, 30.58181
530.5976, 29.85520
531.0797, 29.32129
531.5618, 28.85140
532.0439, 28.32282
532.5261, 27.64096
533.0082, 26.98069
533.4903, 26.33004
533.9724, 25.72971
534.4545, 25.25205
534.9366, 24.98021
535.4188, 24.75193
535.9009, 24.57588
536.3830, 24.44778
536.8651, 24.14917
537.3472, 23.61952
537.8293, 23.04173
538.3115, 22.51737
538.7936, 22.04475
539.2757, 21.69152
539.7578, 21.48849
540.2399, 21.33521
540.7220, 21.04886
541.2042, 20.67095
541.6863, 20.43768
542.1684, 20.52390
542.6505, 20.66540
543.1326, 20.43012
543.6147, 19.90354
544.0969, 19.40438
544.5790, 19.14073
545.0611, 18.97811
545.5432, 18.82620
546.0253, 18.67917
546.5074, 18.50802
546.9896, 18.23640
547.4717, 17.97340
547.9538, 17.81010
548.4359, 17.90015
548.9180, 17.90016
549.4001, 17.69720
549.8823, 17.41511
550.3644, 17.27643
550.8465, 17.39060
551.3286, 17.43564
551.8107, 17.30118
552.2928, 17.02107
552.7750, 16.83112
553.2571, 16.72237
553.7392, 16.73907
554.2213, 17.04757
554.7034, 17.55320
555.1855, 17.66864
555.6677, 17.33217
556.1498, 16.85819
556.6319, 16.49665
557.1140, 16.25402
557.5961, 16.16939
558.0782, 16.34555
558.5604, 16.52742
559.0425, 16.47311
559.5246, 16.26723
560.0067, 16.09759
560.4888, 16.03905
560.9709, 16.03692
561.4531, 16.10139
561.9352, 16.23059
562.4173, 16.29012
562.8994, 16.29676
563.3815, 16.19813
563.8636, 15.93388
564.3458, 15.36212
564.8279, 15.02645
565.3100, 14.99910
565.7921, 15.11215
566.2742, 15.17932
566.7563, 15.20659
567.2385, 15.11736
567.7206, 14.84269
568.2027, 14.50850
568.6848, 14.42950
569.1669, 14.57433
569.6490, 14.71871
570.1312, 14.78983
570.6133, 14.76728
571.0954, 14.57917
571.5775, 14.23278
572.0596, 13.89425
572.5417, 13.64479
573.0239, 13.46072
573.5060, 13.32527
573.9881, 13.23202
574.4702, 13.19201
574.9523, 13.34485
575.4344, 13.50266
575.9166, 13.42155
576.3987, 12.65420
576.8808, 12.23553
577.3629, 12.45903
577.8450, 13.08871
578.3271, 13.31204
578.8093, 12.98904
579.2914, 12.67737
579.7735, 12.64469
580.2556, 12.84059
580.7377, 12.83570
581.2198, 12.61095
581.7020, 12.38990
582.1841, 12.42323
582.6662, 12.59488
583.1483, 12.59645
583.6304, 12.35737
584.1125, 12.11359
584.5947, 12.10744
585.0768, 12.22193
585.5589, 12.28571
586.0410, 12.21120
586.5231, 12.10805
587.0052, 12.00662
587.4873, 11.91050
587.9694, 11.83072
588.4515, 11.82515
588.9337, 11.77680
589.4158, 11.63181
589.8979, 11.38931
590.3800, 11.19557
590.8621, 11.02341
591.3442, 10.94766
591.8264, 11.07823
592.3085, 11.44111
592.7906, 11.58628
593.2727, 11.47167
593.7548, 11.23850
594.2369, 10.97184
594.7191, 10.70987
595.2012, 10.62496
595.6833, 10.82243
596.1654, 11.08256
596.6475, 11.16691
597.1296, 11.12587
597.6118, 11.07850
598.0939, 11.06716
598.5760, 11.07443
599.0581, 11.11279
599.5402, 11.17314
600.0223, 11.18526
600.5045, 11.09781
600.9866, 10.98941
601.4687, 10.89401
601.9508, 10.81478
602.4329, 10.73598
602.9150, 10.65797
603.3972, 10.58064
603.8793, 10.48215
604.3614, 10.34980
604.8435, 10.35199
605.3256, 10.55461
605.8077, 10.78899
606.2899, 10.73382
606.7720, 10.45279
607.2541, 10.25422
607.7362, 10.32346
608.2183, 10.45600
608.7004, 10.39095
609.1826, 10.17817
609.6647, 9.993155
610.1468, 9.907648
610.6289, 9.889475
611.1110, 9.951368
611.5931, 10.09707
612.0753, 10.18256
612.5574, 10.15013
613.0395, 10.07178
613.5216, 9.983606
614.0037, 9.862449
614.4858, 9.795399
614.9680, 9.809821
615.4501, 9.841280
615.9322, 9.790111
616.4143, 9.647852
616.8964, 9.598376
617.3785, 9.709805
617.8607, 9.866900
618.3428, 9.848037
618.8249, 9.691391
619.3070, 9.556823
619.7891, 9.567859
620.2712, 9.601947
620.7534, 9.493730
621.2355, 9.282674
621.7176, 9.156311
622.1997, 9.296998
622.6818, 9.473983
623.1639, 9.553694
623.6461, 9.510558
624.1282, 9.470932
624.6103, 9.434258
625.0924, 9.416044
625.5745, 9.431133
626.0566, 9.500598
626.5388, 9.540750
627.0209, 9.540953
627.5030, 9.525705
627.9851, 9.233262
628.4672, 9.599732
628.9493, 9.805030
629.4315, 9.857816
629.9136, 9.301300
630.3957, 9.531570
630.8778, 9.446533
631.3599, 9.348566
631.8420, 9.689574
632.3242, 9.221680
632.8063, 9.555726
633.2884, 9.569653
633.7705, 9.730090
634.2526, 9.573272
634.7347, 9.514443
635.2169, 9.772972
635.6990, 9.855779
636.1811, 9.662438
636.6632, 9.832190
637.1453, 9.353212
637.6274, 9.443503
638.1096, 9.779407
638.5917, 9.602018
639.0738, 9.602125
639.5559, 9.705947
640.0380, 9.720349
640.5201, 9.650728
641.0023, 9.505168
641.4844, 9.236393
641.9665, 8.990518
642.4486, 8.947155
642.9307, 9.039719
643.4128, 9.123247
643.8950, 9.147968
644.3771, 9.138885
644.8592, 9.086218
645.3413, 9.002509
645.8234, 8.948979
646.3055, 9.010932
646.7877, 9.024707
647.2698, 8.911418
647.7519, 8.662572
648.2340, 8.509322
648.7161, 8.451565
649.1982, 8.488900
649.6804, 8.682517
650.1625, 9.004460
650.6446, 9.180283
651.1267, 9.187799
651.6088, 9.112779
652.0909, 8.981849
652.5731, 8.843575
653.0552, 8.794943
653.5373, 8.897679
654.0194, 9.001211
654.5015, 8.974481
654.9836, 8.900632
655.4658, 8.901525
655.9479, 9.062720
656.4300, 9.239523
656.9121, 9.465873
657.3942, 9.686576
657.8763, 9.733544
658.3585, 9.531803
658.8406, 9.332409
659.3227, 9.217841
659.8048, 9.168914
660.2869, 9.063045
660.7690, 8.894863
661.2512, 8.812659
661.7333, 9.000738
662.2154, 9.314147
662.6975, 9.451233
663.1796, 9.406164
663.6617, 9.363987
664.1439, 9.511158
664.6260, 9.683729
665.1081, 9.713536
665.5902, 9.513488
666.0723, 9.379920
666.5544, 9.431156
667.0366, 9.554866
667.5187, 9.649085
668.0008, 9.719430
668.4829, 9.744991
668.9650, 9.707754
669.4471, 9.645322
669.9293, 9.620226
670.4114, 9.633002
670.8935, 9.634875
671.3756, 9.601686
671.8577, 9.568351
672.3398, 9.581957
672.8220, 9.642776
673.3041, 9.750906
673.7862, 9.979456
674.2683, 10.19300
674.7504, 10.26112
675.2325, 10.21493
675.7147, 10.21373
676.1968, 10.34344
676.6789, 10.49556
677.1610, 10.64535
677.6431, 10.79888
678.1252, 10.81823
678.6074, 10.58337
679.0895, 10.43854
679.5716, 10.69947
680.0537, 11.36810
680.5358, 11.66434
681.0179, 11.53507
681.5001, 11.32657
681.9822, 11.40025
682.4643, 11.64112
682.9464, 11.80338
683.4285, 11.82368
683.9106, 11.85020
684.3928, 11.92369
684.8749, 12.09004
685.3570, 12.40380
685.8391, 13.10001
686.3212, 13.67515
686.8033, 13.95798
687.2855, 14.10801
687.7676, 14.37853
688.2497, 14.82746
688.7318, 15.25986
689.2139, 15.63228
689.6960, 15.97152
690.1782, 16.31531
690.6603, 16.66739
691.1424, 17.09691
691.6245, 17.65826
692.1066, 18.30957
692.5887, 18.96105
693.0709, 19.63094
693.5530, 20.40808
694.0351, 21.47312
694.5172, 22.54393
694.9993, 23.44089
695.4814, 24.14882
695.9636, 24.81879
696.4457, 25.29491
696.9278, 25.91573
697.4099, 26.90185
697.8920, 28.34713
698.3741, 29.51951
698.8563, 30.38804
699.3384, 31.07790
699.8205, 31.74029
700.3026, 32.32708
700.7847, 32.65253
701.2668, 32.70149
701.7490, 32.45701
702.2311, 31.80234
702.7132, 30.87986
703.1953, 29.88791
703.6774, 28.89593
704.1595, 27.79453
704.6417, 26.41844
705.1238, 24.93754
705.6059, 23.60582
706.0880, 22.42599
706.5701, 21.38953
707.0522, 20.50725
707.5344, 19.75665
708.0165, 19.11100
708.4986, 18.57461
708.9807, 18.10538
709.4628, 17.68558
709.9449, 17.33363
710.4271, 17.03632
710.9092, 16.82696
711.3913, 16.81912
711.8734, 17.26789
712.3555, 17.77346
712.8376, 17.95144
713.3198, 17.90096
713.8019, 18.12163
714.2840, 18.90754
714.7661, 19.84385
715.2482, 20.81820
715.7303, 21.82505
716.2125, 22.71466
716.6946, 23.45420
717.1767, 24.18391
717.6588, 25.00413
718.1409, 25.89752
718.6230, 26.55996
719.1052, 26.98890
719.5873, 27.66979
720.0694, 29.25054
720.5515, 31.20401
721.0336, 32.81450
721.5157, 33.93329
721.9979, 35.21514
722.4800, 36.75071
722.9621, 38.72809
723.4442, 41.32708
723.9263, 44.74575
724.4084, 48.40325
724.8906, 52.38187
725.3727, 56.55320
725.8548, 60.83520
726.3369, 65.27688
726.8190, 69.63755
727.3011, 73.83274
727.7833, 77.95707
728.2654, 82.37312
728.7475, 86.72545
729.2296, 90.23540
729.7117, 92.86087
730.1938, 94.20755
730.6760, 94.60224
731.1581, 93.35323
731.6402, 89.41404
732.1223, 80.42422
732.6044, 71.26859
733.0865, 62.17345
733.5687, 53.58413
734.0508, 46.42613
734.5329, 40.75895
735.0150, 36.26337
735.4971, 32.98100
735.9792, 30.60618
736.4614, 28.56035
736.9435, 26.83299
737.4256, 25.37074
737.9077, 24.29156
738.3898, 23.34904
738.8719, 22.32758
739.3541, 21.25753
739.8362, 20.26223
740.3183, 19.31030
740.8004, 18.51643
741.2825, 18.01183
741.7646, 17.74586
742.2468, 17.33641
742.7289, 16.74653
743.2110, 16.10916
743.6931, 15.46396
744.1752, 14.82092
744.6573, 14.21368
745.1395, 13.64905
745.6216, 13.18901
746.1037, 12.94230
746.5858, 12.79483
747.0679, 12.62476
747.5500, 12.42397
748.0322, 12.20559
748.5143, 11.93840
748.9964, 11.68518
749.4785, 11.48889
749.9606, 11.36408
750.4427, 11.23165
750.9249, 11.11449
751.4070, 10.94812
751.8891, 10.64336
752.3712, 10.20241
752.8533, 9.934451
753.3354, 9.856256
753.8176, 9.846776
754.2997, 9.809635
754.7818, 9.759811
755.2639, 9.708826
755.7460, 9.651270
756.2281, 9.644230
756.7103, 9.790187
757.1924, 9.957584
757.6745, 10.02996
758.1566, 9.950674
758.6387, 9.857212
759.1208, 9.744132
759.6030, 9.621955
760.0851, 9.506801
760.5672, 9.398738
761.0493, 9.235593
761.5314, 8.984418
762.0135, 8.788035
762.4957, 8.882063
762.9778, 9.140337
763.4599, 9.332856
763.9420, 9.403255
764.4241, 9.388729
764.9063, 9.220904
765.3884, 9.015550
765.8705, 8.916306
766.3526, 9.070892
766.8347, 9.144338
767.3168, 9.091247
767.7990, 8.980442
768.2811, 8.896454
768.7632, 8.836720
769.2453, 8.880543
769.7274, 9.084972
770.2095, 9.293890
770.6917, 9.242846
771.1738, 9.029775
771.6559, 8.870022
772.1380, 8.868820
772.6201, 8.901494
773.1022, 8.899350
773.5844, 8.887035
774.0665, 8.910977
774.5486, 9.066522
775.0307, 9.118040
775.5128, 8.976881
775.9949, 8.755252
776.4771, 8.732665
776.9592, 8.917817
777.4413, 9.044824
777.9234, 9.037333
778.4055, 8.931756
778.8876, 8.704015
779.3698, 8.420816
779.8519, 8.253259
780.3340, 8.339341
780.8161, 8.497888
781.2982, 8.719465
781.7803, 8.950278
782.2625, 9.036622
782.7446, 8.867930
783.2267, 8.722568
783.7088, 8.633603
784.1909, 8.615846
784.6730, 8.763475
785.1552, 9.074725
785.6373, 9.279881
786.1194, 9.210993
786.6015, 9.046335
787.0836, 9.076997
787.5657, 9.230334
788.0479, 9.304629
788.5300, 9.099138
789.0121, 8.902656
789.4942, 8.855528
789.9763, 8.925607
790.4584, 8.971759
790.9406, 8.972579
791.4227, 8.986004
791.9048, 9.034670
792.3869, 9.102965
792.8690, 9.147646
793.3511, 9.168424
793.8333, 9.151103
794.3154, 9.004512
794.7975, 8.888437
795.2796, 9.081286
795.7617, 9.483924
796.2438, 9.770089
796.7260, 9.777404
797.2081, 9.679464
797.6902, 9.450202
798.1723, 9.155938
798.6544, 9.068774
799.1365, 9.285642
799.6187, 9.444870
800.1008, 9.383067
800.5829, 9.209558
801.0650, 9.294921
801.5471, 9.598087
802.0292, 9.857367
802.5114, 9.911411
802.9935, 9.873089
803.4756, 9.802113
803.9577, 9.718723
804.4398, 9.689095
804.9219, 9.850714
805.4041, 9.932646
805.8862, 9.799989
806.3683, 9.526732
806.8504, 9.443212
807.3325, 9.593337
807.8146, 9.713149
808.2968, 9.669309
808.7789, 9.560769
809.2610, 9.645720
809.7431, 9.875190
810.2252, 9.411280
810.7073, 10.22022
811.1895, 10.68209
811.6716, 10.81554
812.1537, 9.636897
812.6358, 10.15254
813.1179, 9.989198
813.6000, 9.798008
814.0822, 10.55212
814.5643, 9.564321
815.0464, 10.30344
815.5285, 10.35321
816.0106, 10.71847
816.4927, 10.40055
816.9749, 10.29364
817.4570, 10.87014
817.9391, 11.06823
818.4212, 10.67167
818.9033, 11.05699
819.3854, 10.04532
819.8676, 10.25953
820.3497, 11.00265
820.8318, 10.64044
821.3139, 11.03825
821.7960, 11.14660
822.2781, 9.939470
822.7603, 11.02009
823.2424, 11.11134
823.7245, 10.18671
824.2066, 11.18894
824.6887, 10.40436
825.1708, 10.25757
825.6530, 10.59075
826.1351, 10.42357
826.6172, 11.04526
827.0993, 10.90697
827.5814, 10.70079
828.0635, 10.79092
828.5457, 10.04139
829.0278, 10.84961
829.5099, 10.59375
829.9920, 10.86683
830.4741, 11.25979
830.9562, 10.73476
831.4384, 11.18160
831.9205, 10.12130
832.4026, 10.32207
832.8847, 10.38705
833.3668, 11.25808
833.8489, 10.20513
834.3311, 10.37087
834.8132, 11.05550
835.2953, 11.01408
835.7774, 11.27622
836.2595, 10.63967
836.7416, 10.84738
837.2238, 10.82238
837.7059, 11.60151
838.1880, 11.74581
838.6701, 11.12452
839.1522, 10.50646
839.6343, 11.34347
840.1165, 10.80136
840.5986, 11.00326
841.0807, 10.43675
841.5628, 10.53371
842.0449, 10.62015
842.5270, 11.04670
843.0092, 10.44194
843.4913, 11.17495
843.9734, 11.13476
844.4555, 11.32234
844.9376, 11.48458
845.4197, 10.60926
845.9019, 10.58449
846.3840, 11.77676
846.8661, 11.11298
847.3482, 10.82381
847.8303, 11.11382
848.3124, 10.85494
848.7946, 10.72256
849.2767, 10.80919
849.7588, 10.80233
850.2409, 10.63972
850.7230, 10.50141
851.2051, 10.59653
851.6873, 10.87705
852.1694, 11.01539
852.6515, 10.98652
853.1336, 10.93583
853.6157, 10.95076
854.0978, 11.02270
854.5800, 11.16788
855.0621, 11.40219
855.5442, 11.57495
856.0263, 11.61685
856.5084, 11.62954
856.9905, 11.66646
857.4727, 11.72783
857.9548, 11.71939
858.4369, 11.63512
858.9190, 11.54766
859.4011, 11.45951
859.8832, 11.42311
860.3654, 11.56487
860.8475, 11.86415
861.3296, 12.13188
861.8117, 12.31728
862.2938, 12.41869
862.7759, 12.37922
863.2581, 12.23076
863.7402, 12.22023
864.2223, 12.39696
864.7044, 12.54410
865.1865, 12.56600
865.6686, 12.49984
866.1508, 12.40965
866.6329, 12.30769
867.1150, 12.25054
867.5971, 12.36473
868.0792, 12.43819
868.5613, 12.29678
869.0435, 12.00976
869.5256, 11.79895
870.0077, 11.69147
870.4898, 11.63978
870.9719, 11.63683
871.4540, 11.68297
871.9362, 11.81835
872.4183, 12.02350
872.9004, 12.14271
873.3825, 12.11887
873.8646, 12.01153
874.3467, 11.80460
874.8289, 11.57386
875.3110, 11.43700
875.7931, 11.50258
876.2752, 11.56761
876.7573, 11.62831
877.2394, 11.66721
877.7216, 11.63209
878.2037, 11.51204
878.6858, 11.54584
879.1679, 11.78825
879.6500, 12.05236
880.1321, 12.14809
880.6143, 12.13183
881.0964, 12.08354
881.5785, 12.01942
882.0606, 11.91708
882.5427, 11.63579
883.0248, 11.42328
883.5070, 11.47384
883.9891, 11.85028
884.4712, 12.10696
884.9533, 12.23221
885.4354, 12.28622
885.9175, 12.29527
886.3997, 12.27256
886.8818, 12.21785
887.3639, 12.13970
887.8460, 12.13190
888.3281, 12.32882
888.8102, 12.53502
889.2924, 12.64356
889.7745, 12.65585
890.2566, 12.62677
890.7387, 12.52869
891.2208, 12.47581
891.7029, 12.53142
892.1851, 12.65405
892.6672, 12.72226
893.1493, 12.75634
893.6314, 12.84104
894.1135, 13.14377
894.5956, 13.38591
895.0778, 13.34422
895.5599, 13.12603
896.0420, 13.01019
896.5241, 13.04401
897.0062, 13.11361
897.4883, 13.21465
897.9705, 13.32289
898.4526, 13.41151
898.9347, 13.47126
899.4168, 13.43069
899.8989, 13.21370
900.3810, 13.07091
900.8632, 13.33903
901.3453, 13.72659
901.8274, 13.89267
902.3095, 13.56034
902.7916, 13.39339
903.2737, 13.46354
903.7559, 13.59992
904.2380, 13.66087
904.7201, 13.65048
905.2022, 13.57356
905.6843, 13.42866
906.1664, 13.33960
906.6486, 13.50335
907.1307, 13.70519
907.6128, 13.71888
908.0949, 13.51002
908.5770, 13.38240
909.0591, 13.45802
909.5413, 13.50520
910.0234, 13.39775
910.5055, 13.17848
910.9876, 13.15811
911.4697, 13.32323
911.9518, 13.41936
912.4340, 13.22858
912.9161, 12.95980
913.3982, 12.80709
913.8803, 12.74969
914.3624, 12.73105
914.8445, 12.73576
915.3267, 12.78644
915.8088, 12.92691
916.2909, 13.08429
916.7730, 13.11835
917.2551, 13.02952
917.7372, 12.83297
918.2194, 12.48791
918.7015, 12.17837
919.1836, 12.15166
919.6657, 12.26748
920.1478, 12.33729
920.6299, 12.31338
921.1121, 12.24266
921.5942, 12.06368
922.0763, 11.91594
922.5584, 11.96348
923.0405, 12.21985
923.5226, 12.20596
924.0048, 11.89300
924.4869, 11.58025
924.9690, 11.51409
925.4511, 11.57668
925.9332, 11.67448
926.4153, 11.79338
926.8975, 11.83649
927.3796, 11.71715
927.8617, 11.58144
928.3438, 11.48281
928.8259, 11.40646
929.3080, 11.24799
929.7902, 11.00923
930.2723, 10.83218
930.7544, 10.77811
931.2365, 10.82090
931.7186, 11.04508
932.2007, 11.32877
932.6829, 11.42152
933.1650, 11.07994
933.6471, 10.76017
934.1292, 10.49680
934.6113, 10.30949
935.0934, 10.25363
935.5756, 10.32737
936.0577, 10.38288
936.5398, 10.39748
937.0219, 10.40422
937.5040, 10.45792
937.9861, 10.50961
938.4683, 10.49073
938.9504, 10.37233
939.4325, 10.28054
939.9146, 10.24170
940.3967, 10.22762
940.8788, 10.23179
941.3610, 10.25145
941.8431, 10.25745
942.3252, 10.24922
942.8073, 10.20964
943.2894, 10.10588
943.7715, 9.984723
944.2537, 9.857615
944.7358, 9.744733
945.2179, 9.714258
945.7000, 9.872239
946.1821, 9.985442
946.6642, 9.997479
947.1464, 9.960407
947.6285, 10.01087
948.1106, 10.12823
948.5927, 10.14092
949.0748, 9.981111
949.5569, 9.787999
950.0391, 9.619661
950.5212, 9.519345
951.0033, 9.558882
951.4854, 9.889017
951.9675, 10.01008
952.4496, 9.816128
952.9318, 9.588091
953.4139, 9.559321
953.8960, 9.692409
954.3781, 9.782869
954.8602, 9.825243
955.3423, 9.819819
955.8245, 9.689310
956.3066, 9.578199
956.7887, 9.658245
957.2708, 9.885328
957.7529, 9.877547
958.2350, 9.480044
958.7172, 9.192239
959.1993, 9.166149
959.6814, 9.302312
960.1635, 9.446421
960.6456, 9.574967
961.1277, 9.594392
961.6099, 9.397206
962.0920, 9.242663
962.5741, 9.330801
963.0562, 9.511587
963.5383, 9.614274
964.0204, 9.620210
964.5026, 9.583069
964.9847, 9.493139
965.4668, 9.396567
965.9489, 9.323409
966.4310, 9.278749
966.9131, 9.301043
967.3953, 9.382305
967.8774, 9.397645
968.3595, 9.149807
968.8416, 8.958372
969.3237, 9.045698
969.8058, 9.325594
970.2880, 9.380374
970.7701, 9.179069
971.2522, 9.011079
971.7343, 8.960670
972.2164, 9.013556
972.6985, 9.231289
973.1807, 9.520966
973.6628, 9.700557
974.1449, 9.664781
974.6270, 9.600204
975.1091, 9.517650
975.5912, 9.443286
976.0734, 9.398021
976.5555, 9.381814
977.0376, 9.406264
977.5197, 9.473506
978.0018, 9.546589
978.4839, 9.657689
978.9661, 9.716871
979.4482, 9.558459
979.9303, 9.197310
980.4124, 9.040048
980.8945, 9.268976
981.3766, 9.512870
981.8588, 9.688353
982.3409, 9.790998
982.8230, 9.761580
983.3051, 9.632120
983.7872, 9.582210
984.2693, 9.736151
984.7515, 9.869964
985.2336, 9.781209
985.7157, 9.599607
986.1978, 9.496412
986.6799, 9.513088
987.1620, 9.535227
987.6442, 9.556166
988.1263, 9.601075
988.6084, 9.714706
989.0905, 9.864466
989.5726, 9.994706
990.0547, 10.09526
990.5369, 10.09268
991.0190, 9.775722
991.5011, 9.523829
991.9832, 9.586542
992.4653, 9.858584
992.9474, 9.971956
993.4296, 9.909118
993.9117, 9.840917
994.3938, 9.808966
994.8759, 9.813262
995.3580, 9.837643
995.8401, 9.903525
996.3223, 10.06117
996.8044, 10.42129
997.2865, 10.65172
997.7686, 10.66370
998.2507, 10.59185
998.7328, 10.52404
999.2150, 10.46045
999.6971, 10.36013
1000.179, 10.22934
1000.661, 10.20113
1001.143, 10.49436
1001.626, 10.81779
1002.108, 10.91926
1002.590, 10.84087
1003.072, 10.83603
1003.554, 10.91956
1004.036, 11.08961
1004.518, 11.38642
1005.000, 11.69214
1005.482, 11.77426
1005.965, 11.70163
1006.447, 11.64022
1006.929, 11.61388
1007.411, 11.66235
1007.893, 11.92233
1008.375, 12.16746
1008.857, 12.18930
1009.339, 11.95414
1009.822, 12.03891
1010.304, 12.47864
1010.786, 12.84808
1011.268, 12.70793
1011.750, 12.45860
1012.232, 12.65761
1012.714, 13.17710
1013.196, 13.64273
1013.678, 13.98066
1014.161, 14.18656
1014.643, 14.21149
1015.125, 14.16215
1015.607, 14.19995
1016.089, 14.30696
1016.571, 14.34535
1017.053, 14.28226
1017.535, 14.29798
1018.018, 14.56376
1018.500, 14.93796
1018.982, 15.36051
1019.464, 15.82689
1019.946, 16.10749
1020.428, 16.15967
1020.910, 16.18027
1021.392, 16.23784
1021.874, 16.33282
1022.357, 16.42816
1022.839, 16.56306
1023.321, 16.83461
1023.803, 17.45634
1024.285, 17.96026
1024.767, 18.18845
1025.249, 18.29000
1025.731, 18.34840
1026.214, 18.36120
1026.696, 18.57860
1027.178, 19.01682
1027.660, 19.53831
1028.142, 20.12640
1028.624, 20.68357
1029.106, 21.11625
1029.588, 21.42875
1030.070, 21.70882
1030.553, 21.92510
1031.035, 22.20982
1031.517, 22.61122
1031.999, 23.07040
1032.481, 23.49307
1032.963, 23.89364
1033.445, 24.31578
1033.927, 24.78201
1034.410, 25.23613
1034.892, 25.58037
1035.374, 25.96571
1035.856, 26.51968
1036.338, 27.25121
1036.820, 27.76940
1037.302, 28.06028
1037.784, 28.44252
1038.266, 29.22723
1038.749, 30.09177
1039.231, 30.75280
1039.713, 31.23056
1040.195, 31.54071
1040.677, 31.36162
1041.159, 31.63451
1041.641, 32.56853
1042.123, 33.72380
1042.605, 34.61855
1043.088, 35.29964
1043.570, 35.79742
1044.052, 36.11684
1044.534, 36.59553
1045.016, 37.62641
1045.498, 38.64858
1045.980, 39.31753
1046.462, 39.72924
1046.945, 40.33876
1047.427, 41.15814
1047.909, 41.99611
1048.391, 42.83215
1048.873, 43.54432
1049.355, 43.87289
1049.837, 44.05627
1050.319, 44.42673
1050.802, 45.16283
1051.284, 45.82561
1051.766, 46.37602
1052.248, 46.90980
1052.730, 47.41439
1053.212, 47.96110
1053.694, 48.86754
1054.176, 50.05211
1054.658, 51.13692
1055.141, 52.00304
1055.623, 52.64948
1056.105, 52.84436
1056.587, 52.96200
1057.069, 53.63266
1057.551, 54.87701
1058.033, 55.91590
1058.515, 56.64030
1058.997, 57.30060
1059.480, 58.09850
1059.962, 58.96991
1060.444, 59.87961
1060.926, 60.81527
1061.408, 61.68879
1061.890, 62.42419
1062.372, 63.29330
1062.854, 64.36842
1063.337, 65.64517
1063.819, 67.11127
1064.301, 68.75139
1064.783, 70.51257
1065.265, 72.34801
1065.747, 74.39438
1066.229, 76.79225
1066.711, 79.35120
1067.193, 82.00144
1067.676, 84.72225
1068.158, 87.42960
1068.640, 90.16199
1069.122, 93.28956
1069.604, 97.32120
1070.086, 101.5826
1070.568, 105.5186
1071.050, 109.4789
1071.532, 114.1374
1072.015, 119.6139
1072.497, 125.4480
1072.979, 131.5917
1073.461, 138.3475
1073.943, 146.0157
1074.425, 154.5042
1074.907, 163.6826
1075.389, 173.4942
1075.872, 184.5997
1076.354, 197.2789
1076.836, 210.9579
1077.318, 225.2039
1077.800, 240.4784
1078.282, 258.6784
1078.764, 279.3212
1079.246, 300.7412
1079.729, 322.5778
1080.211, 345.6325
1080.693, 369.9188
1081.175, 396.2354
1081.657, 424.8480
1082.139, 455.8341
1082.621, 485.9804
1083.103, 515.4946
1083.585, 545.7703
1084.068, 577.2274
1084.550, 610.3715
1085.032, 645.5242
1085.514, 682.5300
1085.996, 720.1732
1086.478, 756.7891
1086.960, 797.5321
1087.442, 842.9919
1087.924, 891.2363
1088.406, 940.8882
1088.889, 991.7802
1089.371, 1045.846
1089.853, 1102.334
1090.335, 1156.245
1090.817, 1210.178
1091.299, 1255.577
1091.781, 1293.426
1092.263, 1319.225
1092.746, 1325.736
1093.228, 1312.956
1093.710, 1278.707
1094.192, 1221.798
1094.674, 1151.566
1095.156, 1067.541
1095.638, 977.3827
1096.120, 884.1205
1096.603, 789.5497
1097.085, 702.1695
1097.567, 621.9728
1098.049, 549.1675
1098.531, 483.4543
1099.013, 425.7382
1099.495, 377.5344
1099.977, 336.7873
1100.459, 300.2467
1100.942, 267.7980
1101.424, 239.9651
1101.906, 217.2259
1102.388, 197.3770
1102.870, 178.7812
1103.352, 161.9146
1103.834, 147.9927
1104.316, 136.3933
1104.798, 125.7748
1105.281, 115.3882
1105.763, 106.2797
1106.245, 98.82373
1106.727, 92.28770
1107.209, 86.12865
1107.691, 80.30206
1108.173, 74.95798
1108.655, 70.06402
1109.138, 65.68810
1109.620, 62.12329
1110.102, 58.74173
1110.584, 55.01152
1111.066, 51.32200
1111.548, 48.52127
1112.030, 46.57253
1112.512, 44.70632
1112.995, 42.77324
1113.477, 40.84614
1113.959, 38.91404
1114.441, 37.06444
1114.923, 35.34018
1115.405, 33.75164
1115.887, 32.52385
1116.369, 31.73507
1116.851, 30.78834
1117.333, 29.39977
1117.816, 27.90641
1118.298, 26.69107
1118.780, 25.69011
1119.262, 24.81920
1119.744, 24.08662
1120.226, 23.44191
1120.708, 22.92542
1121.190, 22.38608
1121.673, 21.64328
1122.155, 20.86312
1122.637, 20.57986
1123.119, 20.57647
1123.601, 20.25341
1124.083, 18.91886
1124.565, 17.90216
1125.047, 17.53220
1125.530, 17.35749
1126.012, 16.90935
1126.494, 16.27205
1126.976, 15.97031
1127.458, 15.97864
1127.940, 15.94234
1128.422, 15.67797
1128.904, 15.29915
1129.386, 14.75517
1129.869, 14.18665
1130.351, 13.84328
1130.833, 13.72010
1131.315, 13.51606
1131.797, 13.19038
1132.279, 12.87620
1132.761, 12.72031
1133.243, 12.57894
1133.725, 12.29705
1134.208, 11.92767
1134.690, 11.75582
1135.172, 11.81274
1135.654, 11.84588
1136.136, 11.81373
1136.618, 11.67152
1137.100, 11.21196
1137.582, 10.71460
1138.065, 10.53772
1138.547, 10.79012
1139.029, 10.82014
1139.511, 10.55658
1139.993, 10.28787
1140.475, 10.11731
1140.957, 10.01988
1141.439, 10.00468
1141.922, 10.01730
1142.404, 9.950273
1142.886, 9.707793
1143.368, 9.592031
1143.850, 9.686707
1144.332, 9.771976
1144.814, 9.697964
1145.296, 9.524264
1145.778, 9.406393
1146.260, 9.320912
1146.743, 9.195648
1147.225, 8.915015
1147.707, 8.721933
1148.189, 8.683587
1148.671, 8.688505
1149.153, 8.619042
1149.635, 8.504907
1150.117, 8.544928
1150.600, 8.707652
1151.082, 8.750429
1151.564, 8.381555
1152.046, 8.074344
1152.528, 8.032938
1153.010, 8.116170
1153.492, 8.155452
1153.974, 8.152360
1154.457, 8.109296
1154.939, 8.027761
1155.421, 7.969749
1155.903, 8.017816
1156.385, 8.061422
1156.867, 8.000035
1157.349, 7.894948
1157.831, 7.897130
1158.313, 8.008618
1158.796, 8.097940
1159.278, 8.143403
1159.760, 8.164799
1160.242, 8.161646
1160.724, 8.155439
1161.206, 8.180284
1161.688, 8.224744
1162.170, 8.176107
1162.652, 8.016597
1163.135, 7.960839
1163.617, 8.091066
1164.099, 8.269621
1164.581, 8.464142
1165.063, 8.560902
1165.545, 8.370072
1166.027, 7.837736
1166.509, 7.545306
1166.992, 7.529199
1167.474, 7.533468
1167.956, 7.422791
1168.438, 7.340191
1168.920, 7.551438
1169.402, 7.875366
1169.884, 8.050496
1170.366, 7.978600
1170.849, 7.900698
1171.331, 7.811438
1171.813, 7.733623
1172.295, 7.667422
1172.777, 7.631534
1173.259, 7.670964
1173.741, 7.760129
1174.223, 7.849513
1174.705, 7.985338
1175.188, 7.992307
1175.670, 7.811054
1176.152, 7.653147
1176.634, 7.734804
1177.116, 7.921353
1177.598, 7.929885
1178.080, 7.812192
1178.562, 7.732690
1179.044, 7.782297
1179.527, 7.815499
1180.009, 7.816329
1180.491, 7.808045
1180.973, 7.783278
1181.455, 7.776637
1181.937, 7.935197
1182.419, 8.208431
1182.901, 8.338223
1183.384, 8.106417
1183.866, 7.871545
1184.348, 7.654149
1184.830, 7.519121
1185.312, 7.633206
1185.794, 7.876471
1186.276, 7.895175
1186.758, 7.686370
1187.240, 7.522093
1187.723, 7.517543
1188.205, 7.587293
1188.687, 7.744275
1189.169, 7.914536
1189.651, 7.961255
1190.133, 7.921417
1190.615, 7.912448
1191.097, 7.949753
1191.579, 7.966352
1192.062, 7.944036
1192.544, 7.873550
1193.026, 7.724675
1193.508, 7.556786
1193.990, 7.504448
1194.472, 7.545146
1194.954, 7.617637
1195.436, 7.719904
1195.919, 7.766164
1196.401, 7.685101
1196.883, 7.571414
1197.365, 7.444467
1197.847, 7.328007
1198.329, 7.309401
1198.811, 7.364486
1199.293, 7.401831
1199.776, 7.400268
1200.258, 7.372928
1200.740, 7.291728
1201.222, 7.223185
1201.704, 7.207452
1202.186, 7.227652
1202.668, 7.212312
1203.150, 7.172472
1203.632, 7.156191
1204.115, 7.191768
1204.597, 7.214313
1205.079, 7.153106
1205.561, 7.113757
1206.043, 7.172884
1206.525, 7.303520
1207.007, 7.380200
1207.489, 7.402358
1207.971, 7.363349
1208.454, 7.215847
1208.936, 7.097313
1209.418, 7.059297
1209.900, 7.083536
1210.382, 7.188687
1210.864, 7.352371
1211.346, 7.414360
1211.828, 7.385481
1212.311, 7.313343
1212.793, 7.161773
1213.275, 7.058103
1213.757, 7.070027
1214.239, 7.127899
1214.721, 7.210696
1215.203, 7.303532
1215.685, 7.246370
1216.167, 7.074621
1216.650, 6.975763
1217.132, 7.159266
1217.614, 7.276412
1218.096, 7.174655
1218.578, 7.010825
1219.060, 6.916632
1219.542, 6.881319
1220.024, 6.806325
1220.506, 6.708310
1220.989, 6.685536
1221.471, 6.873629
1221.953, 7.028285
1222.435, 7.050691
1222.917, 7.047110
1223.399, 7.175256
1223.881, 7.378581
1224.363, 7.336887
1224.846, 7.076640
1225.328, 6.822579
1225.810, 6.616225
1226.292, 6.534923
1226.774, 6.646525
1227.256, 6.804720
1227.738, 6.819541
1228.220, 6.736834
1228.703, 6.741601
1229.185, 6.826205
1229.667, 6.868004
1230.149, 6.782329
1230.631, 6.673738
1231.113, 6.513746
1231.595, 6.419729
1232.077, 6.622424
1232.559, 6.994658
1233.042, 7.181813
1233.524, 7.171541
1234.006, 7.085479
1234.488, 6.874827
1234.970, 6.735924
1235.452, 6.729997
1235.934, 6.765604
1236.416, 6.701037
1236.898, 6.591605
1237.381, 6.584549
1237.863, 6.676818
1238.345, 6.716659
1238.827, 6.562735
1239.309, 6.508405
1239.791, 6.646253
1240.273, 6.804328
1240.755, 6.675426
1241.238, 6.435786
1241.720, 6.460328
1242.202, 6.752530
1242.684, 6.923712
1243.166, 6.824754
1243.648, 6.757968
1244.130, 6.782339
1244.612, 6.849519
1245.094, 6.966452
1245.577, 7.046869
1246.059, 6.892035
1246.541, 6.512326
1247.023, 6.341906
1247.505, 6.485145
1247.987, 6.631881
1248.469, 6.727872
1248.951, 6.769624
1249.433, 6.691766
1249.916, 6.595268
1250.398, 6.615957
1250.880, 6.757856
1251.362, 6.869905
1251.844, 6.958404
1252.326, 6.948474
1252.808, 6.797450
1253.290, 6.654512
1253.773, 6.720900
1254.255, 6.845406
1254.737, 6.864245
1255.219, 6.782941
1255.701, 6.774485
1256.183, 6.845357
1256.665, 6.946078
1257.147, 7.077454
1257.630, 7.165759
1258.112, 7.107449
1258.594, 7.005184
1259.076, 6.914637
1259.558, 6.855529
1260.040, 6.950806
1260.522, 7.196396
1261.004, 7.284628
1261.486, 7.125527
1261.969, 6.956928
1262.451, 6.963634
1262.933, 7.020231
1263.415, 6.751655
1263.897, 7.147612
1264.379, 7.374888
1264.861, 7.442595
1265.343, 6.869861
1265.825, 7.126389
1266.308, 7.052001
1266.790, 6.964963
1267.272, 7.341034
1267.754, 6.866539
1268.236, 7.237257
1268.718, 7.271966
1269.200, 7.461896
1269.682, 7.318834
1270.165, 7.279962
1270.647, 7.576123
1271.129, 7.688289
1271.611, 7.510729
1272.093, 7.716400
1272.575, 7.240117
1273.057, 7.364115
1273.539, 7.747659
1274.021, 7.591839
1274.504, 7.808621
1274.986, 7.884816
1275.468, 7.318918
1275.950, 7.872397
1276.432, 7.943202
1276.914, 7.518363
1277.396, 8.036494
1277.878, 7.682106
1278.360, 7.640486
1278.843, 7.834585
1279.325, 7.784978
1279.807, 7.625282
1280.289, 7.426813
1280.771, 7.337629
1281.253, 7.343363
1281.735, 7.552416
1282.217, 7.759298
1282.700, 7.656472
1283.182, 7.263025
1283.664, 7.222282
1284.146, 7.578958
1284.628, 7.752246
1285.110, 7.569518
1285.592, 7.315509
1286.074, 7.150305
1286.557, 7.100321
1287.039, 7.274416
1287.521, 7.571550
1288.003, 7.589876
1288.485, 7.357540
1288.967, 7.220419
1289.449, 7.264747
1289.931, 7.313544
1290.413, 7.195837
1290.896, 7.131484
1291.378, 7.254712
1291.860, 7.474367
1292.342, 7.545393
1292.824, 7.514904
1293.306, 7.559080
1293.788, 7.713937
1294.270, 7.848527
1294.752, 7.911951
1295.235, 7.941148
1295.717, 7.939188
1296.199, 7.916450
1296.681, 7.876628
1297.163, 7.834746
1297.645, 7.830941
1298.127, 7.869839
1298.609, 7.855546
1299.092, 7.735177
1299.574, 7.692067
1300.056, 7.792342
1300.538, 7.901718
1301.020, 7.788923
1301.502, 7.641716
1301.984, 7.701109
1302.466, 7.965384
1302.948, 8.196019
1303.431, 8.408136
1303.913, 8.462102
1304.395, 8.335790
1304.877, 8.025013
##END=



