##NAMES=Roscherite
##RRUFFID=R070308
##IDEAL CHEMISTRY=Ca_2_Mn^2+^_5_Be_4_(PO_4_)_6_(OH)_4_&#183;6H_2_O
##LOCALITY=Black Mountain Quarry, Rumford, Oxford County, Maine, USA
##OWNER=RRUFF
##SOURCE=James Shigley
##DESCRIPTION=Reddish brown prismatic crystals associated with white albite. The color is a thin coating of something. Based on cell parameters, we cannot exclude greifensteinite as the identification, without chemical analysis.
##STATUS=The identification of this mineral has been confirmed only by single crystal X-ray diffraction.
##URL=rruff.info/R070308
157.3757, 12024.43
157.8578, 12082.29
158.3399, 12159.98
158.8221, 12236.56
159.3042, 12299.10
159.7863, 12330.39
160.2684, 12360.94
160.7505, 12404.49
161.2326, 12458.96
161.7148, 12505.30
162.1969, 12518.07
162.6790, 12525.73
163.1611, 12555.50
163.6432, 12635.08
164.1253, 12724.31
164.6075, 12803.26
165.0896, 12871.25
165.5717, 12936.65
166.0538, 13000.27
166.5359, 13064.95
167.0180, 13134.83
167.5002, 13211.86
167.9823, 13295.12
168.4644, 13390.54
168.9465, 13502.20
169.4286, 13600.66
169.9107, 13653.66
170.3929, 13676.81
170.8750, 13704.36
171.3571, 13763.81
171.8392, 13831.81
172.3213, 13881.87
172.8034, 13907.11
173.2856, 13924.53
173.7677, 13952.74
174.2498, 13987.27
174.7319, 14012.40
175.2140, 14014.42
175.6961, 14002.13
176.1783, 13987.07
176.6604, 13968.25
177.1425, 13953.13
177.6246, 13954.21
178.1067, 13969.44
178.5888, 13985.53
179.0710, 13990.10
179.5531, 13988.30
180.0352, 13991.92
180.5173, 14005.66
180.9994, 14024.13
181.4815, 14039.56
181.9637, 14052.06
182.4458, 14061.11
182.9279, 14059.98
183.4100, 14053.36
183.8921, 14059.00
184.3742, 14084.34
184.8564, 14124.18
185.3385, 14170.73
185.8206, 14225.41
186.3027, 14274.13
186.7848, 14300.26
187.2669, 14306.02
187.7491, 14308.98
188.2312, 14307.99
188.7133, 14308.56
189.1954, 14335.38
189.6775, 14391.77
190.1596, 14459.05
190.6418, 14521.90
191.1239, 14579.72
191.6060, 14621.30
192.0881, 14635.74
192.5702, 14626.38
193.0524, 14619.37
193.5345, 14612.12
194.0166, 14613.84
194.4987, 14645.63
194.9808, 14709.73
195.4629, 14770.06
195.9451, 14807.26
196.4272, 14822.28
196.9093, 14834.94
197.3914, 14841.67
197.8735, 14852.67
198.3556, 14896.87
198.8378, 14981.43
199.3199, 15052.98
199.8020, 15072.25
200.2841, 15034.16
200.7662, 15017.47
201.2483, 15028.85
201.7305, 15062.05
202.2126, 15106.50
202.6947, 15166.46
203.1768, 15221.85
203.6589, 15259.21
204.1410, 15275.92
204.6232, 15289.29
205.1053, 15296.19
205.5874, 15302.73
206.0695, 15332.42
206.5516, 15392.14
207.0337, 15456.94
207.5159, 15514.12
207.9980, 15565.26
208.4801, 15593.32
208.9622, 15584.18
209.4443, 15550.53
209.9264, 15561.22
210.4086, 15635.38
210.8907, 15715.68
211.3728, 15754.86
211.8549, 15741.33
212.3370, 15726.36
212.8191, 15713.24
213.3013, 15703.63
213.7834, 15713.92
214.2655, 15753.92
214.7476, 15798.19
215.2297, 15823.14
215.7118, 15821.81
216.1940, 15821.35
216.6761, 15827.82
217.1582, 15840.67
217.6403, 15845.63
218.1224, 15836.59
218.6045, 15827.71
219.0867, 15835.59
219.5688, 15871.84
220.0509, 15896.62
220.5330, 15896.83
221.0151, 15871.68
221.4972, 15859.66
221.9794, 15861.72
222.4615, 15875.68
222.9436, 15902.41
223.4257, 15953.50
223.9078, 15992.99
224.3899, 16006.00
224.8721, 15988.85
225.3542, 15997.50
225.8363, 16043.04
226.3184, 16103.89
226.8005, 16158.61
227.2827, 16216.11
227.7648, 16248.42
228.2469, 16238.01
228.7290, 16174.75
229.2111, 16150.14
229.6932, 16184.21
230.1754, 16240.96
230.6575, 16273.00
231.1396, 16267.00
231.6217, 16259.19
232.1038, 16258.06
232.5859, 16263.49
233.0681, 16276.96
233.5502, 16302.43
234.0323, 16332.99
234.5144, 16359.66
234.9965, 16383.82
235.4786, 16400.99
235.9608, 16404.50
236.4429, 16385.45
236.9250, 16395.47
237.4071, 16448.84
237.8892, 16522.44
238.3713, 16580.32
238.8535, 16618.61
239.3356, 16647.49
239.8177, 16668.47
240.2998, 16678.78
240.7819, 16691.80
241.2640, 16707.69
241.7462, 16726.38
242.2283, 16748.43
242.7104, 16776.63
243.1925, 16803.53
243.6746, 16826.09
244.1567, 16842.40
244.6389, 16861.19
245.1210, 16882.72
245.6031, 16906.49
246.0852, 16931.04
246.5673, 16954.08
247.0494, 16981.84
247.5316, 17017.07
248.0137, 17061.78
248.4958, 17110.30
248.9779, 17176.75
249.4600, 17238.73
249.9421, 17245.12
250.4243, 17154.06
250.9064, 17082.64
251.3885, 17081.75
251.8706, 17182.35
252.3527, 17248.03
252.8348, 17260.48
253.3170, 17249.32
253.7991, 17276.06
254.2812, 17367.96
254.7633, 17444.82
255.2454, 17469.47
255.7275, 17419.88
256.2097, 17401.06
256.6918, 17426.50
257.1739, 17473.62
257.6560, 17498.97
258.1381, 17490.56
258.6202, 17485.14
259.1024, 17497.06
259.5845, 17529.64
260.0666, 17567.62
260.5487, 17619.46
261.0308, 17670.17
261.5129, 17689.73
261.9951, 17664.13
262.4772, 17640.49
262.9593, 17638.42
263.4414, 17662.83
263.9235, 17687.13
264.4056, 17716.09
264.8878, 17740.69
265.3699, 17739.98
265.8520, 17700.96
266.3341, 17674.03
266.8162, 17686.95
267.2983, 17750.62
267.7805, 17779.36
268.2626, 17759.31
268.7447, 17719.38
269.2268, 17712.56
269.7089, 17748.55
270.1910, 17782.62
270.6732, 17793.71
271.1553, 17777.80
271.6374, 17779.63
272.1195, 17803.90
272.6016, 17839.05
273.0837, 17865.39
273.5659, 17881.26
274.0480, 17897.51
274.5301, 17921.00
275.0122, 17952.24
275.4943, 17970.76
275.9764, 17972.39
276.4586, 17969.17
276.9407, 17979.83
277.4228, 18005.54
277.9049, 18033.82
278.3870, 18062.73
278.8691, 18091.81
279.3513, 18108.78
279.8334, 18111.71
280.3155, 18107.50
280.7976, 18099.19
281.2798, 18085.98
281.7619, 18090.01
282.2440, 18130.78
282.7261, 18200.89
283.2082, 18240.87
283.6903, 18246.17
284.1725, 18238.02
284.6546, 18239.48
285.1367, 18250.42
285.6188, 18267.88
286.1009, 18293.09
286.5830, 18324.21
287.0652, 18354.25
287.5473, 18383.21
288.0294, 18409.54
288.5115, 18428.64
288.9936, 18441.83
289.4757, 18459.70
289.9579, 18491.40
290.4400, 18529.03
290.9221, 18548.37
291.4042, 18548.18
291.8863, 18545.27
292.3684, 18556.34
292.8506, 18579.20
293.3327, 18605.34
293.8148, 18640.02
294.2969, 18671.97
294.7790, 18670.78
295.2611, 18636.34
295.7433, 18606.24
296.2254, 18617.97
296.7075, 18660.56
297.1896, 18703.74
297.6717, 18746.52
298.1538, 18779.69
298.6360, 18781.92
299.1181, 18755.55
299.6002, 18728.19
300.0823, 18719.50
300.5644, 18724.80
301.0465, 18734.90
301.5287, 18746.02
302.0108, 18762.60
302.4929, 18795.54
302.9750, 18841.71
303.4571, 18881.20
303.9392, 18894.56
304.4214, 18895.30
304.9035, 18902.79
305.3856, 18925.80
305.8677, 18949.68
306.3498, 18956.09
306.8319, 18950.67
307.3141, 18953.59
307.7962, 18995.34
308.2783, 19042.45
308.7604, 19056.98
309.2425, 19013.75
309.7246, 18975.04
310.2068, 18991.59
310.6889, 19045.14
311.1710, 19088.42
311.6531, 19078.01
312.1352, 19061.20
312.6173, 19077.39
313.0995, 19145.08
313.5816, 19209.40
314.0637, 19238.08
314.5458, 19246.16
315.0279, 19262.22
315.5100, 19325.87
315.9922, 19378.78
316.4743, 19380.54
316.9564, 19310.76
317.4385, 19255.24
317.9206, 19248.48
318.4027, 19271.48
318.8849, 19297.71
319.3670, 19317.36
319.8491, 19341.37
320.3312, 19377.00
320.8133, 19428.07
321.2954, 19471.23
321.7776, 19503.23
322.2597, 19525.02
322.7418, 19537.63
323.2239, 19529.62
323.7060, 19523.98
324.1881, 19523.25
324.6703, 19526.90
325.1524, 19544.19
325.6345, 19580.76
326.1166, 19628.43
326.5987, 19681.41
327.0808, 19773.69
327.5630, 19830.79
328.0451, 19826.95
328.5272, 19766.08
329.0093, 19733.97
329.4914, 19747.82
329.9735, 19775.38
330.4557, 19796.00
330.9378, 19803.96
331.4199, 19815.07
331.9020, 19831.63
332.3841, 19852.49
332.8662, 19873.32
333.3484, 19898.87
333.8305, 19916.87
334.3126, 19915.32
334.7947, 19878.98
335.2768, 19871.62
335.7589, 19904.13
336.2411, 19963.06
336.7232, 20019.23
337.2053, 20075.80
337.6874, 20119.09
338.1695, 20141.36
338.6516, 20140.78
339.1338, 20129.47
339.6159, 20100.46
340.0980, 20072.28
340.5801, 20085.35
341.0622, 20145.50
341.5443, 20193.97
342.0265, 20195.00
342.5086, 20156.44
342.9907, 20158.12
343.4728, 20206.85
343.9549, 20269.09
344.4370, 20299.84
344.9192, 20302.59
345.4013, 20313.11
345.8834, 20355.84
346.3655, 20411.83
346.8476, 20420.17
347.3297, 20379.33
347.8119, 20335.76
348.2940, 20326.89
348.7761, 20349.74
349.2582, 20399.13
349.7403, 20496.79
350.2225, 20597.50
350.7046, 20625.53
351.1867, 20589.18
351.6688, 20550.43
352.1509, 20560.18
352.6331, 20594.46
353.1152, 20613.35
353.5973, 20594.23
354.0794, 20583.62
354.5615, 20644.63
355.0436, 20752.94
355.5258, 20834.46
356.0079, 20811.91
356.4900, 20765.05
356.9721, 20771.13
357.4542, 20859.67
357.9363, 20941.13
358.4185, 20946.36
358.9006, 20912.53
359.3827, 20903.99
359.8648, 20984.32
360.3469, 21065.89
360.8290, 21096.46
361.3112, 21063.91
361.7933, 21037.56
362.2754, 21038.32
362.7575, 21056.92
363.2396, 21083.41
363.7217, 21127.80
364.2039, 21167.27
364.6860, 21189.86
365.1681, 21195.31
365.6502, 21215.24
366.1323, 21274.02
366.6144, 21335.95
367.0966, 21376.28
367.5787, 21351.16
368.0608, 21357.46
368.5429, 21424.66
369.0250, 21535.73
369.5071, 21599.64
369.9893, 21578.32
370.4714, 21554.00
370.9535, 21570.78
371.4356, 21662.56
371.9177, 21715.14
372.3998, 21708.98
372.8820, 21672.14
373.3641, 21669.55
373.8462, 21714.32
374.3283, 21758.95
374.8104, 21777.60
375.2925, 21765.44
375.7747, 21791.15
376.2568, 21865.21
376.7389, 21956.74
377.2210, 22032.04
377.7031, 22092.29
378.1852, 22116.51
378.6674, 22081.70
379.1495, 22006.70
379.6316, 21969.97
380.1137, 21973.20
380.5958, 22002.34
381.0779, 22062.07
381.5601, 22143.23
382.0422, 22192.42
382.5243, 22184.74
383.0064, 22157.74
383.4885, 22177.72
383.9706, 22239.60
384.4528, 22304.27
384.9349, 22347.87
385.4170, 22376.59
385.8991, 22397.27
386.3812, 22405.53
386.8633, 22424.23
387.3455, 22485.02
387.8276, 22572.87
388.3097, 22654.54
388.7918, 22716.76
389.2739, 22762.91
389.7560, 22786.31
390.2382, 22783.31
390.7203, 22796.08
391.2024, 22869.90
391.6845, 22964.17
392.1666, 23033.02
392.6487, 23021.76
393.1309, 23018.74
393.6130, 23071.91
394.0951, 23175.47
394.5772, 23255.50
395.0593, 23270.27
395.5414, 23270.18
396.0236, 23286.52
396.5057, 23334.41
396.9878, 23386.27
397.4699, 23460.66
397.9520, 23539.85
398.4341, 23566.78
398.9163, 23483.51
399.3984, 23408.09
399.8805, 23387.25
400.3626, 23446.78
400.8447, 23482.87
401.3268, 23480.53
401.8090, 23465.79
402.2911, 23480.02
402.7732, 23540.43
403.2553, 23584.35
403.7374, 23593.20
404.2195, 23568.54
404.7017, 23532.26
405.1838, 23475.10
405.6659, 23431.23
406.1480, 23445.12
406.6301, 23518.07
407.1122, 23563.18
407.5944, 23558.68
408.0765, 23523.75
408.5586, 23504.44
409.0407, 23500.32
409.5228, 23493.13
410.0049, 23458.85
410.4871, 23412.02
410.9692, 23399.20
411.4513, 23431.77
411.9334, 23471.49
412.4155, 23467.24
412.8976, 23433.50
413.3798, 23412.18
413.8619, 23442.91
414.3440, 23483.52
414.8261, 23480.71
415.3082, 23433.71
415.7903, 23397.29
416.2725, 23414.98
416.7546, 23459.94
417.2367, 23502.92
417.7188, 23542.38
418.2009, 23568.57
418.6830, 23573.51
419.1652, 23560.33
419.6473, 23540.40
420.1294, 23503.71
420.6115, 23471.34
421.0937, 23455.04
421.5758, 23462.52
422.0579, 23473.65
422.5400, 23485.61
423.0221, 23499.70
423.5042, 23518.45
423.9864, 23547.77
424.4685, 23575.12
424.9506, 23601.86
425.4327, 23629.15
425.9148, 23632.22
426.3969, 23587.88
426.8791, 23545.74
427.3612, 23553.86
427.8433, 23630.92
428.3254, 23700.11
428.8075, 23752.49
429.2896, 23788.97
429.7718, 23809.38
430.2539, 23811.83
430.7360, 23808.82
431.2181, 23807.77
431.7002, 23808.27
432.1823, 23800.71
432.6645, 23780.92
433.1466, 23765.50
433.6287, 23782.54
434.1108, 23826.40
434.5929, 23869.66
435.0750, 23902.52
435.5572, 23926.73
436.0393, 23941.43
436.5214, 23947.19
437.0035, 23955.89
437.4856, 23992.22
437.9677, 24032.69
438.4499, 24040.28
438.9320, 23985.68
439.4141, 23930.05
439.8962, 23916.77
440.3783, 23936.50
440.8604, 23964.76
441.3426, 23998.35
441.8247, 24031.39
442.3068, 24060.72
442.7889, 24085.86
443.2710, 24107.86
443.7531, 24133.98
444.2353, 24154.30
444.7174, 24158.29
445.1995, 24116.59
445.6816, 24088.78
446.1637, 24080.56
446.6458, 24092.43
447.1280, 24134.95
447.6101, 24239.86
448.0922, 24340.70
448.5743, 24397.58
449.0564, 24391.39
449.5385, 24393.27
450.0207, 24406.87
450.5028, 24427.68
450.9849, 24450.90
451.4670, 24479.39
451.9491, 24494.06
452.4312, 24478.47
452.9134, 24439.18
453.3955, 24428.25
453.8776, 24447.47
454.3597, 24481.71
454.8418, 24520.15
455.3239, 24562.11
455.8061, 24602.42
456.2882, 24638.31
456.7703, 24675.37
457.2524, 24732.55
457.7345, 24801.70
458.2166, 24850.54
458.6988, 24839.42
459.1809, 24807.65
459.6630, 24797.74
460.1451, 24815.74
460.6272, 24842.33
461.1093, 24878.65
461.5915, 24912.28
462.0736, 24926.88
462.5557, 24881.34
463.0378, 24850.94
463.5199, 24877.70
464.0020, 24952.61
464.4842, 25007.21
464.9663, 25007.41
465.4484, 24997.96
465.9305, 25002.85
466.4126, 25035.13
466.8947, 25060.74
467.3769, 25079.75
467.8590, 25092.00
468.3411, 25094.52
468.8232, 25074.45
469.3053, 25071.27
469.7874, 25101.84
470.2696, 25163.49
470.7517, 25206.80
471.2338, 25229.82
471.7159, 25240.37
472.1980, 25235.54
472.6801, 25216.25
473.1623, 25223.55
473.6444, 25268.54
474.1265, 25331.97
474.6086, 25392.49
475.0907, 25447.03
475.5728, 25475.70
476.0550, 25438.94
476.5371, 25379.63
477.0192, 25376.07
477.5013, 25431.47
477.9834, 25488.56
478.4655, 25493.22
478.9477, 25476.21
479.4298, 25479.23
479.9119, 25539.47
480.3940, 25591.32
480.8761, 25585.52
481.3582, 25542.09
481.8404, 25518.66
482.3225, 25538.64
482.8046, 25579.06
483.2867, 25637.97
483.7688, 25730.19
484.2509, 25788.50
484.7331, 25775.72
485.2152, 25742.56
485.6973, 25735.95
486.1794, 25768.38
486.6615, 25807.45
487.1436, 25856.28
487.6258, 25908.85
488.1079, 25931.37
488.5900, 25911.25
489.0721, 25895.50
489.5542, 25916.54
490.0363, 25974.90
490.5185, 26014.73
491.0006, 26033.33
491.4827, 26036.52
491.9648, 26016.75
492.4470, 25981.75
492.9291, 25977.27
493.4112, 26039.05
493.8933, 26122.41
494.3754, 26156.18
494.8575, 26145.97
495.3397, 26125.16
495.8218, 26103.07
496.3039, 26087.84
496.7860, 26083.62
497.2681, 26085.21
497.7502, 26119.93
498.2324, 26259.26
498.7145, 26424.54
499.1966, 26511.44
499.6787, 26401.67
500.1608, 26295.85
500.6429, 26261.65
501.1251, 26295.46
501.6072, 26316.75
502.0893, 26297.82
502.5714, 26284.91
503.0535, 26300.93
503.5356, 26359.07
504.0178, 26416.81
504.4999, 26483.32
504.9820, 26540.38
505.4641, 26552.33
505.9462, 26507.46
506.4283, 26479.30
506.9105, 26495.44
507.3926, 26543.02
507.8747, 26569.53
508.3568, 26574.03
508.8389, 26576.33
509.3210, 26589.64
509.8032, 26612.30
510.2853, 26640.83
510.7674, 26675.69
511.2495, 26712.55
511.7316, 26751.10
512.2137, 26788.27
512.6959, 26817.32
513.1780, 26822.31
513.6601, 26829.56
514.1422, 26859.63
514.6243, 26909.54
515.1064, 26957.76
515.5886, 27008.14
516.0707, 27045.74
516.5528, 27056.95
517.0349, 27016.55
517.5170, 26999.38
517.9991, 27036.89
518.4813, 27092.04
518.9634, 27115.92
519.4455, 27080.44
519.9276, 27062.49
520.4097, 27082.77
520.8918, 27134.55
521.3740, 27175.22
521.8561, 27201.67
522.3382, 27227.28
522.8203, 27265.97
523.3024, 27315.72
523.7845, 27342.33
524.2667, 27339.24
524.7488, 27331.21
525.2309, 27354.21
525.7130, 27399.25
526.1951, 27433.04
526.6772, 27427.27
527.1594, 27421.15
527.6415, 27473.94
528.1236, 27571.71
528.6057, 27654.47
529.0878, 27687.85
529.5699, 27692.38
530.0521, 27674.98
530.5342, 27627.90
531.0163, 27598.39
531.4984, 27609.27
531.9805, 27641.81
532.4626, 27676.03
532.9448, 27726.65
533.4269, 27757.34
533.9090, 27751.97
534.3911, 27722.39
534.8732, 27713.38
535.3553, 27723.73
535.8375, 27757.59
536.3196, 27824.38
536.8017, 27927.49
537.2838, 28008.96
537.7659, 28068.43
538.2480, 28109.82
538.7302, 28131.63
539.2123, 28136.79
539.6944, 28141.57
540.1765, 28143.92
540.6586, 28157.71
541.1407, 28217.89
541.6229, 28310.50
542.1050, 28386.27
542.5871, 28408.95
543.0692, 28409.48
543.5513, 28408.59
544.0334, 28407.70
544.5156, 28419.04
544.9977, 28454.23
545.4798, 28500.64
545.9619, 28548.39
546.4440, 28599.28
546.9261, 28646.03
547.4083, 28686.55
547.8904, 28722.64
548.3725, 28757.30
548.8546, 28793.92
549.3367, 28822.70
549.8188, 28832.12
550.3010, 28826.78
550.7831, 28870.97
551.2652, 28981.38
551.7473, 29085.93
552.2294, 29119.26
552.7115, 29090.66
553.1937, 29095.90
553.6758, 29147.95
554.1579, 29211.39
554.6400, 29237.13
555.1221, 29238.21
555.6042, 29252.53
556.0864, 29310.48
556.5685, 29370.70
557.0506, 29387.84
557.5327, 29371.62
558.0148, 29357.77
558.4969, 29366.21
558.9791, 29380.50
559.4612, 29390.98
559.9433, 29395.94
560.4254, 29400.42
560.9075, 29398.53
561.3896, 29400.51
561.8718, 29416.40
562.3539, 29465.91
562.8360, 29494.49
563.3181, 29488.18
563.8002, 29463.07
564.2823, 29461.36
564.7645, 29489.91
565.2466, 29509.93
565.7287, 29494.38
566.2108, 29456.76
566.6929, 29474.41
567.1750, 29549.54
567.6572, 29627.03
568.1393, 29650.69
568.6214, 29644.27
569.1035, 29654.15
569.5856, 29689.07
570.0677, 29735.10
570.5499, 29792.26
571.0320, 29850.94
571.5141, 29896.37
571.9962, 29893.16
572.4783, 29905.48
572.9604, 29980.12
573.4426, 30100.28
573.9247, 30180.32
574.4068, 30162.07
574.8889, 30140.88
575.3710, 30154.53
575.8531, 30210.90
576.3353, 30262.55
576.8174, 30318.62
577.2995, 30355.68
577.7816, 30336.48
578.2637, 30252.18
578.7458, 30213.96
579.2280, 30250.91
579.7101, 30316.86
580.1922, 30329.86
580.6743, 30296.75
581.1564, 30256.14
581.6385, 30219.88
582.1207, 30189.38
582.6028, 30168.51
583.0849, 30156.69
583.5670, 30147.99
584.0491, 30130.43
584.5313, 30120.07
585.0134, 30135.08
585.4955, 30191.44
585.9776, 30229.32
586.4597, 30220.15
586.9418, 30189.99
587.4240, 30167.98
587.9061, 30154.03
588.3882, 30150.36
588.8703, 30162.67
589.3524, 30183.93
589.8345, 30188.89
590.3167, 30169.50
590.7988, 30165.65
591.2809, 30204.72
591.7630, 30275.05
592.2451, 30310.68
592.7272, 30310.38
593.2094, 30305.02
593.6915, 30327.82
594.1736, 30362.30
594.6557, 30369.71
595.1378, 30334.50
595.6199, 30311.64
596.1021, 30360.10
596.5842, 30442.28
597.0663, 30504.79
597.5485, 30510.53
598.0306, 30513.28
598.5127, 30527.86
598.9948, 30552.92
599.4769, 30582.39
599.9590, 30635.09
600.4412, 30668.67
600.9233, 30657.33
601.4054, 30594.99
601.8875, 30590.70
602.3696, 30664.69
602.8517, 30747.30
603.3339, 30775.37
603.8160, 30753.21
604.2981, 30729.10
604.7802, 30705.88
605.2623, 30691.22
605.7444, 30700.92
606.2266, 30727.82
606.7087, 30751.98
607.1908, 30761.01
607.6729, 30770.18
608.1550, 30796.63
608.6371, 30834.20
609.1193, 30863.72
609.6014, 30868.46
610.0835, 30870.88
610.5656, 30884.75
611.0477, 30914.20
611.5298, 30927.91
612.0120, 30912.80
612.4941, 30893.79
612.9762, 30887.24
613.4583, 30895.80
613.9404, 30905.76
614.4225, 30913.31
614.9047, 30927.99
615.3868, 30971.81
615.8689, 31042.08
616.3510, 31099.63
616.8331, 31136.64
617.3152, 31150.49
617.7974, 31126.05
618.2795, 31071.84
618.7616, 31019.84
619.2437, 30973.69
619.7258, 30947.02
620.2079, 30952.99
620.6901, 30992.16
621.1722, 31044.77
621.6543, 31117.96
622.1364, 31192.81
622.6185, 31256.59
623.1006, 31308.35
623.5828, 31350.78
624.0649, 31382.84
624.5470, 31406.53
625.0291, 31420.14
625.5112, 31419.05
625.9933, 31434.50
626.4755, 31476.73
626.9576, 31531.91
627.4397, 31575.64
627.9218, 31607.63
628.4039, 31625.55
628.8860, 31604.85
629.3682, 31581.76
629.8503, 31618.54
630.3324, 31706.91
630.8145, 31783.28
631.2966, 31786.17
631.7787, 31779.98
632.2609, 31822.33
632.7430, 31945.73
633.2251, 32017.45
633.7072, 31963.32
634.1893, 31876.02
634.6714, 31830.94
635.1536, 31841.21
635.6357, 31868.09
636.1178, 31918.88
636.5999, 31974.13
637.0820, 31992.26
637.5641, 31971.42
638.0463, 31957.03
638.5284, 31970.22
639.0105, 31993.23
639.4926, 31983.22
639.9747, 31946.63
640.4568, 31920.93
640.9390, 31942.82
641.4211, 31976.72
641.9032, 31984.58
642.3853, 31963.74
642.8674, 31954.22
643.3495, 31987.65
643.8317, 32027.48
644.3138, 32047.01
644.7959, 32021.57
645.2780, 32018.29
645.7601, 32046.47
646.2422, 32088.55
646.7244, 32124.87
647.2065, 32153.91
647.6886, 32184.84
648.1707, 32222.61
648.6528, 32257.81
649.1349, 32264.12
649.6171, 32246.34
650.0992, 32238.86
650.5813, 32274.87
651.0634, 32319.21
651.5455, 32317.87
652.0276, 32280.71
652.5098, 32260.78
652.9919, 32313.06
653.4740, 32370.71
653.9561, 32386.82
654.4382, 32347.74
654.9203, 32323.09
655.4025, 32328.38
655.8846, 32344.89
656.3667, 32362.25
656.8488, 32384.00
657.3309, 32393.92
657.8130, 32386.73
658.2952, 32376.34
658.7773, 32380.05
659.2594, 32397.75
659.7415, 32431.33
660.2236, 32492.32
660.7057, 32551.03
661.1879, 32551.60
661.6700, 32513.24
662.1521, 32489.52
662.6342, 32521.25
663.1163, 32563.09
663.5984, 32587.36
664.0806, 32595.46
664.5627, 32605.03
665.0448, 32629.63
665.5269, 32647.57
666.0090, 32642.76
666.4911, 32607.35
666.9733, 32613.85
667.4554, 32683.07
667.9375, 32752.89
668.4196, 32766.66
668.9017, 32726.28
669.3839, 32692.99
669.8660, 32672.66
670.3481, 32658.41
670.8302, 32635.29
671.3123, 32612.90
671.7944, 32615.85
672.2766, 32675.42
672.7587, 32723.61
673.2408, 32679.91
673.7229, 32597.22
674.2050, 32578.18
674.6871, 32734.67
675.1693, 32867.95
675.6514, 32916.93
676.1335, 32896.48
676.6156, 32879.49
677.0977, 32865.13
677.5798, 32856.09
678.0620, 32853.41
678.5441, 32857.10
679.0262, 32872.44
679.5083, 32900.79
679.9904, 32920.36
680.4725, 32901.91
680.9547, 32866.38
681.4368, 32853.54
681.9189, 32870.29
682.4010, 32888.09
682.8831, 32872.48
683.3652, 32855.65
683.8474, 32872.64
684.3295, 32970.99
684.8116, 33040.29
685.2937, 33043.89
685.7758, 33019.24
686.2579, 33016.64
686.7401, 33052.66
687.2222, 33060.25
687.7043, 33009.79
688.1864, 32940.80
688.6685, 32966.47
689.1506, 33080.05
689.6328, 33172.45
690.1149, 33174.50
690.5970, 33140.97
691.0791, 33163.97
691.5612, 33230.68
692.0433, 33275.30
692.5255, 33230.71
693.0076, 33179.07
693.4897, 33180.70
693.9718, 33246.21
694.4539, 33287.15
694.9360, 33258.15
695.4182, 33232.71
695.9003, 33260.98
696.3824, 33371.88
696.8645, 33400.52
697.3466, 33323.36
697.8287, 33225.72
698.3109, 33203.46
698.7930, 33243.70
699.2751, 33278.42
699.7572, 33294.63
700.2393, 33306.59
700.7214, 33324.91
701.2036, 33350.00
701.6857, 33383.05
702.1678, 33451.25
702.6499, 33496.27
703.1320, 33477.67
703.6141, 33420.20
704.0963, 33386.12
704.5784, 33385.97
705.0605, 33398.43
705.5426, 33424.77
706.0247, 33459.96
706.5068, 33481.02
706.9890, 33487.46
707.4711, 33484.93
707.9532, 33464.87
708.4353, 33440.50
708.9174, 33449.72
709.3995, 33490.24
709.8817, 33540.05
710.3638, 33597.45
710.8459, 33648.41
711.3280, 33680.55
711.8101, 33692.61
712.2922, 33688.04
712.7744, 33651.78
713.2565, 33610.90
713.7386, 33581.83
714.2207, 33561.81
714.7028, 33561.95
715.1849, 33585.87
715.6671, 33623.73
716.1492, 33657.55
716.6313, 33562.29
717.1134, 33680.64
717.5955, 33750.11
718.0776, 33773.31
718.5598, 33611.72
719.0419, 33688.75
719.5240, 33670.16
720.0061, 33647.64
720.4882, 33758.27
720.9703, 33623.55
721.4525, 33732.07
721.9346, 33743.48
722.4167, 33799.34
722.8988, 33758.98
723.3809, 33748.33
723.8630, 33833.93
724.3452, 33767.92
724.8273, 33801.92
725.3094, 33842.60
725.7915, 33862.77
726.2736, 33873.77
726.7557, 33915.43
727.2379, 33982.05
727.7200, 34028.84
728.2021, 34003.54
728.6842, 33962.67
729.1663, 33951.93
729.6484, 33975.89
730.1306, 34008.81
730.6127, 34054.98
731.0948, 34098.52
731.5769, 34132.59
732.0590, 34158.93
732.5411, 34168.00
733.0233, 34156.21
733.5054, 34135.23
733.9875, 34111.59
734.4696, 34086.65
734.9517, 34070.20
735.4338, 34062.59
735.9160, 34067.07
736.3981, 34102.25
736.8802, 34146.81
737.3623, 34164.97
737.8444, 34121.26
738.3266, 34100.66
738.8087, 34160.16
739.2908, 34253.94
739.7729, 34313.70
740.2551, 34315.90
740.7372, 34324.51
741.2193, 34354.48
741.7014, 34388.23
742.1835, 34380.16
742.6656, 34329.74
743.1478, 34294.54
743.6299, 34299.66
744.1120, 34321.36
744.5941, 34314.20
745.0762, 34290.77
745.5583, 34290.05
746.0405, 34359.25
746.5226, 34430.52
747.0047, 34459.09
747.4868, 34453.12
747.9689, 34464.01
748.4510, 34512.79
748.9332, 34560.25
749.4153, 34599.31
749.8974, 34628.32
750.3795, 34620.87
750.8616, 34570.76
751.3438, 34532.45
751.8259, 34546.97
752.3080, 34597.27
752.7901, 34651.33
753.2722, 34707.05
753.7543, 34747.86
754.2365, 34753.38
754.7186, 34745.87
755.2007, 34741.96
755.6828, 34744.12
756.1649, 34746.77
756.6470, 34749.91
757.1292, 34752.49
757.6113, 34753.91
758.0934, 34754.27
758.5755, 34750.58
759.0576, 34739.36
759.5397, 34735.69
760.0219, 34762.75
760.5040, 34810.66
760.9861, 34847.86
761.4682, 34868.77
761.9503, 34880.77
762.4324, 34866.72
762.9146, 34857.02
763.3967, 34890.15
763.8788, 35018.16
764.3609, 35119.76
764.8430, 35180.35
765.3251, 35200.87
765.8073, 35166.56
766.2894, 35048.45
766.7715, 34998.62
767.2536, 35059.46
767.7357, 35157.26
768.2178, 35148.00
768.7000, 35061.87
769.1821, 35030.30
769.6642, 35130.05
770.1463, 35243.18
770.6284, 35255.65
771.1105, 35209.85
771.5927, 35187.69
772.0748, 35252.35
772.5569, 35298.89
773.0390, 35292.47
773.5211, 35253.11
774.0032, 35230.71
774.4854, 35229.65
774.9675, 35228.88
775.4496, 35220.57
775.9317, 35209.88
776.4138, 35209.18
776.8959, 35217.83
777.3781, 35232.11
777.8602, 35253.79
778.3423, 35277.27
778.8244, 35302.78
779.3065, 35327.49
779.7886, 35339.92
780.2708, 35321.01
780.7529, 35306.06
781.2350, 35315.34
781.7171, 35343.04
782.1992, 35321.11
782.6813, 35228.27
783.1635, 35171.80
783.6456, 35232.34
784.1277, 35367.53
784.6098, 35441.55
785.0919, 35457.76
785.5740, 35453.93
786.0562, 35447.08
786.5383, 35436.11
787.0204, 35410.33
787.5025, 35369.73
787.9846, 35360.08
788.4667, 35440.53
788.9489, 35507.20
789.4310, 35509.45
789.9131, 35442.38
790.3952, 35404.39
790.8773, 35399.27
791.3594, 35407.12
791.8416, 35402.50
792.3237, 35400.91
792.8058, 35463.92
793.2879, 35593.30
793.7700, 35692.83
794.2521, 35668.64
794.7343, 35604.91
795.2164, 35568.15
795.6985, 35570.05
796.1806, 35583.40
796.6627, 35616.93
797.1448, 35647.30
797.6270, 35658.08
798.1091, 35646.70
798.5912, 35633.20
799.0733, 35615.45
799.5554, 35607.30
800.0375, 35633.93
800.5197, 35676.58
801.0018, 35696.10
801.4839, 35684.39
801.9660, 35672.93
802.4481, 35686.42
802.9302, 35705.06
803.4124, 35711.82
803.8945, 35698.23
804.3766, 35684.03
804.8587, 35658.80
805.3408, 35646.73
805.8229, 35672.39
806.3051, 35735.62
806.7872, 35818.83
807.2693, 35927.39
807.7514, 36014.94
808.2335, 36013.94
808.7156, 35968.71
809.1978, 35941.25
809.6799, 35938.44
810.1620, 35974.23
810.6441, 36092.47
811.1262, 36231.08
811.6083, 36331.09
812.0905, 36400.40
812.5726, 36404.01
813.0547, 36316.74
813.5368, 36211.04
814.0189, 36184.39
814.5010, 36220.58
814.9832, 36218.32
815.4653, 36154.18
815.9474, 36085.96
816.4295, 36069.33
816.9116, 36078.72
817.3937, 36079.55
817.8759, 36041.37
818.3580, 36038.54
818.8401, 36132.50
819.3222, 36237.86
819.8043, 36267.10
820.2864, 36197.20
820.7686, 36159.20
821.2507, 36169.61
821.7328, 36199.69
822.2149, 36225.91
822.6970, 36241.57
823.1791, 36220.40
823.6613, 36139.70
824.1434, 36078.72
824.6255, 36117.13
825.1076, 36192.16
825.5897, 36233.34
826.0718, 36162.96
826.5540, 36158.92
827.0361, 36261.22
827.5182, 36384.32
828.0003, 36420.98
828.4824, 36371.99
828.9645, 36321.96
829.4467, 36278.93
829.9288, 36256.17
830.4109, 36278.30
830.8930, 36327.57
831.3751, 36380.81
831.8572, 36444.52
832.3394, 36481.74
832.8215, 36455.61
833.3036, 36409.34
833.7857, 36390.93
834.2678, 36408.13
834.7499, 36434.21
835.2321, 36473.32
835.7142, 36507.36
836.1963, 36498.15
836.6784, 36462.60
837.1605, 36472.09
837.6426, 36551.56
838.1248, 36624.50
838.6069, 36610.36
839.0890, 36567.23
839.5711, 36562.70
840.0532, 36659.81
840.5353, 36700.97
841.0175, 36636.48
841.4996, 36555.94
841.9817, 36562.98
842.4638, 36662.55
842.9459, 36719.14
843.4280, 36715.49
843.9102, 36691.56
844.3923, 36690.69
844.8744, 36699.07
845.3565, 36689.02
845.8386, 36643.95
846.3207, 36622.14
846.8029, 36671.55
847.2850, 36739.07
847.7671, 36777.27
848.2492, 36772.36
848.7313, 36774.07
849.2134, 36784.11
849.6956, 36796.37
850.1777, 36801.19
850.6598, 36802.92
851.1419, 36817.44
851.6240, 36847.24
852.1061, 36884.59
852.5883, 36949.95
853.0704, 37004.33
853.5525, 37001.32
854.0346, 36896.36
854.5167, 36857.06
854.9988, 36929.54
855.4810, 37020.06
855.9631, 37062.01
856.4452, 37054.67
856.9273, 37047.65
857.4094, 37041.89
857.8915, 37040.27
858.3737, 37048.14
858.8558, 37060.27
859.3379, 37066.56
859.8200, 37064.57
860.3021, 37076.55
860.7842, 37140.85
861.2664, 37194.31
861.7485, 37195.36
862.2306, 37136.14
862.7127, 37104.55
863.1948, 37102.77
863.6769, 37117.93
864.1591, 37156.07
864.6412, 37200.83
865.1233, 37195.54
865.6054, 37145.08
866.0875, 37132.85
866.5696, 37269.64
867.0518, 37409.63
867.5339, 37450.91
868.0160, 37381.33
868.4981, 37333.98
868.9802, 37316.64
869.4623, 37305.86
869.9445, 37290.18
870.4266, 37272.27
870.9087, 37263.00
871.3908, 37262.51
871.8729, 37273.11
872.3550, 37295.73
872.8372, 37330.29
873.3193, 37387.95
873.8014, 37462.04
874.2835, 37513.73
874.7656, 37509.07
875.2477, 37511.70
875.7299, 37544.21
876.2120, 37594.46
876.6941, 37609.65
877.1762, 37589.84
877.6583, 37579.62
878.1404, 37605.48
878.6226, 37643.72
879.1047, 37663.98
879.5869, 37671.20
880.0690, 37678.55
880.5511, 37707.18
881.0332, 37717.40
881.5153, 37677.40
881.9974, 37618.07
882.4796, 37603.11
882.9617, 37638.75
883.4438, 37686.02
883.9259, 37740.28
884.4080, 37791.98
884.8901, 37828.46
885.3723, 37850.06
885.8544, 37856.71
886.3365, 37841.06
886.8186, 37822.27
887.3007, 37798.21
887.7828, 37780.77
888.2650, 37787.46
888.7471, 37828.35
889.2292, 37867.54
889.7113, 37905.15
890.1934, 37933.64
890.6755, 37931.59
891.1577, 37912.42
891.6398, 37922.57
892.1219, 37975.86
892.6040, 38031.29
893.0861, 38069.37
893.5682, 38090.29
894.0504, 38093.82
894.5325, 38079.54
895.0146, 38040.23
895.4967, 37951.24
895.9788, 37882.71
896.4609, 37913.21
896.9431, 38023.52
897.4252, 38093.84
897.9073, 38117.57
898.3894, 38125.40
898.8715, 38126.03
899.3536, 38131.91
899.8358, 38164.40
900.3179, 38229.68
900.8000, 38252.98
901.2821, 38196.72
901.7642, 38143.32
902.2463, 38127.98
902.7285, 38147.82
903.2106, 38191.41
903.6927, 38256.98
904.1748, 38303.04
904.6569, 38282.81
905.1390, 38247.14
905.6212, 38250.57
906.1033, 38285.20
906.5854, 38312.18
907.0675, 38313.09
907.5496, 38314.22
908.0317, 38322.95
908.5139, 38335.71
908.9960, 38337.71
909.4781, 38328.88
909.9602, 38332.40
910.4423, 38354.13
910.9244, 38395.54
911.4066, 38485.97
911.8887, 38592.07
912.3708, 38653.41
912.8529, 38594.83
913.3350, 38558.89
913.8171, 38581.37
914.2993, 38630.79
914.7814, 38665.88
915.2635, 38685.06
915.7456, 38717.59
916.2277, 38774.36
916.7098, 38815.88
917.1920, 38769.78
917.6741, 38688.91
918.1562, 38654.31
918.6383, 38694.83
919.1204, 38738.20
919.6025, 38770.55
920.0847, 38791.93
920.5668, 38800.80
921.0489, 38795.43
921.5310, 38783.89
922.0131, 38763.12
922.4952, 38761.05
922.9774, 38823.02
923.4595, 38907.07
923.9416, 38948.54
924.4237, 38945.56
924.9058, 38936.60
925.3879, 38936.06
925.8701, 38932.73
926.3522, 38907.70
926.8343, 38870.66
927.3164, 38920.14
927.7985, 39070.25
928.2806, 39177.06
928.7628, 39145.06
929.2449, 39058.66
929.7270, 39043.55
930.2091, 39083.31
930.6912, 39133.04
931.1733, 39185.03
931.6555, 39231.89
932.1376, 39279.60
932.6197, 39316.88
933.1018, 39316.02
933.5839, 39269.11
934.0660, 39243.88
934.5482, 39254.28
935.0303, 39283.93
935.5124, 39317.86
935.9945, 39354.70
936.4766, 39391.17
936.9587, 39425.36
937.4409, 39463.89
937.9230, 39522.43
938.4051, 39576.08
938.8872, 39598.93
939.3693, 39578.84
939.8514, 39613.55
940.3336, 39712.05
940.8157, 39797.31
941.2978, 39783.48
941.7799, 39727.23
942.2620, 39701.38
942.7441, 39711.71
943.2263, 39759.50
943.7084, 39906.39
944.1905, 40024.82
944.6726, 40055.55
945.1547, 40013.55
945.6368, 39983.16
946.1190, 39962.75
946.6011, 39981.47
947.0832, 40081.82
947.5653, 40195.86
948.0474, 40224.30
948.5295, 40196.26
949.0117, 40179.48
949.4938, 40216.28
949.9759, 40240.90
950.4580, 40219.95
950.9401, 40196.27
951.4222, 40251.38
951.9044, 40387.67
952.3865, 40463.95
952.8686, 40446.88
953.3507, 40418.44
953.8328, 40477.41
954.3149, 40571.63
954.7971, 40630.55
955.2792, 40624.05
955.7613, 40644.40
956.2434, 40726.13
956.7255, 40812.95
957.2076, 40866.29
957.6898, 40887.96
958.1719, 40940.86
958.6540, 41024.89
959.1361, 41106.54
959.6182, 41171.92
960.1003, 41218.07
960.5825, 41218.70
961.0646, 41189.02
961.5467, 41218.80
962.0288, 41368.17
962.5109, 41510.88
962.9930, 41613.89
963.4752, 41692.52
963.9573, 41783.82
964.4394, 41884.02
964.9215, 41971.99
965.4036, 42030.09
965.8857, 42096.02
966.3679, 42173.20
966.8500, 42287.31
967.3321, 42479.62
967.8142, 42853.25
968.2963, 43116.09
968.7784, 43234.88
969.2606, 43303.26
969.7427, 43413.05
970.2248, 43550.00
970.7069, 43641.34
971.1890, 43682.39
971.6711, 43781.77
972.1533, 44062.91
972.6354, 44381.85
973.1175, 44642.72
973.5996, 44842.23
974.0817, 45038.75
974.5638, 45235.81
975.0460, 45415.95
975.5281, 45568.73
976.0102, 45705.36
976.4923, 45861.11
976.9744, 46022.85
977.4565, 46152.13
977.9387, 46210.65
978.4208, 46259.00
978.9029, 46333.83
979.3850, 46402.09
979.8671, 46419.01
980.3492, 46380.48
980.8314, 46306.74
981.3135, 46193.44
981.7956, 46073.41
982.2777, 45991.01
982.7598, 45919.69
983.2419, 45818.76
983.7241, 45679.02
984.2062, 45537.39
984.6883, 45360.37
985.1704, 45233.71
985.6525, 45222.95
986.1346, 45309.14
986.6168, 45271.39
987.0989, 45113.81
987.5810, 44965.57
988.0631, 44922.19
988.5452, 44903.90
989.0273, 44831.84
989.5095, 44725.60
989.9916, 44637.31
990.4737, 44609.69
990.9558, 44543.41
991.4379, 44406.63
991.9200, 44256.72
992.4022, 44204.96
992.8843, 44223.43
993.3664, 44181.08
993.8485, 44045.85
994.3306, 43902.60
994.8127, 43801.95
995.2949, 43724.32
995.7770, 43653.48
996.2591, 43585.89
996.7412, 43543.73
997.2233, 43534.56
997.7054, 43524.71
998.1876, 43499.45
998.6697, 43456.99
999.1518, 43367.00
999.6339, 43249.74
1000.116, 43184.46
1000.598, 43277.54
1001.080, 43345.91
1001.562, 43314.97
1002.044, 43225.54
1002.527, 43130.42
1003.009, 43025.34
1003.491, 43002.18
1003.973, 43096.62
1004.455, 43197.63
1004.937, 43180.02
1005.419, 43096.24
1005.901, 43005.63
1006.384, 42912.71
1006.866, 42839.93
1007.348, 42788.29
1007.830, 42758.07
1008.312, 42754.64
1008.794, 42773.47
1009.276, 42795.43
1009.758, 42818.07
1010.240, 42822.32
1010.723, 42787.04
1011.205, 42739.76
1011.687, 42681.27
1012.169, 42626.09
1012.651, 42609.36
1013.133, 42637.41
1013.615, 42695.89
1014.097, 42801.37
1014.580, 42886.86
1015.062, 42819.75
1015.544, 42676.13
1016.026, 42610.81
1016.508, 42667.94
1016.990, 42712.08
1017.472, 42664.42
1017.954, 42610.50
1018.436, 42595.96
1018.919, 42620.01
1019.401, 42674.28
1019.883, 42758.88
1020.365, 42827.04
1020.847, 42850.13
1021.329, 42845.35
1021.811, 42824.29
1022.293, 42789.25
1022.776, 42744.09
1023.258, 42662.03
1023.740, 42619.82
1024.222, 42639.75
1024.704, 42677.16
1025.186, 42668.65
1025.668, 42625.76
1026.150, 42580.30
1026.632, 42534.23
1027.115, 42517.77
1027.597, 42582.38
1028.079, 42654.75
1028.561, 42679.79
1029.043, 42659.86
1029.525, 42659.40
1030.007, 42678.77
1030.489, 42718.07
1030.972, 42807.65
1031.454, 42882.91
1031.936, 42814.93
1032.418, 42668.68
1032.900, 42584.28
1033.382, 42673.71
1033.864, 42732.23
1034.346, 42737.15
1034.828, 42707.50
1035.311, 42647.17
1035.793, 42565.40
1036.275, 42536.23
1036.757, 42565.61
1037.239, 42593.98
1037.721, 42559.92
1038.203, 42526.14
1038.685, 42546.00
1039.167, 42613.73
1039.650, 42654.80
1040.132, 42662.38
1040.614, 42671.80
1041.096, 42695.60
1041.578, 42725.64
1042.060, 42754.47
1042.542, 42778.26
1043.024, 42788.95
1043.507, 42773.81
1043.989, 42766.11
1044.471, 42778.49
1044.953, 42792.28
1045.435, 42792.08
1045.917, 42779.05
1046.399, 42765.12
1046.881, 42751.09
1047.364, 42746.98
1047.846, 42776.20
1048.328, 42802.26
1048.810, 42787.81
1049.292, 42746.84
1049.774, 42745.73
1050.256, 42802.41
1050.738, 42834.99
1051.220, 42822.66
1051.703, 42792.25
1052.185, 42762.56
1052.667, 42748.68
1053.149, 42786.97
1053.631, 42900.89
1054.113, 42987.98
1054.595, 43006.29
1055.077, 43007.53
1055.559, 43011.68
1056.042, 43020.17
1056.524, 43052.32
1057.006, 43103.66
1057.488, 43137.51
1057.970, 43109.48
1058.452, 43082.93
1058.934, 43106.88
1059.416, 43156.95
1059.899, 43183.20
1060.381, 43171.39
1060.863, 43188.84
1061.345, 43248.87
1061.827, 43304.93
1062.309, 43288.07
1062.791, 43247.23
1063.273, 43270.90
1063.755, 43363.99
1064.238, 43414.23
1064.720, 43325.28
1065.202, 43277.95
1065.684, 43342.58
1066.166, 43472.02
1066.648, 43539.02
1067.130, 43550.79
1067.612, 43543.93
1068.094, 43523.80
1068.577, 43502.41
1069.059, 43474.89
1069.541, 43458.18
1070.023, 43472.45
1070.505, 43527.63
1070.987, 43551.00
1071.469, 43539.52
1071.951, 43528.70
1072.434, 43547.46
1072.916, 43577.23
1073.398, 43603.07
1073.880, 43621.84
1074.362, 43622.89
1074.844, 43559.71
1075.326, 43560.50
1075.808, 43667.30
1076.291, 43797.13
1076.773, 43826.56
1077.255, 43785.16
1077.737, 43748.95
1078.219, 43728.14
1078.701, 43730.79
1079.183, 43800.31
1079.665, 43853.49
1080.147, 43837.83
1080.630, 43770.31
1081.112, 43753.79
1081.594, 43786.91
1082.076, 43831.99
1082.558, 43891.73
1083.040, 43925.65
1083.522, 43658.05
1084.004, 43777.71
1084.486, 43848.48
1084.969, 43873.02
1085.451, 43712.73
1085.933, 43791.08
1086.415, 43773.80
1086.897, 43752.59
1087.379, 43864.53
1087.861, 43731.12
1088.343, 43840.95
1088.826, 43853.70
1089.308, 43910.86
1089.790, 43871.80
1090.272, 43862.47
1090.754, 43949.39
1091.236, 43983.01
1091.718, 43932.88
1092.200, 43992.87
1092.682, 43997.16
1093.165, 43974.00
1093.647, 43957.18
1094.129, 43970.20
1094.611, 44051.68
1095.093, 44182.57
1095.575, 44214.60
1096.057, 44143.11
1096.539, 44091.36
1097.022, 44120.82
1097.504, 44158.25
1097.986, 44106.39
1098.468, 44024.91
1098.950, 44000.09
1099.432, 44073.79
1099.914, 44126.37
1100.396, 44154.20
1100.879, 44169.99
1101.361, 44170.61
1101.843, 44170.78
1102.325, 44215.13
1102.807, 44287.69
1103.289, 44327.66
1103.771, 44266.75
1104.253, 44235.99
1104.735, 44273.90
1105.218, 44329.53
1105.700, 44324.57
1106.182, 44272.98
1106.664, 44233.04
1107.146, 44210.50
1107.628, 44227.02
1108.110, 44339.06
1108.592, 44451.13
1109.074, 44517.29
1109.557, 44538.97
1110.039, 44505.45
1110.521, 44415.63
1111.003, 44327.08
1111.485, 44243.07
1111.967, 44209.04
1112.449, 44337.34
1112.931, 44500.09
1113.414, 44539.98
1113.896, 44402.68
1114.378, 44361.32
1114.860, 44436.53
1115.342, 44518.06
1115.824, 44545.72
1116.306, 44540.61
1116.788, 44523.48
1117.271, 44501.55
1117.753, 44490.75
1118.235, 44505.32
1118.717, 44519.14
1119.199, 44533.57
1119.681, 44541.29
1120.163, 44523.61
1120.645, 44495.13
1121.127, 44499.64
1121.609, 44537.52
1122.092, 44590.82
1122.574, 44685.99
1123.056, 44750.19
1123.538, 44754.53
1124.020, 44721.03
1124.502, 44678.27
1124.984, 44631.58
1125.466, 44635.74
1125.949, 44706.51
1126.431, 44775.54
1126.913, 44801.86
1127.395, 44802.33
1127.877, 44777.05
1128.359, 44733.04
1128.841, 44717.51
1129.323, 44730.40
1129.806, 44781.70
1130.288, 44897.60
1130.770, 45004.27
1131.252, 45007.85
1131.734, 44965.68
1132.216, 44956.64
1132.698, 45009.90
1133.180, 45012.19
1133.662, 44946.80
1134.145, 44901.36
1134.627, 44962.38
1135.109, 45057.17
1135.591, 45058.88
1136.073, 45001.28
1136.555, 44969.74
1137.037, 45022.85
1137.519, 45047.39
1138.001, 45021.15
1138.484, 44998.13
1138.966, 45052.89
1139.448, 45149.52
1139.930, 45191.48
1140.412, 45180.88
1140.894, 45182.69
1141.376, 45229.38
1141.858, 45288.90
1142.341, 45368.47
1142.823, 45439.21
1143.305, 45429.49
1143.787, 45361.41
1144.269, 45342.42
1144.751, 45395.51
1145.233, 45440.14
1145.715, 45416.23
1146.198, 45385.11
1146.680, 45378.66
1147.162, 45393.57
1147.644, 45419.99
1148.126, 45456.38
1148.608, 45478.18
1149.090, 45470.07
1149.572, 45466.66
1150.054, 45496.75
1150.536, 45542.39
1151.019, 45594.51
1151.501, 45656.24
1151.983, 45658.18
1152.465, 45597.37
1152.947, 45551.95
1153.429, 45595.11
1153.911, 45637.57
1154.393, 45552.97
1154.876, 45421.42
1155.358, 45394.68
1155.840, 45535.90
1156.322, 45598.63
1156.804, 45562.63
1157.286, 45534.77
1157.768, 45637.23
1158.250, 45772.03
1158.733, 45800.87
1159.215, 45750.98
1159.697, 45743.44
1160.179, 45848.30
1160.661, 45873.68
1161.143, 45776.18
1161.625, 45655.13
1162.107, 45625.58
1162.589, 45649.80
1163.072, 45660.44
1163.554, 45654.80
1164.036, 45686.31
1164.518, 45805.91
1165.000, 45897.59
1165.482, 45926.49
1165.964, 45926.04
1166.446, 45967.07
1166.928, 46023.09
1167.411, 46028.75
1167.893, 45964.67
1168.375, 45904.16
1168.857, 45863.65
1169.339, 45841.43
1169.821, 45844.18
1170.303, 45860.36
1170.785, 45847.67
1171.268, 45818.82
1171.750, 45820.08
1172.232, 45885.38
1172.714, 45931.44
1173.196, 45876.70
1173.678, 45841.54
1174.160, 45917.30
1174.642, 46079.34
1175.125, 46149.31
1175.607, 46143.41
1176.089, 46147.86
1176.571, 46237.88
1177.053, 46301.96
1177.535, 46270.95
1178.017, 46205.27
1178.499, 46147.89
1178.981, 46098.91
1179.464, 46123.50
1179.946, 46215.75
1180.428, 46276.69
1180.910, 46163.44
1181.392, 46090.22
1181.874, 46247.99
1182.356, 46480.39
1182.838, 46529.95
1183.320, 46388.65
1183.803, 46320.56
1184.285, 46347.77
1184.767, 46398.39
1185.249, 46438.09
1185.731, 46463.71
1186.213, 46465.56
1186.695, 46451.86
1187.177, 46439.91
1187.660, 46428.19
1188.142, 46446.09
1188.624, 46501.05
1189.106, 46563.20
1189.588, 46627.98
1190.070, 46670.88
1190.552, 46656.12
1191.034, 46594.68
1191.516, 46571.20
1191.999, 46591.11
1192.481, 46588.24
1192.963, 46533.11
1193.445, 46498.18
1193.927, 46592.14
1194.409, 46718.32
1194.891, 46771.45
1195.373, 46743.14
1195.855, 46745.36
1196.338, 46784.16
1196.820, 46797.48
1197.302, 46745.94
1197.784, 46690.76
1198.266, 46694.45
1198.748, 46736.73
1199.230, 46806.05
1199.712, 46914.84
1200.195, 46934.97
1200.677, 46850.60
1201.159, 46789.84
1201.641, 46840.66
1202.123, 46925.15
1202.605, 46951.11
1203.087, 46950.37
1203.569, 46981.10
1204.052, 47077.84
1204.534, 47110.07
1205.016, 47066.27
1205.498, 47028.44
1205.980, 47083.15
1206.462, 47150.05
1206.944, 47110.63
1207.426, 47015.59
1207.908, 46991.11
1208.391, 47094.78
1208.873, 47118.54
1209.355, 47037.20
1209.837, 46966.63
1210.319, 47027.04
1210.801, 47135.14
1211.283, 47201.93
1211.765, 47234.13
1212.247, 47265.88
1212.730, 47309.60
1213.212, 47321.66
1213.694, 47291.77
1214.176, 47257.29
1214.658, 47243.20
1215.140, 47252.15
1215.622, 47301.84
1216.104, 47382.13
1216.587, 47429.93
1217.069, 47430.93
1217.551, 47439.64
1218.033, 47467.14
1218.515, 47494.42
1218.997, 47481.92
1219.479, 47469.98
1219.961, 47520.80
1220.443, 47630.73
1220.926, 47685.38
1221.408, 47665.23
1221.890, 47653.74
1222.372, 47675.96
1222.854, 47692.95
1223.336, 47633.26
1223.818, 47558.01
1224.300, 47545.39
1224.782, 47607.31
1225.265, 47638.09
1225.747, 47627.35
1226.229, 47633.69
1226.711, 47676.94
1227.193, 47739.21
1227.675, 47827.70
1228.157, 47905.92
1228.639, 47915.42
1229.122, 47841.30
1229.604, 47827.45
1230.086, 47885.71
1230.568, 47921.31
1231.050, 47883.43
1231.532, 47837.60
1232.014, 47870.83
1232.496, 47933.72
1232.979, 47958.09
1233.461, 47930.46
1233.943, 47956.08
1234.425, 48041.71
1234.907, 48110.33
1235.389, 48120.77
1235.871, 48106.46
1236.353, 48084.32
1236.835, 48066.72
1237.318, 48073.38
1237.800, 48107.98
1238.282, 48134.16
1238.764, 48151.17
1239.246, 48170.34
1239.728, 48192.09
1240.210, 48225.18
1240.692, 48287.39
1241.175, 48359.77
1241.657, 48422.16
1242.139, 48482.45
1242.621, 48465.84
1243.103, 48371.34
1243.585, 48291.41
1244.067, 48278.53
1244.549, 48302.60
1245.031, 48363.48
1245.514, 48438.58
1245.996, 48495.67
1246.478, 48533.66
1246.960, 48581.84
1247.442, 48639.04
1247.924, 48669.11
1248.406, 48605.45
1248.888, 48555.52
1249.370, 48606.06
1249.853, 48689.86
1250.335, 48717.52
1250.817, 48690.79
1251.299, 48659.41
1251.781, 48628.11
1252.263, 48629.11
1252.745, 48726.48
1253.227, 48807.95
1253.710, 48801.72
1254.192, 48770.31
1254.674, 48801.12
1255.156, 48881.60
1255.638, 48914.90
1256.120, 48899.37
1256.602, 48888.18
1257.084, 48941.88
1257.567, 48960.04
1258.049, 48885.41
1258.531, 48794.35
1259.013, 48805.97
1259.495, 48891.29
1259.977, 48941.81
1260.459, 48952.78
1260.941, 48972.60
1261.423, 49062.18
1261.906, 49102.69
1262.388, 49046.49
1262.870, 48967.38
1263.352, 48971.58
1263.834, 49035.15
1264.316, 49121.45
1264.798, 49221.06
1265.280, 49278.05
1265.762, 49238.51
1266.245, 49213.91
1266.727, 49223.64
1267.209, 49255.87
1267.691, 49313.97
1268.173, 49374.04
1268.655, 49380.86
1269.137, 49335.72
1269.619, 49344.41
1270.102, 49444.04
1270.584, 49525.97
1271.066, 49570.72
1271.548, 49579.32
1272.030, 49515.33
1272.512, 49440.26
1272.994, 49438.67
1273.476, 49511.66
1273.958, 49547.39
1274.441, 49527.59
1274.923, 49552.93
1275.405, 49657.65
1275.887, 49756.04
1276.369, 49738.14
1276.851, 49686.95
1277.333, 49685.20
1277.815, 49726.30
1278.297, 49743.51
1278.780, 49736.28
1279.262, 49703.14
1279.744, 49633.98
1280.226, 49601.08
1280.708, 49706.27
1281.190, 49830.17
1281.672, 49882.89
1282.154, 49883.74
1282.637, 49899.81
1283.119, 49929.48
1283.601, 49956.31
1284.083, 49976.59
1284.565, 49997.71
1285.047, 50025.91
1285.529, 50053.88
1286.011, 50075.46
1286.494, 50096.21
1286.976, 50143.11
1287.458, 50201.74
1287.940, 50218.59
1288.422, 50178.51
1288.904, 50132.25
1289.386, 50071.94
1289.868, 50048.84
1290.350, 50092.15
1290.833, 50165.68
1291.315, 50204.20
1291.797, 50216.33
1292.279, 50213.94
1292.761, 50195.91
1293.243, 50194.85
1293.725, 50222.62
1294.207, 50245.11
1294.689, 50254.40
1295.172, 50245.89
1295.654, 50181.30
1296.136, 50112.29
1296.618, 50118.09
1297.100, 50218.76
1297.582, 50279.41
1298.064, 50291.59
1298.546, 50324.09
1299.029, 50408.88
1299.511, 50487.18
1299.993, 50475.62
1300.475, 50442.75
1300.957, 50467.95
1301.439, 50539.32
1301.921, 50568.11
1302.403, 50554.63
1302.885, 50498.30
1303.368, 50379.41
1303.850, 50303.13
1304.332, 50380.15
1304.814, 50490.03
1305.296, 50562.21
1305.778, 50602.53
1306.260, 50621.73
1306.742, 50628.04
1307.224, 50663.37
1307.707, 50748.07
1308.189, 50801.59
1308.671, 50753.55
1309.153, 50716.35
##END=



