##NAMES=Roselite-beta
##RRUFFID=R150065
##IDEAL CHEMISTRY=Ca_2_Co^2+^(As^5+^O_4_)_2_&#183;2H_2_O
##LOCALITY=Bou Azzer, Morocco
##OWNER=RRUFF
##SOURCE=Bob Jenkins
##DESCRIPTION=Rose-red granular aggregates
##STATUS=The identification of this mineral has been confirmed only by single crystal X-ray diffraction.
##URL=rruff.info/R150065
94.45264, 150.1514
94.93475, 151.0977
95.41687, 151.9691
95.89898, 152.5251
96.38110, 153.2672
96.86321, 154.6851
97.34533, 156.8703
97.82745, 159.2973
98.30956, 161.8043
98.79168, 164.6078
99.27380, 167.3483
99.75591, 169.8618
100.2380, 172.2072
100.7201, 174.4751
101.2023, 176.4750
101.6844, 178.5727
102.1665, 181.7327
102.6486, 186.1127
103.1307, 191.3928
103.6128, 196.9166
104.0950, 202.4078
104.5771, 209.5778
105.0592, 218.8320
105.5413, 230.3533
106.0234, 245.1243
106.5055, 263.1802
106.9877, 284.7472
107.4698, 311.4463
107.9519, 347.5602
108.4340, 383.9218
108.9161, 423.7110
109.3982, 462.0030
109.8804, 487.7025
110.3625, 490.3828
110.8446, 467.6540
111.3267, 433.2996
111.8088, 374.8440
112.2909, 315.8017
112.7731, 264.9859
113.2552, 224.8227
113.7373, 193.7001
114.2194, 169.9743
114.7015, 156.8463
115.1836, 146.4994
115.6658, 139.3665
116.1479, 134.5771
116.6300, 131.4065
117.1121, 129.6029
117.5942, 129.1042
118.0763, 130.0722
118.5584, 132.7820
119.0406, 135.9104
119.5227, 140.2550
120.0048, 144.9283
120.4869, 147.5234
120.9690, 146.9616
121.4511, 143.2639
121.9333, 137.4821
122.4154, 128.7829
122.8975, 119.4366
123.3796, 111.1788
123.8617, 103.9789
124.3438, 97.93057
124.8260, 93.71723
125.3081, 90.52889
125.7902, 87.77691
126.2723, 85.29952
126.7544, 83.14527
127.2365, 81.48699
127.7187, 80.51647
128.2008, 79.77022
128.6829, 79.17119
129.1650, 78.64920
129.6471, 78.11740
130.1292, 77.51720
130.6114, 76.85538
131.0935, 76.22934
131.5756, 75.66759
132.0577, 75.11342
132.5398, 74.58131
133.0219, 74.04996
133.5041, 73.45782
133.9862, 72.71483
134.4683, 71.73936
134.9504, 71.21536
135.4325, 71.40105
135.9146, 71.73389
136.3968, 71.93642
136.8789, 71.96644
137.3610, 71.88824
137.8431, 71.75283
138.3252, 71.53927
138.8073, 71.38040
139.2895, 71.31924
139.7716, 71.30176
140.2537, 71.28117
140.7358, 71.25755
141.2179, 71.19024
141.7000, 70.97947
142.1821, 70.63754
142.6643, 70.35481
143.1464, 70.19032
143.6285, 70.14339
144.1106, 70.22084
144.5927, 70.48125
145.0748, 70.81283
145.5570, 71.12573
146.0391, 71.41697
146.5212, 71.67395
147.0033, 71.83025
147.4854, 71.85953
147.9675, 72.05134
148.4497, 72.64732
148.9318, 73.31404
149.4139, 73.84216
149.8960, 74.19386
150.3781, 74.53730
150.8602, 75.10666
151.3424, 75.93529
151.8245, 76.96388
152.3066, 78.09372
152.7887, 79.42099
153.2708, 81.03138
153.7529, 82.94853
154.2351, 85.14908
154.7172, 87.56536
155.1993, 89.90716
155.6814, 92.89455
156.1635, 96.62869
156.6456, 100.9925
157.1278, 105.8841
157.6099, 111.2730
158.0920, 117.0744
158.5741, 122.9520
159.0562, 129.7465
159.5383, 135.7034
160.0205, 141.0979
160.5026, 145.3837
160.9847, 147.2773
161.4668, 145.9087
161.9489, 141.4506
162.4310, 135.7054
162.9131, 127.8342
163.3953, 119.6335
163.8774, 111.7862
164.3595, 104.3282
164.8416, 97.80045
165.3237, 92.64692
165.8058, 88.75671
166.2880, 85.65018
166.7701, 83.38808
167.2522, 81.79337
167.7343, 80.72754
168.2164, 80.21815
168.6985, 80.11787
169.1807, 80.32030
169.6628, 80.87783
170.1449, 81.97148
170.6270, 83.80207
171.1091, 86.12949
171.5912, 88.35168
172.0734, 90.20201
172.5555, 92.47993
173.0376, 95.27272
173.5197, 98.64808
174.0018, 102.7558
174.4839, 107.7205
174.9661, 113.4698
175.4482, 119.5618
175.9303, 126.7502
176.4124, 133.4193
176.8945, 139.6414
177.3766, 145.0355
177.8588, 149.0095
178.3409, 151.1842
178.8230, 151.5569
179.3051, 150.1236
179.7872, 145.5866
180.2693, 140.5407
180.7515, 135.4753
181.2336, 130.5018
181.7157, 125.6109
182.1978, 120.7069
182.6799, 115.6803
183.1620, 111.9374
183.6441, 109.6822
184.1263, 108.1846
184.6084, 107.1471
185.0905, 106.5456
185.5726, 106.4682
186.0547, 106.9591
186.5368, 108.0804
187.0190, 110.0986
187.5011, 112.9235
187.9832, 116.6227
188.4653, 121.2743
188.9474, 126.8631
189.4296, 133.3051
189.9117, 140.5160
190.3938, 148.5333
190.8759, 157.7087
191.3580, 168.2773
191.8401, 179.8960
192.3223, 192.4878
192.8044, 206.2170
193.2865, 220.1377
193.7686, 233.8497
194.2507, 247.2181
194.7328, 259.2122
195.2150, 270.7316
195.6971, 280.5126
196.1792, 286.0340
196.6613, 286.7182
197.1434, 283.6390
197.6255, 277.3516
198.1077, 268.3065
198.5898, 257.3382
199.0719, 244.0588
199.5540, 228.9447
200.0361, 214.0188
200.5182, 198.5256
201.0004, 184.4483
201.4825, 172.8402
201.9646, 163.3050
202.4467, 154.9937
202.9288, 147.3650
203.4109, 140.4189
203.8930, 134.4609
204.3752, 129.8107
204.8573, 126.0053
205.3394, 122.9298
205.8215, 120.5501
206.3036, 118.8147
206.7857, 117.7458
207.2679, 117.3615
207.7500, 117.2983
208.2321, 117.3616
208.7142, 117.9581
209.1963, 119.2250
209.6784, 121.1569
210.1606, 123.7003
210.6427, 126.8393
211.1248, 130.5800
211.6069, 134.7180
212.0890, 139.7889
212.5711, 144.7109
213.0533, 149.3565
213.5354, 153.5308
214.0175, 156.9929
214.4996, 159.5730
214.9817, 161.3464
215.4638, 161.3877
215.9460, 159.8870
216.4281, 156.9606
216.9102, 152.1493
217.3923, 145.7754
217.8744, 138.8189
218.3565, 132.0697
218.8387, 125.5097
219.3208, 119.8927
219.8029, 115.3807
220.2850, 111.5177
220.7671, 108.2162
221.2492, 105.3891
221.7314, 102.6561
222.2135, 99.54636
222.6956, 96.07691
223.1777, 93.73872
223.6598, 93.22116
224.1419, 93.30337
224.6240, 93.17467
225.1062, 92.77763
225.5883, 92.30525
226.0704, 91.81758
226.5525, 91.37572
227.0346, 91.28355
227.5167, 91.76183
227.9989, 92.47395
228.4810, 93.12553
228.9631, 93.69968
229.4452, 94.28481
229.9273, 94.84560
230.4094, 95.47237
230.8916, 96.41924
231.3737, 97.85568
231.8558, 99.55962
232.3379, 101.2797
232.8200, 103.0007
233.3021, 104.8397
233.7843, 106.9001
234.2664, 109.1363
234.7485, 111.5030
235.2306, 113.9739
235.7127, 116.5837
236.1948, 119.4670
236.6770, 122.7272
237.1591, 125.8992
237.6412, 128.9508
238.1233, 131.7300
238.6054, 134.0009
239.0875, 135.6063
239.5697, 136.7950
240.0518, 137.9470
240.5339, 139.1064
241.0160, 140.0960
241.4981, 140.8203
241.9802, 141.3634
242.4624, 141.7239
242.9445, 141.8433
243.4266, 141.9557
243.9087, 142.4717
244.3908, 143.4735
244.8729, 144.6699
245.3550, 145.5879
245.8372, 146.8297
246.3193, 148.9691
246.8014, 152.2175
247.2835, 156.2608
247.7656, 160.5667
248.2477, 164.8861
248.7299, 170.1282
249.2120, 176.4629
249.6941, 183.6028
250.1762, 191.3897
250.6583, 199.7856
251.1404, 208.7305
251.6226, 218.3575
252.1047, 229.1662
252.5868, 239.3985
253.0689, 249.7237
253.5510, 259.0191
254.0331, 266.8018
254.5153, 272.8265
254.9974, 276.8121
255.4795, 278.3829
255.9616, 277.5972
256.4437, 273.8480
256.9258, 266.6617
257.4080, 257.5461
257.8901, 246.9444
258.3722, 235.1991
258.8543, 222.9298
259.3364, 210.8705
259.8185, 198.7273
260.3007, 187.6418
260.7828, 177.2261
261.2649, 167.7989
261.7470, 159.7106
262.2291, 152.8893
262.7112, 146.9786
263.1934, 141.4988
263.6755, 136.2803
264.1576, 132.2784
264.6397, 129.7544
265.1218, 127.9648
265.6039, 126.5609
266.0861, 125.5093
266.5682, 124.9311
267.0503, 124.9417
267.5324, 125.5521
268.0145, 126.8345
268.4966, 129.1983
268.9788, 131.7106
269.4609, 133.7704
269.9430, 135.5076
270.4251, 137.5487
270.9072, 140.4821
271.3893, 144.3374
271.8715, 147.6567
272.3536, 150.4605
272.8357, 152.8377
273.3178, 154.9213
273.7999, 156.6202
274.2820, 157.7090
274.7642, 158.0618
275.2463, 157.6655
275.7284, 156.2498
276.2105, 153.6863
276.6926, 150.5290
277.1747, 146.8627
277.6568, 142.7268
278.1389, 138.1395
278.6211, 133.0456
279.1032, 127.6023
279.5853, 122.4415
280.0674, 117.5990
280.5495, 112.9093
281.0316, 108.1996
281.5138, 103.6283
281.9959, 99.47166
282.4780, 95.85502
282.9601, 92.70480
283.4422, 89.96667
283.9243, 87.70630
284.4065, 85.62209
284.8886, 83.63457
285.3707, 81.79277
285.8528, 80.14629
286.3349, 78.70036
286.8170, 77.51087
287.2992, 76.71024
287.7813, 76.36403
288.2634, 76.13911
288.7455, 75.92507
289.2276, 75.83437
289.7097, 76.05631
290.1919, 76.64188
290.6740, 77.36355
291.1561, 77.93152
291.6382, 78.30361
292.1203, 78.85753
292.6024, 79.53467
293.0846, 80.46455
293.5667, 81.82743
294.0488, 83.64651
294.5309, 85.66976
295.0130, 87.62415
295.4951, 89.53672
295.9773, 91.88367
296.4594, 94.85909
296.9415, 98.14674
297.4236, 101.4350
297.9057, 104.7309
298.3878, 108.3755
298.8700, 112.5481
299.3521, 117.3332
299.8342, 122.7412
300.3163, 128.8650
300.7984, 135.4569
301.2805, 142.3632
301.7627, 149.6211
302.2448, 157.5603
302.7269, 166.5570
303.2090, 176.2772
303.6911, 185.7672
304.1732, 195.3764
304.6554, 204.3293
305.1375, 212.7052
305.6196, 220.2017
306.1017, 226.2567
306.5838, 230.9609
307.0659, 233.5195
307.5481, 232.0894
308.0302, 226.7134
308.5123, 219.0793
308.9944, 208.6449
309.4765, 196.5301
309.9586, 184.5439
310.4408, 173.0848
310.9229, 162.2607
311.4050, 152.3702
311.8871, 143.3137
312.3692, 135.1235
312.8513, 127.9656
313.3335, 121.6167
313.8156, 115.6357
314.2977, 109.9574
314.7798, 105.1702
315.2619, 102.1292
315.7440, 100.7331
316.2262, 99.03373
316.7083, 96.43824
317.1904, 93.79378
317.6725, 91.74805
318.1546, 90.31271
318.6367, 89.31912
319.1188, 88.75901
319.6010, 88.56745
320.0831, 88.31050
320.5652, 87.95463
321.0473, 87.56848
321.5294, 87.15162
322.0115, 86.72697
322.4937, 86.36155
322.9758, 86.07703
323.4579, 85.88891
323.9400, 85.83763
324.4221, 85.92226
324.9042, 86.10629
325.3864, 86.43373
325.8685, 86.84422
326.3506, 87.16706
326.8327, 87.30238
327.3148, 87.51450
327.7969, 88.31120
328.2791, 89.78628
328.7612, 91.15090
329.2433, 92.11817
329.7254, 92.96342
330.2075, 93.96890
330.6896, 95.18319
331.1718, 96.59476
331.6539, 98.20952
332.1360, 100.0477
332.6181, 102.0573
333.1002, 104.1991
333.5823, 106.5267
334.0645, 109.0437
334.5466, 111.7587
335.0287, 114.8396
335.5108, 118.4726
335.9929, 122.5756
336.4750, 126.3843
336.9572, 129.2356
337.4393, 132.5511
337.9214, 137.1046
338.4035, 142.5963
338.8856, 148.2273
339.3677, 153.5906
339.8499, 158.9374
340.3320, 164.9629
340.8141, 171.6553
341.2962, 178.8727
341.7783, 186.3831
342.2604, 194.4870
342.7426, 203.5614
343.2247, 213.6767
343.7068, 224.6581
344.1889, 236.2401
344.6710, 248.4527
345.1531, 261.4736
345.6353, 275.1331
346.1174, 289.6220
346.5995, 305.1074
347.0816, 321.5014
347.5637, 338.9570
348.0458, 357.6300
348.5280, 377.6908
349.0101, 396.4043
349.4922, 412.4311
349.9743, 428.6881
350.4564, 446.7991
350.9385, 465.9958
351.4207, 484.6957
351.9028, 501.9814
352.3849, 517.8021
352.8670, 532.0136
353.3491, 545.5233
353.8312, 556.2947
354.3134, 562.7891
354.7955, 566.9024
355.2776, 571.0744
355.7597, 576.1038
356.2418, 580.6492
356.7239, 582.4155
357.2061, 580.1060
357.6882, 577.3465
358.1703, 573.9310
358.6524, 570.2594
359.1345, 567.1859
359.6166, 564.4036
360.0987, 560.5042
360.5808, 554.1936
361.0630, 545.4847
361.5451, 534.0009
362.0272, 519.7136
362.5093, 502.9557
362.9914, 483.4947
363.4735, 461.5706
363.9557, 437.6678
364.4378, 411.9120
364.9199, 384.7455
365.4020, 357.9591
365.8841, 330.5461
366.3662, 305.1339
366.8484, 282.1301
367.3305, 261.1678
367.8126, 241.8155
368.2947, 224.0291
368.7768, 208.0070
369.2589, 194.1034
369.7411, 182.6599
370.2232, 172.6059
370.7053, 164.3675
371.1874, 156.9850
371.6695, 149.8096
372.1516, 142.9456
372.6338, 136.8717
373.1159, 132.1269
373.5980, 128.6893
374.0801, 125.5957
374.5622, 122.6898
375.0443, 120.3920
375.5265, 119.0339
376.0086, 118.2783
376.4907, 117.5826
376.9728, 116.6167
377.4549, 115.7084
377.9370, 115.6269
378.4192, 116.5699
378.9013, 117.7955
379.3834, 118.8404
379.8655, 120.2385
380.3476, 122.4486
380.8297, 125.5606
381.3119, 129.3207
381.7940, 133.5576
382.2761, 138.2732
382.7582, 143.1790
383.2403, 148.2460
383.7224, 153.5181
384.2046, 159.0176
384.6867, 164.7081
385.1688, 170.6155
385.6509, 177.2036
386.1330, 183.8843
386.6151, 189.5186
387.0973, 194.2032
387.5794, 197.4213
388.0615, 198.8711
388.5436, 198.5959
389.0257, 196.3982
389.5078, 192.0809
389.9900, 186.1120
390.4721, 178.4771
390.9542, 169.3091
391.4363, 159.8328
391.9184, 150.2579
392.4005, 140.7732
392.8827, 131.4205
393.3648, 122.1096
393.8469, 113.6788
394.3290, 106.7314
394.8111, 100.7984
395.2932, 95.21793
395.7754, 89.83775
396.2575, 84.93480
396.7396, 80.75166
397.2217, 77.30667
397.7038, 74.23398
398.1859, 71.46468
398.6681, 69.07785
399.1501, 67.22819
399.6323, 65.82426
400.1144, 64.57436
400.5965, 63.36479
401.0786, 62.16441
401.5607, 60.87519
402.0428, 59.25653
402.5250, 57.97105
403.0071, 57.39482
403.4892, 57.09066
403.9713, 56.52587
404.4534, 55.59258
404.9355, 54.59590
405.4177, 53.89410
405.8998, 53.55195
406.3819, 53.23410
406.8640, 53.07126
407.3461, 52.80896
407.8282, 52.20857
408.3104, 51.39845
408.7925, 50.69536
409.2746, 50.29181
409.7567, 50.14648
410.2388, 50.06053
410.7209, 50.09706
411.2031, 50.11454
411.6852, 50.07090
412.1673, 50.01981
412.6494, 50.01674
413.1315, 50.07409
413.6136, 50.15905
414.0958, 50.23854
414.5779, 50.32739
415.0600, 50.35155
415.5421, 50.21373
416.0242, 50.10080
416.5063, 50.11419
416.9885, 50.21331
417.4706, 50.27741
417.9527, 50.19643
418.4348, 50.05478
418.9169, 50.18476
419.3990, 50.76563
419.8812, 51.21705
420.3633, 51.28624
420.8454, 51.19258
421.3275, 51.09457
421.8096, 51.02631
422.2917, 51.03953
422.7739, 51.24409
423.2560, 51.62603
423.7381, 51.88997
424.2202, 51.90633
424.7023, 51.91292
425.1844, 52.11875
425.6666, 52.47334
426.1487, 52.79575
426.6308, 52.87647
427.1129, 52.94248
427.5950, 53.38723
428.0771, 54.23621
428.5593, 55.09083
429.0414, 55.73765
429.5235, 56.25224
430.0056, 56.75532
430.4877, 57.07167
430.9698, 57.77829
431.4520, 59.59912
431.9341, 61.94167
432.4162, 63.51461
432.8983, 63.92372
433.3804, 64.01250
433.8625, 64.71942
434.3447, 66.12710
434.8268, 67.67173
435.3089, 69.30584
435.7910, 71.09688
436.2731, 72.99282
436.7552, 75.06115
437.2374, 77.53039
437.7195, 80.55665
438.2016, 84.02943
438.6837, 87.48241
439.1658, 90.32217
439.6479, 93.93103
440.1301, 98.56714
440.6122, 103.9063
441.0943, 109.6329
441.5764, 115.6596
442.0585, 122.1136
442.5406, 129.0085
443.0227, 136.2489
443.5049, 144.7634
443.9870, 154.8091
444.4691, 165.8764
444.9512, 178.0985
445.4333, 191.1272
445.9154, 204.6721
446.3976, 218.5127
446.8797, 232.5894
447.3618, 246.8923
447.8439, 261.7001
448.3260, 275.8655
448.8081, 290.4600
449.2903, 303.4589
449.7724, 313.7520
450.2545, 321.1681
450.7366, 325.7811
451.2187, 327.5944
451.7008, 326.6393
452.1830, 322.5274
452.6651, 314.3236
453.1472, 305.3323
453.6293, 296.6956
454.1114, 288.6943
454.5935, 281.8480
455.0757, 276.2928
455.5578, 271.9225
456.0399, 268.5047
456.5220, 266.1511
457.0041, 265.4109
457.4862, 266.6653
457.9684, 269.1245
458.4505, 272.1596
458.9326, 275.7838
459.4147, 278.8619
459.8968, 281.4562
460.3789, 283.2210
460.8611, 283.9801
461.3432, 283.6704
461.8253, 282.1307
462.3074, 279.2740
462.7895, 275.0814
463.2716, 269.3072
463.7538, 261.6954
464.2359, 252.9738
464.7180, 242.5673
465.2001, 231.3575
465.6822, 220.0486
466.1643, 208.8399
466.6465, 197.9998
467.1286, 187.8745
467.6107, 178.4549
468.0928, 169.0670
468.5749, 159.1892
469.0570, 149.9044
469.5392, 141.4345
470.0213, 133.7909
470.5034, 127.1279
470.9855, 121.5291
471.4676, 116.5892
471.9497, 111.5645
472.4319, 106.3432
472.9140, 101.5619
473.3961, 97.50652
473.8782, 93.80359
474.3603, 90.30843
474.8424, 87.01105
475.3246, 83.83236
475.8067, 80.58847
476.2888, 77.50507
476.7709, 75.17658
477.2530, 73.73828
477.7351, 72.25603
478.2173, 70.21866
478.6994, 67.91858
479.1815, 65.79620
479.6636, 63.84877
480.1457, 62.16339
480.6278, 60.96545
481.1100, 60.01514
481.5920, 58.80706
482.0742, 57.23880
482.5563, 55.73331
483.0384, 54.68467
483.5205, 54.09720
484.0026, 53.43958
484.4847, 52.70195
484.9669, 51.91181
485.4490, 51.03721
485.9311, 50.12241
486.4132, 49.23515
486.8953, 48.39824
487.3774, 47.61629
487.8596, 46.90918
488.3417, 46.30670
488.8238, 45.68481
489.3059, 44.97555
489.7880, 44.31591
490.2701, 43.80349
490.7523, 43.39606
491.2344, 42.98462
491.7165, 42.49760
492.1986, 41.98623
492.6807, 41.60110
493.1628, 41.38752
493.6450, 41.17775
494.1271, 40.95217
494.6092, 40.70966
495.0913, 40.44166
495.5734, 40.15151
496.0555, 39.85950
496.5377, 39.53901
497.0198, 39.23251
497.5019, 39.10302
497.9840, 39.20420
498.4661, 39.24208
498.9482, 39.04617
499.4304, 38.67921
499.9125, 38.25026
500.3946, 37.69258
500.8767, 37.24715
501.3588, 37.11092
501.8409, 37.14431
502.3231, 37.12576
502.8052, 37.01147
503.2873, 36.76885
503.7694, 36.31882
504.2515, 35.64818
504.7336, 35.23875
505.2158, 35.20370
505.6979, 35.27028
506.1800, 35.41638
506.6621, 35.57941
507.1442, 35.69461
507.6263, 35.73492
508.1085, 35.66995
508.5906, 35.42801
509.0727, 34.92789
509.5548, 34.54350
510.0369, 34.35381
510.5190, 34.20224
511.0012, 34.03410
511.4833, 33.85961
511.9654, 33.70825
512.4475, 33.59594
512.9296, 33.50896
513.4117, 33.43623
513.8939, 33.38590
514.3760, 33.27632
514.8581, 32.99651
515.3402, 32.74846
515.8223, 32.74196
516.3044, 32.93859
516.7866, 33.07600
517.2687, 33.04387
517.7508, 32.89357
518.2329, 32.61795
518.7150, 32.23725
519.1971, 32.00706
519.6793, 32.09098
520.1614, 32.34636
520.6435, 32.44722
521.1256, 32.35672
521.6077, 32.25980
522.0898, 32.16648
522.5720, 32.09343
523.0541, 32.08681
523.5362, 32.12664
524.0183, 32.10978
524.5004, 31.94829
524.9825, 31.68788
525.4647, 31.56558
525.9468, 31.68621
526.4289, 31.80470
526.9110, 31.94481
527.3931, 32.04397
527.8752, 32.03549
528.3574, 31.92310
528.8395, 31.77611
529.3216, 31.63437
529.8037, 31.50767
530.2858, 31.46859
530.7679, 31.56155
531.2501, 31.63937
531.7322, 31.69535
532.2143, 31.67562
532.6964, 31.44531
533.1785, 30.93482
533.6606, 30.56642
534.1428, 30.74558
534.6249, 31.23754
535.1070, 31.52436
535.5891, 31.52891
536.0712, 31.48679
536.5533, 31.58520
537.0355, 31.78888
537.5176, 31.87622
537.9997, 31.79068
538.4818, 31.67021
538.9639, 31.49902
539.4460, 31.33902
539.9282, 31.29863
540.4103, 31.38489
540.8924, 31.47361
541.3745, 31.43973
541.8566, 31.28208
542.3387, 31.03937
542.8209, 30.50161
543.3029, 30.13657
543.7850, 30.16243
544.2672, 30.34907
544.7493, 30.40327
545.2314, 30.25539
545.7135, 30.13831
546.1956, 30.37342
546.6777, 30.92154
547.1599, 31.31353
547.6420, 31.52472
548.1241, 31.57930
548.6062, 31.38699
549.0883, 31.06833
549.5704, 30.80162
550.0526, 30.60044
550.5347, 30.49030
551.0168, 30.54452
551.4989, 30.69089
551.9810, 30.75236
552.4631, 30.68893
552.9453, 30.66607
553.4274, 30.86790
553.9095, 31.29618
554.3916, 31.53949
554.8737, 31.52145
555.3558, 31.44033
555.8380, 31.31996
556.3201, 31.18029
556.8022, 31.01534
557.2843, 30.83555
557.7664, 30.72011
558.2485, 30.79828
558.7307, 31.08292
559.2128, 31.17084
559.6949, 30.84923
560.1770, 30.63729
560.6591, 30.77646
561.1412, 31.07780
561.6234, 31.35644
562.1055, 31.57770
562.5876, 31.63752
563.0697, 31.31041
563.5518, 30.73989
564.0339, 30.41639
564.5161, 30.41535
564.9982, 30.57043
565.4803, 30.85334
565.9624, 31.19313
566.4445, 31.30273
566.9266, 31.02068
567.4088, 30.74072
567.8909, 30.62581
568.3730, 30.57337
568.8551, 30.34396
569.3372, 29.95332
569.8193, 29.82109
570.3015, 30.41130
570.7836, 31.66632
571.2657, 32.43042
571.7478, 32.48795
572.2299, 32.30816
572.7120, 31.73553
573.1942, 31.11136
573.6763, 30.77727
574.1584, 30.76704
574.6405, 30.82287
575.1226, 30.67825
575.6047, 30.40726
576.0869, 30.36172
576.5690, 30.61096
577.0511, 30.79022
577.5332, 30.66634
578.0153, 30.40356
578.4974, 30.25837
578.9796, 30.24001
579.4617, 30.31669
579.9438, 30.56574
580.4259, 30.85081
580.9080, 31.01408
581.3901, 31.05174
581.8723, 31.05290
582.3544, 31.07874
582.8365, 31.09910
583.3186, 31.00544
583.8007, 30.60588
584.2828, 30.38902
584.7650, 30.54692
585.2471, 30.72349
585.7292, 30.70522
586.2113, 30.49250
586.6934, 30.14086
587.1755, 29.61893
587.6577, 29.10486
588.1398, 29.08192
588.6219, 29.63367
589.1040, 30.11245
589.5861, 30.39523
590.0682, 30.51473
590.5504, 30.45256
591.0325, 30.24090
591.5146, 30.09039
591.9967, 30.06355
592.4788, 30.12426
592.9609, 30.31191
593.4431, 30.56668
593.9252, 30.72134
594.4073, 30.71539
594.8894, 30.57382
595.3715, 30.28632
595.8536, 29.73528
596.3358, 29.58931
596.8179, 30.29031
597.3000, 30.84445
597.7821, 30.83239
598.2642, 30.48083
598.7463, 30.06760
599.2285, 29.69915
599.7106, 29.48925
600.1927, 29.72622
600.6748, 30.38028
601.1569, 30.50565
601.6390, 29.75234
602.1212, 29.13027
602.6033, 29.38704
603.0854, 30.09471
603.5675, 30.63673
604.0496, 30.93385
604.5317, 31.09149
605.0139, 31.14033
605.4960, 31.09412
605.9781, 30.93399
606.4602, 30.67491
606.9423, 30.42776
607.4244, 30.26041
607.9066, 30.18317
608.3887, 30.25114
608.8708, 30.78807
609.3529, 30.99615
609.8350, 30.57352
610.3171, 30.04589
610.7993, 29.74371
611.2814, 29.67969
611.7635, 29.73894
612.2456, 29.87766
612.7277, 30.04790
613.2098, 30.14315
613.6920, 30.15709
614.1741, 30.17676
614.6562, 30.23390
615.1383, 30.28942
615.6204, 30.27498
616.1025, 30.20971
616.5847, 30.22369
617.0668, 30.44813
617.5489, 30.65558
618.0310, 30.69113
618.5131, 30.60550
618.9952, 30.45357
619.4774, 30.26090
619.9595, 30.18522
620.4416, 30.46254
620.9237, 31.14024
621.4058, 31.45707
621.8879, 30.94653
622.3701, 30.64457
622.8522, 30.99774
623.3343, 31.52758
623.8164, 31.70647
624.2985, 31.44861
624.7806, 31.11919
625.2628, 30.97893
625.7448, 30.99764
626.2269, 31.10884
626.7090, 31.31484
627.1912, 31.60446
627.6733, 32.09505
628.1554, 32.55156
628.6375, 32.41686
629.1196, 31.53358
629.6017, 30.93054
630.0839, 30.94493
630.5660, 31.11761
631.0481, 31.10722
631.5302, 30.99477
632.0123, 31.06622
632.4944, 31.45285
632.9766, 31.93474
633.4587, 32.12313
633.9408, 31.95769
634.4229, 31.80267
634.9050, 31.59295
635.3871, 31.49270
635.8693, 31.67645
636.3514, 31.96936
636.8335, 32.10092
637.3156, 31.99125
637.7977, 31.78954
638.2798, 31.49814
638.7620, 31.22012
639.2441, 31.21745
639.7262, 31.50637
640.2083, 31.72653
640.6904, 31.61397
641.1725, 31.29385
641.6547, 31.18717
642.1368, 31.57883
642.6189, 31.76449
643.1010, 31.55108
643.5831, 31.30420
644.0652, 31.25554
644.5474, 31.37024
645.0295, 31.51389
645.5116, 31.62482
645.9937, 31.68929
646.4758, 31.63461
646.9579, 31.46296
647.4401, 31.46574
647.9222, 31.75974
648.4043, 32.07867
648.8864, 32.22619
649.3685, 32.23556
649.8506, 32.19914
650.3328, 32.05500
650.8149, 31.97288
651.2970, 32.16052
651.7791, 32.36934
652.2612, 32.20563
652.7433, 31.69721
653.2255, 31.28492
653.7076, 31.31567
654.1897, 31.65058
654.6718, 31.75225
655.1539, 31.47769
655.6360, 31.31574
656.1182, 31.38608
656.6003, 31.54383
657.0824, 31.81469
657.5645, 32.11651
658.0466, 32.20711
658.5287, 31.87465
659.0109, 31.49218
659.4930, 31.42962
659.9751, 31.59845
660.4572, 31.79530
660.9393, 31.98100
661.4214, 32.01756
661.9036, 31.71358
662.3857, 31.13382
662.8678, 30.98196
663.3499, 31.74738
663.8320, 32.29774
664.3141, 32.39251
664.7963, 32.35020
665.2784, 32.44280
665.7605, 32.64950
666.2426, 32.75258
666.7247, 32.56453
667.2068, 32.28744
667.6890, 32.32774
668.1711, 32.67479
668.6532, 32.96091
669.1353, 33.10913
669.6174, 33.16293
670.0995, 33.12905
670.5817, 33.01899
671.0638, 32.95854
671.5459, 32.92431
672.0280, 32.97056
672.5101, 33.14949
672.9922, 33.39661
673.4744, 33.69436
673.9565, 34.00337
674.4386, 34.20127
674.9207, 34.17635
675.4028, 34.00375
675.8849, 33.92116
676.3671, 33.93366
676.8492, 34.02388
677.3313, 34.29163
677.8134, 34.51921
678.2955, 34.48554
678.7776, 34.26463
679.2598, 34.11991
679.7419, 34.11007
680.2240, 34.19193
680.7061, 34.41003
681.1882, 34.67672
681.6703, 34.84112
682.1525, 34.88575
682.6346, 34.91259
683.1167, 35.00082
683.5988, 35.14570
684.0809, 35.34159
684.5630, 35.67974
685.0452, 35.86821
685.5273, 35.67085
686.0094, 35.48589
686.4915, 35.54897
686.9736, 35.81726
687.4557, 36.13977
687.9379, 36.50570
688.4200, 36.82535
688.9021, 36.99113
689.3842, 37.05307
689.8663, 37.14317
690.3484, 37.28330
690.8306, 37.36250
691.3127, 37.28740
691.7948, 37.08486
692.2769, 36.87880
692.7590, 36.50366
693.2411, 36.40259
693.7233, 36.92149
694.2054, 37.40470
694.6875, 37.34056
695.1696, 36.91768
695.6517, 36.69070
696.1339, 36.94905
696.6160, 37.33853
697.0981, 37.45019
697.5802, 37.36256
698.0623, 37.35847
698.5444, 37.48319
699.0266, 37.63367
699.5087, 37.72221
699.9908, 37.79012
700.4729, 37.99818
700.9550, 38.58914
701.4371, 38.94237
701.9193, 38.83470
702.4014, 38.68650
702.8835, 38.75435
703.3656, 38.98511
703.8477, 39.22908
704.3298, 39.42497
704.8120, 39.57946
705.2941, 39.67429
705.7762, 39.72715
706.2583, 39.83281
706.7404, 40.00676
707.2225, 40.18634
707.7046, 40.33852
708.1867, 40.47015
708.6688, 40.58600
709.1509, 40.62329
709.6331, 40.80422
710.1152, 41.39233
710.5973, 41.88643
711.0794, 41.91494
711.5615, 41.65643
712.0436, 41.39284
712.5258, 41.23376
713.0079, 41.28443
713.4900, 41.83175
713.9721, 42.73787
714.4542, 43.20379
714.9363, 43.14719
715.4185, 43.00229
715.9006, 42.88988
716.3827, 42.87349
716.8648, 43.11460
717.3469, 43.67268
717.8290, 44.09811
718.3112, 44.23975
718.7933, 44.36102
719.2754, 44.61298
719.7575, 44.91851
720.2396, 45.11092
720.7217, 45.17201
721.2039, 45.32040
721.6860, 45.79990
722.1681, 46.53399
722.6502, 47.27346
723.1323, 48.05320
723.6144, 48.55904
724.0966, 48.57570
724.5787, 48.44924
725.0608, 48.57999
725.5429, 48.96449
726.0250, 49.34322
726.5071, 49.65125
726.9893, 50.01592
727.4714, 50.37890
727.9535, 50.88499
728.4356, 51.82035
728.9177, 53.11522
729.3998, 54.29920
729.8820, 55.00858
730.3641, 55.41779
730.8462, 55.90852
731.3283, 56.48132
731.8104, 57.11310
732.2925, 57.85250
732.7747, 58.51463
733.2568, 58.80574
733.7389, 58.87185
734.2210, 59.45985
734.7031, 60.99369
735.1852, 62.38102
735.6674, 63.26720
736.1495, 64.03505
736.6316, 64.93935
737.1137, 66.01665
737.5958, 67.27113
738.0779, 68.72695
738.5601, 70.25868
739.0422, 71.72761
739.5243, 73.12374
740.0064, 74.31046
740.4885, 75.19017
740.9706, 76.24283
741.4528, 77.76988
741.9349, 79.60886
742.4170, 81.44388
742.8991, 83.34530
743.3812, 85.01762
743.8633, 86.15261
744.3455, 87.34995
744.8276, 88.99407
745.3097, 90.88354
745.7918, 92.73090
746.2739, 94.43330
746.7560, 95.99505
747.2382, 97.34810
747.7203, 98.56695
748.2024, 99.90819
748.6845, 101.3803
749.1666, 102.7743
749.6487, 104.1116
750.1309, 105.1108
750.6130, 105.3299
751.0951, 104.7053
751.5772, 104.4622
752.0593, 104.9712
752.5414, 105.3453
753.0236, 105.2822
753.5057, 105.0787
753.9878, 105.1221
754.4699, 105.3178
754.9520, 105.1472
755.4341, 104.2013
755.9163, 102.9892
756.3984, 102.1251
756.8805, 101.6003
757.3626, 101.4855
757.8447, 101.8181
758.3268, 102.1176
758.8090, 101.9898
759.2911, 101.6287
759.7732, 101.6918
760.2553, 102.4832
760.7374, 103.1575
761.2195, 103.5914
761.7017, 104.0478
762.1838, 104.7720
762.6659, 105.5584
763.1480, 106.0402
763.6301, 106.1051
764.1122, 106.1339
764.5944, 106.4874
765.0765, 106.9414
765.5586, 107.1171
766.0407, 107.0427
766.5228, 106.9676
767.0049, 106.9909
767.4871, 106.9753
767.9692, 106.6699
768.4513, 106.0362
768.9334, 106.1057
769.4155, 107.7894
769.8976, 108.6751
770.3798, 107.5516
770.8619, 106.0087
771.3440, 105.2239
771.8261, 105.1646
772.3082, 105.2353
772.7903, 105.1549
773.2725, 105.2435
773.7546, 105.7026
774.2367, 106.4845
774.7188, 107.5751
775.2009, 108.9327
775.6830, 110.4197
776.1652, 111.9699
776.6473, 113.5151
777.1294, 114.7821
777.6115, 115.6473
778.0936, 117.1321
778.5757, 119.6064
779.0579, 122.1436
779.5400, 124.1171
780.0221, 125.8925
780.5042, 128.0347
780.9863, 130.6003
781.4684, 133.4142
781.9506, 136.5672
782.4327, 139.8193
782.9148, 142.8569
783.3969, 145.9611
783.8790, 149.5528
784.3611, 153.7525
784.8433, 158.4579
785.3254, 163.6355
785.8075, 169.2121
786.2896, 174.7887
786.7717, 180.3343
787.2538, 186.7333
787.7360, 194.3861
788.2181, 202.3394
788.7002, 209.3982
789.1823, 215.8498
789.6644, 223.9034
790.1465, 234.3106
790.6286, 245.2074
791.1107, 256.5802
791.5928, 268.2919
792.0750, 279.8098
792.5571, 291.7194
793.0392, 305.2042
793.5213, 320.6191
794.0034, 337.9496
794.4855, 357.2130
794.9677, 378.3900
795.4498, 401.1017
795.9319, 425.5533
796.4140, 452.2702
796.8961, 481.5982
797.3782, 513.0384
797.8604, 545.9863
798.3425, 580.6654
798.8246, 615.7149
799.3067, 650.9586
799.7888, 687.0999
800.2709, 725.8036
800.7531, 764.2059
801.2352, 799.6856
801.7173, 832.6403
802.1994, 864.8447
802.6815, 898.6058
803.1636, 929.0012
803.6458, 954.3625
804.1279, 974.0706
804.6100, 987.3728
805.0921, 994.2871
805.5742, 994.9348
806.0563, 989.2205
806.5385, 978.6649
807.0206, 965.5023
807.5027, 949.7106
807.9848, 930.9748
808.4669, 908.9952
808.9490, 884.9721
809.4312, 858.9531
809.9133, 831.9655
810.3954, 805.5693
810.8775, 779.8788
811.3596, 754.0658
811.8417, 727.1816
812.3239, 701.5099
812.8060, 678.0510
813.2881, 655.8883
813.7702, 634.3796
814.2523, 613.5370
814.7344, 593.8594
815.2166, 575.7986
815.6987, 558.6307
816.1808, 541.8028
816.6629, 525.4678
817.1450, 509.9216
817.6271, 495.2124
818.1093, 481.3175
818.5914, 468.1900
819.0735, 456.0544
819.5556, 445.3106
820.0377, 435.9240
820.5198, 428.0739
821.0020, 421.7475
821.4841, 416.8622
821.9662, 413.4877
822.4483, 411.5338
822.9304, 410.6113
823.4125, 410.7609
823.8947, 413.2939
824.3768, 417.7046
824.8589, 425.4554
825.3410, 436.8344
825.8231, 452.1587
826.3052, 471.2156
826.7874, 494.4382
827.2695, 522.8538
827.7516, 557.0280
828.2337, 597.4040
828.7158, 643.4145
829.1979, 696.0944
829.6801, 759.9063
830.1622, 834.8598
830.6443, 920.3633
831.1264, 1016.489
831.6085, 1121.379
832.0906, 1234.082
832.5728, 1355.614
833.0549, 1473.734
833.5370, 1595.160
834.0191, 1701.767
834.5012, 1799.740
834.9833, 1873.581
835.4655, 1913.255
835.9476, 1917.844
836.4297, 1888.460
836.9118, 1818.791
837.3939, 1726.001
837.8760, 1609.804
838.3582, 1481.461
838.8403, 1349.070
839.3224, 1216.726
839.8045, 1089.807
840.2866, 971.0035
840.7687, 862.0096
841.2509, 766.9073
841.7330, 684.8821
842.2151, 612.7052
842.6972, 550.7675
843.1793, 497.4667
843.6614, 453.4703
844.1436, 415.9694
844.6257, 382.3476
845.1078, 352.5295
845.5899, 326.1506
846.0720, 303.9033
846.5541, 284.4028
847.0363, 268.1698
847.5184, 253.8865
848.0005, 240.8645
848.4826, 229.0596
848.9647, 218.5006
849.4468, 209.2606
849.9290, 200.9912
850.4111, 193.7625
850.8932, 187.1636
851.3753, 180.6540
851.8574, 174.3919
852.3395, 168.7926
852.8217, 164.0108
853.3038, 159.8423
853.7859, 156.1550
854.2680, 152.9560
854.7501, 150.4175
855.2322, 148.5341
855.7144, 146.7300
856.1965, 144.8902
856.6786, 143.1707
857.1607, 141.7606
857.6428, 140.5195
858.1249, 138.9578
858.6071, 136.7475
859.0892, 134.9386
859.5713, 133.5761
860.0534, 132.5479
860.5355, 132.0376
861.0176, 131.7093
861.4998, 131.0521
861.9819, 130.0475
862.4640, 129.4213
862.9461, 129.7819
863.4282, 130.2683
863.9103, 130.1303
864.3925, 129.8382
864.8746, 130.0741
865.3567, 130.8656
865.8388, 131.8256
866.3209, 132.7266
866.8030, 133.7024
867.2852, 134.8022
867.7673, 136.1190
868.2494, 138.2551
868.7315, 141.2578
869.2136, 144.4765
869.6957, 147.5647
870.1779, 151.0673
870.6600, 155.6757
871.1421, 161.4012
871.6242, 167.6703
872.1063, 174.2579
872.5884, 181.7879
873.0705, 190.8231
873.5526, 200.3542
874.0347, 209.7801
874.5168, 219.2072
874.9990, 229.3088
875.4811, 240.6916
875.9632, 250.9878
876.4453, 260.1481
876.9274, 267.1165
877.4095, 271.2932
877.8917, 272.6269
878.3738, 271.1183
878.8559, 266.8064
879.3380, 259.7841
879.8201, 249.6607
880.3022, 237.3888
880.7844, 223.7707
881.2665, 209.2802
881.7486, 195.7685
882.2307, 183.5137
882.7128, 171.9004
883.1949, 160.5674
883.6771, 149.7599
884.1592, 140.0551
884.6413, 131.4632
885.1234, 123.8022
885.6055, 117.3017
886.0876, 111.1362
886.5698, 104.8455
887.0519, 98.91943
887.5340, 93.85439
888.0161, 89.64404
888.4982, 85.90949
888.9803, 82.99597
889.4625, 80.06295
889.9446, 76.51262
890.4267, 73.30824
890.9088, 71.39407
891.3909, 70.25870
891.8730, 68.82835
892.3552, 66.78377
892.8373, 64.79485
893.3194, 63.28635
893.8015, 62.04398
894.2836, 60.92301
894.7657, 59.87188
895.2479, 58.77551
895.7300, 57.64190
896.2121, 56.66426
896.6942, 56.01880
897.1763, 55.52607
897.6584, 54.76321
898.1406, 53.78090
898.6227, 53.12211
899.1048, 52.86737
899.5869, 52.54748
900.0690, 51.92199
900.5511, 51.16555
901.0333, 50.53282
901.5154, 50.02934
901.9975, 49.52061
902.4796, 48.95519
902.9617, 48.47700
903.4438, 48.15541
903.9260, 47.88833
904.4081, 47.59286
904.8902, 47.29985
905.3723, 47.11094
905.8544, 47.10408
906.3365, 47.01060
906.8187, 46.68004
907.3008, 46.33564
907.7829, 46.21640
908.2650, 46.11335
908.7471, 45.68652
909.2292, 44.92448
909.7114, 44.13978
910.1935, 43.44754
910.6756, 42.92551
911.1577, 42.78829
911.6398, 42.81910
912.1219, 42.58252
912.6041, 42.09204
913.0862, 41.65871
913.5683, 41.43022
914.0504, 41.25777
914.5325, 40.93858
915.0146, 40.49825
915.4968, 40.04409
915.9789, 39.57127
916.4610, 39.25014
916.9431, 39.15836
917.4252, 39.04787
917.9073, 38.69156
918.3895, 38.17078
918.8716, 37.78145
919.3537, 37.55561
919.8358, 37.37693
920.3179, 37.31956
920.8000, 37.20100
921.2822, 36.95969
921.7643, 36.61266
922.2464, 36.07954
922.7285, 35.38247
923.2106, 34.98397
923.6927, 35.05951
924.1749, 35.28865
924.6570, 35.85158
925.1391, 36.29553
925.6212, 36.06623
926.1033, 35.48963
926.5854, 35.32801
927.0676, 35.81631
927.5497, 36.27594
928.0318, 36.24998
928.5139, 35.98951
928.9960, 35.68277
929.4781, 35.35594
929.9603, 34.96917
930.4424, 34.56944
930.9245, 34.43225
931.4066, 34.77179
931.8887, 35.23356
932.3708, 35.26166
932.8530, 34.92797
933.3351, 34.45776
933.8172, 33.88097
934.2993, 33.47442
934.7814, 33.35790
935.2635, 33.28930
935.7457, 32.99247
936.2278, 32.52053
936.7099, 32.21277
937.1920, 32.13733
937.6741, 31.90659
938.1563, 31.38820
938.6384, 30.90731
939.1205, 30.65695
939.6026, 30.53642
940.0847, 30.35826
940.5668, 30.09838
941.0490, 29.92583
941.5311, 29.99895
942.0132, 29.93958
942.4953, 29.56951
942.9774, 29.14042
943.4595, 28.79423
943.9417, 28.54334
944.4238, 28.41964
944.9059, 28.48784
945.3880, 28.45628
945.8701, 28.01316
946.3522, 27.65706
946.8344, 27.90226
947.3165, 28.33800
947.7986, 28.32935
948.2807, 27.87562
948.7628, 27.52991
949.2449, 27.65037
949.7271, 27.81548
950.2092, 27.56301
950.6913, 27.12864
951.1734, 26.85017
951.6555, 26.73180
952.1376, 26.69746
952.6198, 26.71232
953.1019, 26.71354
953.5840, 26.62010
954.0661, 26.49610
954.5482, 26.56044
955.0303, 26.76105
955.5124, 26.73417
955.9945, 26.42829
956.4766, 25.99755
956.9587, 25.48747
957.4409, 25.10597
957.9230, 25.27462
958.4051, 25.97593
958.8872, 26.08378
959.3693, 25.42470
959.8514, 24.91614
960.3336, 24.77433
960.8157, 24.78728
961.2978, 24.84307
961.7799, 24.91112
962.2620, 24.89333
962.7441, 24.71914
963.2263, 24.67969
963.7084, 24.93337
964.1905, 25.10690
964.6726, 25.07354
965.1547, 24.94530
965.6368, 24.76392
966.1190, 24.56256
966.6011, 24.48226
967.0832, 24.64235
967.5653, 24.71522
968.0474, 24.55446
968.5295, 24.37106
969.0117, 24.25753
969.4938, 24.21075
969.9759, 24.24799
970.4580, 24.35084
970.9401, 24.40348
971.4222, 24.31816
971.9044, 24.22980
972.3865, 24.20897
972.8686, 24.23939
973.3507, 24.26458
973.8328, 24.33581
974.3149, 24.61069
974.7971, 25.11372
975.2792, 25.60374
975.7613, 25.90720
976.2434, 26.07141
976.7255, 26.09855
977.2076, 26.05458
977.6898, 26.09052
978.1719, 26.20896
978.6540, 26.31723
979.1361, 26.37174
979.6182, 26.39902
980.1003, 26.43847
980.5825, 26.47531
981.0646, 26.41337
981.5467, 26.27996
982.0288, 26.30874
982.5109, 26.54548
982.9930, 26.89304
983.4752, 27.30824
983.9573, 27.69824
984.4394, 27.86946
984.9215, 27.82028
985.4036, 27.82139
985.8857, 27.92366
986.3679, 27.71567
986.8500, 26.97851
987.3321, 26.27857
987.8142, 26.14984
988.2963, 26.34095
988.7784, 26.02337
989.2606, 24.97957
989.7427, 24.20476
990.2248, 23.78135
990.7069, 23.47387
991.1890, 23.27555
991.6711, 23.08895
992.1533, 22.81167
992.6354, 22.46070
993.1175, 22.13847
993.5996, 21.83792
994.0817, 21.58024
994.5638, 21.40132
995.0460, 21.22092
995.5281, 20.89750
996.0102, 20.63464
996.4923, 20.77384
996.9744, 21.23750
997.4565, 21.38663
997.9387, 20.76974
998.4208, 20.38442
998.9029, 20.74511
999.3850, 21.13616
999.8671, 21.10835
1000.349, 20.82583
1000.831, 20.50177
1001.313, 20.19140
1001.796, 19.98820
1002.278, 19.99870
1002.760, 20.02301
1003.242, 19.86332
1003.724, 19.74512
1004.206, 20.02446
1004.688, 20.46238
1005.170, 20.52603
1005.653, 20.12064
1006.135, 19.72228
1006.617, 19.65667
1007.099, 19.68614
1007.581, 19.58452
1008.063, 19.44008
1008.545, 19.34894
1009.027, 19.33460
1009.509, 19.49007
1009.992, 19.81896
1010.474, 19.97981
1010.956, 19.49318
1011.438, 18.86259
1011.920, 18.91330
1012.402, 19.39700
1012.884, 19.81165
1013.366, 20.06747
1013.849, 20.11250
1014.331, 19.92884
1014.813, 19.67045
1015.295, 19.46442
1015.777, 19.34708
1016.259, 19.51569
1016.741, 19.87211
1017.223, 19.89706
1017.705, 19.54459
1018.188, 19.21972
1018.670, 19.13136
1019.152, 19.15303
1019.634, 19.13215
1020.116, 19.06446
1020.598, 18.87722
1021.080, 18.58154
1021.562, 18.49868
1022.044, 18.69594
1022.527, 18.89740
1023.009, 18.95586
1023.491, 18.87026
1023.973, 18.59778
1024.455, 18.15961
1024.937, 17.93754
1025.419, 17.95909
1025.901, 17.95967
1026.384, 17.87197
1026.866, 17.85996
1027.348, 18.06243
1027.830, 18.31925
1028.312, 18.30339
1028.794, 17.99498
1029.276, 17.93254
1029.758, 18.20138
1030.240, 18.41817
1030.723, 18.51152
1031.205, 18.54782
1031.687, 18.60065
1032.169, 18.58466
1032.651, 18.26974
1033.133, 17.56959
1033.615, 17.31653
1034.097, 17.71500
1034.579, 18.13204
1035.062, 18.58127
1035.544, 18.81465
1036.026, 18.54062
1036.508, 18.01157
1036.990, 17.75150
1037.472, 17.79160
1037.954, 17.93434
1038.436, 18.40797
1038.919, 18.61028
1039.401, 18.18052
1039.883, 17.73236
1040.365, 17.73909
1040.847, 17.97888
1041.329, 17.94551
1041.811, 17.54267
1042.293, 17.37927
1042.776, 17.67703
1043.258, 17.91879
1043.740, 18.00326
1044.222, 18.01029
1044.704, 17.89021
1045.186, 17.76271
1045.668, 17.91627
1046.150, 18.44198
1046.632, 18.71579
1047.115, 18.48480
1047.597, 18.25296
1048.079, 18.17880
1048.561, 18.10795
1049.043, 17.83777
1049.525, 17.52762
1050.007, 17.54889
1050.489, 17.98978
1050.971, 18.17765
1051.454, 17.72580
1051.936, 17.35504
1052.418, 17.33637
1052.900, 17.41674
1053.382, 17.41990
1053.864, 17.38331
1054.346, 17.41527
1054.828, 17.53407
1055.311, 17.58422
1055.793, 17.40616
1056.275, 17.31385
1056.757, 17.59625
1057.239, 17.82740
1057.721, 17.54805
1058.203, 17.04837
1058.685, 16.86552
1059.167, 17.07883
1059.650, 17.33024
1060.132, 17.61398
1060.614, 17.76684
1061.096, 17.63387
1061.578, 17.43869
1062.060, 17.32605
1062.542, 17.28217
1063.024, 17.27818
1063.506, 17.30310
1063.989, 17.30337
1064.471, 17.26446
1064.953, 17.19013
1065.435, 17.03409
1065.917, 16.89041
1066.399, 16.83561
1066.881, 16.83958
1067.363, 16.81586
1067.846, 16.77376
1068.328, 16.89714
1068.810, 17.47451
1069.292, 17.84354
1069.774, 17.52022
1070.256, 17.06863
1070.738, 16.78912
1071.220, 16.72359
1071.703, 17.01424
1072.185, 17.57325
1072.667, 17.87762
1073.149, 17.66239
1073.631, 17.33719
1074.113, 16.92165
1074.595, 16.64300
1075.077, 16.83089
1075.559, 17.15252
1076.042, 17.12209
1076.524, 16.76653
1077.006, 16.50626
1077.488, 16.49859
1077.970, 16.55206
1078.452, 16.62611
1078.934, 16.67791
1079.416, 16.66741
1079.898, 16.62638
1080.380, 16.56812
1080.863, 16.51703
1081.345, 16.55358
1081.827, 16.73769
1082.309, 16.83046
1082.791, 16.51572
1083.273, 16.31989
1083.755, 16.74767
1084.237, 17.32063
1084.720, 17.51863
1085.202, 17.40142
1085.684, 17.27322
1086.166, 17.21287
1086.648, 17.14287
1087.130, 16.98684
1087.612, 16.86723
1088.094, 16.87227
1088.577, 16.92041
1089.059, 16.95257
1089.541, 16.96019
1090.023, 16.93233
1090.505, 16.86662
1090.987, 16.82652
1091.469, 16.86672
1091.951, 16.89615
1092.433, 16.86088
1092.916, 16.81460
1093.398, 16.79840
1093.880, 16.80227
1094.362, 16.85267
1094.844, 16.93370
1095.326, 16.82579
1095.808, 16.18896
1096.290, 15.75504
1096.772, 15.94453
1097.255, 16.21618
1097.737, 16.20532
1098.219, 16.07854
1098.701, 16.10534
1099.183, 16.27831
1099.665, 16.34927
1100.147, 16.14234
1100.629, 16.08004
1101.112, 16.52217
1101.594, 16.83502
1102.076, 16.55448
1102.558, 16.10398
1103.040, 15.93569
1103.522, 16.01007
1104.004, 16.04704
1104.486, 15.97608
1104.969, 15.96289
1105.451, 16.01858
1105.933, 16.16033
1106.415, 16.56927
1106.897, 16.90674
1107.379, 16.81178
1107.861, 16.45397
1108.343, 16.28329
1108.825, 16.38486
1109.307, 16.36777
1109.790, 16.04671
1110.272, 15.81992
1110.754, 15.82445
1111.236, 15.88478
1111.718, 15.87634
1112.200, 15.86457
1112.682, 15.98604
1113.164, 16.25251
1113.647, 16.42016
1114.129, 16.41073
1114.611, 16.43390
1115.093, 16.58732
1115.575, 16.66025
1116.057, 16.54304
1116.539, 16.31667
1117.021, 16.01388
1117.504, 15.67070
1117.986, 15.57123
1118.468, 15.90084
1118.950, 16.02106
1119.432, 15.78967
1119.914, 15.62762
1120.396, 15.70070
1120.878, 15.83218
1121.360, 15.88568
1121.843, 15.87040
1122.325, 15.79901
1122.807, 15.64340
1123.289, 15.62684
1123.771, 15.82999
1124.253, 15.87811
1124.735, 15.63632
1125.217, 15.39558
1125.699, 15.34485
1126.182, 15.39530
1126.664, 15.39596
1127.146, 15.35097
1127.628, 15.33728
1128.110, 15.35732
1128.592, 15.37641
1129.074, 15.38097
1129.556, 15.48408
1130.039, 15.76586
1130.521, 15.97917
1131.003, 15.79766
1131.485, 15.38774
1131.967, 15.41464
1132.449, 15.83888
1132.931, 15.87990
1133.413, 15.50793
1133.896, 15.37256
1134.378, 15.67167
1134.860, 15.95516
1135.342, 15.86546
1135.824, 15.59670
1136.306, 15.46404
1136.788, 15.45792
1137.270, 15.59906
1137.752, 15.83989
1138.234, 15.82221
1138.717, 15.57548
1139.199, 15.91739
1139.681, 17.27281
1140.163, 18.53269
1140.645, 18.29983
1141.127, 17.30191
1141.609, 16.75480
1142.091, 16.53524
1142.574, 16.42634
1143.056, 16.38123
1143.538, 16.37233
1144.020, 16.38583
1144.502, 16.40225
1144.984, 16.43262
1145.466, 16.40001
1145.948, 16.09810
1146.431, 15.78829
1146.913, 15.90058
1147.395, 16.21250
1147.877, 16.27800
1148.359, 16.07018
1148.841, 15.83400
1149.323, 15.64585
1149.805, 15.60575
1150.287, 15.98234
1150.770, 16.29577
1151.252, 16.07762
1151.734, 15.71195
1152.216, 15.65618
1152.698, 15.79907
1153.180, 15.76497
1153.662, 15.47654
1154.144, 15.27449
1154.626, 15.28195
1155.109, 15.38016
1155.591, 15.64662
1156.073, 15.86373
1156.555, 15.82940
1157.037, 15.71062
1157.519, 15.76803
1158.001, 15.97273
1158.483, 16.00875
1158.966, 15.63982
1159.448, 15.54639
1159.930, 16.16921
1160.412, 16.51853
1160.894, 16.05345
1161.376, 15.54489
1161.858, 15.60311
1162.340, 15.99416
1162.822, 16.21204
1163.305, 16.23995
1163.787, 16.28781
1164.269, 16.39814
1164.751, 16.34950
1165.233, 15.93438
1165.715, 15.95646
1166.197, 17.00067
1166.679, 18.10050
1167.161, 18.05034
1167.644, 17.16713
1168.126, 16.75662
1168.608, 16.83407
1169.090, 16.96494
1169.572, 17.13751
1170.054, 17.05467
1170.536, 16.62877
1171.018, 16.25426
1171.500, 16.20848
1171.983, 16.32492
1172.465, 16.35190
1172.947, 16.31623
1173.429, 16.30189
1173.911, 16.30537
1174.393, 16.30376
1174.875, 16.30308
1175.357, 16.37111
1175.840, 16.52308
1176.322, 16.60215
1176.804, 16.41785
1177.286, 16.23748
1177.768, 16.48472
1178.250, 16.88035
1178.732, 17.08969
1179.214, 17.09364
1179.697, 16.79133
1180.179, 16.29370
1180.661, 16.05438
1181.143, 16.28121
1181.625, 16.60602
1182.107, 16.99171
1182.589, 17.17602
1183.071, 16.78665
1183.553, 16.29182
1184.036, 16.13647
1184.518, 16.21802
1185.000, 16.27416
1185.482, 16.27164
1185.964, 16.35381
1186.446, 16.62222
1186.928, 16.86579
1187.410, 17.19058
1187.892, 17.30853
1188.375, 16.76945
1188.857, 16.26230
1189.339, 16.59520
1189.821, 17.41013
1190.303, 17.64346
1190.785, 17.17719
1191.267, 16.81240
1191.749, 16.51499
1192.232, 16.45115
1192.714, 16.75615
1193.196, 16.96426
1193.678, 16.81001
1194.160, 16.54491
1194.642, 16.47844
1195.124, 16.55515
1195.606, 16.52697
1196.089, 16.40377
1196.571, 16.52369
1197.053, 16.88253
1197.535, 17.06199
1198.017, 16.96664
1198.499, 16.88067
1198.981, 16.98490
1199.463, 17.11303
1199.945, 17.02972
1200.427, 16.82705
1200.910, 16.64850
1201.392, 16.51129
1201.874, 16.45415
1202.356, 16.47243
1202.838, 16.54029
1203.320, 16.65081
1203.802, 16.83293
1204.284, 17.16662
1204.767, 17.38379
1205.249, 17.13471
1205.731, 16.84159
1206.213, 16.87350
1206.695, 17.05390
1207.177, 17.16406
1207.659, 17.21630
1208.141, 17.34068
1208.624, 17.57354
1209.106, 17.67223
1209.588, 17.45280
1210.070, 17.28239
1210.552, 17.28336
1211.034, 17.29476
1211.516, 17.23626
1211.998, 17.14742
1212.480, 17.03028
1212.963, 16.92358
1213.445, 16.99901
1213.927, 17.32956
1214.409, 17.45507
1214.891, 17.31036
1215.373, 17.22389
1215.855, 17.26786
1216.337, 17.33737
1216.819, 17.39414
1217.302, 17.34595
1217.784, 17.03189
1218.266, 16.60369
1218.748, 16.60392
1219.230, 16.92357
1219.712, 16.95875
1220.194, 16.75743
1220.676, 16.77170
1221.159, 17.07122
1221.641, 17.36830
1222.123, 17.50987
1222.605, 17.57204
1223.087, 17.61887
1223.569, 17.63976
1224.051, 17.64455
1224.533, 17.59859
1225.016, 17.33199
1225.498, 17.03151
1225.980, 17.16810
1226.462, 17.70733
1226.944, 17.95753
1227.426, 17.56346
1227.908, 17.20408
1228.390, 17.11285
1228.872, 17.10187
1229.354, 17.17527
1229.837, 17.21746
1230.319, 17.09423
1230.801, 16.90184
1231.283, 16.78318
1231.765, 16.74142
1232.247, 16.90909
1232.729, 17.40143
1233.211, 17.75099
1233.694, 17.92684
1234.176, 18.00276
1234.658, 17.99835
1235.140, 17.89016
1235.622, 17.63407
1236.104, 17.37396
1236.586, 17.35135
1237.068, 17.53848
1237.551, 17.94251
1238.033, 18.45160
1238.515, 18.50255
1238.997, 18.13745
1239.479, 17.83572
1239.961, 17.73321
1240.443, 17.64902
1240.925, 17.45933
1241.407, 17.30102
1241.890, 17.31579
1242.372, 17.41458
1242.854, 17.55466
1243.336, 17.69163
1243.818, 17.76081
1244.300, 17.79199
1244.782, 17.87953
1245.264, 18.02755
1245.746, 18.07135
1246.229, 17.84142
1246.711, 17.73965
1247.193, 17.98771
1247.675, 18.16388
1248.157, 18.06870
1248.639, 17.92490
1249.121, 17.88745
1249.603, 17.90312
1250.085, 17.87867
1250.568, 17.81521
1251.050, 17.70259
1251.532, 17.51747
1252.014, 17.61195
1252.496, 18.03059
1252.978, 18.14161
1253.460, 17.75774
1253.942, 17.46201
1254.425, 17.66856
1254.907, 18.02923
1255.389, 18.07433
1255.871, 17.92949
1256.353, 17.74724
1256.835, 17.59684
1257.317, 17.66432
1257.799, 17.86530
1258.281, 17.98202
1258.764, 17.96885
1259.246, 17.88520
1259.728, 17.72072
1260.210, 17.62571
1260.692, 17.71115
1261.174, 17.82833
1261.656, 17.86958
1262.138, 17.95384
1262.620, 18.27098
1263.103, 18.63540
1263.585, 18.72595
1264.067, 18.57704
1264.549, 18.48493
1265.031, 18.48759
1265.513, 18.40634
1265.995, 18.21296
1266.477, 18.07498
1266.960, 18.04643
1267.442, 17.92966
1267.924, 17.59643
1268.406, 17.29247
1268.888, 17.32990
1269.370, 17.56813
1269.852, 17.70887
1270.334, 17.77779
1270.817, 17.86868
1271.299, 17.93793
1271.781, 17.77662
1272.263, 17.45329
1272.745, 17.36366
1273.227, 17.65978
1273.709, 17.96940
1274.191, 18.12056
1274.673, 18.16125
1275.156, 17.99551
1275.638, 17.86498
1276.120, 18.00527
1276.602, 18.20873
1277.084, 18.18489
1277.566, 18.02707
1278.048, 18.10086
1278.530, 18.46218
1279.012, 18.51273
1279.495, 18.11092
1279.977, 17.91822
1280.459, 18.03170
1280.941, 18.23310
1281.423, 18.45805
1281.905, 18.61909
1282.387, 18.64480
1282.869, 18.58729
1283.352, 18.54250
1283.834, 18.47586
1284.316, 18.31197
1284.798, 18.05154
##END=



