##NAMES=Rosemaryite
##RRUFFID=R140519
##IDEAL CHEMISTRY=[box]NaMn^2+^(Fe^3+^Al)(PO_4_)_3_
##LOCALITY=Buranga pegmatite, Gatumba District, Western Province, Rwanda
##OWNER=RRUFF
##SOURCE=Rock Currier
##DESCRIPTION=Vitreous-opaque dark brown irregularly shaped masses intergrown with vitreous light brown childrenite and blocky dark blue scorzalite in a grayish siliceous matrix.
##STATUS=The identification of this mineral is confirmed by single-crystal X-ray diffraction and chemical analysis.
##URL=rruff.info/R140519
##MEASURED CHEMISTRY=(Na_0.49_Ca_0.05_Mn^2+^_0.29_[box]_0.17_)Mn^2+^_1.00_(Fe^3+^_0.82_Mg_0.10_Mn^2+^_0.08_)(Al^3+^_0.76_Fe^3+^_0.24_)(PO_4_)_3_
91.35754, 1115.877
91.83966, 1108.010
92.32178, 1077.141
92.80389, 1045.090
93.28601, 1015.175
93.76813, 988.5983
94.25024, 964.8282
94.73236, 942.2327
95.21448, 920.9662
95.69659, 898.2181
96.17871, 875.6104
96.66083, 854.9371
97.14294, 837.5298
97.62506, 823.9508
98.10718, 813.8671
98.58929, 805.3461
99.07141, 800.5941
99.55353, 794.6461
100.0356, 784.9271
100.5178, 771.9003
100.9999, 758.1015
101.4820, 745.2964
101.9641, 733.5488
102.4462, 724.3303
102.9283, 718.9016
103.4105, 715.0930
103.8926, 710.3870
104.3747, 704.0380
104.8568, 698.2678
105.3389, 696.5967
105.8210, 698.2289
106.3032, 699.0336
106.7853, 698.0759
107.2674, 695.0867
107.7495, 688.3281
108.2316, 674.3627
108.7137, 659.3493
109.1959, 647.1630
109.6780, 638.0398
110.1601, 631.0844
110.6422, 625.6241
111.1243, 621.9335
111.6064, 618.7889
112.0886, 616.6915
112.5707, 614.6238
113.0528, 611.8832
113.5349, 608.2451
114.0170, 604.0637
114.4991, 600.2060
114.9813, 597.4750
115.4634, 593.9843
115.9455, 589.2889
116.4276, 583.9025
116.9097, 578.4135
117.3918, 573.1218
117.8740, 568.0276
118.3561, 562.9998
118.8382, 557.5427
119.3203, 552.6429
119.8024, 548.6674
120.2845, 545.5323
120.7667, 542.8967
121.2488, 540.4128
121.7309, 538.3231
122.2130, 537.3147
122.6951, 539.5519
123.1772, 541.5428
123.6594, 539.6375
124.1415, 533.1995
124.6236, 526.1189
125.1057, 521.0801
125.5878, 517.4921
126.0699, 514.7001
126.5521, 512.8509
127.0342, 511.6353
127.5163, 510.0702
127.9984, 507.9453
128.4805, 505.7614
128.9626, 503.7050
129.4448, 501.7860
129.9269, 500.0496
130.4090, 498.8322
130.8911, 498.2842
131.3732, 496.4499
131.8553, 491.8382
132.3375, 487.1009
132.8196, 483.0133
133.3017, 479.7198
133.7838, 477.0864
134.2659, 475.0287
134.7480, 473.8754
135.2302, 472.4810
135.7123, 470.5413
136.1944, 468.6119
136.6765, 466.9741
137.1586, 465.7248
137.6407, 464.9362
138.1229, 464.8107
138.6050, 466.3005
139.0871, 466.6948
139.5692, 465.4421
140.0513, 463.1230
140.5334, 460.3683
141.0156, 457.3005
141.4977, 454.1269
141.9798, 451.2647
142.4619, 448.6761
142.9440, 446.3186
143.4261, 444.0822
143.9083, 442.0286
144.3904, 440.3793
144.8725, 439.2343
145.3546, 438.6056
145.8367, 438.4818
146.3188, 439.0828
146.8010, 439.6306
147.2831, 439.3494
147.7652, 438.1517
148.2473, 436.8409
148.7294, 435.6192
149.2115, 434.4743
149.6937, 433.3666
150.1758, 432.2477
150.6579, 431.2714
151.1400, 430.8530
151.6221, 431.5886
152.1042, 431.6422
152.5864, 429.8449
153.0685, 427.5278
153.5506, 426.1997
154.0327, 426.6945
154.5148, 428.5106
154.9969, 429.4897
155.4791, 429.2885
155.9612, 428.4697
156.4433, 426.6550
156.9254, 424.3416
157.4075, 422.2339
157.8896, 420.7987
158.3718, 420.0073
158.8539, 419.3139
159.3360, 418.4213
159.8181, 417.8926
160.3002, 418.2880
160.7823, 419.2944
161.2645, 419.9955
161.7466, 419.5980
162.2287, 418.0789
162.7108, 417.1556
163.1929, 417.3208
163.6750, 417.6266
164.1572, 417.5224
164.6393, 416.9750
165.1214, 416.1642
165.6035, 415.1138
166.0856, 413.8763
166.5677, 412.8706
167.0499, 412.3688
167.5320, 412.0184
168.0141, 411.3588
168.4962, 410.2810
168.9783, 409.1983
169.4604, 408.5529
169.9426, 408.1757
170.4247, 407.6974
170.9068, 407.0537
171.3889, 406.2070
171.8710, 404.9687
172.3531, 403.0186
172.8353, 401.2026
173.3174, 400.2088
173.7995, 399.7352
174.2816, 399.0729
174.7637, 397.4943
175.2458, 395.0872
175.7280, 393.4541
176.2101, 393.3748
176.6922, 393.3308
177.1743, 392.7924
177.6564, 391.7887
178.1385, 390.5126
178.6207, 389.0336
179.1028, 387.2714
179.5849, 385.9671
180.0670, 385.6019
180.5491, 385.2745
181.0313, 384.6620
181.5134, 383.7455
181.9955, 382.6674
182.4776, 381.5492
182.9597, 380.3395
183.4418, 379.3014
183.9240, 378.3373
184.4061, 377.5732
184.8882, 377.2329
185.3703, 377.2656
185.8524, 377.3002
186.3345, 376.8869
186.8167, 375.8559
187.2988, 374.7944
187.7809, 373.5656
188.2630, 372.3820
188.7451, 371.4644
189.2272, 370.8467
189.7094, 370.3314
190.1915, 369.6135
190.6736, 368.5871
191.1557, 367.9105
191.6378, 367.9247
192.1199, 368.2186
192.6021, 368.2964
193.0842, 368.0431
193.5663, 367.6146
194.0484, 367.1349
194.5305, 366.5999
195.0126, 366.2023
195.4948, 366.3401
195.9769, 366.6234
196.4590, 366.1216
196.9411, 364.3437
197.4232, 362.3514
197.9053, 361.2147
198.3875, 360.8325
198.8696, 360.7141
199.3517, 360.6917
199.8338, 360.7492
200.3159, 360.8099
200.7980, 360.8505
201.2802, 360.9147
201.7623, 361.0529
202.2444, 361.2516
202.7265, 361.4336
203.2086, 361.5899
203.6907, 361.7177
204.1729, 361.6476
204.6550, 361.1750
205.1371, 360.6673
205.6192, 360.3409
206.1013, 360.1673
206.5834, 359.9757
207.0656, 359.5399
207.5477, 358.7870
208.0298, 358.2847
208.5119, 358.1729
208.9940, 358.2143
209.4761, 358.3648
209.9583, 358.5983
210.4404, 358.8729
210.9225, 359.1345
211.4046, 359.3515
211.8867, 359.6972
212.3689, 360.3901
212.8510, 361.0189
213.3331, 361.3868
213.8152, 361.4875
214.2973, 361.4228
214.7794, 361.2932
215.2616, 361.0738
215.7437, 360.8793
216.2258, 360.8313
216.7079, 360.7099
217.1900, 360.3257
217.6721, 359.7030
218.1543, 359.0430
218.6364, 358.5569
219.1185, 358.2506
219.6006, 358.1752
220.0827, 358.5351
220.5648, 358.9463
221.0470, 359.1214
221.5291, 359.0433
222.0112, 358.9440
222.4933, 359.1230
222.9754, 359.7098
223.4575, 359.7719
223.9397, 358.7526
224.4218, 357.5875
224.9039, 357.0139
225.3860, 357.1197
225.8681, 357.5431
226.3502, 358.0328
226.8324, 358.5922
227.3145, 358.8558
227.7966, 358.6092
228.2787, 358.1704
228.7608, 357.8187
229.2429, 357.5857
229.7251, 357.4132
230.2072, 357.3643
230.6893, 357.3719
231.1714, 357.0225
231.6535, 355.8549
232.1356, 354.4860
232.6178, 353.6898
233.0999, 353.5765
233.5820, 353.6194
234.0641, 353.4858
234.5462, 353.2021
235.0283, 352.7969
235.5105, 352.0849
235.9926, 351.3301
236.4747, 351.0147
236.9568, 351.2820
237.4389, 351.4391
237.9210, 350.9033
238.4032, 349.9785
238.8853, 349.0556
239.3674, 348.1890
239.8495, 347.4483
240.3316, 347.0755
240.8137, 347.3080
241.2959, 347.1903
241.7780, 345.7655
242.2601, 343.8662
242.7422, 342.5273
243.2243, 342.2955
243.7064, 342.6203
244.1886, 342.4537
244.6707, 341.6164
245.1528, 340.7305
245.6349, 340.1208
246.1170, 339.5492
246.5991, 338.7369
247.0813, 337.5496
247.5634, 336.1694
248.0455, 334.9591
248.5276, 334.0466
249.0097, 333.0294
249.4918, 331.5658
249.9740, 330.0847
250.4561, 329.0648
250.9382, 328.7103
251.4203, 328.5723
251.9024, 327.7063
252.3845, 325.6157
252.8667, 323.8779
253.3488, 322.7936
253.8309, 322.0494
254.3130, 321.4221
254.7951, 320.8375
255.2772, 320.3151
255.7594, 319.9161
256.2415, 319.7493
256.7236, 319.4743
257.2057, 318.9042
257.6878, 318.3396
258.1699, 318.0680
258.6520, 318.1322
259.1342, 318.2789
259.6163, 318.0380
260.0984, 316.8979
260.5805, 316.4819
261.0626, 317.3982
261.5447, 318.4681
262.0269, 318.8531
262.5090, 318.4448
262.9911, 317.7704
263.4732, 317.5597
263.9553, 318.1459
264.4374, 318.2643
264.9196, 317.6936
265.4017, 316.9300
265.8838, 316.0661
266.3659, 315.2249
266.8480, 314.7253
267.3301, 314.9800
267.8123, 316.2703
268.2944, 317.1333
268.7765, 317.5301
269.2586, 317.6352
269.7407, 317.3717
270.2228, 316.8475
270.7050, 316.3882
271.1871, 316.3150
271.6692, 316.6917
272.1513, 316.8527
272.6334, 316.6119
273.1155, 316.3806
273.5977, 316.4067
274.0798, 316.6211
274.5619, 316.7331
275.0440, 316.4747
275.5261, 315.8580
276.0082, 315.8242
276.4904, 316.8358
276.9725, 317.8057
277.4546, 318.4331
277.9367, 318.7087
278.4188, 318.6286
278.9009, 318.1461
279.3831, 317.3407
279.8652, 316.7213
280.3473, 316.0977
280.8294, 315.8242
281.3115, 316.4346
281.7936, 317.4336
282.2758, 317.7971
282.7579, 316.9499
283.2400, 315.3780
283.7221, 314.6072
284.2042, 315.1236
284.6863, 315.5970
285.1685, 315.8357
285.6506, 315.8512
286.1327, 315.5803
286.6148, 314.9671
287.0969, 314.2491
287.5790, 313.9606
288.0612, 314.4102
288.5433, 314.4772
289.0254, 313.4984
289.5075, 312.2289
289.9896, 311.7844
290.4717, 312.4877
290.9539, 313.4226
291.4360, 313.2345
291.9181, 311.6014
292.4002, 310.3929
292.8823, 310.3673
293.3644, 310.5267
293.8466, 309.6891
294.3287, 307.6754
294.8108, 305.5164
295.2929, 304.2376
295.7750, 303.9345
296.2571, 303.5714
296.7393, 303.3571
297.2214, 302.8993
297.7035, 301.6479
298.1856, 299.6582
298.6677, 297.8280
299.1498, 296.9417
299.6320, 296.8973
300.1141, 296.3808
300.5962, 295.1359
301.0783, 293.6602
301.5604, 292.2637
302.0425, 290.9091
302.5247, 289.3423
303.0068, 287.2888
303.4889, 285.0171
303.9710, 283.4384
304.4531, 283.1808
304.9352, 282.7141
305.4174, 281.1291
305.8995, 278.7952
306.3816, 276.6557
306.8637, 275.0617
307.3458, 273.9238
307.8279, 273.1342
308.3101, 272.8449
308.7922, 272.3960
309.2743, 271.4986
309.7564, 270.3177
310.2385, 269.1607
310.7206, 268.1126
311.2028, 267.0470
311.6849, 265.6367
312.1670, 263.7899
312.6491, 262.4417
313.1312, 262.2528
313.6133, 262.4354
314.0955, 261.9974
314.5776, 260.7716
315.0597, 259.2907
315.5418, 258.0249
316.0239, 256.9728
316.5060, 256.0034
316.9882, 254.9681
317.4703, 254.1096
317.9524, 253.8266
318.4345, 254.0672
318.9166, 254.0955
319.3987, 253.3042
319.8809, 251.8485
320.3630, 250.7678
320.8451, 250.5237
321.3272, 250.2080
321.8093, 249.0583
322.2914, 247.3450
322.7736, 246.1403
323.2557, 246.1092
323.7378, 246.7421
324.2199, 246.6323
324.7020, 245.4877
325.1841, 244.3270
325.6663, 243.4529
326.1484, 242.8149
326.6305, 242.3649
327.1126, 242.1125
327.5947, 241.9405
328.0768, 241.6579
328.5590, 241.2535
329.0411, 240.8305
329.5232, 240.4435
330.0053, 240.0293
330.4874, 239.4451
330.9695, 238.6645
331.4517, 237.9503
331.9338, 237.6174
332.4159, 237.7116
332.8980, 237.6597
333.3801, 237.4475
333.8622, 237.0822
334.3444, 236.2628
334.8265, 235.1257
335.3086, 234.6437
335.7907, 235.7818
336.2729, 238.1884
336.7550, 239.1208
337.2371, 237.4668
337.7192, 235.6858
338.2013, 234.8539
338.6834, 234.6945
339.1656, 234.5295
339.6477, 234.0546
340.1298, 233.3566
340.6119, 232.6593
341.0940, 231.9036
341.5761, 231.2486
342.0583, 230.7200
342.5404, 230.3099
343.0225, 230.0776
343.5046, 230.0408
343.9867, 230.0007
344.4688, 229.6576
344.9510, 228.8413
345.4331, 228.2103
345.9152, 227.9451
346.3973, 227.7430
346.8794, 227.3689
347.3615, 226.8084
347.8437, 226.1881
348.3258, 225.5940
348.8079, 225.0292
349.2900, 224.5862
349.7721, 224.3707
350.2542, 224.1521
350.7364, 223.7879
351.2185, 223.3427
351.7006, 222.9917
352.1827, 222.8482
352.6648, 222.8410
353.1469, 222.6737
353.6291, 222.3795
354.1112, 221.8838
354.5933, 220.8740
355.0754, 219.7792
355.5575, 219.1207
356.0396, 219.0637
356.5218, 219.3612
357.0039, 219.6268
357.4860, 219.9503
357.9681, 220.0119
358.4502, 219.5239
358.9323, 219.0169
359.4145, 218.9169
359.8966, 219.2021
360.3787, 219.5090
360.8608, 219.4835
361.3429, 219.0970
361.8250, 218.7224
362.3072, 218.3891
362.7893, 218.0380
363.2714, 217.5671
363.7535, 217.0749
364.2356, 216.7706
364.7177, 216.7934
365.1999, 217.0276
365.6820, 217.0011
366.1641, 216.5018
366.6462, 216.0190
367.1283, 215.4848
367.6104, 215.0522
368.0926, 214.9528
368.5747, 215.2261
369.0568, 215.5763
369.5389, 215.5175
370.0210, 214.8505
370.5031, 214.3314
370.9853, 213.9748
371.4674, 213.7586
371.9495, 213.7527
372.4316, 213.9016
372.9137, 214.0536
373.3958, 214.1306
373.8780, 214.1201
374.3601, 213.7654
374.8422, 212.8522
375.3243, 211.8343
375.8064, 210.5638
376.2885, 209.3606
376.7707, 208.7691
377.2528, 209.1376
377.7349, 209.9359
378.2170, 210.0083
378.6991, 209.1206
379.1812, 208.1879
379.6634, 207.3436
380.1455, 206.5952
380.6276, 205.9465
381.1097, 205.4031
381.5918, 204.9951
382.0739, 204.8715
382.5561, 205.0194
383.0382, 204.8376
383.5203, 203.9576
384.0024, 203.1119
384.4845, 202.9858
384.9666, 203.2974
385.4488, 203.1940
385.9309, 201.8303
386.4130, 199.8775
386.8951, 198.9312
387.3772, 199.2406
387.8593, 199.5941
388.3415, 199.3664
388.8236, 198.7964
389.3057, 198.1260
389.7878, 197.3332
390.2699, 196.6002
390.7520, 196.1384
391.2342, 195.9083
391.7163, 195.6388
392.1984, 195.2676
392.6805, 194.8019
393.1626, 194.1634
393.6447, 193.3427
394.1269, 192.7702
394.6090, 192.7903
395.0911, 193.0975
395.5732, 193.2689
396.0553, 193.2618
396.5374, 193.0289
397.0196, 192.3444
397.5017, 191.3489
397.9838, 190.8994
398.4659, 191.5293
398.9480, 192.2647
399.4301, 192.5545
399.9123, 192.4545
400.3944, 192.0833
400.8765, 191.3682
401.3586, 190.6517
401.8407, 190.8992
402.3228, 192.7029
402.8050, 194.0003
403.2871, 194.1474
403.7692, 193.7494
404.2513, 193.3893
404.7334, 193.1999
405.2155, 193.1583
405.6977, 193.2847
406.1798, 193.6412
406.6619, 193.6649
407.1440, 193.0811
407.6261, 192.4851
408.1082, 192.1587
408.5904, 192.0376
409.0725, 191.9555
409.5546, 191.8242
410.0367, 191.6331
410.5188, 191.3418
411.0009, 190.7246
411.4831, 190.3165
411.9652, 190.3915
412.4473, 190.5319
412.9294, 190.3860
413.4115, 189.8768
413.8936, 189.1361
414.3758, 188.2695
414.8579, 187.2131
415.3400, 186.3964
415.8221, 185.9897
416.3042, 185.6707
416.7863, 185.3062
417.2685, 184.9525
417.7506, 184.7361
418.2327, 184.7410
418.7148, 184.9231
419.1969, 185.1974
419.6790, 185.7054
420.1612, 185.9693
420.6433, 185.7288
421.1254, 185.2984
421.6075, 184.8882
422.0896, 184.5435
422.5717, 184.2702
423.0539, 184.1185
423.5360, 184.0761
424.0181, 183.9256
424.5002, 183.5122
424.9823, 183.1911
425.4644, 183.3808
425.9466, 183.8460
426.4287, 183.9634
426.9108, 183.2301
427.3929, 182.2082
427.8750, 181.7231
428.3571, 181.7971
428.8393, 181.9085
429.3214, 181.7886
429.8035, 181.6091
430.2856, 181.7331
430.7677, 182.3264
431.2498, 182.6333
431.7320, 182.0400
432.2141, 180.9561
432.6962, 180.2112
433.1783, 179.9932
433.6604, 179.8837
434.1425, 179.4532
434.6247, 178.6918
435.1068, 178.0454
435.5889, 177.5530
436.0710, 177.1576
436.5531, 176.8811
437.0352, 176.6810
437.5174, 176.4208
437.9995, 176.0137
438.4816, 175.5574
438.9637, 175.3218
439.4458, 175.5972
439.9279, 175.6566
440.4101, 175.2555
440.8922, 174.7611
441.3743, 174.5644
441.8564, 174.6727
442.3385, 174.7029
442.8206, 174.2151
443.3028, 173.1552
443.7849, 172.5931
444.2670, 173.0114
444.7491, 173.4072
445.2312, 173.5717
445.7133, 173.5531
446.1955, 173.3794
446.6776, 173.0581
447.1597, 172.7739
447.6418, 172.9696
448.1239, 173.9205
448.6060, 174.4857
449.0882, 174.0704
449.5703, 173.6120
450.0524, 173.6072
450.5345, 174.0363
451.0166, 174.6087
451.4987, 175.1740
451.9809, 175.7170
452.4630, 176.1969
452.9451, 176.6366
453.4272, 176.9492
453.9093, 176.8016
454.3914, 176.6175
454.8736, 176.9502
455.3557, 178.0153
455.8378, 179.1785
456.3199, 179.9716
456.8020, 180.4448
457.2841, 180.7285
457.7663, 180.7582
458.2484, 180.8345
458.7305, 181.3421
459.2126, 182.2190
459.6947, 183.0670
460.1768, 183.9885
460.6590, 184.7265
461.1411, 184.9594
461.6232, 184.7803
462.1053, 184.6207
462.5874, 184.6963
463.0695, 184.9355
463.5517, 185.1547
464.0338, 185.4024
464.5159, 185.5396
464.9980, 185.2825
465.4801, 185.0728
465.9622, 185.5291
466.4444, 186.5977
466.9265, 187.4767
467.4086, 187.3469
467.8907, 186.2038
468.3728, 185.6254
468.8549, 186.2655
469.3371, 186.7394
469.8192, 186.6806
470.3013, 186.3411
470.7834, 186.0258
471.2655, 185.8479
471.7477, 185.7493
472.2298, 185.6308
472.7119, 185.4663
473.1940, 185.4101
473.6761, 185.5222
474.1582, 185.7065
474.6404, 185.9399
475.1225, 186.2114
475.6046, 186.5094
476.0867, 186.8602
476.5688, 187.2008
477.0509, 187.3296
477.5331, 187.1869
478.0152, 187.2857
478.4973, 188.0196
478.9794, 188.9278
479.4615, 189.4964
479.9436, 189.6916
480.4258, 189.7384
480.9079, 189.6696
481.3900, 189.5476
481.8721, 189.4740
482.3542, 189.4595
482.8363, 189.5014
483.3185, 189.6629
483.8006, 189.8769
484.2827, 189.8023
484.7648, 189.0556
485.2469, 188.4813
485.7290, 188.5422
486.2112, 188.9031
486.6933, 189.0397
487.1754, 188.8051
487.6575, 188.4536
488.1396, 188.3113
488.6217, 188.4411
489.1039, 188.4848
489.5860, 188.5051
490.0681, 188.3933
490.5502, 188.0878
491.0323, 187.6241
491.5144, 187.0696
491.9966, 186.4608
492.4787, 185.7669
492.9608, 184.8338
493.4429, 183.3953
493.9250, 182.5116
494.4071, 182.9405
494.8893, 183.4128
495.3714, 183.2002
495.8535, 182.4039
496.3356, 181.5902
496.8177, 181.1021
497.2998, 180.8360
497.7820, 180.5793
498.2641, 180.3566
498.7462, 180.0119
499.2283, 179.4270
499.7104, 178.7154
500.1925, 178.0342
500.6747, 177.4044
501.1568, 176.7271
501.6389, 175.7948
502.1210, 174.8400
502.6031, 174.3428
503.0852, 174.3625
503.5674, 174.4280
504.0495, 174.2096
504.5316, 173.7236
505.0137, 173.1453
505.4958, 172.3949
505.9779, 171.6601
506.4601, 171.0009
506.9422, 170.3821
507.4243, 169.7114
507.9064, 168.9834
508.3885, 168.3824
508.8706, 168.1842
509.3528, 168.4946
509.8349, 168.3821
510.3170, 167.2640
510.7991, 166.3598
511.2812, 166.2173
511.7633, 166.4360
512.2454, 166.4351
512.7275, 165.9814
513.2097, 165.3041
513.6918, 164.7617
514.1739, 164.3838
514.6560, 163.8676
515.1381, 163.0424
515.6202, 162.2326
516.1024, 161.6531
516.5845, 161.2437
517.0666, 160.8403
517.5487, 160.4158
518.0308, 159.9286
518.5129, 159.2798
518.9951, 158.4890
519.4772, 157.7536
519.9593, 157.1200
520.4414, 156.5979
520.9235, 156.2533
521.4056, 156.0966
521.8878, 155.8964
522.3699, 155.7457
522.8520, 155.4327
523.3341, 154.7327
523.8162, 153.7058
524.2983, 152.5503
524.7805, 151.3382
525.2626, 150.1872
525.7447, 149.4261
526.2268, 149.4753
526.7089, 149.2764
527.1910, 148.7270
527.6732, 148.0304
528.1553, 147.3071
528.6374, 146.5601
529.1195, 145.7057
529.6016, 144.6182
530.0837, 143.4458
530.5659, 142.8115
531.0480, 142.9819
531.5301, 142.9904
532.0122, 142.3633
532.4943, 141.6026
532.9764, 141.1266
533.4586, 140.9530
533.9407, 140.6996
534.4228, 139.8460
534.9049, 138.8316
535.3870, 138.7195
535.8691, 139.6198
536.3513, 140.3444
536.8334, 140.1357
537.3155, 139.3588
537.7976, 138.9898
538.2797, 139.1762
538.7618, 139.3670
539.2440, 139.3196
539.7261, 139.2508
540.2082, 139.3621
540.6903, 139.6905
541.1724, 140.2562
541.6545, 141.1268
542.1367, 142.2322
542.6188, 143.0078
543.1009, 143.0752
543.5830, 143.2914
544.0651, 143.8704
544.5472, 144.5454
545.0294, 144.9812
545.5115, 145.1959
545.9936, 145.6088
546.4757, 146.7353
546.9578, 148.4297
547.4399, 149.7021
547.9221, 150.4209
548.4042, 151.0185
548.8863, 151.6460
549.3684, 152.2658
549.8505, 152.8025
550.3326, 153.2218
550.8148, 153.7487
551.2969, 154.6007
551.7790, 155.6303
552.2611, 156.5961
552.7432, 157.4715
553.2253, 158.1929
553.7075, 158.6508
554.1896, 158.9306
554.6717, 159.4651
555.1538, 160.4533
555.6359, 161.3790
556.1180, 162.1149
556.6002, 162.7607
557.0823, 163.3860
557.5644, 164.0168
558.0465, 164.7214
558.5286, 165.6025
559.0107, 166.6053
559.4929, 167.1425
559.9750, 166.7581
560.4571, 166.6357
560.9392, 167.2664
561.4213, 168.0530
561.9034, 168.3689
562.3856, 168.1751
562.8677, 168.1329
563.3498, 169.0189
563.8319, 170.4543
564.3140, 171.2183
564.7961, 171.1955
565.2783, 171.0449
565.7604, 171.0644
566.2425, 171.1786
566.7246, 171.2306
567.2067, 171.2022
567.6888, 171.1760
568.1710, 171.2671
568.6531, 171.3223
569.1352, 171.0170
569.6173, 170.4271
570.0994, 170.1478
570.5815, 170.6477
571.0637, 171.6744
571.5458, 172.1775
572.0279, 171.5966
572.5100, 171.3117
572.9921, 171.5251
573.4742, 171.9275
573.9564, 172.2793
574.4385, 172.5998
574.9206, 173.0695
575.4027, 173.8274
575.8848, 174.8096
576.3669, 175.8211
576.8491, 176.8416
577.3312, 177.9996
577.8133, 179.3363
578.2954, 180.8461
578.7775, 182.5427
579.2596, 184.4180
579.7418, 186.2839
580.2239, 187.9290
580.7060, 189.6381
581.1881, 191.9666
581.6702, 194.7100
582.1523, 196.6958
582.6345, 197.2550
583.1166, 197.4384
583.5988, 199.2269
584.0809, 203.4606
584.5630, 207.0910
585.0451, 209.7598
585.5272, 212.2432
586.0093, 214.7987
586.4915, 217.4813
586.9736, 220.3342
587.4557, 223.3751
587.9378, 226.5331
588.4199, 229.6608
588.9020, 232.7677
589.3842, 235.8269
589.8663, 238.9104
590.3484, 241.8347
590.8305, 244.4665
591.3126, 246.8838
591.7947, 249.2198
592.2769, 251.4583
592.7590, 253.7338
593.2411, 256.4545
593.7232, 259.2743
594.2053, 261.2310
594.6874, 262.0944
595.1696, 262.5451
595.6517, 263.2368
596.1338, 264.1612
596.6159, 264.6945
597.0980, 264.9161
597.5801, 264.7146
598.0623, 263.9642
598.5444, 262.8326
599.0265, 261.4234
599.5086, 259.7977
599.9907, 258.0863
600.4728, 256.4455
600.9550, 254.8327
601.4371, 252.8834
601.9192, 250.3939
602.4013, 248.0604
602.8834, 246.4731
603.3655, 244.9305
603.8477, 242.6499
604.3298, 239.5743
604.8119, 236.6693
605.2940, 234.4027
605.7761, 232.5864
606.2582, 231.1537
606.7404, 230.0267
607.2225, 228.6818
607.7046, 226.7988
608.1867, 224.7450
608.6688, 223.2840
609.1509, 222.8359
609.6331, 222.0207
610.1152, 220.5531
610.5973, 219.0170
611.0794, 217.5827
611.5615, 216.3306
612.0436, 215.4065
612.5258, 214.8833
613.0079, 214.5011
613.4900, 213.7991
613.9721, 212.7432
614.4542, 211.9459
614.9363, 211.6119
615.4185, 211.3066
615.9006, 210.6748
616.3827, 209.8868
616.8648, 209.3071
617.3469, 209.1784
617.8290, 208.9126
618.3112, 208.0316
618.7933, 206.8350
619.2754, 205.8167
619.7575, 205.0576
620.2396, 204.3566
620.7217, 203.5402
621.2039, 202.6485
621.6860, 201.9443
622.1681, 201.5068
622.6502, 201.1633
623.1323, 201.1712
623.6144, 201.0596
624.0966, 200.3651
624.5787, 199.1791
625.0608, 198.0100
625.5429, 197.1992
626.0250, 196.5862
626.5071, 195.8729
626.9893, 195.0595
627.4714, 194.0925
627.9535, 192.8738
628.4356, 191.6261
628.9177, 190.6117
629.3998, 189.7993
629.8820, 188.9450
630.3641, 187.8612
630.8462, 186.8841
631.3283, 186.3145
631.8104, 185.9435
632.2925, 185.4287
632.7747, 184.6684
633.2568, 183.7151
633.7389, 182.5795
634.2210, 181.2595
634.7031, 180.2331
635.1852, 179.6704
635.6674, 179.1545
636.1495, 178.5544
636.6316, 177.9667
637.1137, 177.5833
637.5958, 177.3898
638.0779, 176.9909
638.5601, 175.8611
639.0422, 174.4839
639.5243, 173.8080
640.0064, 173.7936
640.4885, 173.5743
640.9706, 172.7472
641.4528, 171.6396
641.9349, 170.7467
642.4170, 170.1110
642.8991, 169.5871
643.3812, 169.3189
643.8633, 169.0108
644.3455, 168.5920
644.8276, 168.0189
645.3097, 167.1731
645.7918, 166.0342
646.2739, 164.8492
646.7560, 163.9398
647.2382, 163.2910
647.7203, 162.6382
648.2024, 161.9338
648.6845, 161.3412
649.1666, 161.0626
649.6487, 160.8754
650.1309, 160.4499
650.6130, 159.7236
651.0951, 159.0379
651.5772, 158.6469
652.0593, 158.2689
652.5414, 157.5359
653.0236, 156.5361
653.5057, 155.6422
653.9878, 155.0318
654.4699, 154.6635
654.9520, 154.5207
655.4341, 154.8068
655.9163, 154.6386
656.3984, 153.6695
656.8805, 152.5864
657.3626, 151.4015
657.8447, 150.3147
658.3268, 149.6848
658.8090, 149.6525
659.2911, 149.6091
659.7732, 148.8553
660.2553, 147.7436
660.7374, 147.2569
661.2195, 147.4788
661.7017, 147.5591
662.1838, 146.9824
662.6659, 146.0019
663.1480, 145.2493
663.6301, 144.8831
664.1122, 144.4064
664.5944, 143.6108
665.0765, 142.8922
665.5586, 142.5474
666.0407, 142.4438
666.5228, 142.3196
667.0049, 142.0653
667.4871, 141.6915
667.9692, 141.1529
668.4513, 140.4678
668.9334, 139.8839
669.4155, 139.3960
669.8976, 139.0785
670.3798, 139.1202
670.8619, 139.3062
671.3440, 139.1748
671.8261, 138.6268
672.3082, 138.0502
672.7903, 137.5149
673.2725, 137.0293
673.7546, 136.5690
674.2367, 136.1629
674.7188, 135.9256
675.2009, 135.9192
675.6830, 135.9830
676.1652, 135.7554
676.6473, 135.1199
677.1294, 134.8639
677.6115, 135.4181
678.0936, 135.7644
678.5757, 135.2570
679.0579, 134.3431
679.5400, 133.6565
680.0221, 133.3192
680.5042, 133.1022
680.9863, 132.9644
681.4684, 132.8245
681.9506, 132.5564
682.4327, 132.1728
682.9148, 131.7447
683.3969, 131.2922
683.8790, 130.9264
684.3611, 130.9183
684.8433, 131.5091
685.3254, 131.7163
685.8075, 131.2710
686.2896, 130.7219
686.7717, 130.0811
687.2538, 129.5148
687.7360, 129.2890
688.2181, 129.4859
688.7002, 129.7220
689.1823, 129.6919
689.6644, 129.4904
690.1465, 129.2749
690.6287, 129.0600
691.1108, 128.9622
691.5929, 129.0979
692.0750, 129.2318
692.5571, 128.8752
693.0392, 127.7003
693.5214, 127.0726
694.0035, 127.5128
694.4856, 127.8718
694.9677, 127.5243
695.4498, 126.8926
695.9319, 126.6262
696.4141, 126.8853
696.8962, 127.2041
697.3783, 127.0957
697.8604, 126.7137
698.3425, 126.5854
698.8246, 126.7420
699.3068, 126.6432
699.7889, 125.9423
700.2710, 125.0781
700.7531, 124.7639
701.2352, 125.1595
701.7173, 125.3237
702.1995, 125.0907
702.6816, 124.7963
703.1637, 124.5316
703.6458, 124.3103
704.1279, 124.1566
704.6100, 124.0660
705.0922, 123.9758
705.5743, 123.7868
706.0564, 123.5626
706.5385, 123.5953
707.0206, 123.9273
707.5027, 124.1026
707.9849, 123.8967
708.4670, 123.5912
708.9491, 123.5684
709.4312, 123.8216
709.9133, 123.9180
710.3954, 123.6808
710.8776, 123.4544
711.3597, 123.3763
711.8418, 123.3842
712.3239, 123.4829
712.8060, 123.6151
713.2881, 123.5230
713.7703, 122.8900
714.2524, 122.0117
714.7345, 121.9227
715.2166, 122.7589
715.6987, 123.2177
716.1808, 122.8641
716.6630, 122.2772
717.1451, 121.8554
717.6272, 121.6210
718.1093, 121.7054
718.5914, 122.6162
719.0735, 123.2073
719.5557, 122.9223
720.0378, 122.2381
720.5199, 121.5563
721.0020, 120.9669
721.4841, 120.4623
721.9662, 120.0345
722.4484, 119.7145
722.9305, 119.6059
723.4126, 119.7295
723.8947, 119.8146
724.3768, 119.7924
724.8589, 119.8080
725.3411, 120.1170
725.8232, 120.4993
726.3053, 120.3956
726.7874, 119.5359
727.2695, 118.7915
727.7516, 118.4164
728.2338, 118.2638
728.7159, 118.3650
729.1980, 118.5717
729.6801, 118.4920
730.1622, 117.9437
730.6443, 117.3350
731.1265, 117.4077
731.6086, 118.1653
732.0907, 118.3776
732.5728, 117.8584
733.0549, 117.2385
733.5370, 116.7002
734.0192, 116.2904
734.5013, 116.1122
734.9834, 116.2025
735.4655, 116.2096
735.9476, 115.9402
736.4297, 115.6889
736.9119, 115.6594
737.3940, 115.7688
737.8761, 115.9127
738.3582, 116.0417
738.8403, 116.0646
739.3224, 115.8671
739.8046, 115.4926
740.2867, 115.1157
740.7688, 114.7136
741.2509, 114.4518
741.7330, 114.4073
742.2151, 114.4839
742.6973, 114.6725
743.1794, 114.9381
743.6615, 114.9625
744.1436, 114.4698
744.6257, 114.0421
745.1078, 114.0943
745.5900, 114.1696
746.0721, 113.5541
746.5542, 112.4130
747.0363, 111.7158
747.5184, 112.1489
748.0005, 113.1245
748.4827, 113.5173
748.9648, 113.3364
749.4469, 113.1647
749.9290, 113.0677
750.4111, 113.0115
750.8932, 112.9420
751.3754, 112.9052
751.8575, 113.0880
752.3396, 113.7323
752.8217, 114.0130
753.3038, 113.4490
753.7859, 112.8540
754.2681, 112.7809
754.7502, 113.0472
755.2323, 113.3138
755.7144, 113.4516
756.1965, 113.3754
756.6786, 112.7841
757.1608, 111.9082
757.6429, 111.6697
758.1250, 112.1145
758.6071, 112.4496
759.0892, 112.3612
759.5714, 112.0286
760.0535, 111.6555
760.5356, 111.2242
761.0177, 110.9316
761.4998, 110.7821
761.9819, 110.7542
762.4641, 110.9141
762.9462, 111.1437
763.4283, 111.3980
763.9104, 111.6260
764.3925, 111.6735
764.8746, 111.3362
765.3568, 110.9553
765.8389, 111.1298
766.3210, 111.6671
766.8031, 111.7807
767.2852, 111.3177
767.7673, 110.8237
768.2495, 110.7261
768.7316, 110.8813
769.2137, 110.7413
769.6958, 109.9020
770.1779, 109.5472
770.6600, 110.1925
771.1422, 110.7718
771.6243, 110.7024
772.1064, 110.2953
772.5885, 110.0830
773.0706, 110.2058
773.5527, 110.3677
774.0349, 110.3153
774.5170, 110.2389
774.9991, 110.5141
775.4812, 111.0069
775.9633, 111.1045
776.4454, 110.5820
776.9276, 110.0141
777.4097, 110.1625
777.8918, 110.9991
778.3739, 111.4764
778.8560, 111.3095
779.3381, 111.4435
779.8203, 112.7407
780.3024, 113.8614
780.7845, 113.4640
781.2666, 111.8722
781.7487, 110.7128
782.2308, 110.5941
782.7130, 110.6397
783.1951, 110.4188
783.6772, 110.1386
784.1593, 110.0503
784.6414, 110.1497
785.1235, 110.3030
785.6057, 110.4404
786.0878, 110.5402
786.5699, 110.5243
787.0520, 110.3980
787.5341, 110.4228
788.0162, 110.6390
788.4984, 110.9307
788.9805, 111.3528
789.4626, 111.7222
789.9447, 111.6227
790.4268, 110.8978
790.9089, 110.5478
791.3911, 110.9602
791.8732, 111.3668
792.3553, 111.3928
792.8374, 111.2786
793.3195, 111.4152
793.8016, 111.7859
794.2838, 111.8950
794.7659, 111.2337
795.2480, 110.3427
795.7301, 110.1212
796.2122, 110.4182
796.6943, 110.5099
797.1765, 110.2429
797.6586, 110.1490
798.1407, 110.6999
798.6228, 111.6353
799.1049, 112.0074
799.5870, 111.4968
800.0692, 111.1001
800.5513, 110.7257
801.0334, 110.5894
801.5155, 110.9645
801.9976, 111.5540
802.4797, 111.9552
802.9619, 112.0970
803.4440, 112.0523
803.9261, 111.6113
804.4082, 111.2088
804.8903, 111.3975
805.3724, 111.9219
805.8546, 112.1870
806.3367, 112.0392
806.8188, 111.7582
807.3009, 111.5946
807.7830, 111.5293
808.2651, 111.4648
808.7473, 111.3775
809.2294, 111.4962
809.7115, 112.0232
810.1936, 112.4442
810.6757, 112.2174
811.1578, 111.5699
811.6400, 111.4289
812.1221, 112.2406
812.6042, 112.6470
813.0863, 111.9956
813.5684, 111.3460
814.0505, 111.4699
814.5327, 112.0285
815.0148, 112.3641
815.4969, 112.2885
815.9790, 112.1329
816.4611, 112.1686
816.9432, 112.3182
817.4254, 112.4969
817.9075, 112.6737
818.3896, 112.6356
818.8717, 112.3066
819.3538, 112.0337
819.8359, 112.1927
820.3181, 112.6976
820.8002, 112.9504
821.2823, 112.8627
821.7644, 112.7158
822.2465, 112.2237
822.7286, 112.0291
823.2108, 112.8790
823.6929, 114.1756
824.1750, 114.6540
824.6571, 113.9309
825.1392, 113.1560
825.6213, 112.7453
826.1035, 112.4783
826.5856, 112.1079
827.0677, 111.7639
827.5498, 111.7910
828.0319, 112.2514
828.5140, 112.7295
828.9962, 112.7937
829.4783, 112.6103
829.9604, 112.7172
830.4425, 113.1010
830.9246, 113.2514
831.4067, 113.0033
831.8889, 112.7157
832.3710, 112.6669
832.8531, 112.8295
833.3352, 113.0977
833.8173, 113.7707
834.2994, 114.0303
834.7816, 113.5608
835.2637, 113.0515
835.7458, 112.7603
836.2279, 112.6450
836.7100, 112.6362
837.1921, 112.7230
837.6743, 112.8494
838.1564, 113.1164
838.6385, 113.2964
839.1206, 113.0372
839.6027, 112.5749
840.0848, 112.3682
840.5670, 112.5158
841.0491, 112.8784
841.5312, 113.3850
842.0133, 113.9320
842.4954, 114.2272
842.9775, 114.2657
843.4597, 114.3193
843.9418, 114.4457
844.4239, 114.4896
844.9060, 114.3163
845.3881, 114.0336
845.8702, 113.8709
846.3524, 113.8364
846.8345, 113.9063
847.3166, 114.3580
847.7987, 114.5741
848.2808, 114.1258
848.7629, 113.4941
849.2451, 113.1433
849.7272, 113.1257
850.2093, 113.3156
850.6914, 113.8580
851.1735, 114.3090
851.6556, 114.1412
852.1378, 113.7124
852.6199, 113.6495
853.1020, 113.9487
853.5841, 114.1680
854.0662, 114.0601
854.5483, 113.8133
855.0305, 113.7261
855.5126, 113.7932
855.9947, 113.9153
856.4768, 114.1235
856.9589, 114.1931
857.4410, 113.9927
857.9232, 113.7029
858.4053, 113.5138
858.8874, 113.4262
859.3695, 113.4542
859.8516, 113.7429
860.3337, 113.9378
860.8159, 113.9761
861.2980, 113.9281
861.7801, 113.8134
862.2622, 113.6570
862.7443, 113.4952
863.2264, 113.3332
863.7086, 113.1978
864.1907, 113.1255
864.6728, 113.0730
865.1549, 112.9577
865.6370, 112.8288
866.1191, 112.8275
866.6013, 112.9833
867.0834, 113.1721
867.5655, 113.2972
868.0476, 113.3462
868.5297, 113.3004
869.0118, 113.1586
869.4940, 112.7594
869.9761, 111.9918
870.4582, 111.3909
870.9403, 111.3470
871.4224, 111.6768
871.9045, 111.9212
872.3867, 112.0705
872.8688, 112.1590
873.3509, 112.1836
873.8330, 112.1472
874.3151, 112.0785
874.7972, 111.9296
875.2794, 111.5666
875.7615, 111.0325
876.2436, 110.6861
876.7257, 110.6498
877.2078, 110.8192
877.6899, 111.3760
878.1721, 111.9469
878.6542, 112.0308
879.1363, 111.7323
879.6184, 111.5111
880.1005, 111.5728
880.5826, 111.6916
881.0648, 111.5705
881.5469, 111.3052
882.0290, 111.1646
882.5111, 111.1477
882.9932, 111.2076
883.4753, 111.3377
883.9575, 111.4484
884.4396, 111.4596
884.9217, 111.3711
885.4038, 111.1403
885.8859, 110.6264
886.3680, 110.4272
886.8502, 110.8428
887.3323, 111.2100
887.8144, 111.0220
888.2965, 110.6179
888.7786, 110.6228
889.2607, 111.1520
889.7429, 111.4322
890.2250, 111.0714
890.7071, 110.7847
891.1892, 111.0165
891.6713, 111.3661
892.1534, 111.3275
892.6356, 110.9738
893.1177, 110.8050
893.5998, 111.0885
894.0819, 111.5231
894.5640, 111.9588
895.0461, 112.3105
895.5283, 112.3541
896.0104, 112.1700
896.4925, 112.0869
896.9746, 112.2297
897.4567, 112.4822
897.9388, 112.7544
898.4210, 113.0065
898.9031, 112.9891
899.3852, 112.6825
899.8673, 112.6280
900.3494, 112.9760
900.8315, 113.4289
901.3137, 113.8038
901.7958, 114.0945
902.2779, 114.2508
902.7600, 114.0873
903.2421, 114.3301
903.7242, 115.5113
904.2064, 116.4050
904.6885, 116.4549
905.1706, 116.1888
905.6527, 116.0269
906.1348, 116.0130
906.6169, 116.2415
907.0991, 116.9637
907.5812, 117.6171
908.0633, 117.8633
908.5454, 118.0585
909.0275, 118.6039
909.5096, 119.3376
909.9918, 119.8363
910.4739, 119.9574
910.9560, 120.0289
911.4381, 120.2915
911.9202, 120.6952
912.4023, 121.2462
912.8845, 121.8683
913.3666, 122.2946
913.8487, 122.5001
914.3308, 122.7990
914.8129, 123.4395
915.2950, 124.2209
915.7772, 124.6405
916.2593, 124.7051
916.7414, 125.0876
917.2235, 125.8647
917.7056, 126.7160
918.1877, 127.5758
918.6699, 128.2953
919.1520, 128.6572
919.6341, 128.6709
920.1162, 128.6855
920.5983, 128.5438
921.0804, 128.6784
921.5626, 129.2932
922.0447, 130.0334
922.5268, 130.8436
923.0089, 131.6096
923.4910, 132.0749
923.9731, 132.1413
924.4553, 132.3956
924.9374, 133.0818
925.4195, 133.8704
925.9016, 134.7261
926.3837, 135.5120
926.8658, 136.0871
927.3480, 136.4606
927.8301, 136.7470
928.3122, 137.0123
928.7943, 137.1561
929.2764, 136.8440
929.7585, 136.5138
930.2407, 136.8981
930.7228, 137.8272
931.2049, 138.7030
931.6870, 139.3357
932.1691, 139.9016
932.6512, 140.5583
933.1334, 141.2629
933.6155, 141.9907
934.0976, 142.7038
934.5797, 142.9764
935.0618, 142.7249
935.5439, 142.6187
936.0261, 143.0376
936.5082, 143.7343
936.9903, 144.2922
937.4724, 144.6935
937.9545, 145.3723
938.4366, 146.5718
938.9188, 147.3449
939.4009, 147.2575
939.8830, 147.0006
940.3651, 146.9632
940.8472, 147.1973
941.3293, 147.9484
941.8115, 149.6348
942.2936, 150.8164
942.7757, 151.0521
943.2578, 151.2472
943.7399, 151.7708
944.2220, 152.3965
944.7042, 152.7506
945.1863, 152.9155
945.6684, 153.5165
946.1505, 155.1512
946.6326, 156.5398
947.1147, 156.9387
947.5969, 156.9473
948.0790, 156.8373
948.5611, 156.8477
949.0432, 157.4183
949.5253, 158.6120
950.0074, 159.8392
950.4896, 160.7040
950.9717, 161.3182
951.4538, 161.5659
951.9359, 161.7484
952.4180, 162.6815
952.9001, 164.2954
953.3823, 165.7146
953.8644, 166.5001
954.3465, 166.9241
954.8286, 167.2752
955.3107, 167.5903
955.7928, 168.0343
956.2750, 168.6068
956.7571, 169.2801
957.2392, 170.0578
957.7213, 170.8239
958.2034, 171.4822
958.6855, 172.0966
959.1677, 172.8689
959.6498, 173.8622
960.1319, 174.6160
960.6140, 175.0058
961.0961, 175.5112
961.5782, 176.2858
962.0604, 177.2504
962.5425, 178.3545
963.0246, 179.5795
963.5067, 180.7984
963.9888, 182.1489
964.4709, 183.2594
964.9531, 184.0520
965.4352, 184.6963
965.9173, 185.0397
966.3994, 185.4040
966.8815, 186.2551
967.3636, 187.5928
967.8458, 188.8322
968.3279, 189.8339
968.8100, 190.7573
969.2921, 191.5681
969.7742, 192.4039
970.2563, 193.4147
970.7385, 194.5231
971.2206, 195.5988
971.7027, 196.6049
972.1848, 197.4612
972.6669, 197.9257
973.1490, 198.4236
973.6312, 199.2477
974.1133, 200.3421
974.5954, 201.6980
975.0775, 203.2397
975.5596, 204.8531
976.0417, 206.4917
976.5239, 207.9272
977.0060, 208.7823
977.4881, 209.3823
977.9702, 210.1869
978.4523, 211.2278
978.9344, 212.6547
979.4166, 214.4405
979.8987, 216.2206
980.3808, 217.7642
980.8629, 219.1735
981.3450, 220.6503
981.8271, 222.1537
982.3093, 223.4004
982.7914, 224.3985
983.2735, 225.5610
983.7556, 227.0135
984.2377, 228.5820
984.7198, 230.1340
985.2020, 231.6438
985.6841, 232.9942
986.1662, 234.1343
986.6483, 235.5978
987.1304, 237.5392
987.6125, 239.2841
988.0947, 240.6092
988.5768, 241.5661
989.0589, 242.0315
989.5410, 242.1654
990.0231, 243.3052
990.5052, 246.2129
990.9874, 248.3322
991.4695, 249.2014
991.9516, 249.7682
992.4337, 250.2354
992.9158, 250.7816
993.3979, 251.7279
993.8801, 253.0729
994.3622, 254.1955
994.8443, 255.1633
995.3264, 255.8064
995.8085, 255.9458
996.2906, 255.9262
996.7728, 255.9405
997.2549, 255.9109
997.7370, 255.6417
998.2191, 255.1129
998.7012, 254.7719
999.1833, 255.0157
999.6655, 255.0785
1000.148, 254.4742
1000.630, 253.7772
1001.112, 253.7121
1001.594, 253.8271
1002.076, 253.0887
1002.558, 251.2554
1003.040, 249.4285
1003.522, 248.1283
1004.005, 247.0449
1004.487, 246.1946
1004.969, 245.2834
1005.451, 243.8332
1005.933, 242.0300
1006.415, 240.5371
1006.897, 239.5925
1007.379, 238.4702
1007.861, 236.3231
1008.344, 233.9716
1008.826, 232.3794
1009.308, 231.2141
1009.790, 229.9290
1010.272, 228.4713
1010.754, 227.0478
1011.236, 225.7513
1011.718, 224.5303
1012.201, 223.3832
1012.683, 222.2510
1013.165, 221.0035
1013.647, 219.6743
1014.129, 218.3676
1014.611, 217.0903
1015.093, 215.7775
1015.575, 214.3873
1016.057, 212.9805
1016.540, 211.6074
1017.022, 210.2948
1017.504, 209.1280
1017.986, 208.1091
1018.468, 207.2453
1018.950, 206.5421
1019.432, 206.0638
1019.914, 205.9111
1020.396, 205.6973
1020.879, 204.5532
1021.361, 202.5899
1021.843, 201.1367
1022.325, 200.2070
1022.807, 199.3435
1023.289, 198.4295
1023.771, 197.6326
1024.253, 197.0900
1024.735, 196.7012
1025.218, 196.2358
1025.700, 195.6894
1026.182, 195.1885
1026.664, 194.7825
1027.146, 194.0826
1027.628, 192.8944
1028.110, 191.7198
1028.592, 190.9559
1029.075, 190.5009
1029.557, 190.0773
1030.039, 189.7026
1030.521, 189.2773
1031.003, 188.8244
1031.485, 188.2204
1031.967, 187.2998
1032.449, 186.4756
1032.932, 186.1116
1033.414, 186.0952
1033.896, 186.1257
1034.378, 186.4067
1034.860, 185.9473
1035.342, 184.1493
1035.824, 182.7762
1036.306, 182.5459
1036.788, 182.6155
1037.271, 182.3291
1037.753, 181.7766
1038.235, 181.2370
1038.717, 180.6602
1039.199, 180.2482
1039.681, 180.2438
1040.163, 180.0593
1040.645, 179.5712
1041.127, 178.8242
1041.610, 177.6512
1042.092, 176.2517
1042.574, 175.2729
1043.056, 174.8461
1043.538, 174.4751
1044.020, 174.2307
1044.502, 173.9206
1044.984, 173.3782
1045.467, 172.8474
1045.949, 172.6145
1046.431, 172.5514
1046.913, 172.2431
1047.395, 171.5540
1047.877, 170.9556
1048.359, 170.6841
1048.841, 170.2826
1049.323, 169.3018
1049.806, 168.3858
1050.288, 168.2860
1050.770, 168.6754
1051.252, 168.5601
1051.734, 167.6608
1052.216, 166.8686
1052.698, 166.3356
1053.180, 165.9810
1053.662, 165.9529
1054.145, 165.9330
1054.627, 165.5624
1055.109, 164.9903
1055.591, 164.6617
1056.073, 164.7125
1056.555, 164.6609
1057.037, 164.1689
1057.519, 163.8049
1058.002, 164.0188
1058.484, 164.2844
1058.966, 164.0504
1059.448, 163.5064
1059.930, 163.1601
1060.412, 163.1314
1060.894, 163.1486
1061.376, 163.2979
1061.859, 163.2445
1062.341, 162.6477
1062.823, 161.9452
1063.305, 161.3478
1063.787, 161.0090
1064.269, 161.3107
1064.751, 162.3603
1065.233, 163.0503
1065.715, 162.4685
1066.198, 162.0460
1066.680, 162.7437
1067.162, 163.6430
1067.644, 163.9516
1068.126, 163.8335
1068.608, 163.7158
1069.090, 163.6880
1069.572, 163.6461
1070.054, 163.3469
1070.537, 163.2850
1071.019, 163.9410
1071.501, 164.7058
1071.983, 164.9337
1072.465, 164.9389
1072.947, 165.4524
1073.429, 166.5319
1073.911, 167.2672
1074.394, 166.9476
1074.876, 166.6902
1075.358, 167.0935
1075.840, 167.7042
1076.322, 168.2381
1076.804, 168.6924
1077.286, 169.1133
1077.768, 169.5075
1078.250, 169.8365
1078.733, 169.9657
1079.215, 170.2702
1079.697, 171.1384
1080.179, 172.0337
1080.661, 172.4963
1081.143, 172.7613
1081.625, 173.1478
1082.107, 173.6934
1082.590, 174.2968
1083.072, 174.8958
1083.554, 175.6123
1084.036, 176.8099
1084.518, 177.8003
1085.000, 177.9034
1085.482, 177.6824
1085.964, 177.8828
1086.447, 178.4394
1086.929, 178.6984
1087.411, 178.2805
1087.893, 178.3426
1088.375, 180.0531
1088.857, 181.5784
1089.339, 181.4335
1089.821, 180.9016
1090.303, 181.4801
1090.786, 182.8593
1091.268, 183.8122
1091.750, 183.9863
1092.232, 184.1901
1092.714, 184.8002
1093.196, 185.4096
1093.678, 185.6936
1094.160, 186.0097
1094.642, 186.8133
1095.125, 187.8510
1095.607, 188.5647
1096.089, 188.8447
1096.571, 189.0559
1097.053, 189.1704
1097.535, 189.4235
1098.017, 189.9398
1098.499, 190.5821
1098.982, 191.3056
1099.464, 192.0623
1099.946, 192.8199
1100.428, 193.5685
1100.910, 194.1760
1101.392, 194.4180
1101.874, 194.8051
1102.356, 195.5720
1102.839, 196.3844
1103.321, 197.0483
1103.803, 197.6587
1104.285, 198.3804
1104.767, 199.1852
1105.249, 199.8430
1105.731, 200.2182
1106.213, 200.6531
1106.695, 200.9411
1107.177, 201.6209
1107.660, 203.4696
1108.142, 205.3409
1108.624, 205.9763
1109.106, 205.7180
1109.588, 205.8625
1110.070, 206.6236
1110.552, 207.3858
1111.034, 208.0452
1111.517, 208.7921
1111.999, 209.7808
1112.481, 210.7727
1112.963, 211.5993
1113.445, 212.3073
1113.927, 212.9920
1114.409, 213.6564
1114.891, 214.2969
1115.374, 214.8571
1115.856, 215.4984
1116.338, 216.4360
1116.820, 217.1774
1117.302, 217.3186
1117.784, 217.2404
1118.266, 217.4455
1118.748, 217.9285
1119.230, 218.6075
1119.713, 219.6381
1120.195, 220.5106
1120.677, 221.3655
1121.159, 221.6470
1121.641, 220.8579
1122.123, 219.8825
1122.605, 219.6135
1123.087, 219.9105
1123.569, 220.2598
1124.052, 220.7903
1124.534, 220.7744
1125.016, 220.0531
1125.498, 219.4015
1125.980, 219.0971
1126.462, 218.6640
1126.944, 217.7065
1127.426, 216.4761
1127.909, 215.5159
1128.391, 214.8215
1128.873, 213.7916
1129.355, 212.3621
1129.837, 211.3838
1130.319, 211.0679
1130.801, 210.4709
1131.283, 209.0425
1131.766, 207.3822
1132.248, 206.3228
1132.730, 205.6541
1133.212, 204.4247
1133.694, 202.6995
1134.176, 201.3877
1134.658, 200.5496
1135.140, 199.6955
1135.622, 198.6522
1136.104, 197.4741
1136.587, 196.1845
1137.069, 194.8974
1137.551, 193.9558
1138.033, 193.1931
1138.515, 191.8539
1138.997, 190.1334
1139.479, 189.1282
1139.961, 188.9489
1140.444, 188.5146
1140.926, 187.1906
1141.408, 185.5227
1141.890, 184.1621
1142.372, 182.9099
1142.854, 181.2927
1143.336, 179.5573
1143.818, 178.3749
1144.301, 177.6172
1144.783, 176.4511
1145.265, 174.6372
1145.747, 173.1194
1146.229, 172.8958
1146.711, 172.8359
1147.193, 171.7161
1147.675, 170.2162
1148.157, 169.1913
1148.640, 168.4400
1149.122, 167.4510
1149.604, 166.1671
1150.086, 164.8630
1150.568, 163.6087
1151.050, 162.5465
1151.532, 161.8333
1152.014, 161.2500
1152.496, 160.6862
1152.979, 160.1393
1153.461, 159.6369
1153.943, 159.1524
1154.425, 158.6458
1154.907, 158.1286
1155.389, 157.3850
1155.871, 155.9981
1156.353, 154.8710
1156.836, 154.6600
1157.318, 154.4021
1157.800, 153.2417
1158.282, 151.7557
1158.764, 150.8972
1159.246, 150.6585
1159.728, 150.1001
1160.210, 148.6695
1160.693, 147.7534
1161.175, 147.7755
1161.657, 147.7043
1162.139, 147.1673
1162.621, 146.4761
1163.103, 145.8534
1163.585, 145.3002
1164.067, 144.8183
1164.549, 144.4139
1165.031, 144.0347
1165.514, 143.6561
1165.996, 143.4032
1166.478, 143.3298
1166.960, 143.2905
1167.442, 143.2511
1167.924, 143.0489
1168.406, 142.4062
1168.888, 141.4652
1169.371, 141.0051
1169.853, 141.0123
1170.335, 140.8138
1170.817, 140.3630
1171.299, 139.6763
1171.781, 138.7644
1172.263, 138.0484
1172.745, 137.8602
1173.228, 137.9719
1173.710, 138.1396
1174.192, 138.2590
1174.674, 137.8918
1175.156, 137.2275
1175.638, 136.8631
1176.120, 136.8583
1176.602, 137.1091
1177.084, 137.5399
1177.567, 137.6240
1178.049, 136.6635
1178.531, 135.5294
1179.013, 135.3332
1179.495, 135.4621
1179.977, 135.1703
1180.459, 134.5294
1180.941, 133.6983
1181.423, 132.7956
1181.906, 132.1425
1182.388, 131.9637
1182.870, 131.6482
1183.352, 130.6709
1183.834, 129.7029
1184.316, 129.1035
1184.798, 128.7435
1185.280, 128.5332
1185.763, 128.4418
1186.245, 128.5158
1186.727, 128.7734
1187.209, 128.7105
1187.691, 128.0316
1188.173, 127.3596
1188.655, 126.7375
1189.137, 126.1951
1189.620, 125.8236
1190.102, 125.4453
1190.584, 124.8130
1191.066, 124.0484
1191.548, 123.6292
1192.030, 123.6665
1192.512, 123.4814
1192.994, 123.0375
1193.476, 122.4839
1193.958, 121.8257
1194.441, 121.1553
1194.923, 120.5270
1195.405, 119.9129
1195.887, 119.2808
1196.369, 118.6266
1196.851, 117.8755
1197.333, 117.0520
1197.815, 116.4011
1198.298, 115.9315
1198.780, 115.6522
1199.262, 115.5292
1199.744, 115.1544
1200.226, 114.2191
1200.708, 113.2450
1201.190, 113.0383
1201.672, 113.1403
1202.155, 112.7202
1202.637, 112.0392
1203.119, 111.6462
1203.601, 111.4754
1204.083, 111.1286
1204.565, 110.5091
1205.047, 109.8912
1205.529, 109.4003
1206.011, 109.0132
1206.494, 108.7852
1206.976, 108.5862
1207.458, 108.4508
1207.940, 108.1896
1208.422, 107.4237
1208.904, 106.3553
1209.386, 105.6550
1209.868, 105.4788
1210.350, 105.3347
1210.833, 105.1413
1211.315, 104.9803
1211.797, 104.8340
1212.279, 104.7640
1212.761, 104.8503
1213.243, 104.9721
1213.725, 105.0124
1214.207, 104.9636
1214.690, 104.7770
1215.172, 104.4227
1215.654, 104.0918
1216.136, 103.7897
1216.618, 103.4782
1217.100, 103.1361
1217.582, 102.9150
1218.064, 102.9067
1218.547, 103.0273
1219.029, 103.2161
1219.511, 103.3823
1219.993, 103.1199
1220.475, 102.6349
1220.957, 102.8448
1221.439, 103.5374
1221.921, 103.5424
1222.403, 102.7109
1222.885, 102.0400
1223.368, 102.0910
1223.850, 102.3649
1224.332, 102.4377
1224.814, 102.4867
1225.296, 102.7935
1225.778, 103.0829
1226.260, 102.9945
1226.742, 102.6386
1227.225, 102.2281
1227.707, 101.8265
1228.189, 101.5779
1228.671, 101.6042
1229.153, 101.6118
1229.635, 101.4364
1230.117, 101.3589
1230.599, 101.6433
1231.082, 101.9063
1231.564, 101.7648
1232.046, 101.4763
1232.528, 101.5747
1233.010, 102.0525
1233.492, 102.1241
1233.974, 101.7019
1234.456, 101.2370
1234.938, 100.7392
1235.421, 100.3308
1235.903, 100.0524
1236.385, 99.88451
1236.867, 99.81233
1237.349, 99.85564
1237.831, 100.0921
1238.313, 100.4571
1238.795, 100.7934
1239.277, 101.0597
1239.760, 101.1339
1240.242, 101.0103
1240.724, 100.6210
1241.206, 100.0188
1241.688, 99.71940
1242.170, 100.1557
1242.652, 100.5915
1243.134, 100.3901
1243.617, 99.99739
1244.099, 99.68283
1244.581, 99.47272
1245.063, 99.39708
1245.545, 99.42636
1246.027, 99.55808
1246.509, 99.78889
1246.991, 99.78262
1247.474, 98.99439
1247.956, 98.78365
1248.438, 99.82896
1248.920, 100.5517
1249.402, 100.3158
1249.884, 99.83531
1250.366, 99.59566
1250.848, 99.56874
1251.330, 99.72808
1251.813, 100.0530
1252.295, 100.2632
1252.777, 100.3602
1253.259, 100.5091
1253.741, 100.7144
1254.223, 100.7456
1254.705, 100.5388
1255.187, 100.2649
1255.669, 100.0267
1256.152, 99.91672
1256.634, 100.2014
1257.116, 100.5553
1257.598, 100.3992
1258.080, 100.0625
1258.562, 100.0652
1259.044, 100.3363
1259.526, 100.6206
1260.009, 100.8505
1260.491, 101.0304
1260.973, 101.1956
1261.455, 101.2219
1261.937, 100.6050
1262.419, 100.4563
1262.901, 102.0283
1263.383, 103.3794
1263.865, 102.8452
1264.348, 101.4064
1264.830, 100.4098
1265.312, 99.86275
1265.794, 99.90098
1266.276, 100.6848
1266.758, 101.1311
1267.240, 101.1943
1267.722, 100.8720
1268.204, 100.1441
1268.687, 99.71777
1269.169, 100.0230
1269.651, 100.5640
1270.133, 100.7294
1270.615, 100.7616
1271.097, 101.1969
1271.579, 101.7765
1272.061, 102.0817
1272.544, 102.0984
1273.026, 101.6381
1273.508, 100.9325
1273.990, 100.9729
1274.472, 102.1943
1274.954, 103.0426
1275.436, 102.5638
1275.918, 101.9318
1276.401, 101.3655
1276.883, 101.0488
1277.365, 101.2578
1277.847, 101.6400
1278.329, 101.7983
1278.811, 101.8132
1279.293, 101.9208
1279.775, 102.1364
1280.257, 102.2736
1280.740, 102.3412
1281.222, 102.2104
1281.704, 101.8432
1282.186, 101.5681
1282.668, 101.4915
##END=



