##NAMES=Rostite
##RRUFFID=R061001
##IDEAL CHEMISTRY=AlS^6+^O_4_(OH)&#183;5H_2_O
##LOCALITY=Kladno, Bohmen, Czech Republic
##OWNER=RRUFF
##SOURCE=Michael Scott
##DESCRIPTION=Chalky white nodular aggregates
##STATUS=The identification of this mineral has been confirmed by X-ray diffraction.
##URL=rruff.info/R061001
177.9298, 5097.722
178.4119, 5141.141
178.8940, 5177.292
179.3761, 5178.837
179.8582, 5157.722
180.3403, 5143.646
180.8225, 5150.857
181.3046, 5169.744
181.7867, 5182.560
182.2688, 5188.687
182.7509, 5194.479
183.2330, 5206.403
183.7152, 5223.519
184.1973, 5242.892
184.6794, 5271.399
185.1615, 5301.563
185.6436, 5303.811
186.1257, 5271.194
186.6079, 5235.212
187.0900, 5243.889
187.5721, 5293.519
188.0542, 5344.377
188.5363, 5376.678
189.0184, 5392.901
189.5006, 5406.663
189.9827, 5419.022
190.4648, 5429.002
190.9469, 5436.970
191.4290, 5443.011
191.9111, 5440.977
192.3932, 5417.364
192.8754, 5375.438
193.3575, 5357.038
193.8396, 5374.077
194.3217, 5411.799
194.8038, 5430.180
195.2859, 5427.066
195.7681, 5419.887
196.2502, 5423.144
196.7323, 5437.134
197.2144, 5447.488
197.6965, 5450.447
198.1786, 5448.053
198.6608, 5449.155
199.1429, 5454.696
199.6250, 5460.652
200.1071, 5463.707
200.5892, 5463.812
201.0714, 5459.918
201.5535, 5447.015
202.0356, 5427.272
202.5177, 5430.812
202.9998, 5465.880
203.4819, 5505.796
203.9641, 5512.025
204.4462, 5476.243
204.9283, 5447.545
205.4104, 5444.033
205.8925, 5467.125
206.3746, 5484.138
206.8568, 5495.358
207.3389, 5500.469
207.8210, 5497.177
208.3031, 5482.934
208.7852, 5469.769
209.2673, 5462.063
209.7495, 5460.303
210.2316, 5463.795
210.7137, 5476.601
211.1958, 5491.657
211.6779, 5492.144
212.1600, 5470.952
212.6422, 5453.660
213.1243, 5454.819
213.6064, 5482.013
214.0885, 5498.111
214.5706, 5498.025
215.0527, 5487.671
215.5349, 5484.100
216.0170, 5489.051
216.4991, 5496.615
216.9812, 5504.067
217.4633, 5511.821
217.9454, 5516.893
218.4276, 5516.693
218.9097, 5513.602
219.3918, 5519.085
219.8739, 5538.284
220.3560, 5558.032
220.8381, 5570.278
221.3203, 5573.863
221.8024, 5572.580
222.2845, 5563.994
222.7666, 5550.020
223.2487, 5544.797
223.7308, 5549.893
224.2129, 5562.071
224.6951, 5580.638
225.1772, 5612.523
225.6593, 5635.711
226.1414, 5644.847
226.6235, 5640.378
227.1056, 5637.716
227.5878, 5633.877
228.0699, 5634.808
228.5520, 5647.728
229.0341, 5682.188
229.5162, 5709.300
229.9983, 5723.289
230.4805, 5723.597
230.9626, 5719.600
231.4447, 5708.302
231.9268, 5695.452
232.4089, 5686.982
232.8910, 5682.288
233.3732, 5683.056
233.8553, 5690.838
234.3374, 5706.815
234.8195, 5722.334
235.3016, 5741.253
235.7837, 5756.867
236.2659, 5759.562
236.7480, 5741.624
237.2301, 5724.042
237.7122, 5711.640
238.1943, 5704.458
238.6764, 5702.547
239.1586, 5706.242
239.6407, 5715.146
240.1228, 5729.529
240.6049, 5754.829
241.0870, 5776.769
241.5691, 5790.782
242.0513, 5795.278
242.5334, 5796.805
243.0155, 5791.872
243.4976, 5785.567
243.9797, 5787.774
244.4618, 5805.209
244.9440, 5819.596
245.4261, 5822.786
245.9082, 5807.865
246.3903, 5802.939
246.8724, 5812.384
247.3545, 5829.696
247.8367, 5842.249
248.3188, 5849.269
248.8009, 5852.781
249.2830, 5853.222
249.7651, 5849.602
250.2472, 5846.131
250.7294, 5841.248
251.2115, 5837.592
251.6936, 5842.325
252.1757, 5863.157
252.6578, 5880.743
253.1399, 5885.803
253.6220, 5870.195
254.1042, 5863.958
254.5863, 5872.785
255.0684, 5889.142
255.5505, 5891.104
256.0326, 5865.344
256.5147, 5847.071
256.9969, 5855.567
257.4790, 5906.870
257.9611, 5941.299
258.4432, 5954.136
258.9253, 5950.033
259.4074, 5940.891
259.8896, 5920.772
260.3717, 5905.736
260.8538, 5904.943
261.3359, 5923.918
261.8180, 5940.421
262.3001, 5952.842
262.7823, 5962.337
263.2644, 5973.421
263.7465, 5987.549
264.2286, 6000.145
264.7107, 6008.753
265.1928, 6013.670
265.6750, 6013.563
266.1571, 6005.611
266.6392, 5993.802
267.1213, 5990.500
267.6034, 5997.817
268.0855, 6009.268
268.5677, 6023.529
269.0498, 6043.464
269.5319, 6053.302
270.0140, 6049.768
270.4961, 6036.575
270.9782, 6023.871
271.4604, 6010.024
271.9425, 6001.063
272.4246, 6002.225
272.9067, 6015.473
273.3888, 6026.056
273.8709, 6029.367
274.3531, 6030.975
274.8352, 6053.071
275.3173, 6103.282
275.7994, 6147.179
276.2815, 6158.596
276.7636, 6133.995
277.2458, 6113.024
277.7279, 6098.623
278.2100, 6091.079
278.6921, 6094.117
279.1742, 6110.037
279.6563, 6124.827
280.1385, 6123.937
280.6206, 6106.621
281.1027, 6109.285
281.5848, 6144.635
282.0669, 6193.792
282.5490, 6204.916
283.0312, 6173.680
283.5133, 6138.437
283.9954, 6124.526
284.4775, 6131.315
284.9596, 6141.277
285.4417, 6154.333
285.9239, 6167.262
286.4060, 6169.790
286.8881, 6161.265
287.3702, 6156.494
287.8523, 6167.380
288.3344, 6192.075
288.8166, 6216.908
289.2987, 6242.016
289.7808, 6263.815
290.2629, 6276.016
290.7450, 6278.533
291.2271, 6273.004
291.7093, 6250.845
292.1914, 6218.913
292.6735, 6209.109
293.1556, 6231.102
293.6377, 6265.324
294.1198, 6282.466
294.6020, 6283.676
295.0841, 6278.961
295.5662, 6267.028
296.0483, 6253.906
296.5304, 6258.625
297.0125, 6287.564
297.4947, 6324.536
297.9768, 6348.419
298.4589, 6360.912
298.9410, 6369.728
299.4231, 6379.305
299.9052, 6388.171
300.3873, 6389.613
300.8694, 6378.013
301.3516, 6373.305
301.8337, 6410.778
302.3158, 6477.789
302.7979, 6529.197
303.2800, 6526.237
303.7621, 6496.997
304.2443, 6478.663
304.7264, 6475.888
305.2085, 6483.673
305.6906, 6504.449
306.1727, 6533.130
306.6548, 6557.693
307.1370, 6571.382
307.6191, 6578.163
308.1012, 6580.948
308.5833, 6579.593
309.0654, 6577.578
309.5475, 6575.099
310.0297, 6573.954
310.5118, 6577.422
310.9939, 6593.276
311.4760, 6610.298
311.9581, 6621.026
312.4402, 6624.748
312.9224, 6621.717
313.4045, 6604.222
313.8866, 6581.480
314.3687, 6567.494
314.8508, 6572.469
315.3329, 6584.167
315.8151, 6601.280
316.2972, 6625.957
316.7793, 6635.482
317.2614, 6601.864
317.7435, 6553.841
318.2256, 6525.562
318.7078, 6541.812
319.1899, 6567.165
319.6720, 6588.678
320.1541, 6605.203
320.6362, 6623.341
321.1183, 6648.299
321.6005, 6673.820
322.0826, 6693.820
322.5647, 6703.908
323.0468, 6711.176
323.5289, 6717.871
324.0110, 6724.077
324.4932, 6726.023
324.9753, 6708.625
325.4574, 6694.357
325.9395, 6700.489
326.4216, 6762.164
326.9037, 6807.445
327.3859, 6822.014
327.8680, 6806.717
328.3501, 6792.072
328.8322, 6774.190
329.3143, 6760.255
329.7964, 6754.517
330.2786, 6756.928
330.7607, 6768.316
331.2428, 6796.696
331.7249, 6836.985
332.2070, 6858.201
332.6891, 6848.471
333.1713, 6833.348
333.6534, 6827.336
334.1355, 6834.967
334.6176, 6841.798
335.0997, 6847.188
335.5818, 6851.160
336.0640, 6853.336
336.5461, 6851.696
337.0282, 6851.804
337.5103, 6859.583
337.9924, 6880.171
338.4745, 6882.352
338.9567, 6856.868
339.4388, 6819.429
339.9209, 6802.880
340.4030, 6809.337
340.8851, 6828.458
341.3672, 6861.573
341.8494, 6910.051
342.3315, 6943.489
342.8136, 6962.518
343.2957, 6965.692
343.7778, 6943.792
344.2599, 6896.472
344.7421, 6853.283
345.2242, 6825.379
345.7063, 6812.271
346.1884, 6816.874
346.6705, 6841.192
347.1526, 6872.245
347.6348, 6894.065
348.1169, 6907.990
348.5990, 6923.239
349.0811, 6950.975
349.5632, 6979.374
350.0453, 6976.794
350.5275, 6942.117
351.0096, 6907.575
351.4917, 6906.526
351.9738, 6927.761
352.4559, 6944.521
352.9380, 6944.077
353.4202, 6938.488
353.9023, 6944.095
354.3844, 6959.633
354.8665, 6972.784
355.3486, 6970.324
355.8307, 6962.105
356.3129, 6961.351
356.7950, 6976.654
357.2771, 6993.733
357.7592, 7001.406
358.2413, 7001.776
358.7234, 7002.550
359.2056, 7004.071
359.6877, 7009.596
360.1698, 7024.682
360.6519, 7061.696
361.1340, 7084.882
361.6161, 7061.969
362.0982, 7014.000
362.5804, 6986.433
363.0625, 7016.130
363.5446, 7053.054
364.0267, 7070.164
364.5088, 7054.655
364.9909, 7048.934
365.4731, 7075.917
365.9552, 7114.676
366.4373, 7135.387
366.9194, 7117.664
367.4015, 7096.881
367.8836, 7081.224
368.3658, 7070.792
368.8479, 7066.703
369.3300, 7068.024
369.8121, 7076.163
370.2942, 7093.370
370.7763, 7134.772
371.2585, 7163.466
371.7406, 7167.860
372.2227, 7148.801
372.7048, 7142.660
373.1869, 7156.367
373.6690, 7173.934
374.1512, 7183.356
374.6333, 7181.724
375.1154, 7179.512
375.5975, 7176.348
376.0796, 7173.805
376.5617, 7180.219
377.0439, 7199.210
377.5260, 7215.603
378.0081, 7216.809
378.4902, 7201.757
378.9723, 7196.169
379.4544, 7204.694
379.9366, 7219.463
380.4187, 7223.524
380.9008, 7216.744
381.3829, 7214.462
381.8650, 7232.249
382.3471, 7262.946
382.8293, 7270.166
383.3114, 7248.517
383.7935, 7224.161
384.2756, 7231.799
384.7577, 7264.518
385.2398, 7294.547
385.7220, 7307.958
386.2041, 7312.703
386.6862, 7320.426
387.1683, 7330.983
387.6504, 7342.835
388.1325, 7355.802
388.6147, 7369.025
389.0968, 7381.322
389.5789, 7398.078
390.0610, 7408.110
390.5431, 7395.521
391.0252, 7365.667
391.5074, 7343.513
391.9895, 7350.519
392.4716, 7366.560
392.9537, 7373.251
393.4358, 7357.639
393.9179, 7349.926
394.4001, 7372.304
394.8822, 7411.198
395.3643, 7435.919
395.8464, 7418.555
396.3285, 7400.404
396.8106, 7403.981
397.2928, 7444.137
397.7749, 7465.618
398.2570, 7436.402
398.7391, 7392.448
399.2212, 7381.417
399.7033, 7450.086
400.1855, 7500.625
400.6676, 7506.271
401.1497, 7463.326
401.6318, 7440.344
402.1139, 7444.330
402.5960, 7461.391
403.0782, 7482.359
403.5603, 7512.804
404.0424, 7532.304
404.5245, 7532.074
405.0066, 7519.381
405.4887, 7528.335
405.9709, 7565.527
406.4530, 7604.815
406.9351, 7632.033
407.4172, 7647.036
407.8993, 7650.512
408.3814, 7639.722
408.8636, 7622.167
409.3457, 7605.372
409.8278, 7589.792
410.3099, 7590.936
410.7920, 7635.772
411.2741, 7704.117
411.7563, 7723.373
412.2384, 7686.511
412.7205, 7644.376
413.2026, 7656.356
413.6847, 7704.149
414.1668, 7739.675
414.6490, 7730.223
415.1311, 7711.669
415.6132, 7730.700
416.0953, 7783.036
416.5774, 7829.674
417.0595, 7842.457
417.5417, 7838.624
418.0238, 7836.105
418.5059, 7839.068
418.9880, 7844.415
419.4701, 7855.411
419.9522, 7868.172
420.4344, 7872.478
420.9165, 7847.106
421.3986, 7826.516
421.8807, 7831.311
422.3628, 7873.320
422.8449, 7908.684
423.3270, 7928.282
423.8091, 7937.125
424.2913, 7941.695
424.7734, 7929.227
425.2555, 7926.799
425.7376, 7943.874
426.2197, 7980.992
426.7018, 8007.709
427.1840, 8019.756
427.6661, 8025.885
428.1482, 8031.051
428.6303, 8031.728
429.1124, 8040.639
429.5945, 8060.171
430.0767, 8087.961
430.5588, 8120.859
431.0409, 8162.235
431.5230, 8194.944
432.0051, 8202.438
432.4872, 8185.579
432.9694, 8192.270
433.4515, 8229.509
433.9336, 8273.512
434.4157, 8289.053
434.8978, 8279.692
435.3799, 8271.335
435.8621, 8275.700
436.3442, 8287.284
436.8263, 8296.057
437.3084, 8302.026
437.7905, 8304.601
438.2726, 8294.081
438.7548, 8281.808
439.2369, 8288.519
439.7190, 8333.398
440.2011, 8376.572
440.6832, 8377.935
441.1653, 8350.257
441.6475, 8329.782
442.1296, 8343.324
442.6117, 8363.374
443.0938, 8369.344
443.5759, 8352.664
444.0580, 8344.826
444.5402, 8368.242
445.0223, 8402.622
445.5044, 8422.971
445.9865, 8415.209
446.4686, 8403.092
446.9507, 8389.476
447.4329, 8374.360
447.9150, 8365.770
448.3971, 8366.956
448.8792, 8371.825
449.3613, 8377.515
449.8434, 8387.663
450.3256, 8389.615
450.8077, 8378.369
451.2898, 8360.318
451.7719, 8350.726
452.2540, 8348.899
452.7361, 8358.082
453.2183, 8389.317
453.7004, 8441.490
454.1825, 8457.926
454.6646, 8432.289
455.1467, 8393.998
455.6288, 8373.693
456.1110, 8370.544
456.5931, 8381.662
457.0752, 8414.996
457.5573, 8454.490
458.0394, 8469.631
458.5215, 8462.556
459.0037, 8449.546
459.4858, 8433.902
459.9679, 8422.110
460.4500, 8425.279
460.9321, 8449.002
461.4142, 8475.999
461.8964, 8501.569
462.3785, 8521.329
462.8606, 8527.358
463.3427, 8494.158
463.8248, 8465.132
464.3069, 8467.854
464.7891, 8505.375
465.2712, 8536.118
465.7533, 8551.088
466.2354, 8554.247
466.7175, 8548.383
467.1996, 8503.138
467.6818, 8486.310
468.1639, 8521.698
468.6460, 8590.013
469.1281, 8625.915
469.6102, 8612.938
470.0923, 8591.934
470.5745, 8576.340
471.0566, 8564.611
471.5387, 8570.405
472.0208, 8602.973
472.5029, 8637.353
472.9850, 8639.677
473.4672, 8608.367
473.9493, 8573.961
474.4314, 8542.076
474.9135, 8514.702
475.3956, 8499.327
475.8777, 8495.942
476.3599, 8495.492
476.8420, 8491.706
477.3241, 8486.140
477.8062, 8480.007
478.2883, 8471.438
478.7704, 8470.359
479.2526, 8496.092
479.7347, 8536.447
480.2168, 8565.059
480.6989, 8556.045
481.1810, 8541.978
481.6631, 8547.495
482.1453, 8572.593
482.6274, 8591.181
483.1095, 8593.537
483.5916, 8583.680
484.0737, 8564.124
484.5558, 8506.544
485.0379, 8474.675
485.5201, 8495.341
486.0022, 8548.610
486.4843, 8580.710
486.9664, 8577.086
487.4485, 8570.460
487.9306, 8570.837
488.4128, 8579.347
488.8949, 8590.376
489.3770, 8608.264
489.8591, 8622.710
490.3412, 8620.491
490.8233, 8599.354
491.3055, 8581.937
491.7876, 8572.579
492.2697, 8569.438
492.7518, 8568.232
493.2339, 8568.861
493.7160, 8571.813
494.1982, 8580.577
494.6803, 8591.324
495.1624, 8593.660
495.6445, 8585.979
496.1266, 8576.685
496.6087, 8567.222
497.0909, 8562.423
497.5730, 8570.715
498.0551, 8611.934
498.5372, 8652.349
499.0193, 8667.384
499.5014, 8661.530
499.9836, 8655.419
500.4657, 8656.747
500.9478, 8660.752
501.4299, 8665.211
501.9120, 8670.887
502.3941, 8674.358
502.8763, 8671.711
503.3584, 8667.558
503.8405, 8668.051
504.3226, 8676.616
504.8047, 8683.765
505.2868, 8684.851
505.7690, 8681.626
506.2511, 8692.206
506.7332, 8722.449
507.2153, 8752.457
507.6974, 8767.129
508.1795, 8765.995
508.6617, 8772.183
509.1438, 8790.094
509.6259, 8808.385
510.1080, 8806.783
510.5901, 8788.833
511.0722, 8774.913
511.5544, 8775.960
512.0365, 8784.378
512.5186, 8791.187
513.0007, 8796.070
513.4828, 8795.689
513.9650, 8779.349
514.4471, 8760.327
514.9292, 8753.040
515.4113, 8762.587
515.8934, 8777.602
516.3755, 8798.207
516.8576, 8819.523
517.3397, 8834.253
517.8218, 8827.102
518.3040, 8826.437
518.7861, 8848.597
519.2682, 8894.837
519.7503, 8915.688
520.2324, 8890.475
520.7145, 8861.013
521.1967, 8851.548
521.6788, 8867.250
522.1609, 8890.715
522.6430, 8929.098
523.1251, 8966.707
523.6072, 8967.730
524.0894, 8928.213
524.5715, 8900.794
525.0536, 8906.594
525.5357, 8937.226
526.0178, 8975.447
526.4999, 9021.136
526.9821, 9048.924
527.4642, 9021.381
527.9463, 8966.273
528.4284, 8935.595
528.9105, 8942.096
529.3926, 8958.013
529.8748, 8959.182
530.3569, 8954.312
530.8390, 8958.356
531.3211, 8996.889
531.8032, 9027.517
532.2853, 9028.530
532.7675, 9001.287
533.2496, 8971.557
533.7317, 8929.441
534.2138, 8897.927
534.6959, 8890.991
535.1780, 8925.799
535.6602, 8951.801
536.1423, 8969.092
536.6244, 8978.120
537.1065, 8976.617
537.5886, 8958.760
538.0707, 8950.890
538.5529, 8962.081
539.0350, 8987.891
539.5171, 9010.361
539.9992, 9029.322
540.4813, 9045.125
540.9634, 9058.638
541.4456, 9069.057
541.9277, 9071.054
542.4098, 9062.023
542.8919, 9055.994
543.3740, 9071.943
543.8561, 9100.181
544.3383, 9123.631
544.8204, 9140.021
545.3025, 9145.771
545.7846, 9131.651
546.2667, 9102.816
546.7488, 9080.638
547.2310, 9071.969
547.7131, 9072.613
548.1952, 9084.443
548.6773, 9117.771
549.1594, 9131.252
549.6415, 9110.374
550.1237, 9079.117
550.6058, 9059.394
551.0879, 9050.241
551.5700, 9057.178
552.0521, 9087.190
552.5342, 9130.207
553.0164, 9158.417
553.4985, 9171.514
553.9806, 9172.674
554.4627, 9157.134
554.9448, 9130.186
555.4269, 9110.684
555.9091, 9098.564
556.3912, 9097.306
556.8733, 9117.890
557.3554, 9149.834
557.8375, 9177.201
558.3196, 9200.595
558.8018, 9209.916
559.2839, 9183.662
559.7660, 9139.169
560.2481, 9112.158
560.7302, 9117.798
561.2123, 9140.778
561.6945, 9185.365
562.1766, 9253.009
562.6587, 9296.229
563.1408, 9297.455
563.6229, 9286.459
564.1050, 9278.398
564.5872, 9271.453
565.0693, 9273.486
565.5514, 9289.544
566.0335, 9308.687
566.5156, 9309.205
566.9977, 9289.676
567.4799, 9279.017
567.9620, 9292.395
568.4441, 9316.839
568.9262, 9312.841
569.4083, 9283.700
569.8904, 9265.290
570.3726, 9295.804
570.8547, 9345.250
571.3368, 9374.862
571.8189, 9378.903
572.3010, 9374.219
572.7831, 9363.490
573.2653, 9352.716
573.7474, 9348.771
574.2295, 9358.451
574.7116, 9369.780
575.1937, 9384.050
575.6758, 9398.605
576.1580, 9403.617
576.6401, 9385.237
577.1222, 9375.682
577.6043, 9387.881
578.0864, 9423.526
578.5685, 9450.981
579.0507, 9469.934
579.5328, 9482.196
580.0149, 9489.737
580.4970, 9492.320
580.9791, 9485.074
581.4612, 9464.606
581.9434, 9442.359
582.4255, 9433.359
582.9076, 9435.777
583.3897, 9444.714
583.8718, 9459.651
584.3539, 9478.652
584.8361, 9502.775
585.3182, 9530.521
585.8003, 9555.193
586.2824, 9568.729
586.7645, 9581.623
587.2466, 9602.184
587.7288, 9636.352
588.2109, 9660.163
588.6930, 9663.104
589.1751, 9659.296
589.6572, 9661.464
590.1393, 9677.032
590.6215, 9680.741
591.1036, 9663.448
591.5857, 9637.834
592.0678, 9634.827
592.5499, 9655.655
593.0320, 9687.485
593.5142, 9735.680
593.9963, 9789.132
594.4784, 9805.560
594.9605, 9786.333
595.4426, 9766.152
595.9247, 9771.655
596.4069, 9791.991
596.8890, 9813.405
597.3711, 9833.851
597.8532, 9854.994
598.3353, 9879.555
598.8174, 9905.087
599.2996, 9928.647
599.7817, 9955.615
600.2638, 9973.191
600.7459, 9965.038
601.2280, 9942.961
601.7101, 9953.241
602.1923, 10018.78
602.6744, 10077.82
603.1565, 10100.75
603.6386, 10087.80
604.1207, 10106.93
604.6028, 10165.36
605.0850, 10225.09
605.5671, 10247.85
606.0492, 10241.25
606.5313, 10237.88
607.0134, 10241.10
607.4955, 10252.14
607.9777, 10281.11
608.4598, 10318.04
608.9419, 10344.11
609.4240, 10344.03
609.9061, 10337.53
610.3882, 10333.67
610.8704, 10332.14
611.3525, 10331.71
611.8346, 10328.59
612.3167, 10329.90
612.7988, 10341.48
613.2809, 10366.51
613.7631, 10381.52
614.2452, 10383.30
614.7273, 10380.17
615.2094, 10378.67
615.6915, 10379.31
616.1736, 10377.77
616.6558, 10373.32
617.1379, 10367.45
617.6200, 10358.29
618.1021, 10348.14
618.5842, 10349.03
619.0663, 10370.18
619.5485, 10399.28
620.0306, 10433.69
620.5127, 10466.76
620.9948, 10473.75
621.4769, 10403.82
621.9590, 10333.33
622.4412, 10317.82
622.9233, 10369.25
623.4054, 10401.54
623.8875, 10380.61
624.3696, 10347.28
624.8517, 10329.46
625.3339, 10339.03
625.8160, 10336.43
626.2981, 10314.47
626.7802, 10288.12
627.2623, 10283.90
627.7444, 10303.30
628.2266, 10313.92
628.7087, 10303.79
629.1908, 10283.50
629.6729, 10277.50
630.1550, 10282.27
630.6371, 10280.05
631.1193, 10248.33
631.6014, 10212.81
632.0835, 10199.12
632.5656, 10208.29
633.0477, 10223.41
633.5298, 10249.98
634.0120, 10271.07
634.4941, 10273.20
634.9762, 10240.67
635.4583, 10217.33
635.9404, 10210.76
636.4225, 10209.29
636.9047, 10197.26
637.3868, 10168.71
637.8689, 10151.34
638.3510, 10151.89
638.8331, 10163.93
639.3152, 10176.27
639.7973, 10188.44
640.2794, 10193.89
640.7615, 10187.40
641.2437, 10173.46
641.7258, 10154.89
642.2079, 10133.26
642.6900, 10118.48
643.1721, 10127.46
643.6542, 10138.87
644.1364, 10132.87
644.6185, 10100.85
645.1006, 10078.01
645.5827, 10074.43
646.0648, 10082.53
646.5469, 10096.88
647.0291, 10131.14
647.5112, 10141.66
647.9933, 10116.43
648.4754, 10074.24
648.9575, 10047.78
649.4396, 10036.43
649.9218, 10042.82
650.4039, 10075.37
650.8860, 10119.38
651.3681, 10146.10
651.8502, 10156.53
652.3323, 10155.96
652.8145, 10140.38
653.2966, 10120.48
653.7787, 10106.55
654.2608, 10099.43
654.7429, 10090.96
655.2250, 10074.63
655.7072, 10058.17
656.1893, 10047.07
656.6714, 10044.56
657.1535, 10042.10
657.6356, 10040.94
658.1177, 10038.33
658.5999, 10029.85
659.0820, 10013.73
659.5641, 10002.58
660.0462, 10000.92
660.5283, 10001.61
661.0104, 9990.065
661.4926, 9968.298
661.9747, 9946.052
662.4568, 9921.942
662.9389, 9904.043
663.4210, 9906.092
663.9031, 9924.574
664.3853, 9941.979
664.8674, 9944.998
665.3495, 9948.147
665.8316, 9961.909
666.3137, 9990.271
666.7958, 10007.30
667.2780, 10008.51
667.7601, 10000.22
668.2422, 9982.688
668.7243, 9948.608
669.2064, 9935.166
669.6885, 9948.056
670.1707, 9970.685
670.6528, 9985.590
671.1349, 9992.642
671.6170, 9989.578
672.0991, 9973.014
672.5812, 9952.715
673.0634, 9939.252
673.5455, 9931.232
674.0276, 9924.854
674.5097, 9920.638
674.9918, 9916.544
675.4739, 9909.515
675.9561, 9901.092
676.4382, 9899.936
676.9203, 9917.352
677.4024, 9931.037
677.8845, 9929.421
678.3666, 9910.322
678.8488, 9911.909
679.3309, 9939.011
679.8130, 9970.671
680.2951, 9992.502
680.7772, 10004.86
681.2593, 10012.11
681.7415, 10014.48
682.2236, 10011.10
682.7057, 9993.605
683.1878, 9971.926
683.6699, 9962.032
684.1520, 9974.331
684.6342, 9988.466
685.1163, 9995.462
685.5984, 9998.580
686.0805, 10003.40
686.5626, 10016.83
687.0447, 10025.77
687.5269, 10032.80
688.0090, 10033.80
688.4911, 10005.68
688.9732, 9937.081
689.4553, 9889.404
689.9374, 9899.302
690.4196, 9948.401
690.9017, 9969.907
691.3838, 9964.952
691.8659, 9957.777
692.3480, 9967.183
692.8301, 9982.299
693.3123, 9989.470
693.7944, 9986.590
694.2765, 9986.274
694.7586, 9997.735
695.2407, 10011.80
695.7228, 10021.41
696.2050, 10024.36
696.6871, 10026.75
697.1692, 10033.84
697.6513, 10035.85
698.1334, 10014.69
698.6155, 9965.295
699.0977, 9939.301
699.5798, 9950.672
700.0619, 9977.607
700.5440, 9980.007
701.0261, 9965.272
701.5082, 9960.819
701.9904, 9990.138
702.4725, 10023.12
702.9546, 10032.89
703.4367, 10024.96
703.9188, 10016.68
704.4009, 10014.82
704.8831, 10012.76
705.3652, 10007.16
705.8473, 9998.071
706.3294, 9990.512
706.8115, 9984.182
707.2936, 9980.296
707.7758, 9976.604
708.2579, 9973.574
708.7400, 9997.382
709.2221, 10052.15
709.7042, 10093.48
710.1863, 10059.33
710.6685, 9988.987
711.1506, 9958.333
711.6327, 9984.521
712.1148, 10017.10
712.5969, 10020.12
713.0790, 10013.94
713.5612, 10020.04
714.0433, 10059.91
714.5254, 10089.16
715.0075, 10101.13
715.4896, 10102.79
715.9717, 10103.40
716.4539, 10101.42
716.9360, 10105.18
717.4181, 10119.81
717.9002, 10137.13
718.3823, 10137.08
718.8644, 10122.16
719.3466, 10106.56
719.8287, 10099.15
720.3108, 10093.02
720.7929, 10072.52
721.2750, 10044.74
721.7571, 10037.49
722.2393, 10085.73
722.7214, 10136.69
723.2035, 10165.55
723.6856, 10170.31
724.1677, 10170.65
724.6498, 10161.12
725.1320, 10155.77
725.6141, 10165.34
726.0962, 10190.03
726.5783, 10206.26
727.0604, 10214.42
727.5425, 10212.43
728.0247, 10181.85
728.5068, 10144.12
728.9889, 10149.51
729.4710, 10215.36
729.9531, 10266.48
730.4352, 10227.27
730.9174, 10162.69
731.3995, 10138.75
731.8816, 10219.29
732.3637, 10267.05
732.8458, 10257.95
733.3279, 10222.10
733.8101, 10197.17
734.2922, 10183.11
734.7743, 10179.39
735.2564, 10187.44
735.7385, 10203.05
736.2206, 10219.43
736.7028, 10236.80
737.1849, 10255.89
737.6670, 10283.18
738.1491, 10306.62
738.6312, 10310.77
739.1133, 10302.12
739.5955, 10298.37
740.0776, 10309.99
740.5597, 10323.50
741.0418, 10334.44
741.5239, 10343.03
742.0060, 10351.73
742.4882, 10360.31
742.9703, 10368.27
743.4524, 10372.12
743.9345, 10373.88
744.4166, 10393.91
744.8987, 10431.88
745.3809, 10460.67
745.8630, 10448.09
746.3451, 10421.01
746.8272, 10418.44
747.3093, 10444.48
747.7914, 10336.05
748.2736, 10436.97
748.7557, 10494.68
749.2378, 10511.52
749.7199, 10365.03
750.2020, 10429.44
750.6841, 10409.32
751.1663, 10385.75
751.6484, 10479.84
752.1305, 10357.10
752.6126, 10449.33
753.0947, 10455.75
753.5768, 10501.44
754.0590, 10462.09
754.5411, 10449.00
755.0232, 10520.99
755.5053, 10545.87
755.9874, 10496.72
756.4695, 10497.24
756.9517, 10495.41
757.4338, 10496.33
757.9159, 10502.65
758.3980, 10509.12
758.8801, 10515.08
759.3622, 10521.80
759.8444, 10533.71
760.3265, 10552.12
760.8086, 10562.68
761.2907, 10555.60
761.7728, 10547.52
762.2549, 10577.51
762.7370, 10632.52
763.2191, 10670.13
763.7012, 10650.98
764.1833, 10625.49
764.6655, 10619.75
765.1476, 10631.84
765.6297, 10652.61
766.1118, 10696.92
766.5939, 10729.33
767.0760, 10736.69
767.5582, 10722.67
768.0403, 10713.51
768.5224, 10708.53
769.0045, 10711.80
769.4866, 10730.01
769.9688, 10757.08
770.4509, 10779.45
770.9330, 10797.31
771.4151, 10811.91
771.8972, 10829.90
772.3793, 10840.73
772.8615, 10831.71
773.3436, 10800.13
773.8257, 10780.90
774.3078, 10791.03
774.7899, 10802.42
775.2720, 10797.95
775.7542, 10774.42
776.2363, 10775.71
776.7184, 10805.59
777.2005, 10841.57
777.6826, 10863.66
778.1647, 10877.01
778.6469, 10895.25
779.1290, 10919.99
779.6111, 10943.91
780.0932, 10962.60
780.5753, 10977.70
781.0574, 10990.66
781.5396, 11002.57
782.0217, 11009.32
782.5038, 11004.51
782.9859, 11000.25
783.4680, 11008.96
783.9501, 11033.43
784.4323, 11051.58
784.9144, 11061.93
785.3965, 11065.71
785.8786, 11062.52
786.3607, 11054.23
786.8428, 11042.39
787.3250, 11022.73
787.8071, 11014.29
788.2892, 11032.78
788.7713, 11067.89
789.2534, 11107.40
789.7355, 11166.85
790.2177, 11204.13
790.6998, 11209.55
791.1819, 11197.98
791.6640, 11188.54
792.1461, 11180.78
792.6282, 11179.50
793.1104, 11186.43
793.5925, 11197.92
794.0746, 11211.81
794.5567, 11226.08
795.0388, 11236.70
795.5209, 11242.49
796.0031, 11244.18
796.4852, 11232.35
796.9673, 11218.63
797.4494, 11226.21
797.9315, 11269.30
798.4136, 11315.73
798.8958, 11363.40
799.3779, 11409.70
799.8600, 11453.66
800.3421, 11494.84
800.8242, 11502.42
801.3063, 11449.49
801.7885, 11379.43
802.2706, 11355.84
802.7527, 11364.61
803.2348, 11371.91
803.7169, 11347.71
804.1990, 11335.29
804.6812, 11362.62
805.1633, 11417.03
805.6454, 11453.53
806.1275, 11470.90
806.6096, 11470.25
807.0917, 11441.66
807.5739, 11401.99
808.0560, 11410.65
808.5381, 11462.68
809.0202, 11507.36
809.5023, 11515.74
809.9844, 11507.77
810.4666, 11496.92
810.9487, 11486.42
811.4308, 11487.19
811.9129, 11521.85
812.3950, 11548.49
812.8771, 11546.55
813.3593, 11523.62
813.8414, 11515.77
814.3235, 11527.37
814.8056, 11537.00
815.2877, 11532.21
815.7698, 11521.57
816.2520, 11534.48
816.7341, 11566.46
817.2162, 11592.55
817.6983, 11593.54
818.1804, 11587.33
818.6625, 11585.32
819.1447, 11587.73
819.6268, 11592.86
820.1089, 11602.11
820.5910, 11612.42
821.0731, 11624.36
821.5552, 11636.80
822.0374, 11641.11
822.5195, 11635.92
823.0016, 11637.15
823.4837, 11664.12
823.9658, 11697.85
824.4479, 11696.09
824.9301, 11665.64
825.4122, 11642.29
825.8943, 11643.70
826.3764, 11656.87
826.8585, 11680.11
827.3406, 11711.82
827.8228, 11734.91
828.3049, 11747.52
828.7870, 11754.45
829.2691, 11755.48
829.7512, 11752.70
830.2333, 11756.82
830.7155, 11767.46
831.1976, 11776.69
831.6797, 11780.97
832.1618, 11780.76
832.6439, 11774.71
833.1260, 11763.84
833.6082, 11753.68
834.0903, 11744.12
834.5724, 11738.01
835.0545, 11739.84
835.5366, 11747.47
836.0187, 11738.51
836.5009, 11707.96
836.9830, 11683.53
837.4651, 11678.65
837.9472, 11689.21
838.4293, 11715.91
838.9114, 11753.44
839.3936, 11773.32
839.8757, 11736.24
840.3578, 11697.11
840.8399, 11694.64
841.3220, 11725.08
841.8041, 11740.02
842.2863, 11722.79
842.7684, 11713.35
843.2505, 11730.83
843.7326, 11765.89
844.2147, 11769.99
844.6968, 11744.46
845.1790, 11721.56
845.6611, 11729.63
846.1432, 11742.35
846.6253, 11727.53
847.1074, 11690.40
847.5895, 11652.61
848.0717, 11605.09
848.5538, 11578.37
849.0359, 11596.01
849.5180, 11644.16
850.0001, 11657.25
850.4822, 11628.01
850.9644, 11600.86
851.4465, 11595.91
851.9286, 11602.48
852.4107, 11594.70
852.8928, 11576.89
853.3749, 11564.54
853.8571, 11566.73
854.3392, 11575.58
854.8213, 11589.23
855.3034, 11606.32
855.7855, 11621.58
856.2676, 11633.89
856.7498, 11645.53
857.2319, 11657.55
857.7140, 11668.40
858.1961, 11674.23
858.6782, 11675.04
859.1603, 11672.01
859.6425, 11658.70
860.1246, 11649.86
860.6067, 11671.33
861.0888, 11707.94
861.5709, 11725.61
862.0530, 11698.08
862.5352, 11669.21
863.0173, 11638.65
863.4994, 11616.54
863.9815, 11630.04
864.4636, 11683.87
864.9457, 11726.77
865.4279, 11746.10
865.9100, 11747.09
866.3921, 11729.40
866.8742, 11700.32
867.3563, 11674.48
867.8384, 11654.90
868.3206, 11643.49
868.8027, 11646.72
869.2848, 11657.28
869.7669, 11662.83
870.2490, 11660.58
870.7311, 11660.41
871.2133, 11662.28
871.6954, 11669.08
872.1775, 11686.65
872.6596, 11712.82
873.1417, 11743.50
873.6238, 11784.10
874.1060, 11809.32
874.5881, 11782.84
875.0702, 11738.13
875.5523, 11713.43
876.0344, 11730.65
876.5165, 11745.70
876.9987, 11759.34
877.4808, 11769.76
877.9629, 11771.98
878.4450, 11767.37
878.9271, 11773.22
879.4092, 11792.77
879.8914, 11813.42
880.3735, 11821.48
880.8556, 11825.18
881.3377, 11837.37
881.8198, 11867.75
882.3019, 11877.11
882.7841, 11829.69
883.2662, 11785.86
883.7483, 11789.98
884.2304, 11850.47
884.7125, 11877.08
885.1946, 11865.89
885.6768, 11852.87
886.1588, 11881.29
886.6409, 11921.72
887.1230, 11920.41
887.6052, 11873.99
888.0873, 11850.77
888.5694, 11911.90
889.0515, 11975.96
889.5336, 11997.27
890.0157, 11975.17
890.4979, 11955.67
890.9800, 11937.13
891.4621, 11928.51
891.9442, 11940.98
892.4263, 11964.98
892.9084, 11980.07
893.3906, 11986.47
893.8727, 11987.58
894.3548, 11974.55
894.8369, 11966.54
895.3190, 11976.86
895.8011, 12003.02
896.2833, 12024.83
896.7654, 12042.49
897.2475, 12058.14
897.7296, 12079.01
898.2117, 12092.69
898.6938, 12050.15
899.1760, 11967.58
899.6581, 11912.25
900.1402, 11931.77
900.6223, 11969.40
901.1044, 11998.45
901.5865, 12018.99
902.0687, 12028.67
902.5508, 12020.28
903.0329, 12015.74
903.5150, 12020.13
903.9971, 12025.88
904.4792, 12016.77
904.9614, 11995.96
905.4435, 11980.63
905.9256, 11973.49
906.4077, 11977.08
906.8898, 12005.38
907.3719, 12040.44
907.8541, 12060.70
908.3362, 12056.65
908.8183, 12044.82
909.3004, 12019.02
909.7825, 11995.26
910.2646, 11989.37
910.7468, 12000.35
911.2289, 12019.71
911.7110, 12047.60
912.1931, 12072.13
912.6752, 12088.99
913.1573, 12093.77
913.6395, 12073.46
914.1216, 12019.80
914.6037, 11996.01
915.0858, 12032.78
915.5679, 12073.99
916.0500, 12090.55
916.5322, 12084.84
917.0143, 12088.64
917.4964, 12102.09
917.9785, 12120.53
918.4606, 12151.40
918.9427, 12178.41
919.4249, 12180.59
919.9070, 12161.28
920.3891, 12141.68
920.8712, 12106.93
921.3533, 12099.11
921.8354, 12142.50
922.3176, 12215.52
922.7997, 12244.59
923.2818, 12229.27
923.7639, 12211.10
924.2460, 12198.52
924.7281, 12199.84
925.2103, 12239.93
925.6924, 12298.36
926.1745, 12337.09
926.6566, 12347.18
927.1387, 12328.56
927.6208, 12254.44
928.1030, 12176.33
928.5851, 12168.57
929.0672, 12234.42
929.5493, 12297.90
930.0314, 12353.84
930.5135, 12382.91
930.9957, 12337.11
931.4778, 12263.62
931.9599, 12226.37
932.4420, 12244.75
932.9241, 12265.00
933.4063, 12280.68
933.8884, 12288.51
934.3705, 12284.83
934.8526, 12268.97
935.3347, 12251.19
935.8168, 12231.00
936.2990, 12219.40
936.7811, 12222.44
937.2632, 12240.09
937.7453, 12284.56
938.2274, 12350.25
938.7095, 12391.89
939.1917, 12370.53
939.6738, 12351.09
940.1559, 12354.46
940.6380, 12374.74
941.1201, 12393.92
941.6022, 12411.89
942.0844, 12409.00
942.5665, 12364.19
943.0486, 12314.28
943.5307, 12305.32
944.0128, 12322.81
944.4949, 12338.87
944.9771, 12349.64
945.4592, 12351.42
945.9413, 12337.27
946.4234, 12320.90
946.9055, 12320.48
947.3876, 12335.80
947.8698, 12359.36
948.3519, 12392.50
948.8340, 12418.34
949.3161, 12408.87
949.7982, 12388.39
950.2803, 12384.70
950.7625, 12405.15
951.2446, 12429.00
951.7267, 12455.71
952.2088, 12481.63
952.6909, 12510.29
953.1730, 12539.33
953.6552, 12524.09
954.1373, 12467.07
954.6194, 12426.54
955.1015, 12455.49
955.5836, 12506.60
956.0657, 12539.99
956.5479, 12558.79
957.0300, 12587.32
957.5121, 12658.96
957.9942, 12689.82
958.4763, 12644.90
958.9584, 12563.37
959.4406, 12535.97
959.9227, 12556.50
960.4048, 12591.07
960.8869, 12635.26
961.3690, 12675.31
961.8511, 12695.54
962.3333, 12707.49
962.8154, 12726.32
963.2975, 12754.03
963.7796, 12791.50
964.2617, 12845.98
964.7438, 12896.48
965.2260, 12917.44
965.7081, 12916.54
966.1902, 12914.15
966.6723, 12912.17
967.1544, 12929.79
967.6365, 12990.83
968.1187, 13067.19
968.6008, 13132.83
969.0829, 13188.88
969.5650, 13286.11
970.0471, 13446.74
970.5292, 13576.16
971.0114, 13611.83
971.4935, 13612.35
971.9756, 13723.14
972.4577, 13914.37
972.9398, 14093.94
973.4219, 14207.60
973.9041, 14319.07
974.3862, 14440.09
974.8683, 14580.83
975.3504, 14758.32
975.8325, 14981.74
976.3146, 15206.26
976.7968, 15425.00
977.2789, 15655.14
977.7610, 15936.23
978.2431, 16236.95
978.7252, 16507.27
979.2073, 16735.51
979.6895, 16955.24
980.1716, 17200.04
980.6537, 17411.95
981.1358, 17575.23
981.6179, 17687.34
982.1000, 17669.43
982.5822, 17520.15
983.0643, 17319.40
983.5464, 17080.89
984.0285, 16844.43
984.5106, 16648.22
984.9927, 16490.03
985.4749, 16362.25
985.9570, 16251.83
986.4391, 16192.09
986.9212, 16198.77
987.4033, 16246.15
987.8854, 16294.57
988.3676, 16344.63
988.8497, 16407.24
989.3318, 16491.91
989.8139, 16554.38
990.2960, 16577.73
990.7781, 16549.43
991.2603, 16455.19
991.7424, 16288.05
992.2245, 16070.12
992.7066, 15796.42
993.1887, 15484.39
993.6708, 15107.87
994.1530, 14706.87
994.6351, 14411.62
995.1172, 14208.11
995.5993, 14028.45
996.0814, 13827.49
996.5635, 13654.26
997.0457, 13543.66
997.5278, 13476.42
998.0099, 13407.37
998.4920, 13332.29
998.9741, 13278.48
999.4562, 13256.86
999.9384, 13242.36
1000.420, 13193.17
1000.903, 13131.93
1001.385, 13096.13
1001.867, 13101.88
1002.349, 13109.15
1002.831, 13116.66
1003.313, 13113.85
1003.795, 13090.48
1004.277, 13047.26
1004.760, 13010.03
1005.242, 12978.76
1005.724, 12963.51
1006.206, 12988.63
1006.688, 13016.96
1007.170, 13011.81
1007.652, 12981.61
1008.134, 12964.83
1008.616, 12969.52
1009.099, 12977.57
1009.581, 12983.15
1010.063, 12994.83
1010.545, 13048.55
1011.027, 13121.25
1011.509, 13130.59
1011.991, 13040.27
1012.473, 12956.84
1012.955, 12937.45
1013.438, 12951.29
1013.920, 12978.45
1014.402, 13023.34
1014.884, 13028.69
1015.366, 12987.96
1015.848, 12953.84
1016.330, 12976.69
1016.812, 13018.26
1017.294, 13013.76
1017.777, 12976.83
1018.259, 12956.97
1018.741, 12990.17
1019.223, 13017.30
1019.705, 13023.95
1020.187, 13020.84
1020.669, 13027.92
1021.151, 13043.66
1021.634, 13054.01
1022.116, 13055.34
1022.598, 13055.62
1023.080, 13058.42
1023.562, 13064.92
1024.044, 13076.97
1024.526, 13095.87
1025.008, 13114.89
1025.490, 13137.11
1025.973, 13149.99
1026.455, 13145.32
1026.937, 13127.15
1027.419, 13095.95
1027.901, 13058.19
1028.383, 13037.54
1028.865, 13057.29
1029.347, 13080.14
1029.830, 13098.43
1030.312, 13111.74
1030.794, 13120.34
1031.276, 13124.71
1031.758, 13114.57
1032.240, 13086.12
1032.722, 13064.83
1033.204, 13086.92
1033.687, 13120.69
1034.169, 13127.96
1034.651, 13100.70
1035.133, 13099.75
1035.615, 13141.41
1036.097, 13182.89
1036.579, 13209.64
1037.061, 13222.22
1037.543, 13216.20
1038.026, 13196.63
1038.508, 13182.51
1038.990, 13191.25
1039.472, 13193.21
1039.954, 13156.39
1040.436, 13118.79
1040.918, 13130.01
1041.400, 13202.82
1041.882, 13239.18
1042.365, 13232.09
1042.847, 13218.53
1043.329, 13235.14
1043.811, 13260.70
1044.293, 13275.42
1044.775, 13277.61
1045.257, 13262.36
1045.739, 13215.37
1046.222, 13172.73
1046.704, 13137.77
1047.186, 13119.39
1047.668, 13147.21
1048.150, 13209.29
1048.632, 13264.32
1049.114, 13301.58
1049.596, 13326.99
1050.078, 13335.79
1050.561, 13339.76
1051.043, 13351.76
1051.525, 13375.24
1052.007, 13369.77
1052.489, 13330.61
1052.971, 13312.48
1053.453, 13383.06
1053.935, 13472.48
1054.417, 13489.19
1054.900, 13452.99
1055.382, 13430.09
1055.864, 13454.83
1056.346, 13463.65
1056.828, 13442.92
1057.310, 13411.97
1057.792, 13392.81
1058.274, 13387.50
1058.757, 13410.33
1059.239, 13467.35
1059.721, 13508.52
1060.203, 13493.13
1060.685, 13464.41
1061.167, 13446.97
1061.649, 13440.71
1062.131, 13444.84
1062.614, 13460.25
1063.096, 13462.56
1063.578, 13434.60
1064.060, 13398.77
1064.542, 13369.83
1065.024, 13353.65
1065.506, 13360.60
1065.988, 13417.47
1066.470, 13458.01
1066.953, 13480.35
1067.435, 13491.27
1067.917, 13491.64
1068.399, 13486.15
1068.881, 13483.32
1069.363, 13485.02
1069.845, 13503.05
1070.327, 13569.65
1070.809, 13622.30
1071.292, 13629.69
1071.774, 13610.68
1072.256, 13608.22
1072.738, 13621.78
1073.220, 13631.52
1073.702, 13632.61
1074.184, 13632.01
1074.666, 13635.68
1075.148, 13641.33
1075.631, 13645.25
1076.113, 13645.88
1076.595, 13663.87
1077.077, 13710.79
1077.559, 13734.04
1078.041, 13693.10
1078.523, 13625.50
1079.005, 13588.83
1079.488, 13582.09
1079.970, 13601.94
1080.452, 13679.43
1080.934, 13738.08
1081.416, 13762.57
1081.898, 13772.15
1082.380, 13778.76
1082.862, 13785.03
1083.344, 13822.05
1083.827, 13888.30
1084.309, 13938.37
1084.791, 13918.70
1085.273, 13895.47
1085.755, 13920.00
1086.237, 13972.56
1086.719, 13985.38
1087.201, 13952.97
1087.683, 13928.37
1088.166, 13924.58
1088.648, 13930.04
1089.130, 13935.97
1089.612, 13941.64
1090.094, 13945.52
1090.576, 13946.69
1091.058, 13952.38
1091.540, 13966.58
1092.023, 13976.27
1092.505, 13971.66
1092.987, 13960.42
1093.469, 13966.11
1093.951, 13981.25
1094.433, 13984.78
1094.915, 13946.30
1095.397, 13926.98
1095.880, 13954.10
1096.362, 13993.58
1096.844, 14019.85
1097.326, 14032.38
1097.808, 14015.48
1098.290, 13970.30
1098.772, 13937.59
1099.254, 13957.42
1099.736, 13986.30
1100.219, 14001.83
1100.701, 14003.30
1101.183, 13989.33
1101.665, 13954.93
1102.147, 13932.71
1102.629, 13927.45
1103.111, 13940.25
1103.593, 13997.15
1104.075, 14058.35
1104.558, 14070.69
1105.040, 14021.46
1105.522, 13987.83
1106.004, 13978.67
1106.486, 13977.55
1106.968, 13980.29
1107.450, 13984.57
1107.932, 13984.84
1108.415, 13982.97
1108.897, 13983.61
1109.379, 13991.67
1109.861, 13995.96
1110.343, 13991.30
1110.825, 13985.26
1111.307, 13980.11
1111.789, 13977.02
1112.271, 13991.16
1112.754, 14020.85
1113.236, 14050.59
1113.718, 14092.57
1114.200, 14109.76
1114.682, 14054.56
1115.164, 13972.69
1115.646, 13943.76
1116.128, 13974.00
1116.610, 13997.14
1117.093, 14006.82
1117.575, 14011.97
1118.057, 14025.47
1118.539, 14035.00
1119.021, 14019.52
1119.503, 13983.69
1119.985, 13983.54
1120.467, 14037.64
1120.950, 14070.28
1121.432, 14054.48
1121.914, 14031.31
1122.396, 14069.93
1122.878, 14137.51
1123.360, 14180.16
1123.842, 14181.68
1124.324, 14188.86
1124.807, 14210.04
1125.289, 14233.14
1125.771, 14248.89
1126.253, 14264.25
1126.735, 14311.30
1127.217, 14376.29
1127.699, 14415.69
1128.181, 14390.09
1128.663, 14372.62
1129.146, 14395.59
1129.628, 14425.31
1130.110, 14436.46
1130.592, 14429.75
1131.074, 14410.87
1131.556, 14382.42
1132.038, 14369.73
1132.520, 14414.74
1133.002, 14452.67
1133.485, 14438.17
1133.967, 14396.64
1134.449, 14375.41
1134.931, 14377.01
1135.413, 14373.25
1135.895, 14360.51
1136.377, 14352.59
1136.859, 14366.58
1137.342, 14386.59
1137.824, 14403.03
1138.306, 14412.68
1138.788, 14400.94
1139.270, 14359.10
1139.752, 14329.38
1140.234, 14322.15
1140.716, 14329.17
1141.198, 14356.75
1141.681, 14383.51
1142.163, 14376.44
1142.645, 14324.24
1143.127, 14279.22
1143.609, 14242.94
1144.091, 14220.00
1144.573, 14214.88
1145.055, 14222.42
1145.537, 14241.66
1146.020, 14263.93
1146.502, 14265.62
1146.984, 14217.79
1147.466, 14201.23
1147.948, 14242.22
1148.430, 14292.96
1148.912, 14331.03
1149.394, 14350.80
1149.877, 14307.11
1150.359, 14218.80
1150.841, 14164.76
1151.323, 14210.64
1151.805, 14261.79
1152.287, 14289.53
1152.769, 14308.59
1153.251, 14339.46
1153.734, 14379.16
1154.216, 14391.39
1154.698, 14375.82
1155.180, 14353.74
1155.662, 14330.28
1156.144, 14313.23
1156.626, 14303.28
1157.108, 14304.71
1157.590, 14335.46
1158.073, 14395.83
1158.555, 14432.30
1159.037, 14437.45
1159.519, 14415.06
1160.001, 14328.41
1160.483, 14248.78
1160.965, 14245.83
1161.447, 14304.75
1161.929, 14330.82
1162.412, 14320.71
1162.894, 14313.44
1163.376, 14319.93
1163.858, 14331.91
1164.340, 14346.32
1164.822, 14358.38
1165.304, 14366.59
1165.786, 14372.42
1166.269, 14345.18
1166.751, 14272.77
1167.233, 14231.46
1167.715, 14263.65
1168.197, 14326.18
1168.679, 14378.63
1169.161, 14414.16
1169.643, 14418.74
1170.125, 14363.88
1170.608, 14346.92
1171.090, 14377.31
1171.572, 14412.25
1172.054, 14424.14
1172.536, 14422.27
1173.018, 14415.36
1173.500, 14408.37
1173.982, 14413.12
1174.464, 14455.49
1174.947, 14469.80
1175.429, 14437.15
1175.911, 14416.38
1176.393, 14493.12
1176.875, 14606.16
1177.357, 14604.90
1177.839, 14512.79
1178.321, 14448.22
1178.804, 14489.61
1179.286, 14509.21
1179.768, 14479.73
1180.250, 14440.05
1180.732, 14437.73
1181.214, 14462.09
1181.696, 14493.28
1182.178, 14527.46
1182.661, 14545.49
1183.143, 14521.08
1183.625, 14502.50
1184.107, 14503.17
1184.589, 14513.61
1185.071, 14518.61
1185.553, 14519.51
1186.035, 14517.19
1186.517, 14511.13
1187.000, 14517.41
1187.482, 14555.85
1187.964, 14594.96
1188.446, 14629.11
1188.928, 14651.25
1189.410, 14632.75
1189.892, 14584.54
1190.374, 14551.60
1190.856, 14548.77
1191.339, 14540.04
1191.821, 14484.19
1192.303, 14444.89
1192.785, 14463.52
1193.267, 14521.62
1193.749, 14537.30
1194.231, 14517.87
1194.713, 14497.34
1195.195, 14482.34
1195.678, 14480.00
1196.160, 14502.00
1196.642, 14530.69
1197.124, 14551.80
1197.606, 14567.77
1198.088, 14614.18
1198.570, 14682.59
1199.052, 14717.38
1199.535, 14660.92
1200.017, 14615.82
1200.499, 14653.20
1200.981, 14706.59
1201.463, 14715.16
1201.945, 14679.83
1202.427, 14658.04
1202.909, 14649.22
1203.391, 14649.57
1203.874, 14663.80
1204.356, 14678.57
1204.838, 14685.04
1205.320, 14690.04
1205.802, 14707.42
1206.284, 14736.23
1206.766, 14720.15
1207.248, 14661.14
1207.730, 14627.40
1208.213, 14694.38
1208.695, 14762.35
1209.177, 14769.42
1209.659, 14751.00
1210.141, 14760.84
1210.623, 14797.28
1211.105, 14802.03
1211.587, 14771.03
1212.070, 14746.39
1212.552, 14764.46
1213.034, 14790.27
1213.516, 14810.93
1213.998, 14823.42
1214.480, 14816.48
1214.962, 14791.83
1215.444, 14789.15
1215.927, 14814.49
1216.409, 14829.63
1216.891, 14793.10
1217.373, 14753.81
1217.855, 14734.82
1218.337, 14735.95
1218.819, 14768.77
1219.301, 14829.03
1219.783, 14851.56
1220.266, 14821.25
1220.748, 14797.62
1221.230, 14837.13
1221.712, 14880.48
1222.194, 14893.32
1222.676, 14881.46
1223.158, 14853.84
1223.640, 14814.72
1224.122, 14806.97
1224.605, 14845.02
1225.087, 14889.43
1225.569, 14921.73
1226.051, 14945.03
1226.533, 14967.13
1227.015, 14981.87
1227.497, 14950.46
1227.979, 14882.24
1228.462, 14838.20
1228.944, 14836.79
1229.426, 14859.07
1229.908, 14921.93
1230.390, 14977.31
1230.872, 14991.28
1231.354, 14974.34
1231.836, 14977.42
1232.318, 14997.22
1232.801, 15017.07
1233.283, 15035.16
1233.765, 15042.10
1234.247, 15013.33
1234.729, 14991.68
1235.211, 15008.23
1235.693, 15053.01
1236.175, 15075.84
1236.657, 15079.74
1237.140, 15079.51
1237.622, 15083.71
1238.104, 15077.92
1238.586, 15039.82
1239.068, 15009.61
1239.550, 15018.76
1240.032, 15056.63
1240.514, 15073.28
1240.997, 15072.93
1241.479, 15069.09
1241.961, 15063.32
1242.443, 15061.77
1242.925, 15064.41
1243.407, 15073.13
1243.889, 15091.90
1244.371, 15117.11
1244.854, 15132.68
1245.336, 15141.42
1245.818, 15153.56
1246.300, 15177.23
1246.782, 15196.96
1247.264, 15210.32
1247.746, 15220.07
1248.228, 15234.69
1248.710, 15245.94
1249.193, 15220.72
1249.675, 15172.18
1250.157, 15140.46
1250.639, 15158.14
1251.121, 15165.94
1251.603, 15155.42
1252.085, 15146.31
1252.567, 15161.58
1253.049, 15186.65
1253.532, 15182.40
1254.014, 15163.62
1254.496, 15179.81
1254.978, 15289.99
1255.460, 15344.61
1255.942, 15324.44
1256.424, 15286.95
1256.906, 15285.57
1257.389, 15295.31
1257.871, 15271.28
1258.353, 15227.99
1258.835, 15218.03
1259.317, 15269.95
1259.799, 15289.27
1260.281, 15266.52
1260.763, 15234.84
1261.245, 15217.09
1261.728, 15211.33
1262.210, 15225.78
1262.692, 15250.21
1263.174, 15252.96
1263.656, 15228.53
1264.138, 15208.73
1264.620, 15196.26
1265.102, 15188.39
1265.584, 15169.61
1266.067, 15166.67
1266.549, 15223.86
1267.031, 15307.34
1267.513, 15331.50
1267.995, 15288.43
1268.477, 15282.98
1268.959, 15323.71
1269.441, 15377.34
1269.924, 15437.08
1270.406, 15482.32
1270.888, 15492.70
1271.370, 15483.67
1271.852, 15478.11
1272.334, 15475.38
1272.816, 15467.55
1273.298, 15454.35
1273.781, 15443.89
1274.263, 15433.60
1274.745, 15440.09
1275.227, 15486.43
1275.709, 15536.32
1276.191, 15524.54
1276.673, 15467.41
1277.155, 15433.04
1277.637, 15426.04
1278.120, 15421.89
1278.602, 15396.34
1279.084, 15394.06
1279.566, 15435.51
1280.048, 15485.77
1280.530, 15488.94
1281.012, 15466.42
1281.494, 15471.28
1281.976, 15502.93
1282.459, 15518.50
1282.941, 15479.26
1283.423, 15475.35
1283.905, 15530.18
1284.387, 15596.65
1284.869, 15617.71
1285.351, 15614.18
1285.833, 15612.54
1286.316, 15614.28
1286.798, 15612.37
1287.280, 15602.37
1287.762, 15603.86
1288.244, 15621.68
1288.726, 15641.53
1289.208, 15654.03
1289.690, 15658.02
1290.172, 15642.57
1290.655, 15617.07
1291.137, 15622.02
1291.619, 15665.34
1292.101, 15673.06
1292.583, 15630.79
1293.065, 15595.18
1293.547, 15622.74
1294.029, 15660.89
1294.511, 15674.49
1294.994, 15669.40
1295.476, 15654.60
1295.958, 15650.38
1296.440, 15691.48
1296.922, 15736.11
1297.404, 15753.78
1297.886, 15709.85
1298.368, 15679.71
1298.851, 15693.99
1299.333, 15728.73
1299.815, 15753.07
1300.297, 15766.82
##END=



