##NAMES=Rouaite
##RRUFFID=R080086
##IDEAL CHEMISTRY=Cu^2+^_2_N^5+^O_3_(OH)_3_
##LOCALITY=Jachymov, Erzgebirge (Bohemia), Czech Republic
##OWNER=RRUFF
##SOURCE=William W. Pinch
##DESCRIPTION=Green sharp thin plates, it should be noted that gerhardtite is dimorphous with Rouaite and may be confused with it.
##STATUS=The identification of this mineral has been confirmed by single-crystal X-ray diffraction.
##URL=rruff.info/R080086
92.52344, 41.30541
93.00555, 41.49023
93.48767, 41.49067
93.96979, 41.77329
94.45190, 42.28836
94.93402, 43.07320
95.41614, 43.33544
95.89825, 43.02973
96.38037, 42.41014
96.86249, 41.63056
97.34460, 41.23454
97.82672, 41.38462
98.30884, 41.69068
98.79095, 42.09485
99.27307, 42.54334
99.75519, 43.13253
100.2373, 44.26002
100.7194, 45.63262
101.2015, 45.86501
101.6837, 44.37996
102.1658, 42.33974
102.6479, 40.45389
103.1300, 38.70947
103.6121, 37.22828
104.0942, 36.26168
104.5764, 35.59911
105.0585, 34.98404
105.5406, 34.27322
106.0227, 33.52783
106.5048, 32.97706
106.9869, 32.80326
107.4691, 32.54383
107.9512, 31.93073
108.4333, 31.05424
108.9154, 30.14836
109.3975, 29.38824
109.8796, 28.77883
110.3618, 28.27372
110.8439, 27.90198
111.3260, 27.60204
111.8081, 27.37752
112.2902, 27.21562
112.7723, 27.07695
113.2544, 26.90591
113.7366, 26.67079
114.2187, 26.46171
114.7008, 26.27240
115.1829, 26.10804
115.6650, 25.99741
116.1471, 25.95159
116.6293, 25.91522
117.1114, 25.73671
117.5935, 25.29861
118.0756, 24.95564
118.5577, 24.84889
119.0398, 24.90369
119.5220, 24.94523
120.0041, 24.90401
120.4862, 24.78811
120.9683, 24.63287
121.4504, 24.41078
121.9325, 24.19555
122.4147, 24.08405
122.8968, 24.09079
123.3789, 24.02223
123.8610, 23.63329
124.3431, 23.16584
124.8252, 22.85812
125.3074, 22.80689
125.7895, 22.92594
126.2716, 23.06144
126.7537, 23.28342
127.2358, 23.38119
127.7179, 23.22626
128.2001, 22.94609
128.6822, 22.71022
129.1643, 22.63408
129.6464, 22.70063
130.1285, 22.69537
130.6107, 22.53938
131.0928, 22.38132
131.5749, 22.23983
132.0570, 22.12369
132.5391, 22.04448
133.0212, 22.02073
133.5034, 22.07015
133.9855, 22.04473
134.4676, 21.91236
134.9497, 21.74890
135.4318, 21.58217
135.9139, 21.42067
136.3960, 21.27463
136.8782, 21.15735
137.3603, 21.07312
137.8424, 21.00759
138.3245, 20.94239
138.8066, 20.90244
139.2887, 20.93764
139.7709, 21.07488
140.2530, 21.22421
140.7351, 21.26690
141.2172, 21.21534
141.6993, 21.13745
142.1814, 21.04632
142.6636, 20.94824
143.1457, 20.86658
143.6278, 20.81256
144.1099, 20.77173
144.5920, 20.70977
145.0741, 20.62915
145.5563, 20.59367
146.0384, 20.70223
146.5205, 20.98322
147.0026, 21.16393
147.4847, 21.11329
147.9668, 20.99950
148.4490, 20.91108
148.9311, 20.86613
149.4132, 20.82027
149.8953, 20.69806
150.3774, 20.44068
150.8595, 20.22454
151.3417, 20.05795
151.8238, 19.93235
152.3059, 19.83500
152.7880, 19.76272
153.2701, 19.72900
153.7522, 19.77069
154.2344, 20.05251
154.7165, 20.22070
155.1986, 20.16005
155.6807, 20.00659
156.1628, 19.94851
156.6449, 20.08879
157.1271, 20.35839
157.6092, 20.46895
158.0913, 20.35777
158.5734, 20.19669
159.0555, 19.97701
159.5376, 19.73490
160.0198, 19.57262
160.5019, 19.56829
160.9840, 19.67846
161.4661, 19.72341
161.9482, 19.65637
162.4303, 19.57660
162.9125, 19.55128
163.3946, 19.57846
163.8767, 19.61851
164.3588, 19.69094
164.8409, 19.74516
165.3230, 19.68522
165.8052, 19.40927
166.2873, 19.09090
166.7694, 18.98259
167.2515, 19.14193
167.7336, 19.31511
168.2157, 19.42727
168.6979, 19.46920
169.1800, 19.40211
169.6621, 19.16162
170.1442, 18.83617
170.6263, 18.68329
171.1084, 18.80381
171.5906, 18.94994
172.0727, 19.07617
172.5548, 19.16725
173.0369, 19.19872
173.5190, 19.14647
174.0011, 19.02266
174.4833, 18.93022
174.9654, 18.89962
175.4475, 18.87288
175.9296, 18.89604
176.4117, 18.91321
176.8938, 18.81318
177.3760, 18.49085
177.8581, 17.93538
178.3402, 17.58729
178.8223, 17.51267
179.3044, 17.55091
179.7865, 17.73527
180.2687, 18.00491
180.7508, 18.22100
181.2329, 18.26308
181.7150, 18.11362
182.1971, 17.92996
182.6792, 17.60476
183.1614, 17.33698
183.6435, 17.29028
184.1256, 17.45133
184.6077, 17.62794
185.0898, 17.64557
185.5719, 17.48898
186.0541, 17.36083
186.5362, 17.29905
187.0183, 17.24738
187.5004, 17.13964
187.9825, 16.96499
188.4646, 16.80049
188.9468, 16.73540
189.4289, 16.74607
189.9110, 16.73747
190.3931, 16.66002
190.8752, 16.55960
191.3573, 16.52315
191.8395, 16.58650
192.3216, 16.62876
192.8037, 16.51521
193.2858, 16.30705
193.7679, 16.14289
194.2500, 16.11312
194.7322, 16.17837
195.2143, 16.21068
195.6964, 16.19407
196.1785, 16.16352
196.6606, 16.13320
197.1427, 16.10539
197.6249, 16.08607
198.1070, 16.08611
198.5891, 16.10186
199.0712, 16.09500
199.5533, 16.03655
200.0354, 15.98667
200.5176, 15.95296
200.9997, 15.94414
201.4818, 15.97933
201.9639, 16.08969
202.4460, 16.27889
202.9281, 16.40007
203.4103, 16.42547
203.8924, 16.40061
204.3745, 16.29382
204.8566, 16.13955
205.3387, 16.02022
205.8208, 16.02413
206.3030, 16.18034
206.7851, 16.06803
207.2672, 16.17945
207.7493, 16.23521
208.2314, 16.23830
208.7135, 16.03097
209.1957, 16.09535
209.6778, 16.05084
210.1599, 16.02886
210.6420, 15.99966
211.1241, 15.98076
211.6062, 16.00056
212.0884, 16.12612
212.5705, 16.32734
213.0526, 16.47081
213.5347, 16.42193
214.0168, 16.14997
214.4989, 15.96365
214.9811, 15.89328
215.4632, 15.87537
215.9453, 15.87764
216.4274, 15.89560
216.9095, 15.93063
217.3916, 15.99690
217.8737, 16.09159
218.3559, 16.12759
218.8380, 16.04000
219.3201, 15.93456
219.8022, 15.91643
220.2843, 15.99338
220.7664, 16.06904
221.2486, 16.05059
221.7307, 15.96234
222.2128, 15.91122
222.6949, 15.94784
223.1770, 16.01006
223.6591, 16.01606
224.1413, 15.95369
224.6234, 15.90527
225.1055, 15.97833
225.5876, 16.10471
226.0697, 16.15235
226.5518, 16.01843
227.0340, 15.82224
227.5161, 15.75963
227.9982, 15.87288
228.4803, 15.97241
228.9624, 15.89682
229.4445, 15.75103
229.9267, 15.67296
230.4088, 15.72630
230.8909, 15.86398
231.3730, 16.00676
231.8551, 16.16682
232.3372, 16.29897
232.8194, 16.36863
233.3015, 16.40880
233.7836, 16.46978
234.2657, 16.59362
234.7478, 16.71623
235.2299, 16.67287
235.7121, 16.36454
236.1942, 16.08553
236.6763, 15.89670
237.1584, 15.78570
237.6405, 15.73987
238.1227, 15.75344
238.6048, 15.83058
239.0869, 16.00264
239.5690, 16.39765
240.0511, 16.65547
240.5332, 16.65336
241.0154, 16.52936
241.4975, 16.40080
241.9796, 16.31682
242.4617, 16.28080
242.9438, 16.31421
243.4259, 16.52479
243.9081, 16.62939
244.3902, 16.49206
244.8723, 16.29598
245.3544, 16.24287
245.8365, 16.40702
246.3186, 16.66677
246.8008, 16.47532
247.2829, 16.76284
247.7650, 16.91121
248.2471, 16.92790
248.7292, 16.41854
249.2113, 16.58847
249.6935, 16.48616
250.1756, 16.37270
250.6577, 16.63824
251.1398, 16.20539
251.6219, 16.46492
252.1040, 16.44806
252.5862, 16.55770
253.0683, 16.39342
253.5504, 16.31375
254.0325, 16.50808
254.5146, 16.55070
254.9967, 16.35489
255.4789, 16.47256
255.9610, 16.03015
256.4431, 15.91148
256.9252, 15.82413
257.4073, 15.93281
257.8894, 16.09565
258.3716, 16.12035
258.8537, 15.93742
259.3358, 15.78107
259.8179, 15.65845
260.3000, 15.55743
260.7821, 15.46964
261.2643, 15.39296
261.7464, 15.32678
262.2285, 15.27316
262.7106, 15.23670
263.1927, 15.18508
263.6748, 15.07552
264.1570, 14.97754
264.6391, 14.96968
265.1212, 15.05510
265.6033, 15.14974
266.0854, 15.18941
266.5675, 15.16517
267.0497, 15.05824
267.5318, 14.75607
268.0139, 14.44907
268.4960, 14.27911
268.9781, 14.25491
269.4602, 14.33505
269.9424, 14.54101
270.4245, 14.83844
270.9066, 14.99937
271.3887, 14.95070
271.8708, 14.81535
272.3529, 14.68508
272.8351, 14.55768
273.3172, 14.37710
273.7993, 14.05353
274.2814, 13.66780
274.7635, 13.45709
275.2456, 13.50842
275.7278, 13.64447
276.2099, 13.79892
276.6920, 13.95886
277.1741, 14.00284
277.6562, 13.80606
278.1383, 13.49782
278.6205, 13.35520
279.1026, 13.43837
279.5847, 13.55370
280.0668, 13.58376
280.5489, 13.53689
281.0310, 13.45429
281.5132, 13.32140
281.9953, 13.18946
282.4774, 13.14017
282.9595, 13.19019
283.4416, 13.22358
283.9237, 13.12612
284.4059, 12.94090
284.8880, 12.86660
285.3701, 13.01824
285.8522, 13.20318
286.3343, 13.18816
286.8164, 12.98462
287.2986, 12.82311
287.7807, 12.87770
288.2628, 13.07746
288.7449, 13.18499
289.2270, 13.14086
289.7091, 13.04762
290.1913, 12.95550
290.6734, 12.87710
291.1555, 12.86777
291.6376, 13.06364
292.1197, 13.33727
292.6018, 13.10524
293.0840, 13.23043
293.5661, 13.29997
294.0482, 13.31684
294.5303, 13.12328
295.0124, 13.20144
295.4945, 13.17071
295.9767, 13.13552
296.4588, 13.25192
296.9409, 13.08897
297.4230, 13.20297
297.9051, 13.20642
298.3872, 13.26046
298.8694, 13.20494
299.3515, 13.18327
299.8336, 13.05077
300.3157, 12.93581
300.7978, 12.83562
301.2799, 12.73592
301.7621, 12.60483
302.2442, 12.48641
302.7263, 12.42588
303.2084, 12.43606
303.6905, 12.47641
304.1726, 12.50784
304.6548, 12.52960
305.1369, 12.56102
305.6190, 12.63196
306.1011, 12.69257
306.5832, 12.69591
307.0653, 12.64087
307.5475, 12.58028
308.0296, 12.54986
308.5117, 12.54910
308.9938, 12.57805
309.4759, 12.67683
309.9580, 12.75640
310.4402, 12.72805
310.9223, 12.62228
311.4044, 12.55605
311.8865, 12.66371
312.3686, 12.88639
312.8507, 12.94874
313.3329, 12.75440
313.8150, 12.55702
314.2971, 12.49075
314.7792, 12.51637
315.2613, 12.56418
315.7434, 12.60169
316.2256, 12.64252
316.7077, 12.72286
317.1898, 12.86058
317.6719, 12.98991
318.1540, 13.10687
318.6361, 13.19141
319.1183, 13.20979
319.6004, 13.14149
320.0825, 13.03401
320.5646, 12.94299
321.0467, 12.86722
321.5288, 12.81563
322.0110, 12.79066
322.4931, 12.79391
322.9752, 12.83375
323.4573, 12.91195
323.9394, 13.00681
324.4215, 13.13383
324.9037, 13.28984
325.3858, 13.32302
325.8679, 13.08119
326.3500, 12.83578
326.8321, 12.82041
327.3142, 13.00094
327.7964, 13.14503
328.2785, 13.04852
328.7606, 12.77007
329.2427, 12.59416
329.7248, 12.55271
330.2069, 12.59086
330.6891, 12.73717
331.1712, 12.92928
331.6533, 13.02951
332.1354, 12.93568
332.6175, 12.73163
333.0996, 12.57122
333.5818, 12.44394
334.0639, 12.39334
334.5460, 12.53626
335.0281, 12.73600
335.5102, 12.83120
335.9923, 12.75958
336.4745, 12.62208
336.9566, 12.50652
337.4387, 12.40945
337.9208, 12.40439
338.4029, 12.59802
338.8850, 12.83817
339.3671, 12.98758
339.8492, 13.03534
340.3314, 13.00565
340.8135, 12.85466
341.2956, 12.61393
341.7777, 12.50392
342.2598, 12.63169
342.7419, 12.80346
343.2241, 12.85993
343.7062, 12.81549
344.1883, 12.73132
344.6704, 12.56819
345.1525, 12.39616
345.6346, 12.40494
346.1168, 12.66375
346.5989, 12.91006
347.0810, 12.89575
347.5631, 12.74100
348.0452, 12.65223
348.5273, 12.71970
349.0095, 12.84092
349.4916, 12.92256
349.9737, 12.96505
350.4558, 12.93041
350.9379, 12.73941
351.4200, 12.49553
351.9022, 12.37563
352.3843, 12.42987
352.8664, 12.49147
353.3485, 12.42307
353.8306, 12.26299
354.3127, 12.16589
354.7949, 12.18433
355.2770, 12.26444
355.7591, 12.37219
356.2412, 12.51065
356.7233, 12.55761
357.2054, 12.36299
357.6876, 12.08324
358.1697, 11.99382
358.6518, 12.15068
359.1339, 12.34537
359.6160, 12.37505
360.0981, 12.27781
360.5803, 12.26149
361.0624, 12.44771
361.5445, 12.65089
362.0266, 12.69963
362.5087, 12.60966
362.9908, 12.52600
363.4730, 12.53930
363.9551, 12.60806
364.4372, 12.60313
364.9193, 12.49475
365.4014, 12.37051
365.8835, 12.24052
366.3657, 12.12277
366.8478, 12.05614
367.3299, 12.05641
367.8120, 12.10211
368.2941, 12.17865
368.7762, 12.31181
369.2584, 12.36309
369.7405, 12.17469
370.2226, 11.97631
370.7047, 12.06519
371.1868, 12.45568
371.6689, 12.80723
372.1511, 12.77869
372.6332, 12.34839
373.1153, 12.17319
373.5974, 12.43057
374.0795, 12.73907
374.5616, 12.97598
375.0438, 13.11908
375.5259, 13.11616
376.0080, 12.91583
376.4901, 12.60263
376.9722, 12.48146
377.4543, 12.75573
377.9365, 12.95608
378.4186, 13.00034
378.9007, 12.96311
379.3828, 12.91742
379.8649, 12.88565
380.3470, 12.85667
380.8292, 12.80959
381.3113, 12.71499
381.7934, 12.69782
382.2755, 12.84518
382.7576, 12.98416
383.2397, 13.00827
383.7219, 12.93068
384.2040, 12.81727
384.6861, 12.70872
385.1682, 12.61107
385.6503, 12.62834
386.1324, 12.93903
386.6146, 13.16961
387.0967, 13.19523
387.5788, 13.12344
388.0609, 13.08679
388.5430, 13.14198
389.0251, 13.26389
389.5073, 13.42093
389.9894, 13.69922
390.4715, 13.82250
390.9536, 13.66767
391.4357, 13.46116
391.9178, 13.32053
392.4000, 13.27021
392.8821, 13.29674
393.3642, 13.41921
393.8463, 13.64394
394.3284, 13.62549
394.8105, 13.78817
395.2927, 13.89520
395.7748, 13.94955
396.2569, 13.79348
396.7390, 13.90913
397.2211, 13.91588
397.7032, 13.91817
398.1854, 14.07206
398.6675, 13.94660
399.1496, 14.09808
399.6317, 14.13901
400.1138, 14.23054
400.5959, 14.21941
401.0781, 14.09656
401.5602, 13.95766
402.0423, 13.96103
402.5244, 14.09153
403.0065, 14.18427
403.4886, 14.22938
403.9708, 14.21608
404.4529, 14.10630
404.9350, 13.93497
405.4171, 13.80139
405.8992, 13.79246
406.3813, 13.82353
406.8635, 13.73489
407.3456, 13.50862
407.8277, 13.33021
408.3098, 13.33573
408.7919, 13.42370
409.2740, 13.40535
409.7562, 13.21435
410.2383, 13.06426
410.7204, 13.15827
411.2025, 13.40028
411.6846, 13.50490
412.1667, 13.38823
412.6489, 13.15140
413.1310, 12.85081
413.6131, 12.48337
414.0952, 12.29024
414.5773, 12.48262
415.0594, 12.75255
415.5416, 12.79205
416.0237, 12.60779
416.5058, 12.41662
416.9879, 12.35260
417.4700, 12.40161
417.9521, 12.48295
418.4343, 12.67083
418.9164, 12.79757
419.3985, 12.79157
419.8806, 12.70438
420.3627, 12.59106
420.8448, 12.47017
421.3270, 12.38001
421.8091, 12.38441
422.2912, 12.53308
422.7733, 12.63669
423.2554, 12.73118
423.7375, 12.75453
424.2197, 12.60264
424.7018, 12.33402
425.1839, 12.13091
425.6660, 12.13436
426.1481, 12.30676
426.6302, 12.38891
427.1124, 12.23625
427.5945, 12.17019
428.0766, 12.29304
428.5587, 12.48703
429.0408, 12.64052
429.5229, 12.71772
430.0051, 12.74736
430.4872, 12.78395
430.9693, 12.85666
431.4514, 12.81454
431.9335, 12.43022
432.4156, 12.12907
432.8978, 12.15478
433.3799, 12.40927
433.8620, 12.62441
434.3441, 12.62341
434.8262, 12.47667
435.3083, 12.38281
435.7905, 12.35380
436.2726, 12.34589
436.7547, 12.33821
437.2368, 12.34752
437.7189, 12.40219
438.2010, 12.51091
438.6832, 12.61490
439.1653, 12.67627
439.6474, 12.69358
440.1295, 12.64363
440.6116, 12.48372
441.0938, 12.33192
441.5759, 12.28747
442.0580, 12.33101
442.5401, 12.42165
443.0222, 12.62608
443.5043, 12.81871
443.9865, 12.84842
444.4686, 12.73146
444.9507, 12.61720
445.4328, 12.57235
445.9149, 12.57610
446.3970, 12.58601
446.8792, 12.61141
447.3613, 12.61697
447.8434, 12.56084
448.3255, 12.49460
448.8076, 12.48231
449.2897, 12.53430
449.7719, 12.62606
450.2540, 12.74775
450.7361, 12.90402
451.2182, 12.97032
451.7003, 12.94160
452.1824, 12.84478
452.6646, 12.62204
453.1467, 12.35193
453.6288, 12.16170
454.1109, 12.10681
454.5930, 12.14594
455.0751, 12.20442
455.5573, 12.32623
456.0394, 12.37731
456.5215, 12.25696
457.0036, 12.16284
457.4857, 12.26818
457.9678, 12.52001
458.4500, 12.70943
458.9321, 12.65703
459.4142, 12.41455
459.8963, 12.29513
460.3784, 12.37997
460.8605, 12.44560
461.3427, 12.43110
461.8248, 12.37281
462.3069, 12.29306
462.7890, 12.19771
463.2711, 12.11786
463.7532, 12.08719
464.2354, 12.10358
464.7175, 12.14853
465.1996, 12.25353
465.6817, 12.33225
466.1638, 12.30061
466.6459, 12.19675
467.1281, 12.11615
467.6102, 12.11191
468.0923, 12.12493
468.5744, 12.07446
469.0565, 11.96940
469.5386, 11.90728
470.0208, 11.93519
470.5029, 12.01444
470.9850, 12.08163
471.4671, 12.13798
471.9492, 12.18323
472.4313, 12.19104
472.9135, 12.20322
473.3956, 12.29324
473.8777, 12.45402
474.3598, 12.57662
474.8419, 12.57476
475.3240, 12.45929
475.8062, 12.33532
476.2883, 12.15241
476.7704, 12.02321
477.2525, 11.97539
477.7346, 11.99195
478.2167, 12.09003
478.6989, 12.25990
479.1810, 12.39895
479.6631, 12.35791
480.1452, 12.08259
480.6273, 11.90672
481.1094, 11.92702
481.5916, 11.94931
482.0737, 11.87133
482.5558, 11.75941
483.0379, 11.75310
483.5200, 11.93409
484.0021, 12.17694
484.4843, 12.20143
484.9664, 11.92852
485.4485, 11.80776
485.9306, 12.11911
486.4127, 12.44358
486.8948, 12.44435
487.3770, 12.17214
487.8591, 11.97198
488.3412, 12.13838
488.8233, 12.47823
489.3054, 12.59414
489.7875, 12.46126
490.2697, 12.32068
490.7518, 12.31203
491.2339, 12.36092
491.7160, 12.30462
492.1981, 12.09385
492.6802, 11.92335
493.1624, 11.90546
493.6445, 11.96817
494.1266, 12.00258
494.6087, 11.99074
495.0908, 11.98376
495.5729, 12.03941
496.0551, 12.15514
496.5372, 12.17651
497.0193, 11.96743
497.5014, 11.83629
497.9835, 11.93205
498.4656, 12.14357
498.9478, 12.33883
499.4299, 12.46772
499.9120, 12.50916
500.3941, 12.41045
500.8762, 12.10579
501.3583, 11.92123
501.8405, 11.92087
502.3226, 11.97634
502.8047, 12.08927
503.2868, 12.21876
503.7689, 12.30070
504.2510, 12.30313
504.7331, 12.24849
505.2152, 12.15974
505.6974, 12.02253
506.1795, 11.94166
506.6616, 11.98940
507.1437, 12.05294
507.6258, 12.03356
508.1079, 11.94715
508.5901, 11.88982
509.0722, 11.95182
509.5543, 12.04812
510.0364, 12.02875
510.5185, 11.89550
511.0006, 11.81305
511.4828, 11.89066
511.9649, 12.03639
512.4470, 12.03571
512.9291, 11.82919
513.4113, 11.70314
513.8934, 11.85548
514.3755, 12.04860
514.8576, 11.96553
515.3397, 11.62332
515.8218, 11.35764
516.3040, 11.43445
516.7861, 11.79699
517.2682, 12.03255
517.7503, 12.08875
518.2324, 12.07615
518.7145, 11.94794
519.1967, 11.78883
519.6788, 11.66331
520.1609, 11.58964
520.6430, 11.57057
521.1251, 11.63356
521.6072, 11.77357
522.0894, 11.78936
522.5715, 11.55090
523.0536, 11.39719
523.5357, 11.51978
524.0178, 11.74398
524.4999, 11.86700
524.9821, 11.83359
525.4642, 11.74267
525.9463, 11.65652
526.4284, 11.58395
526.9105, 11.57449
527.3926, 11.65427
527.8748, 11.73993
528.3569, 11.75886
528.8390, 11.72989
529.3211, 11.72016
529.8032, 11.78702
530.2853, 11.81643
530.7675, 11.71685
531.2496, 11.54086
531.7317, 11.36540
532.2138, 11.21095
532.6959, 11.14549
533.1780, 11.28283
533.6602, 11.69024
534.1423, 11.87439
534.6244, 11.65907
535.1065, 11.45113
535.5886, 11.41367
536.0707, 11.48038
536.5529, 11.53460
537.0350, 11.53001
537.5171, 11.51153
537.9992, 11.57721
538.4813, 11.77068
538.9634, 11.81694
539.4456, 11.53254
539.9277, 11.28834
540.4098, 11.29001
540.8919, 11.45013
541.3740, 11.59471
541.8561, 11.66953
542.3383, 11.67315
542.8204, 11.54961
543.3025, 11.32070
543.7846, 11.21239
544.2667, 11.31903
544.7488, 11.48529
545.2310, 11.54582
545.7131, 11.51136
546.1952, 11.45631
546.6773, 11.32327
547.1594, 11.23630
547.6415, 11.31869
548.1237, 11.51099
548.6058, 11.67986
549.0879, 11.77383
549.5700, 11.77927
550.0521, 11.64789
550.5342, 11.25786
551.0164, 11.11524
551.4985, 11.47114
551.9806, 11.77987
552.4627, 11.75756
552.9448, 11.52002
553.4269, 11.29551
553.9091, 11.18776
554.3912, 11.18649
554.8733, 11.32495
555.3554, 11.64754
555.8375, 11.79725
556.3196, 11.60137
556.8018, 11.36567
557.2839, 11.27207
557.7660, 11.29479
558.2481, 11.35063
558.7302, 11.01306
559.2123, 11.39287
559.6945, 11.60570
560.1766, 11.66052
560.6587, 11.08407
561.1408, 11.32277
561.6229, 11.23480
562.1050, 11.13343
562.5872, 11.48686
563.0693, 11.00222
563.5514, 11.34844
564.0335, 11.36300
564.5156, 11.52935
564.9977, 11.36700
565.4799, 11.30618
565.9620, 11.57416
566.4441, 11.66008
566.9262, 11.45990
567.4083, 11.63589
567.8904, 11.13978
568.3726, 11.23345
568.8547, 10.99561
569.3368, 10.89505
569.8189, 10.93755
570.3010, 11.03269
570.7831, 11.15443
571.2653, 11.28481
571.7474, 11.42584
572.2295, 11.56787
572.7116, 11.61744
573.1937, 11.51941
573.6758, 11.42853
574.1580, 11.52543
574.6401, 11.74562
575.1222, 11.83337
575.6043, 11.65380
576.0864, 11.46339
576.5685, 11.38086
577.0507, 11.37353
577.5328, 11.40759
578.0149, 11.46963
578.4970, 11.50886
578.9791, 11.46160
579.4612, 11.32199
579.9434, 11.24385
580.4255, 11.28409
580.9076, 11.32062
581.3897, 11.31693
581.8718, 11.30608
582.3539, 11.33947
582.8361, 11.42238
583.3182, 11.49000
583.8003, 11.46239
584.2824, 11.35469
584.7645, 11.27327
585.2466, 11.20999
585.7288, 11.19976
586.2108, 11.33146
586.6929, 11.49283
587.1750, 11.49107
587.6572, 11.25893
588.1393, 11.10111
588.6214, 11.24674
589.1035, 11.50036
589.5856, 11.59600
590.0677, 11.51880
590.5499, 11.40413
591.0320, 11.33573
591.5141, 11.30169
591.9962, 11.25849
592.4783, 11.17195
592.9604, 11.12663
593.4426, 11.15086
593.9247, 11.19333
594.4068, 11.22676
594.8889, 11.24621
595.3710, 11.24849
595.8531, 11.22336
596.3353, 11.19652
596.8174, 11.25266
597.2995, 11.42024
597.7816, 11.49588
598.2637, 11.34120
598.7458, 11.18177
599.2280, 11.26454
599.7101, 11.53351
600.1922, 11.68220
600.6743, 11.51987
601.1564, 11.28122
601.6385, 11.11505
602.1207, 11.03132
602.6028, 11.08159
603.0849, 11.29103
603.5670, 11.54264
604.0491, 11.69058
604.5313, 11.72688
605.0134, 11.70310
605.4955, 11.54665
605.9776, 11.42161
606.4597, 11.41525
606.9418, 11.45474
607.4240, 11.43335
607.9061, 11.32524
608.3882, 11.21111
608.8703, 11.19075
609.3524, 11.25646
609.8345, 11.30058
610.3167, 11.30717
610.7988, 11.32939
611.2809, 11.40548
611.7630, 11.50775
612.2451, 11.60389
612.7272, 11.69455
613.2094, 11.76314
613.6915, 11.83054
614.1736, 11.85591
614.6557, 11.74873
615.1378, 11.52745
615.6199, 11.34037
616.1021, 11.27793
616.5842, 11.31008
617.0663, 11.35301
617.5484, 11.40390
618.0305, 11.47251
618.5126, 11.62285
618.9948, 11.73014
619.4769, 11.68335
619.9590, 11.53799
620.4411, 11.42967
620.9232, 11.42876
621.4053, 11.48472
621.8875, 11.52469
622.3696, 11.54880
622.8517, 11.56802
623.3338, 11.58925
623.8159, 11.59636
624.2980, 11.35905
624.7802, 11.56869
625.2623, 11.68557
625.7444, 11.71466
626.2265, 11.39304
626.7086, 11.52429
627.1907, 11.47406
627.6729, 11.41638
628.1550, 11.61136
628.6371, 11.79228
629.1192, 11.70522
629.6013, 11.36816
630.0834, 11.21998
630.5656, 11.40214
631.0477, 11.54027
631.5298, 11.56646
632.0119, 11.54531
632.4940, 11.50896
632.9761, 11.46789
633.4583, 11.43973
633.9404, 11.44346
634.4225, 11.45896
634.9046, 11.44914
635.3867, 11.41666
635.8688, 11.40477
636.3510, 11.44174
636.8331, 11.46510
637.3152, 11.36530
637.7973, 11.11974
638.2794, 11.05099
638.7615, 11.35792
639.2437, 11.62472
639.7258, 11.60355
640.2079, 11.46851
640.6900, 11.50792
641.1721, 11.77514
641.6542, 12.03608
642.1364, 12.01754
642.6185, 11.74675
643.1006, 11.59034
643.5827, 11.61245
644.0648, 11.60762
644.5469, 11.44937
645.0291, 11.26623
645.5112, 11.16348
645.9933, 11.14971
646.4754, 11.20203
646.9575, 11.38764
647.4396, 11.57895
647.9218, 11.61181
648.4039, 11.51838
648.8860, 11.42198
649.3681, 11.36081
649.8502, 11.16581
650.3323, 11.55720
650.8145, 11.78161
651.2966, 11.84801
651.7787, 11.28314
652.2608, 11.53342
652.7429, 11.45703
653.2250, 11.27015
653.7072, 11.13855
654.1893, 11.06236
654.6714, 11.09692
655.1535, 11.41878
655.6356, 11.89227
656.1177, 12.00900
656.5999, 11.71390
657.0820, 11.40293
657.5641, 11.22522
658.0462, 11.16725
658.5283, 11.24623
659.0104, 11.50491
659.4926, 11.65875
659.9747, 11.54960
660.4568, 11.43610
660.9389, 11.49760
661.4210, 11.67801
661.9031, 11.86379
662.3853, 12.00739
662.8674, 12.08337
663.3495, 12.00412
663.8316, 11.74602
664.3137, 11.73379
664.7958, 12.12464
665.2780, 12.47507
665.7601, 12.61731
666.2422, 12.59914
666.7243, 12.41100
667.2064, 12.02471
667.6885, 11.72921
668.1707, 11.76267
668.6528, 11.88864
669.1349, 11.80459
669.6170, 11.54884
670.0991, 11.35573
670.5812, 11.33633
671.0634, 11.41965
671.5455, 11.49284
672.0276, 11.57062
672.5097, 11.58019
672.9918, 11.47907
673.4739, 11.35404
673.9561, 11.16143
674.4382, 10.99063
674.9203, 10.96096
675.4024, 11.10209
675.8845, 11.31977
676.3666, 11.60270
676.8488, 11.88925
677.3309, 12.04112
677.8130, 12.05239
678.2951, 11.99027
678.7772, 11.87470
679.2593, 11.72165
679.7415, 11.54107
680.2236, 11.27042
680.7057, 11.18415
681.1878, 11.47427
681.6699, 11.73835
682.1520, 11.76483
682.6342, 11.65917
683.1163, 11.59100
683.5984, 11.61165
684.0805, 11.65616
684.5626, 11.62255
685.0447, 11.54370
685.5269, 11.64308
686.0090, 11.97544
686.4911, 12.19288
686.9732, 12.09604
687.4553, 11.84625
687.9374, 11.68927
688.4196, 11.62474
688.9017, 11.61478
689.3838, 11.66046
689.8659, 11.75301
690.3480, 11.96950
690.8301, 12.20481
691.3123, 12.26713
691.7944, 12.10276
692.2765, 11.84744
692.7586, 11.63819
693.2407, 11.47571
693.7228, 11.37474
694.2050, 11.33821
694.6871, 11.35490
695.1692, 11.45572
695.6513, 11.58328
696.1334, 11.67608
696.6155, 11.73362
697.0977, 11.78990
697.5798, 11.83552
698.0619, 11.90217
698.5440, 12.04440
699.0261, 12.21889
699.5082, 12.34290
699.9904, 12.39130
700.4725, 12.37553
700.9546, 12.29672
701.4367, 12.16158
701.9188, 12.06586
702.4009, 11.99231
702.8831, 11.99402
703.3652, 12.17046
703.8473, 12.36285
704.3294, 12.45146
704.8115, 12.44215
705.2936, 12.41459
705.7758, 12.40669
706.2579, 12.38608
706.7400, 12.25992
707.2221, 12.11160
707.7042, 12.17063
708.1863, 12.47821
708.6685, 12.79484
709.1506, 12.89752
709.6327, 12.81602
710.1148, 12.77197
710.5969, 12.79520
711.0790, 12.80150
711.5612, 12.74199
712.0433, 12.69647
712.5254, 12.73139
713.0075, 12.82505
713.4896, 12.90486
713.9717, 12.94635
714.4539, 12.95862
714.9360, 12.91920
715.4181, 12.86241
715.9002, 12.87476
716.3823, 12.96740
716.8644, 13.08620
717.3466, 13.20247
717.8287, 13.29921
718.3108, 13.31244
718.7929, 13.20603
719.2750, 13.08256
719.7571, 12.81315
720.2393, 12.65981
720.7214, 12.88746
721.2035, 13.29687
721.6856, 13.50504
722.1677, 13.37166
722.6498, 13.09994
723.1320, 12.77750
723.6141, 12.46252
724.0962, 12.27986
724.5783, 12.23487
725.0604, 12.28780
725.5425, 12.44230
726.0247, 12.60512
726.5068, 12.56981
726.9889, 12.22599
727.4710, 12.02105
727.9531, 12.05613
728.4352, 12.11217
728.9174, 12.14793
729.3995, 12.14906
729.8816, 12.07719
730.3637, 11.92896
730.8458, 11.81832
731.3279, 11.87261
731.8101, 11.99035
732.2922, 11.98841
732.7743, 11.88445
733.2564, 11.81195
733.7385, 11.81839
734.2206, 11.88538
734.7028, 12.00801
735.1849, 12.19812
735.6670, 12.26286
736.1491, 12.03426
736.6312, 11.89536
737.1133, 11.95141
737.5955, 12.08835
738.0776, 12.25806
738.5597, 12.42432
739.0418, 12.47661
739.5239, 12.29093
740.0060, 12.04843
740.4882, 11.98161
740.9703, 12.03090
741.4524, 11.99768
741.9345, 11.84125
742.4166, 11.69168
742.8987, 11.65706
743.3809, 11.71946
743.8630, 11.79391
744.3451, 11.91899
744.8272, 11.98420
745.3093, 11.92211
745.7914, 11.86252
746.2736, 11.87232
746.7557, 11.93676
747.2378, 12.02201
747.7199, 12.12273
748.2020, 12.21958
748.6841, 12.33492
749.1663, 12.42144
749.6484, 12.36419
750.1305, 12.17832
750.6126, 12.01335
751.0947, 11.94507
751.5768, 11.94275
752.0590, 11.94850
752.5411, 11.95063
753.0232, 12.02320
753.5053, 12.29486
753.9874, 12.46187
754.4695, 12.34342
754.9517, 12.13501
755.4338, 12.06143
755.9159, 12.14215
756.3980, 12.19106
756.8801, 12.06076
757.3622, 11.90993
757.8444, 11.90936
758.3265, 12.00739
758.8086, 12.08737
759.2907, 12.11539
759.7728, 12.09003
760.2549, 11.99279
760.7371, 11.85144
761.2192, 11.85891
761.7013, 12.09839
762.1834, 12.26279
762.6655, 12.27520
763.1476, 12.22108
763.6298, 12.13557
764.1119, 12.03281
764.5940, 11.94222
765.0761, 11.83483
765.5582, 11.81297
766.0403, 12.02193
766.5225, 12.27872
767.0046, 12.38270
767.4867, 12.33542
767.9688, 12.21864
768.4509, 12.07183
768.9330, 11.92446
769.4152, 11.79913
769.8973, 11.68981
770.3794, 11.77731
770.8615, 12.16284
771.3436, 12.47800
771.8257, 12.54304
772.3079, 12.46110
772.7900, 12.37290
773.2721, 12.27740
773.7542, 12.19198
774.2363, 12.08706
774.7184, 12.02817
775.2006, 12.11507
775.6827, 12.23459
776.1648, 12.22253
776.6469, 12.06525
777.1290, 11.87736
777.6111, 11.72916
778.0933, 11.63774
778.5754, 11.66138
779.0575, 11.79601
779.5396, 11.94063
780.0217, 12.09205
780.5038, 12.18602
780.9860, 12.13308
781.4681, 11.99022
781.9502, 12.01233
782.4323, 12.38268
782.9144, 12.61081
783.3965, 12.66327
783.8787, 12.58076
784.3608, 12.26103
784.8429, 11.86097
785.3250, 11.65214
785.8071, 11.72054
786.2892, 11.87925
786.7714, 12.00816
787.2535, 12.10278
787.7356, 12.15687
788.2177, 12.16953
788.6998, 12.11628
789.1819, 11.97870
789.6641, 11.86366
790.1462, 11.91608
790.6283, 12.13488
791.1104, 12.26969
791.5925, 12.31224
792.0746, 12.28168
792.5568, 12.06950
793.0389, 11.88406
793.5210, 11.88512
794.0031, 12.03964
794.4852, 12.17321
794.9673, 11.55524
795.4495, 11.99694
795.9316, 12.27164
796.4137, 12.38833
796.8958, 11.87376
797.3779, 12.17434
797.8600, 12.14823
798.3422, 12.10876
798.8243, 12.52406
799.3064, 12.10130
799.7885, 11.85085
800.2706, 11.60765
800.7527, 11.97698
801.2349, 12.35458
801.7170, 12.52280
802.1991, 12.56227
802.6812, 12.57801
803.1633, 12.57251
803.6454, 12.49991
804.1276, 12.24109
804.6097, 12.05520
805.0918, 12.10257
805.5739, 12.22737
806.0560, 12.23853
806.5381, 12.15506
807.0203, 12.15794
807.5024, 12.37291
807.9845, 12.65830
808.4666, 12.84684
808.9487, 12.93938
809.4308, 12.91823
809.9130, 12.78014
810.3951, 12.61424
810.8772, 12.45759
811.3593, 12.33694
811.8414, 12.31131
812.3235, 12.40840
812.8057, 12.49671
813.2878, 12.59233
813.7699, 12.65820
814.2520, 12.64548
814.7341, 12.62451
815.2162, 12.72073
815.6984, 12.91525
816.1805, 12.95660
816.6626, 12.55249
817.1447, 12.15570
817.6268, 12.17187
818.1089, 12.38463
818.5911, 12.45404
819.0732, 12.34233
819.5553, 12.17346
820.0374, 12.01082
820.5195, 11.93083
821.0016, 12.18318
821.4838, 12.78549
821.9659, 13.03018
822.4480, 12.75796
822.9301, 12.49554
823.4122, 12.53448
823.8943, 12.71634
824.3765, 12.76469
824.8586, 12.65510
825.3407, 12.53949
825.8228, 12.35196
826.3049, 12.24515
826.7870, 12.34849
827.2692, 12.50672
827.7513, 12.54845
828.2334, 12.47356
828.7155, 12.39839
829.1976, 12.36782
829.6797, 12.39662
830.1619, 12.58137
830.6440, 12.82129
831.1261, 12.83451
831.6082, 12.61183
832.0903, 12.38797
832.5724, 12.28930
833.0546, 12.31598
833.5367, 12.51060
834.0188, 12.93009
834.5009, 13.10128
834.9830, 12.88289
835.4651, 12.70276
835.9473, 12.77474
836.4294, 12.91244
836.9115, 12.89530
837.3936, 12.73206
837.8757, 12.60838
838.3578, 12.54549
838.8400, 12.53629
839.3221, 12.64504
839.8042, 12.75750
840.2863, 12.71384
840.7684, 12.56528
841.2505, 12.54806
841.7327, 12.80734
842.2148, 12.84245
842.6969, 13.02419
843.1790, 13.11315
843.6611, 13.11434
844.1432, 12.76482
844.6254, 12.86815
845.1075, 12.79000
845.5896, 12.97954
846.0717, 12.91847
846.5538, 12.64720
847.0359, 12.53939
847.5181, 12.72672
848.0002, 12.81885
848.4823, 12.62937
848.9644, 12.42421
849.4465, 12.38220
849.9286, 12.47168
850.4108, 12.60256
850.8929, 12.82346
851.3750, 12.94067
851.8571, 12.80269
852.3392, 12.60782
852.8214, 12.49730
853.3035, 12.46450
853.7856, 12.47912
854.2677, 12.52659
854.7498, 12.57158
855.2319, 12.55687
855.7141, 12.52795
856.1962, 12.64710
856.6783, 12.87513
857.1604, 12.89646
857.6425, 12.62057
858.1246, 12.32976
858.6068, 12.26566
859.0889, 12.36415
859.5710, 12.37285
860.0531, 12.21189
860.5352, 12.17855
861.0173, 12.40616
861.4995, 12.60004
861.9816, 12.61088
862.4637, 12.52367
862.9458, 12.43049
863.4279, 12.33542
863.9100, 12.28790
864.3922, 12.35671
864.8743, 12.41161
865.3564, 12.33470
865.8385, 12.23560
866.3206, 12.27602
866.8027, 12.43752
867.2849, 12.56050
867.7670, 12.55196
868.2491, 12.47384
868.7312, 12.38520
869.2133, 12.29441
869.6954, 12.22101
870.1776, 12.16766
870.6597, 12.13924
871.1418, 12.13626
871.6239, 12.17576
872.1060, 12.29729
872.5881, 12.49940
873.0703, 12.59073
873.5524, 12.49791
874.0345, 12.49200
874.5166, 12.76937
874.9987, 12.99539
875.4808, 12.82359
875.9630, 12.38563
876.4451, 12.06224
876.9272, 11.88378
877.4093, 11.80219
877.8914, 11.86971
878.3735, 11.96726
878.8557, 12.01214
879.3378, 12.04271
879.8199, 12.16747
880.3020, 12.38896
880.7841, 12.50560
881.2662, 12.30108
881.7484, 11.99494
882.2305, 11.82756
882.7126, 11.77841
883.1947, 11.84976
883.6768, 12.01309
884.1589, 12.07773
884.6411, 11.90678
885.1232, 11.65703
885.6053, 11.68904
886.0874, 12.01515
886.5695, 12.10538
887.0516, 11.88216
887.5338, 11.69924
888.0159, 11.70247
888.4980, 11.78591
888.9801, 11.82773
889.4622, 11.82814
889.9443, 11.84765
890.4265, 11.90413
890.9086, 11.95378
891.3907, 12.05046
891.8728, 12.08302
892.3549, 11.91183
892.8370, 11.64672
893.3192, 11.50907
893.8013, 11.55845
894.2834, 11.63195
894.7655, 11.68512
895.2476, 11.69633
895.7297, 11.58641
896.2119, 11.44634
896.6940, 11.45727
897.1761, 11.62632
897.6582, 11.78614
898.1403, 11.82951
898.6224, 11.77590
899.1046, 11.60030
899.5867, 11.34920
900.0688, 11.23932
900.5509, 11.28806
901.0330, 11.37560
901.5151, 11.45351
901.9973, 11.49778
902.4794, 11.46272
902.9615, 11.34820
903.4436, 11.27963
903.9257, 11.23788
904.4078, 11.30105
904.8900, 11.57884
905.3721, 11.84714
905.8542, 11.95379
906.3363, 11.91288
906.8184, 11.74638
907.3005, 11.33081
907.7827, 11.09748
908.2648, 11.26654
908.7469, 11.44144
909.2290, 11.42677
909.7111, 11.31008
910.1932, 11.16802
910.6754, 11.03679
911.1575, 11.01949
911.6396, 11.27019
912.1217, 11.49697
912.6038, 11.39318
913.0859, 11.15931
913.5681, 11.07303
914.0502, 11.13560
914.5323, 11.24439
915.0144, 11.35211
915.4965, 11.40887
915.9786, 11.31583
916.4607, 11.12974
916.9428, 11.05589
917.4249, 11.08838
917.9070, 11.16244
918.3892, 11.26754
918.8713, 11.36369
919.3534, 11.43567
919.8355, 11.44622
920.3176, 10.93604
920.7997, 11.12591
921.2819, 11.22301
921.7640, 11.23234
922.2461, 10.89096
922.7282, 11.20228
923.2103, 11.12049
923.6924, 11.02889
924.1746, 10.93116
924.6567, 10.92671
925.1388, 11.11207
925.6209, 11.26017
926.1030, 11.18712
926.5851, 11.14607
927.0673, 11.35265
927.5494, 11.46646
928.0315, 11.49249
928.5136, 11.16782
928.9957, 11.29601
929.4778, 11.24271
929.9600, 11.18197
930.4421, 11.20578
930.9242, 11.30157
931.4063, 11.22834
931.8884, 11.00479
932.3705, 10.86421
932.8527, 10.94612
933.3348, 11.09555
933.8169, 11.11143
934.2990, 11.03607
934.7811, 10.95691
935.2632, 10.88994
935.7454, 10.93836
936.2275, 11.13698
936.7096, 11.29008
937.1917, 11.18308
937.6738, 10.90929
938.1559, 10.85777
938.6381, 11.06980
939.1202, 11.15971
939.6023, 11.06308
940.0844, 10.92147
940.5665, 10.77360
941.0486, 10.66665
941.5308, 10.69847
942.0129, 10.89254
942.4950, 10.96029
942.9771, 10.61981
943.4592, 10.42353
943.9413, 10.67207
944.4235, 10.82786
944.9056, 10.89584
945.3877, 10.61313
945.8698, 10.78328
946.3519, 10.77195
946.8340, 10.75316
947.3162, 10.98706
947.7983, 10.75535
948.2804, 11.12245
948.7625, 11.22096
949.2446, 11.06263
949.7267, 10.73287
950.2089, 10.58730
950.6910, 10.84134
951.1731, 11.11949
951.6552, 11.08205
952.1373, 10.93499
952.6194, 10.94265
953.1016, 11.05909
953.5837, 11.12364
954.0658, 11.09563
954.5479, 11.05693
955.0300, 11.07493
955.5121, 11.12167
955.9943, 11.17066
956.4764, 11.20446
956.9585, 11.11953
957.4406, 10.91779
957.9227, 10.77737
958.4048, 10.78158
958.8870, 10.86824
959.3691, 10.97924
959.8512, 11.09528
960.3333, 11.00642
960.8154, 10.65649
961.2975, 10.55567
961.7797, 10.87474
962.2618, 11.18381
962.7439, 11.19443
963.2260, 11.02153
963.7081, 10.90343
964.1902, 10.84469
964.6724, 10.81476
965.1545, 10.81047
965.6366, 10.84060
966.1187, 10.90949
966.6008, 11.01174
967.0829, 11.22576
967.5651, 11.46735
968.0472, 11.45410
968.5293, 11.03093
969.0114, 10.72532
969.4935, 10.62230
969.9756, 10.63338
970.4578, 10.81233
970.9399, 11.01975
971.4220, 11.09478
971.9041, 11.05064
972.3862, 11.03279
972.8683, 11.12246
973.3505, 11.17365
973.8326, 11.06422
974.3147, 10.92662
974.7968, 10.86915
975.2789, 10.87569
975.7610, 10.93518
976.2432, 11.02299
976.7253, 11.02071
977.2074, 10.77643
977.6895, 10.54241
978.1716, 10.69162
978.6537, 10.99103
979.1359, 11.00596
979.6180, 10.77979
980.1001, 10.61914
980.5822, 10.63809
981.0643, 10.73692
981.5464, 10.83849
982.0286, 10.92330
982.5107, 10.92388
982.9928, 10.86129
983.4749, 10.82402
983.9570, 10.82779
984.4391, 10.81450
984.9213, 10.55425
985.4034, 10.76052
985.8855, 10.87401
986.3676, 10.89972
986.8497, 10.57472
987.3318, 10.70259
987.8140, 10.64897
988.2961, 10.58791
988.7782, 10.77951
989.2603, 10.50553
989.7424, 10.69312
990.2245, 10.69647
990.7067, 10.60747
991.1888, 10.61362
991.6709, 10.69280
992.1530, 10.79310
992.6351, 10.94716
993.1172, 11.05060
993.5994, 10.98276
994.0815, 10.81374
994.5636, 10.77275
995.0457, 10.96044
995.5278, 10.99133
996.0099, 10.57838
996.4921, 10.38433
996.9742, 10.85295
997.4563, 11.37397
997.9384, 11.33924
998.4205, 10.91484
998.9026, 10.74615
999.3848, 11.03749
999.8669, 11.25752
1000.349, 11.30837
1000.831, 11.26080
1001.313, 11.06672
1001.795, 10.84915
1002.277, 10.75522
1002.760, 10.76812
1003.242, 10.74177
1003.724, 10.59507
1004.206, 10.49529
1004.688, 10.56819
1005.170, 10.66855
1005.652, 10.64023
1006.134, 10.58747
1006.617, 10.71561
1007.099, 10.94962
1007.581, 11.09085
1008.063, 11.14430
1008.545, 10.84704
1009.027, 11.00265
1009.509, 10.97677
1009.991, 10.94345
1010.473, 11.16280
1010.956, 10.91660
1011.438, 10.61790
1011.920, 10.48103
1012.402, 10.55800
1012.884, 10.72646
1013.366, 10.89934
1013.848, 11.02567
1014.330, 10.93274
1014.813, 10.70038
1015.295, 10.68833
1015.777, 10.97528
1016.259, 11.13441
1016.741, 11.34344
1017.223, 11.45971
1017.705, 11.48819
1018.187, 11.16597
1018.669, 11.29662
1019.152, 11.24577
1019.634, 11.18748
1020.116, 11.07881
1020.598, 11.05561
1021.080, 10.99531
1021.562, 10.93991
1022.044, 11.04738
1022.526, 11.29448
1023.008, 11.42511
1023.491, 11.41423
1023.973, 11.35156
1024.455, 11.26068
1024.937, 11.27725
1025.419, 11.60238
1025.901, 12.12457
1026.383, 12.29085
1026.865, 12.07120
1027.348, 11.95457
1027.830, 11.99744
1028.312, 12.09628
1028.794, 12.21733
1029.276, 12.32871
1029.758, 12.37747
1030.240, 12.38188
1030.722, 12.49225
1031.204, 12.73167
1031.687, 12.96942
1032.169, 13.18511
1032.651, 13.43000
1033.133, 13.75243
1033.615, 14.06652
1034.097, 14.22886
1034.579, 14.26014
1035.061, 14.49747
1035.544, 15.07248
1036.026, 15.50028
1036.508, 15.65617
1036.990, 15.82124
1037.472, 16.13667
1037.954, 16.51447
1038.436, 16.82142
1038.918, 17.06327
1039.401, 17.44150
1039.883, 18.07318
1040.365, 18.61923
1040.847, 19.08093
1041.329, 19.42437
1041.811, 19.57346
1042.293, 19.64115
1042.775, 19.80314
1043.257, 20.05275
1043.740, 20.13598
1044.222, 19.98820
1044.704, 19.77446
1045.186, 19.55833
1045.668, 19.21285
1046.150, 18.60716
1046.632, 17.89001
1047.114, 17.25302
1047.596, 16.69114
1048.079, 16.05244
1048.561, 15.21836
1049.043, 14.46825
1049.525, 13.76407
1050.007, 13.23404
1050.489, 13.03898
1050.971, 12.98323
1051.453, 12.85205
1051.936, 12.63559
1052.418, 12.39170
1052.900, 12.03095
1053.382, 11.81275
1053.864, 11.87243
1054.346, 11.98619
1054.828, 12.14774
1055.310, 12.22543
1055.792, 11.97613
1056.275, 11.46769
1056.757, 11.17360
1057.239, 11.32176
1057.721, 11.43223
1058.203, 11.29573
1058.685, 11.17780
1059.167, 11.28260
1059.649, 11.44673
1060.131, 11.49127
1060.614, 11.40679
1061.096, 11.23477
1061.578, 10.90573
1062.060, 10.70647
1062.542, 10.84081
1063.024, 11.01126
1063.506, 11.07004
1063.988, 11.05802
1064.471, 11.00095
1064.953, 10.92573
1065.435, 10.90338
1065.917, 10.96930
1066.399, 11.02925
1066.881, 11.03070
1067.363, 11.03336
1067.845, 11.16988
1068.328, 11.25338
1068.810, 10.95118
1069.292, 10.41667
1069.774, 10.18131
1070.256, 10.43224
1070.738, 10.74463
1071.220, 11.06143
1071.702, 11.23888
1072.184, 11.06616
1072.667, 10.81018
1073.149, 10.77144
1073.631, 10.88996
1074.113, 10.93305
1074.595, 10.83378
1075.077, 10.73320
1075.559, 10.67068
1076.041, 10.65340
1076.523, 10.72542
1077.006, 10.81078
1077.488, 10.81178
1077.970, 10.77287
1078.452, 10.82741
1078.934, 11.00630
1079.416, 11.11514
1079.898, 10.98058
1080.380, 10.86544
1080.862, 10.97049
1081.345, 11.09796
1081.827, 11.02821
1082.309, 10.86087
1082.791, 10.81265
1083.273, 10.91818
1083.755, 11.02275
1084.237, 11.08102
1084.719, 11.09679
1085.202, 11.01530
1085.684, 10.94699
1086.166, 11.04070
1086.648, 11.17777
1087.130, 11.14429
1087.612, 10.93427
1088.094, 10.75978
1088.576, 10.69022
1089.058, 10.68736
1089.541, 10.79492
1090.023, 10.89979
1090.505, 10.95420
1090.987, 10.93718
1091.469, 10.76241
1091.951, 10.48506
1092.433, 10.36723
1092.915, 10.54952
1093.397, 10.71994
1093.880, 10.82117
1094.362, 10.80069
1094.844, 10.45704
1095.326, 10.10195
1095.808, 10.10703
1096.290, 10.40357
1096.772, 10.70810
1097.254, 10.98539
1097.737, 11.10062
1098.219, 10.85149
1098.701, 10.62804
1099.183, 10.63135
1099.665, 10.71607
1100.147, 10.81028
1100.629, 10.86037
1101.111, 10.72956
1101.594, 10.36895
1102.076, 10.19667
1102.558, 10.53180
1103.040, 10.78233
1103.522, 10.63510
1104.004, 10.45968
1104.486, 10.51795
1104.968, 10.72403
1105.450, 10.96598
1105.932, 11.22255
1106.415, 11.32178
1106.897, 11.12046
1107.379, 10.92362
1107.861, 10.79690
1108.343, 10.67988
1108.825, 10.45522
1109.307, 10.27973
1109.789, 10.41080
1110.272, 10.79865
1110.754, 11.03886
1111.236, 11.07084
1111.718, 10.99510
1112.200, 10.69409
1112.682, 10.44899
1113.164, 10.31431
1113.646, 10.31085
1114.129, 10.53469
1114.611, 10.90138
1115.093, 11.13451
1115.575, 11.22006
1116.057, 11.20224
1116.539, 10.98199
1117.021, 10.80849
1117.503, 10.75009
1117.985, 10.72723
1118.468, 10.68021
1118.950, 10.63876
1119.432, 10.64959
1119.914, 10.70801
1120.396, 10.89565
1120.878, 11.41442
1121.360, 11.60521
1121.842, 11.19071
1122.324, 10.81075
1122.807, 10.79377
1123.289, 10.94696
1123.771, 11.04152
1124.253, 11.08087
1124.735, 11.09956
1125.217, 11.11250
1125.699, 11.04497
1126.181, 10.86825
1126.664, 10.67734
1127.146, 10.47173
1127.628, 10.35742
1128.110, 10.45457
1128.592, 10.68546
1129.074, 10.66675
1129.556, 10.25551
1130.038, 11.10416
1130.521, 11.25636
1131.003, 11.31591
1131.485, 11.28770
1131.967, 10.90876
1132.449, 10.98270
1132.931, 10.87514
1133.413, 10.76015
1133.895, 10.71544
1134.377, 10.69924
1134.859, 11.00764
1135.342, 11.19867
1135.824, 11.21371
1136.306, 11.10716
1136.788, 10.89891
1137.270, 10.69858
1137.752, 10.61284
1138.234, 10.64041
1138.716, 10.86367
1139.199, 11.19800
1139.681, 11.22526
1140.163, 10.97927
1140.645, 10.78829
1141.127, 10.74851
1141.609, 10.82867
1142.091, 11.01935
1142.573, 11.23608
1143.056, 11.38441
1143.538, 11.45987
1144.020, 11.39634
1144.502, 11.26638
1144.984, 11.30206
1145.466, 11.47515
1145.948, 11.48769
1146.430, 11.21783
1146.912, 10.96903
1147.395, 11.05004
1147.877, 11.24050
1148.359, 11.36680
1148.841, 11.39228
1149.323, 11.16997
1149.805, 10.83356
1150.287, 10.70331
1150.769, 10.82398
1151.251, 10.93150
1151.734, 10.86293
1152.216, 10.81131
1152.698, 10.95611
1153.180, 11.11625
1153.662, 11.11578
1154.144, 11.05565
1154.626, 11.08944
1155.108, 11.19648
1155.591, 11.25530
1156.073, 11.23385
1156.555, 11.16217
1157.037, 10.95001
1157.519, 10.82388
1158.001, 10.97105
1158.483, 11.14568
1158.965, 11.15690
1159.448, 11.06592
1159.930, 10.96678
1160.412, 10.87010
1160.894, 10.86789
1161.376, 11.15149
1161.858, 11.24349
1162.340, 10.86437
1162.822, 10.59583
1163.304, 10.74965
1163.786, 11.00626
1164.269, 11.06598
1164.751, 10.98720
1165.233, 10.97407
1165.715, 11.04749
1166.197, 11.09547
1166.679, 11.11686
1167.161, 11.11481
1167.643, 11.08536
1168.126, 11.03903
1168.608, 10.96621
1169.090, 10.91934
1169.572, 10.99306
1170.054, 11.16084
1170.536, 11.20996
1171.018, 11.13499
1171.500, 11.05900
1171.983, 10.99057
1172.465, 10.97906
1172.947, 11.04530
1173.429, 11.08873
1173.911, 11.02373
1174.393, 10.89010
1174.875, 10.70177
1175.357, 10.51690
1175.839, 10.62108
1176.322, 10.93519
1176.804, 11.11045
1177.286, 11.10470
1177.768, 11.06586
1178.250, 11.06272
1178.732, 11.06943
1179.214, 11.07082
1179.696, 11.05541
1180.178, 10.97379
1180.661, 10.88781
1181.143, 10.91213
1181.625, 11.00745
1182.107, 11.09667
1182.589, 11.14617
1183.071, 11.08088
1183.553, 10.80787
1184.035, 10.65024
1184.518, 10.94501
1185.000, 11.27456
1185.482, 11.38395
1185.964, 11.34141
1186.446, 11.14086
1186.928, 10.88542
1187.410, 10.79411
1187.892, 10.90792
1188.375, 10.98504
1188.857, 10.93615
1189.339, 10.89476
1189.821, 10.85437
1190.303, 10.86818
1190.785, 11.06446
1191.267, 11.24504
1191.749, 11.13397
1192.231, 10.83356
1192.714, 10.75133
1193.196, 10.95890
1193.678, 11.10650
1194.160, 11.16752
1194.642, 11.25851
1195.124, 11.45807
1195.606, 11.50256
1196.088, 11.17591
1196.570, 10.79323
1197.053, 10.81509
1197.535, 11.14954
1198.017, 11.36772
1198.499, 11.46852
1198.981, 11.37949
1199.463, 11.10885
1199.945, 10.96786
1200.427, 11.03923
1200.910, 11.09513
1201.392, 10.96924
1201.874, 10.82873
1202.356, 10.95737
1202.838, 11.21799
1203.320, 11.36928
1203.802, 11.39612
1204.284, 11.16842
1204.766, 10.79321
1205.249, 10.66303
1205.731, 10.86692
1206.213, 11.03262
1206.695, 10.89650
1207.177, 10.73061
1207.659, 10.70495
1208.141, 10.78020
1208.623, 10.99439
1209.105, 11.23587
1209.588, 11.40204
1210.070, 11.46850
1210.552, 11.39503
1211.034, 11.15340
1211.516, 10.96994
1211.998, 10.95840
1212.480, 10.91955
1212.962, 10.67306
1213.445, 10.54233
1213.927, 10.84167
1214.409, 11.22701
1214.891, 11.31923
1215.373, 11.17694
1215.855, 11.04597
1216.337, 10.88651
1216.819, 10.94037
1217.302, 11.28564
1217.784, 11.54656
1218.266, 11.65199
1218.748, 11.61387
1219.230, 11.40760
1219.712, 11.21964
1220.194, 11.31511
1220.676, 11.58343
1221.158, 11.69760
1221.641, 11.66039
1222.123, 11.38926
1222.605, 10.96423
1223.087, 10.84957
1223.569, 11.10026
1224.051, 11.25045
1224.533, 11.03211
1225.015, 10.79392
1225.497, 10.99626
1225.980, 11.26092
1226.462, 11.03174
1226.944, 10.68078
1227.426, 10.77216
1227.908, 11.11141
1228.390, 11.20740
1228.872, 11.01033
1229.354, 10.84311
1229.837, 10.80176
1230.319, 10.84062
1230.801, 11.02183
1231.283, 11.17876
1231.765, 11.24672
1232.247, 11.25697
1232.729, 11.23035
1233.211, 11.16395
1233.693, 11.01971
1234.176, 10.80540
1234.658, 10.75888
1235.140, 10.94497
1235.622, 11.10813
1236.104, 11.24668
1236.586, 11.33063
1237.068, 11.34964
1237.550, 11.31254
1238.032, 11.21480
1238.515, 11.11192
1238.997, 11.10498
1239.479, 11.16724
1239.961, 11.17099
1240.443, 11.14411
1240.925, 11.27666
1241.407, 11.51657
1241.889, 11.49290
1242.372, 11.15257
1242.854, 10.93769
1243.336, 11.14063
1243.818, 11.42992
1244.300, 11.55013
1244.782, 11.55035
1245.264, 11.40263
1245.746, 11.22476
1246.229, 11.13455
1246.711, 11.13319
1247.193, 11.24722
1247.675, 11.45270
1248.157, 11.50026
1248.639, 11.22966
1249.121, 10.99867
1249.603, 10.82069
1250.085, 10.76034
1250.568, 10.90988
1251.050, 11.09180
1251.532, 11.20134
1252.014, 11.26091
1252.496, 11.30880
1252.978, 11.34308
1253.460, 11.33677
1253.942, 11.28458
1254.424, 11.23633
1254.907, 11.19287
1255.389, 11.25662
1255.871, 11.45266
1256.353, 11.60662
1256.835, 11.60920
1257.317, 11.46989
1257.799, 11.07649
1258.281, 10.67314
1258.764, 10.81697
1259.246, 11.20201
1259.728, 11.29352
1260.210, 11.14467
1260.692, 10.93724
1261.174, 10.75288
1261.656, 10.73225
1262.138, 10.96706
1262.620, 11.17370
1263.103, 11.17433
1263.585, 11.18059
1264.067, 11.36242
1264.549, 11.50202
1265.031, 11.32230
1265.513, 11.09007
1265.995, 11.24830
1266.477, 11.69869
1266.959, 11.91731
1267.442, 11.86026
1267.924, 11.73370
1268.406, 11.50153
1268.888, 11.37147
1269.370, 11.39059
1269.852, 11.45875
1270.334, 11.53118
1270.816, 11.58064
1271.299, 11.57575
1271.781, 11.53506
1272.263, 11.48037
1272.745, 11.42675
1273.227, 11.42802
1273.709, 11.45549
1274.191, 11.43423
1274.673, 11.36435
1275.156, 11.26575
1275.638, 11.15365
1276.120, 11.14798
1276.602, 11.42048
1277.084, 11.62752
1277.566, 11.47734
1278.048, 11.35503
1278.530, 11.60372
1279.012, 11.89389
1279.495, 11.80146
1279.977, 11.52203
1280.459, 11.59235
1280.941, 12.02281
1281.423, 12.16469
1281.905, 11.92010
1282.387, 11.75719
1282.869, 11.71913
1283.351, 11.68901
1283.834, 11.63261
1284.316, 11.56969
1284.798, 11.50896
1285.280, 11.48581
1285.762, 11.54318
1286.244, 11.68738
##END=



