##NAMES=Roubaultite
##RRUFFID=R080131
##IDEAL CHEMISTRY=Cu^2+^_2_O_2_(U^6+^O_2_)_3_(CO_3_)_2_(OH)_2_&#183;4H_2_O
##LOCALITY=KOV mine, Kamoto, Shaba, Democratic Republic of Congo
##OWNER=RRUFF
##SOURCE=William W. Pinch
##DESCRIPTION=Lime green, granular, associated with pale yellow acicular uranophane
##STATUS=The identification of this mineral has been confirmed by single-crystal X-ray diffraction.
##URL=rruff.info/R080131
90.52570, 0.0000000E+00
91.00781, 134.4017
91.48993, 128.3855
91.97205, 125.9840
92.45416, 128.1771
92.93628, 133.9173
93.41840, 140.9650
93.90051, 148.9130
94.38263, 158.0588
94.86475, 168.9765
95.34686, 181.6646
95.82898, 195.9971
96.31110, 211.3874
96.79321, 228.0022
97.27533, 247.2471
97.75745, 269.2031
98.23956, 293.7986
98.72168, 319.7461
99.20380, 346.3353
99.68591, 375.6666
100.1680, 410.1876
100.6501, 449.9423
101.1323, 493.1560
101.6144, 538.4990
102.0965, 585.6384
102.5786, 638.7479
103.0607, 698.5621
103.5428, 764.0710
104.0250, 835.5063
104.5071, 913.9229
104.9892, 995.4875
105.4713, 1078.553
105.9534, 1164.223
106.4355, 1248.758
106.9177, 1334.330
107.3998, 1418.851
107.8819, 1498.755
108.3640, 1573.835
108.8461, 1643.553
109.3282, 1708.500
109.8104, 1761.328
110.2925, 1816.344
110.7746, 1871.823
111.2567, 1928.295
111.7388, 1992.399
112.2209, 2065.174
112.7031, 2144.877
113.1852, 2231.206
113.6673, 2326.082
114.1494, 2424.962
114.6315, 2527.371
115.1136, 2634.199
115.5958, 2743.442
116.0779, 2857.583
116.5600, 2972.995
117.0421, 3085.125
117.5242, 3195.523
118.0063, 3301.187
118.4885, 3401.137
118.9706, 3494.691
119.4527, 3585.645
119.9348, 3676.440
120.4169, 3765.698
120.8990, 3852.353
121.3812, 3936.672
121.8633, 4017.166
122.3454, 4090.287
122.8275, 4153.843
123.3096, 4215.686
123.7917, 4281.084
124.2739, 4350.063
124.7560, 4422.695
125.2381, 4500.053
125.7202, 4581.295
126.2023, 4663.561
126.6844, 4746.111
127.1666, 4830.605
127.6487, 4918.635
128.1308, 5010.681
128.6129, 5107.037
129.0950, 5210.081
129.5771, 5318.853
130.0593, 5430.553
130.5414, 5544.158
131.0235, 5659.247
131.5056, 5768.367
131.9877, 5849.209
132.4698, 5902.130
132.9520, 5957.873
133.4341, 6016.396
133.9162, 6074.749
134.3983, 6133.094
134.8804, 6190.806
135.3625, 6242.400
135.8447, 6286.963
136.3268, 6329.019
136.8089, 6375.272
137.2910, 6426.311
137.7731, 6479.281
138.2552, 6533.185
138.7374, 6587.313
139.2195, 6645.573
139.7016, 6708.750
140.1837, 6775.694
140.6658, 6843.083
141.1479, 6911.286
141.6301, 6979.880
142.1122, 7050.746
142.5943, 7129.195
143.0764, 7196.593
143.5585, 7255.938
144.0406, 7304.273
144.5228, 7332.760
145.0049, 7339.819
145.4870, 7329.289
145.9691, 7303.044
146.4512, 7257.250
146.9333, 7201.945
147.4155, 7138.143
147.8976, 7065.294
148.3797, 6982.422
148.8618, 6873.694
149.3439, 6765.439
149.8260, 6674.596
150.3082, 6611.124
150.7903, 6552.721
151.2724, 6496.464
151.7545, 6442.479
152.2366, 6391.875
152.7188, 6342.127
153.2009, 6296.564
153.6830, 6258.438
154.1651, 6235.899
154.6472, 6212.646
155.1293, 6184.158
155.6115, 6149.108
156.0936, 6117.470
156.5757, 6093.583
157.0578, 6073.004
157.5399, 6051.228
158.0220, 6024.425
158.5042, 5998.787
158.9863, 5977.363
159.4684, 5961.167
159.9505, 5945.533
160.4326, 5930.368
160.9147, 5914.948
161.3969, 5898.136
161.8790, 5877.428
162.3611, 5856.817
162.8432, 5837.852
163.3253, 5820.303
163.8074, 5806.220
164.2896, 5798.753
164.7717, 5795.309
165.2538, 5790.779
165.7359, 5780.640
166.2180, 5769.608
166.7001, 5761.200
167.1823, 5756.482
167.6644, 5753.386
168.1465, 5751.767
168.6286, 5750.925
169.1107, 5748.967
169.5928, 5743.458
170.0750, 5736.906
170.5571, 5731.830
171.0392, 5729.101
171.5213, 5727.680
172.0034, 5727.215
172.4855, 5727.576
172.9677, 5728.042
173.4498, 5727.739
173.9319, 5727.415
174.4140, 5728.152
174.8961, 5730.542
175.3782, 5733.775
175.8604, 5736.874
176.3425, 5739.939
176.8246, 5743.700
177.3067, 5748.928
177.7888, 5755.273
178.2709, 5762.073
178.7531, 5770.189
179.2352, 5777.914
179.7173, 5782.197
180.1994, 5783.169
180.6815, 5783.450
181.1636, 5783.788
181.6458, 5785.015
182.1279, 5789.813
182.6100, 5801.563
183.0921, 5816.362
183.5742, 5825.417
184.0563, 5828.288
184.5385, 5831.029
185.0206, 5840.755
185.5027, 5856.046
185.9848, 5869.647
186.4669, 5877.760
186.9490, 5882.427
187.4312, 5890.502
187.9133, 5902.165
188.3954, 5914.851
188.8775, 5924.803
189.3596, 5932.366
189.8417, 5941.493
190.3239, 5954.812
190.8060, 5971.288
191.2881, 5984.426
191.7702, 5993.460
192.2523, 6001.848
192.7344, 6015.728
193.2166, 6035.080
193.6987, 6051.169
194.1808, 6058.592
194.6629, 6058.365
195.1450, 6063.021
195.6271, 6073.493
196.1093, 6086.476
196.5914, 6097.021
197.0735, 6104.880
197.5556, 6113.037
198.0377, 6122.563
198.5198, 6133.506
199.0020, 6145.521
199.4841, 6158.961
199.9662, 6172.724
200.4483, 6185.073
200.9304, 6195.729
201.4125, 6206.432
201.8947, 6218.427
202.3768, 6231.963
202.8589, 6243.403
203.3410, 6252.349
203.8231, 6259.794
204.3052, 6267.068
204.7874, 6273.962
205.2695, 6281.897
205.7516, 6292.268
206.2337, 6305.818
206.7158, 6316.614
207.1979, 6323.631
207.6801, 6328.891
208.1622, 6336.316
208.6443, 6346.161
209.1264, 6357.511
209.6085, 6370.431
210.0906, 6385.542
210.5728, 6399.330
211.0549, 6411.143
211.5370, 6421.980
212.0191, 6433.727
212.5012, 6446.614
212.9833, 6460.207
213.4655, 6474.664
213.9476, 6490.969
214.4297, 6504.851
214.9118, 6515.527
215.3939, 6524.142
215.8760, 6534.370
216.3581, 6548.057
216.8403, 6559.336
217.3224, 6565.302
217.8045, 6565.398
218.2866, 6561.408
218.7687, 6551.777
219.2508, 6538.491
219.7330, 6527.438
220.2151, 6519.860
220.6972, 6511.884
221.1793, 6501.649
221.6614, 6488.297
222.1435, 6474.077
222.6257, 6457.479
223.1078, 6440.406
223.5899, 6428.201
224.0720, 6423.401
224.5541, 6419.487
225.0362, 6413.191
225.5184, 6403.128
226.0005, 6394.501
226.4826, 6387.316
226.9647, 6381.808
227.4468, 6378.225
227.9289, 6376.451
228.4111, 6377.148
228.8932, 6380.982
229.3753, 6389.431
229.8574, 6397.721
230.3395, 6405.388
230.8216, 6412.928
231.3038, 6422.063
231.7859, 6434.105
232.2680, 6445.633
232.7501, 6454.705
233.2322, 6459.000
233.7143, 6466.045
234.1965, 6477.426
234.6786, 6491.213
235.1607, 6502.630
235.6428, 6512.909
236.1249, 6518.803
236.6070, 6518.214
237.0892, 6507.487
237.5713, 6498.305
238.0534, 6492.452
238.5355, 6487.590
239.0176, 6477.695
239.4997, 6460.893
239.9819, 6441.445
240.4640, 6421.203
240.9461, 6400.008
241.4282, 6378.073
241.9103, 6354.770
242.3924, 6330.987
242.8746, 6309.062
243.3567, 6290.680
243.8388, 6271.706
244.3209, 6249.354
244.8030, 6219.542
245.2851, 6198.526
245.7673, 6190.136
246.2494, 6189.075
246.7315, 6183.634
247.2136, 6170.789
247.6957, 6158.424
248.1778, 6149.334
248.6600, 6143.756
249.1421, 6141.314
249.6242, 6143.767
250.1063, 6148.375
250.5884, 6149.591
251.0705, 6145.401
251.5527, 6141.102
252.0348, 6138.315
252.5169, 6136.736
252.9990, 6137.795
253.4811, 6142.856
253.9632, 6149.605
254.4454, 6153.886
254.9275, 6154.917
255.4096, 6154.929
255.8917, 6154.297
256.3738, 6152.583
256.8560, 6152.319
257.3381, 6153.749
257.8202, 6156.439
258.3023, 6159.876
258.7844, 6164.249
259.2665, 6168.938
259.7487, 6173.710
260.2308, 6178.460
260.7129, 6183.822
261.1950, 6189.315
261.6771, 6195.862
262.1592, 6205.501
262.6414, 6220.305
263.1235, 6232.581
263.6056, 6238.819
264.0877, 6238.385
264.5698, 6242.848
265.0519, 6254.208
265.5341, 6267.701
266.0162, 6277.811
266.4983, 6283.570
266.9804, 6288.735
267.4625, 6294.237
267.9446, 6300.031
268.4268, 6305.808
268.9089, 6311.876
269.3910, 6317.203
269.8731, 6320.743
270.3552, 6322.325
270.8373, 6322.559
271.3195, 6321.218
271.8016, 6318.440
272.2837, 6315.970
272.7658, 6313.838
273.2479, 6311.787
273.7300, 6309.974
274.2122, 6308.765
274.6943, 6305.623
275.1764, 6299.535
275.6585, 6291.202
276.1406, 6284.127
276.6227, 6278.508
277.1049, 6273.703
277.5870, 6269.610
278.0691, 6266.408
278.5512, 6262.170
279.0333, 6256.396
279.5154, 6249.497
279.9976, 6242.486
280.4797, 6235.133
280.9618, 6228.708
281.4439, 6224.860
281.9260, 6223.618
282.4081, 6219.912
282.8903, 6212.586
283.3724, 6202.916
283.8545, 6193.538
284.3366, 6184.380
284.8187, 6176.126
285.3008, 6169.466
285.7830, 6164.266
286.2651, 6159.769
286.7472, 6156.104
287.2293, 6152.657
287.7114, 6147.457
288.1935, 6140.509
288.6757, 6135.351
289.1578, 6136.163
289.6399, 6141.186
290.1220, 6140.917
290.6041, 6133.966
291.0862, 6124.405
291.5684, 6117.285
292.0505, 6112.516
292.5326, 6109.576
293.0147, 6109.481
293.4968, 6111.045
293.9789, 6110.496
294.4611, 6107.584
294.9432, 6103.745
295.4253, 6099.692
295.9074, 6095.852
296.3895, 6094.003
296.8716, 6096.339
297.3538, 6100.875
297.8359, 6103.669
298.3180, 6104.729
298.8001, 6104.705
299.2822, 6104.153
299.7643, 6103.002
300.2465, 6100.932
300.7286, 6095.704
301.2107, 6090.927
301.6928, 6092.651
302.1749, 6100.515
302.6570, 6109.076
303.1392, 6114.464
303.6213, 6117.542
304.1034, 6119.677
304.5855, 6121.476
305.0676, 6122.318
305.5497, 6120.995
306.0319, 6117.897
306.5140, 6114.967
306.9961, 6113.929
307.4782, 6113.594
307.9603, 6112.627
308.4424, 6110.893
308.9246, 6107.978
309.4067, 6102.776
309.8888, 6095.938
310.3709, 6089.298
310.8530, 6084.913
311.3351, 6080.576
311.8173, 6074.298
312.2994, 6065.305
312.7815, 6055.556
313.2636, 6045.406
313.7457, 6035.502
314.2278, 6026.929
314.7100, 6021.015
315.1921, 6016.170
315.6742, 6011.646
316.1563, 6007.491
316.6384, 6003.295
317.1205, 5998.593
317.6027, 5993.950
318.0848, 5990.090
318.5669, 5988.716
319.0490, 5986.831
319.5311, 5983.498
320.0132, 5978.639
320.4954, 5971.887
320.9775, 5959.456
321.4596, 5946.822
321.9417, 5938.838
322.4238, 5941.617
322.9059, 5943.741
323.3881, 5942.555
323.8702, 5938.226
324.3523, 5933.238
324.8344, 5925.642
325.3165, 5919.073
325.7986, 5915.616
326.2808, 5918.216
326.7629, 5920.766
327.2450, 5923.749
327.7271, 5926.659
328.2092, 5927.463
328.6913, 5923.683
329.1735, 5919.978
329.6556, 5918.169
330.1377, 5919.314
330.6198, 5920.295
331.1019, 5921.423
331.5840, 5922.196
332.0662, 5921.521
332.5483, 5917.626
333.0304, 5914.654
333.5125, 5914.282
333.9946, 5917.210
334.4767, 5918.458
334.9589, 5916.694
335.4410, 5914.482
335.9231, 5915.597
336.4052, 5921.950
336.8873, 5926.638
337.3694, 5927.716
337.8515, 5925.429
338.3336, 5923.141
338.8158, 5920.764
339.2979, 5918.813
339.7800, 5918.005
340.2621, 5918.655
340.7442, 5918.846
341.2263, 5918.075
341.7085, 5916.805
342.1906, 5916.319
342.6727, 5916.555
343.1548, 5918.017
343.6369, 5922.380
344.1190, 5929.224
344.6012, 5932.345
345.0833, 5930.310
345.5654, 5925.544
346.0475, 5921.401
346.5296, 5917.920
347.0117, 5916.271
347.4939, 5919.009
347.9760, 5924.178
348.4581, 5924.874
348.9402, 5920.131
349.4223, 5914.462
349.9044, 5913.198
350.3866, 5915.312
350.8687, 5917.243
351.3508, 5918.180
351.8329, 5917.827
352.3150, 5914.866
352.7971, 5909.384
353.2793, 5904.513
353.7614, 5903.685
354.2435, 5904.834
354.7256, 5904.500
355.2077, 5900.838
355.6898, 5896.382
356.1720, 5893.594
356.6541, 5892.009
357.1362, 5889.701
357.6183, 5885.025
358.1004, 5879.369
358.5826, 5873.694
359.0647, 5867.639
359.5468, 5862.955
360.0289, 5862.046
360.5110, 5863.077
360.9931, 5862.551
361.4753, 5857.540
361.9574, 5851.889
362.4395, 5847.020
362.9216, 5842.842
363.4037, 5841.042
363.8858, 5845.431
364.3680, 5851.224
364.8501, 5853.391
365.3322, 5847.811
365.8143, 5841.772
366.2964, 5836.240
366.7785, 5831.352
367.2607, 5829.028
367.7428, 5831.056
368.2249, 5834.709
368.7070, 5838.382
369.1891, 5841.901
369.6712, 5845.615
370.1534, 5849.890
370.6355, 5854.321
371.1176, 5857.548
371.5997, 5857.749
372.0818, 5858.823
372.5639, 5862.689
373.0461, 5870.825
373.5282, 5876.347
374.0103, 5878.374
374.4924, 5878.518
374.9745, 5879.138
375.4566, 5880.289
375.9388, 5881.778
376.4209, 5883.748
376.9030, 5886.221
377.3851, 5887.826
377.8672, 5888.089
378.3493, 5889.500
378.8315, 5895.072
379.3136, 5905.037
379.7957, 5914.967
380.2778, 5924.713
380.7599, 5933.546
381.2420, 5938.916
381.7242, 5940.732
382.2063, 5943.086
382.6884, 5949.064
383.1705, 5957.683
383.6526, 5965.523
384.1347, 5972.041
384.6169, 5978.001
385.0990, 5984.755
385.5811, 5991.709
386.0632, 5996.826
386.5453, 5997.752
387.0274, 5996.914
387.5096, 5997.270
387.9917, 5998.889
388.4738, 6001.537
388.9559, 6006.207
389.4380, 6011.518
389.9201, 6015.763
390.4023, 6019.343
390.8844, 6020.726
391.3665, 6016.510
391.8486, 6008.573
392.3307, 6003.874
392.8128, 6010.867
393.2950, 6018.792
393.7771, 6019.857
394.2592, 6010.421
394.7413, 6000.313
395.2234, 5991.000
395.7055, 5983.221
396.1877, 5978.171
396.6698, 5979.846
397.1519, 5980.669
397.6340, 5977.838
398.1161, 5970.795
398.5982, 5964.631
399.0804, 5961.110
399.5625, 5957.871
400.0446, 5953.212
400.5267, 5945.820
401.0088, 5939.162
401.4909, 5933.118
401.9731, 5928.142
402.4552, 5926.537
402.9373, 5931.087
403.4194, 5934.558
403.9015, 5932.108
404.3836, 5920.345
404.8658, 5916.889
405.3479, 5924.583
405.8300, 5936.607
406.3121, 5942.185
406.7942, 5940.104
407.2763, 5939.367
407.7585, 5943.114
408.2406, 5950.529
408.7227, 5957.507
409.2048, 5963.989
409.6869, 5969.724
410.1690, 5973.071
410.6512, 5974.947
411.1333, 5980.665
411.6154, 5992.672
412.0975, 6006.349
412.5796, 6014.511
413.0617, 6018.018
413.5439, 6021.222
414.0260, 6025.093
414.5081, 6030.869
414.9902, 6041.081
415.4723, 6056.334
415.9544, 6072.274
416.4366, 6084.126
416.9187, 6094.576
417.4008, 6107.565
417.8829, 6127.556
418.3650, 6148.052
418.8471, 6164.116
419.3293, 6176.662
419.8114, 6192.214
420.2935, 6210.996
420.7756, 6235.351
421.2577, 6266.670
421.7398, 6307.767
422.2220, 6351.651
422.7041, 6397.332
423.1862, 6445.079
423.6683, 6495.458
424.1504, 6548.539
424.6325, 6605.178
425.1147, 6665.308
425.5968, 6729.935
426.0789, 6795.714
426.5610, 6860.195
427.0431, 6928.078
427.5252, 7002.876
428.0074, 7086.885
428.4895, 7172.314
428.9716, 7257.157
429.4537, 7342.002
429.9358, 7426.990
430.4179, 7510.753
430.9001, 7598.292
431.3822, 7691.788
431.8643, 7791.283
432.3464, 7891.919
432.8285, 7992.559
433.3106, 8098.019
433.7928, 8215.198
434.2749, 8343.332
434.7570, 8476.021
435.2391, 8611.169
435.7212, 8749.794
436.2033, 8895.738
436.6855, 9047.376
437.1676, 9200.693
437.6497, 9356.246
438.1318, 9510.341
438.6139, 9659.928
439.0960, 9807.608
439.5782, 9939.490
440.0603, 10046.93
440.5424, 10130.55
441.0245, 10190.19
441.5066, 10236.76
441.9887, 10251.42
442.4709, 10224.29
442.9530, 10155.03
443.4351, 10045.89
443.9172, 9888.610
444.3993, 9697.413
444.8814, 9484.161
445.3636, 9234.620
445.8457, 8982.911
446.3278, 8726.856
446.8099, 8472.999
447.2920, 8230.494
447.7741, 7996.308
448.2563, 7775.469
448.7384, 7573.323
449.2205, 7388.167
449.7026, 7218.643
450.1847, 7066.428
450.6668, 6930.203
451.1490, 6810.475
451.6311, 6708.652
452.1132, 6617.146
452.5953, 6534.387
453.0774, 6460.944
453.5595, 6395.415
454.0417, 6338.093
454.5238, 6283.535
455.0059, 6224.802
455.4880, 6164.971
455.9701, 6118.955
456.4522, 6088.443
456.9344, 6064.853
457.4165, 6040.499
457.8986, 6015.644
458.3807, 5991.734
458.8628, 5968.450
459.3449, 5946.860
459.8271, 5928.091
460.3092, 5911.938
460.7913, 5897.125
461.2734, 5881.368
461.7555, 5867.623
462.2376, 5859.253
462.7198, 5858.055
463.2019, 5856.265
463.6840, 5848.337
464.1661, 5838.415
464.6482, 5831.508
465.1303, 5831.499
465.6125, 5831.812
466.0946, 5831.036
466.5767, 5829.128
467.0588, 5826.275
467.5409, 5821.040
468.0230, 5816.165
468.5052, 5812.765
468.9873, 5810.747
469.4694, 5810.736
469.9515, 5813.720
470.4336, 5817.953
470.9157, 5820.849
471.3979, 5821.874
471.8800, 5823.685
472.3621, 5827.424
472.8442, 5832.490
473.3263, 5835.186
473.8084, 5834.986
474.2906, 5836.428
474.7727, 5844.884
475.2548, 5858.373
475.7369, 5867.100
476.2190, 5869.534
476.7011, 5869.136
477.1833, 5868.871
477.6654, 5869.061
478.1475, 5870.664
478.6296, 5876.478
479.1117, 5882.244
479.5938, 5882.775
480.0760, 5878.784
480.5581, 5875.009
481.0402, 5874.997
481.5223, 5875.846
482.0044, 5875.547
482.4865, 5874.314
482.9687, 5870.474
483.4508, 5861.914
483.9329, 5850.792
484.4150, 5840.302
484.8971, 5832.921
485.3792, 5824.085
485.8614, 5812.275
486.3435, 5797.669
486.8256, 5782.767
487.3077, 5767.135
487.7898, 5751.917
488.2719, 5737.741
488.7541, 5725.256
489.2362, 5712.627
489.7183, 5699.784
490.2004, 5686.847
490.6825, 5674.111
491.1646, 5661.661
491.6468, 5647.474
492.1289, 5629.083
492.6110, 5609.411
493.0931, 5597.422
493.5752, 5592.969
494.0573, 5588.580
494.5395, 5577.209
495.0216, 5562.244
495.5037, 5551.066
495.9858, 5545.359
496.4679, 5539.931
496.9500, 5529.403
497.4322, 5516.172
497.9143, 5504.393
498.3964, 5495.922
498.8785, 5489.194
499.3606, 5483.748
499.8427, 5479.456
500.3249, 5476.056
500.8070, 5475.147
501.2891, 5473.762
501.7712, 5470.148
502.2533, 5463.220
502.7354, 5456.717
503.2176, 5451.600
503.6997, 5446.678
504.1818, 5440.339
504.6639, 5429.363
505.1460, 5423.075
505.6281, 5424.621
506.1103, 5431.469
506.5924, 5433.466
507.0745, 5429.366
507.5566, 5424.572
508.0387, 5422.182
508.5208, 5421.982
509.0030, 5420.037
509.4851, 5416.261
509.9672, 5411.259
510.4493, 5404.275
510.9314, 5396.433
511.4135, 5392.096
511.8957, 5394.592
512.3778, 5397.477
512.8599, 5391.440
513.3420, 5379.375
513.8242, 5369.628
514.3063, 5367.361
514.7884, 5368.485
515.2705, 5370.971
515.7526, 5374.681
516.2347, 5376.518
516.7169, 5374.188
517.1990, 5370.036
517.6811, 5365.764
518.1632, 5360.566
518.6453, 5356.556
519.1274, 5353.843
519.6096, 5352.351
520.0917, 5352.257
520.5738, 5354.994
521.0559, 5356.546
521.5380, 5355.063
522.0201, 5350.888
522.5023, 5350.624
522.9844, 5355.648
523.4665, 5360.795
523.9486, 5361.921
524.4307, 5359.281
524.9128, 5357.348
525.3950, 5356.432
525.8771, 5356.508
526.3592, 5358.216
526.8413, 5361.007
527.3234, 5363.027
527.8055, 5363.671
528.2877, 5363.026
528.7698, 5360.868
529.2519, 5357.389
529.7340, 5353.407
530.2161, 5347.820
530.6982, 5342.995
531.1804, 5341.135
531.6625, 5343.104
532.1446, 5344.815
532.6267, 5345.433
533.1088, 5345.049
533.5909, 5343.747
534.0731, 5339.237
534.5552, 5336.837
535.0373, 5337.626
535.5194, 5340.690
536.0015, 5344.071
536.4836, 5348.814
536.9658, 5351.564
537.4479, 5350.423
537.9300, 5345.588
538.4121, 5342.084
538.8942, 5339.800
539.3763, 5339.110
539.8585, 5341.790
540.3406, 5346.841
540.8227, 5348.308
541.3048, 5344.898
541.7869, 5339.666
542.2690, 5335.928
542.7512, 5333.342
543.2333, 5331.070
543.7154, 5329.187
544.1975, 5327.149
544.6796, 5324.867
545.1617, 5322.174
545.6439, 5318.376
546.1260, 5311.592
546.6081, 5304.835
547.0902, 5299.946
547.5723, 5297.547
548.0544, 5295.548
548.5366, 5294.524
549.0187, 5293.295
549.5008, 5290.758
549.9829, 5285.846
550.4650, 5281.752
550.9471, 5279.534
551.4293, 5277.904
551.9114, 5273.706
552.3935, 5266.718
552.8756, 5258.242
553.3577, 5247.789
553.8398, 5236.270
554.3220, 5228.424
554.8041, 5224.334
555.2862, 5220.845
555.7683, 5214.891
556.2504, 5207.833
556.7325, 5202.172
557.2147, 5198.209
557.6968, 5195.771
558.1789, 5196.736
558.6610, 5198.608
559.1431, 5197.706
559.6252, 5190.208
560.1074, 5182.219
560.5895, 5176.461
561.0716, 5172.136
561.5537, 5166.756
562.0358, 5157.273
562.5179, 5149.042
563.0001, 5144.637
563.4822, 5144.622
563.9643, 5142.558
564.4464, 5137.933
564.9285, 5132.018
565.4106, 5125.577
565.8928, 5118.545
566.3749, 5111.434
566.8570, 5104.275
567.3391, 5096.951
567.8212, 5088.877
568.3033, 5080.191
568.7855, 5072.352
569.2676, 5065.581
569.7497, 5060.080
570.2318, 5056.616
570.7139, 5054.826
571.1960, 5052.856
571.6782, 5049.901
572.1603, 5046.134
572.6424, 5041.530
573.1245, 5035.997
573.6066, 5030.526
574.0887, 5026.350
574.5709, 5021.842
575.0530, 5015.636
575.5351, 5004.397
576.0172, 4996.042
576.4993, 4992.013
576.9814, 4990.388
577.4636, 4988.335
577.9457, 4986.068
578.4278, 4982.806
578.9099, 4978.201
579.3920, 4972.579
579.8741, 4967.101
580.3563, 4961.789
580.8384, 4956.434
581.3205, 4950.717
581.8026, 4944.795
582.2847, 4939.232
582.7668, 4933.987
583.2490, 4929.626
583.7311, 4927.847
584.2131, 4926.777
584.6953, 4924.014
585.1774, 4918.989
585.6595, 4912.271
586.1416, 4901.154
586.6237, 4889.323
587.1058, 4882.153
587.5880, 4887.403
588.0701, 4890.373
588.5522, 4886.717
589.0343, 4877.781
589.5164, 4869.291
589.9985, 4860.413
590.4807, 4853.388
590.9628, 4849.975
591.4449, 4850.283
591.9270, 4846.456
592.4091, 4837.494
592.8912, 4828.492
593.3734, 4824.905
593.8555, 4825.470
594.3376, 4824.768
594.8197, 4822.300
595.3018, 4817.469
595.7839, 4808.004
596.2661, 4795.928
596.7482, 4785.104
597.2303, 4777.639
597.7124, 4771.333
598.1945, 4764.647
598.6766, 4758.123
599.1588, 4753.297
599.6409, 4751.976
600.1230, 4751.310
600.6051, 4750.829
601.0872, 4750.641
601.5693, 4748.047
602.0515, 4741.567
602.5336, 4734.643
603.0157, 4729.508
603.4978, 4726.548
603.9799, 4722.287
604.4620, 4716.168
604.9442, 4709.754
605.4263, 4705.684
605.9084, 4703.342
606.3905, 4699.186
606.8726, 4691.064
607.3547, 4683.218
607.8369, 4681.989
608.3190, 4685.249
608.8011, 4687.535
609.2832, 4686.065
609.7653, 4682.895
610.2474, 4679.216
610.7296, 4674.935
611.2117, 4669.475
611.6938, 4660.917
612.1759, 4652.483
612.6580, 4646.113
613.1401, 4642.625
613.6223, 4637.046
614.1044, 4628.115
614.5865, 4618.893
615.0686, 4612.768
615.5507, 4610.401
616.0328, 4605.642
616.5150, 4597.525
616.9971, 4588.046
617.4792, 4579.956
617.9613, 4573.133
618.4434, 4566.761
618.9255, 4560.331
619.4077, 4554.648
619.8898, 4551.784
620.3719, 4550.636
620.8540, 4547.610
621.3361, 4538.760
621.8182, 4529.454
622.3004, 4522.551
622.7825, 4518.208
623.2646, 4514.800
623.7467, 4513.521
624.2288, 4511.811
624.7109, 4507.963
625.1931, 4500.432
625.6752, 4495.985
626.1573, 4495.367
626.6394, 4496.358
627.1215, 4497.610
627.6036, 4499.138
628.0858, 4496.696
628.5679, 4488.604
629.0500, 4478.845
629.5321, 4473.648
630.0142, 4471.906
630.4963, 4470.280
630.9785, 4467.411
631.4606, 4464.171
631.9427, 4461.676
632.4248, 4459.555
632.9069, 4456.509
633.3890, 4451.205
633.8712, 4445.696
634.3533, 4440.598
634.8354, 4435.927
635.3175, 4432.513
635.7996, 4431.213
636.2817, 4430.121
636.7639, 4428.015
637.2460, 4424.477
637.7281, 4421.915
638.2102, 4420.548
638.6923, 4419.234
639.1744, 4416.762
639.6566, 4413.211
640.1387, 4408.931
640.6208, 4403.873
641.1029, 4398.721
641.5850, 4394.860
642.0671, 4391.531
642.5493, 4387.096
643.0314, 4379.368
643.5135, 4372.024
643.9956, 4367.036
644.4777, 4364.065
644.9598, 4361.834
645.4420, 4361.476
645.9241, 4360.490
646.4062, 4358.088
646.8883, 4354.374
647.3704, 4350.509
647.8525, 4346.377
648.3347, 4342.432
648.8168, 4339.239
649.2989, 4336.695
649.7810, 4333.131
650.2631, 4328.389
650.7452, 4323.724
651.2274, 4320.130
651.7095, 4317.550
652.1916, 4316.146
652.6737, 4316.312
653.1558, 4316.105
653.6379, 4313.801
654.1201, 4310.311
654.6022, 4306.845
655.0843, 4302.970
655.5664, 4300.035
656.0485, 4299.409
656.5306, 4299.845
657.0128, 4298.485
657.4949, 4294.687
657.9770, 4290.210
658.4591, 4284.985
658.9412, 4279.509
659.4233, 4276.594
659.9055, 4276.544
660.3876, 4275.708
660.8697, 4271.307
661.3518, 4264.812
661.8339, 4259.988
662.3160, 4256.771
662.7982, 4253.520
663.2803, 4248.631
663.7624, 4243.416
664.2445, 4239.178
664.7266, 4236.131
665.2087, 4233.656
665.6909, 4232.238
666.1730, 4230.893
666.6551, 4228.729
667.1372, 4224.550
667.6193, 4221.619
668.1014, 4220.566
668.5836, 4220.097
669.0657, 4218.177
669.5478, 4214.612
670.0299, 4212.167
670.5120, 4211.939
670.9941, 4212.174
671.4763, 4209.132
671.9584, 4203.686
672.4405, 4199.149
672.9226, 4198.394
673.4047, 4198.041
673.8868, 4194.743
674.3690, 4189.290
674.8511, 4184.356
675.3332, 4179.863
675.8153, 4177.145
676.2974, 4178.255
676.7795, 4183.415
677.2617, 4183.387
677.7438, 4174.641
678.2259, 4166.028
678.7080, 4162.683
679.1901, 4165.043
679.6722, 4164.393
680.1544, 4160.206
680.6365, 4156.042
681.1186, 4156.590
681.6007, 4159.604
682.0828, 4158.679
682.5649, 4152.279
683.0471, 4145.650
683.5292, 4142.784
684.0113, 4142.400
684.4934, 4143.271
684.9755, 4147.585
685.4576, 4149.205
685.9398, 4143.693
686.4219, 4135.406
686.9040, 4131.696
687.3861, 4135.646
687.8682, 4138.071
688.3503, 4137.438
688.8325, 4134.532
689.3146, 4130.991
689.7967, 4126.854
690.2788, 4122.956
690.7609, 4119.497
691.2430, 4116.707
691.7252, 4115.243
692.2073, 4114.852
692.6894, 4114.429
693.1715, 4114.098
693.6536, 4112.835
694.1357, 4108.962
694.6179, 4102.575
695.1000, 4097.993
695.5821, 4097.205
696.0642, 4097.557
696.5463, 4097.644
697.0284, 4097.162
697.5106, 4098.861
697.9927, 4104.022
698.4748, 4108.473
698.9569, 4107.767
699.4390, 4102.752
699.9211, 4100.663
700.4033, 4102.440
700.8854, 4104.286
701.3675, 4101.393
701.8496, 4096.375
702.3317, 4093.133
702.8138, 4092.435
703.2960, 4094.126
703.7781, 4099.683
704.2602, 4106.952
704.7423, 4113.293
705.2244, 4118.754
705.7065, 4122.266
706.1887, 4122.394
706.6708, 4121.154
707.1529, 4122.398
707.6350, 4126.382
708.1171, 4131.306
708.5992, 4137.755
709.0814, 4143.529
709.5635, 4143.479
710.0456, 4138.448
710.5277, 4132.512
711.0098, 4128.439
711.4919, 4123.829
711.9741, 4116.599
712.4562, 4107.100
712.9383, 4096.428
713.4204, 4083.663
713.9025, 4071.093
714.3846, 4059.812
714.8668, 4049.681
715.3489, 4039.404
715.8310, 4027.353
716.3131, 4018.287
716.7952, 4015.938
717.2773, 4019.655
717.7595, 4019.403
718.2416, 4014.979
718.7237, 4009.957
719.2058, 4007.235
719.6879, 4005.763
720.1700, 4003.787
720.6522, 4001.052
721.1343, 3998.951
721.6164, 3998.274
722.0985, 3998.571
722.5806, 3999.530
723.0627, 4001.403
723.5449, 4003.281
724.0270, 4005.479
724.5091, 4007.358
724.9912, 4008.044
725.4733, 4007.138
725.9554, 4007.678
726.4376, 4010.263
726.9197, 4013.320
727.4018, 4013.656
727.8839, 4012.578
728.3660, 4014.872
728.8481, 4023.675
729.3303, 4031.656
729.8124, 4031.002
730.2945, 4025.787
730.7766, 4022.235
731.2587, 4022.985
731.7408, 4024.591
732.2230, 4027.257
732.7051, 4030.042
733.1872, 4030.998
733.6693, 4029.386
734.1514, 4028.134
734.6335, 4028.294
735.1157, 4028.917
735.5978, 4028.146
736.0799, 4025.877
736.5620, 4020.970
737.0441, 4010.072
737.5262, 3998.589
738.0084, 3993.129
738.4905, 3992.379
738.9726, 3991.830
739.4547, 3989.819
739.9368, 3987.296
740.4189, 3984.528
740.9011, 3981.499
741.3832, 3978.230
741.8653, 3973.558
742.3474, 3970.692
742.8295, 3972.110
743.3116, 3976.819
743.7938, 3975.978
744.2759, 3969.383
744.7580, 3963.142
745.2401, 3962.997
745.7222, 3965.310
746.2043, 3963.985
746.6865, 3958.996
747.1686, 3954.592
747.6507, 3953.025
748.1328, 3953.001
748.6149, 3954.121
749.0970, 3956.836
749.5792, 3958.270
750.0613, 3957.517
750.5434, 3956.601
751.0255, 3956.644
751.5076, 3957.635
751.9897, 3959.880
752.4719, 3963.570
752.9540, 3967.404
753.4361, 3970.219
753.9182, 3972.284
754.4003, 3973.823
754.8824, 3974.605
755.3646, 3976.688
755.8467, 3982.678
756.3288, 3989.903
756.8109, 3995.578
757.2930, 3997.813
757.7751, 4001.771
758.2573, 4008.577
758.7394, 4016.465
759.2215, 4024.164
759.7036, 4032.001
760.1857, 4037.291
760.6678, 4039.036
761.1500, 4040.635
761.6321, 4047.105
762.1142, 4056.691
762.5963, 4064.998
763.0784, 4070.300
763.5605, 4075.798
764.0427, 4083.194
764.5248, 4092.294
765.0069, 4102.867
765.4890, 4116.725
765.9711, 4129.411
766.4532, 4138.833
766.9354, 4148.302
767.4175, 4163.497
767.8996, 4185.715
768.3817, 4206.175
768.8638, 4223.562
769.3459, 4238.497
769.8281, 4249.236
770.3102, 4257.914
770.7923, 4270.681
771.2744, 4289.513
771.7565, 4313.378
772.2386, 4344.418
772.7208, 4379.581
773.2029, 4413.555
773.6850, 4440.237
774.1671, 4471.828
774.6492, 4510.068
775.1313, 4553.923
775.6135, 4600.951
776.0956, 4650.236
776.5777, 4706.401
777.0598, 4771.978
777.5419, 4843.090
778.0240, 4913.232
778.5062, 4983.942
778.9883, 5060.343
779.4704, 5142.909
779.9525, 5232.608
780.4346, 5333.338
780.9167, 5441.106
781.3989, 5548.368
781.8810, 5647.545
782.3631, 5754.163
782.8452, 5871.071
783.3273, 5996.015
783.8094, 6124.088
784.2916, 6255.602
784.7737, 6392.209
785.2558, 6534.577
785.7379, 6684.681
786.2200, 6845.857
786.7021, 7018.073
787.1843, 7191.880
787.6664, 7370.373
788.1485, 7546.849
788.6306, 7716.617
789.1127, 7881.140
789.5948, 8039.693
790.0770, 8202.382
790.5591, 8348.257
791.0412, 8475.527
791.5233, 8581.166
792.0054, 8658.035
792.4875, 8705.557
792.9697, 8719.211
793.4518, 8694.190
793.9339, 8635.877
794.4160, 8547.770
794.8981, 8433.038
795.3802, 8302.317
795.8624, 8150.268
796.3445, 7993.781
796.8266, 7835.225
797.3087, 7679.282
797.7908, 7540.721
798.2729, 7420.391
798.7551, 7317.881
799.2372, 7230.283
799.7193, 7159.909
800.2014, 7115.521
800.6835, 7096.489
801.1656, 7092.135
801.6478, 7097.984
802.1299, 7115.311
802.6120, 7145.219
803.0941, 7187.633
803.5762, 7243.253
804.0583, 7309.336
804.5405, 7391.262
805.0226, 7491.851
805.5047, 7609.968
805.9868, 7744.370
806.4689, 7893.476
806.9510, 8059.855
807.4332, 8245.457
807.9153, 8448.036
808.3974, 8660.644
808.8795, 8881.552
809.3616, 9101.746
809.8438, 9324.813
810.3259, 9535.439
810.8080, 9725.618
811.2901, 9892.314
811.7722, 10031.75
812.2543, 10171.61
812.7365, 10248.19
813.2186, 10250.61
813.7007, 10179.32
814.1828, 10035.42
814.6649, 9816.496
815.1470, 9536.927
815.6292, 9193.628
816.1113, 8806.047
816.5934, 8393.222
817.0755, 7964.428
817.5576, 7557.573
818.0397, 7185.935
818.5219, 6846.450
819.0040, 6539.247
819.4861, 6262.929
819.9682, 6019.691
820.4503, 5811.152
820.9324, 5624.897
821.4146, 5463.563
821.8967, 5322.998
822.3788, 5197.374
822.8609, 5087.450
823.3430, 4989.290
823.8251, 4903.124
824.3073, 4825.921
824.7894, 4753.560
825.2715, 4686.861
825.7536, 4624.244
826.2357, 4570.277
826.7178, 4515.383
827.2000, 4455.041
827.6821, 4392.657
828.1642, 4335.835
828.6463, 4284.192
829.1284, 4237.586
829.6105, 4195.752
830.0927, 4157.771
830.5748, 4120.441
831.0569, 4084.783
831.5390, 4054.131
832.0211, 4031.371
832.5032, 4010.320
832.9854, 3987.501
833.4675, 3963.352
833.9496, 3939.037
834.4317, 3910.251
834.9138, 3887.995
835.3959, 3875.303
835.8781, 3867.480
836.3602, 3857.882
836.8423, 3846.604
837.3244, 3833.229
837.8065, 3817.019
838.2886, 3800.924
838.7708, 3788.878
839.2529, 3779.019
839.7350, 3767.930
840.2171, 3752.763
840.6992, 3740.110
841.1813, 3734.625
841.6635, 3731.199
842.1456, 3724.262
842.6277, 3712.533
843.1098, 3701.329
843.5919, 3691.039
844.0740, 3681.049
844.5562, 3670.542
845.0383, 3659.869
845.5204, 3650.267
846.0025, 3642.073
846.4846, 3634.138
846.9667, 3624.908
847.4489, 3615.968
847.9310, 3609.121
848.4131, 3605.670
848.8952, 3601.202
849.3773, 3594.594
849.8594, 3588.304
850.3416, 3584.551
850.8237, 3583.247
851.3058, 3580.962
851.7879, 3577.500
852.2700, 3573.924
852.7521, 3571.632
853.2343, 3569.358
853.7164, 3565.305
854.1985, 3559.268
854.6806, 3553.509
855.1627, 3547.854
855.6448, 3543.613
856.1270, 3541.861
856.6091, 3542.653
857.0912, 3541.618
857.5733, 3538.520
858.0554, 3534.812
858.5375, 3530.702
859.0197, 3526.824
859.5018, 3524.805
859.9839, 3524.432
860.4660, 3524.401
860.9481, 3524.651
861.4302, 3524.451
861.9124, 3523.085
862.3945, 3520.715
862.8766, 3519.002
863.3587, 3517.955
863.8408, 3517.823
864.3229, 3519.168
864.8051, 3521.242
865.2872, 3521.600
865.7693, 3520.474
866.2514, 3519.111
866.7335, 3517.401
867.2156, 3516.406
867.6978, 3517.571
868.1799, 3520.041
868.6620, 3521.889
869.1441, 3522.109
869.6262, 3522.310
870.1083, 3522.375
870.5905, 3522.789
871.0726, 3524.986
871.5547, 3528.921
872.0368, 3531.645
872.5189, 3532.121
873.0010, 3532.012
873.4832, 3534.139
873.9653, 3536.752
874.4474, 3536.810
874.9295, 3531.213
875.4116, 3526.923
875.8937, 3527.424
876.3759, 3528.639
876.8580, 3526.584
877.3401, 3520.591
877.8222, 3515.024
878.3043, 3510.315
878.7864, 3505.260
879.2686, 3498.710
879.7507, 3490.789
880.2328, 3481.288
880.7149, 3469.982
881.1970, 3459.339
881.6791, 3452.226
882.1613, 3445.007
882.6434, 3434.576
883.1255, 3420.302
883.6076, 3407.936
884.0897, 3397.615
884.5718, 3388.886
885.0540, 3381.601
885.5361, 3375.616
886.0182, 3371.484
886.5003, 3368.812
886.9824, 3364.931
887.4645, 3355.691
887.9467, 3346.931
888.4288, 3343.241
888.9109, 3344.130
889.3930, 3342.224
889.8751, 3335.640
890.3572, 3329.974
890.8394, 3327.762
891.3215, 3327.114
891.8036, 3322.112
892.2857, 3313.568
892.7678, 3305.539
893.2499, 3299.389
893.7321, 3295.111
894.2142, 3294.406
894.6963, 3295.266
895.1784, 3293.804
895.6605, 3287.094
896.1426, 3281.300
896.6248, 3276.953
897.1069, 3273.705
897.5890, 3270.892
898.0711, 3268.566
898.5532, 3267.660
899.0353, 3268.510
899.5175, 3269.815
899.9996, 3270.835
900.4817, 3271.341
900.9638, 3271.027
901.4459, 3269.625
901.9280, 3267.937
902.4102, 3266.209
902.8923, 3263.977
903.3744, 3260.552
903.8565, 3255.844
904.3386, 3252.359
904.8207, 3250.141
905.3029, 3249.259
905.7850, 3251.989
906.2671, 3254.698
906.7492, 3252.095
907.2313, 3244.495
907.7134, 3239.398
908.1956, 3240.863
908.6777, 3243.340
909.1598, 3245.768
909.6419, 3247.729
910.1240, 3246.625
910.6061, 3242.433
911.0883, 3238.104
911.5704, 3234.540
912.0525, 3231.993
912.5346, 3231.727
913.0167, 3232.587
913.4988, 3232.074
913.9810, 3227.253
914.4631, 3223.603
914.9452, 3222.675
915.4273, 3223.168
915.9094, 3223.259
916.3915, 3222.886
916.8737, 3223.073
917.3558, 3224.096
917.8379, 3225.050
918.3200, 3225.319
918.8021, 3224.669
919.2842, 3222.287
919.7664, 3217.379
920.2485, 3213.823
920.7306, 3214.077
921.2127, 3214.957
921.6948, 3214.572
922.1769, 3212.818
922.6591, 3211.011
923.1412, 3209.101
923.6233, 3207.427
924.1054, 3206.291
924.5875, 3205.485
925.0696, 3205.131
925.5518, 3204.990
926.0339, 3203.796
926.5160, 3199.125
926.9981, 3195.568
927.4802, 3195.137
927.9623, 3196.797
928.4445, 3197.720
928.9266, 3197.991
929.4087, 3196.292
929.8908, 3191.464
930.3729, 3186.038
930.8550, 3182.996
931.3372, 3181.910
931.8193, 3182.239
932.3014, 3185.653
932.7835, 3187.373
933.2656, 3184.617
933.7477, 3181.029
934.2299, 3180.419
934.7120, 3183.427
935.1941, 3182.764
935.6762, 3177.654
936.1583, 3172.719
936.6404, 3173.302
937.1226, 3176.126
937.6047, 3176.530
938.0868, 3174.075
938.5689, 3172.654
939.0510, 3174.733
939.5331, 3176.668
940.0153, 3176.650
940.4974, 3175.124
940.9795, 3176.152
941.4616, 3179.777
941.9437, 3181.343
942.4258, 3176.679
942.9080, 3171.166
943.3901, 3172.200
943.8722, 3177.315
944.3543, 3181.205
944.8364, 3182.638
945.3185, 3182.014
945.8007, 3178.122
946.2828, 3173.646
946.7649, 3172.478
947.2470, 3174.543
947.7291, 3176.482
948.2112, 3178.068
948.6934, 3177.989
949.1755, 3172.685
949.6576, 3166.328
950.1397, 3163.725
950.6218, 3166.133
951.1039, 3168.337
951.5861, 3169.424
952.0682, 3170.492
952.5503, 3172.499
953.0324, 3175.040
953.5145, 3174.548
953.9966, 3171.335
954.4788, 3169.094
954.9609, 3171.323
955.4430, 3174.117
955.9251, 3174.284
956.4072, 3172.572
956.8893, 3170.984
957.3715, 3169.821
957.8536, 3168.820
958.3357, 3167.867
958.8178, 3167.176
959.2999, 3166.979
959.7820, 3167.304
960.2642, 3168.366
960.7463, 3170.228
961.2284, 3172.568
961.7105, 3176.844
962.1926, 3180.351
962.6747, 3180.366
963.1569, 3175.880
963.6390, 3171.669
964.1211, 3167.589
964.6032, 3164.095
965.0853, 3162.068
965.5674, 3160.775
966.0496, 3158.699
966.5317, 3155.641
967.0138, 3150.451
967.4959, 3139.149
967.9780, 3129.208
968.4601, 3126.030
968.9423, 3126.631
969.4244, 3124.053
969.9065, 3117.218
970.3886, 3111.798
970.8707, 3108.833
971.3528, 3107.216
971.8350, 3105.865
972.3171, 3104.609
972.7992, 3103.022
973.2813, 3100.872
973.7634, 3098.958
974.2455, 3098.680
974.7277, 3097.625
975.2098, 3093.608
975.6919, 3086.540
976.1740, 3083.726
976.6561, 3085.322
977.1382, 3087.583
977.6204, 3088.337
978.1025, 3088.379
978.5846, 3088.166
979.0667, 3088.011
979.5488, 3088.831
980.0309, 3093.892
980.5131, 3095.625
980.9952, 3091.319
981.4773, 3084.743
981.9594, 3082.732
982.4415, 3084.598
982.9236, 3084.342
983.4058, 3080.599
983.8879, 3076.599
984.3700, 3074.358
984.8521, 3073.622
985.3342, 3074.770
985.8163, 3078.658
986.2985, 3079.825
986.7806, 3077.686
987.2627, 3074.121
987.7448, 3069.780
988.2269, 3064.931
988.7090, 3059.597
989.1912, 3054.300
989.6733, 3051.094
990.1554, 3053.977
990.6375, 3056.040
991.1196, 3052.618
991.6017, 3046.791
992.0839, 3044.007
992.5660, 3045.024
993.0481, 3045.571
993.5302, 3044.956
994.0123, 3044.537
994.4944, 3046.484
994.9766, 3049.304
995.4587, 3050.544
995.9408, 3049.733
996.4229, 3048.975
996.9050, 3049.110
997.3871, 3049.188
997.8693, 3049.136
998.3514, 3048.687
998.8335, 3045.281
999.3156, 3039.227
999.7977, 3035.780
1000.280, 3039.584
1000.762, 3043.994
1001.244, 3041.984
1001.726, 3036.641
1002.208, 3033.190
1002.690, 3035.210
1003.173, 3034.448
1003.655, 3029.420
1004.137, 3024.223
1004.619, 3023.237
1005.101, 3025.581
1005.583, 3029.021
1006.065, 3033.266
1006.547, 3035.814
1007.029, 3033.181
1007.512, 3030.194
1007.994, 3030.014
1008.476, 3031.881
1008.958, 3032.193
1009.440, 3030.432
1009.922, 3030.452
1010.404, 3034.387
1010.886, 3038.493
1011.369, 3037.160
1011.851, 3032.503
1012.333, 3027.967
1012.815, 3024.047
1013.297, 3021.378
1013.779, 3020.714
1014.261, 3020.601
1014.743, 3019.744
1015.225, 3018.308
1015.708, 3019.984
1016.190, 3024.511
1016.672, 3027.294
1017.154, 3023.336
1017.636, 3018.332
1018.118, 3015.729
1018.600, 3015.406
1019.082, 3016.865
1019.565, 3021.739
1020.047, 3023.033
1020.529, 3018.183
1021.011, 3012.804
1021.493, 3016.547
1021.975, 3025.065
1022.457, 3029.100
1022.939, 3026.761
1023.421, 3022.912
1023.904, 3018.565
1024.386, 3014.308
1024.868, 3010.419
1025.350, 3006.863
1025.832, 3003.103
1026.314, 2999.174
1026.796, 2995.773
1027.278, 2993.049
1027.760, 2991.307
1028.243, 2992.147
1028.725, 2993.822
1029.207, 2993.350
1029.689, 2988.492
1030.171, 2984.216
1030.653, 2980.490
1031.135, 2977.562
1031.617, 2976.027
1032.100, 2975.453
1032.582, 2974.573
1033.064, 2973.308
1033.546, 2971.749
1034.028, 2968.895
1034.510, 2966.835
1034.992, 2967.446
1035.474, 2969.434
1035.957, 2968.871
1036.439, 2965.586
1036.921, 2962.630
1037.403, 2960.567
1037.885, 2959.594
1038.367, 2961.212
1038.849, 2963.431
1039.331, 2963.470
1039.813, 2960.069
1040.296, 2957.813
1040.778, 2957.038
1041.260, 2957.232
1041.742, 2958.466
1042.224, 2960.308
1042.706, 2961.435
1043.188, 2961.851
1043.670, 2961.690
1044.152, 2960.729
1044.635, 2959.455
1045.117, 2957.551
1045.599, 2955.693
1046.081, 2955.208
1046.563, 2956.579
1047.045, 2954.657
1047.527, 2948.808
1048.009, 2943.574
1048.492, 2944.505
1048.974, 2947.221
1049.456, 2946.596
1049.938, 2942.785
1050.420, 2941.218
1050.902, 2944.650
1051.384, 2945.801
1051.866, 2942.072
1052.349, 2936.415
1052.831, 2934.861
1053.313, 2935.973
1053.795, 2935.626
1054.277, 2932.358
1054.759, 2929.409
1055.241, 2928.185
1055.723, 2927.832
1056.205, 2927.613
1056.688, 2927.539
1057.170, 2929.319
1057.652, 2932.957
1058.134, 2935.770
1058.616, 2936.714
1059.098, 2935.877
1059.580, 2932.097
1060.062, 2926.911
1060.544, 2923.237
1061.027, 2922.069
1061.509, 2921.295
1061.991, 2920.989
1062.473, 2920.652
1062.955, 2919.131
1063.437, 2917.427
1063.919, 2918.556
1064.401, 2922.175
1064.884, 2924.235
1065.366, 2922.415
1065.848, 2919.168
1066.330, 2914.597
1066.812, 2909.755
1067.294, 2906.924
1067.776, 2906.060
1068.258, 2906.917
1068.740, 2909.963
1069.223, 2911.835
1069.705, 2907.880
1070.187, 2903.051
1070.669, 2902.272
1071.151, 2906.020
1071.633, 2907.123
1072.115, 2905.030
1072.597, 2903.066
1073.079, 2903.115
1073.562, 2903.531
1074.044, 2901.081
1074.526, 2897.316
1075.008, 2895.176
1075.490, 2897.631
1075.972, 2897.705
1076.454, 2893.148
1076.936, 2889.000
1077.419, 2890.868
1077.901, 2896.714
1078.383, 2896.004
1078.865, 2889.547
1079.347, 2883.824
1079.829, 2882.875
1080.311, 2882.917
1080.793, 2882.224
1081.275, 2881.438
1081.758, 2881.773
1082.240, 2883.286
1082.722, 2884.784
1083.204, 2886.239
1083.686, 2886.396
1084.168, 2882.325
1084.650, 2877.827
1085.132, 2877.708
1085.615, 2881.875
1086.097, 2880.986
1086.579, 2873.083
1087.061, 2865.790
1087.543, 2861.386
1088.025, 2858.723
1088.507, 2855.869
1088.989, 2853.601
1089.471, 2853.806
1089.953, 2858.120
1090.436, 2860.181
1090.918, 2856.148
1091.400, 2852.938
1091.882, 2854.660
1092.364, 2859.954
1092.846, 2862.837
1093.328, 2863.605
1093.810, 2863.880
1094.293, 2863.438
1094.775, 2863.921
1095.257, 2867.304
1095.739, 2871.190
1096.221, 2873.030
1096.703, 2872.630
1097.185, 2871.384
1097.667, 2869.268
1098.150, 2867.709
1098.632, 2867.845
1099.114, 2868.933
1099.596, 2870.974
1100.078, 2873.418
1100.560, 2874.508
1101.042, 2873.399
1101.524, 2873.421
1102.006, 2875.446
1102.489, 2877.078
1102.971, 2875.166
1103.453, 2871.314
1103.935, 2867.331
1104.417, 2863.482
1104.899, 2861.996
1105.381, 2865.348
1105.863, 2868.391
1106.345, 2870.134
1106.828, 2870.451
1107.310, 2867.762
1107.792, 2863.397
1108.274, 2861.651
1108.756, 2863.944
1109.238, 2866.845
1109.720, 2868.849
1110.202, 2870.749
1110.685, 2872.143
1111.167, 2873.636
1111.649, 2880.741
1112.131, 2892.864
1112.613, 2904.559
1113.095, 2912.803
1113.577, 2920.698
1114.059, 2928.891
1114.542, 2938.756
1115.024, 2952.250
1115.506, 2970.558
1115.988, 2986.456
1116.470, 2999.709
1116.952, 3012.825
1117.434, 3026.210
1117.916, 3041.383
1118.398, 3060.504
1118.880, 3082.680
1119.363, 3105.647
1119.845, 3128.478
1120.327, 3153.667
1120.809, 3180.860
1121.291, 3211.314
1121.773, 3246.520
1122.255, 3285.640
1122.737, 3329.521
1123.220, 3376.879
1123.702, 3420.041
1124.184, 3460.184
1124.666, 3489.649
1125.148, 3508.077
1125.630, 3513.634
1126.112, 3503.649
1126.594, 3478.362
1127.077, 3435.345
1127.559, 3373.564
1128.041, 3309.887
1128.523, 3248.869
1129.005, 3191.234
1129.487, 3135.834
1129.969, 3084.455
1130.451, 3041.958
1130.933, 3007.538
1131.416, 2976.214
1131.898, 2945.825
1132.380, 2920.336
1132.862, 2903.800
1133.344, 2891.848
1133.826, 2881.358
1134.308, 2872.180
1134.790, 2863.260
1135.272, 2854.511
1135.755, 2846.525
1136.237, 2839.774
1136.719, 2833.167
1137.201, 2824.999
1137.683, 2816.829
1138.165, 2811.055
1138.647, 2808.615
1139.129, 2804.890
1139.612, 2799.757
1140.094, 2794.473
1140.576, 2789.809
1141.058, 2785.563
1141.540, 2780.980
1142.022, 2776.734
1142.504, 2774.296
1142.986, 2775.629
1143.469, 2775.652
1143.951, 2774.394
1144.433, 2771.362
1144.915, 2763.583
1145.397, 2754.963
1145.879, 2754.041
1146.361, 2759.083
1146.843, 2762.185
1147.325, 2759.281
1147.807, 2756.400
1148.290, 2754.258
1148.772, 2752.430
1149.254, 2750.617
1149.736, 2748.632
1150.218, 2745.511
1150.700, 2741.326
1151.182, 2738.107
1151.664, 2737.442
1152.147, 2736.979
1152.629, 2736.063
1153.111, 2734.916
1153.593, 2734.050
1154.075, 2733.340
1154.557, 2732.147
1155.039, 2730.337
1155.521, 2728.714
1156.004, 2728.118
1156.486, 2727.392
1156.968, 2725.965
1157.450, 2724.064
1157.932, 2722.378
1158.414, 2720.852
1158.896, 2718.932
1159.378, 2716.385
1159.860, 2714.020
1160.343, 2712.334
1160.825, 2711.135
1161.307, 2710.509
1161.789, 2710.277
1162.271, 2708.755
1162.753, 2706.016
1163.235, 2703.992
1163.717, 2703.682
1164.199, 2703.428
1164.682, 2701.409
1165.164, 2699.090
1165.646, 2698.161
1166.128, 2698.738
1166.610, 2697.816
1167.092, 2695.323
1167.574, 2693.098
1168.056, 2692.714
1168.539, 2692.015
1169.021, 2688.495
1169.503, 2683.719
1169.985, 2679.773
1170.467, 2676.756
1170.949, 2675.061
1171.431, 2674.852
1171.913, 2674.992
1172.396, 2675.304
1172.878, 2675.168
1173.360, 2673.774
1173.842, 2671.509
1174.324, 2668.940
1174.806, 2665.566
1175.288, 2663.215
1175.770, 2661.688
1176.252, 2662.339
1176.734, 2669.456
1177.217, 2676.893
1177.699, 2675.833
1178.181, 2668.674
1178.663, 2662.760
1179.145, 2659.619
1179.627, 2656.247
1180.109, 2652.128
1180.591, 2649.013
1181.074, 2650.487
1181.556, 2652.898
1182.038, 2650.036
1182.520, 2643.084
1183.002, 2638.990
1183.484, 2641.056
1183.966, 2641.113
1184.448, 2637.756
1184.931, 2633.628
1185.413, 2631.302
1185.895, 2630.394
1186.377, 2630.847
1186.859, 2632.360
1187.341, 2632.802
1187.823, 2631.399
1188.305, 2629.550
1188.787, 2627.450
1189.270, 2624.985
1189.752, 2620.895
1190.234, 2616.804
1190.716, 2616.096
1191.198, 2618.974
1191.680, 2620.916
1192.162, 2621.108
1192.644, 2620.000
1193.126, 2617.308
1193.609, 2614.207
1194.091, 2612.905
1194.573, 2612.515
1195.055, 2611.457
1195.537, 2609.504
1196.019, 2607.027
1196.501, 2602.600
1196.983, 2600.576
1197.466, 2603.132
1197.948, 2607.245
1198.430, 2607.370
1198.912, 2604.879
1199.394, 2602.282
1199.876, 2599.929
1200.358, 2598.397
1200.840, 2598.376
1201.323, 2598.056
1201.805, 2596.859
1202.287, 2594.881
1202.769, 2591.853
1203.251, 2588.323
1203.733, 2585.587
1204.215, 2584.175
1204.697, 2582.512
1205.179, 2580.425
1205.661, 2577.973
1206.144, 2575.101
1206.626, 2572.073
1207.108, 2569.452
1207.590, 2567.176
1208.072, 2565.004
1208.554, 2562.601
1209.036, 2561.403
1209.518, 2561.932
1210.001, 2562.834
1210.483, 2563.574
1210.965, 2564.027
1211.447, 2563.736
1211.929, 2562.943
1212.411, 2562.264
1212.893, 2562.228
1213.375, 2561.113
1213.858, 2557.893
1214.340, 2555.504
1214.822, 2556.275
1215.304, 2558.519
1215.786, 2558.399
1216.268, 2556.495
1216.750, 2554.054
1217.232, 2551.487
1217.714, 2548.184
1218.197, 2543.671
1218.679, 2539.362
1219.161, 2535.624
1219.643, 2533.075
1220.125, 2534.255
1220.607, 2537.427
1221.089, 2538.529
1221.571, 2534.406
1222.053, 2531.876
1222.536, 2531.884
1223.018, 2531.868
1223.500, 2529.541
1223.982, 2526.403
1224.464, 2524.769
1224.946, 2524.815
1225.428, 2526.955
1225.910, 2534.953
1226.393, 2538.848
1226.875, 2538.187
1227.357, 2534.435
1227.839, 2527.124
1228.321, 2518.372
1228.803, 2510.735
1229.285, 2504.496
1229.767, 2500.342
1230.250, 2498.730
1230.732, 2499.198
1231.214, 2502.471
1231.696, 2504.983
1232.178, 2503.793
1232.660, 2500.376
1233.142, 2495.825
1233.624, 2490.794
1234.106, 2486.831
1234.589, 2484.283
1235.071, 2482.689
1235.553, 2482.298
1236.035, 2481.500
1236.517, 2477.965
1236.999, 2474.238
1237.481, 2474.293
1237.963, 2476.229
1238.445, 2475.275
1238.928, 2469.359
1239.410, 2467.173
1239.892, 2469.376
1240.374, 2471.610
1240.856, 2470.456
1241.338, 2467.901
1241.820, 2464.892
1242.302, 2462.095
1242.785, 2461.035
1243.267, 2462.423
1243.749, 2461.737
1244.231, 2458.743
1244.713, 2455.622
1245.195, 2454.465
1245.677, 2453.287
1246.159, 2450.012
1246.641, 2445.968
1247.124, 2443.665
1247.606, 2443.267
1248.088, 2442.563
1248.570, 2441.468
1249.052, 2440.651
1249.534, 2440.439
1250.016, 2440.740
1250.498, 2442.504
1250.980, 2444.094
1251.463, 2443.010
1251.945, 2439.299
1252.427, 2436.688
1252.909, 2435.249
1253.391, 2433.953
1253.873, 2432.999
1254.355, 2431.085
1254.837, 2426.946
1255.320, 2422.167
1255.802, 2418.309
1256.284, 2415.364
1256.766, 2413.614
1257.248, 2412.914
1257.730, 2412.109
1258.212, 2409.906
1258.694, 2408.587
1259.177, 2409.495
1259.659, 2410.377
1260.141, 2407.993
1260.623, 2403.746
1261.105, 2403.380
1261.587, 2405.983
1262.069, 2406.429
1262.551, 2400.235
1263.033, 2395.118
1263.516, 2392.047
1263.998, 2390.215
1264.480, 2389.500
1264.962, 2389.141
1265.444, 2387.523
1265.926, 2384.833
1266.408, 2381.892
1266.890, 2377.701
1267.372, 2375.842
1267.855, 2377.109
1268.337, 2378.776
1268.819, 2378.546
1269.301, 2377.258
1269.783, 2375.761
1270.265, 2374.213
1270.747, 2372.969
1271.229, 2372.253
1271.712, 2371.115
1272.194, 2369.425
1272.676, 2367.868
1273.158, 2367.144
1273.640, 2366.573
1274.122, 2365.347
1274.604, 2363.825
1275.086, 2363.134
1275.568, 2363.846
1276.051, 2360.427
1276.533, 2352.651
1277.015, 2346.770
1277.497, 2348.857
1277.979, 2351.829
1278.461, 2351.698
1278.943, 2349.700
1279.425, 2347.222
1279.907, 2344.282
1280.390, 2341.654
1280.872, 2339.423
1281.354, 2338.011
1281.836, 2338.782
1282.318, 2338.962
1282.800, 2337.491
1283.282, 2335.148
1283.764, 2332.016
1284.247, 2328.483
1284.729, 2326.996
1285.211, 2327.088
1285.693, 2327.063
1286.175, 2326.447
1286.657, 2325.129
1287.139, 2322.685
1287.621, 2320.445
1288.104, 2319.667
1288.586, 2319.667
1289.068, 2319.510
1289.550, 2318.854
1290.032, 2316.874
1290.514, 2312.130
1290.996, 2308.512
1291.478, 2306.263
1291.960, 2304.188
1292.443, 2300.897
1292.925, 2298.018
1293.407, 2298.152
1293.889, 2299.815
1294.371, 2300.627
1294.853, 2300.392
1295.335, 2299.843
1295.817, 2298.992
1296.299, 2296.922
1296.782, 2292.347
1297.264, 2287.615
1297.746, 2284.507
1298.228, 2282.083
1298.710, 2279.363
1299.192, 2276.528
1299.674, 2274.738
1300.156, 2273.860
1300.639, 2272.671
1301.121, 2270.366
1301.603, 2268.577
1302.085, 2269.200
1302.567, 2270.101
1303.049, 2270.377
1303.531, 2269.636
##END=



