##NAMES=Roweite
##RRUFFID=R130073
##IDEAL CHEMISTRY=Ca_2_Mn^2+^_2_B_4_O_7_(OH)_6_
##LOCALITY=Solongo B deposit, Vitim Plateau, Buriatia (Buryatia) Republic, Transbaikalia (Zabaykalye), Eastern-Siberian Region, Russia
##OWNER=RRUFF
##SOURCE=Michael Scott
##DESCRIPTION=Yellow crystals, associated with calcite and colorless frolovite, R070469.
##STATUS=The identification of this mineral has been confirmed only by single crystal X-ray diffraction.
##URL=rruff.info/R130073
92.04205, 375.0593
92.52417, 381.7390
93.00629, 391.0000
93.48840, 400.2978
93.97052, 406.1046
94.45264, 405.9235
94.93475, 404.3785
95.41687, 403.4611
95.89898, 403.7950
96.38110, 404.7563
96.86321, 405.9327
97.34533, 406.8931
97.82745, 406.7369
98.30956, 406.1125
98.79168, 405.7460
99.27380, 404.5478
99.75591, 401.5981
100.2380, 397.4136
100.7201, 393.4760
101.2023, 390.5226
101.6844, 388.5594
102.1665, 387.0497
102.6486, 385.7769
103.1307, 385.0017
103.6128, 385.0110
104.0950, 385.8265
104.5771, 387.1393
105.0592, 388.7914
105.5413, 390.6593
106.0234, 392.6316
106.5055, 394.7420
106.9877, 396.9189
107.4698, 398.8358
107.9519, 399.8150
108.4340, 401.3794
108.9161, 404.1797
109.3982, 408.0189
109.8804, 412.3586
110.3625, 416.7675
110.8446, 421.1988
111.3267, 425.8306
111.8088, 431.5039
112.2909, 436.7104
112.7731, 440.9174
113.2552, 443.9419
113.7373, 445.8009
114.2194, 446.4972
114.7015, 445.8693
115.1836, 444.0031
115.6658, 440.9826
116.1479, 436.7779
116.6300, 431.1392
117.1121, 423.9159
117.5942, 415.6612
118.0763, 407.6844
118.5584, 400.2483
119.0406, 392.4885
119.5227, 383.9100
120.0048, 374.7874
120.4869, 365.7811
120.9690, 357.1768
121.4511, 348.9572
121.9333, 340.9476
122.4154, 333.2315
122.8975, 325.5770
123.3796, 317.6992
123.8617, 309.4896
124.3438, 301.7987
124.8260, 295.2303
125.3081, 289.3784
125.7902, 283.9660
126.2723, 278.9665
126.7544, 274.3487
127.2365, 270.1268
127.7187, 266.3887
128.2008, 262.9335
128.6829, 259.9718
129.1650, 257.1366
129.6471, 253.8915
130.1292, 249.7928
130.6114, 244.9421
131.0935, 240.8429
131.5756, 238.2216
132.0577, 235.6796
132.5398, 232.9108
133.0219, 229.9426
133.5041, 226.9367
133.9862, 223.9855
134.4683, 221.0213
134.9504, 218.6192
135.4325, 216.9911
135.9146, 215.6260
136.3968, 214.2517
136.8789, 212.8370
137.3610, 211.5229
137.8431, 210.5793
138.3252, 210.1515
138.8073, 209.1873
139.2895, 207.2478
139.7716, 204.8875
140.2537, 202.7361
140.7358, 200.9515
141.2179, 199.3340
141.7000, 197.5716
142.1821, 195.6706
142.6643, 194.0350
143.1464, 192.9272
143.6285, 192.2432
144.1106, 191.6124
144.5927, 191.0151
145.0748, 190.3803
145.5570, 189.5833
146.0391, 188.6292
146.5212, 187.7711
147.0033, 187.2993
147.4854, 187.2637
147.9675, 187.1178
148.4497, 186.5902
148.9318, 186.0223
149.4139, 185.5904
149.8960, 185.3342
150.3781, 185.1835
150.8602, 185.0733
151.3424, 185.1185
151.8245, 184.9297
152.3066, 184.4005
152.7887, 183.7166
153.2708, 182.9487
153.7529, 182.1386
154.2351, 181.3811
154.7172, 180.9220
155.1993, 181.1143
155.6814, 181.2113
156.1635, 181.1000
156.6456, 180.8974
157.1278, 180.7583
157.6099, 180.7646
158.0920, 180.8653
158.5741, 180.8394
159.0562, 180.3783
159.5383, 180.1460
160.0205, 180.4936
160.5026, 181.2080
160.9847, 181.7764
161.4668, 181.8578
161.9489, 181.5908
162.4310, 181.6189
162.9131, 182.0782
163.3953, 182.6686
163.8774, 183.2473
164.3595, 183.8167
164.8416, 184.3843
165.3237, 184.9335
165.8058, 185.4938
166.2880, 186.1221
166.7701, 186.8116
167.2522, 187.5861
167.7343, 188.4891
168.2164, 189.5378
168.6985, 190.6269
169.1807, 191.7954
169.6628, 192.9410
170.1449, 193.9468
170.6270, 194.8433
171.1091, 195.5244
171.5912, 195.6348
172.0734, 194.7214
172.5555, 194.0770
173.0376, 194.4139
173.5197, 195.2506
174.0018, 195.9162
174.4839, 196.0158
174.9661, 195.6231
175.4482, 195.1752
175.9303, 194.7271
176.4124, 194.1432
176.8945, 193.2159
177.3766, 192.1400
177.8588, 191.2877
178.3409, 190.9839
178.8230, 191.2354
179.3051, 191.0177
179.7872, 189.9315
180.2693, 188.7726
180.7515, 187.6980
181.2336, 186.7379
181.7157, 185.9050
182.1978, 185.2216
182.6799, 184.7089
183.1620, 184.1357
183.6441, 183.4210
184.1263, 182.7290
184.6084, 182.1733
185.0905, 181.7365
185.5726, 181.2956
186.0547, 180.7310
186.5368, 180.0190
187.0190, 179.3874
187.5011, 178.9177
187.9832, 178.4737
188.4653, 177.8923
188.9474, 177.1702
189.4296, 176.5474
189.9117, 176.3238
190.3938, 176.4899
190.8759, 176.5362
191.3580, 176.2521
191.8401, 175.8955
192.3223, 175.7674
192.8044, 175.9226
193.2865, 176.1979
193.7686, 176.5093
194.2507, 176.8345
194.7328, 177.0771
195.2150, 177.2600
195.6971, 177.3322
196.1792, 177.0870
196.6613, 176.2748
197.1434, 175.6704
197.6255, 176.1188
198.1077, 177.2474
198.5898, 178.0939
199.0719, 177.8978
199.5540, 176.9457
200.0361, 176.5281
200.5182, 177.0931
201.0004, 177.6179
201.4825, 177.5325
201.9646, 176.9805
202.4467, 176.3276
202.9288, 175.8207
203.4109, 175.4480
203.8930, 175.0190
204.3752, 174.5540
204.8573, 174.0024
205.3394, 173.2288
205.8215, 172.3447
206.3036, 171.5956
206.7857, 171.2111
207.2679, 171.2105
207.7500, 171.1991
208.2321, 171.1446
208.7142, 171.1085
209.1963, 171.0863
209.6784, 171.0956
210.1606, 171.1820
210.6427, 171.4121
211.1248, 171.8220
211.6069, 172.0308
212.0890, 171.7669
212.5711, 171.5717
213.0533, 171.6992
213.5354, 172.1055
214.0175, 172.5844
214.4996, 172.9502
214.9817, 173.1838
215.4638, 173.4340
215.9460, 173.8192
216.4281, 174.1175
216.9102, 174.1657
217.3923, 173.9992
217.8744, 173.8094
218.3565, 173.7818
218.8387, 173.9470
219.3208, 173.9759
219.8029, 173.4643
220.2850, 173.1534
220.7671, 173.7018
221.2492, 175.0313
221.7314, 176.3401
222.2135, 176.9043
222.6956, 176.6579
223.1777, 176.6508
223.6598, 177.0978
224.1419, 177.6232
224.6240, 177.9163
225.1062, 177.9703
225.5883, 178.0366
226.0704, 178.3882
226.5525, 178.9583
227.0346, 179.2495
227.5167, 178.9895
227.9989, 178.5888
228.4810, 178.3943
228.9631, 178.4238
229.4452, 178.5979
229.9273, 178.8882
230.4094, 179.2874
230.8916, 179.7748
231.3737, 180.3918
231.8558, 181.0704
232.3379, 181.8174
232.8200, 182.6740
233.3021, 183.3053
233.7843, 183.2715
234.2664, 182.9075
234.7485, 182.7053
235.2306, 182.7695
235.7127, 183.0634
236.1948, 183.6084
236.6770, 184.4811
237.1591, 185.2989
237.6412, 185.8494
238.1233, 186.2424
238.6054, 186.5870
239.0875, 186.9282
239.5697, 187.2184
240.0518, 187.3648
240.5339, 187.3328
241.0160, 187.2675
241.4981, 187.4040
241.9802, 187.4641
242.4624, 187.0930
242.9445, 186.0955
243.4266, 184.8540
243.9087, 184.0768
244.3908, 183.9876
244.8729, 183.7526
245.3550, 183.1318
245.8372, 182.2890
246.3193, 181.3353
246.8014, 180.3036
247.2835, 179.2033
247.7656, 177.9883
248.2477, 176.5218
248.7299, 175.2891
249.2120, 174.4502
249.6941, 173.8017
250.1762, 173.2081
250.6583, 172.6254
251.1404, 172.0799
251.6226, 171.6169
252.1047, 171.2740
252.5868, 170.9394
253.0689, 170.6461
253.5510, 170.3298
254.0331, 169.8626
254.5153, 169.2442
254.9974, 168.6843
255.4795, 168.5524
255.9616, 169.1750
256.4437, 169.5224
256.9258, 169.3528
257.4080, 169.1162
257.8901, 169.1187
258.3722, 169.4084
258.8543, 169.8161
259.3364, 170.1216
259.8185, 170.3052
260.3007, 170.4230
260.7828, 170.3875
261.2649, 170.3673
261.7470, 170.4449
262.2291, 170.6399
262.7112, 170.9481
263.1934, 171.3847
263.6755, 172.0187
264.1576, 172.5228
264.6397, 172.8921
265.1218, 173.1631
265.6039, 173.3647
266.0861, 173.4907
266.5682, 173.4885
267.0503, 173.2713
267.5324, 172.7611
268.0145, 172.5687
268.4966, 172.9894
268.9788, 173.3920
269.4609, 173.4163
269.9430, 173.1199
270.4251, 172.7998
270.9072, 172.6971
271.3893, 172.8202
271.8715, 172.9464
272.3536, 173.3388
272.8357, 173.4829
273.3178, 172.9145
273.7999, 171.8788
274.2820, 171.0816
274.7642, 171.0555
275.2463, 171.7051
275.7284, 171.8337
276.2105, 170.9793
276.6926, 170.2346
277.1747, 170.0579
277.6568, 170.2691
278.1389, 170.4496
278.6211, 170.3723
279.1032, 170.0928
279.5853, 169.8411
280.0674, 169.5895
280.5495, 169.3893
281.0316, 169.3490
281.5138, 169.3585
281.9959, 169.1838
282.4780, 168.6977
282.9601, 168.0589
283.4422, 167.6968
283.9243, 167.7149
284.4065, 167.7579
284.8886, 167.7361
285.3707, 167.7020
285.8528, 167.7959
286.3349, 168.0917
286.8170, 168.3553
287.2992, 168.1328
287.7813, 167.2783
288.2634, 166.4920
288.7455, 165.7326
289.2276, 165.1603
289.7097, 165.1127
290.1919, 165.6868
290.6740, 166.3426
291.1561, 166.3350
291.6382, 165.5373
292.1203, 165.0833
292.6024, 165.4355
293.0846, 165.9814
293.5667, 166.0413
294.0488, 165.5367
294.5309, 165.0277
295.0130, 165.1126
295.4951, 165.7934
295.9773, 166.0748
296.4594, 165.5090
296.9415, 164.8303
297.4236, 164.6629
297.9057, 164.9951
298.3878, 165.3444
298.8700, 165.3382
299.3521, 165.0545
299.8342, 165.0225
300.3163, 165.6111
300.7984, 166.1115
301.2805, 165.9831
301.7627, 165.3559
302.2448, 164.8425
302.7269, 164.7844
303.2090, 165.0473
303.6911, 165.2036
304.1732, 165.2374
304.6554, 165.2102
305.1375, 165.0365
305.6196, 164.8155
306.1017, 164.8521
306.5838, 165.3345
307.0659, 165.9929
307.5481, 166.2683
308.0302, 166.0879
308.5123, 165.9311
308.9944, 165.9237
309.4765, 166.0452
309.9586, 166.2688
310.4408, 166.5902
310.9229, 166.9944
311.4050, 167.4212
311.8871, 167.8474
312.3692, 168.5426
312.8513, 169.7611
313.3335, 171.1826
313.8156, 172.4827
314.2977, 173.6145
314.7798, 174.5571
315.2619, 175.1978
315.7440, 175.5681
316.2262, 176.1417
316.7083, 177.1254
317.1904, 178.2064
317.6725, 179.0639
318.1546, 179.7162
318.6367, 180.4981
319.1188, 181.6710
319.6010, 183.1642
320.0831, 184.5747
320.5652, 185.9847
321.0473, 187.2437
321.5294, 188.1872
322.0115, 188.8887
322.4937, 189.6313
322.9758, 190.5555
323.4579, 191.5831
323.9400, 192.4761
324.4221, 193.1402
324.9042, 193.9005
325.3864, 194.9749
325.8685, 196.2112
326.3506, 197.3760
326.8327, 198.4286
327.3148, 199.2759
327.7969, 199.7204
328.2791, 199.7378
328.7612, 199.6384
329.2433, 199.3380
329.7254, 199.0136
330.2075, 198.9630
330.6896, 199.2381
331.1718, 199.4352
331.6539, 199.0929
332.1360, 198.1582
332.6181, 197.4124
333.1002, 197.1443
333.5823, 196.8758
334.0645, 196.2609
334.5466, 195.3029
335.0287, 194.1597
335.5108, 192.9137
335.9929, 191.5731
336.4750, 190.2579
336.9572, 189.0585
337.4393, 187.7730
337.9214, 186.0623
338.4035, 184.1855
338.8856, 182.9260
339.3677, 182.7895
339.8499, 183.1554
340.3320, 182.2181
340.8141, 179.0397
341.2962, 176.4634
341.7783, 175.2354
342.2604, 174.8264
342.7426, 174.6970
343.2247, 174.6949
343.7068, 174.6540
344.1889, 174.3204
344.6710, 173.5312
345.1531, 172.9168
345.6353, 172.4124
346.1174, 172.1370
346.5995, 172.2276
347.0816, 172.6697
347.5637, 173.3227
348.0458, 174.0919
348.5280, 174.9906
349.0101, 175.7308
349.4922, 176.1657
349.9743, 176.6186
350.4564, 177.1208
350.9385, 177.7426
351.4207, 178.6671
351.9028, 180.0317
352.3849, 181.7008
352.8670, 183.1036
353.3491, 183.8542
353.8312, 184.8150
354.3134, 186.1945
354.7955, 187.7945
355.2776, 189.5238
355.7597, 191.3276
356.2418, 192.9156
356.7239, 193.7600
357.2061, 193.2486
357.6882, 193.2277
358.1703, 194.0531
358.6524, 195.0528
359.1345, 195.7874
359.6166, 196.2161
360.0987, 196.5266
360.5808, 196.8978
361.0630, 197.3349
361.5451, 197.7776
362.0272, 198.2050
362.5093, 198.6567
362.9914, 199.1496
363.4735, 199.6783
363.9557, 200.2505
364.4378, 200.8874
364.9199, 201.5278
365.4020, 201.9029
365.8841, 201.8129
366.3662, 201.7129
366.8484, 201.6680
367.3305, 201.6351
367.8126, 201.6025
368.2947, 201.5579
368.7768, 201.4322
369.2589, 201.1420
369.7411, 200.7461
370.2232, 200.0015
370.7053, 198.6974
371.1874, 197.2370
371.6695, 195.7383
372.1516, 194.2581
372.6338, 192.8589
373.1159, 191.7071
373.5980, 190.7831
374.0801, 189.2809
374.5622, 186.4623
375.0443, 183.9675
375.5265, 182.6600
376.0086, 181.9346
376.4907, 180.8286
376.9728, 178.8023
377.4549, 176.2843
377.9370, 174.1924
378.4192, 172.5828
378.9013, 171.2539
379.3834, 170.4533
379.8655, 169.7239
380.3476, 168.6840
380.8297, 167.2607
381.3119, 165.7214
381.7940, 164.3165
382.2761, 163.0418
382.7582, 161.8069
383.2403, 160.4642
383.7224, 159.3467
384.2046, 158.7661
384.6867, 158.5964
385.1688, 158.3648
385.6509, 157.7956
386.1330, 156.9964
386.6151, 156.1506
387.0973, 155.2023
387.5794, 154.4179
388.0615, 154.0612
388.5436, 153.9361
389.0257, 153.7998
389.5078, 153.6582
389.9900, 153.4002
390.4721, 152.7436
390.9542, 151.7747
391.4363, 151.2289
391.9184, 151.4720
392.4005, 152.0981
392.8827, 152.6181
393.3648, 153.0577
393.8469, 153.2245
394.3290, 152.8835
394.8111, 152.2747
395.2932, 151.7407
395.7754, 151.3196
396.2575, 151.0515
396.7396, 151.0429
397.2217, 151.2631
397.7038, 151.3223
398.1859, 151.0164
398.6681, 150.7103
399.1501, 150.7184
399.6323, 150.9494
400.1144, 151.0584
400.5965, 150.8664
401.0786, 150.4519
401.5607, 150.0312
402.0428, 149.5871
402.5250, 149.1643
403.0071, 148.7534
403.4892, 148.3741
403.9713, 148.1038
404.4534, 147.9466
404.9355, 147.7302
405.4177, 147.2253
405.8998, 146.3382
406.3819, 145.6504
406.8640, 145.2634
407.3461, 144.9538
407.8282, 144.6248
408.3104, 144.2807
408.7925, 143.9504
409.2746, 143.6437
409.7567, 143.3760
410.2388, 143.2135
410.7209, 143.2740
411.2031, 143.2925
411.6852, 143.1198
412.1673, 142.9648
412.6494, 143.0435
413.1315, 143.4035
413.6136, 143.9136
414.0958, 144.4441
414.5779, 145.0612
415.0600, 145.4387
415.5421, 145.2097
416.0242, 145.0780
416.5063, 145.3838
416.9885, 146.0160
417.4706, 146.6563
417.9527, 147.0923
418.4348, 147.4012
418.9169, 147.8740
419.3990, 148.6010
419.8812, 149.2870
420.3633, 149.9328
420.8454, 150.4486
421.3275, 150.6715
421.8096, 150.5526
422.2917, 150.4037
422.7739, 150.5738
423.2560, 151.0451
423.7381, 151.4737
424.2202, 151.8461
424.7023, 152.1035
425.1844, 152.1203
425.6666, 151.9752
426.1487, 151.9611
426.6308, 152.3759
427.1129, 152.9127
427.5950, 153.0437
428.0771, 152.7410
428.5593, 152.5221
429.0414, 152.7907
429.5235, 153.2494
430.0056, 153.2418
430.4877, 152.5973
430.9698, 151.8734
431.4520, 151.2746
431.9341, 150.8042
432.4162, 150.5471
432.8983, 150.5635
433.3804, 150.5134
433.8625, 149.8992
434.3447, 148.6036
434.8268, 147.7864
435.3089, 148.0386
435.7910, 148.3083
436.2731, 147.7905
436.7552, 146.6542
437.2374, 145.5961
437.7195, 145.0314
438.2016, 144.8277
438.6837, 144.4937
439.1658, 143.9545
439.6479, 143.3758
440.1301, 142.7081
440.6122, 142.0420
441.0943, 141.4687
441.5764, 141.0071
442.0585, 140.6076
442.5406, 140.2111
443.0227, 139.8027
443.5049, 139.5051
443.9870, 139.5097
444.4691, 139.4289
444.9512, 139.0170
445.4333, 138.4649
445.9154, 138.0943
446.3976, 138.0824
446.8797, 138.2927
447.3618, 138.4161
447.8439, 138.3939
448.3260, 138.4590
448.8081, 138.7317
449.2903, 139.0495
449.7724, 139.2589
450.2545, 139.3785
450.7366, 139.6234
451.2187, 140.2804
451.7008, 141.2232
452.1830, 141.8882
452.6651, 142.2104
453.1472, 142.3834
453.6293, 142.5335
454.1114, 142.6005
454.5935, 142.4659
455.0757, 142.0605
455.5578, 141.5353
456.0399, 141.0043
456.5220, 140.4582
457.0041, 139.8284
457.4862, 139.0615
457.9684, 138.2755
458.4505, 137.6446
458.9326, 137.1675
459.4147, 136.6612
459.8968, 135.9805
460.3789, 135.3426
460.8611, 134.9454
461.3432, 134.7791
461.8253, 134.7584
462.3074, 134.8876
462.7895, 135.0660
463.2716, 134.8623
463.7538, 133.7314
464.2359, 132.9579
464.7180, 132.9859
465.2001, 133.2715
465.6822, 133.1946
466.1643, 132.6697
466.6465, 132.1349
467.1286, 132.0993
467.6107, 132.6346
468.0928, 132.9681
468.5749, 132.9586
469.0570, 132.8909
469.5392, 132.7421
470.0213, 132.6077
470.5034, 132.5860
470.9855, 132.7154
471.4676, 133.0473
471.9497, 133.7915
472.4319, 135.1293
472.9140, 136.0752
473.3961, 136.1537
473.8782, 136.0716
474.3603, 136.2287
474.8424, 136.5900
475.3246, 136.9130
475.8067, 137.0492
476.2888, 137.0515
476.7709, 137.0036
477.2530, 136.8868
477.7351, 136.8418
478.2173, 136.9556
478.6994, 137.1748
479.1815, 137.4770
479.6636, 137.9666
480.1457, 138.1496
480.6278, 137.5559
481.1100, 136.5421
481.5920, 135.7398
482.0742, 135.2607
482.5563, 134.9391
483.0384, 134.6499
483.5205, 134.3936
484.0026, 134.1362
484.4847, 133.7860
484.9669, 133.5323
485.4490, 133.6193
485.9311, 133.8184
486.4132, 133.6352
486.8953, 132.8903
487.3774, 132.0319
487.8596, 131.8470
488.3417, 132.7486
488.8238, 133.1870
489.3059, 132.8423
489.7880, 132.4217
490.2701, 132.0915
490.7523, 131.9704
491.2344, 132.2962
491.7165, 133.2862
492.1986, 134.6046
492.6807, 135.2681
493.1628, 134.9985
493.6450, 134.8411
494.1271, 134.9956
494.6092, 135.3508
495.0913, 135.9295
495.5734, 136.6918
496.0555, 137.4146
496.5377, 137.8155
497.0198, 138.0654
497.5019, 138.6758
497.9840, 139.7266
498.4661, 140.8168
498.9482, 141.7910
499.4304, 142.6462
499.9125, 143.3338
500.3946, 143.6907
500.8767, 144.2809
501.3588, 145.4492
501.8409, 147.0258
502.3231, 148.7053
502.8052, 150.4205
503.2873, 152.3460
503.7694, 154.6397
504.2515, 157.3347
504.7336, 160.2639
505.2158, 163.4902
505.6979, 166.8479
506.1800, 169.9782
506.6621, 173.2958
507.1442, 177.4416
507.6263, 182.6360
508.1085, 188.5329
508.5906, 194.6451
509.0727, 201.1245
509.5548, 207.2867
510.0369, 213.1223
510.5190, 218.6288
511.0012, 224.4300
511.4833, 229.8259
511.9654, 233.6146
512.4475, 235.2214
512.9296, 234.8622
513.4117, 232.7834
513.8939, 228.8840
514.3760, 223.9467
514.8581, 217.7637
515.3402, 210.8663
515.8223, 203.4470
516.3044, 195.6526
516.7866, 188.3853
517.2687, 182.0939
517.7508, 176.4601
518.2329, 171.0436
518.7150, 165.8558
519.1971, 161.1298
519.6793, 156.9388
520.1614, 153.3122
520.6435, 150.5069
521.1256, 148.6684
521.6077, 146.9738
522.0898, 145.2902
522.5720, 143.7007
523.0541, 142.2711
523.5362, 141.0188
524.0183, 139.9375
524.5004, 139.0273
524.9825, 138.2937
525.4647, 137.7465
525.9468, 137.3689
526.4289, 137.2375
526.9110, 137.6965
527.3931, 138.1566
527.8752, 137.9567
528.3574, 137.1461
528.8395, 136.5018
529.3216, 136.8807
529.8037, 138.0477
530.2858, 138.4982
530.7679, 137.9310
531.2501, 137.3415
531.7322, 137.1366
532.2143, 137.1386
532.6964, 137.1861
533.1785, 137.2560
533.6606, 137.3728
534.1428, 137.4958
534.6249, 137.6878
535.1070, 138.1303
535.5891, 138.8617
536.0712, 139.6348
536.5533, 140.2503
537.0355, 140.7462
537.5176, 141.3481
537.9997, 141.8343
538.4818, 142.6850
538.9639, 144.2018
539.4460, 146.0857
539.9282, 148.0343
540.4103, 149.9525
540.8924, 151.8080
541.3745, 153.5434
541.8566, 155.1534
542.3387, 156.8219
542.8209, 158.4789
543.3029, 160.2769
543.7850, 162.4454
544.2672, 164.6696
544.7493, 166.7677
545.2314, 168.6539
545.7135, 169.8849
546.1956, 169.8206
546.6777, 168.5425
547.1599, 167.0177
547.6420, 165.3345
548.1241, 163.3364
548.6062, 160.9055
549.0883, 158.0983
549.5704, 154.8557
550.0526, 150.9366
550.5347, 147.1040
551.0168, 143.8593
551.4989, 141.0289
551.9810, 138.1812
552.4631, 135.2194
552.9453, 132.4987
553.4274, 130.3752
553.9095, 128.8472
554.3916, 127.4462
554.8737, 126.3258
555.3558, 125.1288
555.8380, 123.4351
556.3201, 121.7474
556.8022, 120.8075
557.2843, 120.7453
557.7664, 120.9609
558.2485, 120.7542
558.7307, 120.1080
559.2128, 119.5836
559.6949, 119.2929
560.1770, 118.9714
560.6591, 118.4596
561.1412, 117.9024
561.6234, 117.4642
562.1055, 117.1884
562.5876, 117.0289
563.0697, 116.9474
563.5518, 116.9502
564.0339, 117.1063
564.5161, 117.4669
564.9982, 117.7543
565.4803, 117.7077
565.9624, 117.4218
566.4445, 117.3375
566.9266, 117.6307
567.4088, 117.8734
567.8909, 117.8098
568.3730, 117.6675
568.8551, 117.7746
569.3372, 118.1635
569.8193, 118.5664
570.3015, 118.6957
570.7836, 118.5834
571.2657, 118.8539
571.7478, 120.0118
572.2299, 120.8766
572.7120, 120.8716
573.1942, 120.7541
573.6763, 121.3394
574.1584, 122.6937
574.6405, 124.0940
575.1226, 124.8760
575.6047, 125.1769
576.0869, 125.4815
576.5690, 125.7005
577.0511, 126.3122
577.5332, 127.7622
578.0153, 129.6199
578.4974, 131.0643
578.9796, 131.8890
579.4617, 133.1786
579.9438, 135.7043
580.4259, 138.6921
580.9080, 141.2075
581.3901, 143.2486
581.8723, 145.3922
582.3544, 147.9580
582.8365, 150.9862
583.3186, 154.6405
583.8007, 159.5717
584.2828, 164.1760
584.7650, 168.1494
585.2471, 172.0617
585.7292, 176.0983
586.2113, 180.4051
586.6934, 185.2171
587.1755, 190.6721
587.6577, 196.7309
588.1398, 203.1507
588.6219, 209.8563
589.1040, 217.5268
589.5861, 226.3830
590.0682, 236.3086
590.5504, 246.8603
591.0325, 258.1189
591.5146, 270.6613
591.9967, 284.4615
592.4788, 299.7416
592.9609, 316.7949
593.4431, 335.3474
593.9252, 355.0020
594.4073, 375.6301
594.8894, 396.5288
595.3715, 416.9795
595.8536, 437.3578
596.3358, 455.5995
596.8179, 473.3226
597.3000, 487.4776
597.7821, 497.7616
598.2642, 503.5755
598.7463, 504.3496
599.2285, 499.8646
599.7106, 490.1381
600.1927, 474.1519
600.6748, 452.0327
601.1569, 428.8177
601.6390, 404.2993
602.1212, 379.7326
602.6033, 355.2106
603.0854, 331.3432
603.5675, 309.5647
604.0496, 289.9007
604.5317, 272.4561
605.0139, 257.6349
605.4960, 244.7929
605.9781, 232.9782
606.4602, 222.1403
606.9423, 212.9290
607.4244, 205.9314
607.9066, 200.9066
608.3887, 196.7143
608.8708, 193.4509
609.3529, 190.9992
609.8350, 189.4077
610.3171, 188.5501
610.7993, 188.7969
611.2814, 189.7566
611.7635, 190.3551
612.2456, 189.9339
612.7277, 188.7034
613.2098, 187.1265
613.6920, 185.2168
614.1741, 182.6330
614.6562, 179.1178
615.1383, 175.1028
615.6204, 170.8992
616.1025, 166.5254
616.5847, 162.1134
617.0668, 157.4330
617.5489, 152.9807
618.0310, 149.0484
618.5131, 145.5843
618.9952, 142.5014
619.4774, 139.7658
619.9595, 137.2576
620.4416, 134.8158
620.9237, 132.4075
621.4058, 130.4418
621.8879, 129.3432
622.3701, 128.1801
622.8522, 126.6549
623.3343, 125.0398
623.8164, 123.5778
624.2985, 122.3372
624.7806, 121.3387
625.2628, 120.7524
625.7448, 120.4057
626.2269, 119.7810
626.7090, 118.8344
627.1912, 117.9999
627.6733, 117.4642
628.1554, 117.1605
628.6375, 117.0504
629.1196, 117.2446
629.6017, 117.1052
630.0839, 116.2118
630.5660, 115.2461
631.0481, 114.6889
631.5302, 114.4440
632.0123, 114.2266
632.4944, 113.9080
632.9766, 113.4851
633.4587, 112.9051
633.9408, 112.0940
634.4229, 111.5022
634.9050, 111.2732
635.3871, 111.0941
635.8693, 110.8343
636.3514, 110.5303
636.8335, 110.2323
637.3156, 109.9488
637.7977, 109.6930
638.2798, 109.5517
638.7620, 109.4236
639.2441, 109.0259
639.7262, 108.3457
640.2083, 107.8257
640.6904, 107.8052
641.1725, 108.0988
641.6547, 108.0785
642.1368, 107.1509
642.6189, 106.7998
643.1010, 107.4952
643.5831, 108.3445
644.0652, 108.9010
644.5474, 109.1260
645.0295, 109.0650
645.5116, 108.7108
645.9937, 108.2295
646.4758, 107.8536
646.9579, 107.5833
647.4401, 107.4782
647.9222, 107.6098
648.4043, 107.7794
648.8864, 107.8999
649.3685, 107.9370
649.8506, 107.7595
650.3328, 107.0952
650.8149, 106.6230
651.2970, 106.7604
651.7791, 107.1525
652.2612, 107.4122
652.7433, 107.4805
653.2255, 107.4437
653.7076, 107.3565
654.1897, 107.2333
654.6718, 107.1105
655.1539, 106.9223
655.6360, 106.8937
656.1182, 107.1409
656.6003, 107.4869
657.0824, 107.9657
657.5645, 108.4739
658.0466, 108.7004
658.5287, 108.3464
659.0109, 107.9603
659.4930, 108.1340
659.9751, 108.6874
660.4572, 109.1491
660.9393, 109.4190
661.4214, 109.5134
661.9036, 109.3980
662.3857, 109.1107
662.8678, 109.0586
663.3499, 109.7465
663.8320, 109.9980
664.3141, 109.2131
664.7963, 108.3395
665.2784, 108.1297
665.7605, 108.5611
666.2426, 109.2036
666.7247, 109.8787
667.2068, 110.4738
667.6890, 110.7692
668.1711, 110.7711
668.6532, 110.6284
669.1353, 110.2495
669.6174, 110.0423
670.0995, 110.5574
670.5817, 111.6883
671.0638, 112.3146
671.5459, 112.0162
672.0280, 111.7066
672.5101, 111.6556
672.9922, 111.7478
673.4744, 111.8275
673.9565, 111.8990
674.4386, 112.1380
674.9207, 112.7357
675.4028, 113.5068
675.8849, 113.8018
676.3671, 113.5022
676.8492, 113.2350
677.3313, 112.9819
677.8134, 112.9619
678.2955, 113.5365
678.7776, 114.5023
679.2598, 115.1086
679.7419, 114.8816
680.2240, 114.6451
680.7061, 114.9724
681.1882, 115.5692
681.6703, 115.9580
682.1525, 116.0692
682.6346, 116.1502
683.1167, 116.4050
683.5988, 116.7963
684.0809, 117.1590
684.5630, 117.5618
685.0452, 117.7845
685.5273, 117.5541
686.0094, 117.3486
686.4915, 117.5497
686.9736, 118.0119
687.4557, 118.2656
687.9379, 118.0480
688.4200, 117.7186
688.9021, 117.5811
689.3842, 117.5772
689.8663, 117.5767
690.3484, 117.5555
690.8306, 117.5345
691.3127, 117.5053
691.7948, 117.5080
692.2769, 117.7593
692.7590, 118.5619
693.2411, 119.1292
693.7233, 119.2513
694.2054, 119.3021
694.6875, 119.4581
695.1696, 119.7362
695.6517, 120.1714
696.1339, 120.8729
696.6160, 121.4434
697.0981, 121.2634
697.5802, 120.5711
698.0623, 120.2065
698.5444, 120.3037
699.0266, 120.6350
699.5087, 121.1005
699.9908, 121.6403
700.4729, 122.0199
700.9550, 122.1171
701.4371, 122.2314
701.9193, 122.4693
702.4014, 122.6288
702.8835, 122.4320
703.3656, 122.0837
703.8477, 122.0855
704.3298, 122.6901
704.8120, 123.3592
705.2941, 123.4033
705.7762, 122.9242
706.2583, 122.3464
706.7404, 121.6711
707.2225, 121.1999
707.7046, 121.2142
708.1867, 121.4703
708.6688, 121.3189
709.1509, 120.5546
709.6331, 119.9313
710.1152, 119.5127
710.5973, 119.2291
711.0794, 119.1043
711.5615, 119.0669
712.0436, 119.0078
712.5258, 118.8866
713.0079, 118.7425
713.4900, 118.6505
713.9721, 118.5834
714.4542, 118.3866
714.9363, 118.0531
715.4185, 117.5980
715.9006, 116.9483
716.3827, 116.2687
716.8648, 115.9255
717.3469, 116.0433
717.8290, 115.7373
718.3112, 114.3687
718.7933, 113.1657
719.2754, 112.8902
719.7575, 113.1030
720.2396, 113.0861
720.7217, 112.6850
721.2039, 112.3837
721.6860, 112.8298
722.1681, 113.7207
722.6502, 113.7269
723.1323, 112.7184
723.6144, 111.9203
724.0966, 111.7824
724.5787, 111.9185
725.0608, 111.9535
725.5429, 111.8858
726.0250, 111.6273
726.5071, 110.8105
726.9893, 110.2370
727.4714, 110.3514
727.9535, 110.7687
728.4356, 111.1043
728.9177, 111.2811
729.3998, 111.3610
729.8820, 111.3671
730.3641, 111.3457
730.8462, 111.4398
731.3283, 111.6570
731.8104, 111.7290
732.2925, 111.5509
732.7747, 111.3363
733.2568, 111.2242
733.7389, 111.2222
734.2210, 111.3411
734.7031, 111.6710
735.1852, 111.9780
735.6674, 112.2975
736.1495, 112.5096
736.6316, 112.4234
737.1137, 112.1446
737.5958, 111.9862
738.0779, 112.1119
738.5601, 112.3235
739.0422, 112.3879
739.5243, 112.2954
740.0064, 111.8508
740.4885, 110.9235
740.9706, 110.1951
741.4528, 110.1339
741.9349, 110.4534
742.4170, 110.5490
742.8991, 110.4350
743.3812, 110.0877
743.8633, 109.1546
744.3455, 108.3531
744.8276, 108.1588
745.3097, 108.3091
745.7918, 108.3817
746.2739, 108.2578
746.7560, 108.1060
747.2382, 108.0708
747.7203, 108.1380
748.2024, 108.2459
748.6845, 108.3927
749.1666, 108.7632
749.6487, 109.5734
750.1309, 110.2390
750.6130, 109.9469
751.0951, 108.6176
751.5772, 107.8499
752.0593, 107.8711
752.5414, 108.1061
753.0236, 108.6459
753.5057, 109.1879
753.9878, 109.4186
754.4699, 109.3761
754.9520, 109.3496
755.4341, 109.5075
755.9163, 109.7471
756.3984, 110.0117
756.8805, 110.2479
757.3626, 110.0982
757.8447, 109.4684
758.3268, 109.0644
758.8090, 109.4781
759.2911, 110.4055
759.7732, 110.8169
760.2553, 110.3169
760.7374, 110.0215
761.2195, 110.1224
761.7017, 110.2162
762.1838, 109.9495
762.6659, 109.6097
763.1480, 109.7600
763.6301, 110.5785
764.1122, 111.3045
764.5944, 111.1920
765.0765, 110.7269
765.5586, 110.7330
766.0407, 111.1457
766.5228, 111.3503
767.0049, 111.0855
767.4871, 110.8549
767.9692, 111.3741
768.4513, 112.6882
768.9334, 113.6654
769.4155, 114.1673
769.8976, 114.5538
770.3798, 114.7589
770.8619, 114.9965
771.3440, 115.3799
771.8261, 115.9358
772.3082, 116.7387
772.7903, 117.9784
773.2725, 119.2516
773.7546, 120.0908
774.2367, 120.8590
774.7188, 122.1724
775.2009, 124.0595
775.6830, 126.1387
776.1652, 128.1907
776.6473, 130.1734
777.1294, 131.8700
777.6115, 133.1561
778.0936, 135.0111
778.5757, 137.5409
779.0579, 140.5735
779.5400, 144.1723
780.0221, 148.1572
780.5042, 152.0912
780.9863, 155.8558
781.4684, 160.2611
781.9506, 165.5238
782.4327, 171.4589
782.9148, 177.8841
783.3969, 184.9544
783.8790, 193.1951
784.3611, 202.5838
784.8433, 211.9687
785.3254, 220.1174
785.8075, 227.5650
786.2896, 236.2370
786.7717, 246.1409
787.2538, 254.7368
787.7360, 261.6412
788.2181, 266.3199
788.7002, 268.1652
789.1823, 267.2785
789.6644, 264.4388
790.1465, 259.9087
790.6286, 253.1294
791.1107, 242.9162
791.5928, 231.4937
792.0750, 219.5971
792.5571, 207.7396
793.0392, 196.4145
793.5213, 185.8005
794.0034, 176.0783
794.4855, 167.4572
794.9677, 159.8047
795.4498, 152.9086
795.9319, 146.7621
796.4140, 141.7534
796.8961, 138.0538
797.3782, 135.1848
797.8604, 132.5467
798.3425, 130.1326
798.8246, 127.7594
799.3067, 125.2286
799.7888, 123.0815
800.2709, 121.5566
800.7531, 120.3946
801.2352, 119.5099
801.7173, 118.8580
802.1994, 118.2931
802.6815, 117.8211
803.1636, 117.3651
803.6458, 116.7782
804.1279, 116.2591
804.6100, 116.1377
805.0921, 116.3294
805.5742, 116.4658
806.0563, 116.3517
806.5385, 116.0363
807.0206, 115.4713
807.5027, 114.6996
807.9848, 114.3821
808.4669, 114.6189
808.9490, 114.9374
809.4312, 115.1581
809.9133, 115.3143
810.3954, 115.4653
810.8775, 115.6265
811.3596, 115.6631
811.8417, 115.4816
812.3239, 115.2973
812.8060, 115.2087
813.2881, 115.1151
813.7702, 114.9263
814.2523, 114.6391
814.7344, 114.2831
815.2166, 113.8251
815.6987, 113.4076
816.1808, 113.2227
816.6629, 113.1842
817.1450, 113.0175
817.6271, 112.7366
818.1093, 112.7796
818.5914, 113.4301
819.0735, 114.3468
819.5556, 114.8636
820.0377, 114.9197
820.5198, 114.9075
821.0020, 114.5727
821.4841, 114.6528
821.9662, 115.6416
822.4483, 117.0346
822.9304, 118.3534
823.4125, 119.5876
823.8947, 120.6328
824.3768, 121.3711
824.8589, 122.0282
825.3410, 122.7035
825.8231, 123.3546
826.3052, 123.8488
826.7874, 124.2561
827.2695, 124.9092
827.7516, 126.0727
828.2337, 127.2046
828.7158, 127.4701
829.1979, 127.0360
829.6801, 126.6217
830.1622, 126.2939
830.6443, 125.7305
831.1264, 124.7683
831.6085, 123.4885
832.0906, 121.9617
832.5728, 120.1224
833.0549, 118.5674
833.5370, 117.5136
834.0191, 116.4489
834.5012, 115.2004
834.9833, 113.9526
835.4655, 112.7816
835.9476, 111.7295
836.4297, 110.9223
836.9118, 110.5125
837.3939, 110.1743
837.8760, 109.7518
838.3582, 109.2901
838.8403, 108.7773
839.3224, 108.2732
839.8045, 107.9900
840.2866, 108.0314
840.7687, 108.0745
841.2509, 107.5117
841.7330, 106.5177
842.2151, 106.2169
842.6972, 106.6754
843.1793, 106.9828
843.6614, 106.7111
844.1436, 106.4712
844.6257, 107.0697
845.1078, 108.4758
845.5899, 109.3190
846.0720, 109.3120
846.5541, 109.1372
847.0363, 108.5575
847.5184, 108.1120
848.0005, 108.2908
848.4826, 108.8355
848.9647, 109.1347
849.4468, 108.9970
849.9290, 108.7724
850.4111, 108.5167
850.8932, 108.3734
851.3753, 108.5502
851.8574, 108.9485
852.3395, 109.3736
852.8217, 109.7456
853.3038, 109.9945
853.7859, 110.0172
854.2680, 109.8895
854.7501, 109.8905
855.2322, 110.0204
855.7144, 109.8998
856.1965, 109.3797
856.6786, 108.9344
857.1607, 108.9605
857.6428, 109.3011
858.1249, 109.4675
858.6071, 109.5335
859.0892, 109.2546
859.5713, 108.2392
860.0534, 107.3447
860.5355, 106.9792
861.0176, 106.8345
861.4998, 106.5713
861.9819, 106.1415
862.4640, 105.5784
862.9461, 104.7212
863.4282, 103.9152
863.9103, 103.3969
864.3925, 103.0777
864.8746, 102.8510
865.3567, 102.6953
865.8388, 102.6876
866.3209, 102.9069
866.8030, 103.0291
867.2852, 102.3458
867.7673, 101.0769
868.2494, 100.4934
868.7315, 100.6921
869.2136, 100.7560
869.6957, 100.2498
870.1779, 99.65092
870.6600, 99.66174
871.1421, 100.2913
871.6242, 100.4066
872.1063, 99.62367
872.5884, 99.00191
873.0705, 98.87409
873.5526, 98.80973
874.0347, 98.51894
874.5168, 98.09896
874.9990, 97.78242
875.4811, 97.58692
875.9632, 97.56339
876.4453, 97.94707
876.9274, 98.30091
877.4095, 98.29206
877.8917, 98.02663
878.3738, 97.69353
878.8559, 97.35027
879.3380, 96.97342
879.8201, 96.44508
880.3022, 95.99211
880.7844, 96.09721
881.2665, 96.60498
881.7486, 96.96379
882.2307, 97.08414
882.7128, 97.05667
883.1949, 96.92305
883.6771, 96.73985
884.1592, 96.65283
884.6413, 96.70053
885.1234, 96.49875
885.6055, 95.82853
886.0876, 95.47295
886.5698, 95.95769
887.0519, 96.60946
887.5340, 96.65791
888.0161, 96.13709
888.4982, 95.61068
888.9803, 94.97827
889.4625, 94.50484
889.9446, 94.33055
890.4267, 94.23814
890.9088, 94.07301
891.3909, 93.87896
891.8730, 93.76150
892.3552, 93.74911
892.8373, 93.80881
893.3194, 94.04768
893.8015, 94.24165
894.2836, 94.08552
894.7657, 93.71655
895.2479, 93.43336
895.7300, 93.29286
896.2121, 93.15031
896.6942, 92.88575
897.1763, 92.60079
897.6584, 92.51012
898.1406, 92.59895
898.6227, 92.76290
899.1048, 93.00916
899.5869, 93.09343
900.0690, 92.86114
900.5511, 92.52290
901.0333, 92.41905
901.5154, 92.57124
901.9975, 92.44633
902.4796, 91.79540
902.9617, 91.32808
903.4438, 91.19927
903.9260, 91.27522
904.4081, 91.66317
904.8902, 92.16209
905.3723, 92.21008
905.8544, 91.55063
906.3365, 91.00706
906.8187, 90.61562
907.3008, 90.56979
907.7829, 91.37073
908.2650, 92.39047
908.7471, 92.73148
909.2292, 92.31136
909.7114, 91.77364
910.1935, 91.43568
910.6756, 91.23682
911.1577, 91.20173
911.6398, 91.22404
912.1219, 91.08488
912.6041, 90.79513
913.0862, 90.49001
913.5683, 90.23367
914.0504, 90.10523
914.5325, 90.30523
915.0146, 90.73410
915.4968, 90.74132
915.9789, 90.30761
916.4610, 90.08227
916.9431, 90.28346
917.4252, 90.46816
917.9073, 90.26910
918.3895, 89.76451
918.8716, 89.21346
919.3537, 88.47600
919.8358, 88.05044
920.3179, 88.18609
920.8000, 88.27440
921.2822, 87.97366
921.7643, 87.57073
922.2464, 87.39838
922.7285, 87.44971
923.2106, 87.44319
923.6927, 87.28569
924.1749, 87.13877
924.6570, 87.25195
925.1391, 87.20985
925.6212, 86.41538
926.1033, 85.27994
926.5854, 84.72031
927.0676, 85.01692
927.5497, 85.43943
928.0318, 85.49277
928.5139, 85.45380
928.9960, 85.66874
929.4781, 85.98152
929.9603, 86.00571
930.4424, 85.74792
930.9245, 85.64413
931.4066, 85.99898
931.8887, 86.48939
932.3708, 86.53511
932.8530, 86.27131
933.3351, 86.22895
933.8172, 86.43716
934.2993, 86.95441
934.7814, 87.83676
935.2635, 88.62731
935.7457, 88.77494
936.2278, 88.42439
936.7099, 88.45604
937.1920, 88.96914
937.6741, 89.42033
938.1563, 89.69263
938.6384, 90.02192
939.1205, 90.53469
939.6026, 91.19370
940.0847, 91.97353
940.5668, 92.92624
941.0490, 93.68420
941.5311, 94.00403
942.0132, 94.47316
942.4953, 95.49224
942.9774, 96.43719
943.4595, 96.83253
943.9417, 96.78874
944.4238, 96.64034
944.9059, 96.46304
945.3880, 96.13944
945.8701, 95.36598
946.3522, 94.70818
946.8344, 94.84512
947.3165, 95.16468
947.7986, 94.67557
948.2807, 93.41813
948.7628, 92.41374
949.2449, 92.37455
949.7271, 92.33896
950.2092, 91.05667
950.6913, 89.37157
951.1734, 88.64429
951.6555, 88.73598
952.1376, 88.89328
952.6198, 88.83672
953.1019, 88.59095
953.5840, 88.10697
954.0661, 87.53979
954.5482, 87.32858
955.0303, 87.40611
955.5124, 87.27570
955.9945, 86.86792
956.4766, 86.60242
956.9587, 86.72205
957.4409, 87.00141
957.9230, 87.07745
958.4051, 86.95464
958.8872, 86.90957
959.3693, 87.01717
959.8514, 86.83259
960.3336, 86.09892
960.8157, 85.43575
961.2978, 85.39262
961.7799, 85.71651
962.2620, 85.69435
962.7441, 85.23593
963.2263, 84.70284
963.7084, 83.66059
964.1905, 83.14397
964.6726, 83.96420
965.1547, 84.96878
965.6368, 85.06229
966.1190, 84.44176
966.6011, 84.13767
967.0832, 84.57207
967.5653, 84.72417
968.0474, 84.02232
968.5295, 83.36427
969.0117, 83.40604
969.4938, 83.72355
969.9759, 83.70481
970.4580, 83.30863
970.9401, 82.95133
971.4222, 82.77351
971.9044, 82.75003
972.3865, 82.98339
972.8686, 83.27065
973.3507, 83.36149
973.8328, 83.32971
974.3149, 83.39702
974.7971, 83.62066
975.2792, 83.84377
975.7613, 83.94894
976.2434, 83.97732
976.7255, 83.92413
977.2076, 83.85555
977.6898, 84.00037
978.1719, 84.30512
978.6540, 84.33595
979.1361, 83.88889
979.6182, 83.41671
980.1003, 83.55093
980.5825, 84.08842
981.0646, 84.30704
981.5467, 84.25804
982.0288, 84.40688
982.5109, 84.84404
982.9930, 85.21983
983.4752, 85.30534
983.9573, 85.19283
984.4394, 84.99306
984.9215, 84.70335
985.4036, 84.78911
985.8857, 85.32800
986.3679, 85.79609
986.8500, 86.07393
987.3321, 86.18431
987.8142, 86.09347
988.2963, 85.89681
988.7784, 85.91197
989.2606, 86.23262
989.7427, 86.42130
990.2248, 86.37186
990.7069, 86.39451
991.1890, 86.59725
991.6711, 86.89938
992.1533, 87.26048
992.6354, 87.66201
993.1175, 87.98611
993.5996, 88.12724
994.0817, 88.38020
994.5638, 88.85100
995.0460, 89.31499
995.5281, 89.65405
996.0102, 89.96403
996.4923, 90.26507
996.9744, 90.60510
997.4565, 91.26350
997.9387, 92.48048
998.4208, 93.70229
998.9029, 94.71123
999.3850, 95.76112
999.8671, 97.07729
1000.349, 98.48980
1000.831, 99.88664
1001.313, 101.1784
1001.796, 101.8927
1002.278, 101.5234
1002.760, 101.0004
1003.242, 100.7932
1003.724, 100.6952
1004.206, 100.4330
1004.688, 100.1533
1005.170, 100.1566
1005.653, 100.5130
1006.135, 101.0855
1006.617, 101.8842
1007.099, 102.7377
1007.581, 103.4286
1008.063, 104.1055
1008.545, 104.8938
1009.027, 105.8715
1009.509, 107.2051
1009.992, 108.9345
1010.474, 110.8935
1010.956, 113.1991
1011.438, 115.3415
1011.920, 116.2713
1012.402, 116.5109
1012.884, 117.3487
1013.366, 118.8001
1013.849, 120.1881
1014.331, 121.2096
1014.813, 121.7378
1015.295, 121.4746
1015.777, 120.7396
1016.259, 120.4818
1016.741, 120.5047
1017.223, 119.7737
1017.705, 118.2024
1018.188, 116.6511
1018.670, 115.5714
1019.152, 114.5399
1019.634, 112.8928
1020.116, 110.8142
1020.598, 109.2886
1021.080, 108.2876
1021.562, 106.8336
1022.044, 104.7309
1022.527, 102.6150
1023.009, 100.8357
1023.491, 99.31056
1023.973, 97.88284
1024.455, 96.56450
1024.937, 95.64402
1025.419, 95.18108
1025.901, 94.61836
1026.384, 93.81131
1026.866, 93.08514
1027.348, 92.66295
1027.830, 92.39783
1028.312, 92.01926
1028.794, 91.51812
1029.276, 91.07700
1029.758, 90.71378
1030.240, 90.33261
1030.723, 89.87321
1031.205, 89.50727
1031.687, 89.43349
1032.169, 89.42332
1032.651, 88.93839
1033.133, 87.85328
1033.615, 87.40037
1034.097, 88.05219
1034.579, 88.28170
1035.062, 87.56982
1035.544, 86.71773
1036.026, 86.18578
1036.508, 85.91776
1036.990, 85.85521
1037.472, 86.08950
1037.954, 86.00700
1038.436, 85.33153
1038.919, 84.78449
1039.401, 84.59486
1039.883, 84.45503
1040.365, 84.10870
1040.847, 83.69309
1041.329, 83.53220
1041.811, 83.70158
1042.293, 83.72424
1042.776, 83.38982
1043.258, 83.19262
1043.740, 83.38933
1044.222, 83.58571
1044.704, 83.45616
1045.186, 83.16995
1045.668, 83.11707
1046.150, 83.39230
1046.632, 83.39204
1047.115, 82.82324
1047.597, 82.28850
1048.079, 81.80215
1048.561, 81.52759
1049.043, 81.81968
1049.525, 82.30961
1050.007, 82.19693
1050.489, 81.30978
1050.971, 80.85989
1051.454, 81.57162
1051.936, 82.08129
1052.418, 81.82011
1052.900, 81.37644
1053.382, 81.13091
1053.864, 81.03444
1054.346, 80.96078
1054.828, 80.89259
1055.311, 80.80175
1055.793, 80.54491
1056.275, 80.44878
1056.757, 80.93108
1057.239, 81.31851
1057.721, 80.99331
1058.203, 80.26097
1058.685, 79.62800
1059.167, 79.18288
1059.650, 78.97562
1060.132, 79.21913
1060.614, 79.43815
1061.096, 79.45403
1061.578, 79.37659
1062.060, 79.21124
1062.542, 79.04841
1063.024, 79.08472
1063.506, 79.32072
1063.989, 79.37576
1064.471, 78.95650
1064.953, 78.55119
1065.435, 78.30205
1065.917, 78.19994
1066.399, 78.37818
1066.881, 78.62780
1067.363, 78.60727
1067.846, 78.29656
1068.328, 78.01018
1068.810, 77.92264
1069.292, 77.77999
1069.774, 77.22400
1070.256, 76.81972
1070.738, 77.27294
1071.220, 77.98965
1071.703, 78.02190
1072.185, 77.36218
1072.667, 76.86184
1073.149, 76.96404
1073.631, 76.96525
1074.113, 76.22206
1074.595, 75.59092
1075.077, 76.01649
1075.559, 76.73048
1076.042, 76.56773
1076.524, 75.60722
1077.006, 74.87754
1077.488, 74.68223
1077.970, 74.89561
1078.452, 76.00491
1078.934, 76.90515
1079.416, 76.52681
1079.898, 75.74246
1080.380, 75.69791
1080.863, 76.27608
1081.345, 76.59630
1081.827, 76.33862
1082.309, 76.06278
1082.791, 76.00533
1083.273, 76.02155
1083.755, 76.13203
1084.237, 76.18565
1084.720, 75.92104
1085.202, 75.47941
1085.684, 75.24693
1086.166, 75.32864
1086.648, 75.57990
1087.130, 76.26707
1087.612, 76.70069
1088.094, 76.26441
1088.577, 75.63729
1089.059, 75.47245
1089.541, 75.62476
1090.023, 75.62544
1090.505, 75.37690
1090.987, 75.36863
1091.469, 76.15244
1091.951, 76.72459
1092.433, 76.51502
1092.916, 76.06680
1093.398, 75.75215
1093.880, 75.53093
1094.362, 75.24834
1094.844, 74.89655
1095.326, 74.67444
1095.808, 74.62053
1096.290, 74.74338
1096.772, 75.30810
1097.255, 75.76839
1097.737, 75.56052
1098.219, 75.17127
1098.701, 75.45448
1099.183, 76.30425
1099.665, 76.50575
1100.147, 75.26823
1100.629, 74.44008
1101.112, 74.82651
1101.594, 75.33965
1102.076, 75.48527
1102.558, 75.45659
1103.040, 75.50076
1103.522, 75.57777
1104.004, 75.44660
1104.486, 74.94899
1104.969, 74.63816
1105.451, 74.82287
1105.933, 74.93469
1106.415, 74.57481
1106.897, 74.24914
1107.379, 74.44517
1107.861, 74.97871
1108.343, 75.39712
1108.825, 75.67892
1109.307, 75.78035
1109.790, 75.39241
1110.272, 75.25887
1110.754, 75.89430
1111.236, 76.43838
1111.718, 76.17093
1112.200, 75.57749
1112.682, 75.53995
1113.164, 76.11036
1113.647, 76.31397
1114.129, 75.68944
1114.611, 75.47348
1115.093, 76.12355
1115.575, 76.68076
1116.057, 76.67811
1116.539, 76.43758
1117.021, 76.29456
1117.504, 76.24339
1117.986, 76.25448
1118.468, 76.44353
1118.950, 76.39748
1119.432, 75.91405
1119.914, 75.59563
1120.396, 75.65285
1120.878, 75.90392
1121.360, 76.22901
1121.843, 76.60601
1122.325, 76.98495
1122.807, 77.39808
1123.289, 77.60439
1123.771, 77.55339
1124.253, 77.46978
1124.735, 77.40212
1125.217, 77.30149
1125.699, 77.12148
1126.182, 76.92385
1126.664, 76.81922
1127.146, 76.80237
1127.628, 76.77104
1128.110, 76.71783
1128.592, 76.73911
1129.074, 76.86756
1129.556, 76.87866
1130.039, 76.63734
1130.521, 76.44795
1131.003, 76.70352
1131.485, 77.22060
1131.967, 77.36178
1132.449, 77.13848
1132.931, 76.67078
1133.413, 75.97690
1133.896, 75.49686
1134.378, 75.36465
1134.860, 75.47619
1135.342, 75.79369
1135.824, 76.08154
1136.306, 75.76696
1136.788, 75.07353
1137.270, 74.88314
1137.752, 75.13089
1138.234, 75.48804
1138.717, 75.86944
1139.199, 76.22349
1139.681, 76.52612
1140.163, 76.66089
1140.645, 76.47550
1141.127, 76.05770
1141.609, 75.39535
1142.091, 74.69590
1142.574, 74.44508
1143.056, 74.60838
1143.538, 74.93206
1144.020, 75.30923
1144.502, 75.65409
1144.984, 75.96861
1145.466, 76.07776
1145.948, 75.58191
1146.431, 74.95055
1146.913, 74.74148
1147.395, 74.86808
1147.877, 75.19780
1148.359, 75.62759
1148.841, 75.93047
1149.323, 76.00680
1149.805, 75.97861
1150.287, 75.82835
1150.770, 75.70818
1151.252, 75.78514
1151.734, 75.90397
1152.216, 75.89671
1152.698, 75.78796
1153.180, 75.61882
1153.662, 75.40058
1154.144, 75.41054
1154.626, 75.93556
1155.109, 76.42823
1155.591, 76.86427
1156.073, 77.04292
1156.555, 76.64647
1157.037, 76.04654
1157.519, 75.68483
1158.001, 75.57525
1158.483, 75.59041
1158.966, 75.83707
1159.448, 75.95142
1159.930, 75.93694
1160.412, 75.74486
1160.894, 75.09574
1161.376, 74.56836
1161.858, 74.70945
1162.340, 75.20707
1162.822, 75.38308
1163.305, 75.21107
1163.787, 74.98672
1164.269, 74.63473
1164.751, 74.46587
1165.233, 74.57092
1165.715, 74.72215
1166.197, 74.82765
1166.679, 74.88915
1167.161, 74.89458
1167.644, 74.87268
1168.126, 74.94775
1168.608, 75.12239
1169.090, 75.37074
1169.572, 75.70028
1170.054, 75.68472
1170.536, 75.19938
1171.018, 74.75302
1171.500, 74.70907
1171.983, 74.80217
1172.465, 74.53478
1172.947, 74.08242
1173.429, 74.05550
1173.911, 74.36716
1174.393, 74.79530
1174.875, 75.23463
1175.357, 75.37086
1175.840, 75.09945
1176.322, 74.65208
1176.804, 74.10188
1177.286, 73.73715
1177.768, 74.13621
1178.250, 74.78718
1178.732, 74.81680
1179.214, 74.56104
1179.697, 74.91660
1180.179, 75.81591
1180.661, 76.26955
1181.143, 75.80630
1181.625, 75.38469
1182.107, 75.66306
1182.589, 76.08298
1183.071, 76.35657
1183.553, 76.52877
1184.036, 76.70409
1184.518, 76.79639
1185.000, 76.45263
1185.482, 75.68896
1185.964, 75.59500
1186.446, 77.23207
1186.928, 78.23414
1187.410, 77.60731
1187.892, 77.02260
1188.375, 77.41774
1188.857, 77.95634
1189.339, 77.75867
1189.821, 77.11816
1190.303, 76.90349
1190.785, 77.21033
1191.267, 77.37701
1191.749, 77.35599
1192.232, 77.30740
1192.714, 77.19817
1193.196, 77.26440
1193.678, 77.69428
1194.160, 78.14353
1194.642, 78.16792
1195.124, 77.88561
1195.606, 77.72025
1196.089, 77.67465
1196.571, 77.96973
1197.053, 78.58228
1197.535, 78.82533
1198.017, 78.54610
1198.499, 78.26968
1198.981, 78.32761
1199.463, 78.45415
1199.945, 78.20215
1200.427, 77.84476
1200.910, 78.08546
1201.392, 78.58421
1201.874, 78.45171
1202.356, 77.87852
1202.838, 77.77930
1203.320, 78.31942
1203.802, 78.67757
1204.284, 78.25340
1204.767, 77.88257
1205.249, 78.40967
1205.731, 79.02470
1206.213, 78.95564
1206.695, 78.65324
1207.177, 78.73278
1207.659, 79.07757
1208.141, 79.18697
1208.624, 78.94241
1209.106, 78.84179
1209.588, 79.21076
1210.070, 79.42455
1210.552, 79.20958
1211.034, 78.98157
1211.516, 78.89236
1211.998, 78.93945
1212.480, 79.18467
1212.963, 79.55242
1213.445, 79.75625
1213.927, 79.78410
1214.409, 79.67542
1214.891, 79.35867
1215.373, 79.20865
1215.855, 79.33186
1216.337, 79.44594
1216.819, 79.39603
1217.302, 79.28942
1217.784, 79.22715
1218.266, 79.26374
1218.748, 79.71543
1219.230, 80.42815
1219.712, 80.48884
1220.194, 80.01316
1220.676, 79.87373
1221.159, 80.22172
1221.641, 80.58823
1222.123, 80.72302
1222.605, 80.75645
1223.087, 80.84248
1223.569, 80.87303
1224.051, 80.63464
1224.533, 80.33221
1225.016, 80.19833
1225.498, 80.23318
1225.980, 80.47300
1226.462, 80.85071
1226.944, 81.04813
1227.426, 81.00463
1227.908, 80.61552
1228.390, 79.43443
1228.872, 78.43990
1229.354, 78.03008
1229.837, 77.97887
1230.319, 78.46834
1230.801, 79.00074
1231.283, 78.55828
1231.765, 77.18796
1232.247, 76.60789
1232.729, 77.26080
1233.211, 77.27660
1233.694, 76.31095
1234.176, 75.69449
1234.658, 75.89816
1235.140, 76.23460
1235.622, 76.22607
1236.104, 75.97256
1236.586, 75.57625
1237.068, 75.11674
1237.551, 74.96496
1238.033, 75.05185
1238.515, 75.05861
1238.997, 74.98122
1239.479, 74.98569
1239.961, 75.11178
1240.443, 75.28835
1240.925, 75.50986
1241.407, 75.55611
1241.890, 74.96641
1242.372, 74.36069
1242.854, 74.45602
1243.336, 74.80817
1243.818, 74.86252
1244.300, 74.70551
1244.782, 74.66624
1245.264, 74.78493
1245.746, 74.80012
1246.229, 74.68578
1246.711, 74.38679
1247.193, 73.55437
1247.675, 72.99725
1248.157, 73.09384
1248.639, 73.42887
1249.121, 73.79013
1249.603, 74.13254
1250.085, 74.40380
1250.568, 74.59039
1251.050, 74.45481
1251.532, 73.97511
1252.014, 73.29082
1252.496, 72.38586
1252.978, 72.11204
1253.460, 72.72062
1253.942, 73.25954
1254.425, 73.05306
1254.907, 72.65965
1255.389, 72.95179
1255.871, 73.51660
1256.353, 73.63918
1256.835, 73.42073
1257.317, 72.81690
1257.799, 72.10781
1258.281, 72.01010
1258.764, 72.53659
1259.246, 72.81618
1259.728, 72.39494
1260.210, 72.01648
1260.692, 72.13329
1261.174, 72.23394
1261.656, 71.81790
1262.138, 71.55506
1262.620, 72.28945
1263.103, 73.32466
1263.585, 73.39745
1264.067, 72.66322
1264.549, 72.49854
1265.031, 73.15109
1265.513, 73.53130
1265.995, 73.60401
1266.477, 73.50782
1266.960, 73.25270
1267.442, 72.95498
1267.924, 72.67036
1268.406, 72.46059
1268.888, 72.42384
1269.370, 72.46416
1269.852, 72.28981
1270.334, 72.04373
1270.817, 72.15664
1271.299, 72.49928
1271.781, 72.69211
1272.263, 72.68399
1272.745, 72.58315
1273.227, 72.43051
1273.709, 72.28079
1274.191, 72.17307
1274.673, 72.06757
1275.156, 71.81096
1275.638, 71.69939
1276.120, 72.13662
1276.602, 72.66211
1277.084, 72.72807
1277.566, 72.43373
1278.048, 72.11608
1278.530, 71.71867
1279.012, 71.93307
1279.495, 73.14134
1279.977, 73.45966
1280.459, 72.50185
1280.941, 71.69155
1281.423, 71.55739
1281.905, 71.53108
1282.387, 71.13623
1282.869, 70.72215
1283.352, 70.94313
1283.834, 71.54922
1284.316, 72.00008
1284.798, 72.29942
##END=



