##NAMES=Roweite
##RRUFFID=R130073
##IDEAL CHEMISTRY=Ca_2_Mn^2+^_2_B_4_O_7_(OH)_6_
##LOCALITY=Solongo B deposit, Vitim Plateau, Buriatia (Buryatia) Republic, Transbaikalia (Zabaykalye), Eastern-Siberian Region, Russia
##OWNER=RRUFF
##SOURCE=Michael Scott
##DESCRIPTION=Yellow crystals, associated with calcite and colorless frolovite, R070469.
##STATUS=The identification of this mineral has been confirmed only by single crystal X-ray diffraction.
##URL=rruff.info/R130073
91.22955, 1521.216
91.71167, 1542.826
92.19379, 1554.452
92.67590, 1558.042
93.15802, 1559.335
93.64014, 1561.846
94.12225, 1565.584
94.60437, 1569.946
95.08649, 1575.209
95.56860, 1580.294
96.05072, 1584.230
96.53284, 1588.308
97.01495, 1592.502
97.49707, 1595.663
97.97919, 1597.763
98.46130, 1601.939
98.94342, 1609.889
99.42554, 1621.245
99.90765, 1630.685
100.3898, 1637.784
100.8719, 1644.142
101.3540, 1652.412
101.8361, 1663.354
102.3182, 1673.514
102.8004, 1681.807
103.2825, 1688.063
103.7646, 1693.302
104.2467, 1696.240
104.7288, 1698.860
105.2109, 1705.972
105.6931, 1719.364
106.1752, 1734.583
106.6573, 1750.072
107.1394, 1766.951
107.6215, 1782.328
108.1036, 1795.436
108.5858, 1806.858
109.0679, 1819.370
109.5500, 1832.983
110.0321, 1847.758
110.5142, 1863.624
110.9963, 1881.815
111.4785, 1899.790
111.9606, 1917.710
112.4427, 1935.565
112.9248, 1951.751
113.4069, 1966.595
113.8890, 1979.508
114.3712, 1990.183
114.8533, 2000.727
115.3354, 2007.064
115.8175, 2007.451
116.2996, 2001.642
116.7817, 1992.936
117.2639, 1981.699
117.7460, 1968.443
118.2281, 1953.810
118.7102, 1937.492
119.1923, 1920.186
119.6744, 1902.119
120.1566, 1883.012
120.6387, 1864.192
121.1208, 1846.613
121.6029, 1829.944
122.0850, 1813.739
122.5671, 1797.832
123.0493, 1782.146
123.5314, 1766.561
124.0135, 1750.944
124.4956, 1735.444
124.9777, 1719.759
125.4598, 1704.143
125.9420, 1689.967
126.4241, 1678.703
126.9062, 1669.380
127.3883, 1660.212
127.8704, 1650.654
128.3525, 1641.290
128.8347, 1633.099
129.3168, 1626.009
129.7989, 1619.427
130.2810, 1613.121
130.7631, 1606.986
131.2452, 1600.331
131.7274, 1592.930
132.2095, 1584.950
132.6916, 1576.395
133.1737, 1567.029
133.6558, 1558.470
134.1379, 1552.474
134.6201, 1549.016
135.1022, 1545.690
135.5843, 1541.807
136.0664, 1537.462
136.5485, 1533.077
137.0306, 1528.122
137.5128, 1524.379
137.9949, 1525.100
138.4770, 1531.630
138.9591, 1535.903
139.4412, 1534.744
139.9233, 1527.722
140.4055, 1520.924
140.8876, 1513.986
141.3697, 1507.573
141.8518, 1502.851
142.3339, 1500.278
142.8160, 1498.349
143.2982, 1496.626
143.7803, 1495.251
144.2624, 1493.593
144.7445, 1491.213
145.2266, 1488.699
145.7087, 1487.615
146.1909, 1489.262
146.6730, 1490.689
147.1551, 1490.703
147.6372, 1488.350
148.1193, 1486.217
148.6014, 1484.067
149.0836, 1482.123
149.5657, 1481.076
150.0478, 1481.338
150.5299, 1482.188
151.0120, 1483.323
151.4941, 1485.003
151.9763, 1486.617
152.4584, 1488.305
152.9405, 1489.961
153.4226, 1491.139
153.9047, 1491.327
154.3868, 1491.322
154.8690, 1491.554
155.3511, 1492.462
155.8332, 1493.183
156.3153, 1493.515
156.7974, 1493.498
157.2795, 1493.466
157.7617, 1493.129
158.2438, 1493.016
158.7259, 1493.513
159.2080, 1494.908
159.6901, 1496.771
160.1722, 1498.909
160.6544, 1501.349
161.1365, 1504.457
161.6186, 1509.398
162.1007, 1514.614
162.5828, 1518.780
163.0649, 1520.353
163.5471, 1521.631
164.0292, 1523.602
164.5113, 1526.287
164.9934, 1529.248
165.4755, 1532.319
165.9576, 1535.518
166.4398, 1538.825
166.9219, 1542.039
167.4040, 1545.519
167.8861, 1549.736
168.3682, 1554.790
168.8503, 1559.454
169.3325, 1562.618
169.8146, 1564.932
170.2967, 1567.403
170.7788, 1571.135
171.2609, 1574.915
171.7430, 1577.515
172.2252, 1578.805
172.7073, 1579.653
173.1894, 1580.649
173.6715, 1581.727
174.1536, 1582.703
174.6357, 1583.536
175.1179, 1584.219
175.6000, 1584.877
176.0821, 1585.601
176.5642, 1585.824
177.0463, 1584.821
177.5284, 1582.809
178.0106, 1580.488
178.4927, 1578.143
178.9748, 1575.746
179.4569, 1573.259
179.9390, 1570.617
180.4211, 1568.067
180.9033, 1566.009
181.3854, 1564.331
181.8675, 1562.527
182.3496, 1560.024
182.8317, 1557.200
183.3138, 1554.806
183.7960, 1552.950
184.2781, 1551.504
184.7602, 1550.448
185.2423, 1549.730
185.7244, 1549.057
186.2065, 1548.110
186.6887, 1547.012
187.1708, 1546.270
187.6529, 1545.991
188.1350, 1545.934
188.6171, 1545.742
189.0992, 1545.408
189.5814, 1544.988
190.0635, 1544.311
190.5456, 1543.477
191.0277, 1543.332
191.5098, 1544.209
191.9919, 1545.457
192.4741, 1545.546
192.9562, 1544.424
193.4383, 1543.322
193.9204, 1542.991
194.4025, 1543.411
194.8846, 1544.396
195.3668, 1546.091
195.8489, 1548.142
196.3310, 1549.803
196.8131, 1551.081
197.2952, 1551.890
197.7773, 1551.626
198.2595, 1550.221
198.7416, 1550.604
199.2237, 1553.726
199.7058, 1558.361
200.1879, 1560.966
200.6700, 1561.272
201.1522, 1560.934
201.6343, 1561.306
202.1164, 1562.579
202.5985, 1562.563
203.0806, 1560.607
203.5627, 1557.405
204.0449, 1555.213
204.5270, 1554.211
205.0091, 1553.595
205.4912, 1552.730
205.9733, 1551.479
206.4554, 1550.739
206.9376, 1550.565
207.4197, 1550.987
207.9018, 1552.420
208.3839, 1555.397
208.8660, 1558.047
209.3481, 1558.882
209.8303, 1557.493
210.3124, 1556.161
210.7945, 1554.888
211.2766, 1553.928
211.7587, 1554.398
212.2408, 1556.764
212.7230, 1559.617
213.2051, 1562.021
213.6872, 1563.773
214.1693, 1565.776
214.6514, 1568.252
215.1335, 1571.008
215.6157, 1573.061
216.0978, 1574.174
216.5799, 1574.962
217.0620, 1575.788
217.5441, 1576.607
218.0262, 1577.547
218.5084, 1578.673
218.9905, 1579.939
219.4726, 1581.045
219.9547, 1581.865
220.4368, 1582.798
220.9189, 1584.146
221.4011, 1586.137
221.8832, 1588.091
222.3653, 1590.181
222.8474, 1592.234
223.3295, 1593.394
223.8116, 1593.154
224.2938, 1592.809
224.7759, 1593.103
225.2580, 1594.118
225.7401, 1595.575
226.2222, 1597.655
226.7043, 1600.142
227.1865, 1602.338
227.6686, 1604.395
228.1507, 1605.843
228.6328, 1606.275
229.1149, 1605.145
229.5970, 1604.242
230.0792, 1603.551
230.5613, 1603.178
231.0434, 1603.664
231.5255, 1605.654
232.0076, 1607.602
232.4897, 1608.628
232.9719, 1608.311
233.4540, 1608.069
233.9361, 1607.867
234.4182, 1607.808
234.9003, 1608.237
235.3824, 1609.297
235.8646, 1610.644
236.3467, 1612.169
236.8288, 1614.111
237.3109, 1615.605
237.7930, 1616.295
238.2751, 1616.541
238.7573, 1617.520
239.2394, 1619.766
239.7215, 1621.904
240.2036, 1623.305
240.6857, 1623.687
241.1678, 1623.899
241.6500, 1623.960
242.1321, 1623.827
242.6142, 1623.435
243.0963, 1622.947
243.5784, 1621.942
244.0605, 1620.033
244.5427, 1616.277
245.0248, 1614.110
245.5069, 1614.206
245.9890, 1615.647
246.4711, 1616.420
246.9532, 1616.319
247.4354, 1615.950
247.9175, 1615.507
248.3996, 1614.923
248.8817, 1614.591
249.3638, 1614.748
249.8459, 1615.064
250.3281, 1614.770
250.8102, 1613.109
251.2923, 1612.215
251.7744, 1613.021
252.2565, 1616.045
252.7386, 1618.578
253.2208, 1620.415
253.7029, 1621.913
254.1850, 1623.614
254.6671, 1625.425
255.1492, 1627.587
255.6313, 1630.174
256.1135, 1633.191
256.5956, 1636.475
257.0777, 1640.445
257.5598, 1644.177
258.0419, 1646.087
258.5240, 1644.889
259.0062, 1644.701
259.4883, 1647.039
259.9704, 1652.082
260.4525, 1656.081
260.9346, 1658.736
261.4167, 1660.673
261.8989, 1662.549
262.3810, 1664.322
262.8631, 1666.179
263.3452, 1668.224
263.8273, 1670.504
264.3094, 1672.457
264.7916, 1673.792
265.2737, 1675.388
265.7558, 1678.480
266.2379, 1683.868
266.7200, 1688.078
267.2021, 1690.233
267.6843, 1690.526
268.1664, 1690.892
268.6485, 1691.248
269.1306, 1691.812
269.6127, 1692.648
270.0948, 1693.612
270.5770, 1695.427
271.0591, 1698.482
271.5412, 1702.402
272.0233, 1705.576
272.5054, 1707.859
272.9875, 1709.563
273.4697, 1710.733
273.9518, 1711.255
274.4339, 1711.992
274.9160, 1713.010
275.3981, 1714.331
275.8802, 1716.200
276.3624, 1718.763
276.8445, 1721.244
277.3266, 1723.098
277.8087, 1724.293
278.2908, 1725.529
278.7729, 1726.926
279.2551, 1728.347
279.7372, 1729.496
280.2193, 1730.401
280.7014, 1730.924
281.1835, 1730.691
281.6656, 1729.726
282.1478, 1729.620
282.6299, 1730.593
283.1120, 1732.132
283.5941, 1733.440
284.0762, 1734.515
284.5583, 1735.494
285.0405, 1736.232
285.5226, 1736.817
286.0047, 1738.426
286.4868, 1741.431
286.9689, 1744.230
287.4510, 1743.912
287.9332, 1740.661
288.4153, 1738.407
288.8974, 1739.455
289.3795, 1742.768
289.8616, 1744.416
290.3438, 1744.269
290.8259, 1743.300
291.3080, 1742.213
291.7901, 1741.096
292.2722, 1740.466
292.7543, 1740.790
293.2365, 1741.578
293.7186, 1741.440
294.2007, 1740.359
294.6828, 1739.486
295.1649, 1740.225
295.6470, 1742.083
296.1292, 1743.411
296.6113, 1743.579
297.0934, 1743.223
297.5755, 1743.357
298.0576, 1743.947
298.5397, 1744.580
299.0219, 1745.262
299.5040, 1745.765
299.9861, 1745.377
300.4682, 1743.530
300.9503, 1741.688
301.4324, 1741.935
301.9146, 1743.867
302.3967, 1745.761
302.8788, 1746.717
303.3609, 1746.927
303.8430, 1746.350
304.3251, 1744.672
304.8073, 1743.376
305.2894, 1744.166
305.7715, 1746.416
306.2536, 1748.645
306.7357, 1749.872
307.2178, 1750.752
307.7000, 1751.944
308.1821, 1753.502
308.6642, 1755.070
309.1463, 1756.423
309.6284, 1757.576
310.1105, 1758.577
310.5927, 1759.255
311.0748, 1759.896
311.5569, 1760.806
312.0390, 1761.988
312.5211, 1762.992
313.0032, 1763.443
313.4854, 1763.671
313.9675, 1764.023
314.4496, 1764.223
314.9317, 1764.968
315.4138, 1766.851
315.8959, 1769.733
316.3781, 1772.700
316.8602, 1775.905
317.3423, 1778.734
317.8244, 1780.654
318.3065, 1780.719
318.7886, 1781.058
319.2708, 1782.516
319.7529, 1784.792
320.2350, 1787.042
320.7171, 1788.492
321.1992, 1790.197
321.6813, 1792.727
322.1635, 1796.471
322.6456, 1800.245
323.1277, 1803.873
323.6098, 1807.355
324.0919, 1810.716
324.5740, 1814.212
325.0562, 1817.291
325.5383, 1819.707
326.0204, 1821.316
326.5025, 1822.832
326.9846, 1824.101
327.4667, 1825.404
327.9489, 1827.067
328.4310, 1830.139
328.9131, 1832.459
329.3952, 1833.572
329.8773, 1833.469
330.3594, 1833.306
330.8416, 1833.009
331.3237, 1832.733
331.8058, 1832.559
332.2879, 1832.271
332.7700, 1832.467
333.2521, 1833.463
333.7343, 1835.006
334.2164, 1835.918
334.6985, 1836.076
335.1806, 1835.737
335.6627, 1834.838
336.1448, 1832.903
336.6270, 1831.990
337.1091, 1832.742
337.5912, 1834.097
338.0733, 1833.650
338.5554, 1830.826
339.0375, 1828.099
339.5197, 1826.437
340.0018, 1825.897
340.4839, 1825.790
340.9660, 1826.192
341.4481, 1826.864
341.9302, 1827.712
342.4124, 1828.799
342.8945, 1829.169
343.3766, 1828.342
343.8587, 1826.572
344.3408, 1824.586
344.8229, 1822.207
345.3051, 1820.895
345.7872, 1822.728
346.2693, 1827.184
346.7514, 1830.791
347.2335, 1832.539
347.7156, 1833.447
348.1978, 1835.438
348.6799, 1838.465
349.1620, 1841.734
349.6441, 1844.932
350.1262, 1847.992
350.6083, 1850.507
351.0905, 1852.243
351.5726, 1854.259
352.0547, 1858.038
352.5368, 1863.165
353.0189, 1868.387
353.5010, 1873.147
353.9832, 1877.608
354.4653, 1882.018
354.9474, 1886.432
355.4295, 1890.492
355.9116, 1894.453
356.3937, 1897.788
356.8759, 1899.659
357.3580, 1898.412
357.8401, 1896.751
358.3222, 1896.740
358.8043, 1898.106
359.2864, 1899.219
359.7686, 1898.992
360.2507, 1898.256
360.7328, 1897.744
361.2149, 1897.817
361.6970, 1897.770
362.1791, 1897.240
362.6613, 1896.354
363.1434, 1895.423
363.6255, 1894.402
364.1076, 1893.438
364.5897, 1892.584
365.0718, 1891.857
365.5540, 1891.229
366.0361, 1890.951
366.5182, 1890.689
367.0003, 1890.041
367.4824, 1888.982
367.9645, 1887.555
368.4467, 1885.717
368.9288, 1883.508
369.4109, 1881.187
369.8930, 1878.809
370.3751, 1876.339
370.8572, 1873.723
371.3394, 1870.741
371.8215, 1868.140
372.3036, 1866.513
372.7857, 1865.290
373.2678, 1862.079
373.7499, 1855.210
374.2321, 1849.213
374.7142, 1846.671
375.1963, 1848.732
375.6784, 1849.125
376.1605, 1847.401
376.6426, 1844.525
377.1248, 1841.995
377.6069, 1839.826
378.0890, 1837.687
378.5711, 1835.455
379.0532, 1833.153
379.5353, 1831.169
380.0175, 1829.553
380.4996, 1827.948
380.9817, 1825.801
381.4638, 1823.239
381.9459, 1821.192
382.4280, 1819.836
382.9102, 1819.128
383.3923, 1819.231
383.8744, 1820.068
384.3565, 1820.970
384.8386, 1821.908
385.3207, 1822.529
385.8029, 1821.825
386.2850, 1819.479
386.7671, 1816.920
387.2492, 1815.536
387.7313, 1815.048
388.2134, 1814.853
388.6956, 1814.879
389.1777, 1814.965
389.6598, 1814.995
390.1419, 1814.981
390.6240, 1814.923
391.1061, 1814.997
391.5883, 1814.989
392.0704, 1814.639
392.5525, 1813.550
393.0346, 1812.614
393.5167, 1812.083
393.9988, 1812.006
394.4810, 1812.493
394.9631, 1814.028
395.4452, 1815.790
395.9273, 1817.313
396.4094, 1818.371
396.8915, 1819.733
397.3737, 1821.829
397.8558, 1824.183
398.3379, 1826.207
398.8200, 1827.602
399.3021, 1828.860
399.7842, 1830.045
400.2664, 1831.138
400.7485, 1832.127
401.2306, 1833.304
401.7127, 1834.035
402.1948, 1833.675
402.6769, 1830.857
403.1591, 1830.043
403.6412, 1832.484
404.1233, 1836.612
404.6054, 1838.477
405.0875, 1837.487
405.5696, 1835.935
406.0518, 1834.629
406.5339, 1833.585
407.0160, 1832.844
407.4981, 1832.457
407.9802, 1832.349
408.4623, 1832.462
408.9445, 1832.817
409.4266, 1833.412
409.9087, 1834.373
410.3908, 1835.519
410.8729, 1836.141
411.3550, 1836.293
411.8372, 1836.996
412.3193, 1839.260
412.8014, 1842.608
413.2835, 1845.909
413.7656, 1848.991
414.2477, 1852.150
414.7299, 1855.750
415.2120, 1859.641
415.6941, 1863.392
416.1762, 1867.035
416.6583, 1870.272
417.1404, 1872.567
417.6226, 1873.947
418.1047, 1875.439
418.5868, 1877.627
419.0689, 1880.190
419.5510, 1882.876
420.0331, 1885.721
420.5153, 1888.497
420.9974, 1891.453
421.4795, 1894.303
421.9616, 1896.172
422.4437, 1896.177
422.9258, 1895.804
423.4080, 1895.753
423.8901, 1896.324
424.3722, 1896.455
424.8543, 1895.335
425.3364, 1894.156
425.8185, 1894.118
426.3007, 1896.167
426.7828, 1898.008
427.2649, 1899.183
427.7470, 1899.829
428.2291, 1901.028
428.7112, 1903.365
429.1934, 1905.177
429.6755, 1905.371
430.1576, 1903.545
430.6397, 1902.049
431.1218, 1901.030
431.6039, 1900.186
432.0861, 1898.716
432.5682, 1896.520
433.0503, 1895.476
433.5324, 1897.293
434.0145, 1900.571
434.4966, 1899.623
434.9788, 1894.335
435.4609, 1888.846
435.9430, 1886.905
436.4251, 1887.497
436.9072, 1887.840
437.3893, 1887.499
437.8715, 1886.628
438.3536, 1884.590
438.8357, 1882.041
439.3178, 1880.814
439.7999, 1883.005
440.2820, 1886.196
440.7642, 1888.510
441.2463, 1889.832
441.7284, 1889.832
442.2105, 1887.025
442.6926, 1883.376
443.1747, 1880.775
443.6569, 1880.090
444.1390, 1880.037
444.6211, 1880.099
445.1032, 1880.474
445.5853, 1881.746
446.0674, 1885.923
446.5496, 1889.388
447.0317, 1890.412
447.5138, 1887.780
447.9959, 1886.781
448.4780, 1888.694
448.9601, 1891.429
449.4423, 1892.941
449.9244, 1892.667
450.4065, 1892.314
450.8886, 1891.651
451.3707, 1891.144
451.8528, 1893.311
452.3350, 1899.223
452.8171, 1904.533
453.2992, 1906.385
453.7813, 1904.699
454.2634, 1904.291
454.7455, 1905.352
455.2277, 1907.253
455.7098, 1909.823
456.1919, 1912.788
456.6740, 1914.461
457.1561, 1913.711
457.6382, 1911.800
458.1204, 1911.004
458.6025, 1911.171
459.0846, 1911.206
459.5667, 1909.663
460.0488, 1907.858
460.5309, 1907.767
461.0131, 1910.016
461.4952, 1912.399
461.9773, 1913.323
462.4594, 1913.392
462.9415, 1913.493
463.4236, 1913.503
463.9058, 1914.026
464.3879, 1915.304
464.8700, 1917.321
465.3521, 1919.962
465.8342, 1925.155
466.3163, 1929.541
466.7985, 1931.010
467.2806, 1926.685
467.7627, 1924.445
468.2448, 1925.693
468.7269, 1928.553
469.2090, 1930.304
469.6912, 1929.911
470.1733, 1930.362
470.6554, 1932.677
471.1375, 1936.584
471.6196, 1939.353
472.1017, 1940.661
472.5839, 1941.713
473.0660, 1943.584
473.5481, 1946.281
474.0302, 1947.938
474.5123, 1948.215
474.9944, 1948.018
475.4766, 1948.885
475.9587, 1950.629
476.4408, 1951.913
476.9229, 1951.872
477.4050, 1951.290
477.8871, 1951.612
478.3693, 1952.746
478.8514, 1953.701
479.3335, 1953.797
479.8156, 1953.321
480.2977, 1952.581
480.7798, 1951.612
481.2620, 1950.426
481.7441, 1948.072
482.2262, 1945.684
482.7083, 1944.944
483.1904, 1948.421
483.6725, 1951.637
484.1547, 1952.722
484.6368, 1951.761
485.1189, 1950.813
485.6010, 1949.670
486.0831, 1948.970
486.5652, 1949.074
487.0474, 1950.473
487.5295, 1951.629
488.0116, 1952.588
488.4937, 1953.255
488.9758, 1953.401
489.4579, 1952.771
489.9401, 1952.410
490.4222, 1952.575
490.9043, 1953.201
491.3864, 1954.092
491.8685, 1955.300
492.3506, 1956.442
492.8328, 1957.216
493.3149, 1957.699
493.7970, 1958.045
494.2791, 1958.148
494.7612, 1958.802
495.2433, 1961.338
495.7255, 1965.179
496.2076, 1968.850
496.6897, 1971.629
497.1718, 1974.225
497.6539, 1977.234
498.1360, 1980.594
498.6182, 1984.122
499.1003, 1987.845
499.5824, 1991.599
500.0645, 1995.101
500.5466, 1998.263
501.0287, 2001.669
501.5109, 2005.372
501.9930, 2009.441
502.4751, 2013.901
502.9572, 2018.511
503.4393, 2023.786
503.9214, 2029.965
504.4036, 2036.794
504.8857, 2043.589
505.3678, 2050.423
505.8499, 2057.209
506.3320, 2063.654
506.8141, 2069.639
507.2963, 2077.214
507.7784, 2086.656
508.2605, 2097.253
508.7426, 2109.204
509.2247, 2122.320
509.7068, 2133.630
510.1890, 2142.353
510.6711, 2149.415
511.1532, 2156.170
511.6353, 2162.505
512.1174, 2167.773
512.5995, 2173.060
513.0817, 2176.388
513.5638, 2175.159
514.0459, 2169.395
514.5280, 2160.904
515.0101, 2148.409
515.4922, 2134.944
515.9744, 2123.701
516.4565, 2116.709
516.9386, 2109.140
517.4207, 2098.118
517.9028, 2085.799
518.3849, 2075.703
518.8671, 2069.692
519.3492, 2064.604
519.8313, 2059.680
520.3134, 2054.989
520.7955, 2050.988
521.2776, 2047.661
521.7598, 2044.996
522.2419, 2043.147
522.7240, 2042.283
523.2061, 2040.996
523.6882, 2038.872
524.1703, 2037.135
524.6525, 2037.642
525.1346, 2040.278
525.6167, 2043.233
526.0988, 2046.266
526.5809, 2049.057
527.0630, 2050.939
527.5452, 2051.996
528.0273, 2052.672
528.5094, 2052.326
528.9915, 2052.241
529.4736, 2054.126
529.9557, 2058.161
530.4379, 2062.558
530.9200, 2066.544
531.4021, 2070.229
531.8842, 2073.682
532.3663, 2076.103
532.8484, 2079.396
533.3306, 2084.689
533.8127, 2091.096
534.2948, 2096.624
534.7769, 2099.720
535.2590, 2103.644
535.7411, 2109.556
536.2233, 2117.357
536.7054, 2123.956
537.1875, 2128.861
537.6696, 2133.493
538.1517, 2138.717
538.6339, 2144.505
539.1160, 2150.992
539.5981, 2158.239
540.0802, 2166.016
540.5623, 2174.410
541.0444, 2183.298
541.5266, 2192.219
542.0087, 2201.159
542.4908, 2209.875
542.9729, 2217.977
543.4550, 2225.390
543.9371, 2232.141
544.4193, 2238.853
544.9014, 2244.529
545.3835, 2248.455
545.8656, 2250.558
546.3477, 2250.862
546.8298, 2249.233
547.3120, 2245.858
547.7941, 2240.965
548.2762, 2235.928
548.7583, 2227.436
549.2404, 2213.916
549.7225, 2197.209
550.2047, 2180.167
550.6868, 2162.123
551.1689, 2144.927
551.6510, 2128.991
552.1331, 2114.346
552.6152, 2101.903
553.0974, 2091.951
553.5795, 2082.905
554.0616, 2073.620
554.5437, 2064.326
555.0258, 2056.110
555.5079, 2048.993
555.9901, 2043.251
556.4722, 2039.253
556.9543, 2036.765
557.4364, 2035.369
557.9185, 2035.327
558.4006, 2035.698
558.8828, 2036.023
559.3649, 2036.149
559.8470, 2035.756
560.3291, 2033.988
560.8112, 2032.239
561.2933, 2030.902
561.7755, 2029.970
562.2576, 2029.821
562.7397, 2031.353
563.2218, 2032.944
563.7039, 2033.794
564.1860, 2033.620
564.6682, 2033.443
565.1503, 2033.237
565.6324, 2033.124
566.1145, 2033.200
566.5966, 2033.470
567.0787, 2034.295
567.5609, 2035.892
568.0430, 2038.005
568.5251, 2040.105
569.0072, 2042.221
569.4893, 2044.284
569.9714, 2046.065
570.4536, 2047.887
570.9357, 2050.271
571.4178, 2053.181
571.8999, 2056.275
572.3820, 2058.863
572.8641, 2061.743
573.3463, 2065.617
573.8284, 2070.844
574.3105, 2076.473
574.7926, 2082.451
575.2747, 2088.568
575.7568, 2094.533
576.2390, 2100.022
576.7211, 2105.761
577.2032, 2111.243
577.6853, 2117.102
578.1674, 2125.567
578.6495, 2137.344
579.1317, 2149.668
579.6138, 2161.185
580.0959, 2172.158
580.5780, 2184.446
581.0601, 2198.119
581.5422, 2213.638
582.0244, 2231.626
582.5065, 2251.871
582.9886, 2273.265
583.4707, 2295.849
583.9528, 2320.330
584.4349, 2347.369
584.9171, 2376.774
585.3992, 2408.271
585.8813, 2442.843
586.3634, 2478.441
586.8455, 2513.085
587.3276, 2547.975
587.8098, 2585.153
588.2919, 2625.024
588.7740, 2667.268
589.2561, 2711.544
589.7382, 2757.824
590.2203, 2807.097
590.7025, 2859.127
591.1846, 2913.590
591.6667, 2970.228
592.1488, 3029.300
592.6309, 3090.553
593.1130, 3154.723
593.5952, 3219.602
594.0773, 3282.757
594.5594, 3344.664
595.0415, 3406.261
595.5236, 3470.089
596.0057, 3530.649
596.4879, 3583.340
596.9700, 3627.657
597.4521, 3661.729
597.9342, 3689.316
598.4163, 3702.302
598.8984, 3696.349
599.3806, 3671.735
599.8627, 3631.419
600.3448, 3571.588
600.8269, 3499.589
601.3090, 3416.915
601.7911, 3320.040
602.2733, 3224.755
602.7554, 3129.714
603.2375, 3038.276
603.7196, 2954.523
604.2017, 2877.731
604.6838, 2809.264
605.1660, 2749.047
605.6481, 2696.340
606.1302, 2651.200
606.6123, 2613.285
607.0944, 2581.181
607.5765, 2554.912
608.0587, 2533.249
608.5408, 2514.341
609.0229, 2498.554
609.5050, 2486.517
609.9871, 2480.223
610.4692, 2476.610
610.9514, 2474.627
611.4335, 2474.260
611.9156, 2472.814
612.3977, 2470.073
612.8798, 2465.779
613.3619, 2459.997
613.8441, 2453.108
614.3262, 2443.570
614.8083, 2431.188
615.2904, 2416.429
615.7725, 2399.811
616.2546, 2381.299
616.7368, 2361.647
617.2189, 2340.130
617.7010, 2318.640
618.1831, 2300.919
618.6652, 2286.423
619.1473, 2272.887
619.6295, 2258.293
620.1116, 2244.940
620.5937, 2236.258
621.0758, 2231.386
621.5579, 2225.787
622.0400, 2215.852
622.5222, 2205.777
623.0043, 2198.101
623.4864, 2193.437
623.9685, 2188.958
624.4506, 2184.233
624.9327, 2179.702
625.4149, 2175.616
625.8970, 2171.995
626.3791, 2168.890
626.8612, 2166.403
627.3433, 2164.260
627.8254, 2162.091
628.3076, 2159.901
628.7897, 2157.821
629.2718, 2155.804
629.7539, 2154.044
630.2360, 2153.128
630.7181, 2152.798
631.2003, 2152.245
631.6824, 2150.779
632.1645, 2149.165
632.6466, 2148.207
633.1287, 2147.757
633.6108, 2146.814
634.0930, 2144.011
634.5751, 2141.472
635.0572, 2140.589
635.5393, 2141.934
636.0214, 2142.013
636.5035, 2139.888
636.9857, 2137.618
637.4678, 2137.122
637.9499, 2138.851
638.4320, 2138.645
638.9141, 2135.634
639.3962, 2132.388
639.8784, 2133.042
640.3605, 2136.664
640.8426, 2139.139
641.3247, 2138.895
641.8068, 2137.854
642.2889, 2137.927
642.7711, 2138.827
643.2532, 2139.885
643.7353, 2140.601
644.2174, 2141.616
644.6995, 2143.579
645.1816, 2146.280
645.6638, 2148.326
646.1459, 2148.167
646.6280, 2148.723
647.1101, 2151.510
647.5922, 2156.743
648.0743, 2159.393
648.5565, 2158.507
649.0386, 2157.379
649.5207, 2158.730
650.0028, 2162.245
650.4849, 2165.372
650.9670, 2167.849
651.4492, 2170.223
651.9313, 2173.148
652.4134, 2176.351
652.8955, 2179.269
653.3776, 2181.762
653.8597, 2184.090
654.3419, 2186.515
654.8240, 2188.902
655.3061, 2190.999
655.7882, 2192.373
656.2703, 2193.948
656.7524, 2196.242
657.2346, 2198.943
657.7167, 2200.891
658.1988, 2201.331
658.6809, 2202.836
659.1630, 2206.567
659.6451, 2212.107
660.1273, 2217.180
660.6094, 2221.828
661.0915, 2225.845
661.5736, 2228.325
662.0557, 2230.302
662.5378, 2234.274
663.0200, 2240.329
663.5021, 2245.977
663.9842, 2248.919
664.4663, 2250.919
664.9484, 2253.622
665.4305, 2257.574
665.9127, 2261.519
666.3948, 2265.499
666.8769, 2269.171
667.3590, 2272.117
667.8411, 2273.398
668.3232, 2276.049
668.8054, 2280.806
669.2875, 2286.448
669.7696, 2290.937
670.2517, 2294.263
670.7338, 2296.590
671.2159, 2297.284
671.6981, 2297.835
672.1802, 2301.516
672.6623, 2307.450
673.1444, 2312.650
673.6265, 2314.349
674.1086, 2315.653
674.5908, 2319.114
675.0729, 2324.421
675.5550, 2329.338
676.0371, 2333.176
676.5192, 2336.496
677.0013, 2339.130
677.4835, 2340.844
677.9656, 2345.015
678.4477, 2352.802
678.9298, 2361.025
679.4119, 2367.109
679.8940, 2371.094
680.3762, 2376.639
680.8583, 2384.250
681.3404, 2391.263
681.8225, 2393.512
682.3046, 2393.397
682.7867, 2396.289
683.2689, 2403.892
683.7510, 2412.483
684.2331, 2419.712
684.7152, 2426.117
685.1973, 2432.208
685.6794, 2437.556
686.1616, 2443.416
686.6437, 2450.157
687.1258, 2457.564
687.6079, 2465.258
688.0900, 2473.338
688.5721, 2481.168
689.0543, 2488.409
689.5364, 2495.281
690.0185, 2502.586
690.5006, 2510.269
690.9827, 2518.067
691.4648, 2525.980
691.9470, 2533.890
692.4291, 2542.106
692.9112, 2550.458
693.3933, 2558.014
693.8754, 2563.431
694.3575, 2568.654
694.8397, 2575.051
695.3218, 2582.867
695.8039, 2590.673
696.2860, 2598.453
696.7681, 2606.126
697.2502, 2613.673
697.7324, 2620.957
698.2145, 2629.037
698.6966, 2638.408
699.1787, 2647.232
699.6608, 2653.183
700.1429, 2656.815
700.6251, 2661.487
701.1072, 2667.912
701.5893, 2673.651
702.0714, 2675.606
702.5535, 2675.490
703.0356, 2675.848
703.5178, 2677.783
703.9999, 2679.543
704.4820, 2680.975
704.9641, 2681.644
705.4462, 2680.883
705.9283, 2678.936
706.4105, 2675.119
706.8926, 2668.605
707.3747, 2660.610
707.8568, 2654.104
708.3389, 2649.195
708.8210, 2644.134
709.3032, 2638.485
709.7853, 2632.173
710.2674, 2624.653
710.7495, 2616.219
711.2316, 2608.377
711.7137, 2602.313
712.1959, 2596.839
712.6780, 2591.550
713.1601, 2586.242
713.6422, 2579.959
714.1243, 2572.454
714.6064, 2563.737
715.0886, 2553.629
715.5707, 2542.011
716.0528, 2530.797
716.5349, 2520.187
717.0170, 2509.271
717.4991, 2496.854
717.9813, 2483.353
718.4634, 2470.976
718.9455, 2459.815
719.4276, 2450.226
719.9097, 2443.483
720.3918, 2438.057
720.8740, 2431.851
721.3561, 2424.256
721.8382, 2417.366
722.3203, 2412.281
722.8024, 2408.176
723.2845, 2404.290
723.7667, 2400.695
724.2488, 2396.850
724.7309, 2392.260
725.2130, 2387.874
725.6951, 2384.896
726.1772, 2383.415
726.6594, 2382.095
727.1415, 2380.742
727.6236, 2379.577
728.1057, 2379.352
728.5878, 2379.567
729.0699, 2378.777
729.5521, 2375.533
730.0342, 2372.740
730.5163, 2372.640
730.9984, 2374.310
731.4805, 2376.089
731.9626, 2377.876
732.4448, 2379.388
732.9269, 2380.507
733.4090, 2381.354
733.8911, 2382.341
734.3732, 2383.655
734.8553, 2384.260
735.3375, 2383.533
735.8196, 2382.119
736.3017, 2381.864
736.7838, 2382.569
737.2659, 2383.007
737.7480, 2381.857
738.2302, 2380.614
738.7123, 2381.409
739.1944, 2383.621
739.6765, 2384.173
740.1586, 2380.151
740.6407, 2375.894
741.1229, 2373.663
741.6050, 2373.324
742.0871, 2371.489
742.5692, 2367.208
743.0513, 2363.667
743.5334, 2363.106
744.0156, 2365.032
744.4977, 2365.090
744.9798, 2363.288
745.4619, 2361.200
745.9440, 2359.679
746.4261, 2358.782
746.9083, 2358.873
747.3904, 2359.992
747.8725, 2360.695
748.3546, 2359.617
748.8367, 2358.345
749.3188, 2357.888
749.8010, 2358.341
750.2831, 2359.581
750.7652, 2362.396
751.2473, 2364.728
751.7294, 2364.595
752.2115, 2362.037
752.6937, 2360.089
753.1758, 2358.926
753.6579, 2358.465
754.1400, 2359.103
754.6221, 2360.266
755.1042, 2360.969
755.5864, 2360.937
756.0685, 2360.910
756.5506, 2361.577
757.0327, 2362.333
757.5148, 2362.550
757.9969, 2361.554
758.4791, 2361.019
758.9612, 2361.297
759.4433, 2361.625
759.9254, 2360.494
760.4075, 2357.716
760.8896, 2357.500
761.3718, 2360.973
761.8539, 2365.523
762.3360, 2367.827
762.8181, 2368.602
763.3002, 2369.359
763.7823, 2370.673
764.2645, 2371.872
764.7466, 2372.372
765.2287, 2372.601
765.7108, 2373.223
766.1929, 2374.645
766.6750, 2376.085
767.1572, 2377.457
767.6393, 2378.857
768.1214, 2380.550
768.6035, 2382.570
769.0856, 2384.325
769.5677, 2385.462
770.0499, 2386.639
770.5320, 2388.889
771.0141, 2391.985
771.4962, 2395.364
771.9783, 2398.081
772.4604, 2401.744
772.9426, 2407.562
773.4247, 2414.884
773.9068, 2422.163
774.3889, 2428.447
774.8710, 2435.765
775.3531, 2444.530
775.8353, 2454.538
776.3174, 2465.297
776.7995, 2476.743
777.2816, 2488.817
777.7637, 2501.318
778.2458, 2514.655
778.7280, 2529.602
779.2101, 2546.058
779.6922, 2563.326
780.1743, 2580.567
780.6564, 2599.244
781.1385, 2620.711
781.6207, 2644.592
782.1028, 2668.621
782.5849, 2692.233
783.0670, 2716.758
783.5491, 2742.439
784.0313, 2769.314
784.5134, 2799.063
784.9955, 2831.980
785.4776, 2862.088
785.9597, 2886.262
786.4418, 2906.601
786.9240, 2926.972
787.4061, 2946.430
787.8882, 2961.259
788.3703, 2970.800
788.8524, 2973.725
789.3345, 2969.027
789.8167, 2956.627
790.2988, 2938.259
790.7809, 2913.315
791.2630, 2883.530
791.7451, 2848.085
792.2272, 2808.586
792.7094, 2768.053
793.1915, 2726.926
793.6736, 2687.736
794.1557, 2651.635
794.6378, 2618.869
795.1199, 2590.225
795.6021, 2565.919
796.0842, 2545.101
796.5663, 2528.701
797.0484, 2514.803
797.5305, 2503.253
798.0126, 2493.839
798.4948, 2484.976
798.9769, 2476.239
799.4590, 2469.273
799.9411, 2465.168
800.4232, 2463.321
800.9053, 2461.674
801.3875, 2460.276
801.8696, 2459.529
802.3517, 2460.646
802.8338, 2461.826
803.3159, 2460.423
803.7980, 2457.066
804.2802, 2455.649
804.7623, 2459.715
805.2444, 2463.492
805.7265, 2464.388
806.2086, 2462.860
806.6907, 2463.052
807.1729, 2465.015
807.6550, 2468.472
808.1371, 2474.457
808.6192, 2481.360
809.1013, 2483.976
809.5834, 2483.102
810.0656, 2483.260
810.5477, 2489.967
811.0298, 2496.247
811.5119, 2496.746
811.9940, 2492.040
812.4761, 2487.679
812.9583, 2484.997
813.4404, 2482.249
813.9225, 2478.949
814.4046, 2475.193
814.8867, 2470.902
815.3688, 2466.032
815.8510, 2462.264
816.3331, 2460.677
816.8152, 2460.580
817.2973, 2461.073
817.7794, 2462.075
818.2615, 2463.349
818.7437, 2463.918
819.2258, 2465.488
819.7079, 2469.983
820.1900, 2476.675
820.6721, 2480.189
821.1542, 2478.857
821.6364, 2477.989
822.1185, 2479.329
822.6006, 2482.406
823.0827, 2486.100
823.5648, 2490.313
824.0469, 2494.372
824.5291, 2497.872
825.0112, 2501.148
825.4933, 2504.927
825.9754, 2508.865
826.4575, 2511.867
826.9396, 2512.974
827.4218, 2513.849
827.9039, 2515.302
828.3860, 2516.842
828.8681, 2516.633
829.3502, 2514.452
829.8323, 2511.858
830.3145, 2509.678
830.7966, 2506.996
831.2787, 2501.984
831.7608, 2494.938
832.2429, 2486.977
832.7250, 2476.813
833.2072, 2467.563
833.6893, 2461.448
834.1714, 2457.483
834.6535, 2453.056
835.1356, 2447.604
835.6177, 2442.438
836.0999, 2437.941
836.5820, 2433.675
837.0641, 2428.243
837.5462, 2421.814
838.0283, 2416.191
838.5104, 2411.632
838.9926, 2408.689
839.4747, 2408.713
839.9568, 2410.621
840.4389, 2412.544
840.9210, 2414.046
841.4031, 2415.194
841.8853, 2415.313
842.3674, 2415.379
842.8495, 2416.974
843.3316, 2420.466
843.8137, 2423.586
844.2958, 2426.037
844.7780, 2427.796
845.2601, 2428.121
845.7422, 2427.778
846.2243, 2428.804
846.7064, 2432.360
847.1885, 2435.819
847.6707, 2437.790
848.1528, 2438.800
848.6349, 2439.364
849.1170, 2438.166
849.5991, 2439.325
850.0812, 2443.804
850.5634, 2449.337
851.0455, 2453.601
851.5276, 2456.710
852.0097, 2459.350
852.4918, 2461.627
852.9739, 2463.500
853.4561, 2464.849
853.9382, 2465.825
854.4203, 2466.532
854.9024, 2466.879
855.3845, 2467.272
855.8666, 2467.539
856.3488, 2468.044
856.8309, 2469.341
857.3130, 2471.765
857.7951, 2471.747
858.2772, 2468.915
858.7593, 2465.852
859.2415, 2465.445
859.7236, 2466.064
860.2057, 2464.795
860.6878, 2461.401
861.1699, 2457.807
861.6520, 2453.858
862.1342, 2450.909
862.6163, 2450.880
863.0984, 2454.021
863.5805, 2452.787
864.0626, 2445.813
864.5447, 2438.643
865.0269, 2435.000
865.5090, 2433.594
865.9911, 2429.381
866.4732, 2422.893
866.9553, 2417.528
867.4374, 2416.293
867.9196, 2416.196
868.4017, 2415.201
868.8838, 2413.400
869.3659, 2412.211
869.8480, 2412.079
870.3301, 2411.919
870.8123, 2411.411
871.2944, 2410.582
871.7765, 2409.374
872.2586, 2407.841
872.7407, 2406.751
873.2228, 2406.738
873.7050, 2406.969
874.1871, 2406.508
874.6692, 2405.663
875.1513, 2405.093
875.6334, 2406.032
876.1155, 2406.006
876.5977, 2404.329
877.0798, 2401.740
877.5619, 2399.369
878.0440, 2397.200
878.5261, 2395.725
879.0082, 2395.009
879.4904, 2395.102
879.9725, 2396.850
880.4546, 2399.226
880.9367, 2400.277
881.4188, 2398.638
881.9009, 2397.438
882.3831, 2398.901
882.8652, 2400.587
883.3473, 2399.862
883.8294, 2395.792
884.3115, 2393.069
884.7936, 2392.074
885.2758, 2391.697
885.7579, 2390.813
886.2400, 2389.714
886.7221, 2388.773
887.2042, 2388.005
887.6863, 2388.437
888.1685, 2392.190
888.6506, 2396.173
889.1327, 2397.945
889.6148, 2397.044
890.0969, 2396.595
890.5790, 2396.533
891.0612, 2396.931
891.5433, 2397.934
892.0254, 2399.360
892.5075, 2400.735
892.9896, 2402.008
893.4717, 2402.948
893.9539, 2403.360
894.4360, 2403.448
894.9181, 2403.240
895.4002, 2402.814
895.8823, 2402.629
896.3644, 2403.476
896.8466, 2403.111
897.3287, 2400.320
897.8108, 2396.519
898.2929, 2395.802
898.7750, 2397.724
899.2571, 2399.207
899.7393, 2398.842
900.2214, 2397.986
900.7035, 2397.845
901.1856, 2397.954
901.6677, 2397.530
902.1498, 2395.141
902.6320, 2393.987
903.1141, 2394.780
903.5962, 2396.157
904.0783, 2396.031
904.5604, 2394.545
905.0425, 2394.017
905.5247, 2394.902
906.0068, 2395.987
906.4889, 2396.072
906.9710, 2395.768
907.4531, 2395.803
907.9352, 2396.465
908.4174, 2396.946
908.8995, 2397.295
909.3816, 2397.304
909.8637, 2396.568
910.3458, 2395.085
910.8279, 2395.126
911.3101, 2396.716
911.7922, 2398.114
912.2743, 2397.835
912.7564, 2396.815
913.2385, 2395.697
913.7206, 2394.633
914.2028, 2394.430
914.6849, 2396.653
915.1670, 2398.231
915.6491, 2398.176
916.1312, 2396.844
916.6133, 2395.609
917.0955, 2394.494
917.5776, 2392.934
918.0597, 2390.457
918.5418, 2387.865
919.0239, 2386.551
919.5060, 2385.784
919.9882, 2384.168
920.4703, 2379.242
920.9524, 2376.041
921.4345, 2376.125
921.9166, 2377.597
922.3987, 2378.296
922.8809, 2378.168
923.3630, 2377.450
923.8451, 2376.042
924.3272, 2374.622
924.8093, 2374.257
925.2914, 2374.173
925.7736, 2373.103
926.2557, 2370.578
926.7378, 2369.018
927.2199, 2370.260
927.7020, 2371.665
928.1841, 2371.988
928.6663, 2371.247
929.1484, 2369.906
929.6305, 2367.910
930.1126, 2366.451
930.5947, 2366.733
931.0768, 2367.669
931.5590, 2367.410
932.0411, 2366.437
932.5232, 2366.815
933.0053, 2371.408
933.4874, 2374.748
933.9695, 2374.995
934.4517, 2373.368
934.9338, 2372.643
935.4159, 2372.837
935.8980, 2374.044
936.3801, 2376.532
936.8622, 2379.411
937.3444, 2381.712
937.8265, 2383.644
938.3086, 2385.499
938.7907, 2387.085
939.2728, 2389.077
939.7549, 2391.470
940.2371, 2394.342
940.7192, 2397.987
941.2013, 2402.406
941.6834, 2406.313
942.1655, 2409.598
942.6476, 2413.055
943.1298, 2418.522
943.6119, 2423.672
944.0940, 2425.506
944.5761, 2424.000
945.0582, 2423.016
945.5403, 2425.333
946.0225, 2425.869
946.5046, 2422.154
946.9867, 2415.651
947.4688, 2412.656
947.9509, 2412.987
948.4330, 2413.142
948.9152, 2411.489
949.3973, 2409.257
949.8794, 2407.285
950.3615, 2405.650
950.8436, 2404.488
951.3257, 2404.507
951.8079, 2404.064
952.2900, 2402.968
952.7721, 2401.542
953.2542, 2400.050
953.7363, 2398.540
954.2184, 2397.337
954.7006, 2396.490
955.1827, 2395.867
955.6648, 2395.831
956.1469, 2395.653
956.6290, 2394.554
957.1111, 2392.337
957.5933, 2390.340
958.0754, 2387.977
958.5575, 2387.200
959.0396, 2389.797
959.5217, 2394.379
960.0038, 2395.884
960.4860, 2394.794
960.9681, 2393.610
961.4502, 2393.414
961.9323, 2393.757
962.4144, 2394.744
962.8965, 2396.000
963.3787, 2396.617
963.8608, 2395.999
964.3429, 2396.269
964.8250, 2397.942
965.3071, 2399.905
965.7892, 2400.322
966.2714, 2399.859
966.7535, 2400.386
967.2356, 2402.396
967.7177, 2404.032
968.1998, 2404.402
968.6819, 2403.881
969.1641, 2402.228
969.6462, 2399.224
970.1283, 2399.087
970.6104, 2402.426
971.0925, 2405.173
971.5746, 2404.085
972.0568, 2401.362
972.5389, 2401.397
973.0210, 2403.335
973.5031, 2404.361
973.9852, 2401.966
974.4673, 2400.081
974.9495, 2399.883
975.4316, 2400.840
975.9137, 2402.315
976.3958, 2404.371
976.8779, 2405.916
977.3600, 2406.637
977.8422, 2407.492
978.3243, 2410.250
978.8064, 2413.431
979.2885, 2414.961
979.7706, 2414.140
980.2527, 2413.483
980.7349, 2412.419
981.2170, 2412.954
981.6991, 2417.179
982.1812, 2424.207
982.6633, 2426.308
983.1454, 2423.919
983.6276, 2422.248
984.1097, 2425.497
984.5918, 2429.543
985.0739, 2431.199
985.5560, 2431.153
986.0381, 2431.259
986.5203, 2431.293
987.0024, 2432.448
987.4845, 2435.289
987.9666, 2438.542
988.4487, 2439.941
988.9308, 2440.270
989.4130, 2442.061
989.8951, 2445.962
990.3772, 2449.749
990.8593, 2452.115
991.3414, 2453.908
991.8235, 2455.663
992.3057, 2457.411
992.7878, 2459.169
993.2699, 2460.849
993.7520, 2463.141
994.2341, 2466.526
994.7162, 2470.673
995.1984, 2474.903
995.6805, 2479.397
996.1626, 2484.537
996.6447, 2491.361
997.1268, 2497.671
997.6089, 2501.622
998.0911, 2506.009
998.5732, 2515.496
999.0553, 2530.047
999.5374, 2543.095
1000.020, 2553.617
1000.502, 2562.595
1000.984, 2571.200
1001.466, 2578.284
1001.948, 2582.835
1002.430, 2584.651
1002.912, 2583.498
1003.394, 2578.988
1003.876, 2572.587
1004.359, 2564.566
1004.841, 2555.311
1005.323, 2545.464
1005.805, 2535.437
1006.287, 2527.238
1006.769, 2522.017
1007.251, 2518.362
1007.733, 2514.765
1008.216, 2512.832
1008.698, 2515.023
1009.180, 2523.032
1009.662, 2528.580
1010.144, 2530.909
1010.626, 2532.360
1011.108, 2534.877
1011.590, 2538.104
1012.072, 2541.915
1012.555, 2546.205
1013.037, 2549.376
1013.519, 2549.479
1014.001, 2550.031
1014.483, 2552.915
1014.965, 2556.799
1015.447, 2556.613
1015.929, 2552.760
1016.411, 2549.575
1016.894, 2549.023
1017.376, 2548.331
1017.858, 2544.799
1018.340, 2539.841
1018.822, 2535.278
1019.304, 2531.700
1019.786, 2527.526
1020.268, 2522.546
1020.751, 2517.609
1021.233, 2513.396
1021.715, 2509.726
1022.197, 2506.302
1022.679, 2503.052
1023.161, 2499.667
1023.643, 2494.664
1024.125, 2490.990
1024.607, 2490.642
1025.090, 2492.063
1025.572, 2491.913
1026.054, 2490.001
1026.536, 2489.084
1027.018, 2489.754
1027.500, 2490.991
1027.982, 2491.901
1028.464, 2492.652
1028.947, 2493.579
1029.429, 2494.918
1029.911, 2495.347
1030.393, 2494.509
1030.875, 2493.385
1031.357, 2491.925
1031.839, 2490.829
1032.321, 2493.533
1032.803, 2499.050
1033.286, 2503.207
1033.768, 2504.688
1034.250, 2503.482
1034.732, 2497.700
1035.214, 2490.020
1035.696, 2484.347
1036.178, 2480.887
1036.660, 2477.895
1037.143, 2475.174
1037.625, 2472.962
1038.107, 2471.555
1038.589, 2470.612
1039.071, 2469.829
1039.553, 2469.135
1040.035, 2468.339
1040.517, 2467.602
1041.000, 2466.374
1041.482, 2464.270
1041.964, 2461.872
1042.446, 2460.834
1042.928, 2460.836
1043.410, 2460.489
1043.892, 2459.253
1044.374, 2458.086
1044.856, 2458.110
1045.339, 2458.140
1045.821, 2456.984
1046.303, 2454.411
1046.785, 2452.617
1047.267, 2451.720
1047.749, 2450.638
1048.231, 2448.046
1048.713, 2445.310
1049.195, 2444.683
1049.677, 2445.389
1050.160, 2445.217
1050.642, 2442.146
1051.124, 2440.074
1051.606, 2439.540
1052.088, 2439.927
1052.570, 2440.797
1053.052, 2441.899
1053.534, 2442.113
1054.017, 2441.276
1054.499, 2440.405
1054.981, 2440.026
1055.463, 2439.925
1055.945, 2440.500
1056.427, 2441.391
1056.909, 2440.029
1057.391, 2436.216
1057.874, 2432.719
1058.356, 2430.597
1058.838, 2429.024
1059.320, 2427.072
1059.802, 2425.020
1060.284, 2423.098
1060.766, 2420.820
1061.248, 2420.313
1061.730, 2422.462
1062.213, 2424.737
1062.695, 2425.163
1063.177, 2424.250
1063.659, 2423.677
1064.141, 2423.438
1064.623, 2423.582
1065.105, 2425.247
1065.587, 2425.940
1066.070, 2423.361
1066.552, 2419.856
1067.034, 2419.351
1067.516, 2421.970
1067.998, 2422.769
1068.480, 2420.948
1068.962, 2419.495
1069.444, 2422.541
1069.927, 2426.185
1070.409, 2426.663
1070.891, 2423.659
1071.373, 2420.711
1071.855, 2417.484
1072.337, 2415.760
1072.819, 2416.488
1073.301, 2418.387
1073.783, 2419.817
1074.266, 2420.524
1074.748, 2419.691
1075.230, 2416.057
1075.712, 2413.849
1076.194, 2415.211
1076.676, 2417.114
1077.158, 2417.709
1077.640, 2417.161
1078.122, 2417.215
1078.604, 2417.827
1079.087, 2418.647
1079.569, 2419.980
1080.051, 2420.915
1080.533, 2420.404
1081.015, 2419.275
1081.497, 2419.022
1081.979, 2419.766
1082.461, 2421.143
1082.944, 2423.348
1083.426, 2424.654
1083.908, 2421.806
1084.390, 2418.139
1084.872, 2418.496
1085.354, 2422.662
1085.836, 2424.484
1086.318, 2421.372
1086.801, 2419.335
1087.283, 2420.217
1087.765, 2422.237
1088.247, 2421.666
1088.729, 2419.625
1089.211, 2419.075
1089.693, 2420.784
1090.175, 2423.162
1090.657, 2426.520
1091.140, 2429.339
1091.622, 2430.726
1092.104, 2430.818
1092.586, 2430.695
1093.068, 2430.354
1093.550, 2429.799
1094.032, 2428.860
1094.514, 2427.965
1094.997, 2426.414
1095.479, 2425.618
1095.961, 2427.867
1096.443, 2435.039
1096.925, 2438.223
1097.407, 2436.787
1097.889, 2435.360
1098.371, 2438.573
1098.854, 2443.172
1099.336, 2444.952
1099.818, 2444.418
1100.300, 2443.938
1100.782, 2444.461
1101.264, 2444.200
1101.746, 2442.582
1102.228, 2440.843
1102.710, 2440.815
1103.193, 2441.958
1103.675, 2442.766
1104.157, 2443.074
1104.639, 2444.222
1105.121, 2448.419
1105.603, 2451.672
1106.085, 2452.074
1106.567, 2450.718
1107.049, 2451.085
1107.531, 2452.927
1108.014, 2454.162
1108.496, 2453.938
1108.978, 2453.992
1109.460, 2454.480
1109.942, 2456.610
1110.424, 2462.775
1110.906, 2473.342
1111.388, 2475.667
1111.871, 2469.045
1112.353, 2464.371
1112.835, 2468.824
1113.317, 2475.703
1113.799, 2478.199
1114.281, 2477.904
1114.763, 2477.381
1115.245, 2476.797
1115.728, 2476.740
1116.210, 2477.383
1116.692, 2478.101
1117.174, 2478.424
1117.656, 2478.460
1118.138, 2478.111
1118.620, 2477.572
1119.102, 2477.621
1119.584, 2479.049
1120.067, 2480.194
1120.549, 2480.346
1121.031, 2480.699
1121.513, 2483.816
1121.995, 2488.457
1122.477, 2489.980
1122.959, 2488.011
1123.441, 2485.841
1123.924, 2485.390
1124.406, 2484.865
1124.888, 2483.097
1125.370, 2480.910
1125.852, 2481.017
1126.334, 2483.188
1126.816, 2484.469
1127.298, 2484.183
1127.781, 2483.086
1128.263, 2480.689
1128.745, 2478.597
1129.227, 2478.599
1129.709, 2480.556
1130.191, 2480.947
1130.673, 2479.692
1131.155, 2478.065
1131.637, 2476.334
1132.120, 2474.844
1132.602, 2473.225
1133.084, 2472.369
1133.566, 2473.943
1134.048, 2479.431
1134.530, 2482.385
1135.012, 2482.217
1135.494, 2481.805
1135.976, 2483.695
1136.458, 2486.077
1136.941, 2485.405
1137.423, 2482.917
1137.905, 2481.618
1138.387, 2484.059
1138.869, 2484.901
1139.351, 2483.083
1139.833, 2481.356
1140.315, 2483.211
1140.798, 2486.972
1141.280, 2488.458
1141.762, 2487.839
1142.244, 2487.329
1142.726, 2487.932
1143.208, 2488.589
1143.690, 2488.986
1144.172, 2489.398
1144.655, 2490.397
1145.137, 2491.808
1145.619, 2492.970
1146.101, 2493.816
1146.583, 2494.496
1147.065, 2495.047
1147.547, 2495.577
1148.029, 2496.174
1148.511, 2496.819
1148.994, 2497.374
1149.476, 2497.872
1149.958, 2498.320
1150.440, 2498.521
1150.922, 2499.718
1151.404, 2503.910
1151.886, 2508.480
1152.368, 2511.489
1152.851, 2512.998
1153.333, 2513.426
1153.815, 2512.727
1154.297, 2513.371
1154.779, 2516.966
1155.261, 2520.597
1155.743, 2521.126
1156.225, 2520.391
1156.708, 2520.590
1157.190, 2522.041
1157.672, 2522.984
1158.154, 2523.511
1158.636, 2522.864
1159.118, 2519.887
1159.600, 2516.431
1160.082, 2514.716
1160.564, 2513.991
1161.047, 2512.921
1161.529, 2511.164
1162.011, 2509.501
1162.493, 2507.867
1162.975, 2506.719
1163.457, 2506.517
1163.939, 2506.926
1164.421, 2507.802
1164.903, 2508.875
1165.385, 2509.380
1165.868, 2508.603
1166.350, 2508.268
1166.832, 2508.748
1167.314, 2508.866
1167.796, 2506.288
1168.278, 2503.013
1168.760, 2503.443
1169.242, 2507.068
1169.725, 2509.134
1170.207, 2505.789
1170.689, 2504.704
1171.171, 2507.936
1171.653, 2512.192
1172.135, 2512.164
1172.617, 2509.750
1173.099, 2509.226
1173.582, 2511.053
1174.064, 2513.342
1174.546, 2516.260
1175.028, 2518.376
1175.510, 2519.146
1175.992, 2519.061
1176.474, 2518.593
1176.956, 2518.102
1177.438, 2518.727
1177.921, 2520.743
1178.403, 2523.274
1178.885, 2526.640
1179.367, 2529.743
1179.849, 2532.241
1180.331, 2534.148
1180.813, 2534.940
1181.295, 2535.055
1181.778, 2536.220
1182.260, 2539.188
1182.742, 2542.222
1183.224, 2544.954
1183.706, 2547.087
1184.188, 2548.336
1184.670, 2548.864
1185.152, 2549.516
1185.635, 2550.254
1186.117, 2550.941
1186.599, 2551.335
1187.081, 2552.013
1187.563, 2554.104
1188.045, 2555.797
1188.527, 2555.440
1189.009, 2553.272
1189.491, 2552.289
1189.974, 2552.424
1190.456, 2553.179
1190.938, 2554.946
1191.420, 2556.415
1191.902, 2556.955
1192.384, 2556.856
1192.866, 2556.114
1193.348, 2554.685
1193.830, 2555.143
1194.313, 2557.321
1194.795, 2559.202
1195.277, 2559.182
1195.759, 2558.966
1196.241, 2559.816
1196.723, 2560.781
1197.205, 2560.459
1197.687, 2558.808
1198.169, 2558.245
1198.652, 2558.840
1199.134, 2559.066
1199.616, 2556.013
1200.098, 2554.296
1200.580, 2558.968
1201.062, 2565.776
1201.544, 2567.184
1202.026, 2563.006
1202.509, 2560.918
1202.991, 2561.590
1203.473, 2563.191
1203.955, 2565.014
1204.437, 2566.671
1204.919, 2568.043
1205.401, 2568.974
1205.883, 2568.784
1206.365, 2567.397
1206.848, 2567.390
1207.330, 2569.152
1207.812, 2571.089
1208.294, 2572.531
1208.776, 2573.200
1209.258, 2572.315
1209.740, 2570.584
1210.222, 2570.006
1210.705, 2570.610
1211.187, 2570.901
1211.669, 2570.553
1212.151, 2570.658
1212.633, 2573.366
1213.115, 2575.765
1213.597, 2574.935
1214.079, 2572.019
1214.562, 2571.125
1215.044, 2572.216
1215.526, 2573.509
1216.008, 2574.757
1216.490, 2575.221
1216.972, 2572.439
1217.454, 2570.299
1217.936, 2572.862
1218.418, 2578.708
1218.901, 2580.435
1219.383, 2578.205
1219.865, 2575.945
1220.347, 2574.575
1220.829, 2574.129
1221.311, 2575.470
1221.793, 2577.019
1222.275, 2577.820
1222.757, 2577.826
1223.240, 2576.059
1223.722, 2572.761
1224.204, 2571.012
1224.686, 2572.610
1225.168, 2573.819
1225.650, 2571.485
1226.132, 2568.401
1226.614, 2567.042
1227.096, 2567.071
1227.579, 2564.513
1228.061, 2559.818
1228.543, 2557.038
1229.025, 2558.523
1229.507, 2560.347
1229.989, 2559.828
1230.471, 2559.053
1230.953, 2559.791
1231.436, 2561.779
1231.918, 2563.040
1232.400, 2563.476
1232.882, 2562.368
1233.364, 2558.151
1233.846, 2554.743
1234.328, 2555.066
1234.810, 2556.002
1235.292, 2554.870
1235.775, 2552.211
1236.257, 2553.566
1236.739, 2557.852
1237.221, 2559.114
1237.703, 2551.178
1238.185, 2545.611
1238.667, 2549.430
1239.149, 2554.639
1239.632, 2555.494
1240.114, 2552.787
1240.596, 2551.049
1241.078, 2550.174
1241.560, 2549.680
1242.042, 2549.054
1242.524, 2549.294
1243.006, 2551.356
1243.489, 2553.331
1243.971, 2553.117
1244.453, 2551.578
1244.935, 2553.173
1245.417, 2556.856
1245.899, 2558.677
1246.381, 2555.170
1246.863, 2552.228
1247.345, 2550.425
1247.828, 2549.926
1248.310, 2551.742
1248.792, 2554.750
1249.274, 2556.062
1249.756, 2555.891
1250.238, 2555.100
1250.720, 2553.063
1251.202, 2551.943
1251.684, 2552.113
1252.167, 2552.652
1252.649, 2553.112
1253.131, 2553.171
1253.613, 2551.652
1254.095, 2549.147
1254.577, 2547.668
1255.059, 2548.290
1255.541, 2548.726
1256.023, 2548.707
1256.506, 2548.960
1256.988, 2550.601
1257.470, 2552.606
1257.952, 2553.579
1258.434, 2553.709
1258.916, 2553.588
1259.398, 2553.509
1259.880, 2552.615
1260.363, 2550.710
1260.845, 2549.061
1261.327, 2548.794
1261.809, 2549.289
1262.291, 2549.968
1262.773, 2550.866
1263.255, 2552.464
1263.737, 2555.554
1264.219, 2554.780
1264.702, 2549.492
1265.184, 2544.555
1265.666, 2544.380
1266.148, 2545.375
1266.630, 2544.353
1267.112, 2542.687
1267.594, 2543.551
1268.076, 2547.203
1268.559, 2549.636
1269.041, 2550.594
1269.523, 2550.872
1270.005, 2550.906
1270.487, 2550.545
1270.969, 2548.883
1271.451, 2547.247
1271.933, 2547.818
1272.416, 2550.365
1272.898, 2552.002
1273.380, 2552.590
1273.862, 2552.984
1274.344, 2554.264
1274.826, 2554.592
1275.308, 2552.832
1275.790, 2550.478
1276.272, 2548.998
1276.755, 2548.542
1277.237, 2550.688
1277.719, 2554.895
1278.201, 2557.086
1278.683, 2553.234
1279.165, 2550.218
1279.647, 2549.122
1280.129, 2549.540
1280.611, 2552.533
1281.094, 2556.043
1281.576, 2554.426
1282.058, 2548.781
1282.540, 2545.890
1283.022, 2549.989
1283.504, 2551.978
1283.986, 2550.517
1284.468, 2548.338
1284.950, 2547.965
1285.433, 2548.648
1285.915, 2549.863
1286.397, 2551.297
1286.879, 2551.872
1287.361, 2551.247
1287.843, 2550.997
1288.325, 2551.308
1288.807, 2551.708
1289.290, 2552.112
1289.772, 2552.147
1290.254, 2551.120
1290.736, 2549.565
1291.218, 2548.701
1291.700, 2548.551
1292.182, 2548.522
1292.664, 2548.557
1293.146, 2549.461
1293.629, 2552.760
1294.111, 2556.013
1294.593, 2557.974
1295.075, 2558.903
1295.557, 2558.888
1296.039, 2558.009
1296.521, 2556.552
1297.003, 2554.631
1297.486, 2553.404
1297.968, 2554.753
1298.450, 2555.603
1298.932, 2554.991
1299.414, 2554.128
1299.896, 2554.685
1300.378, 2556.031
1300.860, 2555.665
1301.343, 2554.339
1301.825, 2555.426
##END=



