##NAMES=Rruffite
##RRUFFID=R070431
##IDEAL CHEMISTRY=Ca_2_Cu^2+^(As^5+^O_4_)_2_&#183;2H_2_O
##LOCALITY=Maria Catalina mine, Pampa Larga Mining District, Tierra Amarilla, Copiapo Province, Chile
##OWNER=RRUFF
##SOURCE=Bob Jenkins
##DESCRIPTION=Pale blue blocky crystals associated with green conichalcite, R070430, and pale blue granular barahonite-(Al). This is the type sample.
##STATUS=The identification of this mineral is confirmed by single-crystal X-ray diffraction and chemical analysis.
##URL=rruff.info/R070431
##MEASURED CHEMISTRY=Ca_2.00_Cu_1.00_(As_1.00_O_4_)_2_ Î‡ 2H_2_O ; trace amounts of Fe, S, Al, Mg; H2O estimated by difference
91.03516, 10.14944
91.51727, 9.948071
91.99939, 10.11206
92.48151, 10.53180
92.96362, 10.89697
93.44574, 11.01951
93.92786, 10.97915
94.40997, 11.00843
94.89210, 11.18770
95.37421, 11.23997
95.85633, 10.49536
96.33845, 8.999644
96.82056, 7.782853
97.30268, 7.700680
97.78480, 8.636459
98.26691, 9.459898
98.74903, 10.11491
99.23115, 10.50203
99.71326, 10.15989
100.1954, 8.920381
100.6775, 7.609967
101.1596, 6.952453
101.6417, 7.104873
102.1239, 7.138962
102.6060, 6.776671
103.0881, 6.066308
103.5702, 5.982285
104.0523, 6.926585
104.5344, 8.006673
105.0166, 8.193424
105.4987, 6.808850
105.9808, 5.740201
106.4629, 5.510950
106.9450, 6.358293
107.4271, 6.959777
107.9093, 7.227164
108.3914, 7.282891
108.8735, 7.311233
109.3556, 7.184797
109.8377, 7.149644
110.3198, 7.355186
110.8020, 8.274890
111.2841, 8.520223
111.7662, 7.569209
112.2483, 5.905350
112.7304, 4.598212
113.2125, 3.415398
113.6947, 2.862670
114.1768, 3.261481
114.6589, 5.881305
115.1410, 7.826698
115.6231, 7.911937
116.1052, 6.616460
116.5874, 5.761573
117.0695, 6.403502
117.5516, 7.524989
118.0337, 8.345051
118.5158, 8.876878
118.9980, 8.865072
119.4801, 7.691656
119.9622, 5.503424
120.4443, 3.939769
120.9264, 4.630090
121.4085, 6.287857
121.8907, 7.332315
122.3728, 6.400076
122.8549, 5.058701
123.3370, 4.697284
123.8191, 5.386933
124.3012, 6.168741
124.7834, 6.226183
125.2655, 5.800731
125.7476, 5.408325
126.2297, 5.202889
126.7118, 5.207971
127.1939, 5.568983
127.6761, 6.367042
128.1582, 7.160185
128.6403, 7.434987
129.1224, 7.250708
129.6045, 6.893381
130.0867, 6.390090
130.5688, 5.818346
131.0509, 5.450409
131.5330, 5.317941
132.0151, 5.367053
132.4972, 5.457770
132.9794, 5.589743
133.4615, 5.970840
133.9436, 6.893387
134.4257, 8.313370
134.9078, 9.485208
135.3899, 10.23989
135.8721, 10.74700
136.3542, 11.51198
136.8363, 12.56414
137.3184, 13.74920
137.8005, 14.97203
138.2826, 16.26022
138.7648, 17.43404
139.2469, 18.34364
139.7290, 19.08776
140.2111, 20.39756
140.6932, 22.46896
141.1753, 24.76346
141.6575, 26.76357
142.1396, 28.43839
142.6217, 29.91825
143.1038, 30.98882
143.5859, 31.58926
144.0681, 33.40011
144.5502, 37.21306
145.0323, 41.54504
145.5144, 44.64416
145.9965, 45.40063
146.4786, 46.60775
146.9608, 48.98728
147.4429, 52.86021
147.9250, 56.63902
148.4071, 59.65246
148.8892, 62.83044
149.3713, 67.50349
149.8535, 75.51461
150.3356, 83.26528
150.8177, 89.72999
151.2998, 94.19101
151.7819, 98.89462
152.2640, 103.3547
152.7462, 108.1217
153.2283, 114.0997
153.7104, 122.3755
154.1925, 131.0340
154.6746, 139.3717
155.1567, 146.9449
155.6389, 154.6785
156.1210, 162.7313
156.6031, 171.0544
157.0852, 179.6078
157.5673, 188.8695
158.0495, 197.9812
158.5316, 206.6034
159.0137, 214.4287
159.4958, 222.0159
159.9779, 229.0972
160.4600, 235.9914
160.9422, 243.7403
161.4243, 253.7130
161.9064, 264.0732
162.3885, 273.5384
162.8706, 281.4737
163.3527, 289.0025
163.8349, 296.8558
164.3170, 304.8589
164.7991, 312.1778
165.2812, 318.7305
165.7633, 324.2886
166.2454, 328.6653
166.7276, 332.4130
167.2097, 334.3996
167.6918, 333.2290
168.1739, 329.2289
168.6560, 325.0507
169.1381, 322.1669
169.6203, 319.8924
170.1024, 315.4583
170.5845, 308.9678
171.0666, 303.1856
171.5487, 299.6053
172.0309, 298.1156
172.5130, 297.5368
172.9951, 298.0614
173.4772, 298.8151
173.9593, 298.4170
174.4414, 296.4406
174.9236, 293.0414
175.4057, 288.3193
175.8878, 282.2509
176.3699, 275.2051
176.8520, 267.5553
177.3341, 259.1223
177.8163, 249.4581
178.2984, 237.8203
178.7805, 225.1272
179.2626, 212.1314
179.7447, 198.9161
180.2268, 186.9672
180.7090, 178.1926
181.1911, 172.0952
181.6732, 167.3366
182.1553, 164.3083
182.6374, 162.0691
183.1195, 158.3907
183.6017, 152.9333
184.0838, 147.4428
184.5659, 144.1183
185.0480, 142.5991
185.5301, 140.9066
186.0123, 137.7420
186.4944, 133.6323
186.9765, 130.3412
187.4586, 127.9389
187.9407, 126.1642
188.4228, 124.8650
188.9050, 123.9952
189.3871, 123.0112
189.8692, 121.5101
190.3513, 119.6273
190.8334, 117.9737
191.3155, 116.5638
191.7977, 115.4470
192.2798, 114.8381
192.7619, 114.7356
193.2440, 114.6081
193.7261, 113.8911
194.2082, 112.7044
194.6904, 112.5650
195.1725, 113.7841
195.6546, 115.6146
196.1367, 116.5706
196.6188, 116.5960
197.1009, 116.5988
197.5831, 117.1499
198.0652, 118.2501
198.5473, 118.9975
199.0294, 119.1570
199.5115, 119.1995
199.9937, 120.1306
200.4758, 122.0063
200.9579, 124.2795
201.4400, 126.8357
201.9221, 129.7329
202.4042, 131.9881
202.8864, 133.2748
203.3685, 134.1615
203.8506, 136.1174
204.3327, 139.3525
204.8148, 142.7153
205.2969, 145.6645
205.7791, 148.2087
206.2612, 150.2604
206.7433, 151.7265
207.2254, 152.7677
207.7075, 153.8935
208.1896, 155.3071
208.6718, 156.2265
209.1539, 156.0877
209.6360, 154.6578
210.1181, 153.4366
210.6002, 152.7057
211.0823, 152.1265
211.5645, 150.7151
212.0466, 148.3186
212.5287, 145.4437
213.0108, 142.1794
213.4929, 138.2169
213.9750, 135.1012
214.4572, 133.3243
214.9393, 132.2878
215.4214, 129.9400
215.9035, 125.4919
216.3856, 121.3120
216.8678, 118.8724
217.3499, 118.6986
217.8320, 118.4376
218.3141, 118.0559
218.7962, 117.4967
219.2783, 116.4432
219.7605, 114.4413
220.2426, 112.7799
220.7247, 112.2557
221.2068, 113.3193
221.6889, 114.2165
222.1710, 114.7910
222.6532, 115.1704
223.1353, 115.8214
223.6174, 117.1401
224.0995, 118.0852
224.5816, 117.9345
225.0637, 115.8203
225.5459, 114.8926
226.0280, 115.7250
226.5101, 117.6988
226.9922, 118.8734
227.4743, 118.8951
227.9564, 118.6948
228.4386, 118.7125
228.9207, 119.0313
229.4028, 119.3529
229.8849, 119.6173
230.3670, 119.8925
230.8492, 120.4148
231.3313, 121.3612
231.8134, 122.2778
232.2955, 122.9012
232.7776, 122.8584
233.2597, 123.3876
233.7419, 124.6614
234.2240, 126.4707
234.7061, 128.2174
235.1882, 129.7383
235.6703, 131.4409
236.1524, 133.5777
236.6346, 136.4818
237.1167, 139.0187
237.5988, 140.9937
238.0809, 142.6790
238.5630, 144.7554
239.0451, 147.3586
239.5273, 150.1246
240.0094, 152.8659
240.4915, 155.4038
240.9736, 158.3539
241.4557, 161.5095
241.9378, 165.1750
242.4200, 170.0444
242.9021, 176.7094
243.3842, 183.7537
243.8663, 190.8932
244.3484, 198.7043
244.8306, 204.8364
245.3127, 208.7226
245.7948, 211.1846
246.2769, 213.7639
246.7590, 216.9727
247.2411, 219.3923
247.7233, 220.5085
248.2054, 220.1604
248.6875, 219.1388
249.1696, 217.5852
249.6517, 215.2878
250.1338, 211.9311
250.6160, 207.5726
251.0981, 202.0037
251.5802, 194.8340
252.0623, 185.4629
252.5444, 177.4271
253.0265, 171.2334
253.5087, 166.0150
253.9908, 160.6243
254.4729, 154.6732
254.9550, 149.2666
255.4371, 144.7780
255.9192, 141.3484
256.4014, 137.9649
256.8835, 134.4251
257.3656, 131.1319
257.8477, 128.5426
258.3298, 126.9364
258.8120, 125.3927
259.2941, 123.6423
259.7762, 121.6516
260.2583, 119.8693
260.7404, 118.2034
261.2225, 116.8347
261.7047, 116.0426
262.1868, 116.1905
262.6689, 115.9231
263.1510, 114.7493
263.6331, 112.7179
264.1152, 111.3114
264.5974, 110.6359
265.0795, 110.4387
265.5616, 110.6124
266.0437, 111.3715
266.5258, 111.7542
267.0079, 111.3353
267.4901, 110.2930
267.9722, 110.4125
268.4543, 112.1994
268.9364, 114.1460
269.4185, 114.8742
269.9006, 114.0107
270.3828, 113.5578
270.8649, 113.8363
271.3470, 114.7509
271.8291, 115.8731
272.3112, 117.2286
272.7933, 118.7539
273.2755, 120.4384
273.7576, 122.3161
274.2397, 124.1094
274.7218, 125.7673
275.2039, 127.3124
275.6860, 128.6207
276.1682, 129.4898
276.6503, 130.9293
277.1324, 133.9439
277.6145, 138.6805
278.0966, 142.5822
278.5787, 145.1950
279.0609, 147.1699
279.5430, 149.9580
280.0251, 153.6160
280.5072, 157.6935
280.9893, 162.0595
281.4715, 166.6789
281.9536, 171.2164
282.4357, 175.4930
282.9178, 180.0057
283.3999, 185.6678
283.8820, 192.5135
284.3642, 199.8636
284.8463, 207.5610
285.3284, 215.5983
285.8105, 223.4106
286.2926, 230.9435
286.7747, 238.5292
287.2569, 246.2646
287.7390, 254.1858
288.2211, 263.3914
288.7032, 274.9909
289.1853, 288.3355
289.6674, 300.9640
290.1496, 313.0003
290.6317, 323.9636
291.1138, 333.2528
291.5959, 340.9792
292.0780, 347.6797
292.5602, 354.1941
293.0423, 359.6454
293.5244, 361.5756
294.0065, 359.9117
294.4886, 356.0892
294.9707, 350.7979
295.4529, 344.2556
295.9350, 337.3299
296.4171, 329.9980
296.8992, 322.5420
297.3813, 315.5551
297.8634, 309.0424
298.3456, 302.6942
298.8277, 296.5427
299.3098, 290.4327
299.7919, 284.0888
300.2740, 277.5870
300.7561, 270.6676
301.2383, 262.9460
301.7204, 254.5112
302.2025, 246.2794
302.6846, 238.9960
303.1667, 232.1738
303.6488, 224.8058
304.1310, 216.6214
304.6131, 208.4735
305.0952, 201.2682
305.5773, 194.8581
306.0594, 188.8715
306.5415, 182.7996
307.0237, 177.1614
307.5058, 172.5839
307.9879, 169.2695
308.4700, 166.2212
308.9521, 162.2392
309.4343, 158.0311
309.9164, 154.7445
310.3985, 153.4879
310.8806, 152.8935
311.3627, 151.6904
311.8448, 149.7979
312.3270, 148.6323
312.8091, 149.5246
313.2912, 151.4630
313.7733, 153.2527
314.2554, 154.0172
314.7375, 154.9180
315.2197, 156.6266
315.7018, 159.0875
316.1839, 161.6730
316.6660, 164.1490
317.1481, 166.6181
317.6302, 169.0927
318.1124, 170.8767
318.5945, 173.5479
319.0766, 178.2533
319.5587, 184.4277
320.0408, 190.1717
320.5229, 194.0092
321.0051, 197.8692
321.4872, 202.9046
321.9693, 209.8122
322.4514, 216.8116
322.9335, 222.8565
323.4156, 228.8009
323.8978, 236.2914
324.3799, 246.7394
324.8620, 257.7966
325.3441, 268.5079
325.8262, 278.1670
326.3083, 289.1714
326.7905, 301.9584
327.2726, 316.1574
327.7547, 331.1273
328.2368, 347.5077
328.7189, 364.0908
329.2010, 380.6730
329.6832, 397.0749
330.1653, 413.8680
330.6474, 431.6769
331.1295, 449.4084
331.6116, 466.4799
332.0938, 483.7562
332.5759, 499.0810
333.0580, 512.2148
333.5401, 523.2147
334.0222, 531.6985
334.5043, 537.9846
334.9865, 541.4315
335.4686, 541.6682
335.9507, 538.4561
336.4328, 532.4823
336.9149, 523.1392
337.3970, 511.2509
337.8792, 499.1839
338.3613, 486.5017
338.8434, 474.3866
339.3255, 463.2279
339.8076, 453.0022
340.2898, 443.7982
340.7719, 435.7998
341.2540, 428.3819
341.7361, 420.6599
342.2182, 412.8362
342.7003, 404.0805
343.1825, 394.1082
343.6646, 382.9467
344.1467, 371.2816
344.6288, 358.9220
345.1109, 346.5087
345.5930, 334.5789
346.0752, 323.1949
346.5573, 311.4605
347.0394, 298.8968
347.5215, 285.9865
348.0036, 273.1660
348.4857, 260.5100
348.9679, 248.7836
349.4500, 238.6832
349.9321, 229.8647
350.4142, 221.4089
350.8963, 213.1660
351.3784, 205.1470
351.8606, 197.1539
352.3427, 189.4341
352.8248, 182.7352
353.3069, 178.2537
353.7890, 174.8400
354.2711, 170.6746
354.7533, 165.5204
355.2354, 160.6798
355.7175, 157.4852
356.1996, 155.3943
356.6817, 153.4616
357.1638, 151.4565
357.6460, 149.3401
358.1281, 146.8905
358.6102, 144.1657
359.0923, 141.7366
359.5744, 140.1765
360.0565, 138.9848
360.5387, 137.6735
361.0208, 135.9973
361.5029, 134.3098
361.9850, 132.7663
362.4671, 131.3415
362.9492, 129.9789
363.4314, 128.4812
363.9135, 127.1697
364.3956, 126.2397
364.8777, 125.8112
365.3598, 125.5364
365.8419, 125.6815
366.3241, 125.8636
366.8062, 125.5044
367.2883, 123.5754
367.7704, 122.0111
368.2526, 121.5179
368.7347, 122.3702
369.2168, 122.7634
369.6989, 122.1743
370.1810, 121.4224
370.6631, 121.1947
371.1453, 121.9982
371.6274, 122.5675
372.1095, 122.6637
372.5916, 122.3731
373.0737, 122.2674
373.5558, 122.3970
374.0380, 122.6342
374.5201, 122.8568
375.0022, 122.9177
375.4843, 123.4711
375.9664, 124.6629
376.4485, 126.2472
376.9307, 127.8831
377.4128, 129.6597
377.8949, 131.0355
378.3770, 131.5478
378.8591, 131.2653
379.3412, 131.7945
379.8234, 133.3183
380.3055, 134.9926
380.7876, 135.8196
381.2697, 135.8450
381.7518, 135.7576
382.2339, 135.7942
382.7161, 135.7949
383.1982, 135.3508
383.6803, 134.4743
384.1624, 133.3944
384.6445, 132.1056
385.1266, 130.7546
385.6088, 129.8604
386.0909, 129.7079
386.5730, 129.3824
387.0551, 127.4254
387.5372, 124.3691
388.0193, 121.7001
388.5015, 120.2229
388.9836, 119.5396
389.4657, 119.5276
389.9478, 120.2088
390.4299, 120.5482
390.9120, 119.4069
391.3942, 117.6471
391.8763, 116.3517
392.3584, 116.4248
392.8405, 116.5431
393.3226, 115.7162
393.8047, 114.2346
394.2869, 113.4268
394.7690, 114.6617
395.2511, 116.1509
395.7332, 116.7126
396.2154, 115.5913
396.6975, 114.7390
397.1796, 114.6268
397.6617, 115.0267
398.1438, 115.5408
398.6259, 116.0157
399.1081, 116.6973
399.5902, 117.8488
400.0723, 119.6382
400.5544, 120.7040
401.0365, 120.4534
401.5186, 119.9171
402.0008, 119.9465
402.4829, 120.8229
402.9650, 121.7500
403.4471, 122.7782
403.9292, 123.7925
404.4113, 124.2197
404.8935, 123.8225
405.3756, 123.3918
405.8577, 123.3004
406.3398, 123.5577
406.8219, 124.1380
407.3040, 125.1365
407.7862, 126.2825
408.2683, 127.1420
408.7504, 127.7033
409.2325, 128.4183
409.7146, 129.4718
410.1967, 130.7845
410.6789, 132.2223
411.1610, 133.7940
411.6431, 135.3144
412.1252, 136.5104
412.6073, 137.5117
413.0894, 138.6350
413.5716, 139.8388
414.0537, 141.3562
414.5358, 143.7626
415.0179, 146.7751
415.5000, 149.5557
415.9821, 151.6434
416.4643, 153.2314
416.9464, 154.2455
417.4285, 154.6143
417.9106, 155.4007
418.3927, 157.4140
418.8748, 160.1945
419.3570, 163.1589
419.8391, 166.5564
420.3212, 169.6969
420.8033, 172.4621
421.2854, 174.7925
421.7675, 176.4865
422.2497, 176.6442
422.7318, 176.7809
423.2139, 177.8180
423.6960, 180.5797
424.1781, 182.6586
424.6602, 183.4411
425.1424, 183.4839
425.6245, 183.5983
426.1066, 184.2423
426.5887, 184.3801
427.0709, 183.5925
427.5530, 181.8793
428.0351, 180.7588
428.5172, 181.0364
428.9993, 180.7787
429.4814, 178.1594
429.9636, 172.1441
430.4457, 167.8940
430.9278, 166.3162
431.4099, 166.2444
431.8920, 165.0374
432.3741, 162.5087
432.8563, 160.2151
433.3384, 159.0537
433.8205, 158.8137
434.3026, 157.9579
434.7847, 156.3924
435.2668, 154.9278
435.7490, 154.5035
436.2311, 154.8929
436.7132, 155.2822
437.1953, 155.3534
437.6774, 155.4760
438.1595, 156.2291
438.6417, 157.5055
439.1238, 158.8607
439.6059, 159.6963
440.0880, 160.6438
440.5701, 162.4793
441.0522, 165.3894
441.5344, 168.5280
442.0165, 171.2936
442.4986, 174.0031
442.9807, 177.0314
443.4628, 180.7500
443.9449, 184.5678
444.4271, 188.2204
444.9092, 191.7536
445.3913, 195.4801
445.8734, 199.2158
446.3555, 203.2746
446.8376, 207.9490
447.3198, 214.2328
447.8019, 219.1874
448.2840, 222.4330
448.7661, 224.4334
449.2482, 225.7878
449.7303, 226.4745
450.2125, 226.5535
450.6946, 226.1776
451.1767, 225.2872
451.6588, 223.0592
452.1409, 219.3161
452.6230, 214.6193
453.1052, 209.1127
453.5873, 202.6436
454.0694, 196.8077
454.5515, 191.8303
455.0337, 187.3352
455.5158, 182.8113
455.9979, 178.2375
456.4800, 173.9029
456.9621, 169.9022
457.4442, 166.1907
457.9264, 162.3645
458.4085, 158.4694
458.8906, 155.3961
459.3727, 154.5713
459.8548, 154.9081
460.3369, 154.6655
460.8191, 153.3198
461.3012, 151.6693
461.7833, 150.0003
462.2654, 148.5097
462.7475, 147.6087
463.2296, 147.5418
463.7118, 148.0482
464.1939, 149.2612
464.6760, 151.2063
465.1581, 152.7153
465.6402, 152.9650
466.1223, 152.9090
466.6045, 153.2112
467.0866, 153.7646
467.5687, 154.9182
468.0508, 157.2253
468.5329, 160.0941
469.0150, 162.2149
469.4972, 163.1029
469.9793, 163.9258
470.4614, 164.9099
470.9435, 166.0324
471.4256, 167.9106
471.9077, 170.8599
472.3899, 173.9405
472.8720, 176.2993
473.3541, 177.9176
473.8362, 179.2963
474.3183, 180.3645
474.8004, 181.4722
475.2826, 183.5962
475.7647, 186.6427
476.2468, 189.2812
476.7289, 190.4064
477.2110, 190.7307
477.6931, 191.9141
478.1753, 193.9701
478.6574, 196.0802
479.1395, 197.4700
479.6216, 198.5099
480.1037, 199.7791
480.5858, 201.5956
481.0680, 203.3659
481.5501, 205.0041
482.0322, 206.2981
482.5143, 206.7804
482.9964, 205.0544
483.4786, 203.5273
483.9607, 203.7203
484.4428, 205.8883
484.9249, 207.2154
485.4070, 206.5415
485.8892, 205.2221
486.3713, 204.2162
486.8534, 204.2451
487.3355, 203.5872
487.8176, 202.1608
488.2997, 200.0404
488.7819, 197.1757
489.2640, 192.9810
489.7461, 189.3992
490.2282, 187.5369
490.7103, 187.1737
491.1924, 184.5160
491.6746, 179.1196
492.1567, 173.1927
492.6388, 168.5732
493.1209, 165.1251
493.6030, 162.2881
494.0851, 160.0788
494.5673, 158.0530
495.0494, 155.7160
495.5315, 153.0544
496.0136, 150.1113
496.4957, 146.4431
496.9778, 142.7623
497.4600, 139.8464
497.9421, 137.6517
498.4242, 135.5768
498.9063, 133.0420
499.3884, 130.5769
499.8705, 128.6907
500.3527, 127.8063
500.8348, 126.7354
501.3169, 124.8478
501.7990, 122.6053
502.2811, 120.6433
502.7632, 119.2048
503.2454, 117.9461
503.7275, 116.8169
504.2096, 115.8136
504.6917, 114.8573
505.1738, 113.9904
505.6559, 113.1306
506.1381, 112.2436
506.6202, 111.3204
507.1023, 110.4097
507.5844, 109.5147
508.0665, 108.6312
508.5486, 107.7012
509.0308, 106.7149
509.5129, 106.0128
509.9950, 105.7779
510.4771, 105.7748
510.9592, 105.4169
511.4413, 104.7502
511.9235, 104.2144
512.4056, 104.3928
512.8877, 104.7612
513.3698, 104.3386
513.8519, 102.9882
514.3340, 101.8548
514.8162, 102.2101
515.2983, 103.1040
515.7804, 103.3838
516.2625, 102.2910
516.7446, 101.0557
517.2267, 100.0104
517.7089, 99.18835
518.1910, 98.68537
518.6731, 98.72801
519.1552, 98.90184
519.6373, 99.13909
520.1194, 99.46865
520.6016, 99.53883
521.0837, 99.13326
521.5658, 98.70745
522.0479, 98.64291
522.5300, 99.11064
523.0121, 99.29716
523.4943, 99.08714
523.9764, 98.65371
524.4585, 98.21754
524.9406, 97.77996
525.4227, 97.60616
525.9048, 98.00117
526.3870, 98.62413
526.8691, 98.46138
527.3513, 97.56880
527.8334, 96.79865
528.3155, 96.92243
528.7976, 97.48875
529.2797, 97.88538
529.7618, 98.04948
530.2440, 97.97519
530.7261, 97.39375
531.2082, 96.65260
531.6903, 96.20683
532.1724, 96.55775
532.6545, 96.84528
533.1367, 96.68974
533.6188, 96.22832
534.1009, 95.95034
534.5830, 96.29382
535.0651, 96.47368
535.5472, 96.10300
536.0294, 95.02215
536.5115, 94.58955
536.9936, 95.17822
537.4757, 95.89489
537.9578, 95.86963
538.4399, 94.90585
538.9221, 94.54815
539.4042, 95.17017
539.8863, 96.07883
540.3684, 95.77384
540.8505, 94.38786
541.3326, 93.52600
541.8148, 94.09854
542.2969, 95.43972
542.7790, 96.63521
543.2611, 97.63367
543.7432, 98.08500
544.2253, 97.26538
544.7075, 96.03735
545.1896, 95.25888
545.6717, 95.06530
546.1538, 95.21892
546.6359, 96.16528
547.1180, 97.16367
547.6002, 97.41294
548.0823, 95.60247
548.5644, 94.32411
549.0465, 94.36994
549.5286, 95.29414
550.0107, 95.77579
550.4929, 95.38165
550.9750, 95.21062
551.4571, 95.77850
551.9392, 97.09329
552.4213, 97.59547
552.9034, 97.09570
553.3856, 96.38816
553.8677, 96.13853
554.3498, 96.30231
554.8319, 96.31693
555.3140, 96.09438
555.7961, 95.83341
556.2783, 95.79974
556.7604, 95.93987
557.2425, 96.10859
557.7246, 96.28922
558.2067, 96.43877
558.6888, 96.36100
559.1710, 96.18056
559.6531, 96.32588
560.1352, 97.45550
560.6173, 98.61815
561.0994, 99.30766
561.5815, 99.48393
562.0637, 99.19949
562.5458, 97.56804
563.0279, 96.06834
563.5100, 95.81229
563.9921, 98.03851
564.4742, 99.28296
564.9564, 99.06228
565.4385, 98.14467
565.9206, 97.81060
566.4027, 98.14401
566.8848, 98.70357
567.3669, 99.58665
567.8491, 100.4878
568.3312, 100.0598
568.8133, 98.36472
569.2954, 96.99865
569.7775, 97.30898
570.2596, 98.56608
570.7418, 99.59041
571.2239, 100.3294
571.7060, 100.5774
572.1881, 99.74702
572.6702, 98.53793
573.1523, 97.73010
573.6345, 97.69973
574.1166, 97.77677
574.5987, 97.57980
575.0808, 97.35751
575.5629, 97.52415
576.0450, 98.75828
576.5272, 99.69324
577.0093, 100.0114
577.4914, 99.79070
577.9735, 99.47230
578.4556, 98.85995
578.9377, 98.56703
579.4199, 99.11435
579.9020, 100.5227
580.3841, 101.1634
580.8662, 100.9666
581.3483, 100.3874
581.8304, 99.66695
582.3126, 98.91317
582.7947, 98.53728
583.2768, 98.67802
583.7589, 99.02209
584.2410, 99.42737
584.7231, 99.77441
585.2053, 99.82720
585.6874, 99.08870
586.1696, 98.39445
586.6517, 98.31218
587.1338, 98.69549
587.6159, 98.88433
588.0980, 98.31792
588.5801, 97.86463
589.0623, 97.98680
589.5444, 98.80798
590.0265, 99.35415
590.5086, 99.50076
590.9907, 99.53287
591.4728, 99.68452
591.9550, 99.98933
592.4371, 100.1786
592.9192, 100.1936
593.4013, 100.1840
593.8834, 100.4583
594.3655, 100.9508
594.8477, 101.1938
595.3298, 100.8130
595.8119, 100.3934
596.2940, 101.0754
596.7761, 102.4681
597.2582, 103.2793
597.7404, 102.0663
598.2225, 100.6091
598.7046, 100.2658
599.1867, 101.1021
599.6688, 101.8027
600.1509, 101.8949
600.6331, 101.7875
601.1152, 101.7045
601.5973, 101.5864
602.0794, 101.6871
602.5615, 102.2371
603.0436, 102.7835
603.5258, 102.7148
604.0079, 101.8705
604.4900, 101.2732
604.9721, 101.0817
605.4542, 101.2336
605.9363, 101.8169
606.4185, 102.7543
606.9006, 103.3832
607.3827, 103.2010
607.8648, 102.6531
608.3469, 102.3317
608.8290, 102.2152
609.3112, 102.1990
609.7933, 102.1645
610.2754, 102.2424
610.7575, 102.6023
611.2396, 103.3041
611.7217, 103.8835
612.2039, 104.3422
612.6860, 104.5379
613.1681, 104.3295
613.6502, 103.2228
614.1323, 102.5982
614.6144, 102.6754
615.0966, 103.0615
615.5787, 103.1748
616.0608, 102.9631
616.5429, 102.7736
617.0250, 102.5901
617.5071, 102.5876
617.9893, 103.5331
618.4714, 105.2524
618.9535, 106.3526
619.4356, 105.3703
619.9177, 103.7826
620.3998, 103.7365
620.8820, 105.0690
621.3641, 106.0960
621.8462, 105.4031
622.3283, 104.3798
622.8104, 104.0892
623.2925, 104.8514
623.7747, 105.5653
624.2568, 106.3052
624.7389, 106.7366
625.2210, 106.5031
625.7031, 104.9492
626.1852, 104.2352
626.6674, 104.7807
627.1495, 105.8677
627.6316, 106.2900
628.1137, 106.0207
628.5958, 105.7490
629.0779, 105.6750
629.5601, 105.7123
630.0422, 105.7707
630.5243, 105.8173
631.0064, 105.6933
631.4885, 104.8978
631.9706, 104.1732
632.4528, 104.4687
632.9349, 105.6942
633.4170, 106.5945
633.8991, 106.1617
634.3812, 105.5813
634.8633, 105.6298
635.3455, 106.6826
635.8276, 107.4100
636.3097, 107.6867
636.7918, 107.7121
637.2739, 107.5301
637.7560, 106.9283
638.2382, 107.0933
638.7203, 108.3751
639.2024, 109.9528
639.6845, 110.6105
640.1666, 110.4143
640.6487, 109.8675
641.1309, 108.9348
641.6130, 107.9808
642.0951, 107.5151
642.5772, 107.4521
643.0594, 107.5763
643.5415, 107.5675
644.0236, 107.8980
644.5057, 109.2702
644.9879, 111.5077
645.4700, 112.8857
645.9521, 112.2747
646.4342, 111.3885
646.9163, 110.9645
647.3984, 111.0629
647.8806, 111.2697
648.3627, 111.7575
648.8448, 112.0435
649.3269, 111.5908
649.8090, 110.4011
650.2911, 109.5234
650.7733, 109.0288
651.2554, 108.8345
651.7375, 108.9041
652.2196, 109.1897
652.7017, 109.5700
653.1838, 109.9977
653.6660, 110.5340
654.1481, 111.3502
654.6302, 112.2831
655.1123, 113.0569
655.5944, 113.6543
656.0765, 113.9853
656.5587, 113.8219
657.0408, 113.3098
657.5229, 113.1279
658.0050, 113.3815
658.4871, 113.8021
658.9692, 114.3959
659.4514, 115.1174
659.9335, 115.3861
660.4156, 115.1495
660.8977, 114.8891
661.3798, 115.0586
661.8619, 115.4611
662.3441, 115.4733
662.8262, 115.0477
663.3083, 114.7313
663.7904, 115.1940
664.2725, 115.8898
664.7546, 116.1974
665.2368, 115.8768
665.7189, 115.4836
666.2010, 115.1058
666.6831, 114.7965
667.1652, 114.6197
667.6473, 114.5666
668.1295, 114.6568
668.6116, 114.9020
669.0937, 115.2868
669.5758, 115.8784
670.0579, 116.7360
670.5400, 117.2192
671.0222, 116.9751
671.5043, 116.4177
671.9864, 116.4783
672.4685, 117.0407
672.9506, 117.5360
673.4327, 117.4422
673.9149, 117.2810
674.3970, 117.6949
674.8791, 118.5765
675.3612, 119.0898
675.8433, 118.5402
676.3254, 117.8482
676.8076, 117.4474
677.2897, 117.3736
677.7718, 117.5919
678.2539, 118.3014
678.7360, 119.0268
679.2181, 119.4035
679.7003, 119.3791
680.1824, 119.5678
680.6645, 120.0163
681.1466, 120.5550
681.6287, 121.0224
682.1108, 121.4327
682.5930, 121.7893
683.0751, 122.0642
683.5572, 122.3931
684.0393, 123.0330
684.5214, 123.7595
685.0035, 124.2565
685.4857, 124.3157
685.9678, 124.2547
686.4499, 123.9142
686.9320, 123.5377
687.4141, 123.6933
687.8962, 124.8418
688.3784, 125.6176
688.8605, 125.5403
689.3426, 124.9553
689.8247, 125.1591
690.3068, 126.1874
690.7889, 127.1215
691.2711, 127.3853
691.7532, 127.3170
692.2353, 127.5431
692.7174, 128.0442
693.1995, 128.7093
693.6816, 129.4413
694.1638, 130.3332
694.6459, 131.6246
695.1280, 133.3598
695.6101, 134.6194
696.0922, 134.6997
696.5743, 134.6400
697.0565, 134.9986
697.5386, 135.8683
698.0207, 136.8212
698.5028, 137.9119
698.9849, 138.9748
699.4670, 139.8954
699.9492, 140.6664
700.4313, 141.0770
700.9135, 140.9992
701.3956, 141.1075
701.8777, 142.3773
702.3598, 144.2756
702.8419, 145.8755
703.3240, 146.7788
703.8062, 147.6302
704.2883, 148.8860
704.7704, 150.2532
705.2525, 151.2813
705.7346, 151.6217
706.2167, 151.9565
706.6989, 152.2006
707.1810, 152.5458
707.6631, 153.5600
708.1452, 155.3823
708.6273, 156.9071
709.1094, 157.5981
709.5916, 157.9870
710.0737, 159.6474
710.5558, 162.2641
711.0379, 164.2765
711.5200, 164.3940
712.0021, 163.8664
712.4843, 163.7802
712.9664, 164.0588
713.4485, 164.2087
713.9306, 163.8000
714.4127, 163.4398
714.8948, 163.4402
715.3770, 163.8045
715.8591, 164.2256
716.3412, 164.9404
716.8233, 165.2447
717.3054, 164.5115
717.7875, 162.7966
718.2697, 161.7661
718.7518, 161.4543
719.2339, 161.2628
719.7160, 160.7238
720.1981, 159.9523
720.6802, 159.0884
721.1624, 158.1485
721.6445, 157.2216
722.1266, 156.2950
722.6087, 155.4513
723.0908, 154.7511
723.5729, 154.1083
724.0551, 153.8750
724.5372, 154.5022
725.0193, 155.1389
725.5014, 154.8277
725.9835, 153.3831
726.4656, 152.0845
726.9478, 151.0090
727.4299, 150.2220
727.9120, 149.9113
728.3941, 149.9721
728.8762, 150.1542
729.3583, 150.5661
729.8405, 150.6851
730.3226, 149.8063
730.8047, 148.3911
731.2868, 147.2304
731.7689, 146.8415
732.2510, 146.3937
732.7332, 145.5583
733.2153, 144.5753
733.6974, 143.9692
734.1795, 143.9615
734.6616, 143.6968
735.1437, 142.8351
735.6259, 141.7028
736.1080, 141.2027
736.5901, 141.2767
737.0722, 141.4128
737.5543, 141.4501
738.0364, 141.3557
738.5186, 141.0895
739.0007, 140.6581
739.4828, 140.0793
739.9649, 139.1835
740.4470, 138.3122
740.9291, 137.5238
741.4113, 136.8595
741.8934, 136.6257
742.3755, 137.1425
742.8576, 137.5114
743.3397, 137.3086
743.8218, 136.6177
744.3040, 136.1013
744.7861, 135.7660
745.2682, 135.5299
745.7503, 135.4676
746.2324, 135.4132
746.7145, 134.9469
747.1967, 134.1006
747.6788, 133.5777
748.1609, 134.3402
748.6430, 135.1160
749.1251, 134.9045
749.6072, 133.2978
750.0894, 132.4233
750.5715, 132.7148
751.0536, 133.2655
751.5357, 133.5131
752.0178, 133.4286
752.4999, 133.4037
752.9821, 133.4294
753.4642, 133.5796
753.9463, 134.1958
754.4284, 134.9224
754.9105, 134.8725
755.3926, 133.8426
755.8748, 132.9828
756.3569, 133.1452
756.8390, 133.7402
757.3211, 134.2889
757.8032, 134.8676
758.2853, 134.9754
758.7675, 134.0914
759.2496, 133.2383
759.7318, 133.5220
760.2139, 135.1713
760.6960, 136.1196
761.1781, 136.0885
761.6602, 135.7344
762.1423, 135.8459
762.6245, 136.2599
763.1066, 136.5851
763.5887, 136.7319
764.0708, 136.7942
764.5529, 136.5705
765.0350, 136.4084
765.5172, 136.7204
765.9993, 138.4388
766.4814, 139.4734
766.9635, 139.4322
767.4456, 138.8827
767.9277, 138.4214
768.4099, 137.9560
768.8920, 138.3164
769.3741, 139.9060
769.8562, 141.6843
770.3383, 141.7796
770.8204, 140.8285
771.3026, 140.6262
771.7847, 142.1482
772.2668, 143.7771
772.7489, 144.2774
773.2310, 144.2080
773.7131, 144.4396
774.1953, 145.2087
774.6774, 146.2880
775.1595, 148.0135
775.6416, 149.8150
776.1237, 150.4151
776.6058, 149.5816
777.0880, 149.3699
777.5701, 150.3767
778.0522, 152.0301
778.5343, 153.5554
779.0164, 154.9408
779.4985, 156.1382
779.9807, 156.7396
780.4628, 157.5999
780.9449, 159.5247
781.4270, 162.0463
781.9091, 164.2377
782.3912, 165.0386
782.8734, 166.6464
783.3555, 169.8703
783.8376, 173.8569
784.3197, 176.1438
784.8018, 176.5506
785.2839, 177.6890
785.7661, 180.4925
786.2482, 184.2673
786.7303, 188.2516
787.2124, 192.2505
787.6945, 195.8158
788.1766, 198.0832
788.6588, 200.5151
789.1409, 203.9742
789.6230, 208.2042
790.1051, 212.5766
790.5872, 216.8924
791.0693, 221.5201
791.5515, 226.6448
792.0336, 232.0451
792.5157, 236.8496
792.9978, 241.0558
793.4799, 245.3410
793.9620, 249.8244
794.4442, 254.7307
794.9263, 260.8454
795.4084, 267.7481
795.8905, 274.3334
796.3726, 280.3730
796.8547, 285.6873
797.3369, 289.9453
797.8190, 293.3944
798.3011, 297.0292
798.7832, 301.1721
799.2653, 304.9821
799.7474, 308.3654
800.2296, 311.2023
800.7117, 313.3252
801.1938, 314.6877
801.6759, 314.7586
802.1580, 312.8966
802.6401, 310.0931
803.1223, 307.2280
803.6044, 304.3364
804.0865, 301.5568
804.5686, 299.2133
805.0507, 296.6778
805.5328, 293.7728
806.0150, 290.5146
806.4971, 286.7010
806.9792, 281.8740
807.4613, 278.0444
807.9434, 276.0571
808.4255, 275.0783
808.9077, 273.0743
809.3898, 270.2802
809.8719, 267.7626
810.3540, 266.0783
810.8361, 264.7533
811.3182, 263.2740
811.8004, 261.8765
812.2825, 261.0871
812.7646, 260.7393
813.2467, 261.4384
813.7288, 263.3939
814.2109, 266.4001
814.6931, 269.9355
815.1752, 274.0452
815.6573, 278.5449
816.1394, 283.3553
816.6215, 288.6401
817.1037, 294.3986
817.5858, 300.8238
818.0679, 308.5667
818.5500, 318.4453
819.0322, 329.1813
819.5143, 339.5462
819.9964, 350.2668
820.4785, 362.8659
820.9606, 377.6752
821.4427, 393.3826
821.9249, 409.6119
822.4070, 426.8746
822.8891, 445.7209
823.3712, 466.2173
823.8533, 489.1702
824.3354, 515.3205
824.8176, 543.3565
825.2997, 571.4785
825.7818, 600.3690
826.2639, 630.5799
826.7460, 664.4133
827.2281, 697.4514
827.7103, 728.9758
828.1924, 759.4763
828.6745, 789.7106
829.1566, 818.8030
829.6387, 850.2561
830.1208, 884.4758
830.6030, 920.8923
831.0851, 956.4721
831.5672, 992.5641
832.0493, 1033.295
832.5314, 1079.473
833.0135, 1130.181
833.4957, 1185.461
833.9778, 1243.886
834.4599, 1304.757
834.9420, 1368.320
835.4241, 1432.319
835.9063, 1496.783
836.3884, 1561.566
836.8705, 1628.964
837.3526, 1698.549
837.8347, 1753.935
838.3168, 1793.846
838.7990, 1818.688
839.2811, 1831.491
839.7632, 1829.285
840.2453, 1807.148
840.7274, 1761.779
841.2095, 1703.877
841.6917, 1632.211
842.1738, 1552.371
842.6559, 1467.503
843.1380, 1375.118
843.6201, 1285.970
844.1022, 1199.562
844.5844, 1118.147
845.0665, 1044.339
845.5486, 976.8914
846.0307, 913.4063
846.5128, 853.3102
846.9949, 798.5051
847.4771, 750.9406
847.9592, 708.6910
848.4413, 670.6187
848.9234, 637.0056
849.4055, 605.9841
849.8876, 577.6539
850.3698, 551.9353
850.8519, 529.3958
851.3340, 509.8033
851.8161, 491.5774
852.2982, 474.7152
852.7803, 459.2585
853.2625, 445.5407
853.7446, 433.0884
854.2267, 421.0358
854.7088, 409.3810
855.1909, 398.5220
855.6730, 388.7138
856.1552, 379.8174
856.6373, 371.9016
857.1194, 364.8994
857.6015, 357.8729
858.0836, 350.6631
858.5657, 344.2621
859.0479, 339.4666
859.5300, 335.4571
860.0121, 330.9293
860.4942, 325.8933
860.9763, 320.3899
861.4584, 313.4786
861.9406, 307.2268
862.4227, 302.9782
862.9048, 300.2587
863.3869, 297.3848
863.8690, 294.3458
864.3511, 291.1477
864.8333, 287.8389
865.3154, 284.2599
865.7975, 279.6713
866.2796, 274.3158
866.7617, 269.1822
867.2438, 264.5140
867.7260, 260.2648
868.2081, 256.2784
868.6902, 252.6787
869.1723, 249.5759
869.6544, 248.0036
870.1365, 245.3724
870.6187, 241.0307
871.1008, 236.1784
871.5829, 232.6087
872.0650, 230.2553
872.5471, 227.6668
873.0292, 224.5603
873.5114, 221.5365
873.9935, 219.2946
874.4756, 217.4686
874.9577, 215.6476
875.4399, 213.8047
875.9220, 211.7164
876.4041, 208.7890
876.8862, 206.0753
877.3683, 204.3857
877.8505, 203.9344
878.3326, 202.9764
878.8147, 201.4513
879.2968, 199.8733
879.7789, 198.7237
880.2610, 197.8194
880.7432, 196.9226
881.2253, 196.0044
881.7074, 194.8611
882.1895, 193.5072
882.6716, 191.7999
883.1537, 189.5485
883.6359, 186.8039
884.1180, 184.0045
884.6001, 180.9805
885.0822, 178.5980
885.5643, 177.7866
886.0464, 177.6118
886.5286, 175.3843
887.0107, 171.6400
887.4928, 168.5668
887.9749, 168.3261
888.4570, 168.1098
888.9391, 166.2089
889.4213, 163.1829
889.9034, 160.9173
890.3855, 159.6542
890.8676, 158.7447
891.3497, 158.1332
891.8318, 157.7071
892.3140, 157.2919
892.7961, 156.8651
893.2782, 156.3452
893.7603, 155.7378
894.2424, 154.9706
894.7245, 153.6698
895.2067, 152.3279
895.6888, 151.5500
896.1709, 152.0838
896.6530, 152.1311
897.1351, 151.5625
897.6172, 150.7094
898.0994, 149.7424
898.5815, 148.7352
899.0636, 148.3990
899.5457, 148.8419
900.0278, 149.2856
900.5099, 148.9263
900.9921, 148.3836
901.4742, 148.3496
901.9563, 149.0241
902.4384, 149.1483
902.9205, 148.2351
903.4026, 147.2807
903.8848, 146.7543
904.3669, 146.6082
904.8490, 146.5479
905.3311, 146.5542
905.8132, 146.1638
906.2953, 144.5370
906.7775, 142.8006
907.2596, 142.1754
907.7417, 142.4087
908.2238, 142.5555
908.7059, 142.0287
909.1880, 141.8342
909.6702, 142.3733
910.1523, 143.2460
910.6344, 143.4476
911.1165, 142.9927
911.5986, 142.5387
912.0807, 142.2812
912.5629, 142.0546
913.0450, 141.4843
913.5271, 140.8840
914.0092, 140.7706
914.4913, 141.8967
914.9734, 142.3820
915.4556, 141.4536
915.9377, 140.2577
916.4198, 139.7982
916.9019, 140.1054
917.3840, 140.7646
917.8661, 141.8219
918.3483, 142.6054
918.8304, 142.4462
919.3125, 141.7074
919.7946, 140.5996
920.2767, 139.1510
920.7589, 138.2638
921.2410, 138.7125
921.7231, 139.2690
922.2052, 139.4006
922.6873, 139.1880
923.1694, 139.4195
923.6516, 140.1072
924.1337, 140.7175
924.6158, 140.9813
925.0979, 141.0200
925.5800, 140.9305
926.0621, 140.7441
926.5443, 140.5381
927.0264, 139.9617
927.5085, 139.8864
927.9906, 140.8559
928.4727, 142.1396
928.9548, 142.4496
929.4370, 141.7525
929.9191, 140.9898
930.4012, 140.2319
930.8833, 139.8763
931.3654, 140.7365
931.8475, 142.1225
932.3297, 143.1157
932.8118, 143.4726
933.2939, 143.6229
933.7761, 143.4558
934.2582, 143.3161
934.7403, 143.4181
935.2224, 143.7673
935.7045, 144.0247
936.1866, 144.1797
936.6688, 144.5813
937.1509, 145.5492
937.6330, 146.8469
938.1151, 148.4406
938.5972, 150.2023
939.0793, 151.4721
939.5615, 151.9122
940.0436, 151.9921
940.5257, 151.7447
941.0078, 151.2801
941.4899, 151.0002
941.9720, 150.8828
942.4542, 150.2501
942.9363, 148.7017
943.4184, 147.0585
943.9005, 146.3726
944.3826, 146.0928
944.8647, 145.3999
945.3469, 143.6854
945.8290, 142.3486
946.3111, 141.5150
946.7932, 141.0467
947.2753, 140.9685
947.7574, 141.2461
948.2396, 141.0599
948.7217, 140.3782
949.2038, 139.8937
949.6859, 140.7883
950.1680, 141.6459
950.6501, 140.7799
951.1323, 138.2596
951.6144, 136.8777
952.0965, 137.6332
952.5786, 138.3672
953.0607, 138.2993
953.5428, 137.8486
954.0250, 138.6045
954.5071, 140.2813
954.9892, 141.1261
955.4713, 139.9195
955.9534, 138.5767
956.4355, 138.7011
956.9177, 139.5287
957.3998, 139.9334
957.8819, 139.2797
958.3640, 139.2079
958.8461, 139.9805
959.3282, 140.8792
959.8104, 141.1601
960.2925, 140.9302
960.7746, 140.3183
961.2567, 139.3430
961.7388, 138.8508
962.2209, 140.0387
962.7031, 141.3406
963.1852, 141.4974
963.6673, 140.5497
964.1494, 140.2578
964.6315, 140.7743
965.1136, 141.4337
965.5958, 142.0286
966.0779, 142.5638
966.5600, 143.1682
967.0421, 143.7303
967.5242, 143.9215
968.0063, 143.3163
968.4885, 142.7353
968.9706, 142.2816
969.4527, 142.1420
969.9348, 142.6375
970.4169, 143.9982
970.8990, 144.7500
971.3812, 144.7038
971.8633, 144.6317
972.3454, 145.5291
972.8275, 146.7740
973.3096, 147.4569
973.7917, 147.4902
974.2739, 147.3277
974.7560, 146.7824
975.2381, 146.4589
975.7202, 146.6404
976.2023, 147.2250
976.6844, 147.8461
977.1666, 148.5026
977.6487, 148.5868
978.1308, 147.4808
978.6129, 146.2946
979.0950, 146.2807
979.5771, 146.9662
980.0593, 147.5701
980.5414, 147.6014
981.0235, 148.0435
981.5056, 149.3071
981.9877, 150.4562
982.4698, 150.3746
982.9520, 149.2785
983.4341, 148.4156
983.9162, 147.8701
984.3983, 147.7945
984.8804, 148.7266
985.3625, 149.8135
985.8447, 150.5041
986.3268, 150.7483
986.8089, 150.6623
987.2910, 150.1623
987.7731, 149.5281
988.2552, 148.6835
988.7374, 147.9840
989.2195, 148.3377
989.7016, 149.4276
990.1837, 150.4561
990.6658, 151.2368
991.1479, 151.7576
991.6301, 151.9272
992.1122, 151.8779
992.5944, 151.7339
993.0765, 151.4844
993.5586, 151.2274
994.0407, 150.9744
994.5228, 150.6190
995.0049, 149.8390
995.4871, 149.0452
995.9692, 148.7102
996.4513, 148.8548
996.9334, 149.4294
997.4155, 151.0368
997.8976, 152.3170
998.3798, 153.0179
998.8619, 153.1396
999.3440, 152.3627
999.8261, 150.8322
1000.308, 150.0115
1000.790, 150.4173
1001.272, 151.1593
1001.755, 151.8400
1002.237, 152.2680
1002.719, 152.1196
1003.201, 150.9653
1003.683, 150.6235
1004.165, 151.4131
1004.647, 152.2076
1005.129, 152.4784
1005.612, 152.1557
1006.094, 150.4538
1006.576, 147.7943
1007.058, 146.0798
1007.540, 147.0416
1008.022, 148.3340
1008.504, 149.1279
1008.986, 149.5848
1009.468, 150.0616
1009.951, 150.6234
1010.433, 150.4899
1010.915, 149.3807
1011.397, 148.3056
1011.879, 148.7518
1012.361, 149.7148
1012.843, 149.8848
1013.325, 148.9634
1013.807, 148.1466
1014.290, 147.4348
1014.772, 147.1858
1015.254, 147.8365
1015.736, 149.0033
1016.218, 148.8110
1016.700, 147.5406
1017.182, 146.8486
1017.664, 148.2191
1018.147, 149.4249
1018.629, 148.4129
1019.111, 146.5933
1019.593, 146.2419
1020.075, 148.2508
1020.557, 149.0747
1021.039, 148.3284
1021.521, 147.3473
1022.003, 147.5190
1022.486, 148.2823
1022.968, 148.6260
1023.450, 148.5278
1023.932, 148.4736
1024.414, 148.7136
1024.896, 148.9669
1025.378, 149.1867
1025.860, 149.3344
1026.343, 149.1908
1026.825, 148.7957
1027.307, 148.7215
1027.789, 149.2218
1028.271, 149.7682
1028.753, 149.6942
1029.235, 149.5145
1029.717, 149.9331
1030.199, 151.4785
1030.682, 151.8486
1031.164, 150.5471
1031.646, 149.4723
1032.128, 150.3397
1032.610, 152.1010
1033.092, 151.6473
1033.574, 149.5945
1034.056, 148.2198
1034.539, 148.9209
1035.021, 150.0349
1035.503, 151.6725
1035.985, 153.0360
1036.467, 152.6795
1036.949, 150.5345
1037.431, 149.7541
1037.913, 150.8199
1038.396, 151.8995
1038.878, 150.8645
1039.360, 149.4229
1039.842, 149.3357
1040.324, 150.7492
1040.806, 151.7085
1041.288, 151.9834
1041.770, 152.1221
1042.252, 152.3454
1042.734, 152.4848
1043.217, 151.9895
1043.699, 151.1374
1044.181, 150.6687
1044.663, 150.9076
1045.145, 151.3058
1045.627, 151.9872
1046.109, 152.4511
1046.591, 152.0853
1047.074, 150.8110
1047.556, 151.1741
1048.038, 153.1846
1048.520, 154.6399
1049.002, 153.2467
1049.484, 151.3900
1049.966, 151.4411
1050.448, 152.6980
1050.931, 153.0268
1051.413, 151.5637
1051.895, 150.6676
1052.377, 150.6909
1052.859, 151.1077
1053.341, 151.3155
1053.823, 151.4176
1054.305, 151.6788
1054.787, 152.1303
1055.270, 152.5083
1055.752, 152.6386
1056.234, 152.7158
1056.716, 152.7098
1057.198, 152.7420
1057.680, 153.6120
1058.162, 155.2151
1058.644, 155.7783
1059.126, 154.2917
1059.609, 152.7102
1060.091, 153.0705
1060.573, 154.1434
1061.055, 154.4589
1061.537, 153.5218
1062.019, 153.3760
1062.501, 154.2516
1062.983, 155.0802
1063.466, 155.0681
1063.948, 154.5861
1064.430, 154.2475
1064.912, 154.0268
1065.394, 153.8428
1065.876, 153.6684
1066.358, 153.5142
1066.840, 153.2274
1067.323, 153.1297
1067.805, 153.7431
1068.287, 154.9568
1068.769, 156.0479
1069.251, 156.9558
1069.733, 157.4528
1070.215, 156.9068
1070.697, 156.3123
1071.179, 156.6237
1071.661, 157.4950
1072.144, 157.1755
1072.626, 155.3751
1073.108, 154.4685
1073.590, 155.2668
1074.072, 156.5871
1074.554, 157.2492
1075.036, 157.3743
1075.518, 156.9757
1076.001, 155.8282
1076.483, 155.3144
1076.965, 155.7965
1077.447, 156.3571
1077.929, 156.4768
1078.411, 156.3636
1078.893, 156.6988
1079.375, 157.3303
1079.858, 157.7591
1080.340, 157.5806
1080.822, 157.4506
1081.304, 157.7269
1081.786, 158.0448
1082.268, 158.0040
1082.750, 157.5909
1083.232, 157.5328
1083.714, 157.8435
1084.197, 158.2687
1084.679, 158.7708
1085.161, 159.1874
1085.643, 159.5403
1086.125, 159.6909
1086.607, 159.1692
1087.089, 157.5866
1087.571, 156.7336
1088.054, 156.9195
1088.536, 157.7143
1089.018, 159.2053
1089.500, 160.6862
1089.982, 160.9240
1090.464, 159.7734
1090.946, 158.8694
1091.428, 158.7996
1091.911, 158.5250
1092.393, 157.4787
1092.875, 156.2864
1093.357, 156.7725
1093.839, 158.3949
1094.321, 159.4297
1094.803, 159.2400
1095.285, 158.9356
1095.767, 158.9373
1096.250, 159.1008
1096.732, 159.3553
1097.214, 159.6933
1097.696, 159.9884
1098.178, 160.2423
1098.660, 160.4566
1099.142, 160.5765
1099.624, 160.7277
1100.106, 161.0366
1100.589, 161.4296
1101.071, 161.8116
1101.553, 162.2577
1102.035, 162.4330
1102.517, 162.3150
1102.999, 162.0208
1103.481, 161.2309
1103.963, 160.5962
1104.446, 161.4326
1104.928, 163.2994
1105.410, 164.2799
1105.892, 163.3201
1106.374, 162.4331
1106.856, 161.7261
1107.338, 161.4666
1107.820, 162.5328
1108.302, 164.2081
1108.785, 164.5460
1109.267, 163.3283
1109.749, 162.4969
1110.231, 163.4947
1110.713, 164.3067
1111.195, 164.0349
1111.677, 163.1734
1112.159, 163.2228
1112.641, 164.0089
1113.124, 164.4217
1113.606, 164.1369
1114.088, 163.6553
1114.570, 163.0366
1115.052, 162.5921
1115.534, 162.6287
1116.016, 163.1162
1116.498, 163.6046
1116.981, 164.1080
1117.463, 164.2278
1117.945, 163.4302
1118.427, 162.7493
1118.909, 163.3237
1119.391, 164.6243
1119.873, 165.9901
1120.355, 167.6447
1120.838, 168.3489
1121.320, 167.9621
1121.802, 167.2211
1122.284, 166.2426
1122.766, 165.4809
1123.248, 165.9882
1123.730, 167.2680
1124.212, 167.9779
1124.694, 167.1105
1125.177, 166.5597
1125.659, 166.5229
1126.141, 166.7036
1126.623, 166.7248
1127.105, 166.7329
1127.587, 167.2652
1128.069, 168.2509
1128.551, 168.9693
1129.033, 169.0096
1129.516, 168.8089
1129.998, 168.3376
1130.480, 167.8711
1130.962, 167.9870
1131.444, 168.5499
1131.926, 168.9465
1132.408, 169.1032
1132.890, 168.8010
1133.373, 167.0451
1133.855, 165.6737
1134.337, 165.9880
1134.819, 167.4400
1135.301, 168.1684
1135.783, 168.1920
1136.265, 168.0605
1136.747, 167.7938
1137.229, 167.9152
1137.712, 169.7775
1138.194, 171.5677
1138.676, 171.0714
1139.158, 168.2937
1139.640, 167.8564
1140.122, 170.0506
1140.604, 171.6794
1141.086, 171.1740
1141.569, 170.0412
1142.051, 169.6322
1142.533, 169.8183
1143.015, 170.5651
1143.497, 172.2788
1143.979, 172.9078
1144.461, 172.1517
1144.943, 171.4898
1145.426, 172.2217
1145.908, 173.2645
1146.390, 172.5129
1146.872, 170.7846
1147.354, 169.7847
1147.836, 170.5866
1148.318, 171.3076
1148.800, 171.9268
1149.282, 172.3953
1149.765, 172.7122
1150.247, 172.8349
1150.729, 172.3887
1151.211, 171.6015
1151.693, 171.4015
1152.175, 172.6301
1152.657, 173.8591
1153.139, 174.9778
1153.621, 175.8212
1154.104, 176.1634
1154.586, 176.0700
1155.068, 175.6437
1155.550, 174.9290
1156.032, 174.3348
1156.514, 173.8805
1156.996, 173.8398
1157.478, 174.4744
1157.961, 175.3400
1158.443, 175.5879
1158.925, 175.3295
1159.407, 175.1382
1159.889, 175.0878
1160.371, 175.2768
1160.853, 175.7914
1161.335, 176.5654
1161.818, 177.8699
1162.300, 179.2788
1162.782, 179.4504
1163.264, 178.4625
1163.746, 177.1987
1164.228, 175.7478
1164.710, 174.6582
1165.192, 174.3756
1165.674, 174.5824
1166.156, 175.1449
1166.639, 175.9901
1167.121, 176.8909
1167.603, 177.8411
1168.085, 178.2884
1168.567, 177.8925
1169.049, 177.4524
1169.531, 177.7327
1170.013, 178.2563
1170.496, 178.5049
1170.978, 178.4527
1171.460, 178.7212
1171.942, 179.3329
1172.424, 179.8428
1172.906, 180.0210
1173.388, 180.0612
1173.870, 180.2371
1174.353, 180.3476
1174.835, 180.0172
1175.317, 179.0594
1175.799, 178.7615
1176.281, 179.2020
1176.763, 179.6704
1177.245, 179.7840
1177.727, 179.7055
1178.209, 179.5376
1178.692, 179.3376
1179.174, 179.1667
1179.656, 178.7889
1180.138, 179.2823
1180.620, 180.8827
1181.102, 182.1542
1181.584, 181.6364
1182.066, 180.5244
1182.548, 180.1390
1183.031, 180.3882
1183.513, 181.0996
1183.995, 182.7589
1184.477, 183.6300
1184.959, 183.5647
1185.441, 183.0364
1185.923, 182.1215
1186.405, 181.2308
1186.888, 180.9535
1187.370, 181.2102
1187.852, 181.7096
1188.334, 182.7044
1188.816, 183.2449
1189.298, 183.1641
1189.780, 182.8799
1190.262, 182.8260
1190.745, 182.8415
1191.227, 182.4438
1191.709, 181.8031
1192.191, 181.9885
1192.673, 184.0609
1193.155, 185.2030
1193.637, 184.8283
1194.119, 184.0154
1194.601, 184.0462
1195.084, 184.5047
1195.566, 184.7069
1196.048, 184.6340
1196.530, 184.7065
1197.012, 185.1301
1197.494, 185.4426
1197.976, 185.5269
1198.458, 185.5401
1198.941, 185.7671
1199.423, 186.0455
1199.905, 186.0711
1200.387, 185.8175
1200.869, 185.5506
1201.351, 185.2655
1201.833, 185.0849
1202.315, 185.0344
1202.797, 185.1154
1203.280, 185.4100
1203.762, 185.8054
1204.244, 186.1338
1204.726, 186.3719
1205.208, 186.4475
1205.690, 186.2001
1206.172, 186.1164
1206.654, 186.3831
1207.136, 186.8140
1207.619, 187.0342
1208.101, 187.2000
1208.583, 187.7592
1209.065, 188.9397
1209.547, 189.1519
1210.029, 187.5814
1210.511, 186.4102
1210.993, 186.5260
1211.476, 187.2703
1211.958, 187.4313
1212.440, 187.3345
1212.922, 187.7361
1213.404, 189.0675
1213.886, 189.1806
1214.368, 187.1587
1214.850, 185.6850
1215.333, 185.9980
1215.815, 187.3067
1216.297, 188.6857
1216.779, 189.8381
1217.261, 190.0558
1217.743, 188.7376
1218.225, 188.5123
1218.707, 190.2536
1219.189, 191.1828
1219.672, 189.3453
1220.154, 186.7866
1220.636, 187.8325
1221.118, 190.7183
1221.600, 192.2424
1222.082, 191.0885
1222.564, 190.2608
1223.046, 189.8743
1223.528, 189.8935
1224.011, 190.3985
1224.493, 191.1794
1224.975, 192.1670
1225.457, 193.0749
1225.939, 193.3865
1226.421, 192.7247
1226.903, 192.0342
1227.385, 191.1732
1227.868, 190.8530
1228.350, 191.8536
1228.832, 193.1919
1229.314, 193.1558
1229.796, 192.4483
1230.278, 192.2800
1230.760, 193.0954
1231.242, 193.9556
1231.724, 194.9865
1232.207, 195.4683
1232.689, 194.5359
1233.171, 193.2888
1233.653, 193.2357
1234.135, 193.8293
1234.617, 194.1556
1235.099, 194.0779
1235.581, 193.7703
1236.063, 193.1913
1236.546, 192.7047
1237.028, 192.5094
1237.510, 192.5573
1237.992, 192.8185
1238.474, 193.2836
1238.956, 194.0073
1239.438, 195.1766
1239.920, 195.7028
1240.403, 195.5335
1240.885, 195.3233
1241.367, 195.6705
1241.849, 195.9587
1242.331, 195.0783
1242.813, 194.0815
1243.295, 194.7755
1243.777, 197.8182
1244.260, 198.5799
1244.742, 197.0694
1245.224, 195.7887
1245.706, 196.6730
1246.188, 197.9050
1246.670, 198.4716
1247.152, 198.5060
1247.634, 198.2198
1248.116, 197.5868
1248.599, 196.7760
1249.081, 195.8530
1249.563, 195.6964
1250.045, 197.7621
1250.527, 199.6603
1251.009, 200.0186
1251.491, 199.6188
1251.973, 199.0958
1252.455, 198.4713
1252.938, 198.3553
1253.420, 198.7070
1253.902, 199.1584
1254.384, 199.7423
1254.866, 200.0824
1255.348, 199.8604
1255.830, 199.5289
1256.313, 199.4837
1256.795, 199.6854
1257.277, 199.9336
1257.759, 200.2039
1258.241, 200.3817
1258.723, 200.4208
1259.205, 200.3371
1259.687, 200.0496
1260.169, 199.7871
1260.651, 199.7542
1261.134, 199.9039
1261.616, 200.0710
1262.098, 200.2834
1262.580, 200.6534
1263.062, 201.5503
1263.544, 202.0397
1264.026, 201.8620
1264.508, 201.7029
1264.991, 202.3264
1265.473, 203.2576
1265.955, 203.6003
1266.437, 203.4858
1266.919, 203.2759
1267.401, 203.0148
1267.883, 202.7737
1268.365, 202.5930
1268.848, 202.2852
1269.330, 201.2247
1269.812, 200.3372
1270.294, 201.2937
1270.776, 203.2399
1271.258, 204.1933
1271.740, 203.5399
1272.222, 203.4771
1272.704, 204.0995
1273.187, 204.6716
1273.669, 204.5905
1274.151, 204.3250
1274.633, 204.1280
1275.115, 204.0983
1275.597, 204.4827
1276.079, 205.4564
1276.561, 205.3135
1277.043, 204.0984
1277.526, 203.3541
1278.008, 204.8403
1278.490, 206.1462
1278.972, 205.1352
1279.454, 206.4728
1279.936, 204.3513
1280.418, 206.7754
1280.900, 207.3364
1281.383, 206.3300
1281.865, 205.6933
1282.347, 207.0430
1282.829, 207.9583
1283.311, 207.2781
1283.793, 206.3052
1284.275, 206.0439
1284.757, 206.2896
1285.240, 206.1745
1285.722, 205.8140
1286.204, 205.5939
1286.686, 205.8612
1287.168, 205.9066
1287.650, 205.5981
1288.132, 205.2065
1288.614, 204.6536
1289.096, 204.3448
1289.578, 205.4857
1290.061, 207.4265
1290.543, 208.8641
1291.025, 209.5175
1291.507, 209.2405
1291.989, 207.7352
1292.471, 206.6937
1292.953, 207.3355
1293.435, 208.6181
1293.918, 209.7852
1294.400, 210.5428
1294.882, 210.2683
1295.364, 208.8255
1295.846, 207.9278
1296.328, 207.5835
1296.810, 207.6012
1297.292, 207.9931
1297.775, 208.4953
1298.257, 209.1957
1298.739, 209.6951
1299.221, 209.5846
1299.703, 208.9343
1300.185, 208.3776
1300.667, 207.9455
1301.149, 207.8050
1301.631, 208.0166
1302.114, 208.4522
1302.596, 209.3355
##END=



