##NAMES=Ruitenbergite
##RRUFFID=R110152
##IDEAL CHEMISTRY=Ca_9_B_26_O_34_(OH)_24_Cl_4_&#183;13H_2_O
##LOCALITY=Potash Corporation of Saskatchewan mine, Penobsquis, Kings County, New Brunswick, Canada
##OWNER=RRUFF
##SOURCE=Donald M Doell and Brian Roulston
##DESCRIPTION=Pale yellow granular, extracted by dissolving the matrix of sylvite/halite, associated with strontioginorite R110149, howlite R110150, volkovskite R110151, congolite R110153, and hilgardite
##STATUS=The identification of this mineral has been confirmed by single-crystal X-ray diffraction.
##URL=rruff.info/R110152
196.0757, 1624.943
196.5579, 1622.555
197.0400, 1622.971
197.5221, 1626.421
198.0042, 1630.081
198.4863, 1632.236
198.9684, 1632.859
199.4506, 1634.126
199.9327, 1636.335
200.4148, 1639.063
200.8969, 1641.309
201.3790, 1643.007
201.8611, 1644.764
202.3433, 1646.948
202.8254, 1649.586
203.3075, 1652.556
203.7896, 1656.239
204.2717, 1659.878
204.7538, 1661.005
205.2360, 1658.876
205.7181, 1656.874
206.2002, 1657.364
206.6823, 1660.860
207.1644, 1663.244
207.6465, 1663.955
208.1287, 1663.440
208.6108, 1662.724
209.0929, 1661.322
209.5750, 1660.992
210.0571, 1663.404
210.5392, 1669.504
211.0214, 1673.955
211.5035, 1676.246
211.9856, 1676.645
212.4677, 1675.800
212.9498, 1673.191
213.4319, 1670.608
213.9141, 1669.236
214.3962, 1669.493
214.8783, 1669.494
215.3604, 1668.701
215.8425, 1667.605
216.3246, 1668.355
216.8067, 1671.661
217.2889, 1675.422
217.7710, 1678.176
218.2531, 1679.166
218.7352, 1681.427
219.2173, 1685.672
219.6994, 1691.386
220.1816, 1695.717
220.6637, 1697.444
221.1458, 1699.901
221.6279, 1705.599
222.1100, 1716.526
222.5921, 1725.495
223.0743, 1731.744
223.5564, 1735.618
224.0385, 1739.343
224.5206, 1744.452
225.0027, 1747.005
225.4848, 1744.224
225.9670, 1734.311
226.4491, 1723.383
226.9312, 1710.747
227.4133, 1697.366
227.8954, 1687.319
228.3775, 1681.518
228.8597, 1677.994
229.3418, 1675.983
229.8239, 1676.574
230.3060, 1676.016
230.7881, 1673.302
231.2702, 1669.097
231.7524, 1666.812
232.2345, 1667.104
232.7166, 1668.314
233.1987, 1669.527
233.6808, 1670.691
234.1629, 1671.822
234.6451, 1672.654
235.1272, 1673.405
235.6093, 1675.336
236.0914, 1679.826
236.5735, 1683.611
237.0556, 1684.583
237.5378, 1680.796
238.0199, 1678.560
238.5020, 1678.715
238.9841, 1680.719
239.4662, 1682.337
239.9483, 1683.584
240.4305, 1684.539
240.9126, 1685.154
241.3947, 1684.952
241.8768, 1685.548
242.3589, 1687.039
242.8410, 1689.381
243.3232, 1692.812
243.8053, 1699.209
244.2874, 1704.053
244.7695, 1704.701
245.2516, 1698.908
245.7337, 1693.900
246.2159, 1690.244
246.6980, 1687.396
247.1801, 1683.591
247.6622, 1677.755
248.1443, 1672.457
248.6264, 1669.161
249.1086, 1669.063
249.5907, 1668.069
250.0728, 1666.242
250.5549, 1663.467
251.0370, 1659.108
251.5191, 1651.697
252.0013, 1645.081
252.4834, 1640.876
252.9655, 1639.525
253.4476, 1639.851
253.9297, 1643.226
254.4118, 1647.693
254.8940, 1648.521
255.3761, 1643.511
255.8582, 1638.730
256.3403, 1636.887
256.8224, 1639.035
257.3046, 1640.528
257.7867, 1641.112
258.2688, 1641.138
258.7509, 1641.588
259.2330, 1643.482
259.7151, 1643.614
260.1973, 1639.779
260.6794, 1630.237
261.1615, 1625.093
261.6436, 1626.026
262.1257, 1629.965
262.6078, 1631.915
263.0900, 1631.586
263.5721, 1629.983
264.0542, 1626.913
264.5363, 1621.812
265.0184, 1619.244
265.5005, 1619.988
265.9827, 1622.348
266.4648, 1623.942
266.9469, 1624.559
267.4290, 1625.015
267.9111, 1625.550
268.3932, 1626.161
268.8754, 1626.629
269.3575, 1626.913
269.8396, 1627.053
270.3217, 1626.955
270.8038, 1626.385
271.2859, 1626.328
271.7681, 1627.096
272.2502, 1628.641
272.7323, 1630.550
273.2144, 1633.147
273.6965, 1635.353
274.1786, 1635.520
274.6608, 1633.072
275.1429, 1631.820
275.6250, 1633.098
276.1071, 1636.483
276.5892, 1638.602
277.0714, 1639.030
277.5535, 1639.317
278.0356, 1641.600
278.5177, 1646.282
278.9998, 1648.403
279.4819, 1645.872
279.9641, 1640.209
280.4462, 1638.649
280.9283, 1641.974
281.4104, 1646.004
281.8925, 1646.893
282.3746, 1644.586
282.8568, 1643.802
283.3389, 1645.962
283.8210, 1649.680
284.3031, 1650.810
284.7852, 1649.142
285.2673, 1647.062
285.7495, 1645.859
286.2316, 1645.588
286.7137, 1646.891
287.1958, 1650.224
287.6779, 1654.651
288.1600, 1658.309
288.6422, 1661.185
289.1243, 1663.841
289.6064, 1666.632
290.0885, 1669.470
290.5706, 1671.961
291.0527, 1674.181
291.5349, 1675.649
292.0170, 1674.938
292.4991, 1672.251
292.9812, 1670.083
293.4633, 1670.753
293.9454, 1673.096
294.4276, 1673.132
294.9097, 1670.345
295.3918, 1666.645
295.8739, 1663.937
296.3560, 1662.269
296.8381, 1661.714
297.3203, 1663.592
297.8024, 1666.401
298.2845, 1666.904
298.7666, 1664.927
299.2487, 1661.827
299.7308, 1658.371
300.2130, 1654.779
300.6951, 1651.744
301.1772, 1649.800
301.6593, 1648.437
302.1414, 1647.189
302.6235, 1646.044
303.1057, 1644.291
303.5878, 1640.274
304.0699, 1635.334
304.5520, 1632.125
305.0341, 1632.748
305.5162, 1634.337
305.9984, 1633.853
306.4805, 1631.523
306.9626, 1628.849
307.4447, 1626.407
307.9268, 1624.385
308.4089, 1623.079
308.8911, 1622.636
309.3732, 1622.818
309.8553, 1623.915
310.3374, 1625.609
310.8195, 1626.830
311.3016, 1626.936
311.7838, 1626.296
312.2659, 1625.022
312.7480, 1622.652
313.2301, 1620.808
313.7122, 1620.962
314.1943, 1622.328
314.6765, 1623.257
315.1586, 1622.342
315.6407, 1621.229
316.1228, 1621.035
316.6049, 1622.104
317.0870, 1623.257
317.5692, 1624.282
318.0513, 1625.013
318.5334, 1625.207
319.0155, 1624.319
319.4976, 1623.287
319.9797, 1622.409
320.4619, 1621.691
320.9440, 1621.350
321.4261, 1621.782
321.9082, 1622.461
322.3903, 1622.887
322.8724, 1621.738
323.3546, 1621.509
323.8367, 1623.614
324.3188, 1627.922
324.8009, 1630.785
325.2830, 1629.749
325.7651, 1628.240
326.2473, 1628.487
326.7294, 1633.682
327.2115, 1637.264
327.6936, 1637.673
328.1757, 1635.672
328.6578, 1635.012
329.1400, 1636.676
329.6221, 1638.964
330.1042, 1641.225
330.5863, 1643.716
331.0684, 1645.785
331.5505, 1647.345
332.0327, 1648.460
332.5148, 1649.142
332.9969, 1648.280
333.4790, 1648.378
333.9611, 1650.485
334.4432, 1655.215
334.9254, 1659.302
335.4075, 1662.638
335.8896, 1665.286
336.3717, 1667.371
336.8538, 1668.993
337.3359, 1669.590
337.8180, 1668.237
338.3001, 1665.015
338.7823, 1665.241
339.2644, 1669.909
339.7465, 1676.123
340.2286, 1681.421
340.7107, 1685.834
341.1928, 1689.038
341.6750, 1690.650
342.1571, 1691.112
342.6392, 1691.859
343.1213, 1692.892
343.6034, 1694.335
344.0855, 1696.354
344.5677, 1698.923
345.0498, 1701.885
345.5319, 1705.406
346.0140, 1708.974
346.4961, 1711.365
346.9782, 1712.619
347.4604, 1714.029
347.9425, 1716.084
348.4246, 1718.850
348.9067, 1722.769
349.3888, 1728.061
349.8709, 1733.530
350.3531, 1737.672
350.8352, 1740.732
351.3173, 1743.614
351.7994, 1746.623
352.2815, 1749.730
352.7636, 1753.002
353.2458, 1756.420
353.7279, 1759.660
354.2100, 1762.978
354.6921, 1765.829
355.1742, 1767.165
355.6563, 1765.609
356.1385, 1763.528
356.6206, 1763.297
357.1027, 1764.605
357.5848, 1765.915
358.0669, 1767.086
358.5490, 1767.455
359.0312, 1766.043
359.5133, 1761.614
359.9954, 1757.814
360.4775, 1757.987
360.9596, 1760.343
361.4417, 1761.063
361.9239, 1757.046
362.4060, 1752.217
362.8881, 1748.791
363.3702, 1747.260
363.8523, 1745.777
364.3344, 1743.691
364.8166, 1741.358
365.2987, 1739.161
365.7808, 1736.975
366.2629, 1735.217
366.7450, 1734.247
367.2271, 1734.054
367.7093, 1733.479
368.1914, 1732.261
368.6735, 1730.671
369.1556, 1728.855
369.6377, 1726.021
370.1198, 1723.988
370.6020, 1723.255
371.0841, 1723.410
371.5662, 1722.931
372.0483, 1720.976
372.5304, 1719.388
373.0125, 1719.189
373.4947, 1721.460
373.9768, 1721.881
374.4589, 1719.787
374.9410, 1716.379
375.4231, 1713.601
375.9052, 1711.669
376.3874, 1709.791
376.8695, 1707.719
377.3516, 1705.471
377.8337, 1703.642
378.3158, 1702.210
378.7979, 1701.292
379.2801, 1701.609
379.7622, 1703.309
380.2443, 1703.066
380.7264, 1699.395
381.2085, 1694.067
381.6906, 1691.949
382.1728, 1693.068
382.6549, 1695.108
383.1370, 1696.885
383.6191, 1698.321
384.1012, 1699.024
384.5833, 1698.835
385.0655, 1698.184
385.5476, 1697.370
386.0297, 1696.490
386.5118, 1696.003
386.9939, 1696.217
387.4760, 1696.921
387.9582, 1698.203
388.4403, 1700.092
388.9224, 1701.287
389.4045, 1699.966
389.8866, 1697.520
390.3687, 1695.892
390.8509, 1695.937
391.3330, 1696.843
391.8151, 1698.527
392.2972, 1700.758
392.7793, 1702.586
393.2614, 1703.801
393.7436, 1704.268
394.2257, 1703.522
394.7078, 1700.374
395.1899, 1698.731
395.6720, 1700.455
396.1541, 1704.447
396.6363, 1708.947
397.1184, 1715.332
397.6005, 1720.461
398.0826, 1722.679
398.5647, 1721.465
399.0468, 1721.208
399.5290, 1722.327
400.0111, 1724.568
400.4932, 1727.768
400.9753, 1733.537
401.4574, 1738.087
401.9395, 1740.450
402.4217, 1741.208
402.9038, 1743.025
403.3859, 1746.228
403.8680, 1750.029
404.3501, 1754.157
404.8322, 1758.704
405.3144, 1763.239
405.7965, 1767.989
406.2786, 1772.396
406.7607, 1775.494
407.2428, 1777.172
407.7249, 1778.118
408.2071, 1778.458
408.6892, 1778.228
409.1713, 1777.569
409.6534, 1776.416
410.1355, 1775.121
410.6176, 1774.406
411.0998, 1773.995
411.5819, 1772.102
412.0640, 1767.841
412.5461, 1762.832
413.0282, 1760.041
413.5103, 1759.073
413.9925, 1757.563
414.4746, 1753.802
414.9567, 1748.694
415.4388, 1743.405
415.9209, 1737.888
416.4030, 1733.063
416.8852, 1730.847
417.3673, 1729.604
417.8494, 1726.666
418.3315, 1718.448
418.8136, 1710.327
419.2957, 1706.027
419.7779, 1705.144
420.2600, 1704.555
420.7421, 1702.367
421.2242, 1700.275
421.7063, 1699.795
422.1884, 1702.763
422.6706, 1704.390
423.1527, 1702.574
423.6348, 1698.756
424.1169, 1695.650
424.5990, 1693.119
425.0811, 1691.797
425.5633, 1692.379
426.0454, 1695.271
426.5275, 1696.887
427.0096, 1696.060
427.4917, 1694.837
427.9738, 1695.017
428.4560, 1697.640
428.9381, 1699.440
429.4202, 1700.097
429.9023, 1699.646
430.3844, 1697.764
430.8665, 1693.618
431.3487, 1690.450
431.8308, 1690.618
432.3129, 1694.386
432.7950, 1695.967
433.2771, 1694.883
433.7592, 1692.772
434.2414, 1691.457
434.7235, 1690.941
435.2056, 1691.283
435.6877, 1693.156
436.1698, 1695.471
436.6519, 1695.499
437.1341, 1693.369
437.6162, 1691.291
438.0983, 1691.417
438.5804, 1692.572
439.0625, 1692.305
439.5446, 1689.587
440.0268, 1687.558
440.5089, 1689.751
440.9910, 1694.684
441.4731, 1699.287
441.9552, 1703.131
442.4373, 1705.466
442.9195, 1704.775
443.4016, 1701.157
443.8837, 1698.999
444.3658, 1701.694
444.8479, 1705.660
445.3300, 1708.072
445.8122, 1707.765
446.2943, 1706.656
446.7764, 1703.705
447.2585, 1700.110
447.7406, 1698.969
448.2227, 1702.932
448.7049, 1706.965
449.1870, 1709.904
449.6691, 1711.786
450.1512, 1712.164
450.6333, 1710.232
451.1154, 1707.714
451.5976, 1706.337
452.0797, 1706.587
452.5618, 1706.450
453.0439, 1705.387
453.5260, 1703.903
454.0081, 1703.397
454.4903, 1703.904
454.9724, 1705.249
455.4545, 1707.922
455.9366, 1711.588
456.4187, 1713.918
456.9008, 1714.679
457.3830, 1714.781
457.8651, 1714.984
458.3472, 1715.315
458.8293, 1715.892
459.3114, 1716.665
459.7935, 1717.743
460.2757, 1719.896
460.7578, 1722.741
461.2399, 1724.463
461.7220, 1722.507
462.2041, 1719.683
462.6862, 1718.868
463.1684, 1720.875
463.6505, 1723.144
464.1326, 1725.146
464.6147, 1726.428
465.0968, 1726.410
465.5789, 1722.943
466.0611, 1720.213
466.5432, 1719.730
467.0253, 1721.369
467.5074, 1723.111
467.9895, 1724.622
468.4716, 1726.309
468.9538, 1728.449
469.4359, 1731.668
469.9180, 1733.829
470.4001, 1734.241
470.8822, 1734.055
471.3643, 1735.186
471.8465, 1738.265
472.3286, 1740.735
472.8107, 1741.857
473.2928, 1741.792
473.7749, 1741.399
474.2570, 1740.552
474.7392, 1739.995
475.2213, 1740.450
475.7034, 1741.770
476.1855, 1742.970
476.6676, 1743.958
477.1497, 1744.844
477.6319, 1745.708
478.1140, 1746.590
478.5961, 1747.569
479.0782, 1748.594
479.5603, 1749.807
480.0424, 1751.675
480.5246, 1754.076
481.0067, 1755.953
481.4888, 1755.765
481.9709, 1755.232
482.4530, 1755.900
482.9352, 1758.291
483.4173, 1761.285
483.8994, 1765.862
484.3815, 1770.442
484.8636, 1772.588
485.3457, 1768.539
485.8279, 1765.285
486.3100, 1765.043
486.7921, 1767.884
487.2742, 1770.250
487.7563, 1772.165
488.2384, 1773.665
488.7206, 1774.693
489.2027, 1774.976
489.6848, 1775.555
490.1669, 1776.321
490.6490, 1777.555
491.1311, 1779.934
491.6133, 1783.628
492.0954, 1787.097
492.5775, 1789.507
493.0596, 1791.414
493.5417, 1795.648
494.0238, 1802.222
494.5060, 1807.919
494.9881, 1809.281
495.4702, 1807.921
495.9523, 1808.076
496.4344, 1810.480
496.9165, 1813.401
497.3987, 1815.318
497.8808, 1816.495
498.3629, 1817.400
498.8450, 1818.271
499.3271, 1818.924
499.8092, 1819.311
500.2914, 1819.427
500.7735, 1819.151
501.2556, 1818.065
501.7377, 1816.897
502.2198, 1816.095
502.7019, 1815.838
503.1841, 1815.676
503.6662, 1815.518
504.1483, 1815.473
504.6304, 1815.711
505.1125, 1816.850
505.5946, 1817.221
506.0768, 1816.117
506.5589, 1813.985
507.0410, 1813.213
507.5231, 1814.188
508.0052, 1815.373
508.4873, 1815.994
508.9695, 1816.024
509.4516, 1815.734
509.9337, 1814.927
510.4158, 1814.560
510.8979, 1816.638
511.3800, 1820.400
511.8622, 1822.252
512.3443, 1820.699
512.8264, 1817.596
513.3085, 1814.590
513.7906, 1811.950
514.2728, 1810.632
514.7549, 1813.191
515.2370, 1816.018
515.7191, 1815.495
516.2012, 1811.189
516.6833, 1807.237
517.1655, 1806.270
517.6476, 1806.127
518.1297, 1804.934
518.6118, 1800.270
519.0939, 1797.096
519.5760, 1797.612
520.0582, 1800.074
520.5403, 1800.214
521.0224, 1795.635
521.5045, 1792.121
521.9866, 1791.899
522.4688, 1794.948
522.9509, 1794.995
523.4330, 1790.959
523.9151, 1786.384
524.3972, 1784.228
524.8793, 1784.551
525.3615, 1784.012
525.8436, 1782.103
526.3257, 1779.779
526.8078, 1778.971
527.2899, 1779.207
527.7720, 1778.234
528.2542, 1774.379
528.7363, 1769.459
529.2184, 1765.542
529.7005, 1762.635
530.1826, 1760.584
530.6647, 1760.392
531.1469, 1760.385
531.6290, 1758.940
532.1111, 1755.565
532.5932, 1752.235
533.0753, 1749.578
533.5574, 1747.451
534.0396, 1745.750
534.5217, 1744.903
535.0038, 1743.979
535.4859, 1742.875
535.9680, 1741.614
536.4501, 1740.205
536.9323, 1738.558
537.4144, 1736.887
537.8965, 1734.838
538.3786, 1732.335
538.8607, 1733.069
539.3428, 1738.194
539.8250, 1742.911
540.3071, 1741.695
540.7892, 1735.277
541.2713, 1730.520
541.7534, 1728.528
542.2355, 1728.334
542.7177, 1729.223
543.1998, 1730.901
543.6819, 1732.406
544.1640, 1733.298
544.6461, 1733.807
545.1282, 1734.047
545.6104, 1734.059
546.0925, 1734.063
546.5746, 1734.500
547.0567, 1734.756
547.5388, 1734.184
548.0209, 1732.183
548.5031, 1731.136
548.9852, 1732.560
549.4673, 1734.677
549.9494, 1735.564
550.4315, 1733.943
550.9136, 1733.068
551.3958, 1733.728
551.8779, 1735.213
552.3600, 1735.305
552.8421, 1733.634
553.3242, 1731.809
553.8063, 1730.232
554.2885, 1728.998
554.7706, 1729.138
555.2527, 1730.766
555.7348, 1732.615
556.2169, 1734.108
556.6990, 1734.958
557.1812, 1734.062
557.6633, 1730.803
558.1454, 1727.583
558.6275, 1726.755
559.1096, 1727.598
559.5917, 1728.814
560.0739, 1731.056
560.5560, 1732.441
561.0381, 1731.060
561.5202, 1727.712
562.0023, 1725.864
562.4844, 1728.266
562.9666, 1730.722
563.4487, 1731.199
563.9308, 1729.201
564.4129, 1727.491
564.8950, 1725.714
565.3771, 1724.582
565.8593, 1724.798
566.3414, 1726.659
566.8235, 1728.688
567.3056, 1731.013
567.7877, 1733.056
568.2698, 1733.456
568.7520, 1732.329
569.2341, 1731.495
569.7162, 1732.095
570.1983, 1733.149
570.6804, 1732.760
571.1625, 1731.096
571.6447, 1729.213
572.1268, 1727.503
572.6089, 1726.107
573.0910, 1725.160
573.5731, 1724.663
574.0552, 1724.717
574.5374, 1725.928
575.0195, 1727.423
575.5016, 1728.380
575.9837, 1727.247
576.4658, 1727.254
576.9479, 1729.533
577.4301, 1732.874
577.9122, 1734.898
578.3943, 1734.959
578.8764, 1734.883
579.3585, 1735.134
579.8406, 1735.628
580.3228, 1736.053
580.8049, 1736.491
581.2870, 1736.300
581.7691, 1734.437
582.2512, 1731.511
582.7333, 1730.230
583.2155, 1730.924
583.6976, 1731.781
584.1797, 1730.495
584.6617, 1728.396
585.1439, 1727.822
585.6260, 1730.311
586.1081, 1732.886
586.5902, 1733.687
587.0723, 1733.300
587.5544, 1732.841
588.0366, 1732.121
588.5187, 1731.857
589.0008, 1732.248
589.4829, 1733.276
589.9650, 1734.840
590.4471, 1737.772
590.9293, 1740.047
591.4114, 1740.302
591.8935, 1738.016
592.3756, 1737.502
592.8577, 1739.219
593.3398, 1741.447
593.8220, 1742.100
594.3041, 1741.473
594.7862, 1742.085
595.2683, 1744.857
595.7504, 1747.843
596.2325, 1747.949
596.7147, 1746.242
597.1968, 1745.457
597.6789, 1748.216
598.1610, 1751.188
598.6431, 1751.687
599.1252, 1750.194
599.6074, 1748.997
600.0895, 1749.431
600.5716, 1749.904
601.0537, 1749.347
601.5358, 1747.183
602.0179, 1746.538
602.5001, 1747.982
602.9822, 1750.421
603.4643, 1753.387
603.9464, 1757.484
604.4285, 1759.646
604.9106, 1759.244
605.3928, 1757.715
605.8749, 1757.123
606.3570, 1757.418
606.8391, 1757.981
607.3212, 1758.588
607.8033, 1759.390
608.2855, 1761.121
608.7676, 1763.368
609.2497, 1764.702
609.7318, 1763.312
610.2139, 1761.395
610.6960, 1760.536
611.1782, 1760.802
611.6603, 1761.679
612.1424, 1764.976
612.6245, 1767.393
613.1066, 1766.580
613.5887, 1760.212
614.0709, 1755.712
614.5530, 1753.989
615.0351, 1753.326
615.5172, 1751.770
615.9993, 1748.933
616.4814, 1747.086
616.9636, 1746.836
617.4457, 1747.306
617.9278, 1746.828
618.4099, 1745.453
618.8920, 1743.831
619.3741, 1741.990
619.8563, 1740.179
620.3384, 1738.997
620.8205, 1738.275
621.3026, 1737.244
621.7847, 1734.925
622.2668, 1732.487
622.7490, 1730.768
623.2311, 1729.845
623.7132, 1729.572
624.1953, 1729.780
624.6774, 1730.773
625.1595, 1733.026
625.6417, 1739.224
626.1238, 1741.275
626.6059, 1737.577
627.0880, 1731.543
627.5701, 1727.502
628.0522, 1725.584
628.5344, 1724.538
629.0165, 1724.203
629.4986, 1724.447
629.9807, 1724.933
630.4628, 1725.724
630.9449, 1727.175
631.4271, 1730.114
631.9092, 1733.349
632.3913, 1735.775
632.8734, 1737.361
633.3555, 1738.071
633.8376, 1737.068
634.3198, 1735.795
634.8019, 1735.070
635.2840, 1735.012
635.7661, 1735.256
636.2482, 1735.907
636.7303, 1736.729
637.2125, 1737.580
637.6946, 1738.460
638.1767, 1739.522
638.6588, 1741.005
639.1409, 1742.311
639.6230, 1742.126
640.1052, 1740.611
640.5873, 1740.163
641.0694, 1741.686
641.5515, 1744.085
642.0336, 1745.914
642.5157, 1747.254
642.9979, 1748.367
643.4800, 1748.434
643.9621, 1749.078
644.4442, 1752.115
644.9263, 1757.052
645.4084, 1760.941
645.8906, 1761.687
646.3727, 1762.145
646.8548, 1763.873
647.3369, 1767.187
647.8190, 1769.289
648.3011, 1769.163
648.7833, 1769.332
649.2654, 1772.134
649.7475, 1777.944
650.2296, 1781.856
650.7117, 1783.237
651.1938, 1784.144
651.6760, 1786.840
652.1581, 1791.115
652.6402, 1796.392
653.1223, 1802.960
653.6044, 1809.535
654.0865, 1815.530
654.5687, 1820.734
655.0508, 1824.800
655.5329, 1826.067
656.0150, 1827.796
656.4971, 1831.277
656.9792, 1836.299
657.4614, 1841.700
657.9435, 1848.304
658.4256, 1853.994
658.9077, 1857.690
659.3898, 1859.512
659.8719, 1862.448
660.3541, 1866.482
660.8362, 1871.671
661.3183, 1878.515
661.8004, 1886.609
662.2825, 1895.066
662.7646, 1903.909
663.2468, 1911.849
663.7289, 1916.936
664.2110, 1920.768
664.6931, 1925.365
665.1752, 1931.202
665.6573, 1937.851
666.1395, 1946.541
666.6216, 1955.481
667.1037, 1962.464
667.5858, 1965.376
668.0679, 1968.642
668.5500, 1972.945
669.0322, 1977.611
669.5143, 1981.299
669.9964, 1984.196
670.4785, 1985.134
670.9606, 1983.059
671.4427, 1979.242
671.9249, 1977.259
672.4070, 1976.925
672.8891, 1976.915
673.3712, 1976.892
673.8533, 1976.507
674.3354, 1974.712
674.8176, 1971.739
675.2997, 1970.074
675.7818, 1972.801
676.2639, 1975.865
676.7460, 1976.555
677.2281, 1973.793
677.7103, 1971.789
678.1924, 1971.684
678.6745, 1971.391
679.1566, 1968.886
679.6387, 1963.190
680.1208, 1960.337
680.6030, 1961.340
681.0851, 1963.250
681.5672, 1962.341
682.0493, 1959.080
682.5314, 1955.378
683.0135, 1951.552
683.4957, 1947.811
683.9778, 1944.597
684.4599, 1941.609
684.9420, 1938.416
685.4241, 1934.437
685.9063, 1930.594
686.3884, 1927.188
686.8705, 1924.189
687.3526, 1921.426
687.8347, 1919.098
688.3168, 1916.700
688.7990, 1914.220
689.2811, 1911.599
689.7632, 1908.498
690.2453, 1904.874
690.7274, 1901.214
691.2095, 1897.545
691.6917, 1894.109
692.1738, 1892.031
692.6559, 1891.251
693.1380, 1889.841
693.6201, 1885.025
694.1022, 1879.684
694.5844, 1876.713
695.0665, 1876.761
695.5486, 1877.288
696.0307, 1877.358
696.5128, 1877.579
696.9949, 1878.585
697.4771, 1881.787
697.9592, 1882.632
698.4413, 1880.002
698.9234, 1876.494
699.4055, 1875.676
699.8876, 1877.644
700.3698, 1878.204
700.8519, 1876.208
701.3340, 1873.830
701.8161, 1874.704
702.2982, 1877.653
702.7803, 1879.621
703.2625, 1878.382
703.7446, 1877.162
704.2267, 1878.510
704.7088, 1881.437
705.1909, 1883.778
705.6730, 1884.956
706.1552, 1885.374
706.6373, 1884.746
707.1194, 1883.354
707.6015, 1882.622
708.0836, 1882.713
708.5657, 1882.890
709.0479, 1883.092
709.5300, 1883.073
710.0121, 1881.446
710.4942, 1878.259
710.9763, 1875.307
711.4584, 1874.592
711.9406, 1874.345
712.4227, 1872.327
712.9048, 1868.448
713.3869, 1863.918
713.8690, 1858.054
714.3511, 1852.726
714.8333, 1849.400
715.3154, 1849.279
715.7975, 1847.952
716.2796, 1844.964
716.7617, 1841.375
717.2438, 1837.839
717.7260, 1834.374
718.2081, 1831.428
718.6902, 1829.147
719.1723, 1827.062
719.6544, 1824.371
720.1365, 1821.476
720.6187, 1819.452
721.1008, 1818.662
721.5829, 1818.282
722.0650, 1817.611
722.5471, 1816.955
723.0292, 1816.721
723.5114, 1817.265
723.9935, 1817.901
724.4756, 1818.892
724.9577, 1819.746
725.4398, 1819.424
725.9219, 1817.235
726.4041, 1816.056
726.8862, 1816.927
727.3683, 1818.699
727.8504, 1818.386
728.3325, 1816.276
728.8146, 1814.344
729.2968, 1814.256
729.7789, 1814.144
730.2610, 1811.416
730.7431, 1806.782
731.2252, 1802.613
731.7073, 1799.574
732.1895, 1797.559
732.6716, 1797.372
733.1537, 1798.739
733.6358, 1797.906
734.1179, 1793.444
734.6000, 1789.260
735.0822, 1787.376
735.5643, 1787.438
736.0464, 1785.582
736.5285, 1781.724
737.0106, 1777.848
737.4927, 1774.603
737.9749, 1772.574
738.4570, 1773.745
738.9391, 1778.056
739.4212, 1781.201
739.9033, 1779.731
740.3854, 1776.773
740.8676, 1774.437
741.3497, 1773.031
741.8318, 1771.970
742.3139, 1771.272
742.7960, 1770.774
743.2781, 1770.469
743.7603, 1770.461
744.2424, 1769.768
744.7245, 1768.189
745.2066, 1766.726
745.6887, 1767.374
746.1708, 1768.913
746.6530, 1767.675
747.1351, 1762.537
747.6172, 1757.407
748.0993, 1755.287
748.5814, 1754.722
749.0635, 1754.100
749.5457, 1752.650
750.0278, 1751.747
750.5099, 1751.203
750.9920, 1751.477
751.4741, 1753.691
751.9562, 1758.828
752.4384, 1761.130
752.9205, 1759.041
753.4026, 1755.359
753.8847, 1754.975
754.3668, 1756.967
754.8489, 1757.563
755.3311, 1754.926
755.8132, 1751.797
756.2953, 1750.565
756.7774, 1750.547
757.2595, 1750.574
757.7416, 1750.258
758.2238, 1750.005
758.7059, 1749.241
759.1880, 1748.802
759.6701, 1751.138
760.1522, 1758.147
760.6343, 1761.676
761.1165, 1758.555
761.5986, 1751.902
762.0807, 1749.239
762.5628, 1750.072
763.0449, 1751.484
763.5270, 1752.189
764.0092, 1752.799
764.4913, 1753.876
764.9734, 1755.329
765.4555, 1756.895
765.9376, 1759.137
766.4197, 1760.733
766.9019, 1760.792
767.3840, 1759.696
767.8661, 1759.236
768.3482, 1759.547
768.8303, 1760.053
769.3124, 1760.510
769.7946, 1760.988
770.2767, 1761.785
770.7588, 1762.875
771.2409, 1764.028
771.7230, 1765.441
772.2051, 1766.623
772.6873, 1766.847
773.1694, 1766.259
773.6515, 1765.969
774.1336, 1767.502
774.6157, 1768.312
775.0978, 1766.770
775.5800, 1763.028
776.0621, 1761.080
776.5442, 1761.416
777.0263, 1762.189
777.5084, 1762.664
777.9905, 1762.758
778.4727, 1761.869
778.9548, 1760.037
779.4369, 1758.129
779.9190, 1756.921
780.4011, 1755.805
780.8832, 1754.012
781.3654, 1751.508
781.8475, 1749.271
782.3296, 1747.399
782.8117, 1746.093
783.2938, 1745.645
783.7759, 1746.221
784.2581, 1745.605
784.7402, 1743.318
785.2223, 1741.440
785.7044, 1742.289
786.1865, 1744.847
786.6686, 1744.523
787.1508, 1741.239
787.6329, 1738.076
788.1150, 1737.178
788.5971, 1737.574
789.0792, 1738.551
789.5613, 1740.095
790.0435, 1741.463
790.5256, 1742.347
791.0077, 1743.066
791.4898, 1743.791
791.9719, 1744.524
792.4540, 1744.786
792.9362, 1744.316
793.4183, 1744.305
793.9004, 1746.552
794.3825, 1749.972
794.8646, 1751.180
795.3467, 1749.926
795.8289, 1748.451
796.3110, 1748.600
796.7931, 1749.144
797.2752, 1748.880
797.7573, 1747.275
798.2394, 1746.767
798.7216, 1748.134
799.2037, 1750.135
799.6858, 1752.272
800.1679, 1754.745
800.6500, 1755.575
801.1321, 1754.478
801.6143, 1753.638
802.0964, 1755.485
802.5785, 1758.859
803.0606, 1761.488
803.5427, 1763.054
804.0248, 1764.751
804.5070, 1767.043
804.9891, 1769.906
805.4712, 1773.193
805.9533, 1776.636
806.4354, 1781.815
806.9175, 1790.472
807.3997, 1798.279
807.8818, 1801.402
808.3639, 1799.933
808.8460, 1800.204
809.3281, 1802.627
809.8102, 1804.249
810.2924, 1801.146
810.7745, 1796.193
811.2566, 1793.466
811.7387, 1793.737
812.2208, 1794.154
812.7029, 1793.782
813.1851, 1793.006
813.6672, 1792.195
814.1493, 1791.614
814.6314, 1789.787
815.1135, 1786.246
815.5956, 1782.660
816.0778, 1780.099
816.5599, 1778.599
817.0420, 1778.889
817.5241, 1781.030
818.0062, 1782.988
818.4883, 1782.638
818.9705, 1781.633
819.4526, 1781.855
819.9347, 1783.813
820.4168, 1784.654
820.8989, 1782.925
821.3810, 1780.687
821.8632, 1778.975
822.3453, 1777.889
822.8274, 1776.426
823.3095, 1774.587
823.7916, 1772.715
824.2737, 1771.200
824.7559, 1769.878
825.2380, 1768.128
825.7201, 1765.987
826.2022, 1764.685
826.6843, 1766.187
827.1664, 1767.860
827.6486, 1767.783
828.1307, 1765.473
828.6128, 1763.474
829.0949, 1761.564
829.5770, 1760.317
830.0591, 1760.235
830.5413, 1761.186
831.0234, 1761.951
831.5055, 1762.511
831.9876, 1762.460
832.4697, 1761.393
832.9518, 1759.630
833.4340, 1756.688
833.9161, 1752.803
834.3982, 1751.031
834.8803, 1755.260
835.3624, 1759.039
835.8445, 1759.056
836.3267, 1755.553
836.8088, 1754.445
837.2909, 1756.273
837.7730, 1758.095
838.2551, 1757.973
838.7372, 1756.771
839.2194, 1756.599
839.7015, 1757.360
840.1836, 1758.466
840.6657, 1759.917
841.1478, 1761.298
841.6299, 1762.061
842.1121, 1762.344
842.5942, 1763.432
843.0763, 1765.577
843.5584, 1768.169
844.0405, 1771.207
844.5226, 1774.465
845.0048, 1776.850
845.4869, 1778.428
845.9690, 1780.412
846.4511, 1784.118
846.9332, 1787.914
847.4153, 1789.624
847.8975, 1789.945
848.3796, 1790.836
848.8617, 1793.383
849.3438, 1796.192
849.8259, 1798.867
850.3080, 1801.536
850.7902, 1804.413
851.2723, 1807.413
851.7544, 1811.152
852.2365, 1816.090
852.7186, 1821.420
853.2007, 1825.893
853.6829, 1829.573
854.1650, 1832.695
854.6471, 1835.706
855.1292, 1837.731
855.6113, 1837.135
856.0934, 1835.525
856.5756, 1836.123
857.0577, 1841.559
857.5398, 1843.635
858.0219, 1840.286
858.5040, 1835.061
858.9861, 1834.497
859.4683, 1837.522
859.9504, 1838.122
860.4325, 1834.367
860.9146, 1829.561
861.3967, 1826.807
861.8788, 1824.768
862.3610, 1821.678
862.8431, 1816.033
863.3252, 1811.412
863.8073, 1808.820
864.2894, 1806.659
864.7715, 1803.217
865.2537, 1798.414
865.7358, 1794.647
866.2179, 1792.206
866.7000, 1790.040
867.1821, 1786.887
867.6642, 1783.427
868.1464, 1780.686
868.6285, 1778.839
869.1106, 1777.460
869.5927, 1776.586
870.0748, 1775.944
870.5569, 1775.299
871.0391, 1774.568
871.5212, 1774.084
872.0033, 1773.729
872.4854, 1773.875
872.9675, 1775.357
873.4496, 1777.357
873.9318, 1777.709
874.4139, 1776.441
874.8960, 1775.067
875.3781, 1774.365
875.8602, 1773.930
876.3423, 1773.801
876.8245, 1773.949
877.3066, 1773.152
877.7887, 1771.005
878.2708, 1769.069
878.7529, 1768.336
879.2350, 1768.245
879.7172, 1765.950
880.1993, 1762.038
880.6814, 1759.866
881.1635, 1762.368
881.6456, 1766.318
882.1277, 1770.257
882.6099, 1773.737
883.0920, 1775.460
883.5741, 1772.669
884.0562, 1771.621
884.5383, 1773.920
885.0204, 1777.887
885.5026, 1779.971
885.9847, 1780.218
886.4668, 1779.799
886.9489, 1778.774
887.4310, 1777.768
887.9131, 1777.096
888.3953, 1777.045
888.8774, 1778.115
889.3595, 1782.124
889.8416, 1784.732
890.3237, 1784.425
890.8058, 1783.336
891.2880, 1784.057
891.7701, 1786.887
892.2522, 1787.379
892.7343, 1784.829
893.2164, 1782.041
893.6985, 1781.960
894.1807, 1783.491
894.6628, 1785.450
895.1449, 1787.868
895.6270, 1788.923
896.1091, 1786.174
896.5912, 1783.428
897.0734, 1783.104
897.5555, 1785.454
898.0376, 1787.285
898.5197, 1788.563
899.0018, 1789.612
899.4839, 1790.790
899.9661, 1791.248
900.4482, 1792.162
900.9303, 1791.829
901.4124, 1791.683
901.8945, 1791.655
902.3766, 1792.351
902.8588, 1794.625
903.3409, 1797.954
903.8230, 1800.048
904.3051, 1800.566
904.7872, 1801.090
905.2693, 1802.062
905.7515, 1803.407
906.2336, 1805.130
906.7157, 1807.108
907.1978, 1809.018
907.6799, 1810.696
908.1620, 1812.304
908.6442, 1814.201
909.1263, 1816.002
909.6084, 1817.042
910.0905, 1816.885
910.5726, 1817.276
911.0547, 1818.561
911.5369, 1820.059
912.0190, 1820.790
912.5011, 1821.017
912.9832, 1821.707
913.4653, 1823.233
913.9474, 1823.823
914.4296, 1820.599
914.9117, 1817.109
915.3938, 1816.840
915.8759, 1821.182
916.3580, 1823.081
916.8401, 1821.518
917.3223, 1819.953
917.8044, 1821.142
918.2865, 1824.273
918.7686, 1826.662
919.2507, 1828.259
919.7328, 1828.854
920.2150, 1827.666
920.6971, 1826.060
921.1792, 1825.110
921.6613, 1824.650
922.1434, 1823.067
922.6255, 1819.508
923.1077, 1816.860
923.5898, 1816.244
924.0719, 1816.729
924.5540, 1816.098
925.0361, 1814.585
925.5182, 1813.194
926.0004, 1812.175
926.4825, 1811.478
926.9646, 1810.950
927.4467, 1810.705
927.9288, 1811.020
928.4109, 1812.652
928.8931, 1813.207
929.3752, 1812.454
929.8573, 1810.841
930.3394, 1808.263
930.8215, 1805.234
931.3036, 1803.794
931.7858, 1804.307
932.2679, 1804.751
932.7500, 1803.247
933.2321, 1801.518
933.7142, 1801.314
934.1964, 1803.212
934.6785, 1802.608
935.1606, 1798.272
935.6427, 1794.548
936.1248, 1794.102
936.6069, 1795.919
937.0891, 1796.580
937.5712, 1796.316
938.0533, 1796.271
938.5354, 1796.835
939.0175, 1797.989
939.4996, 1800.502
939.9818, 1803.521
940.4639, 1804.401
940.9460, 1801.483
941.4281, 1800.823
941.9102, 1804.342
942.3923, 1808.855
942.8745, 1808.756
943.3566, 1805.402
943.8387, 1802.216
944.3208, 1799.321
944.8029, 1799.444
945.2850, 1808.783
945.7672, 1818.961
946.2493, 1821.369
946.7314, 1813.378
947.2135, 1807.973
947.6956, 1805.251
948.1777, 1804.851
948.6599, 1807.813
949.1420, 1812.594
949.6241, 1815.367
950.1062, 1816.217
950.5883, 1816.768
951.0704, 1817.875
951.5526, 1818.887
952.0347, 1819.151
952.5168, 1818.997
952.9989, 1820.052
953.4810, 1822.891
953.9631, 1823.976
954.4453, 1821.659
954.9274, 1818.232
955.4095, 1817.512
955.8916, 1818.607
956.3737, 1819.588
956.8558, 1819.806
957.3380, 1819.960
957.8201, 1820.481
958.3022, 1820.954
958.7843, 1820.791
959.2664, 1819.657
959.7485, 1820.235
960.2307, 1822.853
960.7128, 1825.330
961.1949, 1824.725
961.6770, 1823.285
962.1591, 1825.005
962.6412, 1829.866
963.1234, 1832.880
963.6055, 1829.630
964.0876, 1827.242
964.5697, 1828.835
965.0518, 1833.179
965.5339, 1834.506
966.0161, 1832.803
966.4982, 1831.854
966.9803, 1833.458
967.4624, 1835.843
967.9445, 1837.441
968.4266, 1838.322
968.9088, 1838.578
969.3909, 1838.079
969.8730, 1837.095
970.3551, 1835.180
970.8372, 1833.446
971.3193, 1833.328
971.8015, 1834.623
972.2836, 1835.312
972.7657, 1835.260
973.2478, 1834.504
973.7299, 1831.961
974.2120, 1829.585
974.6942, 1829.249
975.1763, 1831.120
975.6584, 1832.659
976.1405, 1833.413
976.6226, 1834.635
977.1047, 1837.244
977.5869, 1840.225
978.0690, 1840.048
978.5511, 1837.592
979.0332, 1836.259
979.5153, 1838.270
979.9974, 1840.432
980.4796, 1840.689
980.9617, 1842.276
981.4438, 1840.811
981.9259, 1843.327
982.4080, 1844.326
982.8901, 1843.430
983.3723, 1841.947
983.8544, 1840.915
984.3365, 1840.350
984.8186, 1840.397
985.3007, 1841.063
985.7828, 1841.805
986.2650, 1842.285
986.7471, 1842.931
987.2292, 1843.994
987.7113, 1845.359
988.1934, 1846.434
988.6755, 1847.191
989.1577, 1847.879
989.6398, 1848.497
990.1219, 1849.188
990.6040, 1850.157
991.0861, 1851.296
991.5682, 1852.461
992.0504, 1854.539
992.5325, 1855.052
993.0146, 1853.115
993.4967, 1850.591
993.9788, 1849.130
994.4609, 1848.658
994.9431, 1848.467
995.4252, 1848.533
995.9073, 1848.930
996.3894, 1850.217
996.8715, 1851.455
997.3536, 1851.750
997.8358, 1851.179
998.3179, 1851.285
998.8000, 1852.492
999.2821, 1853.301
999.7642, 1853.059
1000.246, 1852.506
1000.728, 1853.674
1001.211, 1855.719
1001.693, 1856.374
1002.175, 1854.527
1002.657, 1852.157
1003.139, 1848.533
1003.621, 1845.959
1004.103, 1846.666
1004.585, 1851.266
1005.068, 1856.018
1005.550, 1861.104
1006.032, 1864.751
1006.514, 1864.450
1006.996, 1862.694
1007.478, 1862.746
1007.960, 1864.324
1008.442, 1865.263
1008.924, 1863.462
1009.407, 1863.038
1009.889, 1865.669
1010.371, 1869.313
1010.853, 1869.322
1011.335, 1866.264
1011.817, 1863.688
1012.299, 1862.313
1012.781, 1862.089
1013.263, 1864.226
1013.746, 1866.768
1014.228, 1867.648
1014.710, 1866.360
1015.192, 1865.779
1015.674, 1866.099
1016.156, 1866.588
1016.638, 1866.661
1017.120, 1866.644
1017.603, 1867.467
1018.085, 1868.845
1018.567, 1869.796
1019.049, 1868.804
1019.531, 1868.536
1020.013, 1870.027
1020.495, 1872.390
1020.977, 1874.790
1021.459, 1877.235
1021.942, 1877.610
1022.424, 1875.428
1022.906, 1872.790
1023.388, 1871.773
1023.870, 1871.213
1024.352, 1869.343
1024.834, 1865.795
1025.316, 1865.533
1025.799, 1870.438
1026.281, 1875.324
1026.763, 1878.187
1027.245, 1879.669
1027.727, 1881.631
1028.209, 1883.782
1028.691, 1885.063
1029.173, 1884.462
1029.656, 1883.851
1030.138, 1883.672
1030.620, 1884.176
1031.102, 1885.894
1031.584, 1889.347
1032.066, 1890.401
1032.548, 1888.663
1033.030, 1887.265
1033.512, 1889.457
1033.995, 1892.987
1034.477, 1895.252
1034.959, 1896.285
1035.441, 1897.262
1035.923, 1898.679
1036.405, 1899.665
1036.887, 1899.969
1037.369, 1899.864
1037.851, 1900.002
1038.334, 1900.232
1038.816, 1899.785
1039.298, 1898.265
1039.780, 1897.170
1040.262, 1897.781
1040.744, 1898.959
1041.226, 1900.132
1041.708, 1901.410
1042.191, 1900.221
1042.673, 1896.169
1043.155, 1893.053
1043.637, 1893.707
1044.119, 1895.763
1044.601, 1895.786
1045.083, 1894.638
1045.565, 1894.293
1046.047, 1896.511
1046.530, 1897.804
1047.012, 1897.612
1047.494, 1896.803
1047.976, 1895.970
1048.458, 1895.301
1048.940, 1896.126
1049.422, 1898.483
1049.904, 1900.437
1050.386, 1900.706
1050.869, 1900.267
1051.351, 1899.422
1051.833, 1898.338
1052.315, 1897.609
1052.797, 1897.257
1053.279, 1896.923
1053.761, 1896.363
1054.243, 1896.135
1054.726, 1897.225
1055.208, 1898.977
1055.690, 1900.487
1056.172, 1901.531
1056.654, 1902.550
1057.136, 1904.152
1057.618, 1904.746
1058.100, 1902.683
1058.583, 1898.974
1059.065, 1897.662
1059.547, 1898.396
1060.029, 1899.558
1060.511, 1900.791
1060.993, 1901.718
1061.475, 1902.228
1061.957, 1902.297
1062.439, 1901.661
1062.922, 1900.133
1063.404, 1900.066
1063.886, 1901.876
1064.368, 1902.970
1064.850, 1899.735
1065.332, 1895.573
1065.814, 1894.108
1066.296, 1895.379
1066.778, 1896.281
1067.261, 1896.489
1067.743, 1896.202
1068.225, 1894.984
1068.707, 1894.080
1069.189, 1896.878
1069.671, 1901.654
1070.153, 1904.155
1070.635, 1902.725
1071.118, 1901.232
1071.600, 1901.569
1072.082, 1901.984
1072.564, 1901.385
1073.046, 1899.916
1073.528, 1898.921
1074.010, 1898.462
1074.492, 1899.050
1074.974, 1902.806
1075.457, 1905.655
1075.939, 1902.602
1076.421, 1897.275
1076.903, 1896.229
1077.385, 1902.033
1077.867, 1904.656
1078.349, 1903.044
1078.831, 1900.765
1079.313, 1901.048
1079.796, 1902.770
1080.278, 1904.527
1080.760, 1906.177
1081.242, 1907.435
1081.724, 1907.625
1082.206, 1908.195
1082.688, 1909.559
1083.170, 1911.287
1083.652, 1912.457
1084.135, 1913.306
1084.617, 1914.940
1085.099, 1917.794
1085.581, 1919.807
1086.063, 1919.634
1086.545, 1918.308
1087.027, 1915.975
1087.509, 1912.934
1087.992, 1912.319
1088.474, 1914.160
1088.956, 1916.018
1089.438, 1916.787
1089.920, 1917.378
1090.402, 1918.140
1090.884, 1919.531
1091.366, 1922.532
1091.849, 1929.179
1092.331, 1931.732
1092.813, 1929.090
1093.295, 1926.088
1093.777, 1926.521
1094.259, 1928.873
1094.741, 1930.130
1095.223, 1930.736
1095.705, 1932.408
1096.188, 1937.767
1096.670, 1941.290
1097.152, 1941.378
1097.634, 1940.243
1098.116, 1940.943
1098.598, 1942.979
1099.080, 1943.510
1099.562, 1942.322
1100.044, 1942.530
1100.527, 1949.271
1101.009, 1954.660
1101.491, 1953.044
1101.973, 1947.034
1102.455, 1944.949
1102.937, 1946.847
1103.419, 1948.067
1103.901, 1947.259
1104.384, 1946.371
1104.866, 1947.107
1105.348, 1948.837
1105.830, 1951.337
1106.312, 1954.792
1106.794, 1956.191
1107.276, 1954.817
1107.758, 1954.314
1108.240, 1957.207
1108.723, 1960.817
1109.205, 1959.883
1109.687, 1956.732
1110.169, 1955.952
1110.651, 1960.843
1111.133, 1964.482
1111.615, 1966.639
1112.097, 1967.058
1112.579, 1964.566
1113.062, 1960.259
1113.544, 1958.052
1114.026, 1957.675
1114.508, 1957.766
1114.990, 1958.995
1115.472, 1958.872
1115.954, 1955.770
1116.436, 1951.707
1116.919, 1949.224
1117.401, 1948.234
1117.883, 1947.517
1118.365, 1946.986
1118.847, 1946.834
1119.329, 1948.203
1119.811, 1949.086
1120.293, 1947.773
1120.776, 1944.846
1121.258, 1942.403
1121.740, 1940.549
1122.222, 1937.703
1122.704, 1933.158
1123.186, 1929.021
1123.668, 1927.531
1124.150, 1927.406
1124.632, 1927.543
1125.115, 1927.838
1125.597, 1927.235
1126.079, 1925.253
1126.561, 1924.096
1127.043, 1925.207
1127.525, 1926.662
1128.007, 1925.068
1128.489, 1921.667
1128.971, 1918.376
1129.454, 1915.099
1129.936, 1913.962
1130.418, 1916.441
1130.900, 1918.505
1131.382, 1917.038
1131.864, 1913.593
1132.346, 1913.185
1132.828, 1914.947
1133.311, 1916.038
1133.793, 1914.071
1134.275, 1912.790
1134.757, 1913.628
1135.239, 1914.701
1135.721, 1913.689
1136.203, 1911.012
1136.685, 1910.855
1137.167, 1913.101
1137.650, 1915.450
1138.132, 1915.865
1138.614, 1916.732
1139.096, 1920.833
1139.578, 1925.406
1140.060, 1925.138
1140.542, 1919.898
1141.024, 1918.141
1141.506, 1920.975
1141.989, 1923.562
1142.471, 1921.139
1142.953, 1917.843
1143.435, 1916.787
1143.917, 1917.746
1144.399, 1918.754
1144.881, 1919.848
1145.363, 1920.612
1145.846, 1920.801
1146.328, 1921.150
1146.810, 1923.078
1147.292, 1925.142
1147.774, 1925.505
1148.256, 1923.752
1148.738, 1923.325
1149.220, 1924.853
1149.703, 1925.370
1150.185, 1923.279
1150.667, 1920.771
1151.149, 1921.573
1151.631, 1923.997
1152.113, 1925.380
1152.595, 1924.951
1153.077, 1924.207
1153.559, 1923.399
1154.042, 1922.029
1154.524, 1919.348
1155.006, 1916.371
1155.488, 1915.717
1155.970, 1916.565
1156.452, 1916.910
1156.934, 1915.347
1157.416, 1914.731
1157.898, 1915.822
1158.381, 1917.203
1158.863, 1917.632
1159.345, 1917.483
1159.827, 1918.541
1160.309, 1920.436
1160.791, 1921.661
1161.273, 1921.186
1161.755, 1920.304
1162.238, 1918.984
1162.720, 1917.748
1163.202, 1917.054
1163.684, 1916.908
1164.166, 1917.994
1164.648, 1920.074
1165.130, 1920.779
1165.612, 1917.650
1166.094, 1914.075
1166.577, 1910.962
1167.059, 1908.684
1167.541, 1908.278
1168.023, 1909.587
1168.505, 1910.370
1168.987, 1910.415
1169.469, 1910.319
1169.951, 1911.032
1170.433, 1911.215
1170.916, 1909.235
1171.398, 1906.317
1171.880, 1905.775
1172.362, 1907.559
1172.844, 1908.763
1173.326, 1908.817
1173.808, 1908.307
1174.290, 1906.845
1174.773, 1905.706
1175.255, 1906.208
1175.737, 1907.992
1176.219, 1909.531
1176.701, 1910.882
1177.183, 1910.868
1177.665, 1908.799
1178.147, 1906.666
1178.630, 1907.005
1179.112, 1907.790
1179.594, 1906.484
1180.076, 1903.019
1180.558, 1902.355
1181.040, 1904.820
1181.522, 1906.999
1182.004, 1907.598
1182.486, 1907.360
1182.969, 1906.730
1183.451, 1905.912
1183.933, 1904.987
1184.415, 1903.769
1184.897, 1903.819
1185.379, 1905.328
1185.861, 1906.731
1186.343, 1907.109
1186.825, 1907.106
1187.308, 1907.888
1187.790, 1907.014
1188.272, 1908.002
1188.754, 1905.042
1189.236, 1902.685
1189.718, 1900.858
1190.200, 1900.198
1190.682, 1902.112
1191.165, 1904.646
1191.647, 1905.193
1192.129, 1904.475
1192.611, 1903.982
1193.093, 1904.795
1193.575, 1903.751
1194.057, 1900.287
1194.539, 1897.110
1195.021, 1896.358
1195.504, 1897.100
1195.986, 1898.594
1196.468, 1900.481
1196.950, 1901.792
1197.432, 1902.255
1197.914, 1902.370
1198.396, 1902.176
1198.878, 1901.529
1199.360, 1899.061
1199.843, 1896.843
1200.325, 1899.200
1200.807, 1904.796
1201.289, 1907.547
1201.771, 1905.150
1202.253, 1902.639
1202.735, 1900.151
1203.217, 1899.149
1203.700, 1902.286
1204.182, 1907.331
1204.664, 1911.645
1205.146, 1914.892
1205.628, 1916.434
1206.110, 1915.469
1206.592, 1914.325
1207.074, 1913.152
1207.557, 1912.332
1208.039, 1912.377
1208.521, 1913.021
1209.003, 1914.185
1209.485, 1915.757
1209.967, 1916.550
1210.449, 1916.586
1210.931, 1915.299
1211.413, 1911.971
1211.896, 1908.919
1212.378, 1909.460
1212.860, 1912.153
1213.342, 1915.702
1213.824, 1919.961
1214.306, 1921.357
1214.788, 1919.023
1215.270, 1915.526
1215.752, 1910.848
1216.235, 1907.133
1216.717, 1909.166
1217.199, 1913.286
1217.681, 1913.791
1218.163, 1909.601
1218.645, 1906.463
1219.127, 1904.815
1219.609, 1904.196
1220.092, 1904.579
1220.574, 1905.631
1221.056, 1907.136
1221.538, 1908.832
1222.020, 1910.375
1222.502, 1911.668
1222.984, 1912.605
1223.466, 1912.836
1223.948, 1913.903
1224.431, 1916.891
1224.913, 1919.848
1225.395, 1919.224
1225.877, 1917.100
1226.359, 1916.476
1226.841, 1918.289
1227.323, 1919.518
1227.805, 1920.332
1228.287, 1919.581
1228.770, 1915.988
1229.252, 1912.068
1229.734, 1910.723
1230.216, 1911.514
1230.698, 1914.403
1231.180, 1920.194
1231.662, 1923.577
1232.144, 1924.344
1232.627, 1924.063
1233.109, 1923.238
1233.591, 1922.112
1234.073, 1921.084
1234.555, 1919.905
1235.037, 1917.939
1235.519, 1914.768
1236.001, 1913.662
1236.484, 1914.860
1236.966, 1916.269
1237.448, 1916.627
1237.930, 1917.072
1238.412, 1918.855
1238.894, 1921.373
1239.376, 1923.902
1239.858, 1926.460
1240.340, 1928.177
1240.823, 1928.949
1241.305, 1929.719
1241.787, 1930.808
1242.269, 1932.231
1242.751, 1934.329
1243.233, 1936.519
1243.715, 1938.097
1244.197, 1939.040
1244.679, 1939.418
1245.162, 1939.245
1245.644, 1938.778
1246.126, 1937.755
1246.608, 1937.082
1247.090, 1937.540
1247.572, 1938.681
1248.054, 1940.140
1248.536, 1942.032
1249.019, 1942.380
1249.501, 1941.371
1249.983, 1940.707
1250.465, 1941.173
1250.947, 1942.442
1251.429, 1945.257
1251.911, 1948.050
1252.393, 1949.065
1252.875, 1948.411
1253.358, 1949.166
1253.840, 1951.034
1254.322, 1952.305
1254.804, 1951.828
1255.286, 1950.798
1255.768, 1948.439
1256.250, 1946.888
1256.732, 1948.484
1257.214, 1952.654
1257.697, 1956.065
1258.179, 1958.801
1258.661, 1961.170
1259.143, 1964.505
1259.625, 1965.664
1260.107, 1962.942
1260.589, 1960.024
1261.071, 1960.227
1261.554, 1962.686
1262.036, 1964.361
1262.518, 1965.776
1263.000, 1968.853
1263.482, 1979.154
1263.964, 1982.836
1264.446, 1976.659
1264.928, 1968.823
1265.411, 1965.034
1265.893, 1964.936
1266.375, 1970.526
1266.857, 1979.080
1267.339, 1983.227
1267.821, 1976.520
1268.303, 1974.062
1268.785, 1977.145
1269.267, 1980.978
1269.750, 1981.719
1270.232, 1981.064
1270.714, 1980.873
1271.196, 1981.084
1271.678, 1981.508
1272.160, 1982.162
1272.642, 1982.628
1273.124, 1982.781
1273.606, 1983.465
1274.089, 1986.231
1274.571, 1988.829
1275.053, 1987.928
1275.535, 1985.972
1276.017, 1987.833
1276.499, 1994.747
1276.981, 1996.636
1277.463, 1993.391
1277.946, 1990.786
1278.428, 1994.348
1278.910, 1997.842
1279.392, 1996.687
1279.874, 1993.831
1280.356, 1992.514
1280.838, 1992.758
1281.320, 1994.794
1281.802, 1998.243
1282.285, 1999.964
1282.767, 1995.270
1283.249, 1992.459
1283.731, 1996.146
1284.213, 2001.090
1284.695, 2002.462
1285.177, 2001.124
1285.659, 2000.571
1286.141, 2001.057
1286.624, 2003.485
1287.106, 2012.132
1287.588, 2016.506
1288.070, 2013.954
1288.552, 2010.068
1289.034, 2009.567
1289.516, 2011.029
1289.998, 2010.993
1290.481, 2010.254
1290.963, 2010.917
1291.445, 2016.030
1291.927, 2017.715
1292.409, 2015.042
1292.891, 2012.520
1293.373, 2013.020
1293.855, 2015.823
1294.338, 2021.726
1294.820, 2028.740
1295.302, 2033.038
1295.784, 2034.721
1296.266, 2031.559
1296.748, 2023.078
1297.230, 2018.287
1297.712, 2026.083
1298.194, 2035.697
1298.677, 2039.601
1299.159, 2039.557
1299.641, 2037.482
1300.123, 2033.250
1300.605, 2031.007
1301.087, 2030.614
1301.569, 2031.003
1302.051, 2032.413
1302.533, 2032.763
1303.016, 2031.238
##END=



