##NAMES=Ruizite
##RRUFFID=R130787
##IDEAL CHEMISTRY=Ca_2_Mn^3+^_2_Si_4_O_11_(OH)_4_&#183;2H_2_O
##LOCALITY=Wessels mine, Hotazel, Kalahari Manganese Field, Northern Cape Province, South Africa
##OWNER=RRUFF
##SOURCE=Marcus Origlieri
##DESCRIPTION=Brown prismatic crystals in radiating groups, with a globular gyrolite-like mineral, on and in hydroxyapophyllite-(K) with minor inesite.
##STATUS=The identification of this mineral is confirmed by single-crystal X-ray diffraction and chemical analysis.
##URL=rruff.info/R130787
##MEASURED CHEMISTRY=(Ca_1.90_Sr_0.06_Mg_0.04_)_2.00_(Mn^3+^_1.88_Fe^3+^_0.07_Al_0.05_)_2.00_Si_4.01_O_11_(OH)_4_Â·2H_2_O
91.55994, 308.9368
92.04205, 317.1776
92.52417, 328.6705
93.00629, 340.4883
93.48840, 349.8488
93.97052, 354.5311
94.45264, 353.8324
94.93475, 352.9232
95.41687, 350.4710
95.89898, 346.4930
96.38110, 341.7444
96.86321, 336.8052
97.34533, 331.6881
97.82745, 325.8020
98.30956, 320.2016
98.79168, 314.4702
99.27380, 309.4537
99.75591, 305.2770
100.2380, 301.8332
100.7201, 299.0534
101.2023, 296.9921
101.6844, 295.5605
102.1665, 294.1530
102.6486, 292.5677
103.1307, 291.0801
103.6128, 289.9463
104.0950, 289.1595
104.5771, 288.6139
105.0592, 288.3975
105.5413, 288.2708
106.0234, 287.8600
106.5055, 286.7934
106.9877, 285.2647
107.4698, 284.0837
107.9519, 283.2685
108.4340, 282.8067
108.9161, 282.5415
109.3982, 282.5486
109.8804, 283.0222
110.3625, 284.2031
110.8446, 286.2053
111.3267, 288.2889
111.8088, 290.5162
112.2909, 292.7659
112.7731, 295.1297
113.2552, 297.5356
113.7373, 299.7521
114.2194, 301.4688
114.7015, 302.9864
115.1836, 303.2078
115.6658, 301.8611
116.1479, 299.4350
116.6300, 296.3446
117.1121, 292.7217
117.5942, 288.5673
118.0763, 283.7008
118.5584, 277.5338
119.0406, 271.9714
119.5227, 267.5650
120.0048, 264.1887
120.4869, 261.5307
120.9690, 259.6595
121.4511, 258.3599
121.9333, 257.0016
122.4154, 255.4352
122.8975, 254.0569
123.3796, 253.4087
123.8617, 253.5981
124.3438, 253.5752
124.8260, 252.0594
125.3081, 250.3476
125.7902, 249.7460
126.2723, 250.9441
126.7544, 253.2115
127.2365, 254.8855
127.7187, 255.5854
128.2008, 256.3060
128.6829, 257.2663
129.1650, 258.4475
129.6471, 259.8737
130.1292, 261.6371
130.6114, 263.6819
131.0935, 265.1635
131.5756, 265.5102
132.0577, 265.8195
132.5398, 266.2387
133.0219, 266.8289
133.5041, 267.6407
133.9862, 268.7418
134.4683, 270.1966
134.9504, 271.5683
135.4325, 272.9706
135.9146, 274.2262
136.3968, 275.1913
136.8789, 275.8681
137.3610, 276.4162
137.8431, 277.0653
138.3252, 277.9092
138.8073, 278.1883
139.2895, 277.4533
139.7716, 276.2904
140.2537, 275.4730
140.7358, 275.2641
141.2179, 275.0420
141.7000, 273.7893
142.1821, 271.6038
142.6643, 269.6295
143.1464, 268.5885
143.6285, 268.1968
144.1106, 267.3853
144.5927, 265.7093
145.0748, 263.7664
145.5570, 262.0660
146.0391, 260.6211
146.5212, 259.3207
147.0033, 258.0341
147.4854, 256.7353
147.9675, 255.6904
148.4497, 255.2456
148.9318, 254.8842
149.4139, 254.2745
149.8960, 253.3625
150.3781, 252.4050
150.8602, 251.8135
151.3424, 251.7696
151.8245, 251.7050
152.3066, 251.2403
152.7887, 250.9049
153.2708, 251.1938
153.7529, 252.2779
154.2351, 253.8615
154.7172, 255.2087
155.1993, 256.0547
155.6814, 256.9520
156.1635, 257.7016
156.6456, 258.5798
157.1278, 259.9807
157.6099, 262.1260
158.0920, 264.8118
158.5741, 267.1728
159.0562, 268.9482
159.5383, 270.7442
160.0205, 272.6180
160.5026, 274.6065
160.9847, 276.7520
161.4668, 278.9988
161.9489, 281.4898
162.4310, 284.6253
162.9131, 288.7602
163.3953, 293.1175
163.8774, 296.9916
164.3595, 300.4879
164.8416, 304.6344
165.3237, 310.4691
165.8058, 317.3541
166.2880, 323.7249
166.7701, 329.0756
167.2522, 334.1566
167.7343, 339.7492
168.2164, 345.8806
168.6985, 352.3534
169.1807, 359.0095
169.6628, 365.9055
170.1449, 373.2212
170.6270, 380.9988
171.1091, 389.2175
171.5912, 397.8952
172.0734, 407.2860
172.5555, 416.6874
173.0376, 425.9037
173.5197, 435.0021
174.0018, 444.1415
174.4839, 453.4055
174.9661, 462.7579
175.4482, 471.9177
175.9303, 481.7732
176.4124, 490.2938
176.8945, 496.6464
177.3766, 501.3398
177.8588, 505.2248
178.3409, 508.9621
178.8230, 512.5634
179.3051, 515.1283
179.7872, 517.4034
180.2693, 517.9493
180.7515, 515.7306
181.2336, 511.2670
181.7157, 505.8930
182.1978, 500.7567
182.6799, 495.9853
183.1620, 490.0191
183.6441, 482.2764
184.1263, 474.1555
184.6084, 466.1964
185.0905, 458.4874
185.5726, 450.9956
186.0547, 443.7665
186.5368, 436.8485
187.0190, 429.8268
187.5011, 422.3369
187.9832, 415.0584
188.4653, 408.3727
188.9474, 402.3669
189.4296, 397.1349
189.9117, 393.0884
190.3938, 390.2064
190.8759, 386.8942
191.3580, 382.4378
191.8401, 377.7408
192.3223, 373.8691
192.8044, 371.0245
193.2865, 368.5425
193.7686, 365.8129
194.2507, 362.9215
194.7328, 360.1711
195.2150, 357.7719
195.6971, 355.5469
196.1792, 353.0728
196.6613, 350.1526
197.1434, 347.3500
197.6255, 345.1840
198.1077, 343.4507
198.5898, 341.6968
199.0719, 339.6056
199.5540, 337.2698
200.0361, 335.1338
200.5182, 333.3504
201.0004, 331.5623
201.4825, 329.4406
201.9646, 327.1505
202.4467, 325.1242
202.9288, 323.6972
203.4109, 322.8402
203.8930, 322.1122
204.3752, 321.6189
204.8573, 321.1648
205.3394, 320.6705
205.8215, 320.1566
206.3036, 319.6689
206.7857, 319.2129
207.2679, 318.7772
207.7500, 318.6079
208.2321, 318.7740
208.7142, 319.1652
209.1963, 319.7810
209.6784, 320.6042
210.1606, 321.6013
210.6427, 322.7386
211.1248, 323.9959
211.6069, 325.5171
212.0890, 327.5404
212.5711, 329.5728
213.0533, 331.4225
213.5354, 333.1011
214.0175, 334.7371
214.4996, 336.4328
214.9817, 338.1836
215.4638, 340.0708
215.9460, 342.4168
216.4281, 344.5949
216.9102, 346.2055
217.3923, 347.3105
217.8744, 348.3582
218.3565, 349.8169
218.8387, 351.7885
219.3208, 352.9563
219.8029, 352.7900
220.2850, 352.3622
220.7671, 352.5078
221.2492, 353.1632
221.7314, 353.4826
222.2135, 352.7228
222.6956, 350.7611
223.1777, 348.5848
223.6598, 345.9618
224.1419, 343.2935
224.6240, 340.8707
225.1062, 338.7058
225.5883, 336.6993
226.0704, 334.7810
226.5525, 332.9720
227.0346, 331.2858
227.5167, 329.5592
227.9989, 328.0635
228.4810, 327.2103
228.9631, 327.0381
229.4452, 326.9004
229.9273, 326.3393
230.4094, 325.4474
230.8916, 324.4835
231.3737, 323.5862
231.8558, 322.5816
232.3379, 321.2530
232.8200, 319.5773
233.3021, 317.7420
233.7843, 315.9408
234.2664, 314.0247
234.7485, 311.7044
235.2306, 308.7491
235.7127, 305.4908
236.1948, 302.4609
236.6770, 299.7824
237.1591, 296.7374
237.6412, 292.3987
238.1233, 287.6413
238.6054, 283.4259
239.0875, 280.1652
239.5697, 277.3991
240.0518, 274.3417
240.5339, 270.7650
241.0160, 267.6020
241.4981, 265.0299
241.9802, 263.0938
242.4624, 261.9211
242.9445, 261.5704
243.4266, 261.9706
243.9087, 263.0804
244.3908, 265.0597
244.8729, 267.3353
245.3550, 269.4265
245.8372, 271.8607
246.3193, 275.1601
246.8014, 279.5221
247.2835, 284.6138
247.7656, 289.9388
248.2477, 295.4011
248.7299, 301.3453
249.2120, 307.9567
249.6941, 314.9022
250.1762, 322.0106
250.6583, 329.2307
251.1404, 336.4230
251.6226, 343.4995
252.1047, 350.6640
252.5868, 357.1086
253.0689, 362.9095
253.5510, 368.0218
254.0331, 372.4410
254.5153, 376.1519
254.9974, 379.1646
255.4795, 381.5961
255.9616, 383.8415
256.4437, 384.4554
256.9258, 383.3651
257.4080, 381.0577
257.8901, 377.7199
258.3722, 373.4478
258.8543, 368.3515
259.3364, 362.5391
259.8185, 355.8421
260.3007, 348.7658
260.7828, 340.6997
261.2649, 332.7335
261.7470, 325.7605
262.2291, 319.7245
262.7112, 313.8273
263.1934, 307.0279
263.6755, 298.8297
264.1576, 291.5722
264.6397, 285.5381
265.1218, 280.0201
265.6039, 274.6365
266.0861, 269.4030
266.5682, 264.5772
267.0503, 260.4359
267.5324, 257.0739
268.0145, 253.9527
268.4966, 250.9722
268.9788, 248.2617
269.4609, 245.9630
269.9430, 244.0239
270.4251, 242.2341
270.9072, 240.3838
271.3893, 238.4647
271.8715, 237.1645
272.3536, 236.3961
272.8357, 236.1747
273.3178, 236.5607
273.7999, 237.5066
274.2820, 238.9405
274.7642, 240.8641
275.2463, 243.2373
275.7284, 245.5341
276.2105, 247.5770
276.6926, 249.7554
277.1747, 252.0147
277.6568, 254.5137
278.1389, 257.6620
278.6211, 261.7794
279.1032, 266.5714
279.5853, 270.7974
280.0674, 273.9171
280.5495, 277.2401
281.0316, 281.2281
281.5138, 285.6251
281.9959, 290.0110
282.4780, 294.2151
282.9601, 298.2719
283.4422, 302.1792
283.9243, 306.0877
284.4065, 309.6495
284.8886, 312.8385
285.3707, 315.6280
285.8528, 317.9326
286.3349, 319.7084
286.8170, 321.1141
287.2992, 322.4700
287.7813, 323.9678
288.2634, 324.7950
288.7455, 324.6886
289.2276, 323.8867
289.7097, 322.6349
290.1919, 320.9846
290.6740, 318.9693
291.1561, 316.5866
291.6382, 313.8382
292.1203, 310.6787
292.6024, 306.9832
293.0846, 302.9383
293.5667, 298.5676
294.0488, 293.8719
294.5309, 289.3193
295.0130, 285.4100
295.4951, 282.1575
295.9773, 278.7021
296.4594, 274.6877
296.9415, 270.6953
297.4236, 267.2672
297.9057, 264.3895
298.3878, 261.4968
298.8700, 258.1166
299.3521, 254.3830
299.8342, 251.1126
300.3163, 248.7350
300.7984, 246.4440
301.2805, 243.5727
301.7627, 240.2957
302.2448, 237.4207
302.7269, 235.4816
303.2090, 234.1472
303.6911, 232.3651
304.1732, 229.8864
304.6554, 227.4066
305.1375, 225.2200
305.6196, 223.2673
306.1017, 221.4082
306.5838, 219.6124
307.0659, 217.8528
307.5481, 216.1034
308.0302, 214.3827
308.5123, 212.6119
308.9944, 210.6054
309.4765, 208.5673
309.9586, 206.9041
310.4408, 205.7567
310.9229, 204.8592
311.4050, 203.8844
311.8871, 202.8191
312.3692, 201.8601
312.8513, 201.1376
313.3335, 200.4988
313.8156, 199.7285
314.2977, 198.7918
314.7798, 197.8678
315.2619, 197.1411
315.7440, 196.5963
316.2262, 195.9925
316.7083, 195.1108
317.1904, 194.3038
317.6725, 193.9334
318.1546, 193.9806
318.6367, 194.0545
319.1188, 193.8320
319.6010, 193.4411
320.0831, 193.4404
320.5652, 194.1077
321.0473, 194.8748
321.5294, 195.4333
322.0115, 195.8318
322.4937, 196.2683
322.9758, 196.8634
323.4579, 197.5121
323.9400, 197.8685
324.4221, 197.6158
324.9042, 197.7805
325.3864, 199.1263
325.8685, 201.0810
326.3506, 202.5008
326.8327, 202.9555
327.3148, 203.0538
327.7969, 203.7606
328.2791, 205.1429
328.7612, 206.5589
329.2433, 207.8648
329.7254, 209.1541
330.2075, 210.5676
330.6896, 212.1298
331.1718, 213.6734
331.6539, 214.9714
332.1360, 216.0004
332.6181, 217.3898
333.1002, 219.2754
333.5823, 221.4286
334.0645, 223.7195
334.5466, 226.1263
335.0287, 228.6761
335.5108, 231.3517
335.9929, 234.1927
336.4750, 237.3082
336.9572, 241.0508
337.4393, 244.6974
337.9214, 247.7935
338.4035, 250.5652
338.8856, 253.5286
339.3677, 256.9310
339.8499, 260.6400
340.3320, 264.2885
340.8141, 267.7030
341.2962, 271.3541
341.7783, 275.4398
342.2604, 279.7765
342.7426, 284.1414
343.2247, 288.4547
343.7068, 292.7173
344.1889, 296.9201
344.6710, 301.0566
345.1531, 305.1285
345.6353, 308.7634
346.1174, 312.5616
346.5995, 317.2204
347.0816, 322.6404
347.5637, 328.0443
348.0458, 332.7224
348.5280, 336.6628
349.0101, 340.0238
349.4922, 342.5361
349.9743, 344.8512
350.4564, 347.2538
350.9385, 349.6586
351.4207, 351.8658
351.9028, 353.7583
352.3849, 355.3362
352.8670, 356.5952
353.3491, 357.3803
353.8312, 358.0402
354.3134, 358.5010
354.7955, 358.9019
355.2776, 359.4781
355.7597, 360.2989
356.2418, 361.1136
356.7239, 361.5137
357.2061, 361.4450
357.6882, 360.9868
358.1703, 359.7965
358.6524, 358.5076
359.1345, 357.4466
359.6166, 356.6978
360.0987, 356.3057
360.5808, 356.3469
361.0630, 356.8712
361.5451, 357.3403
362.0272, 357.7560
362.5093, 358.1168
362.9914, 358.4077
363.4735, 358.6446
363.9557, 358.8314
364.4378, 358.9616
364.9199, 359.0743
365.4020, 359.3626
365.8841, 360.3244
366.3662, 360.7450
366.8484, 360.5739
367.3305, 359.7908
367.8126, 358.0923
368.2947, 355.4706
368.7768, 352.6981
369.2589, 351.1036
369.7411, 351.3392
370.2232, 350.9836
370.7053, 349.3121
371.1874, 347.6058
371.6695, 346.5892
372.1516, 346.2181
372.6338, 345.9325
373.1159, 345.1998
373.5980, 344.0422
374.0801, 343.1944
374.5622, 342.8150
375.0443, 342.5781
375.5265, 342.4122
376.0086, 342.2969
376.4907, 342.2451
376.9728, 342.3020
377.4549, 342.3316
377.9370, 341.9804
378.4192, 341.0899
378.9013, 340.2684
379.3834, 340.0002
379.8655, 339.6754
380.3476, 338.7474
380.8297, 337.1137
381.3119, 335.2284
381.7940, 333.6791
382.2761, 332.4471
382.7582, 330.6044
383.2403, 327.6324
383.7224, 324.4760
384.2046, 321.6555
384.6867, 319.1803
385.1688, 316.9801
385.6509, 315.5723
386.1330, 314.3423
386.6151, 311.6564
387.0973, 307.1386
387.5794, 302.5358
388.0615, 298.6192
388.5436, 295.2914
389.0257, 292.5216
389.5078, 290.4436
389.9900, 288.6668
390.4721, 286.8082
390.9542, 284.9055
391.4363, 283.3702
391.9184, 282.5097
392.4005, 281.8629
392.8827, 280.7333
393.3648, 279.0844
393.8469, 277.5389
394.3290, 276.2669
394.8111, 275.2767
395.2932, 274.6457
395.7754, 274.3991
396.2575, 274.3115
396.7396, 274.1282
397.2217, 273.9056
397.7038, 274.0895
398.1859, 274.7345
398.6681, 275.7643
399.1501, 277.2706
399.6323, 279.1519
400.1144, 281.1021
400.5965, 283.0057
401.0786, 284.8152
401.5607, 286.3016
402.0428, 286.9272
402.5250, 288.2045
403.0071, 290.6959
403.4892, 293.8374
403.9713, 296.9986
404.4534, 300.0189
404.9355, 303.1323
405.4177, 306.6898
405.8998, 310.8883
406.3819, 314.3625
406.8640, 316.6181
407.3461, 318.7076
407.8282, 321.1262
408.3104, 323.8191
408.7925, 326.5690
409.2746, 329.2909
409.7567, 331.9193
410.2388, 334.2039
410.7209, 336.0909
411.2031, 337.6490
411.6852, 338.8506
412.1673, 339.7552
412.6494, 340.4606
413.1315, 340.9762
413.6136, 341.1715
414.0958, 340.8347
414.5779, 339.8582
415.0600, 338.7689
415.5421, 337.9486
416.0242, 336.6522
416.5063, 334.2374
416.9885, 331.0783
417.4706, 328.1279
417.9527, 326.0489
418.4348, 324.5490
418.9169, 322.5377
419.3990, 319.7421
419.8812, 317.0632
420.3633, 314.6823
420.8454, 312.5974
421.3275, 310.8738
421.8096, 309.5328
422.2917, 308.4113
422.7739, 307.3530
423.2560, 306.3626
423.7381, 305.4566
424.2202, 304.3524
424.7023, 303.7652
425.1844, 304.3148
425.6666, 305.7926
426.1487, 307.4754
426.6308, 309.1677
427.1129, 310.8454
427.5950, 312.4798
428.0771, 314.0842
428.5593, 315.5528
429.0414, 316.6205
429.5235, 317.6313
430.0056, 319.3314
430.4877, 322.0662
430.9698, 324.7173
431.4520, 326.7373
431.9341, 328.2757
432.4162, 329.6584
432.8983, 330.9708
433.3804, 332.0521
433.8625, 332.6670
434.3447, 332.7454
434.8268, 332.8060
435.3089, 333.0333
435.7910, 333.1036
436.2731, 332.8811
436.7552, 332.3261
437.2374, 331.3099
437.7195, 329.7069
438.2016, 327.6907
438.6837, 325.9516
439.1658, 324.9131
439.6479, 323.6043
440.1301, 321.7300
440.6122, 319.6945
441.0943, 317.8143
441.5764, 316.1955
442.0585, 314.8763
442.5406, 314.0081
443.0227, 313.7379
443.5049, 312.8339
443.9870, 311.0298
444.4691, 308.8573
444.9512, 306.2661
445.4333, 303.4643
445.9154, 300.6947
446.3976, 298.0945
446.8797, 295.6463
447.3618, 293.3294
447.8439, 291.1800
448.3260, 289.0580
448.8081, 286.9481
449.2903, 284.8353
449.7724, 282.6612
450.2545, 280.4443
450.7366, 278.3197
451.2187, 276.5272
451.7008, 274.9385
452.1830, 272.9079
452.6651, 270.0879
453.1472, 267.6906
453.6293, 266.8022
454.1114, 266.7043
454.5935, 266.4460
455.0757, 265.8255
455.5578, 265.0145
456.0399, 264.0695
456.5220, 263.0321
457.0041, 261.9906
457.4862, 260.8415
457.9684, 259.9715
458.4505, 259.9618
458.9326, 260.7682
459.4147, 261.9369
459.8968, 263.6374
460.3789, 265.4898
460.8611, 267.1608
461.3432, 268.6624
461.8253, 270.1108
462.3074, 271.4948
462.7895, 272.9779
463.2716, 275.3090
463.7538, 279.2913
464.2359, 283.0088
464.7180, 285.8703
465.2001, 288.6015
465.6822, 291.9330
466.1643, 296.0154
466.6465, 300.5258
467.1286, 305.1720
467.6107, 310.0463
468.0928, 314.4913
468.5749, 317.9003
469.0570, 321.5252
469.5392, 325.6733
470.0213, 330.2498
470.5034, 335.2051
470.9855, 340.5499
471.4676, 345.8176
471.9497, 350.1776
472.4319, 353.5230
472.9140, 356.4135
473.3961, 358.8534
473.8782, 360.8644
474.3603, 362.4196
474.8424, 363.5376
475.3246, 364.3290
475.8067, 364.9337
476.2888, 365.2220
476.7709, 364.8826
477.2530, 363.8815
477.7351, 362.4889
478.2173, 360.8498
478.6994, 358.8376
479.1815, 356.2999
479.6636, 353.1699
480.1457, 349.7544
480.6278, 346.2984
481.1100, 342.6345
481.5920, 338.3574
482.0742, 333.3777
482.5563, 328.1783
483.0384, 323.1581
483.5205, 318.3184
484.0026, 313.2813
484.4847, 307.9727
484.9669, 302.5735
485.4490, 296.9478
485.9311, 291.2971
486.4132, 285.9905
486.8953, 281.1466
487.3774, 276.6100
487.8596, 272.2012
488.3417, 268.0433
488.8238, 263.5720
489.3059, 258.3646
489.7880, 253.3113
490.2701, 248.8596
490.7523, 244.9299
491.2344, 241.2880
491.7165, 237.8275
492.1986, 234.5092
492.6807, 231.1871
493.1628, 227.7574
493.6450, 224.6366
494.1271, 222.1946
494.6092, 219.9128
495.0913, 217.3400
495.5734, 214.5147
496.0555, 211.9715
496.5377, 210.2651
497.0198, 209.1240
497.5019, 207.8382
497.9840, 206.3801
498.4661, 204.8257
498.9482, 203.1236
499.4304, 201.3678
499.9125, 199.7045
500.3946, 198.0385
500.8767, 196.7034
501.3588, 196.0275
501.8409, 195.7425
502.3231, 195.4623
502.8052, 195.1144
503.2873, 194.4545
503.7694, 193.1215
504.2515, 191.0739
504.7336, 189.7469
505.2158, 189.7410
505.6979, 189.6986
506.1800, 189.1599
506.6621, 188.2669
507.1442, 187.2089
507.6263, 186.0660
508.1085, 184.9360
508.5906, 183.9900
509.0727, 183.2908
509.5548, 182.5429
510.0369, 181.5261
510.5190, 180.6823
511.0012, 180.2808
511.4833, 180.1614
511.9654, 180.0465
512.4475, 179.8298
512.9296, 179.4442
513.4117, 178.7069
513.8939, 177.5625
514.3760, 176.4864
514.8581, 175.7193
515.3402, 174.8995
515.8223, 173.6742
516.3044, 172.1034
516.7866, 170.5990
517.2687, 169.4400
517.7508, 168.3740
518.2329, 167.0017
518.7150, 165.3499
519.1971, 163.8597
519.6793, 162.8008
520.1614, 161.9526
520.6435, 160.8327
521.1256, 159.3945
521.6077, 157.8811
522.0898, 156.2604
522.5720, 154.6360
523.0541, 153.0880
523.5362, 151.6359
524.0183, 150.2993
524.5004, 149.1266
524.9825, 148.0545
525.4647, 146.6987
525.9468, 144.6229
526.4289, 142.9124
526.9110, 141.7197
527.3931, 140.8576
527.8752, 140.2484
528.3574, 139.8391
528.8395, 139.5196
529.3216, 139.2234
529.8037, 138.9387
530.2858, 138.5804
530.7679, 138.1240
531.2501, 137.6527
531.7322, 137.0979
532.2143, 136.5976
532.6964, 136.2990
533.1785, 136.2318
533.6606, 136.3195
534.1428, 136.6037
534.6249, 136.9889
535.1070, 137.2567
535.5891, 137.3714
536.0712, 137.4725
536.5533, 137.6584
537.0355, 137.9215
537.5176, 138.1950
537.9997, 138.0771
538.4818, 138.4547
538.9639, 140.0392
539.4460, 142.0478
539.9282, 143.4180
540.4103, 143.9767
540.8924, 144.4297
541.3745, 145.5438
541.8566, 147.3463
542.3387, 148.8642
542.8209, 149.6868
543.3029, 150.7008
543.7850, 152.1257
544.2672, 153.8086
544.7493, 155.5630
545.2314, 157.3398
545.7135, 159.2234
546.1956, 161.3033
546.6777, 163.5753
547.1599, 165.8721
547.6420, 168.1072
548.1241, 170.5217
548.6062, 173.3041
549.0883, 176.3561
549.5704, 179.5748
550.0526, 182.9006
550.5347, 186.4561
551.0168, 190.4465
551.4989, 194.7126
551.9810, 198.8555
552.4631, 202.7831
552.9453, 206.9214
553.4274, 211.6476
553.9095, 216.9838
554.3916, 222.6931
554.8737, 228.8904
555.3558, 235.2569
555.8380, 241.5548
556.3201, 248.0814
556.8022, 255.0449
557.2843, 262.5667
557.7664, 270.7030
558.2485, 279.6021
558.7307, 289.2198
559.2128, 299.4153
559.6949, 310.3639
560.1770, 321.5609
560.6591, 332.8199
561.1412, 344.2163
561.6234, 355.9315
562.1055, 367.9816
562.5876, 380.3135
563.0697, 392.7197
563.5518, 405.3605
564.0339, 418.9082
564.5161, 433.6491
564.9982, 448.5324
565.4803, 462.8556
565.9624, 476.7041
566.4445, 490.6100
566.9266, 505.0045
567.4088, 518.8363
567.8909, 532.0300
568.3730, 544.3162
568.8551, 555.6360
569.3372, 565.8278
569.8193, 574.5909
570.3015, 581.5573
570.7836, 586.7468
571.2657, 590.1172
571.7478, 592.1954
572.2299, 591.4954
572.7120, 587.6136
573.1942, 581.1127
573.6763, 572.2217
574.1584, 561.0963
574.6405, 548.4492
575.1226, 534.5321
575.6047, 519.5519
576.0869, 504.3202
576.5690, 488.8368
577.0511, 473.1524
577.5332, 457.2993
578.0153, 441.4067
578.4974, 425.5682
578.9796, 409.5811
579.4617, 394.5870
579.9438, 381.5516
580.4259, 369.4302
580.9080, 356.6916
581.3901, 343.4662
581.8723, 331.0853
582.3544, 320.4546
582.8365, 311.1678
583.3186, 301.7824
583.8007, 291.8202
584.2828, 282.4698
584.7650, 273.7748
585.2471, 265.5971
585.7292, 257.7914
586.2113, 250.4041
586.6934, 243.6342
587.1755, 237.6793
587.6577, 232.2881
588.1398, 226.9086
588.6219, 221.4673
589.1040, 216.4948
589.5861, 212.2094
590.0682, 208.3248
590.5504, 204.5863
591.0325, 200.9993
591.5146, 197.6576
591.9967, 194.7356
592.4788, 191.9586
592.9609, 189.0668
593.4431, 186.1544
593.9252, 183.5436
594.4073, 181.3803
594.8894, 179.3485
595.3715, 176.9688
595.8536, 174.0976
596.3358, 171.5175
596.8179, 169.2009
597.3000, 167.1594
597.7821, 165.5984
598.2642, 164.2338
598.7463, 162.5374
599.2285, 160.3512
599.7106, 158.3241
600.1927, 157.4851
600.6748, 157.7675
601.1569, 157.3527
601.6390, 155.9633
602.1212, 154.3058
602.6033, 152.5306
603.0854, 150.8198
603.5675, 149.5584
604.0496, 148.9423
604.5317, 148.3077
605.0139, 147.2488
605.4960, 145.9913
605.9781, 144.8780
606.4602, 143.9420
606.9423, 142.9966
607.4244, 141.8931
607.9066, 140.6995
608.3887, 139.7101
608.8708, 138.9847
609.3529, 138.4045
609.8350, 138.1508
610.3171, 137.8861
610.7993, 137.2993
611.2814, 136.4683
611.7635, 135.7153
612.2456, 135.2288
612.7277, 134.9676
613.2098, 134.8432
613.6920, 134.8534
614.1741, 135.0592
614.6562, 135.6603
615.1383, 136.2180
615.6204, 136.1962
616.1025, 135.6971
616.5847, 135.3196
617.0668, 135.1896
617.5489, 135.2110
618.0310, 135.2753
618.5131, 135.4561
618.9952, 135.9852
619.4774, 136.9165
619.9595, 137.8822
620.4416, 138.3758
620.9237, 138.3253
621.4058, 138.9420
621.8879, 140.7962
622.3701, 142.6491
622.8522, 144.2922
623.3343, 145.7789
623.8164, 147.0835
624.2985, 148.2261
624.7806, 149.4666
625.2628, 151.0948
625.7448, 152.9638
626.2269, 154.6157
626.7090, 156.0145
627.1912, 157.5497
627.6733, 159.3751
628.1554, 161.4712
628.6375, 163.9168
629.1196, 166.7991
629.6017, 169.5102
630.0839, 171.8045
630.5660, 174.0481
631.0481, 176.4475
631.5302, 179.0188
632.0123, 181.7854
632.4944, 184.7459
632.9766, 187.8020
633.4587, 190.8271
633.9408, 193.8924
634.4229, 196.6184
634.9050, 198.8831
635.3871, 200.9238
635.8693, 202.8928
636.3514, 204.7124
636.8335, 206.2673
637.3156, 207.5204
637.7977, 208.5241
638.2798, 209.2172
638.7620, 209.7084
639.2441, 210.3311
639.7262, 211.0961
640.2083, 211.4205
640.6904, 210.8617
641.1725, 209.6569
641.6547, 208.5925
642.1368, 207.9905
642.6189, 207.0451
643.1010, 205.7764
643.5831, 204.1529
644.0652, 202.0757
644.5474, 199.6245
645.0295, 196.9202
645.5116, 193.9969
645.9937, 191.0500
646.4758, 188.4077
646.9579, 186.0686
647.4401, 183.8817
647.9222, 181.9789
648.4043, 179.9201
648.8864, 177.3096
649.3685, 174.2681
649.8506, 171.2349
650.3328, 168.1486
650.8149, 165.2229
651.2970, 162.5885
651.7791, 160.1462
652.2612, 157.8264
652.7433, 155.6011
653.2255, 153.4036
653.7076, 151.1615
654.1897, 148.9615
654.6718, 147.1723
655.1539, 146.0914
655.6360, 144.7072
656.1182, 142.4159
656.6003, 140.1834
657.0824, 138.5829
657.5645, 137.4873
658.0466, 136.4612
658.5287, 135.3842
659.0109, 134.2355
659.4930, 132.9905
659.9751, 131.6599
660.4572, 130.1900
660.9393, 128.5648
661.4214, 127.0800
661.9036, 126.0268
662.3857, 125.3549
662.8678, 124.5361
663.3499, 123.5221
663.8320, 122.4224
664.3141, 120.9281
664.7963, 119.5913
665.2784, 118.9871
665.7605, 118.9862
666.2426, 118.9628
666.7247, 118.5508
667.2068, 117.8591
667.6890, 117.0056
668.1711, 115.9979
668.6532, 115.1053
669.1353, 114.4079
669.6174, 113.7963
670.0995, 113.1478
670.5817, 112.4866
671.0638, 112.0276
671.5459, 112.0228
672.0280, 111.9134
672.5101, 111.5452
672.9922, 110.9724
673.4744, 110.1157
673.9565, 109.0683
674.4386, 108.2175
674.9207, 107.8983
675.4028, 107.9194
675.8849, 107.6238
676.3671, 106.9208
676.8492, 106.3070
677.3313, 105.9386
677.8134, 105.6161
678.2955, 105.1100
678.7776, 104.5040
679.2598, 104.1183
679.7419, 104.2741
680.2240, 104.3489
680.7061, 103.7803
681.1882, 102.9698
681.6703, 102.6304
682.1525, 102.8352
682.6346, 103.0368
683.1167, 102.7757
683.5988, 102.1537
684.0809, 101.6637
684.5630, 101.3212
685.0452, 101.0794
685.5273, 101.0835
686.0094, 101.0554
686.4915, 100.7964
686.9736, 100.3680
687.4557, 99.96181
687.9379, 99.61776
688.4200, 99.37550
688.9021, 99.35659
689.3842, 99.45311
689.8663, 99.40316
690.3484, 99.16048
690.8306, 98.85994
691.3127, 98.60401
691.7948, 98.37925
692.2769, 98.10998
692.7590, 97.73781
693.2411, 97.41634
693.7233, 97.09647
694.2054, 96.87966
694.6875, 96.94426
695.1696, 97.15675
695.6517, 97.18736
696.1339, 96.87337
696.6160, 96.38933
697.0981, 95.75318
697.5802, 95.09602
698.0623, 95.01463
698.5444, 95.64561
699.0266, 96.14708
699.5087, 95.86858
699.9908, 95.04113
700.4729, 94.55048
700.9550, 94.66895
701.4371, 94.71683
701.9193, 94.53465
702.4014, 94.41893
702.8835, 94.66856
703.3656, 95.10943
703.8477, 95.31624
704.3298, 95.08181
704.8120, 94.78578
705.2941, 94.96788
705.7762, 95.51450
706.2583, 95.83875
706.7404, 95.85358
707.2225, 95.88087
707.7046, 96.13177
708.1867, 96.50332
708.6688, 96.71778
709.1509, 96.66032
709.6331, 96.74656
710.1152, 97.15643
710.5973, 97.56838
711.0794, 97.79567
711.5615, 97.88618
712.0436, 97.87842
712.5258, 97.79612
713.0079, 97.87182
713.4900, 98.59557
713.9721, 99.77173
714.4542, 100.2231
714.9363, 99.79713
715.4185, 99.37621
715.9006, 99.28560
716.3827, 99.49715
716.8648, 100.0589
717.3469, 101.0565
717.8290, 101.8432
718.3112, 102.1401
718.7933, 102.4525
719.2754, 103.0790
719.7575, 103.8589
720.2396, 104.5997
720.7217, 105.2264
721.2039, 105.6781
721.6860, 105.8528
722.1681, 105.8138
722.6502, 105.7962
723.1323, 105.7983
723.6144, 105.8335
724.0966, 105.8982
724.5787, 106.0129
725.0608, 106.2954
725.5429, 106.7379
726.0250, 106.8085
726.5071, 106.2554
726.9893, 105.5964
727.4714, 104.9389
727.9535, 104.3200
728.4356, 103.8132
728.9177, 103.4019
729.3998, 102.9875
729.8820, 102.5267
730.3641, 101.9644
730.8462, 101.1494
731.3283, 100.0771
731.8104, 98.86317
732.2925, 97.41525
732.7747, 96.10418
733.2568, 95.38406
733.7389, 95.08369
734.2210, 94.28876
734.7031, 92.53382
735.1852, 91.01507
735.6674, 89.97549
736.1495, 89.25666
736.6316, 88.87684
737.1137, 88.68961
737.5958, 88.38052
738.0779, 87.78667
738.5601, 87.04238
739.0422, 86.23436
739.5243, 85.40334
740.0064, 85.02111
740.4885, 85.24322
740.9706, 85.36853
741.4528, 84.94302
741.9349, 84.22099
742.4170, 83.78779
742.8991, 83.76090
743.3812, 83.59042
743.8633, 83.16344
744.3455, 82.65549
744.8276, 82.01529
745.3097, 81.41065
745.7918, 81.14770
746.2739, 81.28260
746.7560, 81.44766
747.2382, 81.27184
747.7203, 80.85335
748.2024, 80.47372
748.6845, 80.13239
749.1666, 79.82085
749.6487, 79.50556
750.1309, 79.29915
750.6130, 79.38364
751.0951, 79.78394
751.5772, 79.98118
752.0593, 79.94630
752.5414, 79.76283
753.0236, 79.24320
753.5057, 78.72876
753.9878, 78.58866
754.4699, 78.76939
754.9520, 78.92199
755.4341, 78.87562
755.9163, 78.65001
756.3984, 78.13609
756.8805, 77.44210
757.3626, 77.12472
757.8447, 77.29763
758.3268, 77.44918
758.8090, 77.19522
759.2911, 76.67101
759.7732, 76.33247
760.2553, 76.34542
760.7374, 76.24434
761.2195, 75.80664
761.7017, 75.50023
762.1838, 75.66843
762.6659, 76.07114
763.1480, 76.32338
763.6301, 76.31722
764.1122, 76.22154
764.5944, 76.09968
765.0765, 75.99918
765.5586, 76.03053
766.0407, 76.16733
766.5228, 76.27508
767.0049, 76.30804
767.4871, 76.20716
767.9692, 75.85837
768.4513, 75.23975
768.9334, 74.85961
769.4155, 74.84722
769.8976, 74.86134
770.3798, 74.72874
770.8619, 74.66942
771.3440, 74.97568
771.8261, 75.55299
772.3082, 75.89852
772.7903, 75.72762
773.2725, 75.42178
773.7546, 75.20639
774.2367, 75.04516
774.7188, 74.86851
775.2009, 74.67841
775.6830, 74.56502
776.1652, 74.60267
776.6473, 74.68066
777.1294, 74.47727
777.6115, 73.90993
778.0936, 73.62993
778.5757, 73.79427
779.0579, 74.03643
779.5400, 74.18985
780.0221, 74.28470
780.5042, 74.37646
780.9863, 74.47889
781.4684, 74.52089
781.9506, 74.36253
782.4327, 74.26112
782.9148, 74.49909
783.3969, 74.86634
783.8790, 75.01000
784.3611, 74.84187
784.8433, 74.51221
785.3254, 74.10336
785.8075, 73.67290
786.2896, 73.38914
786.7717, 73.25317
787.2538, 73.28106
787.7360, 73.53008
788.2181, 73.77731
788.7002, 73.77225
789.1823, 73.56639
789.6644, 73.59843
790.1465, 74.18960
790.6286, 74.54592
791.1107, 74.46609
791.5928, 74.26682
792.0750, 74.11482
792.5571, 74.01333
793.0392, 73.92963
793.5213, 73.85558
794.0034, 73.76976
794.4855, 73.54924
794.9677, 73.34666
795.4498, 73.55022
795.9319, 74.10538
796.4140, 74.51877
796.8961, 74.58469
797.3782, 74.44626
797.8604, 74.25244
798.3425, 73.98643
798.8246, 74.11784
799.3067, 75.13037
799.7888, 75.66446
800.2709, 74.91697
800.7531, 73.93344
801.2352, 73.47020
801.7173, 73.46748
802.1994, 73.49696
802.6815, 73.35830
803.1636, 73.35806
803.6458, 73.90048
804.1279, 74.51469
804.6100, 74.55705
805.0921, 74.10853
805.5742, 73.69675
806.0563, 73.60934
806.5385, 73.68127
807.0206, 73.66733
807.5027, 73.57269
807.9848, 73.45002
808.4669, 73.28680
808.9490, 73.16941
809.4312, 73.13745
809.9133, 73.17200
810.3954, 73.28561
810.8775, 73.52275
811.3596, 73.51826
811.8417, 73.01720
812.3239, 72.60341
812.8060, 72.45219
813.2881, 72.44740
813.7702, 72.52021
814.2523, 72.63602
814.7344, 72.72582
815.2166, 72.72517
815.6987, 72.74941
816.1808, 72.95663
816.6629, 73.26921
817.1450, 73.51884
817.6271, 73.68726
818.1093, 73.83335
818.5914, 73.99380
819.0735, 74.12919
819.5556, 74.14323
820.0377, 74.00010
820.5198, 73.96452
821.0020, 74.09206
821.4841, 74.22326
821.9662, 74.39887
822.4483, 74.47474
822.9304, 74.18487
823.4125, 73.55006
823.8947, 73.19176
824.3768, 73.45971
824.8589, 73.75754
825.3410, 73.87024
825.8231, 73.84972
826.3052, 73.69473
826.7874, 73.46272
827.2695, 73.31393
827.7516, 73.34924
828.2337, 73.45132
828.7158, 73.44326
829.1979, 73.35704
829.6801, 73.31224
830.1622, 73.31902
830.6443, 73.42995
831.1264, 73.70449
831.6085, 73.99446
832.0906, 74.03611
832.5728, 73.77614
833.0549, 73.65327
833.5370, 73.76893
834.0191, 73.87740
834.5012, 73.95128
834.9833, 73.97483
835.4655, 73.88975
835.9476, 73.73112
836.4297, 73.66734
836.9118, 73.84391
837.3939, 73.97472
837.8760, 73.80010
838.3582, 73.56582
838.8403, 73.62740
839.3224, 73.90678
839.8045, 74.01485
840.2866, 73.76627
840.7687, 73.47810
841.2509, 73.67173
841.7330, 74.23404
842.2151, 74.48190
842.6972, 74.38667
843.1793, 74.24135
843.6614, 74.12301
844.1436, 74.07143
844.6257, 74.14563
845.1078, 74.34197
845.5899, 74.52206
846.0720, 74.74239
846.5541, 74.85709
847.0363, 74.73055
847.5184, 74.61350
848.0005, 74.70023
848.4826, 74.91096
848.9647, 75.02696
849.4468, 74.95003
849.9290, 74.96951
850.4111, 75.34250
850.8932, 75.80833
851.3753, 76.15510
851.8574, 76.36718
852.3395, 76.43793
852.8217, 76.37405
853.3038, 76.21868
853.7859, 75.93095
854.2680, 75.65823
854.7501, 76.01924
855.2322, 77.01397
855.7144, 77.53658
856.1965, 77.25100
856.6786, 76.98335
857.1607, 77.39942
857.6428, 78.26279
858.1249, 78.81502
858.6071, 78.91752
859.0892, 79.00138
859.5713, 79.11174
860.0534, 79.15055
860.5355, 78.90345
861.0176, 78.66738
861.4998, 78.84190
861.9819, 79.45384
862.4640, 80.09640
862.9461, 80.75498
863.4282, 81.23772
863.9103, 81.22510
864.3925, 81.05453
864.8746, 81.26148
865.3567, 81.82544
865.8388, 82.32302
866.3209, 82.51153
866.8030, 82.49436
867.2852, 82.38426
867.7673, 82.19946
868.2494, 82.01424
868.7315, 81.83096
869.2136, 81.74682
869.6957, 81.82092
870.1779, 81.94742
870.6600, 81.99168
871.1421, 81.95360
871.6242, 81.86476
872.1063, 81.74468
872.5884, 81.53886
873.0705, 81.01558
873.5526, 80.61389
874.0347, 80.69338
874.5168, 81.08729
874.9990, 81.39331
875.4811, 81.55860
875.9632, 81.59409
876.4453, 81.45481
876.9274, 81.23324
877.4095, 80.87342
877.8917, 80.52758
878.3738, 80.50565
878.8559, 80.83081
879.3380, 81.11207
879.8201, 80.98668
880.3022, 80.71207
880.7844, 80.75230
881.2665, 81.01199
881.7486, 81.07791
882.2307, 80.90358
882.7128, 80.89758
883.1949, 81.33668
883.6771, 82.02090
884.1592, 82.53295
884.6413, 82.84982
885.1234, 83.19807
885.6055, 83.67924
886.0876, 83.92386
886.5698, 83.65115
887.0519, 83.24372
887.5340, 83.09251
888.0161, 83.19285
888.4982, 83.45020
888.9803, 84.03468
889.4625, 84.53171
889.9446, 84.66716
890.4267, 84.88680
890.9088, 85.63052
891.3909, 86.65456
891.8730, 87.44328
892.3552, 87.85558
892.8373, 88.16938
893.3194, 88.40652
893.8015, 88.76672
894.2836, 89.47814
894.7657, 90.47314
895.2479, 91.68382
895.7300, 93.03493
896.2121, 94.25648
896.6942, 95.10983
897.1763, 95.81431
897.6584, 96.73124
898.1406, 97.87264
898.6227, 99.52695
899.1048, 101.7731
899.5869, 103.8071
900.0690, 105.2216
900.5511, 106.3315
901.0333, 107.5854
901.5154, 108.9849
901.9975, 110.4803
902.4796, 112.0382
902.9617, 113.7700
903.4438, 115.8203
903.9260, 117.9363
904.4081, 119.8422
904.8902, 121.6871
905.3723, 123.8732
905.8544, 126.6167
906.3365, 129.1826
906.8187, 131.2006
907.3008, 133.1828
907.7829, 135.5373
908.2650, 137.9655
908.7471, 139.9509
909.2292, 141.4863
909.7114, 143.1799
910.1935, 145.4700
910.6756, 147.9182
911.1577, 149.9770
911.6398, 151.9287
912.1219, 154.2918
912.6041, 157.0737
913.0862, 160.0955
913.5683, 163.2716
914.0504, 166.3939
914.5325, 169.0923
915.0146, 171.4895
915.4968, 174.3722
915.9789, 177.7537
916.4610, 181.5003
916.9431, 185.6909
917.4252, 189.8758
917.9073, 193.7090
918.3895, 197.2684
918.8716, 200.8558
919.3537, 204.5623
919.8358, 208.1569
920.3179, 211.9077
920.8000, 215.1532
921.2822, 217.3103
921.7643, 219.0330
922.2464, 221.1440
922.7285, 223.6072
923.2106, 225.3708
923.6927, 226.0342
924.1749, 226.3249
924.6570, 226.3911
925.1391, 226.2025
925.6212, 225.6098
926.1033, 224.7766
926.5854, 224.1330
927.0676, 223.8231
927.5497, 223.0833
928.0318, 221.0027
928.5139, 218.6255
928.9960, 216.8418
929.4781, 215.6035
929.9603, 214.9400
930.4424, 214.7026
930.9245, 214.2668
931.4066, 213.2075
931.8887, 211.9114
932.3708, 210.9543
932.8530, 210.2903
933.3351, 209.6793
933.8172, 209.1252
934.2993, 209.0076
934.7814, 209.5083
935.2635, 210.0966
935.7457, 210.2546
936.2278, 209.9545
936.7099, 208.9723
937.1920, 207.1615
937.6741, 205.2889
938.1563, 203.4395
938.6384, 201.5487
939.1205, 199.7328
939.6026, 197.7058
940.0847, 194.9395
940.5668, 191.3833
941.0490, 187.4243
941.5311, 182.5951
942.0132, 178.0070
942.4953, 174.1308
942.9774, 170.3288
943.4595, 166.0712
943.9417, 161.5121
944.4238, 157.1473
944.9059, 153.0937
945.3880, 149.1287
945.8701, 144.9803
946.3522, 141.0701
946.8344, 137.8547
947.3165, 134.9921
947.7986, 131.9289
948.2807, 128.6951
948.7628, 125.8373
949.2449, 123.7225
949.7271, 121.8910
950.2092, 119.8719
950.6913, 117.8561
951.1734, 116.1882
951.6555, 114.7884
952.1376, 113.2685
952.6198, 111.5180
953.1019, 109.8789
953.5840, 108.6814
954.0661, 107.8119
954.5482, 107.0484
955.0303, 106.3696
955.5124, 105.5971
955.9945, 104.7025
956.4766, 103.9219
956.9587, 103.3759
957.4409, 103.0223
957.9230, 102.8173
958.4051, 102.7564
958.8872, 102.6794
959.3693, 102.5807
959.8514, 102.5070
960.3336, 102.5354
960.8157, 102.4287
961.2978, 101.9491
961.7799, 101.2408
962.2620, 100.7126
962.7441, 100.4312
963.2263, 100.1227
963.7084, 99.62248
964.1905, 99.32354
964.6726, 99.68809
965.1547, 100.0010
965.6368, 99.48057
966.1190, 98.33021
966.6011, 97.54648
967.0832, 97.46095
967.5653, 97.31510
968.0474, 96.94009
968.5295, 96.47021
969.0117, 95.83842
969.4938, 95.24084
969.9759, 94.98814
970.4580, 95.06798
970.9401, 95.10017
971.4222, 94.91385
971.9044, 94.64575
972.3865, 94.30040
972.8686, 93.98074
973.3507, 93.83176
973.8328, 93.79549
974.3149, 93.72878
974.7971, 93.58843
975.2792, 93.42313
975.7613, 93.27689
976.2434, 93.12139
976.7255, 92.85963
977.2076, 92.57899
977.6898, 92.49271
978.1719, 92.59205
978.6540, 92.72561
979.1361, 92.82111
979.6182, 92.81919
980.1003, 92.59909
980.5825, 92.23898
981.0646, 92.07320
981.5467, 92.05408
982.0288, 91.70904
982.5109, 90.94791
982.9930, 90.31848
983.4752, 90.21606
983.9573, 90.28146
984.4394, 89.75185
984.9215, 88.62156
985.4036, 87.93629
985.8857, 87.77380
986.3679, 87.62228
986.8500, 87.37893
987.3321, 87.00719
987.8142, 86.44396
988.2963, 85.75982
988.7784, 85.18430
989.2606, 84.77115
989.7427, 84.27500
990.2248, 83.62012
990.7069, 83.02700
991.1890, 82.57291
991.6711, 82.19339
992.1533, 81.80663
992.6354, 81.43372
993.1175, 81.20898
993.5996, 81.24035
994.0817, 81.22628
994.5638, 81.19170
995.0460, 81.07612
995.5281, 80.87291
996.0102, 80.56646
996.4923, 79.99939
996.9744, 79.25436
997.4565, 78.92712
997.9387, 79.51359
998.4208, 79.88509
998.9029, 79.52417
999.3850, 79.10851
999.8671, 79.06932
1000.349, 79.24210
1000.831, 79.40459
1001.313, 79.50674
1001.796, 79.49525
1002.278, 79.16977
1002.760, 78.99721
1003.242, 79.39707
1003.724, 79.92109
1004.206, 80.17223
1004.688, 80.21130
1005.170, 80.19424
1005.653, 80.17913
1006.135, 80.25809
1006.617, 80.53625
1007.099, 80.87045
1007.581, 81.18074
1008.063, 81.42784
1008.545, 81.50717
1009.027, 81.47462
1009.509, 81.45461
1009.992, 81.50579
1010.474, 81.75481
1010.956, 82.49165
1011.438, 83.29148
1011.920, 83.42115
1012.402, 83.13684
1012.884, 82.98453
1013.366, 83.03600
1013.849, 83.20548
1014.331, 83.45737
1014.813, 83.87119
1015.295, 84.67132
1015.777, 85.59351
1016.259, 85.83592
1016.741, 85.57603
1017.223, 85.68794
1017.705, 86.26883
1018.188, 86.84730
1018.670, 87.18364
1019.152, 87.35515
1019.634, 87.42040
1020.116, 87.42662
1020.598, 87.68577
1021.080, 88.17834
1021.562, 88.38280
1022.044, 88.20019
1022.527, 87.86710
1023.009, 87.50040
1023.491, 87.15372
1023.973, 86.92516
1024.455, 86.80452
1024.937, 86.64027
1025.419, 86.44153
1025.901, 86.13769
1026.384, 85.72282
1026.866, 85.16259
1027.348, 84.42955
1027.830, 83.54015
1028.312, 82.47503
1028.794, 81.20309
1029.276, 80.47569
1029.758, 80.63009
1030.240, 80.08325
1030.723, 78.31593
1031.205, 76.29248
1031.687, 74.52287
1032.169, 73.03474
1032.651, 71.90682
1033.133, 71.18283
1033.615, 70.46175
1034.097, 69.72338
1034.579, 69.02763
1035.062, 68.38696
1035.544, 67.78924
1036.026, 67.25594
1036.508, 66.74967
1036.990, 66.20321
1037.472, 65.62721
1037.954, 64.94575
1038.436, 63.94889
1038.919, 63.19459
1039.401, 62.97100
1039.883, 62.81015
1040.365, 62.36631
1040.847, 61.78962
1041.329, 61.41327
1041.811, 61.28298
1042.293, 61.10474
1042.776, 60.87726
1043.258, 60.59521
1043.740, 60.17384
1044.222, 59.78167
1044.704, 59.58952
1045.186, 59.48412
1045.668, 59.20070
1046.150, 58.66822
1046.632, 58.35962
1047.115, 58.58784
1047.597, 58.68183
1048.079, 58.39901
1048.561, 58.00624
1049.043, 57.61684
1049.525, 57.27663
1050.007, 57.04045
1050.489, 56.91656
1050.971, 56.89193
1051.454, 57.06153
1051.936, 57.19740
1052.418, 57.23005
1052.900, 57.20736
1053.382, 57.21222
1053.864, 57.16940
1054.346, 56.84776
1054.828, 56.20126
1055.311, 55.87793
1055.793, 56.41011
1056.275, 56.80193
1056.757, 56.54161
1057.239, 56.18433
1057.721, 56.13995
1058.203, 56.30159
1058.685, 56.48038
1059.167, 56.63955
1059.650, 56.64820
1060.132, 56.31913
1060.614, 56.02742
1061.096, 55.97844
1061.578, 55.95737
1062.060, 55.83181
1062.542, 55.60283
1063.024, 55.18003
1063.506, 54.59743
1063.989, 54.38589
1064.471, 55.13599
1064.953, 55.72431
1065.435, 55.51847
1065.917, 55.14487
1066.399, 55.07994
1066.881, 55.17342
1067.363, 55.12667
1067.846, 54.91370
1068.328, 54.75462
1068.810, 54.75788
1069.292, 54.78341
1069.774, 54.70302
1070.256, 54.68870
1070.738, 55.03538
1071.220, 55.43737
1071.703, 55.38483
1072.185, 54.89625
1072.667, 54.51985
1073.149, 54.48220
1073.631, 54.52433
1074.113, 54.61475
1074.595, 54.64862
1075.077, 54.48327
1075.559, 54.25671
1076.042, 54.16521
1076.524, 54.20202
1077.006, 54.21144
1077.488, 54.13526
1077.970, 54.04320
1078.452, 53.96291
1078.934, 53.88271
1079.416, 53.71773
1079.898, 53.60151
1080.380, 53.74733
1080.863, 54.09130
1081.345, 54.35302
1081.827, 54.42412
1082.309, 54.52025
1082.791, 54.82385
1083.273, 55.08287
1083.755, 55.08985
1084.237, 55.01191
1084.720, 55.05484
1085.202, 55.17149
1085.684, 55.16954
1086.166, 54.98391
1086.648, 54.83132
1087.130, 54.75477
1087.612, 54.79404
1088.094, 55.09611
1088.577, 55.41397
1089.059, 55.56944
1089.541, 55.54106
1090.023, 55.26986
1090.505, 54.74201
1090.987, 54.33922
1091.469, 54.18760
1091.951, 54.21008
1092.433, 54.53423
1092.916, 54.86466
1093.398, 54.92080
1093.880, 54.84022
1094.362, 54.92049
1094.844, 55.18087
1095.326, 55.26737
1095.808, 54.89436
1096.290, 54.58949
1096.772, 54.56874
1097.255, 54.62276
1097.737, 54.60839
1098.219, 54.59229
1098.701, 54.73584
1099.183, 55.00102
1099.665, 55.05462
1100.147, 54.59023
1100.629, 54.39225
1101.112, 55.01034
1101.594, 55.52714
1102.076, 55.39344
1102.558, 55.00621
1103.040, 54.75901
1103.522, 54.65072
1104.004, 54.55294
1104.486, 54.46240
1104.969, 54.33080
1105.451, 53.96378
1105.933, 53.79737
1106.415, 54.12891
1106.897, 54.58508
1107.379, 54.93471
1107.861, 55.15770
1108.343, 55.24499
1108.825, 55.19716
1109.307, 55.00991
1109.790, 54.47810
1110.272, 54.09819
1110.754, 54.11177
1111.236, 54.15546
1111.718, 53.97802
1112.200, 53.70553
1112.682, 53.55249
1113.164, 53.52787
1113.647, 53.49209
1114.129, 53.41654
1114.611, 53.37948
1115.093, 53.43110
1115.575, 53.46182
1116.057, 53.43112
1116.539, 53.35054
1117.021, 53.21259
1117.504, 53.03115
1117.986, 52.91057
1118.468, 52.87470
1118.950, 52.83638
1119.432, 52.73286
1119.914, 52.77273
1120.396, 53.16676
1120.878, 53.46695
1121.360, 53.15724
1121.843, 52.55793
1122.325, 52.69282
1122.807, 53.78534
1123.289, 54.20731
1123.771, 53.75210
1124.253, 53.31616
1124.735, 53.05291
1125.217, 52.97579
1125.699, 53.15753
1126.182, 53.38576
1126.664, 53.24748
1127.146, 52.77958
1127.628, 52.71327
1128.110, 53.11095
1128.592, 53.32864
1129.074, 53.25801
1129.556, 53.20225
1130.039, 53.30901
1130.521, 53.42170
1131.003, 53.35955
1131.485, 53.16224
1131.967, 52.94201
1132.449, 52.70531
1132.931, 52.59022
1133.413, 52.59993
1133.896, 52.55445
1134.378, 52.39915
1134.860, 52.37093
1135.342, 52.67946
1135.824, 53.08874
1136.306, 53.15525
1136.788, 52.95794
1137.270, 52.70971
1137.752, 52.47237
1138.234, 52.60563
1138.717, 53.10702
1139.199, 53.46952
1139.681, 53.43441
1140.163, 53.22313
1140.645, 53.01802
1141.127, 52.86374
1141.609, 52.90672
1142.091, 53.03650
1142.574, 53.01001
1143.056, 52.83149
1143.538, 52.57592
1144.020, 52.28948
1144.502, 52.10370
1144.984, 52.11721
1145.466, 52.25441
1145.948, 52.56765
1146.431, 52.85210
1146.913, 52.81093
1147.395, 52.55973
1147.877, 52.28465
1148.359, 52.04829
1148.841, 51.91431
1149.323, 51.92186
1149.805, 51.95187
1150.287, 51.94566
1150.770, 51.91628
1151.252, 51.93221
1151.734, 51.88265
1152.216, 51.51805
1152.698, 51.02557
1153.180, 50.85239
1153.662, 51.09112
1154.144, 51.39231
1154.626, 51.75114
1155.109, 51.99602
1155.591, 52.03551
1156.073, 51.98320
1156.555, 51.86036
1157.037, 51.71968
1157.519, 51.65173
1158.001, 51.63588
1158.483, 51.49114
1158.966, 50.99818
1159.448, 50.80846
1159.930, 51.16673
1160.412, 51.55661
1160.894, 52.02226
1161.376, 52.26785
1161.858, 51.95086
1162.340, 51.32836
1162.822, 50.96738
1163.305, 50.89628
1163.787, 50.77016
1164.269, 50.56287
1164.751, 50.36183
1165.233, 50.13042
1165.715, 50.06585
1166.197, 50.31026
1166.679, 50.64194
1167.161, 50.81646
1167.644, 50.84115
1168.126, 50.70771
1168.608, 50.40665
1169.090, 50.24659
1169.572, 50.24324
1170.054, 50.29783
1170.536, 50.38438
1171.018, 50.48494
1171.500, 50.58802
1171.983, 50.69413
1172.465, 50.84463
1172.947, 50.98433
1173.429, 50.86930
1173.911, 50.58064
1174.393, 50.41769
1174.875, 50.40794
1175.357, 50.49941
1175.840, 50.65524
1176.322, 50.68620
1176.804, 50.38356
1177.286, 50.00060
1177.768, 49.81347
1178.250, 49.77513
1178.732, 49.88850
1179.214, 50.06597
1179.697, 50.11714
1180.179, 50.06018
1180.661, 50.13728
1181.143, 50.48051
1181.625, 50.69984
1182.107, 50.49884
1182.589, 50.16611
1183.071, 49.62598
1183.553, 49.28056
1184.036, 49.73884
1184.518, 50.57653
1185.000, 50.92216
1185.482, 50.68305
1185.964, 50.62051
1186.446, 51.27968
1186.928, 51.52443
1187.410, 50.77378
1187.892, 50.06277
1188.375, 49.92006
1188.857, 49.92676
1189.339, 49.57653
1189.821, 49.09681
1190.303, 49.21211
1190.785, 50.09113
1191.267, 50.57031
1191.749, 50.59312
1192.232, 50.32164
1192.714, 49.62846
1193.196, 49.10033
1193.678, 49.05499
1194.160, 49.25377
1194.642, 49.44622
1195.124, 49.59130
1195.606, 49.49937
1196.089, 49.17976
1196.571, 48.78586
1197.053, 48.35105
1197.535, 48.46499
1198.017, 49.23638
1198.499, 49.84464
1198.981, 49.77209
1199.463, 49.41983
1199.945, 49.29625
1200.427, 49.28587
1200.910, 49.14534
1201.392, 48.93939
1201.874, 48.73881
1202.356, 48.61728
1202.838, 48.80519
1203.320, 49.31089
1203.802, 49.75806
1204.284, 49.96269
1204.767, 49.93874
1205.249, 49.57898
1205.731, 49.12140
1206.213, 48.64149
1206.695, 48.27412
1207.177, 48.21290
1207.659, 48.37868
1208.141, 48.56149
1208.624, 48.72552
1209.106, 48.80857
1209.588, 48.75073
1210.070, 48.67739
1210.552, 48.55610
1211.034, 48.49437
1211.516, 48.60519
1211.998, 48.74815
1212.480, 48.75594
1212.963, 48.68400
1213.445, 48.75344
1213.927, 49.00452
1214.409, 49.19929
1214.891, 49.34809
1215.373, 49.38978
1215.855, 49.29995
1216.337, 49.14793
1216.819, 48.95240
1217.302, 48.81446
1217.784, 48.87481
1218.266, 49.06405
1218.748, 49.19167
1219.230, 49.25356
1219.712, 49.20122
1220.194, 49.05583
1220.676, 48.91642
1221.159, 48.81330
1221.641, 48.75028
1222.123, 48.72669
1222.605, 48.80951
1223.087, 49.14879
1223.569, 49.54574
1224.051, 49.79262
1224.533, 49.94257
1225.016, 50.04060
1225.498, 50.10551
1225.980, 50.16172
1226.462, 50.20793
1226.944, 50.22290
1227.426, 50.22955
1227.908, 50.11068
1228.390, 49.64227
1228.872, 49.28160
1229.354, 49.29798
1229.837, 49.42073
1230.319, 49.46255
1230.801, 49.44993
1231.283, 49.42498
1231.765, 49.39071
1232.247, 49.47176
1232.729, 49.84261
1233.211, 49.72261
1233.694, 48.84743
1234.176, 48.33527
1234.658, 48.57861
1235.140, 48.99819
1235.622, 49.16606
1236.104, 49.31308
1236.586, 49.94114
1237.068, 50.83265
1237.551, 51.00342
1238.033, 50.60864
1238.515, 50.32328
1238.997, 50.18726
1239.479, 49.98609
1239.961, 49.66553
1240.443, 49.32529
1240.925, 49.01150
1241.407, 48.78925
1241.890, 48.73919
1242.372, 48.79128
1242.854, 48.90767
1243.336, 49.06055
1243.818, 49.28860
1244.300, 49.50265
1244.782, 49.47844
1245.264, 49.20712
1245.746, 49.06066
1246.229, 49.19624
1246.711, 49.35020
1247.193, 49.52496
1247.675, 49.64760
1248.157, 49.67302
1248.639, 49.66520
1249.121, 49.68221
1249.603, 49.67748
1250.085, 49.53614
1250.568, 49.27726
1251.050, 49.26703
1251.532, 49.53979
1252.014, 49.70467
1252.496, 49.73484
1252.978, 49.51809
1253.460, 49.02290
1253.942, 48.63605
1254.425, 48.62645
1254.907, 48.83929
1255.389, 49.14176
1255.871, 49.45815
1256.353, 49.59333
1256.835, 49.66351
1257.317, 49.96505
1257.799, 50.36818
1258.281, 50.47007
1258.764, 50.24160
1259.246, 50.08838
1259.728, 50.25707
1260.210, 50.23042
1260.692, 49.54144
1261.174, 48.89990
1261.656, 48.46796
1262.138, 48.38739
1262.620, 48.99250
1263.103, 49.88366
1263.585, 50.50809
1264.067, 50.85176
1264.549, 50.75737
1265.031, 50.00294
1265.513, 49.55500
1265.995, 49.43755
1266.477, 49.61448
1266.960, 50.14631
1267.442, 50.46336
1267.924, 50.22634
1268.406, 49.83417
1268.888, 49.77032
1269.370, 49.87619
1269.852, 49.75556
1270.334, 49.52216
1270.817, 49.45927
1271.299, 49.53907
1271.781, 49.68867
1272.263, 49.85022
1272.745, 49.88125
1273.227, 49.72686
1273.709, 49.57660
1274.191, 49.58765
1274.673, 49.56996
1275.156, 49.31730
1275.638, 49.12895
1276.120, 49.32725
1276.602, 49.60015
1277.084, 49.55119
1277.566, 49.27361
1278.048, 49.10554
1278.530, 49.04535
1279.012, 49.11959
1279.495, 49.33017
1279.977, 49.71078
1280.459, 50.34685
1280.941, 50.70433
1281.423, 50.57149
1281.905, 50.24479
1282.387, 49.92684
1282.869, 49.73054
1283.352, 49.92732
1283.834, 50.34042
1284.316, 50.58738
1284.798, 50.67077
##END=



