##NAMES=Ruizite
##RRUFFID=R060930
##IDEAL CHEMISTRY=Ca_2_Mn^3+^_2_Si_4_O_11_(OH)_4_&#183;2H_2_O
##LOCALITY=Christmas mine, Gila County, Arizona, USA
##OWNER=RRUFF
##SOURCE=Bob Jenkins
##DESCRIPTION=Orange, massive and radial acicular crystals
##STATUS=The identification of this mineral is confirmed by single-crystal X-ray diffraction and chemical analysis.
##URL=rruff.info/R060930
##MEASURED CHEMISTRY=(Ca_1.98_Mg_0.03_)_Σ2.01_(Mn^3+^_1.95_Fe^3+^_0.08_V^3+^_0.01_)_Σ2.04_Si_3.96_O_11_(OH)_4_·2H_2_O						
97.82745, 1655.952
98.30956, 1641.575
98.79168, 1625.258
99.27380, 1609.390
99.75591, 1593.574
100.2380, 1578.013
100.7201, 1563.995
101.2023, 1552.436
101.6844, 1542.931
102.1665, 1533.249
102.6486, 1522.157
103.1307, 1511.384
103.6128, 1502.643
104.0950, 1495.979
104.5771, 1490.273
105.0592, 1484.078
105.5413, 1477.888
106.0234, 1472.816
106.5055, 1470.407
106.9877, 1469.585
107.4698, 1465.846
107.9519, 1456.896
108.4340, 1447.422
108.9161, 1439.041
109.3982, 1431.663
109.8804, 1424.967
110.3625, 1418.764
110.8446, 1413.193
111.3267, 1407.403
111.8088, 1401.197
112.2909, 1394.924
112.7731, 1388.472
113.2552, 1381.974
113.7373, 1375.831
114.2194, 1370.758
114.7015, 1367.836
115.1836, 1363.936
115.6658, 1358.702
116.1479, 1352.700
116.6300, 1346.202
117.1121, 1339.228
117.5942, 1332.283
118.0763, 1326.726
118.5584, 1322.692
119.0406, 1319.258
119.5227, 1316.600
120.0048, 1314.416
120.4869, 1311.766
120.9690, 1307.952
121.4511, 1303.645
121.9333, 1300.261
122.4154, 1298.244
122.8975, 1296.365
123.3796, 1293.461
123.8617, 1289.392
124.3438, 1285.390
124.8260, 1282.045
125.3081, 1279.081
125.7902, 1276.309
126.2723, 1273.721
126.7544, 1271.254
127.2365, 1268.787
127.7187, 1266.209
128.2008, 1263.830
128.6829, 1262.196
129.1650, 1260.696
129.6471, 1258.385
130.1292, 1254.456
130.6114, 1249.113
131.0935, 1245.325
131.5756, 1245.744
132.0577, 1245.239
132.5398, 1241.917
133.0219, 1236.493
133.5041, 1230.914
133.9862, 1226.851
134.4683, 1224.532
134.9504, 1222.398
135.4325, 1220.601
135.9146, 1218.824
136.3968, 1216.735
136.8789, 1214.361
137.3610, 1212.217
137.8431, 1211.130
138.3252, 1211.483
138.8073, 1210.613
139.2895, 1207.504
139.7716, 1203.431
140.2537, 1199.749
140.7358, 1196.722
141.2179, 1194.275
141.7000, 1192.686
142.1821, 1191.891
142.6643, 1190.712
143.1464, 1188.216
143.6285, 1184.844
144.1106, 1182.211
144.5927, 1180.950
145.0748, 1180.287
145.5570, 1179.584
146.0391, 1178.824
146.5212, 1177.858
147.0033, 1176.529
147.4854, 1174.814
147.9675, 1172.954
148.4497, 1170.847
148.9318, 1168.671
149.4139, 1166.465
149.8960, 1164.258
150.3781, 1162.108
150.8602, 1160.091
151.3424, 1158.086
151.8245, 1156.494
152.3066, 1155.913
152.7887, 1155.363
153.2708, 1153.823
153.7529, 1150.959
154.2351, 1147.522
154.7172, 1145.405
155.1993, 1146.167
155.6814, 1146.518
156.1635, 1146.144
156.6456, 1145.324
157.1278, 1144.367
157.6099, 1143.416
158.0920, 1142.478
158.5741, 1141.582
159.0562, 1140.429
159.5383, 1139.621
160.0205, 1139.587
160.5026, 1140.034
160.9847, 1140.192
161.4668, 1139.440
161.9489, 1138.191
162.4310, 1138.188
162.9131, 1140.388
163.3953, 1142.803
163.8774, 1144.355
164.3595, 1145.100
164.8416, 1145.484
165.3237, 1145.505
165.8058, 1145.424
166.2880, 1145.808
166.7701, 1146.831
167.2522, 1148.256
167.7343, 1149.862
168.2164, 1151.660
168.6985, 1153.570
169.1807, 1155.263
169.6628, 1157.085
170.1449, 1159.587
170.6270, 1163.170
171.1091, 1167.434
171.5912, 1171.416
172.0734, 1174.841
172.5555, 1178.507
173.0376, 1182.791
173.5197, 1187.480
174.0018, 1192.289
174.4839, 1197.011
174.9661, 1201.711
175.4482, 1206.694
175.9303, 1211.883
176.4124, 1217.539
176.8945, 1224.108
177.3766, 1231.157
177.8588, 1237.884
178.3409, 1243.708
178.8230, 1248.629
179.3051, 1253.608
179.7872, 1259.119
180.2693, 1264.229
180.7515, 1268.958
181.2336, 1273.079
181.7157, 1276.137
182.1978, 1277.750
182.6799, 1277.857
183.1620, 1276.717
183.6441, 1273.875
184.1263, 1270.500
184.6084, 1267.339
185.0905, 1264.296
185.5726, 1260.638
186.0547, 1255.706
186.5368, 1249.304
187.0190, 1242.345
187.5011, 1234.673
187.9832, 1226.655
188.4653, 1218.436
188.9474, 1210.088
189.4296, 1201.773
189.9117, 1193.531
190.3938, 1185.427
190.8759, 1177.979
191.3580, 1171.345
191.8401, 1165.394
192.3223, 1160.153
192.8044, 1155.735
193.2865, 1151.408
193.7686, 1146.430
194.2507, 1140.956
194.7328, 1135.367
195.2150, 1129.570
195.6971, 1123.744
196.1792, 1118.217
196.6613, 1113.015
197.1434, 1108.119
197.6255, 1103.438
198.1077, 1098.969
198.5898, 1094.867
199.0719, 1091.126
199.5540, 1087.773
200.0361, 1084.991
200.5182, 1082.926
201.0004, 1081.296
201.4825, 1080.241
201.9646, 1079.490
202.4467, 1078.393
202.9288, 1076.270
203.4109, 1073.209
203.8930, 1070.762
204.3752, 1069.273
204.8573, 1068.147
205.3394, 1067.256
205.8215, 1066.554
206.3036, 1065.985
206.7857, 1065.552
207.2679, 1065.270
207.7500, 1064.828
208.2321, 1063.878
208.7142, 1063.076
209.1963, 1062.354
209.6784, 1061.918
210.1606, 1062.219
210.6427, 1063.774
211.1248, 1066.757
211.6069, 1069.342
212.0890, 1071.044
212.5711, 1072.828
213.0533, 1075.323
213.5354, 1078.318
214.0175, 1081.076
214.4996, 1082.843
214.9817, 1083.382
215.4638, 1084.617
215.9460, 1087.397
216.4281, 1089.970
216.9102, 1091.084
217.3923, 1090.992
217.8744, 1091.206
218.3565, 1093.339
218.8387, 1097.789
219.3208, 1099.956
219.8029, 1098.125
220.2850, 1095.708
220.7671, 1095.135
221.2492, 1096.295
221.7314, 1097.047
222.2135, 1095.411
222.6956, 1091.168
223.1777, 1087.503
223.6598, 1085.187
224.1419, 1082.874
224.6240, 1079.315
225.1062, 1074.505
225.5883, 1069.796
226.0704, 1066.446
226.5525, 1064.281
227.0346, 1061.544
227.5167, 1057.169
227.9989, 1052.787
228.4810, 1050.006
228.9631, 1048.930
229.4452, 1048.572
229.9273, 1048.675
230.4094, 1048.963
230.8916, 1048.663
231.3737, 1046.993
231.8558, 1045.039
232.3379, 1044.216
232.8200, 1044.700
233.3021, 1045.076
233.7843, 1044.502
234.2664, 1043.206
234.7485, 1041.422
235.2306, 1039.065
235.7127, 1036.361
236.1948, 1033.667
236.6770, 1031.061
237.1591, 1028.063
237.6412, 1024.032
238.1233, 1019.579
238.6054, 1015.347
239.0875, 1011.628
239.5697, 1008.078
240.0518, 1004.024
240.5339, 999.1207
241.0160, 994.7775
241.4981, 991.6420
241.9802, 989.2521
242.4624, 987.2226
242.9445, 985.4028
243.4266, 983.9778
243.9087, 983.2869
244.3908, 983.4240
244.8729, 984.0742
245.3550, 985.1149
245.8372, 986.5830
246.3193, 988.5429
246.8014, 991.0212
247.2835, 993.9651
247.7656, 997.4215
248.2477, 1001.658
248.7299, 1005.747
249.2120, 1009.066
249.6941, 1012.440
250.1762, 1016.636
250.6583, 1021.874
251.1404, 1027.543
251.6226, 1032.669
252.1047, 1037.014
252.5868, 1041.279
253.0689, 1046.328
253.5510, 1050.852
254.0331, 1053.607
254.5153, 1054.402
254.9974, 1054.433
255.4795, 1055.762
255.9616, 1059.948
256.4437, 1061.934
256.9258, 1061.396
257.4080, 1059.300
257.8901, 1055.860
258.3722, 1051.318
258.8543, 1046.280
259.3364, 1041.555
259.8185, 1037.313
260.3007, 1032.956
260.7828, 1028.537
261.2649, 1023.951
261.7470, 1019.072
262.2291, 1013.912
262.7112, 1008.677
263.1934, 1003.505
263.6755, 998.1906
264.1576, 993.7838
264.6397, 990.4519
265.1218, 987.6909
265.6039, 985.5232
266.0861, 983.7762
266.5682, 981.9231
267.0503, 979.3383
267.5324, 975.7363
268.0145, 973.4019
268.4966, 973.2585
268.9788, 973.2648
269.4609, 972.3801
269.9430, 970.7059
270.4251, 968.8859
270.9072, 967.3486
271.3893, 966.0836
271.8715, 965.9059
272.3536, 967.5065
272.8357, 969.2607
273.3178, 970.4017
273.7999, 971.1058
274.2820, 972.0231
274.7642, 973.6585
275.2463, 975.9115
275.7284, 977.4742
276.2105, 977.4521
276.6926, 977.8687
277.1747, 979.8309
277.6568, 982.7615
278.1389, 985.2339
278.6211, 986.3635
279.1032, 986.6096
279.5853, 988.0234
280.0674, 992.8552
280.5495, 996.0250
281.0316, 995.4875
281.5138, 992.5323
281.9959, 989.4256
282.4780, 987.1627
282.9601, 985.2330
283.4422, 982.2995
283.9243, 977.8729
284.4065, 973.5438
284.8886, 969.8071
285.3707, 966.3170
285.8528, 962.5204
286.3349, 958.2050
286.8170, 953.6937
287.2992, 949.4747
287.7813, 945.5829
288.2634, 941.8762
288.7455, 937.9922
289.2276, 934.4420
289.7097, 932.2800
290.1919, 931.8061
290.6740, 931.4157
291.1561, 928.9290
291.6382, 924.0269
292.1203, 919.5195
292.6024, 915.6246
293.0846, 912.2717
293.5667, 909.5412
294.0488, 907.4172
294.5309, 905.4628
295.0130, 903.2012
295.4951, 900.6494
295.9773, 898.6205
296.4594, 897.2974
296.9415, 896.3900
297.4236, 895.9680
297.9057, 895.9371
298.3878, 895.4798
298.8700, 893.8409
299.3521, 891.2324
299.8342, 889.2305
300.3163, 887.9444
300.7984, 887.1542
301.2805, 887.0350
301.7627, 887.4131
302.2448, 887.4911
302.7269, 886.7834
303.2090, 885.5303
303.6911, 884.4942
304.1732, 883.7646
304.6554, 883.0818
305.1375, 882.1826
305.6196, 881.2360
306.1017, 880.7657
306.5838, 881.1078
307.0659, 881.7709
307.5481, 881.8234
308.0302, 881.2910
308.5123, 880.3691
308.9944, 878.9378
309.4765, 877.1971
309.9586, 875.4487
310.4408, 873.7443
310.9229, 872.1711
311.4050, 870.8865
311.8871, 869.8719
312.3692, 869.0047
312.8513, 868.4532
313.3335, 867.9436
313.8156, 867.1119
314.2977, 865.8973
314.7798, 864.5684
315.2619, 863.4469
315.7440, 862.4760
316.2262, 861.0417
316.7083, 858.6637
317.1904, 856.1042
317.6725, 853.8485
318.1546, 851.9322
318.6367, 850.5211
319.1188, 849.8553
319.6010, 849.8090
320.0831, 849.5945
320.5652, 849.1943
321.0473, 848.6526
321.5294, 847.9859
322.0115, 847.1992
322.4937, 846.2461
322.9758, 845.0234
323.4579, 843.7327
323.9400, 842.9495
324.4221, 842.9154
324.9042, 842.7713
325.3864, 841.9594
325.8685, 840.8685
326.3506, 840.3456
326.8327, 840.7607
327.3148, 841.4294
327.7969, 841.2230
328.2791, 840.0402
328.7612, 838.8427
329.2433, 837.6480
329.7254, 836.6057
330.2075, 835.9687
330.6896, 835.7809
331.1718, 835.7010
331.6539, 835.3556
332.1360, 834.7202
332.6181, 834.3323
333.1002, 834.2978
333.5823, 834.4493
334.0645, 834.5453
334.5466, 834.6410
335.0287, 835.1981
335.5108, 836.6675
335.9929, 838.8845
336.4750, 840.5435
336.9572, 841.6779
337.4393, 842.3154
337.9214, 842.0709
338.4035, 841.3218
338.8856, 840.9844
339.3677, 841.5162
339.8499, 842.6279
340.3320, 843.5576
340.8141, 844.1563
341.2962, 844.8602
341.7783, 845.7958
342.2604, 846.8656
342.7426, 847.9897
343.2247, 849.1422
343.7068, 850.2205
344.1889, 851.0657
344.6710, 851.5789
345.1531, 852.1280
345.6353, 852.4047
346.1174, 852.9342
346.5995, 854.3354
347.0816, 856.5338
347.5637, 858.7822
348.0458, 860.3889
348.5280, 861.3220
349.0101, 862.2906
349.4922, 862.7271
349.9743, 863.7502
350.4564, 866.4912
350.9385, 870.2086
351.4207, 873.0685
351.9028, 873.8688
352.3849, 873.2640
352.8670, 874.0991
353.3491, 877.8914
353.8312, 881.2328
354.3134, 883.0765
354.7955, 884.5077
355.2776, 887.0201
355.7597, 891.0974
356.2418, 895.7206
356.7239, 899.1522
357.2061, 900.4961
357.6882, 902.4271
358.1703, 905.4096
358.6524, 908.5715
359.1345, 911.3810
359.6166, 913.7634
360.0987, 915.7783
360.5808, 917.3640
361.0630, 918.3514
361.5451, 920.5700
362.0272, 925.9495
362.5093, 930.4719
362.9914, 932.2488
363.4735, 932.2231
363.9557, 932.3043
364.4378, 933.6862
364.9199, 935.9725
365.4020, 937.4697
365.8841, 937.7463
366.3662, 937.7501
366.8484, 937.6242
367.3305, 937.2897
367.8126, 936.7803
368.2947, 936.0777
368.7768, 934.9053
369.2589, 932.6461
369.7411, 928.6750
370.2232, 925.3351
370.7053, 923.5970
371.1874, 921.7137
371.6695, 918.4690
372.1516, 914.0648
372.6338, 909.6414
373.1159, 906.2029
373.5980, 903.7296
374.0801, 901.4737
374.5622, 899.8699
375.0443, 897.9162
375.5265, 895.0186
376.0086, 891.6331
376.4907, 888.4724
376.9728, 885.8606
377.4549, 883.6683
377.9370, 881.6761
378.4192, 880.0363
378.9013, 878.1628
379.3834, 875.6819
379.8655, 873.0378
380.3476, 870.4971
380.8297, 868.1190
381.3119, 865.9817
381.7940, 864.4079
382.2761, 863.3746
382.7582, 861.6871
383.2403, 858.5496
383.7224, 855.4994
384.2046, 853.5948
384.6867, 852.6447
385.1688, 851.8707
385.6509, 850.9512
386.1330, 849.9144
386.6151, 848.8471
387.0973, 847.7931
387.5794, 846.5426
388.0615, 844.6439
388.5436, 842.5475
389.0257, 840.9351
389.5078, 840.0778
389.9900, 839.4547
390.4721, 838.7752
390.9542, 837.9962
391.4363, 836.7288
391.9184, 834.5374
392.4005, 832.1855
392.8827, 830.8564
393.3648, 830.6302
393.8469, 830.1992
394.3290, 828.8719
394.8111, 827.0901
395.2932, 825.5498
395.7754, 824.3474
396.2575, 823.2985
396.7396, 822.1651
397.2217, 821.0134
397.7038, 820.3289
398.1859, 820.9140
398.6681, 821.2858
399.1501, 819.9801
399.6323, 817.5087
400.1144, 815.8214
400.5965, 816.0058
401.0786, 817.4158
401.5607, 818.2207
402.0428, 818.3291
402.5250, 818.1078
403.0071, 817.3491
403.4892, 816.4095
403.9713, 815.6979
404.4534, 815.3077
404.9355, 815.0659
405.4177, 814.7410
405.8998, 814.2355
406.3819, 814.2095
406.8640, 815.2629
407.3461, 816.1658
407.8282, 816.2814
408.3104, 815.7432
408.7925, 814.8943
409.2746, 813.8735
409.7567, 812.8757
410.2388, 812.7901
410.7209, 814.6983
411.2031, 816.1534
411.6852, 816.6571
412.1673, 816.7909
412.6494, 817.3216
413.1315, 818.3614
413.6136, 819.1160
414.0958, 818.2126
414.5779, 814.8526
415.0600, 813.0455
415.5421, 814.6364
416.0242, 816.1093
416.5063, 815.9523
416.9885, 814.5598
417.4706, 813.0836
417.9527, 812.1833
418.4348, 811.8029
418.9169, 811.7914
419.3990, 812.3235
419.8812, 812.8466
420.3633, 813.1553
420.8454, 813.3947
421.3275, 813.7667
421.8096, 814.3283
422.2917, 814.7296
422.7739, 814.4554
423.2560, 813.5470
423.7381, 812.8839
424.2202, 812.4422
424.7023, 812.5117
425.1844, 813.5594
425.6666, 815.3090
426.1487, 816.7641
426.6308, 817.1389
427.1129, 817.1464
427.5950, 817.7715
428.0771, 819.0297
428.5593, 820.8430
429.0414, 823.4895
429.5235, 826.5222
430.0056, 828.9439
430.4877, 830.6077
430.9698, 832.0084
431.4520, 833.6915
431.9341, 835.2383
432.4162, 835.5195
432.8983, 834.1105
433.3804, 832.4901
433.8625, 832.6765
434.3447, 835.0606
434.8268, 835.7031
435.3089, 832.8972
435.7910, 829.6520
436.2731, 827.8610
436.7552, 827.3750
437.2374, 827.3140
437.7195, 827.2267
438.2016, 827.0595
438.6837, 826.6080
439.1658, 825.8420
439.6479, 824.8164
440.1301, 822.9863
440.6122, 821.2143
441.0943, 820.6656
441.5764, 821.3950
442.0585, 822.1013
442.5406, 821.1940
443.0227, 818.3740
443.5049, 816.1425
443.9870, 814.5220
444.4691, 813.4968
444.9512, 813.5123
445.4333, 814.0514
445.9154, 814.4306
446.3976, 814.3532
446.8797, 813.6387
447.3618, 811.6669
447.8439, 807.8495
448.3260, 804.5272
448.8081, 802.3281
449.2903, 800.5999
449.7724, 798.8990
450.2545, 797.2305
450.7366, 795.9798
451.2187, 795.8531
451.7008, 796.4680
452.1830, 796.0771
452.6651, 794.2819
453.1472, 792.3984
453.6293, 791.1194
454.1114, 790.2607
454.5935, 789.6291
455.0757, 789.2256
455.5578, 788.9623
456.0399, 788.8595
456.5220, 788.8601
457.0041, 788.6597
457.4862, 788.0711
457.9684, 787.4688
458.4505, 787.3754
458.9326, 787.7717
459.4147, 788.2941
459.8968, 788.9492
460.3789, 789.6603
460.8611, 790.4372
461.3432, 791.2404
461.8253, 791.7972
462.3074, 791.8085
462.7895, 791.5875
463.2716, 792.4689
463.7538, 795.8063
464.2359, 798.4015
464.7180, 799.0087
465.2001, 799.2020
465.6822, 800.7590
466.1643, 803.9322
466.6465, 807.5146
467.1286, 810.1976
467.6107, 811.9167
468.0928, 813.5026
468.5749, 814.6865
469.0570, 816.0157
469.5392, 817.5730
470.0213, 819.3815
470.5034, 821.5419
470.9855, 824.1183
471.4676, 826.7755
471.9497, 829.0556
472.4319, 831.0861
472.9140, 832.1754
473.3961, 831.6759
473.8782, 830.6181
474.3603, 829.2750
474.8424, 827.8241
475.3246, 826.7381
475.8067, 826.7739
476.2888, 827.2078
476.7709, 826.3505
477.2530, 824.0538
477.7351, 821.4171
478.2173, 818.7496
478.6994, 816.1417
479.1815, 813.8024
479.6636, 811.8669
480.1457, 809.7431
480.6278, 807.1476
481.1100, 804.1564
481.5920, 800.7587
482.0742, 796.9277
482.5563, 793.2215
483.0384, 790.2909
483.5205, 788.0930
484.0026, 784.9324
484.4847, 780.0744
484.9669, 775.1205
485.4490, 770.4072
485.9311, 766.0820
486.4132, 762.4769
486.8953, 759.6951
487.3774, 757.3058
487.8596, 754.6114
488.3417, 751.3779
488.8238, 748.4320
489.3059, 746.3553
489.7880, 743.9770
490.2701, 740.2916
490.7523, 735.8674
491.2344, 732.0474
491.7165, 729.6965
492.1986, 728.3610
492.6807, 726.7758
493.1628, 724.7530
493.6450, 723.0193
494.1271, 722.4115
494.6092, 721.6599
495.0913, 719.5755
495.5734, 716.2682
496.0555, 713.2474
496.5377, 711.8027
497.0198, 711.4333
497.5019, 710.8831
497.9840, 710.1638
498.4661, 709.0521
498.9482, 707.0895
499.4304, 704.7599
499.9125, 702.9921
500.3946, 701.9236
500.8767, 701.1801
501.3588, 700.8420
501.8409, 700.6293
502.3231, 699.9132
502.8052, 698.5603
503.2873, 697.2484
503.7694, 696.7083
504.2515, 696.9727
504.7336, 696.6738
505.2158, 695.0752
505.6979, 693.8010
506.1800, 693.6490
506.6621, 694.1248
507.1442, 694.5594
507.6263, 694.6917
508.1085, 694.4875
508.5906, 693.8070
509.0727, 692.3818
509.5548, 691.4392
510.0369, 691.3210
510.5190, 691.3421
511.0012, 691.2760
511.4833, 691.1531
511.9654, 691.0662
512.4475, 691.0563
512.9296, 691.1234
513.4117, 691.3125
513.8939, 691.6570
514.3760, 691.8752
514.8581, 691.8655
515.3402, 691.7471
515.8223, 691.6306
516.3044, 691.5099
516.7866, 691.3287
517.2687, 690.9971
517.7508, 690.6311
518.2329, 690.4980
518.7150, 690.5610
519.1971, 690.2903
519.6793, 689.3835
520.1614, 688.0547
520.6435, 686.7939
521.1256, 685.6553
521.6077, 684.3983
522.0898, 682.9553
522.5720, 681.4003
523.0541, 679.7718
523.5362, 678.0977
524.0183, 676.3461
524.5004, 674.4326
524.9825, 672.5286
525.4647, 671.5443
525.9468, 672.6864
526.4289, 673.0355
526.9110, 671.7219
527.3931, 669.9904
527.8752, 668.7551
528.3574, 668.1730
528.8395, 668.0037
529.3216, 668.2487
529.8037, 668.7588
530.2858, 668.5078
530.7679, 667.1249
531.2501, 665.8431
531.7322, 665.1244
532.2143, 664.8143
532.6964, 664.7998
533.1785, 665.0734
533.6606, 665.5869
534.1428, 666.6111
534.6249, 667.7946
535.1070, 668.2911
535.5891, 667.9520
536.0712, 667.4666
536.5533, 667.3326
537.0355, 667.4975
537.5176, 667.6006
537.9997, 667.2506
538.4818, 667.3190
538.9639, 668.5736
539.4460, 670.1444
539.9282, 670.8278
540.4103, 670.4392
540.8924, 669.8172
541.3745, 669.8625
541.8566, 670.6024
542.3387, 671.0681
542.8209, 670.7996
543.3029, 670.8037
543.7850, 671.2308
544.2672, 672.0570
544.7493, 673.5203
545.2314, 675.6171
545.7135, 677.4056
546.1956, 677.2618
546.6777, 675.4637
547.1599, 675.5321
547.6420, 678.4118
548.1241, 681.5402
548.6062, 683.4561
549.0883, 684.5353
549.5704, 685.2374
550.0526, 685.4065
550.5347, 685.6942
551.0168, 686.4182
551.4989, 687.5727
551.9810, 689.2511
552.4631, 691.4827
552.9453, 693.8716
553.4274, 696.0853
553.9095, 698.1280
554.3916, 699.9449
554.8737, 700.9265
555.3558, 702.4363
555.8380, 705.1687
556.3201, 708.5012
556.8022, 711.6306
557.2843, 714.3691
557.7664, 717.0588
558.2485, 720.1864
558.7307, 723.7643
559.2128, 726.8797
559.6949, 728.7874
560.1770, 731.2979
560.6591, 735.1470
561.1412, 739.8000
561.6234, 744.6832
562.1055, 749.6478
562.5876, 754.7709
563.0697, 759.9382
563.5518, 765.3073
564.0339, 771.5986
564.5161, 779.1140
564.9982, 786.5475
565.4803, 792.8002
565.9624, 798.2007
566.4445, 804.2842
566.9266, 811.3350
567.4088, 818.6465
567.8909, 826.4781
568.3730, 834.1943
568.8551, 841.1143
569.3372, 847.0576
569.8193, 852.2412
570.3015, 856.8018
570.7836, 860.7433
571.2657, 863.8342
571.7478, 865.7057
572.2299, 867.1644
572.7120, 869.3834
573.1942, 870.6278
573.6763, 869.2274
574.1584, 864.9706
574.6405, 858.9500
575.1226, 851.6508
575.6047, 843.3154
576.0869, 834.9460
576.5690, 826.5904
577.0511, 818.0114
577.5332, 808.9689
578.0153, 799.7946
578.4974, 790.9994
578.9796, 782.5789
579.4617, 774.6039
579.9438, 767.3616
580.4259, 760.4348
580.9080, 753.0616
581.3901, 745.3759
581.8723, 738.4047
582.3544, 732.9158
582.8365, 728.3947
583.3186, 723.0045
583.8007, 714.8328
584.2828, 708.7618
584.7650, 706.5048
585.2471, 704.8470
585.7292, 701.6159
586.2113, 697.0319
586.6934, 692.4877
587.1755, 688.8140
587.6577, 685.8030
588.1398, 683.0671
588.6219, 680.6142
589.1040, 678.3412
589.5861, 676.1777
590.0682, 674.2331
590.5504, 672.6942
591.0325, 671.4955
591.5146, 670.2332
591.9967, 668.7828
592.4788, 667.2248
592.9609, 665.6179
593.4431, 663.9730
593.9252, 662.2683
594.4073, 660.4892
594.8894, 658.7653
595.3715, 657.2354
595.8536, 655.8281
596.3358, 654.9732
596.8179, 655.1526
597.3000, 655.2659
597.7821, 654.9480
598.2642, 654.3121
598.7463, 653.5256
599.2285, 652.6491
599.7106, 651.7147
600.1927, 650.6154
600.6748, 649.3707
601.1569, 648.7747
601.6390, 649.2092
602.1212, 649.5489
602.6033, 648.9296
603.0854, 647.8691
603.5675, 647.1846
604.0496, 647.1008
604.5317, 646.9971
605.0139, 646.4352
605.4960, 645.7145
605.9781, 645.4296
606.4602, 645.5775
606.9423, 645.4112
607.4244, 644.3304
607.9066, 642.5818
608.3887, 641.2645
608.8708, 640.7425
609.3529, 640.1671
609.8350, 639.2891
610.3171, 638.5295
610.7993, 638.2476
611.2814, 638.3724
611.7635, 638.5907
612.2456, 638.7537
612.7277, 638.8057
613.2098, 638.5746
613.6920, 638.0274
614.1741, 637.5663
614.6562, 637.3759
615.1383, 637.1798
615.6204, 636.4590
616.1025, 635.3625
616.5847, 634.9287
617.0668, 636.1514
617.5489, 637.3205
618.0310, 636.9780
618.5131, 635.8529
618.9952, 635.5159
619.4774, 636.4192
619.9595, 637.7604
620.4416, 638.6158
620.9237, 638.9623
621.4058, 639.2328
621.8879, 638.9776
622.3701, 639.2305
622.8522, 640.8439
623.3343, 642.6998
623.8164, 643.3962
624.2985, 642.7653
624.7806, 642.2755
625.2628, 643.4182
625.7448, 645.5659
626.2269, 646.9162
626.7090, 647.3551
627.1912, 648.0274
627.6733, 649.6949
628.1554, 651.6752
628.6375, 652.4242
629.1196, 651.5038
629.6017, 651.6034
630.0839, 653.5779
630.5660, 656.2780
631.0481, 659.4016
631.5302, 662.5625
632.0123, 665.0197
632.4944, 666.4207
632.9766, 667.3093
633.4587, 668.6094
633.9408, 670.4361
634.4229, 672.1003
634.9050, 673.4036
635.3871, 674.7825
635.8693, 676.6402
636.3514, 678.6160
636.8335, 680.1052
637.3156, 680.8705
637.7977, 681.5554
638.2798, 682.8542
638.7620, 684.3099
639.2441, 685.0410
639.7262, 684.9529
640.2083, 684.4508
640.6904, 683.7257
641.1725, 682.8627
641.6547, 682.1482
642.1368, 682.1786
642.6189, 681.4380
643.1010, 679.2430
643.5831, 676.8881
644.0652, 675.3659
644.5474, 674.3678
645.0295, 672.8991
645.5116, 670.3969
645.9937, 667.4304
646.4758, 665.0885
646.9579, 663.3610
647.4401, 660.7432
647.9222, 656.5605
648.4043, 652.4485
648.8864, 649.8824
649.3685, 648.3993
649.8506, 646.6205
650.3328, 644.2169
650.8149, 641.8676
651.2970, 639.8197
651.7791, 637.9926
652.2612, 636.3708
652.7433, 634.9079
653.2255, 633.3429
653.7076, 631.3768
654.1897, 629.3849
654.6718, 629.0277
655.1539, 631.5539
655.6360, 632.6719
656.1182, 630.7200
656.6003, 628.0852
657.0824, 625.5655
657.5645, 623.3947
658.0466, 622.0951
658.5287, 622.2430
659.0109, 622.7003
659.4930, 622.4153
659.9751, 621.5775
660.4572, 620.7283
660.9393, 619.9877
661.4214, 619.1221
661.9036, 617.8777
662.3857, 616.3068
662.8678, 614.9872
663.3499, 614.0439
663.8320, 613.2076
664.3141, 612.1124
664.7963, 611.3839
665.2784, 611.8567
665.7605, 613.2372
666.2426, 614.3323
666.7247, 614.4133
667.2068, 613.7875
667.6890, 612.9641
668.1711, 611.9427
668.6532, 610.5292
669.1353, 608.3330
669.6174, 606.5999
670.0995, 606.8699
670.5817, 608.9004
671.0638, 610.0078
671.5459, 609.5147
672.0280, 608.8714
672.5101, 608.4246
672.9922, 608.1191
673.4744, 608.0027
673.9565, 607.9960
674.4386, 607.7753
674.9207, 607.0452
675.4028, 605.9955
675.8849, 605.1943
676.3671, 604.6077
676.8492, 604.4749
677.3313, 605.4332
677.8134, 606.1834
678.2955, 605.3458
678.7776, 603.4106
679.2598, 602.1514
679.7419, 602.3119
680.2240, 602.8074
680.7061, 603.0902
681.1882, 603.2633
681.6703, 603.5755
682.1525, 604.0238
682.6346, 604.2363
683.1167, 603.8669
683.5988, 603.0587
684.0809, 602.5298
684.5630, 602.4668
685.0452, 602.2795
685.5273, 601.5446
686.0094, 600.9720
686.4915, 601.2301
686.9736, 602.0068
687.4557, 602.3371
687.9379, 601.7117
688.4200, 600.7795
688.9021, 599.8618
689.3842, 599.1140
689.8663, 599.0974
690.3484, 599.8875
690.8306, 600.5775
691.3127, 600.4177
691.7948, 599.6003
692.2769, 599.1043
692.7590, 599.3934
693.2411, 599.2634
693.7233, 597.9709
694.2054, 596.9111
694.6875, 597.3180
695.1696, 598.6442
695.6517, 599.3408
696.1339, 598.5807
696.6160, 597.4446
697.0981, 597.1755
697.5802, 597.5378
698.0623, 597.6852
698.5444, 597.4807
699.0266, 597.1971
699.5087, 597.0081
699.9908, 596.8920
700.4729, 596.7811
700.9550, 596.7963
701.4371, 596.6124
701.9193, 595.9388
702.4014, 595.3248
702.8835, 595.0996
703.3656, 595.2014
703.8477, 595.4642
704.3298, 595.8301
704.8120, 596.2194
705.2941, 596.5334
705.7762, 596.7850
706.2583, 597.0324
706.7404, 597.2853
707.2225, 597.5394
707.7046, 597.8780
708.1867, 598.1544
708.6688, 597.9376
709.1509, 596.9315
709.6331, 596.2100
710.1152, 595.7078
710.5973, 595.6303
711.0794, 596.4627
711.5615, 597.7021
712.0436, 598.5037
712.5258, 598.5616
713.0079, 598.1766
713.4900, 597.3826
713.9721, 596.3731
714.4542, 596.4457
714.9363, 597.8625
715.4185, 598.8756
715.9006, 598.4304
716.3827, 597.4093
716.8648, 597.4191
717.3469, 598.6954
717.8290, 599.4773
718.3112, 599.0879
718.7933, 598.7399
719.2754, 599.2028
719.7575, 600.0178
720.2396, 600.4557
720.7217, 600.3513
721.2039, 600.1591
721.6860, 600.4749
722.1681, 601.0289
722.6502, 600.4851
723.1323, 598.6203
723.6144, 597.5773
724.0966, 598.4020
724.5787, 599.7704
725.0608, 600.0557
725.5429, 599.2903
726.0250, 598.9444
726.5071, 599.5668
726.9893, 600.0628
727.4714, 599.6535
727.9535, 599.1415
728.4356, 599.6346
728.9177, 601.0920
729.3998, 602.4509
729.8820, 602.8973
730.3641, 602.8020
730.8462, 603.0946
731.3283, 603.7986
731.8104, 604.0817
732.2925, 603.6829
732.7747, 603.0380
733.2568, 602.2846
733.7389, 601.5606
734.2210, 601.5273
734.7031, 602.8952
735.1852, 603.8386
735.6674, 603.6960
736.1495, 603.2200
736.6316, 602.9121
737.1137, 602.8320
737.5958, 602.9838
738.0779, 603.4003
738.5601, 603.7584
739.0422, 603.5594
739.5243, 602.8460
740.0064, 601.8504
740.4885, 600.4150
740.9706, 599.5842
741.4528, 600.2743
741.9349, 601.7098
742.4170, 602.1044
742.8991, 601.1293
743.3812, 600.3754
743.8633, 599.9148
744.3455, 599.7684
744.8276, 600.1501
745.3097, 600.7797
745.7918, 601.2786
746.2739, 601.5302
746.7560, 601.6101
747.2382, 601.6765
747.7203, 601.6152
748.2024, 600.7783
748.6845, 599.1293
749.1666, 598.4090
749.6487, 599.4906
750.1309, 600.9975
750.6130, 601.2995
751.0951, 600.3123
751.5772, 599.5110
752.0593, 598.7781
752.5414, 598.3526
753.0236, 598.5451
753.5057, 598.8662
753.9878, 598.8342
754.4699, 598.4772
754.9520, 598.1495
755.4341, 598.0314
755.9163, 598.0655
756.3984, 598.2082
756.8805, 598.4385
757.3626, 598.7884
757.8447, 599.2986
758.3268, 599.3552
758.8090, 598.4116
759.2911, 596.8029
759.7732, 595.6168
760.2553, 594.7219
760.7374, 594.5445
761.2195, 596.0187
761.7017, 597.1970
762.1838, 597.0084
762.6659, 595.9819
763.1480, 594.9375
763.6301, 594.0952
764.1122, 593.4366
764.5944, 592.8359
765.0765, 592.4685
765.5586, 592.8203
766.0407, 593.7412
766.5228, 594.4198
767.0049, 594.5523
767.4871, 594.1931
767.9692, 593.3424
768.4513, 591.9575
768.9334, 590.8500
769.4155, 589.9074
769.8976, 589.4166
770.3798, 589.7818
770.8619, 590.3231
771.3440, 590.4691
771.8261, 590.2815
772.3082, 590.2499
772.7903, 590.7656
773.2725, 591.1912
773.7546, 590.9294
774.2367, 590.3596
774.7188, 590.0961
775.2009, 590.1868
775.6830, 590.2929
776.1652, 590.1888
776.6473, 589.9733
777.1294, 589.8850
777.6115, 589.9501
778.0936, 589.9671
778.5757, 589.8468
779.0579, 589.8287
779.5400, 590.2184
780.0221, 590.7160
780.5042, 590.8020
780.9863, 590.3940
781.4684, 589.9163
781.9506, 589.3842
782.4327, 588.8995
782.9148, 588.5449
783.3969, 588.2729
783.8790, 587.8715
784.3611, 587.3557
784.8433, 587.2507
785.3254, 588.2956
785.8075, 589.9613
786.2896, 590.5402
786.7717, 590.0129
787.2538, 589.5967
787.7360, 589.6814
788.2181, 589.6601
788.7002, 588.8417
789.1823, 587.3747
789.6644, 586.5518
790.1465, 586.5773
790.6286, 586.9189
791.1107, 588.0676
791.5928, 589.0347
792.0750, 588.9697
792.5571, 588.2665
793.0392, 587.8483
793.5213, 588.0699
794.0034, 588.4142
794.4855, 588.5240
794.9677, 588.4081
795.4498, 587.8588
795.9319, 586.9979
796.4140, 586.7695
796.8961, 587.6149
797.3782, 588.6749
797.8604, 588.7073
798.3425, 587.6500
798.8246, 587.0015
799.3067, 586.9547
799.7888, 586.9549
800.2709, 586.9788
800.7531, 586.9076
801.2352, 586.5257
801.7173, 585.9305
802.1994, 585.6100
802.6815, 585.9576
803.1636, 586.2181
803.6458, 585.5139
804.1279, 584.8182
804.6100, 585.6008
805.0921, 587.5725
805.5742, 589.2786
806.0563, 589.9255
806.5385, 589.9266
807.0206, 589.8698
807.5027, 589.7542
807.9848, 589.5862
808.4669, 589.4193
808.9490, 588.8361
809.4312, 587.3198
809.9133, 585.7567
810.3954, 585.6869
810.8775, 587.5004
811.3596, 588.2092
811.8417, 586.6869
812.3239, 585.5114
812.8060, 585.7990
813.2881, 586.4470
813.7702, 586.1218
814.2523, 585.0568
814.7344, 584.7835
815.2166, 586.3440
815.6987, 588.3859
816.1808, 589.6912
816.6629, 590.3535
817.1450, 590.4229
817.6271, 589.9791
818.1093, 589.4907
818.5914, 589.2062
819.0735, 589.1259
819.5556, 589.3029
820.0377, 589.8069
820.5198, 590.0446
821.0020, 589.6706
821.4841, 589.6898
821.9662, 591.1352
822.4483, 592.6850
822.9304, 592.6027
823.4125, 590.9512
823.8947, 589.9435
824.3768, 590.6965
824.8589, 591.3719
825.3410, 590.8965
825.8231, 590.1123
826.3052, 590.0441
826.7874, 590.6442
827.2695, 591.2364
827.7516, 591.4902
828.2337, 591.3606
828.7158, 590.3868
829.1979, 588.9338
829.6801, 588.8334
830.1622, 590.2526
830.6443, 591.1778
831.1264, 590.4845
831.6085, 589.1309
832.0906, 588.6993
832.5728, 589.3254
833.0549, 589.8683
833.5370, 590.2722
834.0191, 590.6564
834.5012, 591.2743
834.9833, 591.7007
835.4655, 591.4750
835.9476, 590.7064
836.4297, 589.9918
836.9118, 589.4088
837.3939, 589.0850
837.8760, 589.1887
838.3582, 589.5273
838.8403, 589.9679
839.3224, 590.4340
839.8045, 590.8128
840.2866, 591.0528
840.7687, 591.1266
841.2509, 590.9210
841.7330, 590.4964
842.2151, 590.0303
842.6972, 589.4760
843.1793, 589.8896
843.6614, 591.9798
844.1436, 594.2267
844.6257, 594.7772
845.1078, 593.6755
845.5899, 592.9485
846.0720, 592.8271
846.5541, 592.7429
847.0363, 592.3369
847.5184, 592.2354
848.0005, 593.0441
848.4826, 594.4205
848.9647, 595.6135
849.4468, 596.4562
849.9290, 597.0027
850.4111, 597.1588
850.8932, 597.1395
851.3753, 597.1810
851.8574, 597.2335
852.3395, 597.1370
852.8217, 596.8519
853.3038, 596.4269
853.7859, 595.7098
854.2680, 595.0732
854.7501, 596.1018
855.2322, 598.7972
855.7144, 600.2659
856.1965, 599.6916
856.6786, 598.8514
857.1607, 599.0345
857.6428, 599.9787
858.1249, 600.8926
858.6071, 602.0892
859.0892, 602.5470
859.5713, 601.3648
860.0534, 600.5085
860.5355, 600.8548
861.0176, 601.7922
861.4998, 602.6639
861.9819, 603.3724
862.4640, 603.8910
862.9461, 604.3104
863.4282, 604.4340
863.9103, 603.7453
864.3925, 602.8822
864.8746, 602.8813
865.3567, 603.6859
865.8388, 604.5280
866.3209, 605.0179
866.8030, 604.9044
867.2852, 603.3409
867.7673, 600.7321
868.2494, 599.3574
868.7315, 599.3852
869.2136, 599.5047
869.6957, 599.1998
870.1779, 598.6634
870.6600, 598.1652
871.1421, 597.7064
871.6242, 596.9979
872.1063, 595.8323
872.5884, 594.7790
873.0705, 593.7653
873.5526, 593.0534
874.0347, 593.2625
874.5168, 593.8410
874.9990, 593.3182
875.4811, 590.9681
875.9632, 589.0355
876.4453, 588.6606
876.9274, 588.6464
877.4095, 587.9831
877.8917, 587.1029
878.3738, 587.0538
878.8559, 587.9267
879.3380, 588.4531
879.8201, 587.3860
880.3022, 585.7131
880.7844, 585.0762
881.2665, 585.2394
881.7486, 585.3591
882.2307, 585.2998
882.7128, 585.2260
883.1949, 585.2106
883.6771, 585.3792
884.1592, 586.0948
884.6413, 587.4930
885.1234, 588.4611
885.6055, 589.1289
886.0876, 588.9775
886.5698, 587.3058
887.0519, 585.2657
887.5340, 583.9033
888.0161, 583.2462
888.4982, 583.6075
888.9803, 586.3873
889.4625, 588.2209
889.9446, 588.0897
890.4267, 587.2605
890.9088, 586.1651
891.3909, 585.1641
891.8730, 584.8537
892.3552, 585.4203
892.8373, 586.0859
893.3194, 586.4666
893.8015, 586.6116
894.2836, 586.4514
894.7657, 586.1325
895.2479, 585.9043
895.7300, 585.8420
896.2121, 585.9708
896.6942, 586.3123
897.1763, 586.8376
897.6584, 587.5834
898.1406, 588.5031
898.6227, 589.1552
899.1048, 589.4821
899.5869, 589.6693
900.0690, 589.7487
900.5511, 589.8845
901.0333, 590.3391
901.5154, 591.1265
901.9975, 591.8914
902.4796, 592.5707
902.9617, 593.3548
903.4438, 594.3445
903.9260, 595.3932
904.4081, 596.3825
904.8902, 597.3557
905.3723, 598.3878
905.8544, 599.4102
906.3365, 600.7074
906.8187, 602.7201
907.3008, 604.6270
907.7829, 606.1187
908.2650, 607.0795
908.7471, 607.0566
909.2292, 606.2244
909.7114, 605.8804
910.1935, 606.8099
910.6756, 608.5084
911.1577, 610.8893
911.6398, 613.5019
912.1219, 615.4061
912.6041, 616.6432
913.0862, 617.8782
913.5683, 619.4258
914.0504, 621.3036
914.5325, 623.5663
915.0146, 626.1898
915.4968, 629.1037
915.9789, 632.3215
916.4610, 635.7421
916.9431, 639.3885
917.4252, 643.1646
917.9073, 647.0159
918.3895, 650.9559
918.8716, 655.0596
919.3537, 659.4847
919.8358, 663.7634
920.3179, 668.0646
920.8000, 671.9591
921.2822, 675.4421
921.7643, 678.3085
922.2464, 680.1466
922.7285, 680.9874
923.2106, 681.7072
923.6927, 682.9122
924.1749, 683.3448
924.6570, 682.6205
925.1391, 681.0179
925.6212, 678.6767
926.1033, 675.6672
926.5854, 672.0233
927.0676, 667.7526
927.5497, 663.0960
928.0318, 658.0475
928.5139, 652.8842
928.9960, 647.5033
929.4781, 642.3114
929.9603, 638.2906
930.4424, 635.3554
930.9245, 632.2050
931.4066, 627.9515
931.8887, 623.4113
932.3708, 619.9081
932.8530, 617.2527
933.3351, 614.6932
933.8172, 612.1924
934.2993, 609.8356
934.7814, 607.6624
935.2635, 605.6973
935.7457, 603.9469
936.2278, 602.4436
936.7099, 601.4788
937.1920, 601.2292
937.6741, 600.6899
938.1563, 599.5726
938.6384, 598.5701
939.1205, 598.3260
939.6026, 598.1996
940.0847, 596.9119
940.5668, 594.1604
941.0490, 592.0576
941.5311, 590.9683
942.0132, 590.0007
942.4953, 588.9451
942.9774, 588.0004
943.4595, 587.5389
943.9417, 587.2809
944.4238, 586.4159
944.9059, 584.5225
945.3880, 583.0449
945.8701, 582.8223
946.3522, 582.8254
946.8344, 582.5610
947.3165, 582.0033
947.7986, 580.9382
948.2807, 579.5403
948.7628, 578.6252
949.2449, 578.7933
949.7271, 579.1656
950.2092, 578.9024
950.6913, 578.2984
951.1734, 577.8295
951.6555, 577.4462
952.1376, 576.7483
952.6198, 575.6446
953.1019, 574.7229
953.5840, 574.6531
954.0661, 575.0262
954.5482, 574.6235
955.0303, 573.6564
955.5124, 573.7501
955.9945, 575.1273
956.4766, 576.1787
956.9587, 575.9821
957.4409, 575.3348
957.9230, 575.5634
958.4051, 576.6462
958.8872, 577.3272
959.3693, 577.6052
959.8514, 577.3834
960.3336, 576.2891
960.8157, 575.5212
961.2978, 576.1642
961.7799, 577.6901
962.2620, 578.6022
962.7441, 578.6600
963.2263, 578.8380
963.7084, 578.7623
964.1905, 579.3287
964.6726, 581.2565
965.1547, 583.5101
965.6368, 585.2635
966.1190, 586.5709
966.6011, 587.8007
967.0832, 589.0919
967.5653, 590.1262
968.0474, 590.7083
968.5295, 591.1537
969.0117, 591.5823
969.4938, 592.0151
969.9759, 592.4725
970.4580, 592.9489
970.9401, 593.3844
971.4222, 593.7181
971.9044, 594.0605
972.3865, 594.7302
972.8686, 595.2504
973.3507, 594.9799
973.8328, 594.1570
974.3149, 593.4456
974.7971, 593.0199
975.2792, 592.4041
975.7613, 591.1622
976.2434, 589.5966
976.7255, 587.8917
977.2076, 586.2444
977.6898, 585.3024
978.1719, 584.9134
978.6540, 583.9738
979.1361, 581.9560
979.6182, 579.6906
980.1003, 578.1115
980.5825, 577.1437
981.0646, 576.8621
981.5467, 577.1224
982.0288, 576.6957
982.5109, 575.3435
982.9930, 573.5746
983.4752, 571.6608
983.9573, 569.8422
984.4394, 568.7119
984.9215, 568.2819
985.4036, 567.0139
985.8857, 564.6329
986.3679, 563.1003
986.8500, 563.0294
987.3321, 563.6554
987.8142, 564.6074
988.2963, 565.5482
988.7784, 565.3334
989.2606, 563.5291
989.7427, 562.1106
990.2248, 561.2708
990.7069, 560.4152
991.1890, 559.0471
991.6711, 557.9348
992.1533, 558.0841
992.6354, 559.2099
993.1175, 559.6062
993.5996, 558.9637
994.0817, 558.1572
994.5638, 556.9125
995.0460, 555.8460
995.5281, 555.1939
996.0102, 554.8430
996.4923, 554.7925
996.9744, 554.9713
997.4565, 554.9567
997.9387, 554.6673
998.4208, 554.1833
998.9029, 553.1019
999.3850, 552.2738
999.8671, 552.6668
1000.349, 553.4294
1000.831, 553.1731
1001.313, 551.8399
1001.796, 550.8088
1002.278, 550.8947
1002.760, 551.0389
1003.242, 550.4494
1003.724, 549.8452
1004.206, 549.5830
1004.688, 549.9435
1005.170, 551.8655
1005.653, 555.2829
1006.135, 557.5850
1006.617, 556.6201
1007.099, 554.5455
1007.581, 552.9697
1008.063, 551.8201
1008.545, 551.1042
1009.027, 550.7140
1009.509, 550.4335
1009.992, 550.1773
1010.474, 549.9081
1010.956, 549.6258
1011.438, 549.2802
1011.920, 548.6027
1012.402, 547.8611
1012.884, 547.7347
1013.366, 548.2117
1013.849, 548.9072
1014.331, 549.6426
1014.813, 550.1622
1015.295, 550.1136
1015.777, 549.6900
1016.259, 549.3912
1016.741, 549.1596
1017.223, 548.6571
1017.705, 547.8705
1018.188, 547.2350
1018.670, 546.9809
1019.152, 546.8430
1019.634, 546.3397
1020.116, 545.6703
1020.598, 546.0793
1021.080, 547.4981
1021.562, 547.9709
1022.044, 547.1066
1022.527, 546.3267
1023.009, 546.4776
1023.491, 547.0294
1023.973, 547.1454
1024.455, 546.8476
1024.937, 546.5534
1025.419, 546.3186
1025.901, 545.5474
1026.384, 543.9851
1026.866, 542.4261
1027.348, 541.1683
1027.830, 540.6801
1028.312, 542.1139
1028.794, 545.6286
1029.276, 547.2767
1029.758, 546.6014
1030.240, 545.6070
1030.723, 544.3980
1031.205, 543.6052
1031.687, 543.8358
1032.169, 544.5364
1032.651, 544.5574
1033.133, 543.7985
1033.615, 543.1641
1034.097, 542.5562
1034.579, 542.2802
1035.062, 542.4592
1035.544, 542.8972
1036.026, 543.7606
1036.508, 544.6077
1036.990, 544.3670
1037.472, 542.7039
1037.954, 541.8367
1038.436, 542.6071
1038.919, 542.8162
1039.401, 541.4536
1039.883, 540.1252
1040.365, 540.1360
1040.847, 540.8243
1041.329, 540.7055
1041.811, 539.5367
1042.293, 538.8774
1042.776, 539.3186
1043.258, 539.4891
1043.740, 539.0002
1044.222, 538.3095
1044.704, 537.3180
1045.186, 536.4681
1045.668, 536.7733
1046.150, 538.5193
1046.632, 539.8084
1047.115, 540.7013
1047.597, 540.7509
1048.079, 538.8201
1048.561, 537.0074
1049.043, 537.0546
1049.525, 538.1328
1050.007, 538.5884
1050.489, 538.1866
1050.971, 537.7785
1051.454, 537.3995
1051.936, 537.2084
1052.418, 537.4567
1052.900, 537.7109
1053.382, 537.6414
1053.864, 537.3588
1054.346, 537.0287
1054.828, 536.6678
1055.311, 536.5701
1055.793, 537.2768
1056.275, 537.6332
1056.757, 536.7547
1057.239, 535.8611
1057.721, 535.7495
1058.203, 536.3301
1058.685, 537.6249
1059.167, 539.5873
1059.650, 540.7552
1060.132, 540.1407
1060.614, 539.3431
1061.096, 538.5751
1061.578, 538.2325
1062.060, 539.1909
1062.542, 540.5103
1063.024, 540.5767
1063.506, 539.2006
1063.989, 537.6404
1064.471, 535.7875
1064.953, 534.6207
1065.435, 535.2586
1065.917, 536.0217
1066.399, 535.3578
1066.881, 534.0828
1067.363, 533.4891
1067.846, 533.7782
1068.328, 534.5875
1068.810, 536.4888
1069.292, 537.6544
1069.774, 536.7606
1070.256, 535.3449
1070.738, 534.2628
1071.220, 533.5756
1071.703, 533.3848
1072.185, 533.5837
1072.667, 533.5783
1073.149, 533.0247
1073.631, 532.5289
1074.113, 532.4542
1074.595, 532.4512
1075.077, 532.2665
1075.559, 531.9969
1076.042, 531.7291
1076.524, 531.5153
1077.006, 531.5267
1077.488, 531.9794
1077.970, 532.1502
1078.452, 531.2703
1078.934, 530.4706
1079.416, 530.5695
1079.898, 531.1467
1080.380, 531.9694
1080.863, 532.7466
1081.345, 532.7117
1081.827, 531.4379
1082.309, 530.3143
1082.791, 530.0430
1083.273, 530.0096
1083.755, 530.0024
1084.237, 529.9080
1084.720, 529.2883
1085.202, 528.5432
1085.684, 528.9362
1086.166, 530.9711
1086.648, 532.3206
1087.130, 531.6379
1087.612, 530.4707
1088.094, 529.3715
1088.577, 528.3680
1089.059, 527.5009
1089.541, 526.7222
1090.023, 525.8285
1090.505, 524.7723
1090.987, 524.2965
1091.469, 525.0850
1091.951, 525.9756
1092.433, 526.6459
1092.916, 527.0670
1093.398, 527.4298
1093.880, 527.4302
1094.362, 526.2703
1094.844, 523.9805
1095.326, 522.3231
1095.808, 522.3424
1096.290, 522.3594
1096.772, 521.6913
1097.255, 520.9960
1097.737, 520.5110
1098.219, 520.3578
1098.701, 520.8842
1099.183, 521.9417
1099.665, 522.5157
1100.147, 522.1482
1100.629, 521.7454
1101.112, 521.5604
1101.594, 521.3625
1102.076, 521.2270
1102.558, 520.8725
1103.040, 519.3400
1103.522, 517.3030
1104.004, 517.5828
1104.486, 522.0123
1104.969, 524.1741
1105.451, 520.8484
1105.933, 517.7967
1106.415, 517.0848
1106.897, 517.3602
1107.379, 517.9197
1107.861, 518.4811
1108.343, 518.4509
1108.825, 517.6575
1109.307, 517.0231
1109.790, 516.7465
1110.272, 516.4630
1110.754, 516.0236
1111.236, 515.6411
1111.718, 515.4478
1112.200, 515.3936
1112.682, 515.3904
1113.164, 515.4366
1113.647, 515.6109
1114.129, 516.4242
1114.611, 516.5026
1115.093, 514.9445
1115.575, 513.7703
1116.057, 514.3998
1116.539, 515.2983
1117.021, 514.3062
1117.504, 511.8570
1117.986, 511.2738
1118.468, 513.8488
1118.950, 515.1578
1119.432, 514.4885
1119.914, 513.8946
1120.396, 514.0060
1120.878, 514.4472
1121.360, 515.0861
1121.843, 515.6704
1122.325, 515.3440
1122.807, 513.8255
1123.289, 513.1704
1123.771, 513.6286
1124.253, 514.1711
1124.735, 514.7563
1125.217, 514.8087
1125.699, 513.8216
1126.182, 512.3809
1126.664, 511.4458
1127.146, 511.0135
1127.628, 511.1985
1128.110, 512.1425
1128.592, 512.3045
1129.074, 511.3765
1129.556, 510.4577
1130.039, 510.0365
1130.521, 509.8966
1131.003, 509.8374
1131.485, 509.7923
1131.967, 509.4311
1132.449, 508.7923
1132.931, 508.5868
1133.413, 508.8507
1133.896, 509.4183
1134.378, 510.2377
1134.860, 511.0444
1135.342, 511.6831
1135.824, 511.9252
1136.306, 510.9856
1136.788, 509.3368
1137.270, 508.9472
1137.752, 509.5889
1138.234, 510.0624
1138.717, 510.1554
1139.199, 510.1765
1139.681, 510.2848
1140.163, 510.4016
1140.645, 510.3733
1141.127, 510.3591
1141.609, 510.9567
1142.091, 511.6738
1142.574, 511.0877
1143.056, 509.5620
1143.538, 508.8300
1144.020, 509.3488
1144.502, 509.9055
1144.984, 509.5316
1145.466, 509.1091
1145.948, 509.7523
1146.431, 510.7245
1146.913, 511.2276
1147.395, 511.2839
1147.877, 510.9264
1148.359, 510.2802
1148.841, 509.7446
1149.323, 509.5134
1149.805, 509.2352
1150.287, 508.4170
1150.770, 507.7799
1151.252, 508.2278
1151.734, 508.8219
1152.216, 508.1308
1152.698, 506.8445
1153.180, 507.0802
1153.662, 509.2649
1154.144, 510.2207
1154.626, 507.1841
1155.109, 505.1783
1155.591, 507.2860
1156.073, 509.3597
1156.555, 508.1465
1157.037, 505.8146
1157.519, 505.4398
1158.001, 506.8795
1158.483, 507.7423
1158.966, 507.4653
1159.448, 507.3423
1159.930, 507.5711
1160.412, 507.8014
1160.894, 508.0497
1161.376, 508.1429
1161.858, 507.8739
1162.340, 507.4020
1162.822, 507.0610
1163.305, 506.8499
1163.787, 506.8204
1164.269, 507.2343
1164.751, 506.9414
1165.233, 505.3789
1165.715, 504.3672
1166.197, 504.9188
1166.679, 505.9959
1167.161, 506.3755
1167.644, 506.2494
1168.126, 506.5665
1168.608, 507.3713
1169.090, 506.8777
1169.572, 504.9513
1170.054, 504.2315
1170.536, 505.4679
1171.018, 506.6198
1171.500, 506.2504
1171.983, 505.2512
1172.465, 505.0762
1172.947, 505.4348
1173.429, 505.2512
1173.911, 504.7350
1174.393, 504.8623
1174.875, 505.5510
1175.357, 505.6872
1175.840, 504.8852
1176.322, 503.8838
1176.804, 503.1641
1177.286, 502.8313
1177.768, 503.2624
1178.250, 503.9815
1178.732, 504.4669
1179.214, 504.6157
1179.697, 504.1974
1180.179, 503.3266
1180.661, 502.5069
1181.143, 501.9137
1181.625, 501.6445
1182.107, 502.1742
1182.589, 502.5474
1183.071, 501.6070
1183.553, 500.6869
1184.036, 501.5298
1184.518, 503.1678
1185.000, 503.4967
1185.482, 502.3023
1185.964, 501.5537
1186.446, 502.1751
1186.928, 502.5001
1187.410, 501.7844
1187.892, 501.3110
1188.375, 502.1085
1188.857, 502.9610
1189.339, 502.5865
1189.821, 501.4306
1190.303, 500.7845
1190.785, 500.7425
1191.267, 500.5082
1191.749, 499.2652
1192.232, 500.6028
1192.714, 506.6768
1193.196, 510.2963
1193.678, 506.9482
1194.160, 502.2685
1194.642, 503.6357
1195.124, 508.8297
1195.606, 508.2633
1196.089, 502.2609
1196.571, 499.8941
1197.053, 501.4394
1197.535, 503.7608
1198.017, 505.9805
1198.499, 507.2823
1198.981, 507.1071
1199.463, 506.5294
1199.945, 507.5547
1200.427, 508.7367
1200.910, 506.4421
1201.392, 502.3279
1201.874, 499.7265
1202.356, 498.8302
1202.838, 499.2603
1203.320, 500.6298
1203.802, 501.4249
1204.284, 500.6007
1204.767, 499.4484
1205.249, 498.8766
1205.731, 498.4582
1206.213, 497.7110
1206.695, 497.0135
1207.177, 496.9619
1207.659, 497.3420
1208.141, 497.4154
1208.624, 497.0013
1209.106, 496.9546
1209.588, 498.2239
1210.070, 498.7627
1210.552, 497.1613
1211.034, 495.9042
1211.516, 496.5923
1211.998, 497.9173
1212.480, 498.8784
1212.963, 499.3201
1213.445, 498.4818
1213.927, 495.8499
1214.409, 494.5651
1214.891, 494.9214
1215.373, 495.5096
1215.855, 496.1559
1216.337, 496.5526
1216.819, 496.4962
1217.302, 496.3914
1217.784, 496.8859
1218.266, 497.4728
1218.748, 496.0348
1219.230, 493.2239
1219.712, 492.6045
1220.194, 493.9070
1220.676, 494.7235
1221.159, 494.5413
1221.641, 494.0313
1222.123, 493.5313
1222.605, 493.4111
1223.087, 494.3057
1223.569, 495.5016
1224.051, 496.3365
1224.533, 496.8476
1225.016, 497.0433
1225.498, 496.9590
1225.980, 496.5668
1226.462, 495.9240
1226.944, 495.2835
1227.426, 494.5734
1227.908, 494.3394
1228.390, 495.2985
1228.872, 496.0686
1229.354, 495.7250
1229.837, 495.3059
1230.319, 495.9987
1230.801, 496.9926
1231.283, 496.6933
1231.765, 495.1544
1232.247, 494.1774
1232.729, 494.0016
1233.211, 493.6185
1233.694, 492.8005
1234.176, 492.5087
1234.658, 493.1423
1235.140, 493.9162
1235.622, 494.3080
1236.104, 494.3197
1236.586, 493.8319
1237.068, 493.0284
1237.551, 492.6953
1238.033, 492.7477
1238.515, 492.8529
1238.997, 492.9565
1239.479, 493.0112
1239.961, 493.0096
1240.443, 493.0161
1240.925, 493.0883
1241.407, 493.0951
1241.890, 492.7485
1242.372, 492.4473
1242.854, 492.9295
1243.336, 493.4180
1243.818, 492.5313
1244.300, 491.0237
1244.782, 490.9009
1245.264, 492.3358
1245.746, 492.9560
1246.229, 491.4513
1246.711, 490.3838
1247.193, 490.1502
1247.675, 490.4754
1248.157, 491.7938
1248.639, 492.9762
1249.121, 493.0554
1249.603, 492.6652
1250.085, 493.0181
1250.568, 494.0418
1251.050, 494.4754
1251.532, 494.2614
1252.014, 494.0251
1252.496, 493.8081
1252.978, 493.6471
1253.460, 493.5529
1253.942, 493.6698
1254.425, 494.1315
1254.907, 494.4774
1255.389, 493.7051
1255.871, 492.6482
1256.353, 493.0308
1256.835, 494.2140
1257.317, 495.1774
1257.799, 495.8229
1258.281, 496.2504
1258.764, 496.4911
1259.246, 496.5574
1259.728, 496.4464
1260.210, 496.1977
1260.692, 495.5570
1261.174, 495.1447
1261.656, 495.3360
1262.138, 495.7838
1262.620, 496.3858
1263.103, 496.9659
1263.585, 497.1808
1264.067, 497.1019
1264.549, 497.3784
1265.031, 498.2749
1265.513, 498.5505
1265.995, 498.0277
1266.477, 497.6288
1266.960, 497.5670
1267.442, 497.6045
1267.924, 497.6269
1268.406, 497.5363
1268.888, 497.2202
1269.370, 496.6983
1269.852, 495.8504
1270.334, 494.9046
1270.817, 494.4254
1271.299, 494.3566
1271.781, 494.3267
1272.263, 494.4230
1272.745, 495.5169
1273.227, 497.9451
1273.709, 499.4541
1274.191, 497.8495
1274.673, 496.1908
1275.156, 496.0876
1275.638, 496.3448
1276.120, 496.0026
1276.602, 495.7046
1277.084, 496.6025
1277.566, 498.1384
1278.048, 498.4106
1278.530, 497.2782
1279.012, 496.0395
1279.495, 494.2438
1279.977, 494.0899
1280.459, 496.1782
1280.941, 498.1254
1281.423, 499.0901
1281.905, 499.4214
1282.387, 499.3275
1282.869, 499.2051
1283.352, 500.0365
1283.834, 501.1274
1284.316, 500.9507
1284.798, 499.5299
##END=



