##NAMES=Rutherfordine
##RRUFFID=R100018
##IDEAL CHEMISTRY=(U^6+^O_2_)CO_3_
##LOCALITY=Shinkolobwe mine, Katanga, Congo
##OWNER=RRUFF
##SOURCE=William Pinch
##DESCRIPTION=Pale yellow radiating laths
##STATUS=The identification of this mineral has been confirmed by single-crystal X-ray diffraction.
##URL=rruff.info/R100018
142.1542, 563.6133
142.6364, 567.7764
143.1185, 574.2247
143.6006, 582.3860
144.0827, 593.9581
144.5648, 609.9805
145.0469, 631.6812
145.5291, 651.8886
146.0112, 669.8897
146.4933, 687.0323
146.9754, 705.6783
147.4575, 727.1628
147.9396, 748.2759
148.4218, 768.1520
148.9039, 785.6385
149.3860, 804.3509
149.8681, 824.1924
150.3502, 845.0066
150.8323, 866.6495
151.3145, 889.2741
151.7966, 912.3457
152.2787, 935.9043
152.7608, 959.6466
153.2429, 984.0940
153.7250, 1009.512
154.2072, 1035.691
154.6893, 1062.041
155.1714, 1088.514
155.6535, 1106.057
156.1356, 1117.680
156.6177, 1124.057
157.0999, 1125.122
157.5820, 1120.680
158.0641, 1111.062
158.5462, 1097.247
159.0283, 1077.553
159.5104, 1055.049
159.9926, 1031.740
160.4747, 1004.624
160.9568, 980.0931
161.4389, 959.8254
161.9210, 943.8885
162.4031, 931.1887
162.8853, 922.7665
163.3674, 916.8344
163.8495, 911.7568
164.3316, 907.1951
164.8137, 903.1447
165.2958, 899.4653
165.7780, 896.1347
166.2601, 893.6122
166.7422, 892.5200
167.2243, 892.2181
167.7064, 891.9108
168.1885, 891.3377
168.6707, 890.6057
169.1528, 889.5222
169.6349, 888.0178
170.1170, 887.1341
170.5991, 887.7751
171.0812, 889.4973
171.5634, 891.5128
172.0455, 893.5908
172.5276, 895.7472
173.0097, 897.9418
173.4918, 900.1628
173.9739, 902.6072
174.4561, 905.9902
174.9382, 909.8304
175.4203, 912.9735
175.9024, 914.5957
176.3845, 915.2322
176.8666, 915.5485
177.3488, 915.5997
177.8309, 915.3904
178.3130, 914.8627
178.7951, 914.0574
179.2772, 913.1462
179.7593, 912.2516
180.2415, 911.3133
180.7236, 910.0200
181.2057, 908.0868
181.6878, 906.3997
182.1699, 906.5090
182.6520, 908.1613
183.1342, 909.7021
183.6163, 910.2621
184.0984, 909.8809
184.5805, 908.4088
185.0626, 905.3315
185.5447, 901.9461
186.0269, 900.0750
186.5090, 899.7247
186.9911, 900.9705
187.4732, 904.5714
187.9553, 910.0730
188.4374, 915.1610
188.9196, 919.4749
189.4017, 923.2145
189.8838, 927.4429
190.3659, 932.3268
190.8480, 935.5097
191.3301, 935.1905
191.8123, 931.5195
192.2944, 925.7250
192.7765, 917.6341
193.2586, 907.8460
193.7407, 897.9428
194.2228, 887.7990
194.7050, 878.4531
195.1871, 870.7134
195.6692, 864.5724
196.1513, 859.8102
196.6334, 856.5578
197.1155, 854.6003
197.5977, 853.1318
198.0798, 852.1750
198.5619, 851.6266
199.0440, 851.4150
199.5261, 851.5336
200.0082, 851.9614
200.4904, 852.7943
200.9725, 853.9440
201.4546, 854.8987
201.9367, 855.6526
202.4188, 856.2080
202.9009, 856.4705
203.3831, 856.3724
203.8652, 856.4144
204.3473, 856.7056
204.8294, 857.2369
205.3115, 857.9059
205.7936, 858.6671
206.2758, 859.6642
206.7579, 861.1728
207.2400, 863.3375
207.7221, 865.3271
208.2042, 866.8795
208.6863, 868.0196
209.1685, 869.3120
209.6506, 870.7878
210.1327, 872.4010
210.6148, 874.1023
211.0969, 875.8727
211.5790, 877.7932
212.0612, 880.0172
212.5433, 882.5443
213.0254, 884.4459
213.5075, 885.3239
213.9896, 886.1085
214.4717, 888.2233
214.9538, 892.5880
215.4360, 895.7758
215.9181, 896.7281
216.4002, 895.3026
216.8823, 893.8175
217.3644, 892.7225
217.8465, 891.0469
218.3287, 887.2748
218.8108, 880.3010
219.2929, 873.6927
219.7750, 868.2451
220.2571, 863.9912
220.7392, 860.6118
221.2214, 858.6317
221.7035, 856.9767
222.1856, 853.9305
222.6677, 848.2564
223.1498, 843.8976
223.6319, 842.4708
224.1141, 844.5162
224.5962, 844.9401
225.0783, 842.8264
225.5604, 839.8983
226.0425, 838.3885
226.5246, 838.6223
227.0068, 839.6906
227.4889, 841.5461
227.9710, 844.4107
228.4531, 846.6845
228.9352, 848.0594
229.4173, 849.0985
229.8995, 850.5358
230.3816, 852.5916
230.8637, 854.6761
231.3458, 856.5501
231.8279, 858.1534
232.3100, 860.2388
232.7922, 863.5586
233.2743, 866.7515
233.7564, 868.0486
234.2385, 866.9217
234.7206, 864.7986
235.2027, 861.8678
235.6849, 857.9849
236.1670, 854.2132
236.6491, 850.3310
237.1312, 846.7428
237.6133, 843.9930
238.0954, 842.2800
238.5776, 840.9908
239.0597, 839.8058
239.5418, 838.5554
240.0239, 838.6486
240.5060, 840.2368
240.9881, 843.0379
241.4703, 846.9045
241.9524, 852.7401
242.4345, 857.9958
242.9166, 861.9215
243.3987, 864.3713
243.8808, 866.7180
244.3630, 869.0759
244.8451, 871.2636
245.3272, 873.3156
245.8093, 876.4234
246.2914, 877.1984
246.7735, 874.5733
247.2557, 868.2529
247.7378, 861.2003
248.2199, 852.9465
248.7020, 844.3419
249.1841, 836.2758
249.6662, 828.7365
250.1484, 821.6816
250.6305, 814.7441
251.1126, 807.8585
251.5947, 803.3778
252.0768, 802.6289
252.5589, 802.9005
253.0411, 801.1486
253.5232, 795.9924
254.0053, 791.8480
254.4874, 789.8376
254.9695, 790.0010
255.4516, 789.7615
255.9338, 788.5247
256.4159, 787.6387
256.8980, 788.6605
257.3801, 792.6420
257.8622, 796.0276
258.3444, 797.9607
258.8265, 798.5328
259.3086, 799.7001
259.7907, 801.9682
260.2728, 804.0931
260.7549, 805.0850
261.2371, 805.0996
261.7192, 803.5315
262.2013, 799.9358
262.6834, 794.4803
263.1655, 789.1719
263.6476, 783.7198
264.1298, 778.7872
264.6119, 774.6793
265.0940, 771.3225
265.5761, 769.2071
266.0582, 768.8267
266.5403, 769.7999
267.0225, 769.9508
267.5046, 769.1115
267.9867, 767.7715
268.4688, 766.1186
268.9509, 763.9322
269.4330, 762.2738
269.9152, 761.2054
270.3973, 760.7645
270.8794, 761.2125
271.3615, 762.6716
271.8436, 764.6732
272.3257, 767.2520
272.8079, 770.7261
273.2900, 772.8002
273.7721, 773.1752
274.2542, 772.0995
274.7363, 770.0942
275.2184, 766.9910
275.7006, 763.6796
276.1827, 760.5883
276.6648, 757.6651
277.1469, 755.5771
277.6290, 754.5921
278.1111, 754.2206
278.5933, 753.2072
279.0754, 751.3588
279.5575, 749.9406
280.0396, 749.8681
280.5217, 751.1440
281.0038, 752.1017
281.4860, 752.6575
281.9681, 752.8603
282.4502, 752.3869
282.9323, 751.1172
283.4144, 750.7785
283.8965, 752.5720
284.3787, 756.3008
284.8608, 760.3754
285.3429, 765.3201
285.8250, 769.0697
286.3071, 767.7003
286.7892, 761.3237
287.2714, 754.9626
287.7535, 750.5058
288.2356, 747.8237
288.7177, 746.6616
289.1998, 747.1962
289.6819, 748.2317
290.1641, 748.2945
290.6462, 747.5070
291.1283, 746.8182
291.6104, 746.5873
292.0925, 746.7236
292.5746, 747.0524
293.0568, 747.5925
293.5389, 748.1012
294.0210, 747.7294
294.5031, 746.9288
294.9852, 747.6804
295.4673, 751.9059
295.9495, 757.3074
296.4316, 759.1205
296.9137, 757.4162
297.3958, 754.4865
297.8779, 751.4806
298.3600, 748.7073
298.8422, 746.9213
299.3243, 746.5940
299.8064, 747.0345
300.2885, 747.2826
300.7706, 747.3887
301.2527, 747.7195
301.7349, 748.8837
302.2170, 750.3869
302.6991, 751.3994
303.1812, 751.7972
303.6633, 751.5765
304.1454, 750.4431
304.6276, 748.6093
305.1097, 746.8014
305.5918, 744.5272
306.0739, 742.9050
306.5560, 743.9143
307.0381, 748.8600
307.5203, 753.3927
308.0024, 753.6627
308.4845, 750.7460
308.9666, 747.1618
309.4487, 743.2301
309.9308, 739.7383
310.4130, 737.5765
310.8951, 736.9994
311.3772, 736.7909
311.8593, 736.5087
312.3414, 736.0569
312.8235, 735.2809
313.3057, 733.5823
313.7878, 731.9356
314.2699, 731.0321
314.7520, 730.9435
315.2341, 730.8644
315.7162, 730.0977
316.1984, 729.2418
316.6805, 728.9738
317.1626, 730.7169
317.6447, 731.9579
318.1268, 731.2836
318.6089, 728.8091
319.0911, 726.7728
319.5732, 726.2410
320.0553, 726.2738
320.5374, 726.1543
321.0195, 725.1245
321.5016, 724.5771
321.9838, 725.1901
322.4659, 726.6918
322.9480, 727.7441
323.4301, 727.5928
323.9122, 727.2792
324.3943, 727.3807
324.8765, 728.5757
325.3586, 729.2821
325.8407, 728.8839
326.3228, 727.8634
326.8049, 727.4550
327.2870, 728.3727
327.7692, 729.3474
328.2513, 729.9347
328.7334, 729.9265
329.2155, 729.9967
329.6976, 730.3757
330.1797, 730.7550
330.6619, 730.6012
331.1440, 729.1412
331.6261, 728.1855
332.1082, 728.3751
332.5903, 729.9256
333.0724, 731.0797
333.5546, 731.7587
334.0367, 732.1173
334.5188, 732.3170
335.0009, 732.3890
335.4830, 732.1978
335.9651, 731.5051
336.4473, 730.4021
336.9294, 730.2555
337.4115, 731.4682
337.8936, 732.8477
338.3757, 733.4473
338.8578, 733.1722
339.3399, 732.6567
339.8221, 731.9562
340.3042, 731.1013
340.7863, 730.0566
341.2684, 728.6790
341.7505, 727.7759
342.2326, 728.1593
342.7148, 729.8128
343.1969, 730.7101
343.6790, 730.5216
344.1611, 729.8733
344.6432, 729.8594
345.1253, 730.4637
345.6075, 731.1344
346.0896, 731.6288
346.5717, 731.9542
347.0538, 732.2205
347.5359, 732.4494
348.0180, 732.4124
348.5002, 731.9048
348.9823, 730.9196
349.4644, 729.4120
349.9465, 726.9650
350.4286, 724.2228
350.9107, 722.1779
351.3929, 720.8513
351.8750, 720.1557
352.3571, 720.4630
352.8392, 721.3139
353.3213, 721.8124
353.8034, 721.4863
354.2856, 721.1046
354.7677, 721.6163
355.2498, 722.8146
355.7319, 723.8431
356.2140, 724.6388
356.6961, 724.7750
357.1783, 723.4169
357.6604, 719.6528
358.1425, 716.6438
358.6246, 717.1229
359.1067, 719.6991
359.5888, 721.6799
360.0710, 721.5286
360.5531, 720.6987
361.0352, 719.9218
361.5173, 719.2484
361.9994, 718.7255
362.4815, 717.8868
362.9637, 717.3932
363.4458, 717.9547
363.9279, 722.1578
364.4100, 725.0811
364.8921, 724.3045
365.3742, 720.1555
365.8564, 717.2615
366.3385, 717.6776
366.8206, 718.7320
367.3027, 718.8192
367.7848, 716.3882
368.2669, 714.6968
368.7491, 714.3086
369.2312, 714.8240
369.7133, 715.1469
370.1954, 715.5905
370.6775, 715.5143
371.1596, 714.5114
371.6418, 711.9147
372.1239, 710.3624
372.6060, 710.2808
373.0881, 710.9662
373.5702, 711.4440
374.0523, 711.6896
374.5345, 711.7438
375.0166, 711.3695
375.4987, 710.5817
375.9808, 711.1959
376.4629, 713.8751
376.9450, 716.4813
377.4272, 716.6135
377.9093, 713.8676
378.3914, 712.3497
378.8735, 713.0620
379.3556, 715.2022
379.8377, 716.7858
380.3199, 717.8176
380.8020, 718.0590
381.2841, 716.7154
381.7662, 714.2182
382.2483, 713.0964
382.7304, 713.7742
383.2126, 715.1990
383.6947, 716.3533
384.1768, 717.1467
384.6589, 717.1244
385.1410, 715.3117
385.6231, 712.8193
386.1053, 711.6963
386.5874, 712.0097
387.0695, 712.4051
387.5516, 711.4064
388.0337, 709.7551
388.5158, 708.7636
388.9980, 709.2255
389.4801, 710.0577
389.9622, 710.4125
390.4443, 710.3698
390.9264, 710.2754
391.4085, 710.6218
391.8907, 710.8167
392.3728, 710.1385
392.8549, 707.8265
393.3370, 706.3157
393.8191, 707.3459
394.3012, 709.7725
394.7834, 711.6671
395.2655, 712.1225
395.7476, 712.2294
396.2297, 712.4772
396.7118, 712.9714
397.1939, 712.9510
397.6761, 711.6556
398.1582, 710.1257
398.6403, 709.2303
399.1224, 710.0989
399.6045, 710.3456
400.0866, 709.3086
400.5688, 707.3040
401.0509, 706.2715
401.5330, 707.0007
402.0151, 707.7490
402.4972, 707.5910
402.9793, 705.9093
403.4615, 704.9886
403.9436, 705.0977
404.4257, 705.7512
404.9078, 706.0247
405.3899, 705.7091
405.8720, 705.8536
406.3542, 707.2445
406.8363, 709.6656
407.3184, 709.7723
407.8005, 707.0251
408.2826, 704.1631
408.7647, 704.4200
409.2469, 707.4937
409.7290, 709.3900
410.2111, 709.0932
410.6932, 707.5323
411.1753, 706.1854
411.6574, 705.0960
412.1396, 704.5425
412.6217, 705.2437
413.1038, 706.5117
413.5859, 706.9508
414.0680, 706.3478
414.5501, 705.4899
415.0323, 704.9453
415.5144, 704.6992
415.9965, 704.7081
416.4786, 705.1466
416.9607, 705.6808
417.4428, 705.9846
417.9250, 706.0842
418.4071, 706.3319
418.8892, 707.6445
419.3713, 708.7816
419.8534, 708.5117
420.3355, 705.1200
420.8177, 702.6771
421.2998, 703.2719
421.7819, 705.7170
422.2640, 707.4410
422.7461, 707.3561
423.2282, 706.9225
423.7104, 706.7899
424.1925, 707.2791
424.6746, 706.8943
425.1567, 704.0177
425.6388, 701.2067
426.1209, 700.8401
426.6031, 704.9799
427.0852, 708.2311
427.5673, 709.8673
428.0494, 710.0486
428.5315, 709.4360
429.0136, 707.5652
429.4958, 705.8449
429.9779, 705.2062
430.4600, 705.8602
430.9421, 705.9894
431.4242, 705.3680
431.9063, 704.5452
432.3885, 704.4537
432.8706, 705.1047
433.3527, 705.7687
433.8348, 706.4012
434.3169, 706.8125
434.7990, 706.1410
435.2812, 704.3932
435.7633, 702.7006
436.2454, 702.1787
436.7275, 702.4504
437.2096, 702.5622
437.6917, 702.2028
438.1739, 701.9599
438.6560, 702.7518
439.1381, 704.2003
439.6202, 705.3053
440.1023, 705.3860
440.5844, 705.0225
441.0666, 704.6025
441.5487, 704.1533
442.0308, 703.8118
442.5129, 703.7021
442.9950, 703.7101
443.4771, 703.7264
443.9593, 703.8652
444.4414, 703.8488
444.9235, 703.2112
445.4056, 702.2725
445.8877, 702.1537
446.3698, 703.8990
446.8520, 705.7177
447.3341, 706.9645
447.8162, 707.6237
448.2983, 707.5986
448.7804, 705.9602
449.2625, 704.2753
449.7447, 704.6816
450.2268, 708.7805
450.7089, 711.2033
451.1910, 710.5055
451.6731, 707.3074
452.1552, 704.6686
452.6374, 702.6201
453.1195, 701.2218
453.6016, 700.7025
454.0837, 701.0483
454.5658, 701.4414
455.0479, 701.8578
455.5301, 702.2615
456.0122, 702.6437
456.4943, 702.9889
456.9764, 703.1393
457.4585, 702.7875
457.9406, 702.3537
458.4228, 702.7452
458.9049, 703.8625
459.3870, 704.7832
459.8691, 704.6010
460.3512, 703.9100
460.8333, 703.3899
461.3155, 703.0904
461.7976, 703.1730
462.2797, 704.2048
462.7618, 705.6277
463.2439, 706.4511
463.7260, 705.4643
464.2082, 704.5529
464.6903, 704.6124
465.1724, 705.6735
465.6545, 706.8920
466.1366, 709.0323
466.6187, 710.6697
467.1009, 710.8607
467.5830, 707.6064
468.0651, 705.5476
468.5472, 705.1293
469.0293, 705.8019
469.5114, 706.5430
469.9936, 707.5482
470.4757, 708.2050
470.9578, 708.0743
471.4399, 707.1708
471.9220, 707.4954
472.4041, 709.4173
472.8863, 711.4372
473.3684, 712.1271
473.8505, 711.5139
474.3326, 710.6982
474.8147, 709.7352
475.2968, 708.8405
475.7790, 708.3942
476.2611, 708.3657
476.7432, 708.5620
477.2253, 709.4525
477.7074, 710.2930
478.1895, 709.3409
478.6717, 706.5984
479.1538, 704.5266
479.6359, 705.8018
480.1180, 708.5468
480.6001, 710.3965
481.0822, 710.3429
481.5644, 709.9915
482.0465, 710.2000
482.5286, 710.7258
483.0107, 711.0392
483.4928, 710.9785
483.9749, 710.6671
484.4571, 709.9402
484.9392, 708.6472
485.4213, 708.0558
485.9034, 708.7505
486.3855, 709.8599
486.8676, 710.7977
487.3498, 711.2956
487.8319, 712.1204
488.3140, 713.5815
488.7961, 715.2502
489.2782, 716.0661
489.7603, 715.8605
490.2425, 715.3041
490.7246, 714.5335
491.2067, 713.5884
491.6888, 712.9903
492.1709, 712.7988
492.6530, 712.6844
493.1352, 712.2286
493.6173, 711.5730
494.0994, 711.4156
494.5815, 712.1334
495.0636, 712.8422
495.5457, 711.8307
496.0279, 709.7610
496.5100, 708.5897
496.9921, 710.3831
497.4742, 712.7741
497.9563, 713.2992
498.4384, 711.9887
498.9206, 711.1730
499.4027, 712.7568
499.8848, 714.9363
500.3669, 716.2160
500.8490, 715.5720
501.3311, 715.1662
501.8133, 715.8052
502.2954, 716.9348
502.7775, 717.5109
503.2596, 716.7519
503.7417, 716.2206
504.2238, 716.3128
504.7060, 717.0106
505.1881, 717.6942
505.6702, 718.5668
506.1523, 719.0741
506.6344, 718.5258
507.1165, 716.6154
507.5987, 715.9998
508.0808, 717.1252
508.5629, 719.0236
509.0450, 720.3826
509.5271, 721.2122
510.0092, 721.5867
510.4914, 721.4880
510.9735, 720.9954
511.4556, 719.8378
511.9377, 718.1781
512.4199, 717.2789
512.9020, 718.7608
513.3841, 721.1735
513.8662, 722.7821
514.3483, 723.2855
514.8304, 723.2509
515.3126, 722.6016
515.7947, 721.7473
516.2768, 721.2010
516.7589, 721.4323
517.2410, 721.6493
517.7231, 721.5866
518.2053, 721.2896
518.6874, 721.0101
519.1695, 720.7072
519.6516, 720.4932
520.1337, 720.3494
520.6158, 720.1709
521.0980, 720.5938
521.5801, 721.8875
522.0622, 723.4557
522.5443, 724.8751
523.0264, 726.2606
523.5085, 726.7569
523.9907, 725.9647
524.4728, 724.5360
524.9549, 723.8671
525.4370, 723.9373
525.9191, 724.2170
526.4012, 724.3898
526.8834, 724.5936
527.3655, 725.3406
527.8476, 726.6069
528.3297, 727.5302
528.8118, 727.3267
529.2939, 726.4146
529.7761, 725.1448
530.2582, 723.2004
530.7403, 721.8684
531.2224, 722.1761
531.7045, 723.5150
532.1866, 724.8847
532.6688, 726.0931
533.1509, 727.1973
533.6330, 728.4508
534.1151, 729.7900
534.5972, 730.1613
535.0793, 728.3403
535.5615, 726.8378
536.0436, 727.1325
536.5257, 730.2073
537.0078, 731.4280
537.4899, 730.1289
537.9720, 728.0587
538.4542, 727.5316
538.9363, 728.6507
539.4184, 729.7383
539.9005, 730.6437
540.3826, 731.0392
540.8647, 729.4977
541.3469, 726.3514
541.8290, 724.1084
542.3111, 724.9667
542.7932, 727.2696
543.2753, 728.6365
543.7574, 728.9759
544.2396, 728.9352
544.7217, 728.1613
545.2038, 727.5864
545.6859, 728.3084
546.1680, 731.5545
546.6501, 734.2805
547.1323, 735.1240
547.6144, 734.8062
548.0965, 734.6085
548.5786, 734.6248
549.0607, 734.8741
549.5428, 735.4287
550.0250, 736.2588
550.5071, 737.0512
550.9892, 737.8555
551.4713, 738.5488
551.9534, 739.1697
552.4355, 739.7754
552.9177, 739.6574
553.3998, 738.6674
553.8819, 737.4325
554.3640, 736.6854
554.8461, 736.3565
555.3282, 736.0167
555.8104, 735.4466
556.2925, 735.0211
556.7746, 735.5652
557.2567, 736.7403
557.7388, 737.4923
558.2209, 736.7248
558.7031, 735.7080
559.1852, 735.3990
559.6673, 735.8199
560.1494, 736.5422
560.6315, 737.5330
561.1136, 738.6727
561.5958, 739.9469
562.0779, 741.8067
562.5600, 742.9122
563.0421, 742.5035
563.5242, 741.6999
564.0063, 742.0591
564.4885, 744.4971
564.9706, 745.8040
565.4527, 744.8506
565.9348, 742.5731
566.4169, 742.4124
566.8990, 744.6135
567.3812, 746.7943
567.8633, 747.7675
568.3454, 747.7131
568.8275, 746.9621
569.3096, 745.4980
569.7917, 744.5621
570.2739, 745.9919
570.7560, 748.4315
571.2381, 749.6616
571.7202, 748.8406
572.2023, 747.9894
572.6844, 748.2538
573.1666, 749.3555
573.6487, 750.8798
574.1308, 754.2889
574.6129, 756.4335
575.0950, 755.4534
575.5771, 751.9949
576.0593, 750.0165
576.5414, 748.1273
577.0235, 749.6556
577.5056, 757.5623
577.9877, 773.1444
578.4698, 781.6159
578.9520, 781.9020
579.4341, 777.7260
579.9162, 770.6277
580.3983, 761.0105
580.8804, 754.9918
581.3625, 753.9014
581.8447, 755.2838
582.3268, 756.6407
582.8089, 757.7869
583.2910, 758.2142
583.7731, 757.0010
584.2552, 755.6232
584.7373, 755.4897
585.2194, 756.3492
585.7015, 757.2494
586.1837, 757.8636
586.6658, 758.3163
587.1479, 758.5411
587.6300, 758.4247
588.1121, 758.8235
588.5942, 760.4503
589.0764, 762.1686
589.5585, 763.1923
590.0406, 763.0187
590.5227, 762.8719
591.0048, 761.3181
591.4869, 761.5774
591.9691, 772.6303
592.4512, 795.3946
592.9333, 806.9323
593.4154, 796.9673
593.8975, 776.1360
594.3796, 765.3795
594.8618, 763.9796
595.3439, 767.0159
595.8260, 775.8058
596.3081, 785.1154
596.7902, 789.1301
597.2723, 787.6736
597.7545, 783.8392
598.2366, 776.2999
598.7187, 768.9856
599.2008, 765.0463
599.6829, 766.4836
600.1650, 768.0005
600.6472, 769.1478
601.1293, 769.8246
601.6114, 769.8275
602.0935, 768.6866
602.5756, 767.8144
603.0577, 767.2657
603.5399, 767.1933
604.0220, 768.3743
604.5041, 770.9904
604.9862, 772.8319
605.4683, 771.4746
605.9504, 768.9949
606.4326, 770.8718
606.9147, 777.0757
607.3968, 787.7780
607.8789, 812.3178
608.3610, 837.0751
608.8431, 842.4642
609.3253, 823.8535
609.8074, 803.1897
610.2895, 789.7635
610.7716, 781.4323
611.2537, 776.0392
611.7358, 774.6931
612.2180, 774.4268
612.7001, 775.7339
613.1822, 777.6926
613.6643, 778.7463
614.1464, 778.4737
614.6285, 778.1987
615.1107, 778.1083
615.5928, 778.2890
616.0749, 779.4572
616.5570, 781.7421
617.0391, 783.3138
617.5212, 781.9796
618.0034, 779.2291
618.4855, 779.5593
618.9676, 782.9939
619.4497, 786.4162
619.9318, 786.9623
620.4139, 786.3248
620.8961, 786.5597
621.3782, 788.3917
621.8603, 789.9125
622.3424, 790.0159
622.8245, 789.4715
623.3066, 789.1649
623.7888, 789.4229
624.2709, 789.7021
624.7530, 789.9135
625.2351, 790.1281
625.7172, 790.5148
626.1993, 791.1052
626.6815, 791.7662
627.1636, 792.4728
627.6457, 793.2098
628.1278, 793.9772
628.6099, 794.7746
629.0920, 795.3961
629.5742, 795.4277
630.0563, 795.2763
630.5384, 795.9410
631.0205, 797.4785
631.5026, 798.6122
631.9847, 798.0250
632.4669, 796.8263
632.9490, 796.0442
633.4311, 795.8632
633.9132, 796.2104
634.3953, 797.8464
634.8774, 799.6907
635.3596, 800.3914
635.8417, 799.1093
636.3238, 798.0694
636.8059, 797.5011
637.2880, 797.3167
637.7701, 797.3197
638.2523, 797.5104
638.7344, 797.8334
639.2165, 798.1526
639.6986, 798.6422
640.1807, 800.0868
640.6628, 802.3669
641.1450, 804.2787
641.6271, 804.8597
642.1092, 804.7564
642.5913, 804.4510
643.0734, 803.9817
643.5555, 804.0364
644.0377, 805.4043
644.5198, 807.1464
645.0019, 808.6031
645.4840, 809.8176
645.9661, 810.4139
646.4482, 809.9117
646.9304, 809.1561
647.4125, 809.2640
647.8946, 810.8898
648.3767, 810.8412
648.8588, 807.8799
649.3409, 804.1745
649.8231, 804.4285
650.3052, 808.2454
650.7873, 811.4228
651.2694, 811.9413
651.7515, 811.4033
652.2336, 812.1129
652.7158, 813.8129
653.1979, 815.6111
653.6800, 817.6767
654.1621, 819.1318
654.6442, 818.9792
655.1263, 817.1880
655.6085, 816.1803
656.0906, 817.1999
656.5727, 818.5514
657.0548, 819.3831
657.5369, 819.5598
658.0190, 819.7727
658.5012, 820.0314
658.9833, 820.3075
659.4654, 820.5577
659.9475, 820.7830
660.4296, 821.1171
660.9117, 821.6171
661.3939, 822.0560
661.8760, 821.8767
662.3581, 821.4219
662.8402, 821.5174
663.3223, 822.6682
663.8044, 824.1217
664.2866, 825.9662
664.7687, 827.6815
665.2508, 828.2017
665.7329, 825.5536
666.2150, 823.4203
666.6971, 822.6488
667.1793, 823.2491
667.6614, 825.6113
668.1435, 830.6266
668.6256, 835.7460
669.1077, 840.8076
669.5898, 845.4608
670.0720, 844.5687
670.5541, 837.6312
671.0362, 830.8591
671.5183, 829.6078
672.0004, 831.7404
672.4825, 832.6691
672.9647, 831.8965
673.4468, 831.5289
673.9289, 834.0927
674.4110, 837.2974
674.8931, 838.6059
675.3752, 836.2496
675.8574, 834.6902
676.3395, 835.9023
676.8216, 837.9922
677.3037, 838.7573
677.7858, 837.3740
678.2679, 836.5334
678.7501, 836.6204
679.2322, 837.3498
679.7143, 838.4561
680.1964, 839.9179
680.6785, 840.5692
681.1606, 839.5463
681.6428, 837.9901
682.1249, 838.1080
682.6070, 839.4462
683.0891, 840.3499
683.5712, 839.2083
684.0533, 837.9352
684.5355, 837.9383
685.0176, 839.1178
685.4997, 840.1198
685.9818, 840.3256
686.4639, 840.4981
686.9460, 840.7531
687.4282, 840.9669
687.9103, 842.6633
688.3924, 846.6025
688.8745, 850.3251
689.3566, 851.6019
689.8387, 850.6939
690.3209, 850.9552
690.8030, 852.6981
691.2851, 854.4272
691.7672, 854.2190
692.2493, 853.0500
692.7314, 852.5971
693.2136, 853.4523
693.6957, 854.3769
694.1778, 854.5828
694.6599, 854.4914
695.1420, 854.6190
695.6241, 854.7443
696.1063, 855.5466
696.5884, 857.1399
697.0705, 859.3928
697.5526, 862.2672
698.0347, 866.1354
698.5168, 868.9750
698.9990, 869.8994
699.4811, 869.8798
699.9632, 871.3919
700.4453, 874.1983
700.9274, 876.8067
701.4095, 877.9559
701.8917, 878.8740
702.3738, 881.2663
702.8559, 884.7619
703.3380, 887.5682
703.8201, 889.2609
704.3022, 889.7999
704.7844, 888.9601
705.2665, 886.6645
705.7486, 884.0559
706.2307, 880.9376
706.7128, 877.8004
707.1949, 874.7701
707.6771, 871.8343
708.1592, 869.8837
708.6413, 869.0067
709.1234, 868.5034
709.6055, 867.8075
710.0876, 867.0011
710.5698, 866.2592
711.0519, 865.5992
711.5340, 864.9813
712.0161, 863.8998
712.4982, 863.0634
712.9803, 863.2536
713.4625, 865.1146
713.9446, 867.0616
714.4267, 869.5490
714.9088, 871.5378
715.3909, 871.7229
715.8730, 869.1838
716.3552, 867.6578
716.8373, 867.8029
717.3194, 868.7670
717.8015, 869.2458
718.2836, 869.2798
718.7657, 869.0178
719.2479, 868.3494
719.7300, 867.7052
720.2121, 868.0536
720.6942, 868.8016
721.1763, 868.6139
721.6584, 865.2357
722.1406, 862.5292
722.6227, 862.7489
723.1048, 865.1228
723.5869, 866.5089
724.0690, 865.9583
724.5511, 865.7204
725.0333, 866.6407
725.5154, 868.3975
725.9975, 869.0551
726.4796, 868.5211
726.9617, 868.0886
727.4438, 869.0490
727.9260, 870.4409
728.4081, 869.5873
728.8902, 866.8383
729.3723, 865.0272
729.8544, 866.9737
730.3365, 869.7164
730.8187, 871.2005
731.3008, 871.1877
731.7829, 870.6339
732.2650, 868.4930
732.7471, 866.9553
733.2292, 867.2584
733.7114, 869.8002
734.1935, 871.7635
734.6756, 873.1562
735.1577, 873.9728
735.6398, 873.8528
736.1219, 873.1200
736.6041, 873.0435
737.0862, 873.7925
737.5683, 874.7831
738.0504, 875.5706
738.5325, 876.2964
739.0146, 877.2584
739.4968, 878.9728
739.9789, 879.7137
740.4610, 878.1922
740.9431, 875.9079
741.4252, 874.3063
741.9073, 873.4229
742.3895, 873.2244
742.8716, 873.9029
743.3537, 874.9183
743.8358, 875.3126
744.3179, 875.2213
744.8000, 875.9648
745.2822, 878.1456
745.7643, 880.4518
746.2464, 881.6367
746.7285, 881.8528
747.2106, 881.3195
747.6927, 878.6424
748.1749, 876.9922
748.6570, 878.5231
749.1391, 881.6453
749.6212, 882.9808
750.1033, 881.4538
750.5854, 880.0744
751.0676, 879.3074
751.5497, 879.0426
752.0318, 879.0524
752.5139, 879.3347
752.9960, 879.9649
753.4781, 881.4221
753.9603, 882.7310
754.4424, 881.8701
754.9245, 879.6105
755.4066, 878.2250
755.8887, 879.7339
756.3708, 881.4163
756.8530, 882.0892
757.3351, 881.8259
757.8172, 881.2137
758.2993, 879.5548
758.7814, 878.7771
759.2635, 879.7823
759.7457, 882.1182
760.2278, 883.4230
760.7099, 883.6542
761.1920, 883.4642
761.6741, 882.7206
762.1563, 881.9962
762.6384, 882.5700
763.1205, 884.2021
763.6026, 885.6320
764.0847, 885.8203
764.5668, 885.8784
765.0490, 886.7495
765.5311, 888.4788
766.0132, 889.0994
766.4953, 887.9661
766.9774, 886.5369
767.4595, 885.1911
767.9417, 883.9667
768.4238, 884.0082
768.9059, 885.3465
769.3880, 887.5559
769.8701, 890.5871
770.3522, 894.1862
770.8344, 898.0806
771.3165, 902.2153
771.7986, 906.0675
772.2807, 909.8770
772.7628, 912.8467
773.2449, 913.5665
773.7271, 910.9816
774.2092, 912.7209
774.6913, 922.7869
775.1734, 932.0071
775.6555, 933.9714
776.1376, 928.2062
776.6198, 926.0623
777.1019, 927.5392
777.5840, 932.4853
778.0661, 942.6475
778.5482, 955.5790
779.0303, 967.1632
779.5125, 976.8642
779.9946, 986.0394
780.4767, 995.6198
780.9588, 1004.731
781.4409, 1012.168
781.9230, 1015.938
782.4052, 1024.013
782.8873, 1038.853
783.3694, 1054.572
783.8515, 1069.288
784.3336, 1082.997
784.8157, 1081.704
785.2979, 1063.924
785.7800, 1039.260
786.2621, 1012.160
786.7442, 986.0218
787.2263, 966.0386
787.7084, 953.3547
788.1906, 943.9455
788.6727, 936.8273
789.1548, 931.2556
789.6369, 926.6037
790.1190, 922.8926
790.6011, 919.9352
791.0833, 917.7208
791.5654, 916.3205
792.0475, 916.1194
792.5296, 916.9957
793.0117, 917.5505
793.4938, 917.6431
793.9760, 917.6066
794.4581, 917.6783
794.9402, 917.8506
795.4223, 918.3417
795.9044, 919.5370
796.3865, 919.6071
796.8687, 916.8738
797.3508, 913.4094
797.8329, 910.9753
798.3150, 910.0838
798.7971, 908.9252
799.2792, 907.4287
799.7614, 905.8684
800.2435, 904.2693
800.7256, 902.7785
801.2077, 902.2053
801.6898, 902.7270
802.1719, 903.4411
802.6541, 903.4342
803.1362, 903.2322
803.6183, 903.5767
804.1004, 905.0948
804.5825, 905.6722
805.0646, 903.8608
805.5468, 901.6419
806.0289, 900.4919
806.5110, 900.6842
806.9931, 900.7848
807.4752, 900.7855
807.9573, 900.5567
808.4395, 899.7650
808.9216, 898.6534
809.4037, 897.9042
809.8858, 897.6535
810.3679, 897.4333
810.8500, 897.0264
811.3322, 896.4375
811.8143, 895.6252
812.2964, 894.3894
812.7785, 893.4293
813.2606, 892.6745
813.7427, 892.3203
814.2249, 892.7882
814.7070, 894.1563
815.1891, 894.4196
815.6712, 893.3557
816.1533, 892.2566
816.6354, 892.4669
817.1176, 893.4573
817.5997, 894.5489
818.0818, 895.7166
818.5639, 896.4423
819.0460, 895.6500
819.5281, 894.9096
820.0103, 895.6817
820.4924, 898.6886
820.9745, 900.2405
821.4566, 899.8666
821.9387, 899.0174
822.4208, 898.9711
822.9030, 899.5307
823.3851, 899.3567
823.8672, 898.3491
824.3493, 897.9674
824.8314, 900.4520
825.3135, 903.5194
825.7957, 904.6387
826.2778, 903.2180
826.7599, 902.2513
827.2420, 902.8895
827.7241, 903.7543
828.2062, 904.0826
828.6884, 903.7822
829.1705, 904.4434
829.6526, 906.2816
830.1347, 907.8679
830.6168, 907.9200
831.0989, 907.0133
831.5811, 906.0847
832.0632, 905.2159
832.5453, 904.7305
833.0274, 904.7549
833.5095, 905.2708
833.9916, 906.6205
834.4738, 908.9572
834.9559, 909.8090
835.4380, 908.2264
835.9201, 906.9658
836.4022, 907.7776
836.8843, 910.1836
837.3665, 910.9310
837.8486, 910.0991
838.3307, 909.1170
838.8128, 908.4235
839.2949, 908.4099
839.7770, 909.7936
840.2592, 912.3990
840.7413, 914.8650
841.2234, 915.9930
841.7055, 917.7672
842.1876, 920.8984
842.6697, 925.2512
843.1519, 930.5320
843.6340, 937.1357
844.1161, 941.8655
844.5982, 943.3420
845.0803, 941.9332
845.5624, 936.7538
846.0446, 929.0160
846.5267, 923.0776
847.0088, 921.5100
847.4909, 921.8719
847.9730, 924.0756
848.4551, 927.3776
848.9373, 929.0846
849.4194, 928.1586
849.9015, 927.8389
850.3836, 928.9172
850.8657, 931.0400
851.3478, 933.6804
851.8300, 936.7215
852.3121, 939.4305
852.7942, 941.5141
853.2763, 943.1581
853.7584, 944.9049
854.2405, 946.2618
854.7227, 946.3632
855.2048, 943.5160
855.6869, 941.2902
856.1690, 940.3605
856.6511, 940.0668
857.1332, 939.3445
857.6154, 938.1522
858.0975, 937.0388
858.5796, 935.8801
859.0617, 935.5548
859.5438, 937.9021
860.0259, 941.6757
860.5081, 944.6086
860.9902, 945.6346
861.4723, 946.9240
861.9544, 949.6262
862.4365, 952.7523
862.9186, 955.3234
863.4008, 957.3580
863.8829, 958.4756
864.3650, 958.1243
864.8471, 958.4998
865.3292, 962.7988
865.8113, 969.5735
866.2935, 974.4311
866.7756, 976.7667
867.2577, 979.6558
867.7398, 985.5580
868.2219, 992.6458
868.7040, 999.1341
869.1862, 1004.145
869.6683, 1012.102
870.1504, 1022.041
870.6325, 1036.593
871.1146, 1054.888
871.5967, 1078.277
872.0789, 1118.576
872.5610, 1175.782
873.0431, 1241.238
873.5252, 1319.849
874.0073, 1395.915
874.4894, 1454.849
874.9716, 1497.319
875.4537, 1532.197
875.9358, 1549.700
876.4179, 1573.195
876.9000, 1608.823
877.3821, 1655.807
877.8643, 1707.275
878.3464, 1762.777
878.8285, 1837.754
879.3106, 1923.919
879.7927, 2047.102
880.2748, 2240.750
880.7570, 2498.831
881.2391, 2806.226
881.7212, 3226.819
882.2033, 3614.378
882.6854, 3916.092
883.1675, 4162.562
883.6497, 4395.063
884.1318, 4595.415
884.6139, 4923.299
885.0960, 5462.823
885.5781, 6001.122
886.0602, 6363.968
886.5424, 6472.318
887.0245, 6105.054
887.5066, 5017.529
887.9887, 3921.721
888.4708, 3041.665
888.9529, 2363.951
889.4351, 1871.977
889.9172, 1610.593
890.3993, 1412.183
890.8814, 1283.605
891.3635, 1197.156
891.8456, 1133.717
892.3278, 1089.465
892.8099, 1055.680
893.2920, 1031.870
893.7741, 1012.746
894.2562, 997.3037
894.7383, 983.8458
895.2205, 970.8234
895.7026, 958.1063
896.1847, 948.3432
896.6668, 942.6467
897.1489, 937.5231
897.6310, 930.9979
898.1132, 923.6922
898.5953, 918.1415
899.0774, 914.2662
899.5595, 911.5754
900.0416, 910.9807
900.5237, 910.3134
901.0059, 907.3791
901.4880, 902.9894
901.9701, 900.2401
902.4522, 899.5676
902.9343, 900.4882
903.4164, 903.9475
903.8986, 907.8525
904.3807, 907.0299
904.8628, 902.1771
905.3449, 897.8007
905.8270, 895.2194
906.3091, 893.6033
906.7913, 892.8245
907.2734, 892.3492
907.7555, 891.4644
908.2376, 889.5219
908.7197, 888.0033
909.2018, 887.0986
909.6840, 886.4505
910.1661, 885.7371
910.6482, 884.9628
911.1303, 884.0571
911.6124, 883.0017
912.0945, 882.0659
912.5767, 881.6828
913.0588, 881.3959
913.5409, 880.5658
914.0230, 879.0369
914.5051, 878.2878
914.9872, 879.3361
915.4694, 880.0541
915.9515, 879.1444
916.4336, 877.0057
916.9157, 877.2610
917.3978, 879.7493
917.8799, 881.2648
918.3621, 878.7728
918.8442, 875.4127
919.3263, 874.3808
919.8084, 875.0504
920.2905, 875.5439
920.7726, 875.3818
921.2548, 874.9366
921.7369, 874.1014
922.2190, 873.1623
922.7011, 872.9523
923.1832, 873.4000
923.6653, 872.7436
924.1475, 870.2675
924.6296, 867.7183
925.1117, 866.9799
925.5938, 867.2014
926.0759, 867.3408
926.5580, 867.2846
927.0402, 866.8293
927.5223, 865.3864
928.0044, 864.2457
928.4865, 864.8916
928.9686, 867.2830
929.4507, 867.0712
929.9329, 864.1569
930.4150, 861.7039
930.8971, 863.0588
931.3792, 865.4286
931.8613, 865.6202
932.3434, 863.7701
932.8256, 863.1232
933.3077, 865.9566
933.7898, 868.0284
934.2719, 867.9747
934.7540, 866.3474
935.2361, 864.8425
935.7183, 863.4657
936.2004, 862.6420
936.6825, 862.6705
937.1646, 863.0362
937.6467, 863.4725
938.1288, 863.8323
938.6110, 863.8777
939.0931, 863.3904
939.5752, 862.6474
940.0573, 860.7299
940.5394, 859.8123
941.0215, 864.2263
941.5037, 872.9636
941.9858, 874.6783
942.4679, 867.9977
942.9500, 860.5647
943.4321, 858.5744
943.9142, 859.0641
944.3964, 859.8343
944.8785, 860.6924
945.3606, 860.9068
945.8427, 860.2786
946.3248, 859.2191
946.8069, 857.3995
947.2891, 855.3918
947.7712, 856.2952
948.2533, 859.6428
948.7354, 862.5145
949.2175, 863.6394
949.6996, 863.5269
950.1818, 861.5333
950.6639, 858.7034
951.1460, 857.4430
951.6281, 859.0848
952.1102, 859.9411
952.5923, 859.5336
953.0745, 858.4865
953.5566, 857.8138
954.0387, 857.2412
954.5208, 855.2411
955.0029, 851.3160
955.4850, 848.6053
955.9672, 850.5976
956.4493, 853.6680
956.9314, 854.9220
957.4135, 853.9895
957.8956, 852.9417
958.3777, 851.5583
958.8599, 850.7493
959.3420, 851.5136
959.8241, 852.9907
960.3062, 852.7101
960.7883, 851.0702
961.2704, 849.7037
961.7526, 849.7481
962.2347, 849.8660
962.7168, 849.5269
963.1989, 848.8372
963.6810, 847.7725
964.1631, 845.8984
964.6453, 845.9899
965.1274, 849.0138
965.6095, 852.2757
966.0916, 852.0532
966.5737, 849.7665
967.0558, 847.8049
967.5380, 846.5815
968.0201, 845.6447
968.5022, 845.0862
968.9843, 844.5135
969.4664, 843.5886
969.9485, 842.3369
970.4307, 841.5765
970.9128, 841.3053
971.3949, 841.8160
971.8770, 844.2494
972.3591, 846.8762
972.8412, 847.4750
973.3234, 846.5289
973.8055, 845.4427
974.2876, 843.6914
974.7697, 843.2448
975.2518, 845.1200
975.7339, 847.6946
976.2161, 847.9728
976.6982, 846.2141
977.1803, 845.4959
977.6624, 846.2851
978.1445, 848.4658
978.6266, 853.7889
979.1088, 859.3143
979.5909, 862.1805
980.0730, 861.6691
980.5551, 859.8156
981.0372, 856.2324
981.5193, 852.2275
982.0015, 847.9216
982.4836, 843.8520
982.9657, 842.1800
983.4478, 842.5664
983.9299, 843.4189
984.4120, 844.5472
984.8942, 845.2468
985.3763, 844.7429
985.8584, 843.6686
986.3405, 843.3789
986.8226, 844.2733
987.3047, 844.5182
987.7869, 843.8397
988.2690, 842.7255
988.7511, 841.3565
989.2332, 840.1246
989.7153, 840.0822
990.1974, 841.4989
990.6796, 842.1266
991.1617, 840.3181
991.6438, 838.2106
992.1259, 836.5742
992.6080, 835.5198
993.0901, 836.1495
993.5723, 838.4869
994.0544, 840.3092
994.5365, 840.4308
995.0186, 839.7296
995.5007, 838.4818
995.9828, 837.2675
996.4650, 837.1317
996.9471, 840.0613
997.4292, 841.4734
997.9113, 840.5836
998.3934, 838.9135
998.8755, 837.9998
999.3577, 837.7480
999.8398, 837.7242
1000.322, 837.8951
1000.804, 838.0666
1001.286, 838.6290
1001.768, 838.7145
1002.250, 837.1426
1002.732, 834.1678
1003.215, 833.2200
1003.697, 835.0593
1004.179, 836.1756
1004.661, 835.3104
1005.143, 833.4156
1005.625, 831.7480
1006.107, 830.3807
1006.589, 829.4044
1007.072, 828.7177
1007.554, 828.7195
1008.036, 830.3498
1008.518, 832.0504
1009.000, 832.5967
1009.482, 831.8753
1009.964, 831.4257
1010.446, 831.2485
1010.928, 831.2145
1011.411, 831.7585
1011.893, 831.9705
1012.375, 830.1224
1012.857, 826.9254
1013.339, 825.9053
1013.821, 829.1759
1014.303, 831.7681
1014.785, 832.9102
1015.268, 832.7326
1015.750, 830.5110
1016.232, 827.1416
1016.714, 825.7764
1017.196, 827.2891
1017.678, 829.3400
1018.160, 831.0792
1018.642, 832.3851
1019.124, 833.2958
1019.607, 833.8568
1020.089, 833.1886
1020.571, 831.1308
1021.053, 829.0693
1021.535, 827.3962
1022.017, 826.4551
1022.499, 827.3655
1022.981, 829.3041
1023.464, 830.4092
1023.946, 828.7526
1024.428, 828.1156
1024.910, 829.4108
1025.392, 831.2031
1025.874, 831.9131
1026.356, 831.6157
1026.838, 830.6950
1027.320, 829.1843
1027.803, 828.0725
1028.285, 828.8738
1028.767, 829.6432
1029.249, 828.6771
1029.731, 826.2048
1030.213, 824.7250
1030.695, 824.5540
1031.177, 824.2075
1031.660, 823.3182
1032.142, 821.9521
1032.624, 819.3886
1033.106, 816.6555
1033.588, 815.9713
1034.070, 818.9762
1034.552, 820.9916
1035.034, 820.2292
1035.516, 818.8788
1035.999, 818.1959
1036.481, 818.1378
1036.963, 817.9109
1037.445, 817.5541
1037.927, 817.5565
1038.409, 818.4694
1038.891, 819.5734
1039.373, 820.5922
1039.855, 821.3605
1040.338, 821.5027
1040.820, 820.6956
1041.302, 820.1066
1041.784, 819.8168
1042.266, 819.8143
1042.748, 820.3589
1043.230, 821.0800
1043.712, 821.1232
1044.195, 820.4088
1044.677, 820.2042
1045.159, 822.3871
1045.641, 823.4778
1046.123, 821.7668
1046.605, 818.2637
1047.087, 816.2950
1047.569, 815.7564
1048.052, 815.9530
1048.534, 817.0153
1049.016, 817.8244
1049.498, 817.3173
1049.980, 816.1935
1050.462, 815.1926
1050.944, 814.3333
1051.426, 813.7400
1051.908, 813.4557
1052.391, 813.2333
1052.873, 812.7113
1053.355, 812.2416
1053.837, 812.7670
1054.319, 813.9239
1054.801, 814.5381
1055.283, 813.9266
1055.765, 812.9786
1056.247, 811.3554
1056.730, 810.0600
1057.212, 810.9144
1057.694, 813.5138
1058.176, 814.9340
1058.658, 814.8582
1059.140, 814.3420
1059.622, 814.4372
1060.104, 814.1039
1060.587, 811.9117
1061.069, 808.4037
1061.551, 807.2672
1062.033, 808.9519
1062.515, 810.4469
1062.997, 810.9018
1063.479, 810.6937
1063.961, 809.8070
1064.443, 808.7942
1064.926, 808.2646
1065.408, 807.8653
1065.890, 810.0097
1066.372, 817.1080
1066.854, 822.7836
1067.336, 822.8156
1067.818, 818.5897
1068.300, 814.6297
1068.782, 811.1293
1069.265, 808.9973
1069.747, 809.7370
1070.229, 810.7397
1070.711, 810.9462
1071.193, 810.8350
1071.675, 811.0469
1072.157, 811.6659
1072.639, 811.4454
1073.122, 810.2633
1073.604, 809.2656
1074.086, 809.9310
1074.568, 810.8136
1075.050, 810.4337
1075.532, 808.9579
1076.014, 807.7358
1076.496, 806.6522
1076.979, 806.4484
1077.461, 807.5172
1077.943, 808.9505
1078.425, 809.4547
1078.907, 809.3251
1079.389, 809.1384
1079.871, 809.0162
1080.353, 808.5958
1080.835, 807.1923
1081.318, 806.0911
1081.800, 805.8743
1082.282, 806.3536
1082.764, 806.9938
1083.246, 807.7205
1083.728, 808.0218
1084.210, 807.4163
1084.692, 806.9254
1085.174, 807.8933
1085.656, 808.8314
1086.139, 807.9946
1086.621, 804.8699
1087.103, 803.2756
1087.585, 803.3071
1088.067, 803.8545
1088.549, 804.3577
1089.031, 804.8495
1089.513, 805.5328
1089.996, 806.2269
1090.478, 806.4639
1090.960, 806.2653
1091.442, 805.1741
1091.924, 802.5983
1092.406, 800.4707
1092.888, 801.6885
1093.370, 804.6988
1093.853, 806.0887
1094.335, 805.7289
1094.817, 805.4575
1095.299, 807.2600
1095.781, 807.5991
1096.263, 804.6609
1096.745, 800.3237
1097.227, 798.6655
1097.709, 799.3815
1098.192, 800.7651
1098.674, 802.5862
1099.156, 804.3398
1099.638, 806.2274
1100.120, 807.4416
1100.602, 806.9119
1101.084, 804.9146
1101.566, 804.8676
1102.048, 806.9023
1102.531, 807.9286
1103.013, 805.8422
1103.495, 803.9274
1103.977, 806.0363
1104.459, 810.3803
1104.941, 814.6943
1105.423, 818.6326
1105.905, 822.4018
1106.388, 825.9796
1106.870, 829.4894
1107.352, 832.8024
1107.834, 836.2531
1108.316, 841.0734
1108.798, 846.6738
1109.280, 851.4617
1109.762, 853.1570
1110.245, 856.6351
1110.727, 862.7101
1111.209, 870.2275
1111.691, 877.2812
1112.173, 884.7681
1112.655, 895.8597
1113.137, 910.8088
1113.619, 929.4928
1114.101, 954.2052
1114.583, 980.1468
1115.066, 1005.759
1115.548, 1030.626
1116.030, 1056.098
1116.512, 1081.769
1116.994, 1096.362
1117.476, 1098.418
1117.958, 1087.160
1118.440, 1055.933
1118.923, 1016.292
1119.405, 973.2090
1119.887, 928.6545
1120.369, 891.5057
1120.851, 861.7330
1121.333, 840.2861
1121.815, 828.6912
1122.297, 821.5951
1122.780, 813.3020
1123.262, 805.5202
1123.744, 800.4527
1124.226, 798.9814
1124.708, 797.6384
1125.190, 796.2210
1125.672, 795.4681
1126.154, 796.0098
1126.636, 797.0549
1127.119, 797.1281
1127.601, 796.6429
1128.083, 796.3939
1128.565, 796.6846
1129.047, 797.1038
1129.529, 797.9843
1130.011, 798.3022
1130.493, 796.9965
1130.975, 794.6448
1131.458, 792.9960
1131.940, 792.0206
1132.422, 791.6086
1132.904, 792.3754
1133.386, 792.8358
1133.868, 792.6835
1134.350, 792.0279
1134.832, 790.5264
1135.315, 788.4238
1135.797, 788.2109
1136.279, 789.8226
1136.761, 791.0817
1137.243, 790.6733
1137.725, 789.5343
1138.207, 787.0713
1138.689, 784.6512
1139.172, 785.3292
1139.654, 789.2393
1140.136, 789.7903
1140.618, 786.0351
1141.100, 782.6406
1141.582, 784.1906
1142.064, 786.8034
1142.546, 787.5468
1143.028, 786.6679
1143.510, 785.9969
1143.993, 785.4338
1144.475, 785.7805
1144.957, 787.2122
1145.439, 789.5230
1145.921, 793.8423
1146.403, 797.9885
1146.885, 799.5066
1147.367, 797.9479
1147.850, 796.3622
1148.332, 794.9606
1148.814, 792.8099
1149.296, 789.1158
1149.778, 785.6542
1150.260, 785.5543
1150.742, 787.0800
1151.224, 787.5491
1151.707, 786.1269
1152.189, 785.2249
1152.671, 785.2062
1153.153, 785.1426
1153.635, 784.3993
1154.117, 783.5513
1154.599, 783.9670
1155.081, 785.1663
1155.563, 786.1404
1156.046, 786.7632
1156.528, 786.7499
1157.010, 786.0309
1157.492, 784.8891
1157.974, 783.2361
1158.456, 781.4046
1158.938, 780.6137
1159.420, 780.6265
1159.902, 780.6848
1160.385, 780.1389
1160.867, 780.1561
1161.349, 781.5352
1161.831, 782.8213
1162.313, 782.2739
1162.795, 780.4081
1163.277, 780.5260
1163.759, 782.3524
1164.242, 784.1135
1164.724, 785.4397
1165.206, 785.7845
1165.688, 784.0972
1166.170, 782.0814
1166.652, 782.0170
1167.134, 783.6312
1167.616, 784.1096
1168.099, 783.3639
1168.581, 782.2357
1169.063, 780.6705
1169.545, 779.5139
1170.027, 779.7318
1170.509, 780.3486
1170.991, 779.4499
1171.473, 777.1481
1171.955, 776.7879
1172.438, 778.7554
1172.920, 780.7252
1173.402, 780.6430
1173.884, 780.3098
1174.366, 781.2126
1174.848, 782.6600
1175.330, 782.8430
1175.812, 781.7332
1176.294, 780.4446
1176.777, 779.0690
1177.259, 778.2869
1177.741, 779.3284
1178.223, 780.6082
1178.705, 780.6658
1179.187, 779.8446
1179.669, 780.0422
1180.151, 781.3685
1180.634, 781.9531
1181.116, 781.2140
1181.598, 780.3663
1182.080, 779.9285
1182.562, 780.3766
1183.044, 781.9929
1183.526, 784.8471
1184.008, 791.3427
1184.490, 802.5931
1184.973, 806.2238
1185.455, 796.4860
1185.937, 783.9474
1186.419, 778.0399
1186.901, 776.0129
1187.383, 775.7399
1187.865, 777.0794
1188.347, 777.1830
1188.829, 775.8446
1189.312, 775.0167
1189.794, 775.7416
1190.276, 776.6775
1190.758, 775.6840
1191.240, 774.3601
1191.722, 775.0569
1192.204, 778.5449
1192.686, 779.9167
1193.169, 778.8477
1193.651, 777.6013
1194.133, 777.0098
1194.615, 777.0869
1195.097, 777.9927
1195.579, 779.5231
1196.061, 781.4689
1196.543, 783.9747
1197.026, 786.5668
1197.508, 789.6354
1197.990, 790.4780
1198.472, 786.4007
1198.954, 780.6584
1199.436, 776.2986
1199.918, 773.4271
1200.400, 772.4972
1200.882, 774.2913
1201.365, 775.3060
1201.847, 775.2141
1202.329, 776.1593
1202.811, 781.6088
1203.293, 786.9783
1203.775, 785.8786
1204.257, 780.9090
1204.739, 776.8766
1205.221, 774.1316
1205.704, 773.2048
1206.186, 774.3878
1206.668, 775.7307
1207.150, 775.8440
1207.632, 775.3359
1208.114, 774.3750
1208.596, 773.4374
1209.078, 773.7931
1209.561, 776.6116
1210.043, 777.4975
1210.525, 776.0872
1211.007, 774.1783
1211.489, 772.7469
1211.971, 771.9021
1212.453, 772.1429
1212.935, 773.0468
1213.417, 773.4710
1213.900, 773.1091
1214.382, 773.0207
1214.864, 773.2891
1215.346, 773.6130
1215.828, 773.9501
1216.310, 774.0319
1216.792, 772.9879
1217.274, 771.4930
1217.756, 771.8297
1218.239, 775.1176
1218.721, 775.8851
1219.203, 773.4725
1219.685, 770.6165
1220.167, 769.4811
1220.649, 769.2430
1221.131, 769.3888
1221.613, 769.7574
1222.096, 769.9130
1222.578, 769.7391
1223.060, 769.8724
1223.542, 770.3863
1224.024, 771.1077
1224.506, 772.1951
1224.988, 773.1468
1225.470, 773.5038
1225.953, 773.3242
1226.435, 772.9498
1226.917, 772.3416
1227.399, 771.7612
1227.881, 771.2402
1228.363, 770.6033
1228.845, 769.1486
1229.327, 768.0234
1229.809, 768.7541
1230.292, 770.4900
1230.774, 770.4052
1231.256, 768.2413
1231.738, 767.8785
1232.220, 769.9203
1232.702, 771.6303
1233.184, 770.5839
1233.666, 768.6501
1234.148, 766.5755
1234.631, 764.7928
1235.113, 764.2665
1235.595, 765.0123
1236.077, 766.4736
1236.559, 768.6198
1237.041, 770.2202
1237.523, 769.8756
1238.005, 769.2076
1238.488, 769.4433
1238.970, 769.9552
1239.452, 769.0438
1239.934, 766.9151
1240.416, 766.5944
1240.898, 768.4834
1241.380, 770.2335
1241.862, 770.1034
1242.344, 769.6297
1242.827, 769.4332
1243.309, 769.4947
1243.791, 769.9645
1244.273, 770.7053
1244.755, 770.7446
1245.237, 769.9703
1245.719, 769.3521
1246.201, 769.9315
1246.683, 770.0641
1247.166, 768.7308
1247.648, 767.1293
1248.130, 767.7009
1248.612, 769.8361
1249.094, 771.7499
1249.576, 773.1893
1250.058, 773.5989
1250.540, 771.4105
1251.023, 769.9529
1251.505, 770.3015
1251.987, 771.4056
1252.469, 771.7665
1252.951, 771.5320
1253.433, 771.0056
1253.915, 770.2228
1254.397, 769.3010
1254.880, 767.9453
1255.362, 766.9902
1255.844, 766.6315
1256.326, 766.6868
1256.808, 766.7989
1257.290, 767.2098
1257.772, 768.8629
1258.254, 771.6140
1258.736, 772.5973
1259.219, 770.9535
1259.701, 768.8585
1260.183, 766.4368
1260.665, 764.6495
1261.147, 765.3130
1261.629, 766.8212
1262.111, 767.2218
1262.593, 766.4680
1263.075, 765.4928
1263.558, 763.9825
1264.040, 763.8520
1264.522, 765.5496
1265.004, 767.8597
1265.486, 770.4638
1265.968, 772.3978
1266.450, 772.5148
1266.932, 771.0702
1267.415, 769.5076
1267.897, 767.7786
1268.379, 766.3558
1268.861, 765.2884
1269.343, 765.0482
1269.825, 767.2473
1270.307, 769.2189
1270.789, 768.4384
1271.271, 766.3102
1271.754, 764.0101
1272.236, 761.9976
1272.718, 770.4982
1273.200, 790.4019
1273.682, 806.9072
1274.164, 813.0613
1274.646, 810.0084
1275.128, 794.1020
1275.610, 774.2762
1276.093, 764.9594
1276.575, 764.1188
1277.057, 763.8479
1277.539, 763.4319
1278.021, 763.5735
1278.503, 765.9513
1278.985, 766.9291
1279.467, 765.3102
1279.950, 762.7850
1280.432, 760.8763
1280.914, 759.9047
1281.396, 761.1445
1281.878, 764.2270
1282.360, 766.5354
1282.842, 767.1597
1283.324, 767.3682
1283.807, 767.2979
1284.289, 766.8349
1284.771, 765.3190
1285.253, 763.7116
1285.735, 763.6327
1286.217, 764.6581
1286.699, 764.8936
1287.181, 763.9067
1287.663, 763.3305
1288.146, 763.3217
1288.628, 763.5461
1289.110, 763.7252
1289.592, 764.0142
1290.074, 764.1902
1290.556, 764.7499
1291.038, 766.7988
1291.520, 770.5020
1292.002, 773.8049
1292.485, 776.5222
1292.967, 776.5801
1293.449, 769.4851
1293.931, 762.9791
1294.413, 761.8504
1294.895, 762.9342
1295.377, 762.3399
1295.859, 760.8388
1296.342, 766.0906
1296.824, 776.7330
1297.306, 784.0817
1297.788, 782.3739
1298.270, 778.5406
1298.752, 773.1414
1299.234, 768.0011
1299.716, 764.4099
1300.198, 762.4081
1300.681, 762.9456
1301.163, 765.1772
1301.645, 766.7288
1302.127, 766.7377
##END=



