##NAMES=Rutherfordine
##RRUFFID=R090018
##IDEAL CHEMISTRY=(U^6+^O_2_)CO_3_
##LOCALITY=El Sharana mine, South Alligator Valley, Northern Territory, Australia
##OWNER=RRUFF
##SOURCE=James Shigley
##DESCRIPTION=Bright yellow bladed crystals in vug
##STATUS=The identification of this mineral has been confirmed by single-crystal X-ray diffraction.
##URL=rruff.info/R090018
92.37695, 433.2202
92.85907, 431.6182
93.34119, 431.9059
93.82330, 429.8796
94.30542, 427.5284
94.78754, 427.9535
95.26965, 431.1365
95.75177, 432.2246
96.23389, 428.9612
96.71600, 423.8228
97.19812, 419.3051
97.68024, 415.8517
98.16235, 412.9563
98.64447, 409.6905
99.12659, 405.3585
99.60870, 401.6573
100.0908, 401.2099
100.5729, 402.0441
101.0551, 402.0697
101.5372, 400.1053
102.0193, 396.6094
102.5014, 394.2060
102.9835, 392.3250
103.4656, 392.1631
103.9478, 394.7739
104.4299, 399.2436
104.9120, 403.9878
105.3941, 407.7890
105.8762, 410.6011
106.3583, 412.8731
106.8405, 413.3350
107.3226, 414.2365
107.8047, 417.1414
108.2868, 422.0927
108.7689, 427.6589
109.2510, 432.1191
109.7332, 435.3498
110.2153, 439.3447
110.6974, 444.2842
111.1795, 450.1297
111.6616, 457.0190
112.1437, 465.1523
112.6259, 473.8878
113.1080, 482.1069
113.5901, 489.8109
114.0722, 498.6986
114.5543, 510.2236
115.0364, 524.3016
115.5185, 538.1165
116.0007, 549.6332
116.4828, 561.9409
116.9649, 577.5306
117.4470, 596.6344
117.9291, 617.0666
118.4112, 636.2584
118.8934, 654.0958
119.3755, 670.5876
119.8576, 685.2914
120.3397, 699.2494
120.8218, 713.1481
121.3039, 727.2762
121.7861, 741.6324
122.2682, 756.3661
122.7503, 772.6573
123.2324, 787.9246
123.7145, 800.5594
124.1966, 812.2923
124.6788, 825.4554
125.1609, 841.5692
125.6430, 860.3870
126.1251, 879.7845
126.6072, 899.3127
127.0893, 919.6947
127.5715, 940.9130
128.0536, 963.1494
128.5357, 986.9964
129.0178, 1013.547
129.4999, 1042.448
129.9821, 1070.649
130.4642, 1097.127
130.9463, 1123.568
131.4284, 1151.984
131.9105, 1182.709
132.3926, 1214.179
132.8748, 1244.690
133.3569, 1275.177
133.8390, 1307.053
134.3211, 1342.583
134.8032, 1380.186
135.2853, 1415.138
135.7674, 1447.746
136.2496, 1476.590
136.7317, 1502.146
137.2138, 1524.092
137.6959, 1541.589
138.1780, 1555.389
138.6601, 1566.173
139.1423, 1565.922
139.6244, 1547.452
140.1065, 1523.403
140.5886, 1495.873
141.0707, 1466.380
141.5528, 1436.722
142.0350, 1408.998
142.5171, 1383.393
142.9992, 1359.547
143.4813, 1335.430
143.9634, 1314.044
144.4455, 1297.168
144.9277, 1285.359
145.4098, 1277.760
145.8919, 1273.194
146.3740, 1272.854
146.8561, 1273.821
147.3382, 1276.030
147.8204, 1279.481
148.3025, 1284.479
148.7846, 1291.324
149.2667, 1299.076
149.7488, 1306.041
150.2309, 1312.531
150.7131, 1317.979
151.1952, 1322.282
151.6773, 1325.407
152.1594, 1327.231
152.6415, 1327.914
153.1236, 1326.804
153.6058, 1324.268
154.0879, 1321.069
154.5700, 1314.167
155.0521, 1299.912
155.5342, 1278.091
156.0163, 1255.366
156.4985, 1236.215
156.9806, 1216.184
157.4627, 1191.234
157.9448, 1160.056
158.4269, 1125.326
158.9090, 1090.347
159.3912, 1054.780
159.8733, 1020.140
160.3554, 986.3854
160.8375, 953.7740
161.3196, 922.1094
161.8017, 891.3474
162.2839, 862.0331
162.7660, 836.0613
163.2481, 814.3201
163.7302, 795.2510
164.2123, 779.1244
164.6944, 765.1409
165.1766, 752.3755
165.6587, 740.1812
166.1408, 728.8451
166.6229, 720.0735
167.1050, 715.4301
167.5871, 711.6143
168.0693, 708.2662
168.5514, 705.2603
169.0335, 702.4973
169.5156, 699.9434
169.9977, 697.5702
170.4798, 695.1871
170.9620, 692.5816
171.4441, 690.1661
171.9262, 687.7014
172.4083, 685.4196
172.8904, 684.3409
173.3725, 685.6108
173.8547, 688.9761
174.3368, 691.2390
174.8189, 691.8951
175.3010, 691.8259
175.7831, 691.3973
176.2652, 690.5988
176.7474, 690.2586
177.2295, 690.9645
177.7116, 692.6332
178.1937, 695.1274
178.6758, 699.4561
179.1579, 704.2339
179.6401, 707.0329
180.1222, 707.0062
180.6043, 707.4626
181.0864, 711.3444
181.5685, 717.0106
182.0506, 721.8169
182.5328, 724.4373
183.0149, 725.3376
183.4970, 726.0135
183.9791, 726.7843
184.4612, 726.7159
184.9433, 726.2168
185.4255, 724.7388
185.9076, 721.2792
186.3897, 714.9719
186.8718, 705.9872
187.3539, 696.3951
187.8360, 686.0535
188.3182, 675.1052
188.8003, 663.1954
189.2824, 650.7173
189.7645, 638.3481
190.2466, 626.6654
190.7287, 615.6354
191.2109, 605.0173
191.6930, 593.4869
192.1751, 583.5372
192.6572, 576.4781
193.1393, 571.8591
193.6214, 568.3023
194.1036, 564.6024
194.5857, 560.5530
195.0678, 558.0878
195.5499, 557.3508
196.0320, 557.6229
196.5141, 558.6940
196.9963, 560.4894
197.4784, 563.0140
197.9605, 566.4057
198.4426, 570.8505
198.9247, 574.5217
199.4068, 576.4214
199.8890, 578.3713
200.3711, 581.8118
200.8532, 586.7734
201.3353, 591.9481
201.8174, 596.2338
202.2995, 599.5333
202.7817, 602.4470
203.2638, 605.4484
203.7459, 607.8098
204.2280, 608.4302
204.7101, 607.1171
205.1922, 605.7186
205.6744, 606.5256
206.1565, 608.9155
206.6386, 609.7529
207.1207, 607.0983
207.6028, 603.0594
208.0849, 600.8370
208.5671, 601.1649
209.0492, 601.3321
209.5313, 599.1846
210.0134, 595.2919
210.4955, 590.4781
210.9776, 584.8090
211.4598, 578.4373
211.9419, 571.7007
212.4240, 564.7437
212.9061, 557.1356
213.3882, 548.0148
213.8703, 538.1520
214.3525, 529.0323
214.8346, 522.2573
215.3167, 516.8104
215.7988, 508.8844
216.2809, 496.8323
216.7630, 484.6883
217.2451, 474.0361
217.7273, 464.5150
218.2094, 455.3977
218.6915, 446.1107
219.1736, 436.8542
219.6557, 429.0495
220.1378, 424.1301
220.6200, 419.0220
221.1021, 412.1389
221.5842, 404.5212
222.0663, 397.9203
222.5484, 393.6889
223.0305, 391.5306
223.5127, 388.5543
223.9948, 383.1713
224.4769, 378.6711
224.9590, 376.2346
225.4411, 375.1034
225.9232, 373.9146
226.4054, 371.6992
226.8875, 368.6130
227.3696, 366.3553
227.8517, 365.6576
228.3338, 365.0743
228.8159, 364.1956
229.2981, 363.2287
229.7802, 362.6746
230.2623, 362.9179
230.7444, 363.8294
231.2265, 363.9082
231.7086, 362.2512
232.1908, 360.8186
232.6729, 360.4906
233.1550, 360.7320
233.6371, 360.3081
234.1192, 358.3284
234.6013, 355.1628
235.0835, 353.6777
235.5656, 355.3358
236.0477, 356.7125
236.5298, 356.9058
237.0119, 356.0576
237.4940, 354.4071
237.9762, 351.9113
238.4583, 348.8886
238.9404, 346.8604
239.4225, 345.9680
239.9046, 345.6666
240.3867, 346.4550
240.8689, 347.7656
241.3510, 348.1661
241.8331, 346.8753
242.3152, 344.2459
242.7973, 341.4066
243.2794, 338.4131
243.7616, 335.1899
244.2437, 331.8408
244.7258, 328.2776
245.2079, 324.2432
245.6900, 319.6482
246.1721, 314.4700
246.6543, 308.5760
247.1364, 301.6540
247.6185, 294.9783
248.1006, 288.9315
248.5827, 283.6061
249.0648, 279.3913
249.5470, 276.8442
250.0291, 274.9721
250.5112, 272.1894
250.9933, 268.3328
251.4754, 264.5967
251.9576, 261.4700
252.4397, 258.9633
252.9218, 257.0286
253.4039, 255.6596
253.8860, 254.9487
254.3681, 255.2273
254.8503, 256.4966
255.3324, 257.2784
255.8145, 255.9742
256.2966, 253.1463
256.7787, 251.8326
257.2608, 253.4730
257.7430, 255.5881
258.2251, 255.6776
258.7072, 254.0957
259.1893, 253.1914
259.6714, 255.5012
260.1535, 260.1805
260.6357, 262.2775
261.1178, 259.7415
261.5999, 256.6016
262.0820, 255.8130
262.5641, 256.6741
263.0462, 256.9897
263.5284, 254.6941
264.0105, 250.3872
264.4926, 247.6760
264.9747, 247.3994
265.4568, 247.6583
265.9389, 247.5549
266.4211, 247.2201
266.9032, 246.9651
267.3853, 247.1258
267.8674, 247.5041
268.3495, 247.1545
268.8316, 245.4948
269.3138, 243.9661
269.7959, 243.0047
270.2780, 242.5131
270.7601, 242.3928
271.2422, 242.6828
271.7243, 243.2153
272.2065, 243.3999
272.6886, 242.9819
273.1707, 242.6364
273.6528, 242.3532
274.1349, 242.2955
274.6170, 242.7348
275.0992, 243.8390
275.5813, 245.3021
276.0634, 246.3756
276.5455, 247.0099
277.0276, 247.3041
277.5097, 247.1897
277.9919, 246.8630
278.4740, 246.3755
278.9561, 245.7508
279.4382, 245.2756
279.9203, 245.5519
280.4024, 246.9883
280.8846, 248.3339
281.3667, 249.8303
281.8488, 250.9774
282.3309, 251.2912
282.8130, 250.6936
283.2951, 249.6046
283.7773, 248.5636
284.2594, 247.4276
284.7415, 246.7299
285.2236, 246.9289
285.7057, 247.1656
286.1878, 246.6934
286.6700, 245.5698
287.1521, 244.6243
287.6342, 245.0234
288.1163, 247.4383
288.5984, 248.5066
289.0805, 246.7943
289.5627, 245.1237
290.0448, 244.9367
290.5269, 246.0581
291.0090, 247.4122
291.4911, 248.0984
291.9732, 248.1223
292.4554, 247.3790
292.9375, 244.8866
293.4196, 242.6126
293.9017, 241.3191
294.3838, 240.7577
294.8659, 240.3316
295.3481, 239.6567
295.8302, 238.7213
296.3123, 237.3955
296.7944, 234.7446
297.2765, 232.7016
297.7586, 231.9275
298.2408, 231.9501
298.7229, 232.2513
299.2050, 232.5966
299.6871, 232.7170
300.1692, 231.5365
300.6513, 227.5825
301.1335, 224.0262
301.6156, 221.2267
302.0977, 218.9399
302.5798, 216.8819
303.0619, 214.9472
303.5440, 213.1939
304.0262, 211.7598
304.5083, 211.2724
304.9904, 210.1392
305.4725, 208.0685
305.9546, 205.5752
306.4367, 202.9156
306.9189, 200.2175
307.4010, 197.6513
307.8831, 195.4648
308.3652, 193.7689
308.8473, 192.2077
309.3294, 190.8954
309.8116, 189.5914
310.2937, 188.3097
310.7758, 186.9507
311.2579, 185.1826
311.7400, 182.5639
312.2221, 178.8026
312.7043, 176.1867
313.1864, 175.3722
313.6685, 174.8606
314.1506, 174.1982
314.6327, 173.3513
315.1148, 172.3402
315.5970, 171.1157
316.0791, 169.7477
316.5612, 169.2225
317.0433, 170.7505
317.5254, 171.7740
318.0075, 171.5612
318.4897, 170.5443
318.9718, 169.2325
319.4539, 167.8537
319.9360, 166.6732
320.4181, 166.5811
320.9002, 169.6931
321.3824, 171.2023
321.8645, 169.7318
322.3466, 167.1262
322.8287, 165.0424
323.3108, 164.0789
323.7929, 163.9383
324.2751, 164.1505
324.7572, 164.8594
325.2393, 165.6845
325.7214, 166.9648
326.2035, 168.1060
326.6856, 168.6908
327.1678, 168.6833
327.6499, 168.3335
328.1320, 167.8863
328.6141, 167.3138
329.0962, 166.7751
329.5783, 166.3255
330.0605, 165.8523
330.5426, 164.9612
331.0247, 163.9662
331.5068, 163.7307
331.9889, 165.0494
332.4710, 167.7645
332.9532, 169.2964
333.4353, 168.8660
333.9174, 168.0225
334.3995, 166.5331
334.8816, 164.9323
335.3637, 164.0440
335.8459, 164.3133
336.3280, 165.2449
336.8101, 165.3163
337.2922, 163.5602
337.7743, 162.3719
338.2564, 162.2532
338.7386, 162.5475
339.2206, 162.6576
339.7028, 162.4261
340.1849, 162.1346
340.6670, 162.2725
341.1491, 163.1923
341.6312, 163.6475
342.1133, 163.3918
342.5955, 162.9423
343.0776, 162.5613
343.5597, 162.2631
344.0418, 161.9077
344.5239, 161.3058
345.0060, 160.4209
345.4882, 159.9286
345.9703, 160.6413
346.4524, 160.9572
346.9345, 159.8519
347.4166, 158.0930
347.8987, 157.1383
348.3809, 157.9827
348.8630, 160.1227
349.3451, 161.4917
349.8272, 161.7817
350.3093, 161.7147
350.7914, 161.0307
351.2736, 160.2970
351.7557, 160.3141
352.2378, 161.3429
352.7199, 162.4773
353.2020, 161.8925
353.6841, 158.5946
354.1663, 156.6335
354.6484, 157.0309
355.1305, 158.3989
355.6126, 160.7355
356.0947, 163.6297
356.5768, 165.6139
357.0590, 164.7152
357.5411, 160.7829
358.0232, 158.0418
358.5053, 156.8774
358.9874, 156.6401
359.4695, 157.4794
359.9517, 158.9741
360.4338, 160.3374
360.9159, 161.1201
361.3980, 161.4432
361.8801, 161.6226
362.3622, 161.4907
362.8444, 161.5933
363.3265, 162.3517
363.8086, 163.3211
364.2907, 164.0755
364.7728, 164.4976
365.2549, 164.6358
365.7371, 164.4662
366.2192, 163.9437
366.7013, 163.5054
367.1834, 163.0554
367.6655, 162.9102
368.1476, 163.4447
368.6298, 164.6277
369.1119, 165.8234
369.5940, 166.6357
370.0761, 167.0886
370.5582, 167.2239
371.0403, 166.8643
371.5225, 166.5156
372.0046, 166.5438
372.4867, 166.8401
372.9688, 167.1760
373.4509, 167.5544
373.9330, 167.8695
374.4152, 167.9131
374.8973, 167.6521
375.3794, 167.3636
375.8615, 166.8240
376.3436, 166.5379
376.8257, 167.4762
377.3079, 170.3760
377.7900, 172.8704
378.2721, 172.9184
378.7542, 171.0030
379.2363, 169.1748
379.7184, 167.8959
380.2006, 167.0678
380.6827, 166.5235
381.1648, 166.2311
381.6469, 166.4054
382.1290, 167.5729
382.6111, 169.0651
383.0933, 169.8674
383.5754, 169.8429
384.0575, 169.6686
384.5396, 169.9881
385.0217, 170.6670
385.5038, 170.7491
385.9860, 169.6062
386.4681, 168.4036
386.9502, 167.9817
387.4323, 168.1304
387.9144, 167.9993
388.3965, 167.0566
388.8787, 165.7956
389.3608, 165.6509
389.8429, 167.2989
390.3250, 168.4280
390.8071, 168.1933
391.2892, 167.3518
391.7714, 166.8124
392.2535, 166.7788
392.7356, 166.8924
393.2177, 166.7554
393.6998, 166.3326
394.1819, 165.7423
394.6641, 164.4125
395.1462, 163.4357
395.6283, 163.5812
396.1104, 164.6422
396.5925, 166.0434
397.0746, 167.5301
397.5568, 168.8925
398.0389, 168.9529
398.5210, 165.7966
399.0031, 163.6310
399.4852, 163.4789
399.9673, 164.2862
400.4495, 165.0686
400.9316, 165.4614
401.4137, 165.4137
401.8958, 164.7097
402.3779, 162.7415
402.8600, 161.8101
403.3422, 162.4693
403.8243, 163.5106
404.3064, 164.5158
404.7885, 165.3795
405.2706, 166.0878
405.7527, 166.6555
406.2349, 167.0533
406.7170, 166.9468
407.1991, 165.5603
407.6812, 164.8086
408.1633, 165.4334
408.6454, 166.7329
409.1276, 168.0504
409.6097, 169.1577
410.0918, 169.9261
410.5739, 170.0114
411.0560, 169.2243
411.5381, 168.7624
412.0203, 168.7155
412.5024, 169.1585
412.9845, 170.4782
413.4666, 172.4616
413.9487, 174.1881
414.4308, 174.7078
414.9130, 174.4171
415.3951, 174.8350
415.8772, 176.1085
416.3593, 177.7383
416.8414, 179.9398
417.3235, 182.1928
417.8057, 183.6305
418.2878, 183.6596
418.7699, 183.6042
419.2520, 185.0626
419.7341, 187.8371
420.2162, 189.9458
420.6984, 190.5075
421.1805, 190.5163
421.6626, 191.3124
422.1447, 192.9018
422.6268, 194.3063
423.1089, 194.8529
423.5911, 195.1508
424.0732, 196.2034
424.5553, 198.1205
425.0374, 199.9594
425.5195, 201.0875
426.0016, 201.4759
426.4838, 201.3891
426.9659, 199.8887
427.4480, 198.9111
427.9301, 199.9700
428.4122, 202.1452
428.8943, 203.4410
429.3765, 203.0716
429.8586, 201.7543
430.3407, 200.6420
430.8228, 199.4184
431.3049, 199.2696
431.7870, 201.2974
432.2692, 203.5865
432.7513, 204.9392
433.2334, 205.2081
433.7155, 204.5736
434.1976, 203.0306
434.6797, 200.6977
435.1619, 199.3008
435.6440, 200.2616
436.1261, 200.5238
436.6082, 199.1096
437.0903, 196.9377
437.5724, 195.0446
438.0546, 193.8051
438.5367, 192.9281
439.0188, 191.9982
439.5009, 191.0426
439.9830, 189.9421
440.4651, 188.6289
440.9473, 187.2156
441.4294, 185.6749
441.9115, 184.0698
442.3936, 182.5722
442.8757, 181.3936
443.3578, 180.3519
443.8400, 178.7781
444.3221, 176.3598
444.8042, 174.1784
445.2863, 173.2506
445.7684, 172.4006
446.2505, 170.2537
446.7327, 166.4377
447.2148, 162.7616
447.6969, 161.0357
448.1790, 160.9360
448.6611, 160.6672
449.1432, 159.9768
449.6254, 159.0482
450.1075, 157.9848
450.5896, 156.8112
451.0717, 155.5664
451.5538, 153.7341
452.0359, 152.2173
452.5181, 152.4149
453.0002, 154.0171
453.4823, 154.7715
453.9644, 153.4138
454.4465, 150.8905
454.9286, 149.3756
455.4108, 149.1686
455.8929, 148.8369
456.3750, 147.5775
456.8571, 146.2907
457.3392, 146.3773
457.8214, 147.8563
458.3035, 148.9319
458.7856, 147.8319
459.2677, 144.5152
459.7498, 142.5560
460.2319, 142.7785
460.7141, 143.1693
461.1962, 143.5521
461.6783, 143.6361
462.1604, 142.7320
462.6425, 140.6358
463.1246, 138.4482
463.6068, 138.3051
464.0889, 141.6080
464.5710, 143.2203
465.0531, 141.7257
465.5352, 139.9680
466.0173, 139.3893
466.4995, 139.6982
466.9816, 139.7746
467.4637, 138.7879
467.9458, 137.1705
468.4279, 136.3476
468.9100, 136.6019
469.3922, 136.9154
469.8743, 137.1966
470.3564, 137.2880
470.8385, 136.9312
471.3206, 136.1003
471.8027, 135.3034
472.2849, 135.0744
472.7670, 135.2230
473.2491, 134.8712
473.7312, 133.6480
474.2133, 132.7868
474.6954, 133.9489
475.1776, 136.1070
475.6597, 136.7350
476.1418, 134.1433
476.6239, 131.5115
477.1060, 131.3645
477.5881, 132.9944
478.0703, 134.3931
478.5524, 134.9487
479.0345, 134.7916
479.5166, 133.8985
479.9987, 131.9496
480.4808, 130.8142
480.9630, 131.2163
481.4451, 131.9444
481.9272, 132.2988
482.4093, 132.2562
482.8914, 131.9646
483.3735, 131.4884
483.8557, 130.8960
484.3378, 130.4318
484.8199, 130.2546
485.3020, 129.9803
485.7841, 129.0866
486.2662, 128.4453
486.7484, 129.0938
487.2305, 130.8887
487.7126, 132.5217
488.1947, 132.7428
488.6768, 131.6449
489.1589, 130.7528
489.6411, 130.1600
490.1232, 129.6309
490.6053, 128.7534
491.0874, 128.0350
491.5695, 128.2304
492.0516, 129.6072
492.5338, 131.1466
493.0159, 131.8441
493.4980, 131.7559
493.9801, 131.2585
494.4622, 130.1343
494.9443, 129.1241
495.4265, 129.0024
495.9086, 129.4952
496.3907, 129.8805
496.8728, 130.1458
497.3549, 130.0983
497.8370, 129.2644
498.3192, 127.9090
498.8013, 127.1065
499.2834, 127.3676
499.7655, 128.0682
500.2476, 128.0992
500.7297, 127.0584
501.2119, 126.8271
501.6940, 128.2527
502.1761, 129.9218
502.6582, 131.0893
503.1403, 131.6310
503.6224, 131.4086
504.1045, 130.2439
504.5866, 128.5236
505.0688, 127.6519
505.5509, 128.2123
506.0330, 128.7452
506.5151, 129.3451
506.9972, 129.7577
507.4793, 129.7396
507.9615, 129.3203
508.4436, 128.7406
508.9257, 128.1104
509.4078, 127.4879
509.8899, 127.2903
510.3720, 127.6914
510.8542, 128.1396
511.3363, 128.7338
511.8184, 129.1163
512.3005, 128.7957
512.7827, 127.6310
513.2648, 126.3602
513.7469, 125.3712
514.2290, 124.7072
514.7111, 124.5791
515.1932, 125.1053
515.6754, 125.7448
516.1575, 126.1940
516.6396, 126.4096
517.1217, 126.2898
517.6038, 125.5519
518.0859, 124.8009
518.5681, 124.2514
519.0502, 123.8848
519.5323, 123.6772
520.0144, 123.6207
520.4965, 123.7233
520.9786, 124.0612
521.4608, 124.7676
521.9429, 124.8688
522.4250, 123.9573
522.9071, 122.9866
523.3892, 121.9342
523.8713, 121.1484
524.3535, 121.3376
524.8356, 122.7712
525.3177, 124.5113
525.7998, 124.8127
526.2819, 123.2589
526.7640, 122.3651
527.2462, 122.8787
527.7283, 123.4696
528.2104, 123.3417
528.6925, 122.8037
529.1746, 122.6335
529.6567, 123.3138
530.1389, 124.2663
530.6210, 124.8100
531.1031, 124.9474
531.5852, 124.6415
532.0673, 123.6566
532.5494, 122.5724
533.0316, 122.2118
533.5137, 122.5215
533.9958, 122.6566
534.4779, 122.1308
534.9600, 121.6308
535.4421, 121.8445
535.9243, 122.5781
536.4064, 123.1313
536.8885, 123.1676
537.3706, 122.8455
537.8527, 122.4944
538.3348, 122.1266
538.8170, 121.6902
539.2991, 120.6102
539.7812, 119.9793
540.2633, 121.0140
540.7454, 123.0573
541.2275, 124.2678
541.7097, 123.4088
542.1918, 121.3821
542.6739, 120.5850
543.1560, 121.3661
543.6381, 122.2617
544.1202, 123.3406
544.6024, 124.1579
545.0845, 124.2817
545.5666, 123.8180
546.0487, 123.3707
546.5308, 123.5018
547.0129, 123.7153
547.4951, 122.9958
547.9772, 121.3758
548.4593, 120.1190
548.9414, 119.6423
549.4235, 119.9429
549.9056, 121.3024
550.3878, 123.9162
550.8699, 126.1427
551.3520, 128.1782
551.8341, 129.3110
552.3162, 128.3276
552.7983, 125.7748
553.2805, 123.6131
553.7626, 122.9925
554.2447, 123.4593
554.7268, 123.6997
555.2089, 123.5564
555.6910, 123.4584
556.1732, 123.6615
556.6553, 123.6990
557.1374, 122.9270
557.6195, 121.6888
558.1016, 121.1012
558.5837, 122.0568
559.0659, 123.8282
559.5480, 124.6405
560.0301, 124.3265
560.5122, 124.0178
560.9943, 123.9377
561.4764, 124.0758
561.9586, 124.5175
562.4407, 125.2287
562.9228, 125.7261
563.4049, 125.9148
563.8870, 125.7469
564.3691, 124.8153
564.8513, 123.3458
565.3334, 122.5703
565.8155, 123.1530
566.2976, 124.3991
566.7797, 124.9547
567.2618, 124.2213
567.7440, 124.2088
568.2261, 125.9483
568.7082, 127.4559
569.1903, 127.1368
569.6724, 125.6664
570.1545, 124.8690
570.6367, 125.7650
571.1188, 127.4462
571.6009, 127.9316
572.0830, 126.9032
572.5651, 125.8895
573.0472, 124.8365
573.5294, 124.0594
574.0115, 123.6276
574.4936, 123.5940
574.9757, 124.1529
575.4578, 125.8047
575.9399, 127.5070
576.4221, 128.0645
576.9042, 127.5906
577.3863, 126.5289
577.8684, 124.7422
578.3505, 123.2148
578.8326, 123.4559
579.3148, 125.6563
579.7969, 126.3450
580.2790, 123.8407
580.7611, 121.4675
581.2432, 121.1174
581.7253, 121.9048
582.2075, 122.2294
582.6896, 121.5486
583.1717, 120.5201
583.6538, 120.0231
584.1359, 120.0981
584.6180, 120.4229
585.1002, 121.2767
585.5823, 122.0569
586.0643, 122.6081
586.5464, 122.9650
587.0286, 123.2726
587.5107, 123.6017
587.9928, 123.5006
588.4749, 121.8861
588.9570, 119.3873
589.4391, 118.7977
589.9213, 120.8093
590.4034, 122.8804
590.8855, 123.3849
591.3676, 122.5423
591.8497, 121.3944
592.3318, 119.4911
592.8140, 118.0298
593.2961, 117.4630
593.7782, 117.4904
594.2603, 118.0953
594.7424, 119.0763
595.2245, 119.6113
595.7067, 118.9249
596.1888, 117.3401
596.6709, 116.7690
597.1530, 118.0803
597.6351, 118.9045
598.1172, 118.6357
598.5994, 118.0674
599.0815, 117.7148
599.5636, 117.6180
600.0457, 117.5952
600.5278, 117.4771
601.0099, 117.3955
601.4921, 117.7264
601.9742, 118.4787
602.4563, 118.9509
602.9384, 118.8442
603.4205, 118.4255
603.9026, 117.9422
604.3848, 117.3627
604.8669, 117.1642
605.3490, 118.1158
605.8311, 118.8053
606.3132, 117.9110
606.7953, 116.1026
607.2775, 114.9172
607.7596, 114.9545
608.2417, 115.5787
608.7238, 115.8231
609.2059, 115.6018
609.6880, 115.4220
610.1702, 114.9657
610.6523, 114.9408
611.1344, 116.2275
611.6165, 117.8300
612.0986, 118.2418
612.5807, 116.9721
613.0629, 115.3215
613.5450, 114.4358
614.0271, 114.1383
614.5092, 113.8516
614.9913, 113.5122
615.4734, 113.2099
615.9556, 112.9052
616.4377, 112.7156
616.9198, 113.0830
617.4019, 114.5420
617.8840, 115.4933
618.3661, 114.8904
618.8483, 114.1695
619.3304, 115.1740
619.8125, 117.4559
620.2946, 118.6830
620.7767, 117.1812
621.2589, 114.0992
621.7410, 112.9971
622.2231, 114.7740
622.7052, 115.8601
623.1873, 115.1332
623.6694, 114.1845
624.1516, 113.8415
624.6337, 114.0177
625.1158, 114.3658
625.5979, 114.8750
626.0800, 115.3224
626.5621, 115.5265
627.0443, 115.4811
627.5264, 115.0784
628.0085, 114.2492
628.4906, 113.3866
628.9727, 112.8268
629.4548, 112.5736
629.9370, 112.6625
630.4191, 113.1779
630.9012, 113.8697
631.3833, 115.2209
631.8654, 116.4079
632.3475, 116.3856
632.8297, 115.1543
633.3118, 113.6987
633.7939, 112.7108
634.2760, 112.2554
634.7581, 112.9153
635.2402, 115.1754
635.7224, 116.6117
636.2045, 115.9120
636.6866, 114.5446
637.1687, 114.0454
637.6508, 114.3864
638.1329, 114.7967
638.6151, 115.0654
639.0972, 115.2881
639.5793, 115.5131
640.0614, 115.7560
640.5435, 116.1593
641.0256, 116.7745
641.5078, 117.1579
641.9899, 116.5586
642.4720, 114.7141
642.9541, 114.0511
643.4362, 115.8989
643.9183, 117.4142
644.4005, 117.8478
644.8826, 117.6934
645.3647, 117.4801
645.8468, 117.3250
646.3289, 117.0890
646.8110, 116.4974
647.2932, 115.7737
647.7753, 115.3819
648.2574, 115.3241
648.7395, 116.0127
649.2216, 118.0061
649.7037, 120.3680
650.1859, 121.3184
650.6680, 120.5375
651.1501, 119.9194
651.6322, 119.5267
652.1143, 119.4123
652.5964, 119.9603
653.0786, 120.7272
653.5607, 120.7263
654.0428, 119.6349
654.5249, 118.4744
655.0070, 118.9583
655.4891, 121.1896
655.9713, 122.1154
656.4534, 121.1023
656.9355, 120.0134
657.4176, 119.5860
657.8997, 119.6367
658.3818, 120.0981
658.8640, 121.0381
659.3461, 121.8299
659.8282, 122.1007
660.3103, 122.1390
660.7924, 122.2484
661.2745, 122.4327
661.7567, 122.6283
662.2388, 122.8164
662.7209, 122.9033
663.2030, 122.6449
663.6851, 121.7472
664.1672, 121.4681
664.6494, 122.3910
665.1315, 123.3098
665.6136, 123.8328
666.0957, 124.1055
666.5778, 124.2769
667.0599, 124.3768
667.5421, 124.6902
668.0242, 125.7877
668.5063, 127.2217
668.9884, 127.8497
669.4705, 127.5906
669.9526, 126.9812
670.4348, 126.1499
670.9169, 125.3613
671.3990, 125.2443
671.8811, 126.1918
672.3632, 126.8563
672.8453, 126.9101
673.3275, 126.9767
673.8096, 127.7163
674.2917, 128.6216
674.7738, 128.7087
675.2559, 127.6034
675.7380, 126.0616
676.2202, 124.7194
676.7023, 123.6560
677.1844, 123.9395
677.6665, 126.0969
678.1486, 127.9052
678.6307, 127.8510
679.1129, 126.9656
679.5950, 127.4299
680.0771, 129.7821
680.5592, 131.0863
681.0413, 129.3682
681.5234, 127.4347
682.0056, 127.5381
682.4877, 129.1999
682.9698, 131.1736
683.4519, 132.9031
683.9340, 134.0039
684.4161, 133.5407
684.8983, 131.2647
685.3804, 130.4570
685.8625, 131.7351
686.3446, 133.4118
686.8267, 135.1926
687.3088, 136.7572
687.7910, 137.6276
688.2731, 137.6972
688.7552, 137.7525
689.2373, 138.1534
689.7194, 138.6998
690.2015, 139.1637
690.6837, 139.5795
691.1658, 140.0823
691.6479, 140.7281
692.1300, 141.5231
692.6121, 142.4972
693.0942, 143.6590
693.5764, 144.9274
694.0585, 146.8297
694.5406, 148.0950
695.0227, 147.7978
695.5048, 147.0616
695.9869, 147.1287
696.4691, 148.1630
696.9512, 149.3029
697.4333, 150.0165
697.9154, 150.5661
698.3975, 151.0355
698.8796, 151.5897
699.3618, 153.2480
699.8439, 156.4955
700.3260, 159.9348
700.8081, 161.6220
701.2902, 161.3355
701.7723, 161.4025
702.2545, 162.5708
702.7366, 163.1747
703.2187, 162.7290
703.7008, 161.6783
704.1829, 160.4937
704.6650, 159.2064
705.1472, 157.4372
705.6293, 154.5870
706.1114, 151.3775
706.5935, 148.8870
707.0756, 147.0891
707.5577, 145.8692
708.0399, 145.2585
708.5220, 144.8939
709.0041, 144.3911
709.4862, 143.7492
709.9683, 143.2328
710.4504, 142.4546
710.9326, 142.2977
711.4147, 143.7143
711.8968, 145.2243
712.3789, 145.3880
712.8610, 144.3303
713.3431, 143.1753
713.8253, 142.4344
714.3074, 142.2461
714.7895, 143.2451
715.2716, 145.1812
715.7537, 146.2381
716.2358, 145.9812
716.7180, 144.9961
717.2001, 143.3795
717.6822, 141.4215
718.1643, 141.1091
718.6464, 144.5180
719.1285, 146.5228
719.6107, 145.2013
720.0928, 143.5311
720.5749, 143.8874
721.0570, 145.7663
721.5391, 147.1718
722.0212, 147.0126
722.5034, 146.6130
722.9855, 148.3712
723.4676, 151.7086
723.9497, 152.7892
724.4318, 150.8857
724.9139, 148.6553
725.3961, 147.5010
725.8782, 147.3312
726.3603, 148.0676
726.8424, 150.5789
727.3245, 151.9767
727.8066, 151.5896
728.2888, 150.5762
728.7709, 148.8458
729.2530, 147.1722
729.7351, 146.8499
730.2172, 148.3020
730.6993, 150.5329
731.1815, 152.5979
731.6636, 154.5591
732.1457, 156.8163
732.6278, 159.4414
733.1099, 161.4510
733.5920, 162.3719
734.0742, 162.5659
734.5563, 162.5078
735.0384, 162.1184
735.5205, 161.8778
736.0026, 161.4750
736.4847, 161.5819
736.9669, 162.9218
737.4490, 164.6282
737.9311, 165.5121
738.4132, 165.5175
738.8953, 165.8417
739.3774, 167.5119
739.8596, 170.0139
740.3417, 172.5957
740.8238, 175.2015
741.3059, 176.6302
741.7880, 176.2807
742.2701, 175.7084
742.7523, 176.4333
743.2344, 178.3649
743.7165, 180.0771
744.1986, 181.1934
744.6807, 182.6178
745.1628, 184.8375
745.6450, 187.0935
746.1271, 188.6819
746.6092, 189.7770
747.0913, 190.9783
747.5734, 192.4897
748.0555, 194.5190
748.5377, 197.9608
749.0198, 202.1795
749.5019, 204.2140
749.9840, 203.6019
750.4661, 203.7180
750.9482, 206.8708
751.4304, 211.7118
751.9125, 214.8794
752.3946, 215.0824
752.8767, 216.6458
753.3588, 221.2949
753.8409, 225.3032
754.3231, 226.2961
754.8052, 226.0678
755.2873, 227.1569
755.7694, 230.1640
756.2515, 233.8762
756.7336, 237.8518
757.2158, 241.7175
757.6979, 244.5738
758.1800, 246.6148
758.6621, 249.1513
759.1442, 252.7106
759.6263, 256.2297
760.1085, 258.3888
760.5906, 259.1755
761.0727, 260.4930
761.5548, 263.0344
762.0369, 265.0752
762.5190, 266.1007
763.0012, 266.7783
763.4833, 267.1393
763.9654, 267.5405
764.4475, 269.1846
764.9296, 273.4130
765.4117, 277.4873
765.8939, 278.9225
766.3760, 278.7139
766.8581, 278.4858
767.3402, 278.5414
767.8223, 279.0061
768.3044, 280.0076
768.7866, 281.2708
769.2687, 282.0883
769.7508, 282.3683
770.2329, 282.5600
770.7150, 282.8773
771.1971, 282.8130
771.6793, 281.8670
772.1614, 280.5479
772.6435, 279.2352
773.1256, 277.8312
773.6077, 277.8594
774.0898, 281.5146
774.5720, 285.3879
775.0541, 285.7935
775.5362, 284.4712
776.0183, 285.3575
776.5004, 289.4694
776.9825, 294.4793
777.4647, 298.0404
777.9468, 300.4831
778.4289, 303.3866
778.9110, 306.8127
779.3931, 310.4911
779.8752, 314.4325
780.3574, 318.4740
780.8395, 322.2379
781.3216, 325.9296
781.8037, 330.4640
782.2858, 338.3797
782.7679, 343.5350
783.2501, 343.4678
783.7322, 340.8785
784.2143, 337.2830
784.6964, 333.1782
785.1785, 329.1703
785.6606, 325.5628
786.1428, 321.3671
786.6249, 314.4244
787.1070, 305.7490
787.5891, 299.7004
788.0712, 296.6025
788.5533, 294.5946
789.0355, 293.0439
789.5176, 291.7881
789.9997, 290.6948
790.4818, 289.9166
790.9639, 288.3111
791.4460, 284.5948
791.9282, 281.7191
792.4103, 280.9974
792.8924, 280.9262
793.3745, 280.0594
793.8566, 278.4097
794.3387, 277.0270
794.8209, 276.9915
795.3030, 276.5627
795.7851, 273.8315
796.2672, 269.4705
796.7493, 264.6305
797.2314, 259.6085
797.7136, 255.1909
798.1957, 251.9685
798.6778, 249.2858
799.1599, 245.5520
799.6420, 240.5346
800.1241, 235.3159
800.6063, 229.3900
801.0884, 224.0617
801.5705, 220.4671
802.0526, 217.5764
802.5347, 213.8768
803.0168, 209.1109
803.4990, 205.7752
803.9811, 205.5040
804.4632, 205.9159
804.9453, 205.5961
805.4274, 204.9651
805.9095, 205.0139
806.3917, 205.7191
806.8738, 205.7783
807.3559, 204.0081
807.8380, 201.2139
808.3201, 199.1986
808.8022, 197.9231
809.2844, 196.8255
809.7665, 195.9321
810.2486, 194.6150
810.7307, 192.2057
811.2128, 189.2065
811.6949, 187.2238
812.1771, 186.8207
812.6592, 186.3296
813.1413, 185.3618
813.6234, 184.7374
814.1055, 185.1239
814.5876, 185.9252
815.0698, 186.3693
815.5519, 186.2998
816.0340, 185.9777
816.5161, 185.0548
816.9982, 184.3586
817.4803, 185.5803
817.9625, 187.7541
818.4446, 187.8373
818.9267, 185.3084
819.4088, 183.0932
819.8909, 183.8124
820.3730, 186.5376
820.8552, 187.8553
821.3373, 187.3212
821.8194, 187.3596
822.3015, 188.3058
822.7836, 189.7370
823.2657, 191.9961
823.7479, 194.3667
824.2300, 195.2313
824.7121, 194.0371
825.1942, 193.3528
825.6763, 194.1618
826.1584, 195.1127
826.6406, 195.4717
827.1227, 195.4600
827.6048, 195.4673
828.0869, 195.5675
828.5690, 195.5703
829.0511, 195.3329
829.5333, 194.9071
830.0154, 194.1229
830.4975, 193.1678
830.9796, 193.2136
831.4617, 194.5224
831.9438, 195.6278
832.4260, 195.4445
832.9081, 194.2949
833.3902, 193.0448
833.8723, 191.2710
834.3544, 190.5132
834.8365, 191.2759
835.3187, 192.4449
835.8008, 194.2977
836.2829, 195.9032
836.7650, 195.9064
837.2471, 194.1558
837.7292, 192.4209
838.2114, 190.8640
838.6935, 189.9306
839.1756, 190.2419
839.6577, 191.1763
840.1398, 192.1255
840.6219, 192.8286
841.1041, 192.8285
841.5862, 191.7023
842.0683, 190.1242
842.5504, 189.2444
843.0325, 188.9930
843.5146, 188.9317
843.9968, 189.0224
844.4789, 189.2325
844.9610, 189.5573
845.4431, 189.9668
845.9252, 190.4305
846.4073, 191.0015
846.8895, 191.3479
847.3716, 191.0651
847.8537, 191.0989
848.3358, 191.6598
848.8179, 192.6092
849.3000, 193.9155
849.7822, 195.5165
850.2643, 197.1455
850.7464, 198.4358
851.2285, 200.2038
851.7106, 203.4598
852.1927, 207.0831
852.6749, 209.7329
853.1570, 211.5286
853.6391, 213.3251
854.1212, 215.5089
854.6033, 217.6429
855.0854, 218.3869
855.5676, 218.4799
856.0497, 222.1643
856.5318, 229.6152
857.0139, 235.9582
857.4960, 239.3832
857.9781, 242.0334
858.4603, 246.1381
858.9424, 251.5738
859.4245, 256.9698
859.9066, 262.2679
860.3887, 267.6123
860.8708, 272.1299
861.3530, 277.6292
861.8351, 285.0481
862.3172, 294.1184
862.7993, 304.4835
863.2814, 316.3215
863.7635, 328.2746
864.2457, 339.1751
864.7278, 350.6313
865.2099, 362.8091
865.6920, 376.8575
866.1741, 394.4003
866.6563, 415.7796
867.1384, 439.8082
867.6205, 465.1321
868.1026, 493.3667
868.5847, 526.3492
869.0668, 564.6204
869.5490, 612.1945
870.0311, 669.7067
870.5132, 734.9521
870.9953, 808.0541
871.4774, 886.8250
871.9595, 968.5349
872.4417, 1056.852
872.9238, 1128.917
873.4059, 1180.368
873.8880, 1222.995
874.3701, 1253.917
874.8522, 1282.013
875.3344, 1311.899
875.8165, 1344.806
876.2986, 1386.406
876.7807, 1440.120
877.2628, 1499.025
877.7449, 1562.317
878.2271, 1628.216
878.7092, 1695.189
879.1913, 1762.818
879.6734, 1830.911
880.1555, 1899.138
880.6376, 1967.402
881.1198, 2035.494
881.6019, 2102.736
882.0840, 2168.551
882.5661, 2232.484
883.0482, 2298.670
883.5303, 2367.275
884.0125, 2415.413
884.4946, 2426.605
884.9767, 2396.494
885.4588, 2308.388
885.9409, 2157.647
886.4230, 1968.284
886.9052, 1723.887
887.3873, 1479.510
887.8694, 1248.968
888.3515, 1041.697
888.8336, 872.2665
889.3157, 742.9367
889.7979, 636.0186
890.2800, 556.9191
890.7621, 491.8600
891.2442, 441.1873
891.7263, 399.7256
892.2084, 365.1158
892.6906, 336.0042
893.1727, 310.9510
893.6548, 289.6718
894.1369, 271.0508
894.6190, 254.7039
895.1011, 240.3070
895.5833, 228.3785
896.0654, 218.1108
896.5475, 207.5093
897.0296, 196.0975
897.5117, 185.2255
897.9938, 176.0266
898.4760, 168.4753
898.9581, 162.8893
899.4402, 159.1449
899.9223, 155.7054
900.4044, 152.3355
900.8865, 148.9831
901.3687, 145.5099
901.8508, 142.2564
902.3329, 140.0724
902.8150, 139.2949
903.2971, 137.8246
903.7792, 135.1010
904.2614, 132.6434
904.7435, 130.6893
905.2256, 129.3682
905.7077, 129.2189
906.1898, 129.9403
906.6719, 129.8703
907.1541, 128.1903
907.6362, 126.6938
908.1183, 125.7988
908.6004, 125.2625
909.0825, 125.0691
909.5646, 125.0588
910.0468, 125.1509
910.5289, 125.2808
911.0110, 124.8895
911.4931, 123.0227
911.9752, 120.9477
912.4573, 119.8744
912.9395, 119.6825
913.4216, 120.4581
913.9037, 121.9485
914.3858, 122.9834
914.8679, 122.8303
915.3500, 122.0597
915.8321, 121.5495
916.3142, 121.2799
916.7963, 121.1515
917.2784, 121.1777
917.7606, 120.9606
918.2427, 120.3156
918.7248, 119.5463
919.2069, 118.9089
919.6890, 118.4444
920.1711, 118.5340
920.6533, 119.7080
921.1354, 120.1220
921.6175, 118.8276
922.0996, 117.8133
922.5817, 118.8095
923.0638, 120.4112
923.5460, 120.2369
924.0281, 117.9181
924.5102, 116.6847
924.9923, 118.2265
925.4744, 119.3359
925.9565, 118.3189
926.4387, 116.8048
926.9208, 116.1630
927.4029, 116.4100
927.8850, 117.2336
928.3671, 118.7138
928.8492, 119.7569
929.3314, 119.6057
929.8135, 118.6279
930.2956, 116.6110
930.7777, 114.2572
931.2598, 112.9755
931.7419, 113.0695
932.2241, 113.9864
932.7062, 115.4401
933.1883, 117.0932
933.6704, 118.4233
934.1525, 119.4168
934.6346, 120.0881
935.1168, 120.4224
935.5989, 119.9554
936.0810, 118.3791
936.5631, 116.6406
937.0452, 116.1068
937.5273, 116.6864
938.0095, 116.8143
938.4916, 116.3509
938.9737, 116.0191
939.4558, 116.0022
939.9379, 116.0466
940.4200, 116.0734
940.9022, 115.9777
941.3843, 115.3708
941.8664, 113.6660
942.3485, 113.2595
942.8306, 115.5638
943.3127, 117.2960
943.7949, 117.1181
944.2770, 116.3805
944.7591, 116.3152
945.2412, 116.7944
945.7233, 116.9917
946.2054, 116.6947
946.6876, 116.1675
947.1697, 115.0475
947.6518, 114.1782
948.1339, 114.5659
948.6160, 115.4666
949.0981, 115.6388
949.5803, 114.8868
950.0624, 114.0013
950.5445, 113.3734
951.0266, 112.9483
951.5087, 112.5887
951.9908, 112.4293
952.4730, 112.7912
952.9551, 113.5847
953.4372, 114.5680
953.9193, 115.6059
954.4014, 116.0718
954.8835, 114.7481
955.3657, 112.5594
955.8478, 112.4821
956.3299, 114.1958
956.8120, 115.2736
957.2941, 115.2354
957.7762, 115.2785
958.2584, 116.2617
958.7405, 117.4756
959.2226, 117.4219
959.7047, 116.0131
960.1868, 114.7136
960.6689, 113.5063
961.1511, 112.4359
961.6332, 111.4263
962.1153, 110.7477
962.5974, 110.7395
963.0795, 111.2448
963.5616, 111.5718
964.0438, 111.5886
964.5259, 111.7168
965.0080, 112.0753
965.4901, 112.3930
965.9722, 112.6364
966.4543, 112.7555
966.9365, 112.6190
967.4186, 112.2659
967.9007, 112.0607
968.3828, 112.0766
968.8649, 112.2065
969.3470, 112.5156
969.8292, 112.8421
970.3113, 113.1202
970.7934, 113.3259
971.2755, 113.5303
971.7576, 113.7102
972.2397, 113.4556
972.7219, 111.6748
973.2040, 110.4427
973.6861, 111.8902
974.1682, 114.0313
974.6503, 114.4446
975.1324, 113.4896
975.6146, 112.7625
976.0967, 112.8355
976.5788, 113.1336
977.0609, 113.3443
977.5430, 113.3454
978.0251, 112.9283
978.5073, 112.1745
978.9894, 110.9854
979.4715, 109.5575
979.9536, 108.9383
980.4357, 109.7251
980.9178, 111.0162
981.4000, 111.3199
981.8821, 111.0698
982.3642, 112.4294
982.8463, 115.0977
983.3284, 116.0368
983.8105, 114.4819
984.2927, 112.4476
984.7748, 111.3708
985.2569, 111.0343
985.7390, 111.1095
986.2211, 111.6434
986.7032, 111.5262
987.1854, 110.5983
987.6675, 109.8069
988.1496, 109.3744
988.6317, 109.4238
989.1138, 110.2670
989.5959, 111.5721
990.0781, 111.8006
990.5602, 110.3310
991.0423, 109.6452
991.5244, 110.3613
992.0065, 110.7404
992.4886, 109.4873
992.9708, 108.2706
993.4529, 109.5450
993.9350, 112.9480
994.4171, 114.1511
994.8992, 111.3045
995.3813, 109.1383
995.8635, 107.7311
996.3456, 107.1073
996.8277, 107.7450
997.3098, 108.8915
997.7919, 109.7098
998.2740, 110.1484
998.7562, 110.4132
999.2383, 110.5071
999.7204, 110.4839
1000.203, 110.2210
1000.685, 109.9836
1001.167, 110.0567
1001.649, 110.2340
1002.131, 110.1728
1002.613, 109.8206
1003.095, 109.3829
1003.577, 108.9758
1004.059, 108.4723
1004.542, 107.1327
1005.024, 106.2074
1005.506, 107.4038
1005.988, 109.9343
1006.470, 112.0412
1006.952, 113.1929
1007.434, 113.6790
1007.916, 113.2358
1008.398, 112.6762
1008.881, 113.1754
1009.363, 113.8317
1009.845, 112.9177
1010.327, 110.8789
1010.809, 109.6433
1011.291, 109.9498
1011.773, 110.7120
1012.255, 110.8920
1012.738, 110.9210
1013.220, 111.7952
1013.702, 112.9820
1014.184, 113.0769
1014.666, 112.0609
1015.148, 110.7123
1015.630, 109.4148
1016.112, 108.7647
1016.594, 109.8922
1017.077, 112.0143
1017.559, 112.9592
1018.041, 112.9447
1018.523, 113.1530
1019.005, 113.7372
1019.487, 113.8130
1019.969, 112.8322
1020.451, 111.6539
1020.934, 111.6269
1021.416, 112.5499
1021.898, 113.3374
1022.380, 113.9865
1022.862, 114.2503
1023.344, 114.0522
1023.826, 114.0619
1024.308, 114.7599
1024.791, 115.6510
1025.273, 115.7912
1025.755, 115.2082
1026.237, 114.9854
1026.719, 115.2345
1027.201, 114.7948
1027.683, 113.1635
1028.165, 111.9808
1028.647, 112.4465
1029.130, 113.8807
1029.612, 114.8907
1030.094, 115.4498
1030.576, 116.0486
1031.058, 116.9128
1031.540, 116.9496
1032.022, 115.5502
1032.504, 114.1163
1032.986, 113.6343
1033.469, 113.7730
1033.951, 113.8012
1034.433, 113.7090
1034.915, 113.5129
1035.397, 112.8410
1035.879, 112.9483
1036.361, 114.9412
1036.843, 116.5191
1037.326, 115.6140
1037.808, 113.3763
1038.290, 112.5731
1038.772, 113.6598
1039.254, 114.1204
1039.736, 113.5351
1040.218, 112.9838
1040.700, 112.4798
1041.182, 112.2802
1041.665, 112.9685
1042.147, 113.9933
1042.629, 113.8866
1043.111, 112.1547
1043.593, 111.4661
1044.075, 112.6544
1044.557, 113.8195
1045.039, 114.8050
1045.521, 115.4294
1046.004, 115.5940
1046.486, 115.3021
1046.968, 114.4281
1047.450, 112.7800
1047.932, 111.6405
1048.414, 111.2732
1048.896, 111.2484
1049.378, 111.6448
1049.861, 112.1626
1050.343, 112.6402
1050.825, 113.0700
1051.307, 113.4890
1051.789, 113.9196
1052.271, 114.1535
1052.753, 114.1419
1053.235, 113.9372
1053.718, 113.2963
1054.200, 112.7123
1054.682, 112.3944
1055.164, 112.4562
1055.646, 113.3894
1056.128, 115.3525
1056.610, 116.1313
1057.092, 114.1566
1057.574, 112.2292
1058.057, 110.8870
1058.539, 110.3759
1059.021, 111.3606
1059.503, 113.0996
1059.985, 114.5233
1060.467, 115.4455
1060.949, 115.3449
1061.431, 112.4743
1061.913, 110.6798
1062.396, 112.5466
1062.878, 114.9925
1063.360, 115.5092
1063.842, 114.9433
1064.324, 115.0376
1064.806, 116.0342
1065.288, 116.8322
1065.770, 117.4999
1066.253, 117.2375
1066.735, 114.3187
1067.217, 111.7220
1067.699, 112.0656
1068.181, 114.1306
1068.663, 116.2047
1069.145, 117.8297
1069.627, 118.3062
1070.109, 116.4680
1070.592, 114.9708
1071.074, 114.9525
1071.556, 115.7753
1072.038, 117.6726
1072.520, 119.7019
1073.002, 120.4697
1073.484, 119.9638
1073.966, 119.4192
1074.448, 119.1026
1074.931, 119.2298
1075.413, 120.4656
1075.895, 121.5942
1076.377, 121.5805
1076.859, 121.0099
1077.341, 120.6094
1077.823, 120.4911
1078.305, 120.5525
1078.788, 120.7874
1079.270, 121.1020
1079.752, 121.5044
1080.234, 121.9141
1080.716, 122.3586
1081.198, 122.7250
1081.680, 122.7583
1082.162, 122.5947
1082.644, 122.7797
1083.127, 123.5808
1083.609, 124.2232
1084.091, 124.4433
1084.573, 124.3108
1085.055, 123.1913
1085.537, 122.2714
1086.019, 123.1154
1086.501, 125.1982
1086.984, 127.0118
1087.466, 128.2196
1087.948, 128.5676
1088.430, 127.1149
1088.912, 125.8120
1089.394, 125.7428
1089.876, 126.2237
1090.358, 126.8262
1090.840, 127.3849
1091.323, 127.7542
1091.805, 127.9031
1092.287, 127.7403
1092.769, 125.8772
1093.251, 125.5072
1093.733, 129.4553
1094.215, 133.9643
1094.697, 136.4270
1095.179, 137.2258
1095.662, 136.9020
1096.144, 135.7246
1096.626, 135.2999
1097.108, 135.9298
1097.590, 137.6891
1098.072, 141.3304
1098.554, 145.3204
1099.036, 148.9546
1099.519, 152.1967
1100.001, 154.5993
1100.483, 156.4897
1100.965, 159.8108
1101.447, 165.4296
1101.929, 171.5186
1102.411, 177.5320
1102.893, 183.9632
1103.375, 190.1518
1103.858, 197.6464
1104.340, 209.4355
1104.822, 223.9126
1105.304, 235.3863
1105.786, 242.6972
1106.268, 248.5896
1106.750, 251.9414
1107.232, 256.0785
1107.714, 261.9307
1108.197, 269.1612
1108.679, 277.8614
1109.161, 287.6100
1109.643, 297.5401
1110.125, 307.6249
1110.607, 317.6875
1111.089, 327.6585
1111.571, 337.5796
1112.054, 347.0471
1112.536, 356.8277
1113.018, 368.5519
1113.500, 380.3376
1113.982, 389.6454
1114.464, 396.4259
1114.946, 400.5328
1115.428, 403.6721
1115.911, 401.2951
1116.393, 393.5911
1116.875, 379.7357
1117.357, 357.4426
1117.839, 330.4832
1118.321, 301.1036
1118.803, 270.3118
1119.285, 244.0219
1119.767, 222.7687
1120.250, 204.7325
1120.732, 190.2415
1121.214, 178.2862
1121.696, 168.5717
1122.178, 161.3173
1122.660, 157.3780
1123.142, 155.5201
1123.624, 152.5611
1124.106, 148.3177
1124.589, 144.2948
1125.071, 140.1957
1125.553, 137.5198
1126.035, 136.9374
1126.517, 136.6820
1126.999, 135.8071
1127.481, 134.4192
1127.963, 132.5719
1128.446, 130.3515
1128.928, 128.8383
1129.410, 128.1223
1129.892, 127.3352
1130.374, 126.4045
1130.856, 125.0939
1131.338, 123.1696
1131.820, 121.8131
1132.302, 122.5102
1132.785, 124.3434
1133.267, 124.2111
1133.749, 122.2822
1134.231, 121.3476
1134.713, 121.5037
1135.195, 121.6379
1135.677, 121.4411
1136.159, 121.3258
1136.641, 121.5904
1137.124, 122.0982
1137.606, 122.9237
1138.088, 123.7522
1138.570, 122.8017
1139.052, 120.6858
1139.534, 120.8851
1140.016, 123.4596
1140.498, 124.5866
1140.981, 122.4986
1141.463, 119.6758
1141.945, 118.6210
1142.427, 118.6526
1142.909, 118.8273
1143.391, 119.0606
1143.873, 119.1462
1144.355, 119.1165
1144.838, 119.0919
1145.320, 119.1293
1145.802, 119.3045
1146.284, 119.6384
1146.766, 120.2240
1147.248, 121.6644
1147.730, 122.9787
1148.212, 122.8920
1148.694, 121.8418
1149.177, 120.2625
1149.659, 118.5904
1150.141, 117.8667
1150.623, 118.5540
1151.105, 119.5090
1151.587, 120.3853
1152.069, 120.8635
1152.551, 120.6636
1153.033, 120.0104
1153.516, 118.4550
1153.998, 116.8846
1154.480, 117.3965
1154.962, 120.1930
1155.444, 121.9358
1155.926, 120.6521
1156.408, 119.4310
1156.890, 118.9521
1157.373, 119.0801
1157.855, 120.6557
1158.337, 122.1359
1158.819, 121.0135
1159.301, 118.0493
1159.783, 117.4411
1160.265, 121.0989
1160.747, 122.9208
1161.229, 120.4302
1161.712, 119.0683
1162.194, 121.0918
1162.676, 123.3411
1163.158, 123.8149
1163.640, 123.1276
1164.122, 122.2856
1164.604, 121.2734
1165.086, 120.4524
1165.568, 119.7550
1166.051, 119.4758
1166.533, 119.7191
1167.015, 120.1811
1167.497, 120.8054
1167.979, 121.4082
1168.461, 121.7999
1168.943, 122.0211
1169.425, 122.1152
1169.908, 122.0651
1170.390, 122.8379
1170.872, 124.4915
1171.354, 124.7129
1171.836, 122.9386
1172.318, 121.0850
1172.800, 120.2820
1173.282, 120.2708
1173.765, 120.7875
1174.247, 121.7263
1174.729, 122.9901
1175.211, 124.3765
1175.693, 125.2939
1176.175, 125.6103
1176.657, 124.9416
1177.139, 123.2642
1177.621, 121.4332
1178.104, 119.8958
1178.586, 119.0855
1179.068, 119.9973
1179.550, 121.5883
1180.032, 122.5537
1180.514, 123.0401
1180.996, 123.4815
1181.478, 123.8696
1181.960, 123.8666
1182.443, 123.3392
1182.925, 122.7381
1183.407, 122.2120
1183.889, 121.8391
1184.371, 121.8535
1184.853, 121.8620
1185.335, 121.1092
1185.817, 120.3302
1186.300, 120.9765
1186.782, 122.9848
1187.264, 124.4634
1187.746, 124.9948
1188.228, 125.0455
1188.710, 124.1159
1189.192, 123.4645
1189.674, 123.9843
1190.156, 124.5220
1190.639, 123.7675
1191.121, 122.5688
1191.603, 122.9994
1192.085, 125.2926
1192.567, 125.9805
1193.049, 124.2811
1193.531, 123.2410
1194.013, 123.2925
1194.495, 123.8090
1194.978, 124.7475
1195.460, 125.2677
1195.942, 124.2875
1196.424, 124.9773
1196.906, 125.1388
1197.388, 124.9672
1197.870, 125.9956
1198.352, 125.9829
1198.835, 126.3937
1199.317, 127.4616
1199.799, 128.0348
1200.281, 127.5030
1200.763, 126.3483
1201.245, 124.7870
1201.727, 123.4264
1202.209, 123.7212
1202.692, 124.8699
1203.174, 125.2067
1203.656, 124.8873
1204.138, 124.6714
1204.620, 124.7500
1205.102, 124.9822
1205.584, 125.2909
1206.066, 125.7687
1206.548, 126.9664
1207.031, 127.8055
1207.513, 127.0978
1207.995, 125.8900
1208.477, 124.7418
1208.959, 124.2126
1209.441, 125.8714
1209.923, 129.7759
1210.405, 131.5224
1210.887, 127.8669
1211.370, 125.4483
1211.852, 126.4140
1212.334, 127.4172
1212.816, 126.8025
1213.298, 125.9545
1213.780, 126.0488
1214.262, 126.7630
1214.744, 127.4018
1215.227, 128.0546
1215.709, 127.4046
1216.191, 124.7606
1216.673, 123.8536
1217.155, 125.4978
1217.637, 127.1969
1218.119, 127.8648
1218.601, 128.2117
1219.083, 128.9853
1219.566, 129.8429
1220.048, 129.9265
1220.530, 129.3509
1221.012, 128.4292
1221.494, 127.3297
1221.976, 126.8953
1222.458, 127.1107
1222.940, 126.8911
1223.422, 125.7804
1223.905, 124.9709
1224.387, 125.8669
1224.869, 127.0000
1225.351, 126.3580
1225.833, 125.4135
1226.315, 126.5595
1226.797, 128.3687
1227.279, 127.6520
1227.762, 124.9450
1228.244, 124.2844
1228.726, 127.3376
1229.208, 129.8059
1229.690, 130.0616
1230.172, 129.7385
1230.654, 128.8935
1231.136, 128.1899
1231.619, 128.3226
1232.101, 128.6589
1232.583, 128.2709
1233.065, 127.2915
1233.547, 126.5119
1234.029, 125.6452
1234.511, 126.1195
1234.993, 128.4547
1235.475, 130.1862
1235.958, 130.7235
1236.440, 130.7086
1236.922, 130.4700
1237.404, 130.1242
1237.886, 129.8134
1238.368, 129.5392
1238.850, 129.2393
1239.332, 128.9810
1239.814, 129.1684
1240.297, 129.6696
1240.779, 129.7078
1241.261, 129.2508
1241.743, 129.2649
1242.225, 130.2874
1242.707, 131.2461
1243.189, 130.9021
1243.671, 130.3943
1244.154, 131.0260
1244.636, 131.8004
1245.118, 131.3070
1245.600, 130.3299
1246.082, 130.5431
1246.564, 131.8523
1247.046, 132.3843
1247.528, 131.2453
1248.010, 130.7154
1248.493, 131.8733
1248.975, 132.6645
1249.457, 132.1725
1249.939, 131.7445
1250.421, 132.2467
1250.903, 133.0733
1251.385, 133.4277
1251.867, 133.3821
1252.349, 133.3201
1252.832, 133.2337
1253.314, 133.3045
1253.796, 133.5480
1254.278, 133.4028
1254.760, 132.7661
1255.242, 132.7558
1255.724, 133.9973
1256.206, 135.3158
1256.689, 135.2806
1257.171, 134.6898
1257.653, 134.8871
1258.135, 135.4326
1258.617, 135.7554
1259.099, 135.7274
1259.581, 134.7430
1260.063, 133.2417
1260.546, 133.2167
1261.028, 135.5177
1261.510, 137.5121
1261.992, 137.7447
1262.474, 137.8252
1262.956, 138.5718
1263.438, 139.1494
1263.920, 139.0147
1264.402, 138.4261
1264.885, 137.4709
1265.367, 136.3831
1265.849, 136.0237
1266.331, 136.5125
1266.813, 136.9695
1267.295, 137.4069
1267.777, 137.6133
1268.259, 137.4307
1268.741, 138.3746
1269.224, 141.2391
1269.706, 143.2825
1270.188, 141.6478
1270.670, 138.6602
1271.152, 138.7475
1271.634, 140.7184
1272.116, 142.2817
1272.598, 143.2381
1273.081, 142.9770
1273.563, 141.9051
1274.045, 141.3970
1274.527, 141.7830
1275.009, 141.9806
1275.491, 141.2746
1275.973, 140.6568
1276.455, 140.4954
1276.938, 140.6861
1277.420, 141.0274
1277.902, 141.8261
1278.384, 144.0046
1278.866, 146.5480
1279.348, 147.4382
1279.830, 146.7238
1280.312, 145.5405
1280.794, 143.4717
1281.276, 142.6561
1281.759, 143.3391
1282.241, 144.5327
1282.723, 146.0825
1283.205, 146.8208
1283.687, 145.9629
1284.169, 144.9339
1284.651, 145.6903
1285.133, 147.3164
1285.616, 148.2223
1286.098, 148.3954
##END=



