##NAMES=Rutile
##RRUFFID=R050031
##IDEAL CHEMISTRY=Ti^4+^O_2_
##LOCALITY=Chester City, Pennsylvannia, USA
##OWNER=RRUFF
##SOURCE=University of Arizona Mineral Museum
##DESCRIPTION=Reddish brown single crystal fragment
##STATUS=The identification of this mineral has been confirmed by X-ray diffraction and chemical analysis
##URL=rruff.info/R050031
##MEASURED CHEMISTRY=TiO_2_
157.3757, 7635.113
157.8578, 7691.841
158.3399, 7688.594
158.8221, 7677.633
159.3042, 7693.148
159.7863, 7779.271
160.2684, 7857.817
160.7505, 7893.576
161.2326, 7892.900
161.7148, 7902.269
162.1969, 7948.960
162.6790, 8012.408
163.1611, 8072.101
163.6432, 8123.600
164.1253, 8168.401
164.6075, 8202.432
165.0896, 8225.373
165.5717, 8254.968
166.0538, 8305.072
166.5359, 8367.458
167.0180, 8430.339
167.5002, 8482.534
167.9823, 8537.807
168.4644, 8610.095
168.9465, 8702.870
169.4286, 8795.586
169.9107, 8872.070
170.3929, 8937.012
170.8750, 9002.302
171.3571, 9074.750
171.8392, 9149.494
172.3213, 9219.050
172.8034, 9278.842
173.2856, 9343.095
173.7677, 9429.646
174.2498, 9533.476
174.7319, 9635.663
175.2140, 9723.858
175.6961, 9803.550
176.1783, 9882.241
176.6604, 9959.620
177.1425, 10037.71
177.6246, 10117.56
178.1067, 10198.90
178.5888, 10285.55
179.0710, 10387.49
179.5531, 10495.50
180.0352, 10584.59
180.5173, 10636.47
180.9994, 10678.44
181.4815, 10757.56
181.9637, 10873.57
182.4458, 10996.04
182.9279, 11101.04
183.4100, 11191.98
183.8921, 11283.65
184.3742, 11381.30
184.8564, 11482.17
185.3385, 11577.81
185.8206, 11669.03
186.3027, 11754.95
186.7848, 11829.36
187.2669, 11894.82
187.7491, 11973.45
188.2312, 12081.21
188.7133, 12208.01
189.1954, 12317.32
189.6775, 12406.16
190.1596, 12487.70
190.6418, 12578.90
191.1239, 12679.21
191.6060, 12780.18
192.0881, 12881.23
192.5702, 12981.42
193.0524, 13068.33
193.5345, 13136.68
194.0166, 13204.83
194.4987, 13304.50
194.9808, 13437.84
195.4629, 13570.68
195.9451, 13685.14
196.4272, 13783.01
196.9093, 13877.51
197.3914, 13968.51
197.8735, 14057.02
198.3556, 14144.90
198.8378, 14231.88
199.3199, 14318.01
199.8020, 14400.11
200.2841, 14476.55
200.7662, 14565.28
201.2483, 14673.23
201.7305, 14788.62
202.2126, 14877.09
202.6947, 14930.43
203.1768, 14987.62
203.6589, 15076.40
204.1410, 15201.23
204.6232, 15320.90
205.1053, 15432.95
205.5874, 15537.00
206.0695, 15629.27
206.5516, 15705.38
207.0337, 15781.15
207.5159, 15869.10
207.9980, 15970.36
208.4801, 16071.34
208.9622, 16172.89
209.4443, 16272.78
209.9264, 16356.58
210.4086, 16415.83
210.8907, 16476.29
211.3728, 16560.49
211.8549, 16678.97
212.3370, 16787.26
212.8191, 16877.76
213.3013, 16951.88
213.7834, 17027.94
214.2655, 17105.94
214.7476, 17186.21
215.2297, 17268.44
215.7118, 17354.30
216.1940, 17439.77
216.6761, 17523.94
217.1582, 17607.19
217.6403, 17691.21
218.1224, 17779.56
218.6045, 17862.69
219.0867, 17928.99
219.5688, 17968.96
220.0509, 18013.37
220.5330, 18067.28
221.0151, 18131.47
221.4972, 18201.99
221.9794, 18285.40
222.4615, 18368.50
222.9436, 18437.70
223.4257, 18488.40
223.9078, 18534.98
224.3899, 18578.05
224.8721, 18617.38
225.3542, 18664.21
225.8363, 18722.71
226.3184, 18785.10
226.8005, 18844.27
227.2827, 18902.56
227.7648, 18951.70
228.2469, 18983.94
228.7290, 18993.83
229.2111, 19030.03
229.6932, 19107.58
230.1754, 19198.81
230.6575, 19269.48
231.1396, 19316.12
231.6217, 19346.78
232.1038, 19359.04
232.5859, 19347.08
233.0681, 19348.69
233.5502, 19369.83
234.0323, 19400.19
234.5144, 19427.37
234.9965, 19459.25
235.4786, 19473.80
235.9608, 19459.31
236.4429, 19406.73
236.9250, 19367.81
237.4071, 19343.24
237.8892, 19332.30
238.3713, 19337.86
238.8535, 19379.78
239.3356, 19404.74
239.8177, 19391.87
240.2998, 19328.95
240.7819, 19274.27
241.2640, 19226.68
241.7462, 19187.10
242.2283, 19159.00
242.7104, 19154.49
243.1925, 19141.40
243.6746, 19106.14
244.1567, 19038.55
244.6389, 18984.40
245.1210, 18954.53
245.6031, 18931.77
246.0852, 18884.64
246.5673, 18801.30
247.0494, 18713.59
247.5316, 18630.60
248.0137, 18550.03
248.4958, 18482.86
248.9779, 18435.97
249.4600, 18398.97
249.9421, 18352.67
250.4243, 18289.43
250.9064, 18230.14
251.3885, 18185.66
251.8706, 18165.79
252.3527, 18127.23
252.8348, 18067.94
253.3170, 17991.51
253.7991, 17900.68
254.2812, 17783.09
254.7633, 17676.70
255.2454, 17598.23
255.7275, 17557.13
256.2097, 17511.24
256.6918, 17458.36
257.1739, 17402.73
257.6560, 17352.86
258.1381, 17313.59
258.6202, 17269.72
259.1024, 17211.40
259.5845, 17131.60
260.0666, 17069.85
260.5487, 17031.53
261.0308, 17007.37
261.5129, 16979.96
261.9951, 16950.46
262.4772, 16915.44
262.9593, 16871.59
263.4414, 16814.78
263.9235, 16767.74
264.4056, 16732.89
264.8878, 16705.04
265.3699, 16678.23
265.8520, 16658.88
266.3341, 16621.25
266.8162, 16543.28
267.2983, 16412.64
267.7805, 16330.38
268.2626, 16314.62
268.7447, 16327.94
269.2268, 16302.87
269.7089, 16228.50
270.1910, 16155.22
270.6732, 16106.23
271.1553, 16086.15
271.6374, 16045.02
272.1195, 15976.76
272.6016, 15896.23
273.0837, 15830.05
273.5659, 15780.25
274.0480, 15732.76
274.5301, 15682.15
275.0122, 15628.56
275.4943, 15571.95
275.9764, 15508.93
276.4586, 15449.27
276.9407, 15410.79
277.4228, 15396.41
277.9049, 15381.99
278.3870, 15361.56
278.8691, 15334.79
279.3513, 15291.45
279.8334, 15227.87
280.3155, 15157.13
280.7976, 15097.80
281.2798, 15050.99
281.7619, 15001.66
282.2440, 14943.53
282.7261, 14877.69
283.2082, 14810.82
283.6903, 14741.91
284.1725, 14675.73
284.6546, 14620.54
285.1367, 14576.31
285.6188, 14529.55
286.1009, 14472.71
286.5830, 14409.26
287.0652, 14353.57
287.5473, 14306.30
288.0294, 14265.77
288.5115, 14232.72
288.9936, 14206.19
289.4757, 14179.79
289.9579, 14152.11
290.4400, 14122.72
290.9221, 14089.13
291.4042, 14051.19
291.8863, 14011.22
292.3684, 13964.81
292.8506, 13916.24
293.3327, 13883.67
293.8148, 13878.29
294.2969, 13889.01
294.7790, 13897.94
295.2611, 13905.09
295.7433, 13904.64
296.2254, 13892.74
296.7075, 13869.18
297.1896, 13832.66
297.6717, 13771.33
298.1538, 13705.98
298.6360, 13668.20
299.1181, 13656.66
299.6002, 13659.46
300.0823, 13672.00
300.5644, 13691.86
301.0465, 13715.06
301.5287, 13742.87
302.0108, 13770.70
302.4929, 13795.24
302.9750, 13816.06
303.4571, 13829.35
303.9392, 13821.85
304.4214, 13808.62
304.9035, 13809.74
305.3856, 13830.73
305.8677, 13866.16
306.3498, 13922.01
306.8319, 13991.19
307.3141, 14049.81
307.7962, 14078.42
308.2783, 14091.30
308.7604, 14100.93
309.2425, 14105.92
309.7246, 14116.04
310.2068, 14140.42
310.6889, 14175.25
311.1710, 14210.78
311.6531, 14247.70
312.1352, 14280.29
312.6173, 14301.21
313.0995, 14303.09
313.5816, 14310.79
314.0637, 14344.54
314.5458, 14391.76
315.0279, 14429.03
315.5100, 14440.09
315.9922, 14444.34
316.4743, 14448.14
316.9564, 14448.28
317.4385, 14464.45
317.9206, 14521.71
318.4027, 14594.70
318.8849, 14647.91
319.3670, 14642.44
319.8491, 14641.45
320.3312, 14675.74
320.8133, 14756.49
321.2954, 14818.32
321.7776, 14838.78
322.2597, 14838.40
322.7418, 14839.08
323.2239, 14842.33
323.7060, 14848.54
324.1881, 14852.54
324.6703, 14852.33
325.1524, 14875.15
325.6345, 14955.44
326.1166, 15041.99
326.5987, 15094.15
327.0808, 15083.45
327.5630, 15071.40
328.0451, 15059.60
328.5272, 15048.79
329.0093, 15056.25
329.4914, 15098.11
329.9735, 15143.40
330.4557, 15170.53
330.9378, 15161.14
331.4199, 15166.04
331.9020, 15193.92
332.3841, 15239.93
332.8662, 15281.23
333.3484, 15318.85
333.8305, 15349.59
334.3126, 15368.55
334.7947, 15366.32
335.2768, 15382.97
335.7589, 15430.41
336.2411, 15492.27
336.7232, 15525.12
337.2053, 15519.17
337.6874, 15512.07
338.1695, 15519.87
338.6516, 15542.87
339.1338, 15581.37
339.6159, 15642.21
340.0980, 15707.20
340.5801, 15738.61
341.0622, 15732.54
341.5443, 15732.31
342.0265, 15756.12
342.5086, 15802.05
342.9907, 15858.53
343.4728, 15928.06
343.9549, 15996.48
344.4370, 16047.65
344.9192, 16081.72
345.4013, 16100.35
345.8834, 16090.64
346.3655, 16069.24
346.8476, 16085.91
347.3297, 16141.57
347.8119, 16205.08
348.2940, 16245.64
348.7761, 16270.18
349.2582, 16299.26
349.7403, 16343.96
350.2225, 16391.32
350.7046, 16415.79
351.1867, 16421.36
351.6688, 16436.97
352.1509, 16501.66
352.6331, 16585.14
353.1152, 16639.88
353.5973, 16646.74
354.0794, 16638.68
354.5615, 16636.18
355.0436, 16641.05
355.5258, 16658.71
356.0079, 16706.03
356.4900, 16759.74
356.9721, 16797.87
357.4542, 16812.68
357.9363, 16826.68
358.4185, 16856.00
358.9006, 16892.68
359.3827, 16922.99
359.8648, 16927.64
360.3469, 16935.57
360.8290, 16963.01
361.3112, 17013.48
361.7933, 17069.10
362.2754, 17137.06
362.7575, 17202.83
363.2396, 17250.77
363.7217, 17257.65
364.2039, 17265.41
364.6860, 17283.54
365.1681, 17312.54
365.6502, 17348.18
366.1323, 17414.63
366.6144, 17473.01
367.0966, 17496.13
367.5787, 17426.18
368.0608, 17391.03
368.5429, 17415.39
369.0250, 17486.30
369.5071, 17535.46
369.9893, 17541.19
370.4714, 17550.14
370.9535, 17587.68
371.4356, 17674.01
371.9177, 17740.91
372.3998, 17779.21
372.8820, 17802.04
373.3641, 17838.69
373.8462, 17893.71
374.3283, 17950.37
374.8104, 17999.48
375.2925, 18039.92
375.7747, 18093.12
376.2568, 18163.46
376.7389, 18238.77
377.2210, 18300.17
377.7031, 18346.52
378.1852, 18395.91
378.6674, 18457.76
379.1495, 18526.97
379.6316, 18579.92
380.1137, 18614.05
380.5958, 18651.05
381.0779, 18713.63
381.5601, 18797.97
382.0422, 18879.35
382.5243, 18950.94
383.0064, 19020.99
383.4885, 19105.34
383.9706, 19203.07
384.4528, 19301.32
384.9349, 19395.50
385.4170, 19484.21
385.8991, 19565.42
386.3812, 19637.13
386.8633, 19709.50
387.3455, 19793.63
387.8276, 19885.62
388.3097, 19978.12
388.7918, 20049.89
389.2739, 20130.97
389.7560, 20256.69
390.2382, 20434.40
390.7203, 20599.57
391.2024, 20705.94
391.6845, 20784.01
392.1666, 20870.28
392.6487, 20979.31
393.1309, 21095.72
393.6130, 21207.62
394.0951, 21317.24
394.5772, 21446.22
395.0593, 21608.69
395.5414, 21786.98
396.0236, 21968.62
396.5057, 22163.73
396.9878, 22348.93
397.4699, 22509.46
397.9520, 22656.09
398.4341, 22820.86
398.9163, 23013.07
399.3984, 23213.71
399.8805, 23417.98
400.3626, 23630.21
400.8447, 23830.61
401.3268, 24002.36
401.8090, 24174.52
402.2911, 24394.37
402.7732, 24672.53
403.2553, 24966.21
403.7374, 25272.65
404.2195, 25589.60
404.7017, 25870.06
405.1838, 26103.76
405.6659, 26331.60
406.1480, 26591.94
406.6301, 26886.23
407.1122, 27183.88
407.5944, 27478.56
408.0765, 27775.58
408.5586, 28075.78
409.0407, 28380.65
409.5228, 28710.20
410.0049, 29099.73
410.4871, 29521.17
410.9692, 29887.50
411.4513, 30176.49
411.9334, 30468.95
412.4155, 30887.02
412.8976, 31395.24
413.3798, 31873.87
413.8619, 32235.76
414.3440, 32568.46
414.8261, 32974.74
415.3082, 33458.43
415.7903, 33949.99
416.2725, 34407.02
416.7546, 34849.29
417.2367, 35308.71
417.7188, 35777.89
418.2009, 36272.84
418.6830, 36807.79
419.1652, 37376.36
419.6473, 37934.14
420.1294, 38454.77
420.6115, 38974.11
421.0937, 39521.40
421.5758, 40100.74
422.0579, 40684.23
422.5400, 41271.72
423.0221, 41861.45
423.5042, 42463.45
423.9864, 43086.49
424.4685, 43705.02
424.9506, 44317.77
425.4327, 44914.96
425.9148, 45531.21
426.3969, 46176.09
426.8791, 46828.75
427.3612, 47463.86
427.8433, 48074.77
428.3254, 48681.63
428.8075, 49277.46
429.2896, 49873.16
429.7718, 50498.31
430.2539, 51159.59
430.7360, 51819.98
431.2181, 52449.41
431.7002, 53049.88
432.1823, 53652.95
432.6645, 54262.95
433.1466, 54868.71
433.6287, 55446.69
434.1108, 55999.03
434.5929, 56539.96
435.0750, 57066.30
435.5572, 57583.43
436.0393, 58112.95
436.5214, 58652.78
437.0035, 59161.03
437.4856, 59594.78
437.9677, 59974.93
438.4499, 60328.70
438.9320, 60669.46
439.4141, 60974.40
439.8962, 61204.82
440.3783, 61383.40
440.8604, 61575.39
441.3426, 61864.88
441.8247, 62131.25
442.3068, 62308.02
442.7889, 62383.25
443.2710, 62391.11
443.7531, 62313.36
444.2353, 62183.42
444.7174, 62036.87
445.1995, 61953.92
445.6816, 61773.73
446.1637, 61425.50
446.6458, 60930.88
447.1280, 60484.91
447.6101, 60138.73
448.0922, 59783.13
448.5743, 59369.99
449.0564, 58908.34
449.5385, 58346.32
450.0207, 57659.74
450.5028, 56896.02
450.9849, 56144.37
451.4670, 55416.01
451.9491, 54679.66
452.4312, 53942.89
452.9134, 53196.27
453.3955, 52315.92
453.8776, 51288.83
454.3597, 50244.19
454.8418, 49349.46
455.3239, 48559.25
455.8061, 47717.72
456.2882, 46759.25
456.7703, 45763.64
457.2524, 44834.48
457.7345, 43965.80
458.2166, 43110.63
458.6988, 42270.06
459.1809, 41421.99
459.6630, 40549.78
460.1451, 39638.75
460.6272, 38734.01
461.1093, 37870.52
461.5915, 37031.27
462.0736, 36212.48
462.5557, 35407.00
463.0378, 34626.00
463.5199, 33876.46
464.0020, 33162.21
464.4842, 32482.40
464.9663, 31878.45
465.4484, 31285.43
465.9305, 30662.72
466.4126, 29948.04
466.8947, 29298.35
467.3769, 28738.84
467.8590, 28235.51
468.3411, 27726.78
468.8232, 27211.18
469.3053, 26695.73
469.7874, 26168.35
470.2696, 25632.43
470.7517, 25157.17
471.2338, 24755.02
471.7159, 24378.75
472.1980, 23996.17
472.6801, 23605.88
473.1623, 23217.45
473.6444, 22826.25
474.1265, 22443.27
474.6086, 22084.16
475.0907, 21749.03
475.5728, 21438.45
476.0550, 21168.74
476.5371, 20917.12
477.0192, 20644.09
477.5013, 20346.65
477.9834, 20062.48
478.4655, 19831.97
478.9477, 19627.72
479.4298, 19416.64
479.9119, 19178.19
480.3940, 18940.41
480.8761, 18710.55
481.3582, 18492.79
481.8404, 18302.38
482.3225, 18166.60
482.8046, 18041.06
483.2867, 17904.70
483.7688, 17752.83
484.2509, 17600.31
484.7331, 17437.32
485.2152, 17280.62
485.6973, 17143.59
486.1794, 17038.88
486.6615, 16931.85
487.1436, 16815.90
487.6258, 16693.31
488.1079, 16566.25
488.5900, 16420.21
489.0721, 16312.38
489.5542, 16297.66
490.0363, 16377.16
490.5185, 16403.14
491.0006, 16371.06
491.4827, 16287.24
491.9648, 16130.44
492.4470, 15916.84
492.9291, 15738.90
493.4112, 15644.86
493.8933, 15592.80
494.3754, 15517.95
494.8575, 15425.51
495.3397, 15352.64
495.8218, 15342.03
496.3039, 15353.94
496.7860, 15345.62
497.2681, 15308.20
497.7502, 15260.11
498.2324, 15200.33
498.7145, 15138.65
499.1966, 15087.26
499.6787, 15047.76
500.1608, 15021.75
500.6429, 15012.73
501.1251, 15019.89
501.6072, 15031.27
502.0893, 15068.83
502.5714, 15090.38
503.0535, 15071.94
503.5356, 14985.94
504.0178, 14926.80
504.4999, 14902.47
504.9820, 14898.40
505.4641, 14891.03
505.9462, 14877.46
506.4283, 14877.08
506.9105, 14903.01
507.3926, 14944.71
507.8747, 14955.04
508.3568, 14932.36
508.8389, 14908.87
509.3210, 14915.80
509.8032, 14940.23
510.2853, 14943.49
510.7674, 14916.95
511.2495, 14885.57
511.7316, 14868.86
512.2137, 14866.54
512.6959, 14878.08
513.1780, 14925.51
513.6601, 14968.17
514.1422, 14975.59
514.6243, 14951.77
515.1064, 14925.73
515.5886, 14907.77
516.0707, 14891.73
516.5528, 14873.52
517.0349, 14848.93
517.5170, 14829.53
517.9991, 14805.09
518.4813, 14791.01
518.9634, 14810.79
519.4455, 14895.27
519.9276, 14961.33
520.4097, 14995.02
520.8918, 14996.72
521.3740, 14962.38
521.8561, 14878.23
522.3382, 14803.58
522.8203, 14780.66
523.3024, 14806.93
523.7845, 14839.91
524.2667, 14880.75
524.7488, 14915.71
525.2309, 14926.85
525.7130, 14918.39
526.1951, 14903.92
526.6772, 14878.82
527.1594, 14858.88
527.6415, 14867.90
528.1236, 14900.44
528.6057, 14932.94
529.0878, 14948.49
529.5699, 14960.91
530.0521, 14984.03
530.5342, 15025.36
531.0163, 15052.01
531.4984, 15039.66
531.9805, 15013.48
532.4626, 15000.27
532.9448, 15008.27
533.4269, 15023.83
533.9090, 15043.29
534.3911, 15068.96
534.8732, 15112.16
535.3553, 15188.37
535.8375, 15253.97
536.3196, 15285.83
536.8017, 15282.46
537.2838, 15284.88
537.7659, 15292.65
538.2480, 15307.84
538.7302, 15333.55
539.2123, 15369.29
539.6944, 15410.86
540.1765, 15459.24
540.6586, 15509.57
541.1407, 15556.20
541.6229, 15599.93
542.1050, 15644.35
542.5871, 15687.03
543.0692, 15734.19
543.5513, 15794.38
544.0334, 15867.37
544.5156, 15937.46
544.9977, 15994.29
545.4798, 16046.91
545.9619, 16101.37
546.4440, 16153.96
546.9261, 16215.75
547.4083, 16288.59
547.8904, 16372.07
548.3725, 16464.63
548.8546, 16573.82
549.3367, 16680.98
549.8188, 16783.62
550.3010, 16881.17
550.7831, 16963.57
551.2652, 17025.98
551.7473, 17089.68
552.2294, 17167.88
552.7115, 17260.29
553.1937, 17365.04
553.6758, 17485.23
554.1579, 17604.30
554.6400, 17694.88
555.1221, 17767.34
555.6042, 17848.94
556.0864, 17945.07
556.5685, 18060.35
557.0506, 18207.78
557.5327, 18380.08
558.0148, 18547.95
558.4969, 18696.13
558.9791, 18836.83
559.4612, 18970.02
559.9433, 19088.83
560.4254, 19233.80
560.9075, 19438.69
561.3896, 19657.76
561.8718, 19852.60
562.3539, 20004.26
562.8360, 20164.43
563.3181, 20338.56
563.8002, 20520.94
564.2823, 20700.30
564.7645, 20873.59
565.2466, 21050.25
565.7287, 21225.00
566.2108, 21404.38
566.6929, 21631.62
567.1750, 21907.29
567.6572, 22176.33
568.1393, 22364.44
568.6214, 22513.35
569.1035, 22703.62
569.5856, 22956.36
570.0677, 23223.56
570.5499, 23468.93
571.0320, 23704.55
571.5141, 23951.12
571.9962, 24214.73
572.4783, 24492.19
572.9604, 24781.84
573.4426, 25081.79
573.9247, 25391.29
574.4068, 25725.18
574.8889, 26051.98
575.3710, 26354.87
575.8531, 26622.89
576.3353, 26904.90
576.8174, 27200.56
577.2995, 27506.72
577.7816, 27829.77
578.2637, 28171.15
578.7458, 28492.46
579.2280, 28776.62
579.7101, 29059.46
580.1922, 29414.41
580.6743, 29830.76
581.1564, 30248.06
581.6385, 30629.78
582.1207, 31001.96
582.6028, 31386.82
583.0849, 31782.75
583.5670, 32202.97
584.0491, 32684.99
584.5313, 33174.46
585.0134, 33625.94
585.4955, 34019.04
585.9776, 34414.64
586.4597, 34810.81
586.9418, 35223.09
587.4240, 35664.96
587.9061, 36146.25
588.3882, 36646.17
588.8703, 37172.23
589.3524, 37712.89
589.8345, 38231.32
590.3167, 38720.98
590.7988, 39217.35
591.2809, 39722.66
591.7630, 40241.37
592.2451, 40781.10
592.7272, 41342.69
593.2094, 41904.98
593.6915, 42449.57
594.1736, 42982.50
594.6557, 43519.13
595.1378, 44052.38
595.6199, 44585.71
596.1021, 45100.36
596.5842, 45619.49
597.0663, 46178.47
597.5485, 46861.34
598.0306, 47501.53
598.5127, 48023.90
598.9948, 48452.42
599.4769, 48900.70
599.9590, 49400.89
600.4412, 49899.61
600.9233, 50384.15
601.4054, 50859.48
601.8875, 51277.46
602.3696, 51628.23
602.8517, 51938.47
603.3339, 52218.32
603.8160, 52470.68
604.2981, 52701.42
604.7802, 52909.39
605.2623, 53094.93
605.7444, 53262.46
606.2266, 53406.93
606.7087, 53507.71
607.1908, 53558.12
607.6729, 53564.63
608.1550, 53536.82
608.6371, 53470.71
609.1193, 53352.43
609.6014, 53158.30
610.0835, 52925.96
610.5656, 52669.84
611.0477, 52387.85
611.5298, 52107.85
612.0120, 51871.68
612.4941, 51600.29
612.9762, 51239.76
613.4583, 50772.46
613.9404, 50289.32
614.4225, 49806.10
614.9047, 49289.42
615.3868, 48658.50
615.8689, 47918.59
616.3510, 47211.91
616.8331, 46590.22
617.3152, 46010.70
617.7974, 45403.61
618.2795, 44779.55
618.7616, 44148.81
619.2437, 43530.95
619.7258, 42902.38
620.2079, 42225.83
620.6901, 41503.29
621.1722, 40799.18
621.6543, 40146.73
622.1364, 39509.70
622.6185, 38872.14
623.1006, 38224.07
623.5828, 37585.05
624.0649, 36961.41
624.5470, 36341.02
625.0291, 35701.67
625.5112, 35033.07
625.9933, 34400.23
626.4755, 33826.02
626.9576, 33288.86
627.4397, 32759.26
627.9218, 32235.17
628.4039, 31700.82
628.8860, 31128.95
629.3682, 30550.35
629.8503, 30011.82
630.3324, 29509.75
630.8145, 29031.04
631.2966, 28581.04
631.7787, 28148.49
632.2609, 27732.61
632.7430, 27341.83
633.2251, 26931.64
633.7072, 26457.92
634.1893, 25988.11
634.6714, 25575.64
635.1536, 25238.76
635.6357, 24923.32
636.1178, 24646.24
636.5999, 24371.28
637.0820, 24014.38
637.5641, 23572.36
638.0463, 23165.94
638.5284, 22833.63
639.0105, 22557.79
639.4926, 22317.38
639.9747, 22103.21
640.4568, 21870.10
640.9390, 21542.73
641.4211, 21211.47
641.9032, 20975.56
642.3853, 20842.59
642.8674, 20694.48
643.3495, 20478.90
643.8317, 20235.75
644.3138, 19986.66
644.7959, 19714.73
645.2780, 19478.17
645.7601, 19287.42
646.2422, 19123.58
646.7244, 18964.45
647.2065, 18811.96
647.6886, 18661.55
648.1707, 18514.70
648.6528, 18368.82
649.1349, 18210.49
649.6171, 18043.49
650.0992, 17889.96
650.5813, 17767.39
651.0634, 17659.44
651.5455, 17549.84
652.0276, 17437.53
652.5098, 17322.00
652.9919, 17199.75
653.4740, 17076.44
653.9561, 16953.88
654.4382, 16831.00
654.9203, 16716.75
655.4025, 16608.86
655.8846, 16512.38
656.3667, 16433.72
656.8488, 16379.74
657.3309, 16323.02
657.8130, 16262.98
658.2952, 16198.59
658.7773, 16126.46
659.2594, 16046.80
659.7415, 15969.60
660.2236, 15897.28
660.7057, 15828.49
661.1879, 15762.78
661.6700, 15699.66
662.1521, 15638.49
662.6342, 15585.19
663.1163, 15528.36
663.5984, 15451.89
664.0806, 15360.29
664.5627, 15289.84
665.0448, 15270.28
665.5269, 15256.05
666.0090, 15233.16
666.4911, 15205.01
666.9733, 15137.08
667.4554, 15006.16
667.9375, 14881.46
668.4196, 14832.11
668.9017, 14854.83
669.3839, 14848.92
669.8660, 14802.17
670.3481, 14741.78
670.8302, 14698.23
671.3123, 14665.07
671.7944, 14627.40
672.2766, 14574.93
672.7587, 14526.67
673.2408, 14493.21
673.7229, 14472.91
674.2050, 14461.87
674.6871, 14476.12
675.1693, 14481.06
675.6514, 14467.45
676.1335, 14436.84
676.6156, 14393.81
677.0977, 14329.79
677.5798, 14273.26
678.0620, 14239.83
678.5441, 14226.64
679.0262, 14209.64
679.5083, 14188.59
679.9904, 14165.01
680.4725, 14146.81
680.9547, 14125.06
681.4368, 14074.98
681.9189, 13989.83
682.4010, 13918.12
682.8831, 13907.73
683.3652, 13920.51
683.8474, 13917.50
684.3295, 13871.15
684.8116, 13838.83
685.2937, 13848.51
685.7758, 13867.76
686.2579, 13851.56
686.7401, 13783.78
687.2222, 13725.84
687.7043, 13692.47
688.1864, 13672.05
688.6685, 13634.50
689.1506, 13581.04
689.6328, 13531.41
690.1149, 13491.52
690.5970, 13462.00
691.0791, 13452.48
691.5612, 13457.46
692.0433, 13449.61
692.5255, 13399.82
693.0076, 13343.83
693.4897, 13310.31
693.9718, 13304.93
694.4539, 13275.10
694.9360, 13183.28
695.4182, 13093.69
695.9003, 13042.24
696.3824, 13041.05
696.8645, 13031.30
697.3466, 13013.88
697.8287, 12985.54
698.3109, 12935.28
698.7930, 12868.49
699.2751, 12816.99
699.7572, 12791.54
700.2393, 12764.86
700.7214, 12705.14
701.2036, 12625.50
701.6857, 12547.58
702.1678, 12473.68
702.6499, 12409.17
703.1320, 12358.05
703.6141, 12317.83
704.0963, 12282.67
704.5784, 12262.29
705.0605, 12230.77
705.5426, 12181.19
706.0247, 12116.10
706.5068, 12042.99
706.9890, 11958.79
707.4711, 11889.18
707.9532, 11866.73
708.4353, 11864.66
708.9174, 11802.34
709.3995, 11686.01
709.8817, 11578.94
710.3638, 11535.82
710.8459, 11514.72
711.3280, 11480.96
711.8101, 11429.39
712.2922, 11374.72
712.7744, 11323.17
713.2565, 11267.78
713.7386, 11201.00
714.2207, 11108.01
714.7028, 11044.98
715.1849, 11022.68
715.6671, 11010.59
716.1492, 10970.06
716.6313, 10904.29
717.1134, 10850.90
717.5955, 10821.63
718.0776, 10790.61
718.5598, 10715.53
719.0419, 10617.55
719.5240, 10538.27
720.0061, 10503.97
720.4882, 10476.70
720.9703, 10441.08
721.4525, 10399.33
721.9346, 10356.44
722.4167, 10315.17
722.8988, 10268.83
723.3809, 10212.27
723.8630, 10150.06
724.3452, 10102.67
724.8273, 10072.46
725.3094, 10041.29
725.7915, 10002.42
726.2736, 9956.221
726.7557, 9900.029
727.2379, 9835.313
727.7200, 9773.603
728.2021, 9726.106
728.6842, 9682.329
729.1663, 9632.207
729.6484, 9574.918
730.1306, 9520.146
730.6127, 9463.049
731.0948, 9416.150
731.5769, 9390.641
732.0590, 9398.876
732.5411, 9373.609
733.0233, 9307.864
733.5054, 9224.269
733.9875, 9128.616
734.4696, 9027.166
734.9517, 8978.481
735.4338, 8995.923
735.9160, 9022.240
736.3981, 8995.749
736.8802, 8941.688
737.3623, 8898.137
737.8444, 8883.061
738.3266, 8864.383
738.8087, 8827.798
739.2908, 8780.648
739.7729, 8732.961
740.2551, 8674.246
740.7372, 8636.626
741.2193, 8635.473
741.7014, 8647.532
742.1835, 8618.575
742.6656, 8548.209
743.1478, 8482.356
743.6299, 8438.018
744.1120, 8402.680
744.5941, 8350.237
745.0762, 8289.374
745.5583, 8245.376
746.0405, 8253.009
746.5226, 8260.812
747.0047, 8233.139
747.4868, 8177.342
747.9689, 8139.883
748.4510, 8140.007
748.9332, 8141.933
749.4153, 8136.410
749.8974, 8123.473
750.3795, 8101.646
750.8616, 8069.830
751.3438, 8038.378
751.8259, 8014.072
752.3080, 7995.020
752.7901, 7975.245
753.2722, 7954.958
753.7543, 7938.825
754.2365, 7939.671
754.7186, 7939.236
755.2007, 7922.141
755.6828, 7884.393
756.1649, 7842.414
756.6470, 7772.000
757.1292, 7721.516
757.6113, 7730.206
758.0934, 7822.063
758.5755, 7861.157
759.0576, 7839.118
759.5397, 7793.133
760.0219, 7754.845
760.5040, 7724.098
760.9861, 7702.718
761.4682, 7692.238
761.9503, 7685.212
762.4324, 7680.010
762.9146, 7673.038
763.3967, 7659.447
763.8788, 7629.683
764.3609, 7606.979
764.8430, 7597.429
765.3251, 7595.714
765.8073, 7597.307
766.2894, 7604.119
766.7715, 7607.843
767.2536, 7609.496
767.7357, 7603.444
768.2178, 7568.427
768.7000, 7514.334
769.1821, 7484.925
769.6642, 7506.178
770.1463, 7537.285
770.6284, 7541.513
771.1105, 7530.447
771.5927, 7526.482
772.0748, 7551.783
772.5569, 7566.948
773.0390, 7557.542
773.5211, 7532.792
774.0032, 7514.424
774.4854, 7502.087
774.9675, 7498.411
775.4496, 7508.036
775.9317, 7523.453
776.4138, 7524.558
776.8959, 7513.498
777.3781, 7501.969
777.8602, 7497.721
778.3423, 7494.294
778.8244, 7477.580
779.3065, 7454.494
779.7886, 7454.055
780.2708, 7521.727
780.7529, 7574.262
781.2350, 7576.458
781.7171, 7535.729
782.1992, 7526.046
782.6813, 7556.634
783.1635, 7581.719
783.6456, 7570.654
784.1277, 7537.215
784.6098, 7530.242
785.0919, 7547.019
785.5740, 7560.189
786.0562, 7539.324
786.5383, 7516.667
787.0204, 7523.921
787.5025, 7562.726
787.9846, 7594.526
788.4667, 7620.666
788.9489, 7626.579
789.4310, 7599.546
789.9131, 7537.050
790.3952, 7491.226
790.8773, 7461.810
791.3594, 7452.019
791.8416, 7480.173
792.3237, 7528.055
792.8058, 7543.436
793.2879, 7524.341
793.7700, 7501.208
794.2521, 7494.060
794.7343, 7492.593
795.2164, 7489.397
795.6985, 7483.860
796.1806, 7474.441
796.6627, 7459.730
797.1448, 7442.705
797.6270, 7426.670
798.1091, 7412.959
798.5912, 7385.012
799.0733, 7338.676
799.5554, 7298.694
800.0375, 7301.188
800.5197, 7324.171
801.0018, 7321.258
801.4839, 7282.825
801.9660, 7247.667
802.4481, 7247.396
802.9302, 7255.684
803.4124, 7250.654
803.8945, 7226.122
804.3766, 7192.923
804.8587, 7143.444
805.3408, 7095.392
805.8229, 7065.216
806.3051, 7052.842
806.7872, 7050.768
807.2693, 7061.190
807.7514, 7064.267
808.2335, 7029.990
808.7156, 6978.321
809.1978, 6941.146
809.6799, 6930.286
810.1620, 6916.503
810.6441, 6885.737
811.1262, 6847.206
811.6083, 6809.673
812.0905, 6770.122
812.5726, 6739.647
813.0547, 6721.895
813.5368, 6707.186
814.0189, 6685.686
814.5010, 6657.591
814.9832, 6620.324
815.4653, 6570.228
815.9474, 6528.036
816.4295, 6524.646
816.9116, 6535.130
817.3937, 6528.097
817.8759, 6489.847
818.3580, 6445.729
818.8401, 6388.099
819.3222, 6335.699
819.8043, 6310.270
820.2864, 6320.997
820.7686, 6314.622
821.2507, 6283.411
821.7328, 6243.713
822.2149, 6218.218
822.6970, 6201.291
823.1791, 6177.439
823.6613, 6141.527
824.1434, 6104.628
824.6255, 6073.470
825.1076, 6045.892
825.5897, 6020.023
826.0718, 5998.479
826.5540, 5974.179
827.0361, 5947.725
827.5182, 5917.415
828.0003, 5877.029
828.4824, 5827.115
828.9645, 5790.347
829.4467, 5773.465
829.9288, 5756.968
830.4109, 5714.890
830.8930, 5659.859
831.3751, 5610.157
831.8572, 5570.052
832.3394, 5537.772
832.8215, 5519.710
833.3036, 5505.170
833.7857, 5482.377
834.2678, 5450.462
834.7499, 5413.378
835.2321, 5370.728
835.7142, 5324.883
836.1963, 5274.740
836.6784, 5223.197
837.1605, 5184.797
837.6426, 5165.565
838.1248, 5146.237
838.6069, 5107.908
839.0890, 5063.222
839.5711, 5027.523
840.0532, 5016.594
840.5353, 4989.979
841.0175, 4932.294
841.4996, 4871.828
841.9817, 4842.556
842.4638, 4846.118
842.9459, 4834.493
843.4280, 4801.757
843.9102, 4760.903
844.3923, 4721.865
844.8744, 4685.549
845.3565, 4655.770
845.8386, 4636.384
846.3207, 4610.903
846.8029, 4558.445
847.2850, 4506.322
847.7671, 4480.583
848.2492, 4499.355
848.7313, 4494.276
849.2134, 4460.162
849.6956, 4415.451
850.1777, 4373.375
850.6598, 4335.492
851.1419, 4309.950
851.6240, 4298.869
852.1061, 4287.207
852.5883, 4261.515
853.0704, 4230.944
853.5525, 4202.875
854.0346, 4178.057
854.5167, 4158.854
854.9988, 4150.703
855.4810, 4141.076
855.9631, 4119.538
856.4452, 4085.760
856.9273, 4054.776
857.4094, 4027.067
857.8915, 4001.762
858.3737, 3977.574
858.8558, 3956.012
859.3379, 3940.218
859.8200, 3931.096
860.3021, 3921.257
860.7842, 3909.722
861.2664, 3895.194
861.7485, 3875.749
862.2306, 3849.974
862.7127, 3834.276
863.1948, 3831.363
863.6769, 3826.048
864.1591, 3802.844
864.6412, 3770.205
865.1233, 3747.802
865.6054, 3735.612
866.0875, 3726.669
866.5696, 3718.584
867.0518, 3710.719
867.5339, 3704.481
868.0160, 3699.913
868.4981, 3686.206
868.9802, 3658.148
869.4623, 3631.777
869.9445, 3614.640
870.4266, 3605.514
870.9087, 3600.254
871.3908, 3598.448
871.8729, 3596.430
872.3550, 3593.746
872.8372, 3588.417
873.3193, 3578.929
873.8014, 3565.283
874.2835, 3548.181
874.7656, 3523.894
875.2477, 3500.580
875.7299, 3479.460
876.2120, 3461.082
876.6941, 3446.895
877.1762, 3436.933
877.6583, 3430.807
878.1404, 3431.533
878.6226, 3432.805
879.1047, 3424.380
879.5869, 3409.755
880.0690, 3397.724
880.5511, 3401.366
881.0332, 3396.656
881.5153, 3369.873
881.9974, 3332.441
882.4796, 3305.073
882.9617, 3287.384
883.4438, 3283.757
883.9259, 3299.303
884.4080, 3321.128
884.8901, 3332.715
885.3723, 3334.247
885.8544, 3325.211
886.3365, 3297.772
886.8186, 3272.402
887.3007, 3260.998
887.7828, 3256.031
888.2650, 3246.289
888.7471, 3227.445
889.2292, 3215.173
889.7113, 3211.015
890.1934, 3213.130
890.6755, 3226.205
891.1577, 3243.673
891.6398, 3241.763
892.1219, 3212.057
892.6040, 3183.739
893.0861, 3180.636
893.5682, 3186.684
894.0504, 3187.042
894.5325, 3178.121
895.0146, 3166.637
895.4967, 3150.452
895.9788, 3135.680
896.4609, 3128.664
896.9431, 3128.111
897.4252, 3127.232
897.9073, 3125.698
898.3894, 3121.145
898.8715, 3106.020
899.3536, 3091.142
899.8358, 3088.489
900.3179, 3100.715
900.8000, 3103.258
901.2821, 3087.569
901.7642, 3071.113
902.2463, 3061.145
902.7285, 3057.247
903.2106, 3055.845
903.6927, 3056.867
904.1748, 3058.121
904.6569, 3060.026
905.1390, 3060.195
905.6212, 3054.245
906.1033, 3043.948
906.5854, 3036.708
907.0675, 3040.361
907.5496, 3040.261
908.0317, 3031.789
908.5139, 3017.735
908.9960, 3005.909
909.4781, 2996.371
909.9602, 2988.173
910.4423, 2980.027
910.9244, 2974.762
911.4066, 2980.721
911.8887, 2991.171
912.3708, 2993.752
912.8529, 2973.088
913.3350, 2958.622
913.8171, 2959.470
914.2993, 2966.165
914.7814, 2967.364
915.2635, 2963.095
915.7456, 2951.573
916.2277, 2931.116
916.7098, 2909.529
917.1920, 2891.095
917.6741, 2879.407
918.1562, 2883.187
918.6383, 2910.849
919.1204, 2929.449
919.6025, 2919.878
920.0847, 2905.246
920.5668, 2903.237
921.0489, 2918.038
921.5310, 2910.885
922.0131, 2878.935
922.4952, 2849.034
922.9774, 2848.815
923.4595, 2861.645
923.9416, 2862.085
924.4237, 2849.422
924.9058, 2837.872
925.3879, 2832.808
925.8701, 2830.455
926.3522, 2829.840
926.8343, 2830.569
927.3164, 2829.618
927.7985, 2826.957
928.2806, 2822.792
928.7628, 2816.180
929.2449, 2809.159
929.7270, 2805.634
930.2091, 2804.334
930.6912, 2801.720
931.1733, 2799.287
931.6555, 2791.827
932.1376, 2773.667
932.6197, 2751.319
933.1018, 2734.759
933.5839, 2723.823
934.0660, 2720.072
934.5482, 2725.350
935.0303, 2732.847
935.5124, 2734.809
935.9945, 2732.526
936.4766, 2728.349
936.9587, 2723.001
937.4409, 2715.223
937.9230, 2697.829
938.4051, 2683.048
938.8872, 2681.590
939.3693, 2696.670
939.8514, 2706.761
940.3336, 2711.732
940.8157, 2711.628
941.2978, 2705.028
941.7799, 2694.048
942.2620, 2680.270
942.7441, 2664.219
943.2263, 2650.414
943.7084, 2638.368
944.1905, 2632.218
944.6726, 2636.536
945.1547, 2648.457
945.6368, 2647.733
946.1190, 2633.413
946.6011, 2622.887
947.0832, 2628.418
947.5653, 2636.969
948.0474, 2628.831
948.5295, 2610.112
949.0117, 2595.017
949.4938, 2597.546
949.9759, 2591.766
950.4580, 2563.701
950.9401, 2531.864
951.4222, 2528.593
951.9044, 2554.488
952.3865, 2569.772
952.8686, 2566.760
953.3507, 2558.545
953.8328, 2560.981
954.3149, 2565.616
954.7971, 2559.846
955.2792, 2536.681
955.7613, 2521.711
956.2434, 2524.951
956.7255, 2529.760
957.2076, 2523.738
957.6898, 2507.529
958.1719, 2507.223
958.6540, 2522.586
959.1361, 2537.780
959.6182, 2544.750
960.1003, 2544.467
960.5825, 2534.241
961.0646, 2516.289
961.5467, 2503.014
962.0288, 2498.485
962.5109, 2496.841
962.9930, 2499.968
963.4752, 2502.517
963.9573, 2485.899
964.4394, 2454.189
964.9215, 2432.296
965.4036, 2431.673
965.8857, 2436.881
966.3679, 2437.277
966.8500, 2435.240
967.3321, 2433.933
967.8142, 2435.656
968.2963, 2434.122
968.7784, 2427.281
969.2606, 2421.294
969.7427, 2424.671
970.2248, 2434.237
970.7069, 2438.696
971.1890, 2437.202
971.6711, 2432.398
972.1533, 2425.423
972.6354, 2416.213
973.1175, 2402.497
973.5996, 2384.666
974.0817, 2375.635
974.5638, 2378.218
975.0460, 2379.667
975.5281, 2374.396
976.0102, 2364.886
976.4923, 2352.228
976.9744, 2339.510
977.4565, 2335.802
977.9387, 2356.685
978.4208, 2373.643
978.9029, 2378.118
979.3850, 2372.058
979.8671, 2354.263
980.3492, 2320.434
980.8314, 2302.707
981.3135, 2306.995
981.7956, 2316.688
982.2777, 2314.176
982.7598, 2305.091
983.2419, 2296.257
983.7241, 2288.189
984.2062, 2284.787
984.6883, 2292.029
985.1704, 2299.515
985.6525, 2303.623
986.1346, 2304.190
986.6168, 2297.485
987.0989, 2283.788
987.5810, 2271.897
988.0631, 2268.365
988.5452, 2267.676
989.0273, 2267.347
989.5095, 2265.680
989.9916, 2257.959
990.4737, 2231.063
990.9558, 2218.693
991.4379, 2230.508
991.9200, 2250.372
992.4022, 2251.438
992.8843, 2238.138
993.3664, 2230.991
993.8485, 2235.229
994.3306, 2236.844
994.8127, 2217.845
995.2949, 2197.627
995.7770, 2197.177
996.2591, 2222.123
996.7412, 2227.689
997.2233, 2208.208
997.7054, 2189.881
998.1876, 2191.713
998.6697, 2204.614
999.1518, 2209.336
999.6339, 2207.125
1000.116, 2203.134
1000.598, 2200.417
1001.080, 2195.315
1001.562, 2183.160
1002.044, 2169.373
1002.527, 2164.978
1003.009, 2170.908
1003.491, 2173.797
1003.973, 2171.699
1004.455, 2163.955
1004.937, 2144.188
1005.419, 2121.097
1005.901, 2106.524
1006.384, 2104.698
1006.866, 2102.127
1007.348, 2094.577
1007.830, 2089.863
1008.312, 2093.761
1008.794, 2104.460
1009.276, 2113.947
1009.758, 2121.395
1010.240, 2120.553
1010.723, 2098.717
1011.205, 2076.369
1011.687, 2064.049
1012.169, 2061.667
1012.651, 2069.705
1013.133, 2098.283
1013.615, 2103.732
1014.097, 2072.786
1014.580, 2034.777
1015.062, 2034.817
1015.544, 2056.250
1016.026, 2067.195
1016.508, 2060.346
1016.990, 2051.133
1017.472, 2045.429
1017.954, 2039.376
1018.436, 2031.187
1018.919, 2020.892
1019.401, 2004.453
1019.883, 1981.833
1020.365, 1967.259
1020.847, 1973.829
1021.329, 1988.291
1021.811, 1999.982
1022.293, 2008.994
1022.776, 2016.062
1023.258, 2028.361
1023.740, 2024.654
1024.222, 1994.981
1024.704, 1961.794
1025.186, 1963.050
1025.668, 1987.103
1026.150, 1990.898
1026.632, 1966.816
1027.115, 1945.652
1027.597, 1947.869
1028.079, 1957.974
1028.561, 1967.760
1029.043, 1976.737
1029.525, 1977.335
1030.007, 1968.506
1030.489, 1959.991
1030.972, 1957.000
1031.454, 1955.964
1031.936, 1950.511
1032.418, 1943.264
1032.900, 1939.900
1033.382, 1921.647
1033.864, 1941.732
1034.346, 2029.358
1034.828, 2122.807
1035.311, 2150.723
1035.793, 2120.278
1036.275, 2068.257
1036.757, 1997.105
1037.239, 1938.134
1037.721, 1920.371
1038.203, 1916.589
1038.685, 1909.932
1039.167, 1900.086
1039.650, 1893.606
1040.132, 1891.438
1040.614, 1888.593
1041.096, 1882.963
1041.578, 1876.674
1042.060, 1874.222
1042.542, 1873.469
1043.024, 1869.656
1043.507, 1855.357
1043.989, 1850.796
1044.471, 1869.048
1044.953, 1886.992
1045.435, 1884.715
1045.917, 1864.024
1046.399, 1846.568
1046.881, 1832.985
1047.364, 1825.859
1047.846, 1829.173
1048.328, 1837.480
1048.810, 1853.405
1049.292, 1871.691
1049.774, 1871.776
1050.256, 1847.918
1050.738, 1824.819
1051.220, 1805.880
1051.703, 1793.696
1052.185, 1796.768
1052.667, 1807.972
1053.149, 1816.211
1053.631, 1819.907
1054.113, 1817.567
1054.595, 1806.382
1055.077, 1791.397
1055.559, 1771.302
1056.042, 1748.966
1056.524, 1746.479
1057.006, 1761.686
1057.488, 1776.963
1057.970, 1784.356
1058.452, 1787.096
1058.934, 1785.676
1059.416, 1781.406
1059.899, 1776.958
1060.381, 1772.625
1060.863, 1767.159
1061.345, 1760.174
1061.827, 1753.198
1062.309, 1748.947
1062.791, 1745.038
1063.273, 1736.960
1063.755, 1724.442
1064.238, 1714.282
1064.720, 1704.528
1065.202, 1703.502
1065.684, 1719.205
1066.166, 1741.398
1066.648, 1737.026
1067.130, 1711.770
1067.612, 1691.311
1068.094, 1683.714
1068.577, 1683.044
1069.059, 1692.743
1069.541, 1702.821
1070.023, 1703.176
1070.505, 1691.726
1070.987, 1682.035
1071.469, 1674.058
1071.951, 1667.087
1072.434, 1658.318
1072.916, 1651.860
1073.398, 1656.385
1073.880, 1667.783
1074.362, 1671.482
1074.844, 1657.396
1075.326, 1647.694
1075.808, 1646.736
1076.291, 1647.998
1076.773, 1638.668
1077.255, 1624.364
1077.737, 1624.241
1078.219, 1641.843
1078.701, 1655.530
1079.183, 1653.095
1079.665, 1644.507
1080.147, 1632.919
1080.630, 1619.816
1081.112, 1615.042
1081.594, 1618.301
1082.076, 1620.649
1082.558, 1619.171
1083.040, 1614.658
1083.522, 1604.629
1084.004, 1593.416
1084.486, 1587.515
1084.969, 1591.140
1085.451, 1588.257
1085.933, 1576.408
1086.415, 1567.395
1086.897, 1577.043
1087.379, 1592.165
1087.861, 1584.661
1088.343, 1560.281
1088.826, 1545.216
1089.308, 1559.896
1089.790, 1570.462
1090.272, 1570.914
1090.754, 1564.488
1091.236, 1551.161
1091.718, 1534.513
1092.200, 1534.993
1092.682, 1557.149
1093.165, 1574.179
1093.647, 1565.032
1094.129, 1548.798
1094.611, 1529.438
1095.093, 1511.483
1095.575, 1541.072
1096.057, 1621.392
1096.539, 1667.305
1097.022, 1634.329
1097.504, 1578.764
1097.986, 1549.400
1098.468, 1537.271
1098.950, 1531.123
1099.432, 1530.693
1099.914, 1532.754
1100.396, 1538.645
1100.879, 1542.583
1101.361, 1538.271
1101.843, 1530.079
1102.325, 1529.128
1102.807, 1532.326
1103.289, 1528.009
1103.771, 1497.880
1104.253, 1479.147
1104.735, 1480.000
1105.218, 1491.468
1105.700, 1505.102
1106.182, 1519.021
1106.664, 1522.234
1107.146, 1513.440
1107.628, 1502.706
1108.110, 1494.885
1108.592, 1488.087
1109.074, 1480.758
1109.557, 1473.571
1110.039, 1469.175
1110.521, 1467.520
1111.003, 1471.677
1111.485, 1484.729
1111.967, 1496.997
1112.449, 1498.291
1112.931, 1494.186
1113.414, 1490.755
1113.896, 1489.237
1114.378, 1485.014
1114.860, 1477.590
1115.342, 1469.432
1115.824, 1458.693
1116.306, 1450.795
1116.788, 1459.488
1117.271, 1477.177
1117.753, 1487.019
1118.235, 1474.034
1118.717, 1467.937
1119.199, 1474.001
1119.681, 1480.798
1120.163, 1474.208
1120.645, 1459.667
1121.127, 1454.076
1121.609, 1457.294
1122.092, 1460.456
1122.574, 1458.069
1123.056, 1456.170
1123.538, 1456.423
1124.020, 1458.546
1124.502, 1463.475
1124.984, 1470.468
1125.466, 1472.880
1125.949, 1469.225
1126.431, 1463.256
1126.913, 1453.177
1127.395, 1445.568
1127.877, 1447.054
1128.359, 1456.101
1128.841, 1461.013
1129.323, 1461.618
1129.806, 1461.654
1130.288, 1463.721
1130.770, 1463.150
1131.252, 1449.933
1131.734, 1433.696
1132.216, 1428.071
1132.698, 1438.041
1133.180, 1446.447
1133.662, 1454.341
1134.145, 1455.879
1134.627, 1439.489
1135.109, 1419.662
1135.591, 1426.137
1136.073, 1447.557
1136.555, 1455.001
1137.037, 1418.618
1137.519, 1401.927
1138.001, 1414.433
1138.484, 1434.935
1138.966, 1441.637
1139.448, 1439.197
1139.930, 1437.382
1140.412, 1436.991
1140.894, 1439.110
1141.376, 1447.456
1141.858, 1454.318
1142.341, 1458.223
1142.823, 1459.144
1143.305, 1456.268
1143.787, 1450.273
1144.269, 1443.813
1144.751, 1437.193
1145.233, 1431.721
1145.715, 1428.988
1146.198, 1426.800
1146.680, 1424.802
1147.162, 1422.237
1147.644, 1414.642
1148.126, 1402.397
1148.608, 1390.372
1149.090, 1377.739
1149.572, 1371.625
1150.054, 1385.386
1150.536, 1402.554
1151.019, 1406.348
1151.501, 1395.327
1151.983, 1387.319
1152.465, 1382.184
1152.947, 1382.408
1153.429, 1394.523
1153.911, 1406.743
1154.393, 1404.356
1154.876, 1395.268
1155.358, 1394.267
1155.840, 1407.736
1156.322, 1411.571
1156.804, 1403.896
1157.286, 1394.504
1157.768, 1388.051
1158.250, 1386.680
1158.733, 1398.005
1159.215, 1417.389
1159.697, 1427.165
1160.179, 1420.324
1160.661, 1413.513
1161.143, 1408.125
1161.625, 1404.599
1162.107, 1405.035
1162.589, 1406.861
1163.072, 1406.712
1163.554, 1404.116
1164.036, 1396.479
1164.518, 1375.820
1165.000, 1362.980
1165.482, 1364.706
1165.964, 1373.836
1166.446, 1378.985
1166.928, 1381.065
1167.411, 1381.902
1167.893, 1381.693
1168.375, 1381.348
1168.857, 1384.396
1169.339, 1382.604
1169.821, 1369.544
1170.303, 1351.792
1170.785, 1347.865
1171.268, 1355.721
1171.750, 1370.494
1172.232, 1397.252
1172.714, 1413.140
1173.196, 1399.711
1173.678, 1380.883
1174.160, 1370.620
1174.642, 1367.387
1175.125, 1361.761
1175.607, 1354.342
1176.089, 1348.634
1176.571, 1344.471
1177.053, 1344.719
1177.535, 1354.936
1178.017, 1367.001
1178.499, 1374.314
1178.981, 1376.914
1179.464, 1371.098
1179.946, 1357.644
1180.428, 1348.742
1180.910, 1358.304
1181.392, 1367.629
1181.874, 1363.228
1182.356, 1354.055
1182.838, 1355.756
1183.320, 1368.993
1183.803, 1371.351
1184.285, 1360.742
1184.767, 1351.113
1185.249, 1354.839
1185.731, 1361.292
1186.213, 1363.293
1186.695, 1362.180
1187.177, 1363.714
1187.660, 1368.584
1188.142, 1363.636
1188.624, 1345.568
1189.106, 1327.393
1189.588, 1317.680
1190.070, 1315.071
1190.552, 1320.988
1191.034, 1333.891
1191.516, 1345.049
1191.999, 1354.825
1192.481, 1358.998
1192.963, 1355.543
1193.445, 1350.244
1193.927, 1349.203
1194.409, 1349.023
1194.891, 1346.047
1195.373, 1339.967
1195.855, 1332.568
1196.338, 1322.711
1196.820, 1322.072
1197.302, 1339.624
1197.784, 1358.971
1198.266, 1364.364
1198.748, 1359.701
1199.230, 1346.473
1199.712, 1321.511
1200.195, 1314.967
1200.677, 1329.613
1201.159, 1343.290
1201.641, 1343.641
1202.123, 1337.665
1202.605, 1328.151
1203.087, 1319.673
1203.569, 1320.439
1204.052, 1335.205
1204.534, 1347.270
1205.016, 1357.103
1205.498, 1361.959
1205.980, 1355.976
1206.462, 1347.297
1206.944, 1347.732
1207.426, 1352.379
1207.908, 1348.733
1208.391, 1329.419
1208.873, 1321.166
1209.355, 1326.487
1209.837, 1334.932
1210.319, 1337.872
1210.801, 1338.851
1211.283, 1344.585
1211.765, 1351.938
1212.247, 1348.156
1212.730, 1327.192
1213.212, 1313.317
1213.694, 1309.913
1214.176, 1309.737
1214.658, 1305.607
1215.140, 1300.787
1215.622, 1296.272
1216.104, 1293.918
1216.587, 1305.000
1217.069, 1338.896
1217.551, 1352.384
1218.033, 1334.786
1218.515, 1311.259
1218.997, 1308.559
1219.479, 1316.253
1219.961, 1324.256
1220.443, 1331.447
1220.926, 1338.347
1221.408, 1347.553
1221.890, 1344.314
1222.372, 1321.980
1222.854, 1297.434
1223.336, 1289.349
1223.818, 1291.363
1224.300, 1298.621
1224.782, 1310.711
1225.265, 1316.676
1225.747, 1315.310
1226.229, 1313.394
1226.711, 1312.600
1227.193, 1313.207
1227.675, 1319.293
1228.157, 1324.772
1228.639, 1320.169
1229.122, 1303.074
1229.604, 1295.174
1230.086, 1297.268
1230.568, 1303.756
1231.050, 1315.576
1231.532, 1324.335
1232.014, 1316.140
1232.496, 1301.588
1232.979, 1294.015
1233.461, 1295.203
1233.943, 1296.222
1234.425, 1297.202
1234.907, 1296.068
1235.389, 1288.017
1235.871, 1283.674
1236.353, 1301.504
1236.835, 1325.056
1237.318, 1329.603
1237.800, 1310.413
1238.282, 1308.584
1238.764, 1325.210
1239.246, 1336.723
1239.728, 1324.593
1240.210, 1308.792
1240.692, 1309.014
1241.175, 1314.151
1241.657, 1307.270
1242.139, 1283.975
1242.621, 1277.686
1243.103, 1288.496
1243.585, 1300.663
1244.067, 1304.226
1244.549, 1306.274
1245.031, 1312.565
1245.514, 1319.736
1245.996, 1324.092
1246.478, 1325.980
1246.960, 1318.177
1247.442, 1301.186
1247.924, 1287.392
1248.406, 1287.517
1248.888, 1290.231
1249.370, 1288.583
1249.853, 1286.275
1250.335, 1289.522
1250.817, 1297.949
1251.299, 1299.116
1251.781, 1293.073
1252.263, 1288.737
1252.745, 1297.591
1253.227, 1302.072
1253.710, 1287.090
1254.192, 1269.400
1254.674, 1274.404
1255.156, 1297.571
1255.638, 1304.970
1256.120, 1295.685
1256.602, 1284.629
1257.084, 1277.526
1257.567, 1273.311
1258.049, 1271.979
1258.531, 1272.478
1259.013, 1273.272
1259.495, 1274.706
1259.977, 1279.229
1260.459, 1286.506
1260.941, 1291.108
1261.423, 1288.683
1261.906, 1285.877
1262.388, 1285.359
1262.870, 1283.273
1263.352, 1268.509
1263.834, 1249.589
1264.316, 1248.957
1264.798, 1267.122
1265.280, 1283.868
1265.762, 1297.632
1266.245, 1301.045
1266.727, 1290.494
1267.209, 1274.421
1267.691, 1260.633
1268.173, 1251.045
1268.655, 1251.948
1269.137, 1262.768
1269.619, 1264.934
1270.102, 1251.670
1270.584, 1244.318
1271.066, 1249.203
1271.548, 1254.951
1272.030, 1240.978
1272.512, 1223.896
1272.994, 1227.697
1273.476, 1252.104
1273.958, 1261.700
1274.441, 1252.318
1274.923, 1243.800
1275.405, 1240.362
1275.887, 1239.569
1276.369, 1241.551
1276.851, 1242.880
1277.333, 1239.693
1277.815, 1232.544
1278.297, 1224.185
1278.780, 1214.269
1279.262, 1214.183
1279.744, 1228.768
1280.226, 1239.783
1280.708, 1227.647
1281.190, 1210.641
1281.672, 1198.835
1282.154, 1193.676
1282.637, 1207.674
1283.119, 1237.189
1283.601, 1243.933
1284.083, 1216.606
1284.565, 1190.789
1285.047, 1192.967
1285.529, 1196.371
1286.011, 1185.129
1286.494, 1167.484
1286.976, 1168.635
1287.458, 1183.612
1287.940, 1197.062
1288.422, 1206.377
1288.904, 1209.414
1289.386, 1197.079
1289.868, 1189.982
1290.350, 1196.855
1290.833, 1209.936
1291.315, 1215.893
##END=



