##NAMES=Rutile
##RRUFFID=R050417
##IDEAL CHEMISTRY=Ti^4+^O_2_
##LOCALITY=Champion mine, Mono County, California, USA
##OWNER=RRUFF
##SOURCE=Marcus Origlieri
##DESCRIPTION=Reddish black equant crystals
##STATUS=The identification of this mineral has been confirmed by X-ray diffraction and chemical analysis
##URL=rruff.info/R050417
##MEASURED CHEMISTRY=TiO_2_
93.30109, 0.0000000E+00
93.78320, 2102.048
94.26532, 2084.536
94.74744, 2091.973
95.22955, 2119.312
95.71167, 2159.309
96.19379, 2189.576
96.67590, 2213.769
97.15802, 2233.790
97.64014, 2249.012
98.12225, 2260.511
98.60437, 2270.397
99.08649, 2279.890
99.56860, 2288.981
100.0507, 2297.586
100.5328, 2302.300
101.0150, 2304.856
101.4971, 2306.066
101.9792, 2305.992
102.4613, 2307.430
102.9434, 2312.030
103.4255, 2317.840
103.9077, 2323.331
104.3898, 2327.735
104.8719, 2332.400
105.3540, 2340.397
105.8361, 2353.941
106.3182, 2366.870
106.8004, 2378.079
107.2825, 2387.863
107.7646, 2396.245
108.2467, 2403.036
108.7288, 2408.337
109.2109, 2414.202
109.6931, 2421.310
110.1752, 2428.210
110.6573, 2434.082
111.1394, 2439.265
111.6215, 2444.722
112.1036, 2451.212
112.5858, 2458.881
113.0679, 2467.207
113.5500, 2476.688
114.0321, 2486.333
114.5142, 2495.899
114.9964, 2505.336
115.4785, 2513.557
115.9606, 2518.153
116.4427, 2519.324
116.9248, 2522.090
117.4069, 2528.697
117.8891, 2537.591
118.3712, 2545.715
118.8533, 2552.424
119.3354, 2558.151
119.8175, 2563.483
120.2996, 2568.432
120.7818, 2572.816
121.2639, 2576.002
121.7460, 2577.903
122.2281, 2580.866
122.7102, 2587.147
123.1923, 2593.378
123.6745, 2597.510
124.1566, 2599.264
124.6387, 2600.074
125.1208, 2602.205
125.6029, 2606.930
126.0850, 2610.172
126.5672, 2611.597
127.0493, 2611.755
127.5314, 2610.661
128.0135, 2608.376
128.4956, 2605.597
128.9777, 2604.255
129.4599, 2605.763
129.9420, 2607.312
130.4241, 2608.961
130.9062, 2610.516
131.3883, 2611.791
131.8704, 2612.738
132.3526, 2613.271
132.8347, 2612.884
133.3168, 2610.579
133.7989, 2608.587
134.2810, 2607.566
134.7632, 2607.567
135.2453, 2608.794
135.7274, 2611.813
136.2095, 2616.220
136.6916, 2620.187
137.1737, 2622.228
137.6559, 2624.645
138.1380, 2630.111
138.6201, 2639.086
139.1022, 2648.996
139.5843, 2658.701
140.0664, 2668.244
140.5486, 2677.859
141.0307, 2690.988
141.5128, 2703.856
141.9949, 2704.827
142.4770, 2690.294
142.9591, 2667.524
143.4413, 2636.382
143.9234, 2600.747
144.4055, 2567.132
144.8876, 2540.375
145.3697, 2520.543
145.8518, 2502.730
146.3340, 2487.602
146.8161, 2474.174
147.2982, 2462.645
147.7803, 2452.720
148.2624, 2443.695
148.7445, 2434.583
149.2267, 2424.633
149.7088, 2418.442
150.1909, 2419.671
150.6730, 2420.887
151.1551, 2417.026
151.6372, 2407.841
152.1194, 2397.560
152.6015, 2391.451
153.0836, 2391.829
153.5657, 2390.644
154.0478, 2386.899
154.5299, 2382.064
155.0121, 2377.012
155.4942, 2371.837
155.9763, 2367.803
156.4584, 2368.231
156.9405, 2373.784
157.4226, 2376.688
157.9048, 2372.233
158.3869, 2363.758
158.8690, 2358.472
159.3511, 2358.856
159.8332, 2362.193
160.3153, 2365.367
160.7975, 2368.427
161.2796, 2370.772
161.7617, 2371.305
162.2438, 2370.251
162.7259, 2370.547
163.2081, 2373.728
163.6902, 2377.941
164.1723, 2381.684
164.6544, 2384.855
165.1365, 2388.261
165.6186, 2392.929
166.1008, 2399.120
166.5829, 2405.372
167.0650, 2411.852
167.5471, 2418.075
168.0292, 2423.198
168.5113, 2427.135
168.9935, 2431.159
169.4756, 2437.328
169.9577, 2446.098
170.4398, 2456.559
170.9219, 2470.379
171.4040, 2484.578
171.8862, 2496.196
172.3683, 2504.230
172.8504, 2510.517
173.3325, 2519.528
173.8146, 2533.698
174.2967, 2547.904
174.7789, 2562.369
175.2610, 2576.693
175.7431, 2590.177
176.2252, 2602.583
176.7073, 2614.327
177.1894, 2626.719
177.6716, 2638.439
178.1537, 2652.279
178.6358, 2671.552
179.1179, 2693.265
179.6000, 2711.472
180.0821, 2722.464
180.5643, 2728.887
181.0464, 2739.056
181.5285, 2754.304
182.0106, 2770.668
182.4927, 2786.907
182.9748, 2802.925
183.4570, 2818.289
183.9391, 2832.825
184.4212, 2846.437
184.9033, 2858.955
185.3854, 2869.560
185.8675, 2880.421
186.3497, 2893.979
186.8318, 2910.342
187.3139, 2925.647
187.7960, 2936.585
188.2781, 2946.276
188.7602, 2958.285
189.2424, 2973.972
189.7245, 2990.714
190.2066, 3005.200
190.6887, 3017.109
191.1708, 3027.903
191.6530, 3036.300
192.1351, 3044.667
192.6172, 3055.246
193.0993, 3068.901
193.5814, 3084.592
194.0635, 3100.389
194.5457, 3116.924
195.0278, 3132.126
195.5099, 3145.038
195.9920, 3156.870
196.4741, 3168.637
196.9562, 3180.765
197.4384, 3193.292
197.9205, 3206.500
198.4026, 3220.926
198.8847, 3235.292
199.3668, 3249.837
199.8489, 3264.101
200.3311, 3277.397
200.8132, 3289.353
201.2953, 3300.449
201.7774, 3312.434
202.2595, 3327.454
202.7416, 3341.034
203.2238, 3351.777
203.7059, 3361.063
204.1880, 3370.900
204.6701, 3382.302
205.1522, 3395.032
205.6343, 3408.054
206.1165, 3421.848
206.5986, 3435.521
207.0807, 3448.226
207.5628, 3460.716
208.0449, 3474.910
208.5270, 3492.291
209.0092, 3511.391
209.4913, 3525.762
209.9734, 3532.345
210.4555, 3538.995
210.9376, 3548.416
211.4197, 3560.030
211.9019, 3572.574
212.3840, 3585.736
212.8661, 3598.962
213.3482, 3610.825
213.8303, 3620.927
214.3124, 3630.403
214.7946, 3638.602
215.2767, 3646.116
215.7588, 3656.128
216.2409, 3671.112
216.7230, 3688.897
217.2052, 3705.625
217.6873, 3721.496
218.1694, 3735.567
218.6515, 3746.541
219.1336, 3754.559
219.6157, 3762.005
220.0979, 3768.489
220.5800, 3775.828
221.0621, 3786.433
221.5442, 3801.215
222.0263, 3816.614
222.5084, 3828.991
222.9906, 3838.132
223.4727, 3847.126
223.9548, 3856.715
224.4369, 3866.586
224.9190, 3876.383
225.4011, 3886.081
225.8833, 3896.047
226.3654, 3907.352
226.8475, 3920.585
227.3296, 3932.011
227.8117, 3939.780
228.2938, 3946.111
228.7760, 3951.590
229.2581, 3956.498
229.7402, 3961.806
230.2223, 3969.116
230.7044, 3979.339
231.1865, 3988.733
231.6687, 3998.370
232.1508, 4006.152
232.6329, 4009.844
233.1150, 4009.414
233.5971, 4007.518
234.0792, 4007.950
234.5614, 4011.930
235.0435, 4015.333
235.5256, 4018.403
236.0077, 4020.759
236.4898, 4022.680
236.9719, 4023.942
237.4541, 4023.458
237.9362, 4019.364
238.4183, 4009.468
238.9004, 4001.286
239.3825, 3994.809
239.8646, 3989.701
240.3468, 3987.321
240.8289, 3987.028
241.3110, 3985.452
241.7931, 3978.105
242.2752, 3962.620
242.7573, 3947.687
243.2395, 3932.280
243.7216, 3918.062
244.2037, 3907.577
244.6858, 3900.383
245.1679, 3892.326
245.6501, 3878.479
246.1322, 3856.810
246.6143, 3837.185
247.0964, 3820.928
247.5785, 3805.413
248.0606, 3789.191
248.5428, 3772.074
249.0249, 3754.034
249.5070, 3734.821
249.9891, 3714.009
250.4712, 3695.104
250.9533, 3679.981
251.4355, 3665.179
251.9176, 3648.261
252.3997, 3629.174
252.8818, 3609.283
253.3639, 3589.668
253.8460, 3570.310
254.3282, 3551.306
254.8103, 3532.273
255.2924, 3513.868
255.7745, 3497.019
256.2566, 3481.610
256.7387, 3466.329
257.2209, 3449.710
257.7030, 3432.490
258.1851, 3418.153
258.6672, 3409.525
259.1493, 3401.518
259.6314, 3390.366
260.1136, 3376.333
260.5957, 3362.239
261.0778, 3349.459
261.5599, 3337.925
262.0420, 3326.849
262.5241, 3317.204
263.0063, 3306.833
263.4884, 3293.224
263.9705, 3276.832
264.4526, 3261.711
264.9347, 3250.257
265.4168, 3241.095
265.8990, 3231.356
266.3811, 3220.585
266.8632, 3209.969
267.3453, 3200.790
267.8274, 3192.818
268.3095, 3183.871
268.7917, 3172.664
269.2738, 3160.609
269.7559, 3149.581
270.2380, 3139.657
270.7201, 3130.583
271.2022, 3123.149
271.6844, 3116.933
272.1665, 3108.616
272.6486, 3096.155
273.1307, 3082.597
273.6128, 3071.163
274.0949, 3061.771
274.5771, 3052.414
275.0592, 3041.346
275.5413, 3028.929
276.0234, 3017.334
276.5055, 3006.437
276.9876, 2997.127
277.4698, 2990.835
277.9519, 2986.874
278.4340, 2981.746
278.9161, 2972.766
279.3982, 2960.710
279.8803, 2948.706
280.3625, 2936.368
280.8446, 2925.123
281.3267, 2916.065
281.8088, 2908.628
282.2909, 2901.448
282.7730, 2893.951
283.2552, 2886.164
283.7373, 2878.260
284.2194, 2870.481
284.7015, 2862.050
285.1836, 2851.684
285.6658, 2840.616
286.1479, 2830.756
286.6300, 2823.364
287.1121, 2817.372
287.5942, 2810.456
288.0764, 2802.428
288.5585, 2793.857
289.0406, 2783.932
289.5227, 2774.049
290.0048, 2765.947
290.4869, 2760.339
290.9691, 2756.110
291.4512, 2751.545
291.9333, 2746.866
292.4154, 2741.203
292.8975, 2733.375
293.3796, 2725.105
293.8618, 2717.668
294.3439, 2711.388
294.8260, 2705.859
295.3081, 2700.402
295.7902, 2694.787
296.2723, 2690.381
296.7545, 2687.102
297.2366, 2685.380
297.7187, 2686.784
298.2008, 2690.903
298.6829, 2694.413
299.1650, 2692.944
299.6472, 2685.692
300.1293, 2680.884
300.6114, 2681.145
301.0935, 2682.115
301.5756, 2682.119
302.0577, 2681.166
302.5399, 2679.879
303.0220, 2678.576
303.5041, 2677.289
303.9862, 2676.595
304.4683, 2676.158
304.9504, 2676.905
305.4326, 2679.996
305.9147, 2684.396
306.3968, 2688.293
306.8789, 2690.659
307.3610, 2691.666
307.8431, 2691.804
308.3253, 2690.063
308.8074, 2689.121
309.2895, 2689.507
309.7716, 2691.052
310.2537, 2693.659
310.7358, 2697.350
311.2180, 2701.779
311.7001, 2706.330
312.1822, 2711.578
312.6643, 2715.621
313.1464, 2717.062
313.6285, 2717.902
314.1107, 2719.996
314.5928, 2723.794
315.0749, 2727.887
315.5570, 2730.107
316.0391, 2729.871
316.5212, 2729.833
317.0034, 2730.013
317.4855, 2730.648
317.9676, 2732.563
318.4497, 2735.456
318.9318, 2737.626
319.4139, 2736.712
319.8961, 2732.217
320.3782, 2729.706
320.8603, 2731.617
321.3424, 2733.362
321.8245, 2732.615
322.3066, 2730.219
322.7888, 2728.570
323.2709, 2729.888
323.7530, 2733.547
324.2351, 2734.693
324.7172, 2731.517
325.1993, 2728.217
325.6815, 2726.125
326.1636, 2724.714
326.6457, 2723.037
327.1278, 2720.487
327.6099, 2717.796
328.0920, 2717.018
328.5742, 2719.465
329.0563, 2720.949
329.5384, 2719.949
330.0205, 2717.985
330.5026, 2716.363
330.9847, 2715.450
331.4669, 2714.660
331.9490, 2713.124
332.4311, 2710.677
332.9132, 2708.237
333.3953, 2706.198
333.8774, 2704.011
334.3596, 2700.733
334.8417, 2696.650
335.3238, 2693.638
335.8059, 2694.423
336.2880, 2699.098
336.7701, 2701.188
337.2523, 2698.414
337.7344, 2695.322
338.2165, 2694.060
338.6986, 2694.120
339.1807, 2694.089
339.6628, 2692.877
340.1450, 2690.967
340.6271, 2690.146
341.1092, 2690.528
341.5913, 2691.851
342.0735, 2694.870
342.5556, 2698.345
343.0377, 2700.798
343.5198, 2701.669
344.0019, 2701.352
344.4840, 2699.975
344.9662, 2696.978
345.4483, 2695.347
345.9304, 2696.992
346.4125, 2699.834
346.8946, 2702.926
347.3767, 2706.109
347.8589, 2708.565
348.3410, 2708.673
348.8231, 2706.537
349.3052, 2706.655
349.7873, 2711.673
350.2694, 2716.807
350.7516, 2718.887
351.2337, 2718.259
351.7158, 2716.622
352.1979, 2713.766
352.6800, 2710.587
353.1621, 2710.570
353.6443, 2715.205
354.1264, 2719.718
354.6085, 2721.391
355.0906, 2721.128
355.5727, 2720.058
356.0548, 2718.302
356.5370, 2716.225
357.0191, 2714.016
357.5012, 2711.601
357.9833, 2710.168
358.4654, 2710.961
358.9475, 2712.622
359.4297, 2713.614
359.9118, 2713.799
360.3939, 2713.380
360.8760, 2711.987
361.3581, 2709.927
361.8402, 2708.833
362.3224, 2709.348
362.8045, 2710.518
363.2866, 2711.765
363.7687, 2713.012
364.2508, 2713.125
364.7329, 2710.875
365.2151, 2707.438
365.6972, 2704.759
366.1793, 2703.042
366.6614, 2701.753
367.1435, 2700.717
367.6256, 2699.809
368.1078, 2698.629
368.5899, 2696.402
369.0720, 2694.496
369.5541, 2694.261
370.0362, 2695.500
370.5183, 2696.961
371.0005, 2698.289
371.4826, 2699.273
371.9647, 2699.482
372.4468, 2698.802
372.9289, 2697.779
373.4110, 2695.934
373.8932, 2694.003
374.3753, 2693.662
374.8574, 2695.508
375.3395, 2697.917
375.8216, 2698.697
376.3037, 2697.593
376.7859, 2697.009
377.2680, 2696.652
377.7501, 2697.234
378.2322, 2700.236
378.7143, 2705.315
379.1964, 2709.542
379.6786, 2710.578
380.1607, 2708.691
380.6428, 2707.493
381.1249, 2707.164
381.6070, 2707.216
382.0891, 2707.376
382.5713, 2707.819
383.0534, 2708.699
383.5355, 2710.038
384.0176, 2712.273
384.4997, 2716.495
384.9818, 2725.499
385.4640, 2731.907
385.9461, 2733.416
386.4282, 2733.599
386.9103, 2735.427
387.3924, 2739.335
387.8745, 2744.113
388.3567, 2748.510
388.8388, 2752.520
389.3209, 2756.163
389.8030, 2758.401
390.2851, 2761.409
390.7672, 2766.364
391.2494, 2772.707
391.7315, 2779.302
392.2136, 2785.493
392.6957, 2791.368
393.1778, 2797.124
393.6599, 2801.775
394.1421, 2807.800
394.6242, 2816.747
395.1063, 2826.327
395.5884, 2834.003
396.0706, 2839.356
396.5527, 2844.318
397.0348, 2851.681
397.5169, 2862.125
397.9990, 2872.051
398.4811, 2881.161
398.9633, 2889.900
399.4454, 2897.546
399.9275, 2904.900
400.4096, 2914.064
400.8917, 2927.048
401.3738, 2942.625
401.8560, 2955.278
402.3381, 2963.365
402.8202, 2971.595
403.3023, 2980.238
403.7844, 2990.319
404.2665, 3003.712
404.7487, 3021.195
405.2308, 3039.385
405.7129, 3053.048
406.1950, 3061.870
406.6771, 3073.899
407.1592, 3092.461
407.6414, 3112.748
408.1235, 3131.017
408.6056, 3147.614
409.0877, 3164.933
409.5698, 3184.922
410.0519, 3206.412
410.5341, 3226.423
411.0162, 3244.177
411.4983, 3262.854
411.9804, 3285.075
412.4625, 3309.295
412.9446, 3332.753
413.4268, 3354.535
413.9089, 3376.241
414.3910, 3398.875
414.8731, 3422.383
415.3552, 3446.551
415.8373, 3471.409
416.3195, 3496.744
416.8016, 3522.229
417.2837, 3547.782
417.7658, 3573.964
418.2479, 3601.417
418.7300, 3629.299
419.2122, 3656.616
419.6943, 3683.304
420.1764, 3710.447
420.6585, 3738.716
421.1406, 3768.198
421.6227, 3798.109
422.1049, 3829.597
422.5870, 3860.524
423.0691, 3889.358
423.5512, 3917.129
424.0333, 3945.988
424.5154, 3976.655
424.9976, 4008.507
425.4797, 4040.237
425.9618, 4072.589
426.4439, 4103.070
426.9260, 4130.853
427.4081, 4157.662
427.8903, 4184.469
428.3724, 4211.558
428.8545, 4238.853
429.3366, 4266.417
429.8187, 4294.412
430.3008, 4322.272
430.7830, 4348.742
431.2651, 4376.834
431.7472, 4409.372
432.2293, 4442.889
432.7114, 4472.636
433.1935, 4496.883
433.6757, 4518.095
434.1578, 4540.119
434.6399, 4563.450
435.1220, 4585.445
435.6041, 4605.327
436.0862, 4624.007
436.5684, 4642.083
437.0505, 4659.265
437.5326, 4674.717
438.0147, 4687.308
438.4968, 4697.781
438.9789, 4709.234
439.4611, 4722.948
439.9432, 4734.334
440.4253, 4741.123
440.9074, 4744.882
441.3895, 4747.081
441.8716, 4748.188
442.3538, 4747.085
442.8359, 4742.050
443.3180, 4733.631
443.8001, 4725.700
444.2822, 4720.326
444.7643, 4713.086
445.2465, 4698.585
445.7286, 4678.158
446.2107, 4657.302
446.6928, 4639.282
447.1749, 4620.294
447.6570, 4595.894
448.1392, 4566.503
448.6213, 4536.116
449.1034, 4506.784
449.5855, 4478.054
450.0677, 4448.999
450.5498, 4421.648
451.0319, 4390.123
451.5140, 4350.940
451.9961, 4307.704
452.4782, 4264.602
452.9604, 4222.442
453.4425, 4180.814
453.9246, 4139.640
454.4067, 4099.261
454.8888, 4055.523
455.3709, 4005.299
455.8531, 3956.027
456.3352, 3910.863
456.8173, 3868.494
457.2994, 3825.712
457.7815, 3781.184
458.2636, 3736.685
458.7458, 3696.196
459.2279, 3663.274
459.7100, 3626.732
460.1921, 3582.504
460.6742, 3538.167
461.1563, 3498.653
461.6385, 3463.254
462.1206, 3428.122
462.6027, 3389.677
463.0848, 3349.084
463.5669, 3312.758
464.0490, 3282.915
464.5312, 3253.258
465.0133, 3221.560
465.4954, 3189.138
465.9775, 3156.876
466.4596, 3124.720
466.9417, 3093.558
467.4239, 3063.619
467.9060, 3035.072
468.3881, 3009.184
468.8702, 2987.403
469.3523, 2965.671
469.8344, 2939.370
470.3166, 2910.199
470.7987, 2883.526
471.2808, 2862.627
471.7629, 2843.283
472.2450, 2821.027
472.7271, 2796.761
473.2093, 2775.276
473.6914, 2759.008
474.1735, 2745.828
474.6556, 2731.765
475.1377, 2716.816
475.6198, 2701.227
476.1020, 2683.881
476.5841, 2666.641
477.0662, 2651.118
477.5483, 2637.413
478.0304, 2624.301
478.5125, 2610.829
478.9947, 2597.167
479.4768, 2585.450
479.9589, 2577.576
480.4410, 2569.156
480.9231, 2558.781
481.4052, 2548.006
481.8874, 2538.901
482.3695, 2531.739
482.8516, 2524.708
483.3337, 2515.159
483.8158, 2502.524
484.2979, 2492.300
484.7801, 2486.562
485.2622, 2481.019
485.7443, 2474.080
486.2264, 2466.408
486.7085, 2459.141
487.1906, 2452.759
487.6728, 2446.924
488.1549, 2440.916
488.6370, 2434.681
489.1191, 2429.307
489.6012, 2425.247
490.0833, 2421.925
490.5655, 2418.638
491.0476, 2415.468
491.5297, 2413.009
492.0118, 2412.762
492.4939, 2412.660
492.9760, 2409.330
493.4582, 2402.917
493.9403, 2397.550
494.4224, 2395.675
494.9045, 2395.885
495.3866, 2394.530
495.8687, 2390.915
496.3509, 2387.758
496.8330, 2385.605
497.3151, 2384.240
497.7972, 2383.574
498.2793, 2383.516
498.7614, 2383.810
499.2436, 2384.298
499.7257, 2384.947
500.2078, 2385.266
500.6899, 2383.901
501.1720, 2383.843
501.6541, 2387.418
502.1363, 2391.624
502.6184, 2392.584
503.1005, 2389.584
503.5826, 2385.954
504.0647, 2386.004
504.5468, 2390.145
505.0290, 2393.941
505.5111, 2397.219
505.9932, 2400.401
506.4753, 2404.088
506.9575, 2407.691
507.4396, 2410.126
507.9217, 2410.774
508.4038, 2410.884
508.8859, 2412.183
509.3680, 2414.570
509.8502, 2415.910
510.3323, 2414.598
510.8144, 2413.941
511.2965, 2418.477
511.7786, 2427.089
512.2607, 2433.782
512.7429, 2435.282
513.2250, 2435.676
513.7071, 2439.057
514.1892, 2444.642
514.6713, 2448.584
515.1534, 2448.884
515.6356, 2447.585
516.1177, 2448.768
516.5998, 2453.878
517.0819, 2458.423
517.5640, 2462.443
518.0461, 2465.765
518.5283, 2467.340
519.0104, 2467.994
519.4925, 2470.201
519.9746, 2475.746
520.4567, 2483.626
520.9388, 2490.121
521.4210, 2494.680
521.9031, 2498.780
522.3852, 2501.979
522.8673, 2505.284
523.3494, 2509.445
523.8315, 2514.435
524.3137, 2519.695
524.7958, 2524.782
525.2779, 2529.761
525.7600, 2534.944
526.2421, 2540.543
526.7242, 2545.430
527.2064, 2547.744
527.6885, 2549.838
528.1706, 2555.204
528.6527, 2564.757
529.1348, 2573.769
529.6169, 2579.381
530.0991, 2583.109
530.5812, 2587.319
531.0633, 2592.312
531.5454, 2597.593
532.0275, 2602.634
532.5096, 2607.663
532.9918, 2614.157
533.4739, 2623.349
533.9560, 2632.128
534.4381, 2639.276
534.9202, 2646.000
535.4023, 2653.688
535.8845, 2662.519
536.3666, 2671.790
536.8487, 2680.799
537.3308, 2689.558
537.8129, 2697.802
538.2950, 2703.581
538.7772, 2711.535
539.2593, 2724.478
539.7414, 2739.070
540.2235, 2751.531
540.7056, 2760.906
541.1877, 2769.728
541.6699, 2780.582
542.1520, 2793.178
542.6341, 2805.424
543.1162, 2816.468
543.5983, 2828.875
544.0804, 2846.424
544.5626, 2866.000
545.0447, 2881.283
545.5268, 2888.757
546.0089, 2896.935
546.4910, 2911.554
546.9731, 2930.231
547.4553, 2948.461
547.9374, 2965.426
548.4195, 2981.739
548.9016, 2997.760
549.3837, 3013.506
549.8658, 3031.006
550.3480, 3050.808
550.8301, 3071.455
551.3122, 3093.208
551.7943, 3115.233
552.2764, 3136.072
552.7585, 3155.517
553.2407, 3175.535
553.7228, 3198.960
554.2049, 3226.122
554.6870, 3250.205
555.1691, 3267.279
555.6512, 3286.888
556.1334, 3313.867
556.6155, 3344.351
557.0976, 3373.384
557.5797, 3399.458
558.0618, 3425.458
558.5439, 3454.357
559.0261, 3485.331
559.5082, 3515.669
559.9903, 3544.651
560.4724, 3573.925
560.9545, 3604.547
561.4366, 3636.511
561.9188, 3669.708
562.4009, 3705.185
562.8830, 3740.388
563.3651, 3773.883
563.8472, 3806.888
564.3293, 3840.915
564.8115, 3876.382
565.2936, 3913.335
565.7757, 3951.695
566.2578, 3991.610
566.7399, 4033.603
567.2220, 4079.721
567.7042, 4125.645
568.1863, 4170.258
568.6684, 4214.377
569.1505, 4258.162
569.6326, 4301.663
570.1147, 4346.158
570.5969, 4392.657
571.0790, 4441.047
571.5611, 4489.910
572.0432, 4538.801
572.5253, 4589.667
573.0074, 4644.522
573.4896, 4701.442
573.9717, 4758.129
574.4538, 4813.908
574.9359, 4870.265
575.4180, 4927.857
575.9001, 4986.486
576.3823, 5045.505
576.8644, 5105.190
577.3465, 5166.594
577.8286, 5230.781
578.3107, 5297.194
578.7928, 5363.014
579.2750, 5425.949
579.7571, 5491.601
580.2392, 5560.947
580.7213, 5632.131
581.2034, 5704.223
581.6855, 5776.677
582.1677, 5850.227
582.6498, 5924.983
583.1319, 6001.029
583.6140, 6076.892
584.0961, 6151.612
584.5782, 6230.397
585.0604, 6317.876
585.5425, 6408.114
586.0246, 6495.758
586.5067, 6581.252
586.9889, 6667.975
587.4710, 6757.647
587.9531, 6849.298
588.4352, 6941.524
588.9174, 7034.407
589.3995, 7129.770
589.8816, 7228.282
590.3637, 7329.241
590.8458, 7432.393
591.3279, 7538.425
591.8101, 7644.838
592.2922, 7749.558
592.7743, 7856.710
593.2564, 7970.024
593.7385, 8086.711
594.2206, 8200.507
594.7028, 8307.980
595.1849, 8414.231
595.6670, 8528.381
596.1491, 8652.229
596.6312, 8769.611
597.1133, 8875.553
597.5955, 8981.544
598.0776, 9095.087
598.5597, 9213.111
599.0418, 9329.953
599.5239, 9445.287
600.0060, 9557.913
600.4882, 9667.576
600.9703, 9773.737
601.4524, 9876.872
601.9345, 9976.971
602.4166, 10071.56
602.8987, 10156.24
603.3809, 10232.11
603.8630, 10310.89
604.3451, 10400.97
604.8272, 10483.06
605.3093, 10553.55
605.7914, 10614.29
606.2736, 10668.32
606.7557, 10715.39
607.2378, 10752.36
607.7199, 10775.85
608.2020, 10787.50
608.6841, 10795.98
609.1663, 10803.36
609.6484, 10801.71
610.1305, 10787.12
610.6126, 10763.17
611.0947, 10733.34
611.5768, 10697.61
612.0590, 10653.10
612.5411, 10596.56
613.0232, 10531.75
613.5053, 10462.88
613.9874, 10389.78
614.4695, 10309.76
614.9517, 10221.09
615.4338, 10125.37
615.9159, 10023.74
616.3980, 9915.295
616.8801, 9804.682
617.3622, 9694.234
617.8444, 9578.168
618.3265, 9451.226
618.8086, 9317.520
619.2907, 9184.705
619.7728, 9054.874
620.2549, 8925.089
620.7371, 8790.816
621.2192, 8652.217
621.7013, 8514.199
622.1834, 8377.067
622.6655, 8240.587
623.1476, 8104.912
623.6298, 7970.086
624.1119, 7837.200
624.5940, 7706.009
625.0761, 7576.979
625.5582, 7453.937
626.0403, 7332.261
626.5225, 7205.466
627.0046, 7073.745
627.4867, 6945.830
627.9688, 6826.242
628.4509, 6713.384
628.9330, 6599.178
629.4152, 6480.534
629.8973, 6367.305
630.3794, 6261.530
630.8615, 6158.422
631.3436, 6054.041
631.8257, 5949.720
632.3079, 5848.938
632.7900, 5752.946
633.2721, 5660.725
633.7542, 5570.672
634.2363, 5482.910
634.7184, 5401.182
635.2006, 5327.977
635.6827, 5255.687
636.1648, 5177.565
636.6469, 5094.613
637.1290, 5016.251
637.6111, 4943.846
638.0933, 4874.806
638.5754, 4809.852
639.0575, 4747.680
639.5396, 4686.981
640.0217, 4627.373
640.5038, 4568.064
640.9860, 4507.413
641.4681, 4446.502
641.9502, 4389.774
642.4323, 4338.252
642.9144, 4288.379
643.3965, 4239.610
643.8787, 4191.900
644.3608, 4145.257
644.8429, 4099.678
645.3250, 4055.231
645.8071, 4012.265
646.2892, 3969.827
646.7714, 3926.622
647.2535, 3883.187
647.7356, 3841.242
648.2177, 3801.503
648.6998, 3764.003
649.1819, 3729.803
649.6641, 3699.052
650.1462, 3666.359
650.6283, 3628.844
651.1104, 3592.891
651.5925, 3560.258
652.0746, 3529.596
652.5568, 3499.596
653.0389, 3470.044
653.5210, 3442.195
654.0031, 3417.917
654.4852, 3395.628
654.9673, 3370.322
655.4495, 3341.635
655.9316, 3314.359
656.4137, 3290.494
656.8958, 3268.373
657.3779, 3245.682
657.8600, 3222.511
658.3422, 3200.798
658.8243, 3181.384
659.3064, 3162.999
659.7885, 3145.551
660.2706, 3128.441
660.7527, 3110.488
661.2349, 3091.496
661.7170, 3071.771
662.1991, 3051.453
662.6812, 3030.641
663.1633, 3011.883
663.6454, 2995.993
664.1276, 2980.210
664.6097, 2962.509
665.0918, 2945.213
665.5739, 2931.098
666.0560, 2920.094
666.5381, 2908.213
667.0203, 2892.314
667.5024, 2875.632
667.9845, 2861.542
668.4666, 2849.730
668.9487, 2838.895
669.4308, 2828.702
669.9130, 2817.939
670.3951, 2804.798
670.8772, 2788.987
671.3593, 2773.325
671.8414, 2756.753
672.3235, 2741.637
672.8057, 2729.161
673.2878, 2718.036
673.7699, 2707.335
674.2520, 2696.776
674.7341, 2685.600
675.2162, 2672.481
675.6984, 2658.682
676.1805, 2646.757
676.6626, 2636.641
677.1447, 2627.948
677.6268, 2621.158
678.1089, 2614.213
678.5911, 2603.954
679.0732, 2589.439
679.5553, 2576.527
680.0374, 2565.404
680.5195, 2555.532
681.0016, 2547.777
681.4838, 2540.671
681.9659, 2532.589
682.4480, 2523.143
682.9301, 2512.804
683.4122, 2501.216
683.8943, 2489.221
684.3765, 2480.466
684.8586, 2475.641
685.3407, 2470.167
685.8228, 2462.410
686.3049, 2453.428
686.7870, 2443.869
687.2692, 2433.754
687.7513, 2425.640
688.2334, 2422.816
688.7155, 2419.001
689.1976, 2409.781
689.6797, 2397.791
690.1619, 2387.281
690.6440, 2379.196
691.1261, 2371.257
691.6082, 2360.832
692.0903, 2348.567
692.5724, 2339.592
693.0546, 2335.809
693.5367, 2329.804
694.0188, 2317.083
694.5009, 2303.468
694.9830, 2294.772
695.4651, 2290.430
695.9473, 2285.186
696.4294, 2277.064
696.9116, 2268.012
697.3937, 2259.395
697.8758, 2250.774
698.3579, 2240.948
698.8400, 2229.814
699.3221, 2218.959
699.8043, 2210.034
700.2864, 2202.739
700.7685, 2194.776
701.2506, 2185.382
701.7327, 2176.893
702.2148, 2171.372
702.6970, 2165.591
703.1791, 2156.618
703.6612, 2145.387
704.1433, 2135.720
704.6254, 2130.354
705.1075, 2125.346
705.5897, 2117.339
706.0718, 2107.381
706.5539, 2097.177
707.0360, 2087.177
707.5181, 2079.008
708.0002, 2074.485
708.4824, 2072.320
708.9645, 2065.661
709.4466, 2051.131
709.9287, 2038.532
710.4108, 2029.158
710.8929, 2021.447
711.3751, 2016.164
711.8572, 2011.743
712.3393, 2004.342
712.8214, 1991.349
713.3035, 1978.193
713.7856, 1970.742
714.2678, 1966.305
714.7499, 1958.156
715.2320, 1945.735
715.7141, 1934.636
716.1962, 1928.895
716.6783, 1926.573
717.1605, 1921.921
717.6426, 1913.760
718.1247, 1905.571
718.6068, 1896.943
719.0889, 1888.759
719.5710, 1881.742
720.0532, 1875.320
720.5353, 1868.473
721.0174, 1860.869
721.4995, 1853.097
721.9816, 1845.595
722.4637, 1838.237
722.9459, 1830.690
723.4280, 1822.943
723.9101, 1815.325
724.3922, 1807.905
724.8743, 1800.736
725.3564, 1793.905
725.8386, 1787.253
726.3207, 1781.420
726.8028, 1777.071
727.2849, 1772.672
727.7670, 1768.152
728.2491, 1763.094
728.7313, 1756.695
729.2134, 1748.865
729.6955, 1741.312
730.1776, 1735.246
730.6597, 1730.161
731.1418, 1726.065
731.6240, 1722.508
732.1061, 1716.490
732.5882, 1706.713
733.0703, 1696.210
733.5524, 1688.671
734.0345, 1684.217
734.5167, 1679.923
734.9988, 1675.923
735.4809, 1671.918
735.9630, 1668.343
736.4451, 1664.425
736.9272, 1659.046
737.4094, 1652.570
737.8915, 1646.815
738.3736, 1643.265
738.8557, 1640.168
739.3378, 1635.067
739.8199, 1628.783
740.3021, 1624.135
740.7842, 1621.672
741.2663, 1618.934
741.7484, 1613.769
742.2305, 1606.812
742.7126, 1601.224
743.1948, 1597.502
743.6769, 1594.264
744.1590, 1592.117
744.6411, 1589.737
745.1232, 1586.295
745.6053, 1582.131
746.0875, 1578.085
746.5696, 1574.567
747.0517, 1570.636
747.5338, 1564.867
748.0159, 1558.553
748.4980, 1553.975
748.9802, 1551.175
749.4623, 1549.258
749.9444, 1547.854
750.4265, 1546.462
750.9086, 1544.120
751.3907, 1540.674
751.8729, 1537.014
752.3550, 1532.432
752.8371, 1528.551
753.3192, 1526.195
753.8013, 1524.565
754.2834, 1523.040
754.7656, 1521.495
755.2477, 1519.285
755.7298, 1515.456
756.2119, 1511.365
756.6940, 1508.150
757.1761, 1505.727
757.6583, 1504.136
758.1404, 1503.292
758.6225, 1502.137
759.1046, 1499.574
759.5867, 1495.797
760.0688, 1491.929
760.5510, 1487.888
761.0331, 1484.010
761.5152, 1479.389
761.9973, 1475.986
762.4794, 1476.555
762.9615, 1479.526
763.4437, 1479.673
763.9258, 1474.234
764.4079, 1468.870
764.8900, 1466.303
765.3721, 1465.258
765.8542, 1464.686
766.3364, 1464.239
766.8185, 1463.419
767.3006, 1461.922
767.7827, 1460.214
768.2648, 1459.192
768.7469, 1458.881
769.2291, 1458.341
769.7112, 1457.517
770.1933, 1456.466
770.6754, 1455.235
771.1575, 1453.760
771.6396, 1451.627
772.1218, 1448.506
772.6039, 1446.942
773.0860, 1448.940
773.5681, 1450.878
774.0502, 1450.573
774.5323, 1449.152
775.0145, 1448.426
775.4966, 1448.680
775.9787, 1448.687
776.4608, 1447.234
776.9429, 1445.028
777.4250, 1443.787
777.9072, 1443.501
778.3893, 1443.363
778.8714, 1443.367
779.3535, 1442.782
779.8356, 1440.552
780.3177, 1437.119
780.7999, 1435.537
781.2820, 1437.816
781.7641, 1438.984
782.2462, 1437.312
782.7283, 1435.836
783.2104, 1437.075
783.6926, 1439.843
784.1747, 1441.492
784.6568, 1441.059
785.1389, 1439.758
785.6210, 1438.053
786.1031, 1436.464
786.5853, 1436.459
787.0674, 1437.819
787.5495, 1438.319
788.0316, 1436.911
788.5137, 1434.966
788.9958, 1434.487
789.4780, 1435.597
789.9601, 1436.531
790.4422, 1437.678
790.9243, 1438.023
791.4064, 1437.127
791.8885, 1435.545
792.3707, 1433.165
792.8528, 1430.330
793.3349, 1428.638
793.8170, 1429.632
794.2991, 1430.540
794.7813, 1428.757
795.2634, 1426.304
795.7455, 1426.511
796.2276, 1429.176
796.7097, 1431.398
797.1918, 1431.438
797.6740, 1429.940
798.1561, 1427.778
798.6382, 1424.880
799.1203, 1423.365
799.6024, 1424.173
800.0845, 1423.798
800.5667, 1419.502
801.0488, 1413.657
801.5309, 1410.871
802.0130, 1411.602
802.4951, 1411.616
802.9772, 1410.297
803.4594, 1408.452
803.9415, 1405.942
804.4236, 1403.375
804.9057, 1401.377
805.3878, 1400.088
805.8699, 1399.491
806.3521, 1399.898
806.8342, 1400.551
807.3163, 1400.557
807.7985, 1399.848
808.2806, 1397.789
808.7627, 1394.257
809.2448, 1390.795
809.7269, 1388.637
810.2090, 1387.111
810.6912, 1383.944
811.1733, 1377.517
811.6554, 1373.314
812.1375, 1373.611
812.6196, 1373.537
813.1017, 1370.689
813.5839, 1366.686
814.0660, 1363.736
814.5481, 1362.154
815.0302, 1360.667
815.5123, 1358.948
815.9944, 1356.917
816.4766, 1354.169
816.9587, 1351.164
817.4408, 1348.782
817.9229, 1347.188
818.4050, 1346.028
818.8871, 1345.156
819.3693, 1344.232
819.8514, 1342.202
820.3335, 1339.026
820.8156, 1335.655
821.2977, 1331.996
821.7798, 1328.909
822.2620, 1327.179
822.7441, 1326.315
823.2262, 1324.952
823.7083, 1323.362
824.1904, 1320.604
824.6725, 1314.781
825.1547, 1309.828
825.6368, 1308.257
826.1189, 1308.274
826.6010, 1307.293
827.0831, 1304.912
827.5652, 1302.925
828.0474, 1303.539
828.5295, 1304.346
829.0116, 1302.125
829.4937, 1297.806
829.9758, 1293.553
830.4579, 1289.893
830.9401, 1286.799
831.4222, 1284.281
831.9043, 1282.187
832.3864, 1280.124
832.8685, 1278.196
833.3506, 1275.789
833.8328, 1272.689
834.3149, 1269.442
834.7970, 1266.432
835.2791, 1263.434
835.7612, 1259.824
836.2433, 1255.263
836.7255, 1252.046
837.2076, 1252.285
837.6897, 1252.005
838.1718, 1249.010
838.6539, 1244.575
839.1360, 1239.875
839.6182, 1235.381
840.1003, 1231.725
840.5824, 1229.490
841.0645, 1227.978
841.5466, 1226.579
842.0287, 1225.090
842.5109, 1222.899
842.9930, 1219.921
843.4751, 1216.094
843.9572, 1211.219
844.4393, 1206.206
844.9214, 1203.217
845.4036, 1202.716
845.8857, 1201.859
846.3678, 1200.752
846.8499, 1199.083
847.3320, 1196.788
847.8141, 1193.825
848.2963, 1189.724
848.7784, 1184.603
849.2605, 1180.443
849.7426, 1178.740
850.2247, 1176.683
850.7068, 1172.249
851.1890, 1167.595
851.6711, 1165.183
852.1532, 1164.636
852.6353, 1163.966
853.1174, 1162.205
853.5995, 1160.070
854.0817, 1158.462
854.5638, 1157.089
855.0459, 1155.139
855.5280, 1152.612
856.0101, 1149.994
856.4922, 1147.437
856.9744, 1145.186
857.4565, 1143.636
857.9386, 1142.744
858.4207, 1141.624
858.9028, 1140.258
859.3849, 1138.689
859.8671, 1136.884
860.3492, 1134.913
860.8313, 1132.845
861.3134, 1130.659
861.7955, 1128.136
862.2776, 1124.529
862.7598, 1122.319
863.2419, 1124.049
863.7240, 1125.537
864.2061, 1123.176
864.6882, 1118.876
865.1703, 1116.256
865.6525, 1116.118
866.1346, 1116.050
866.6167, 1113.998
867.0988, 1111.006
867.5809, 1108.329
868.0630, 1106.120
868.5452, 1105.286
869.0273, 1105.911
869.5094, 1106.368
869.9915, 1105.460
870.4736, 1103.589
870.9557, 1101.699
871.4379, 1099.698
871.9200, 1098.240
872.4021, 1097.829
872.8842, 1096.858
873.3663, 1094.375
873.8484, 1091.132
874.3306, 1087.939
874.8127, 1084.723
875.2948, 1082.751
875.7769, 1082.923
876.2590, 1083.298
876.7411, 1083.958
877.2233, 1084.092
877.7054, 1082.625
878.1875, 1080.039
878.6696, 1077.763
879.1517, 1076.392
879.6339, 1075.343
880.1160, 1074.134
880.5981, 1072.986
881.0802, 1072.422
881.5623, 1072.202
882.0444, 1071.427
882.5266, 1069.813
883.0087, 1067.867
883.4908, 1065.975
883.9729, 1064.300
884.4550, 1063.604
884.9371, 1063.929
885.4193, 1064.648
885.9014, 1065.884
886.3835, 1066.649
886.8656, 1066.248
887.3477, 1064.872
887.8298, 1062.887
888.3120, 1059.429
888.7941, 1057.711
889.2762, 1059.689
889.7583, 1061.016
890.2404, 1060.142
890.7225, 1058.182
891.2047, 1055.979
891.6868, 1053.728
892.1689, 1051.994
892.6510, 1051.232
893.1331, 1050.672
893.6152, 1049.446
894.0974, 1048.576
894.5795, 1050.197
895.0616, 1053.108
895.5437, 1053.557
896.0258, 1050.003
896.5079, 1045.489
896.9901, 1042.784
897.4722, 1041.712
897.9543, 1042.625
898.4364, 1045.040
898.9185, 1046.337
899.4006, 1045.775
899.8828, 1044.057
900.3649, 1041.537
900.8470, 1038.768
901.3291, 1038.004
901.8112, 1039.841
902.2933, 1040.735
902.7755, 1040.345
903.2576, 1039.144
903.7397, 1036.924
904.2218, 1034.375
904.7039, 1032.741
905.1860, 1032.239
905.6682, 1031.115
906.1503, 1028.027
906.6324, 1026.087
907.1145, 1026.776
907.5966, 1028.289
908.0787, 1029.423
908.5609, 1030.091
909.0430, 1030.471
909.5251, 1030.631
910.0072, 1030.460
910.4893, 1029.742
910.9714, 1028.774
911.4536, 1027.622
911.9357, 1026.509
912.4178, 1025.833
912.8999, 1025.684
913.3820, 1025.991
913.8641, 1027.021
914.3463, 1027.924
914.8284, 1026.557
915.3105, 1023.561
915.7926, 1022.096
916.2748, 1022.548
916.7569, 1022.770
917.2390, 1021.545
917.7211, 1019.730
918.2032, 1018.776
918.6854, 1018.738
919.1675, 1018.372
919.6496, 1017.580
920.1317, 1016.809
920.6138, 1016.322
921.0959, 1015.627
921.5781, 1013.875
922.0602, 1011.501
922.5423, 1010.750
923.0244, 1013.229
923.5065, 1014.257
923.9886, 1012.643
924.4708, 1010.688
924.9529, 1009.269
925.4350, 1008.166
925.9171, 1006.844
926.3992, 1005.350
926.8813, 1004.732
927.3635, 1006.263
927.8456, 1007.753
928.3277, 1007.967
928.8098, 1007.473
929.2919, 1006.994
929.7740, 1006.391
930.2562, 1004.718
930.7383, 1001.607
931.2204, 999.0204
931.7025, 999.7056
932.1846, 1001.793
932.6667, 1001.457
933.1489, 999.3758
933.6310, 998.4576
934.1131, 999.2663
934.5952, 999.8098
935.0773, 998.4698
935.5594, 996.4044
936.0416, 996.8821
936.5237, 999.9420
937.0058, 1000.182
937.4879, 996.7956
937.9700, 993.9250
938.4521, 993.3174
938.9343, 993.6667
939.4164, 993.5574
939.8985, 992.9925
940.3806, 991.9189
940.8627, 989.8337
941.3448, 988.2416
941.8270, 987.0106
942.3091, 986.6351
942.7912, 988.2993
943.2733, 990.5770
943.7554, 990.9801
944.2375, 989.1181
944.7197, 987.7094
945.2018, 987.5543
945.6839, 987.4728
946.1660, 987.3915
946.6481, 986.8927
947.1302, 984.9367
947.6124, 982.2648
948.0945, 981.1425
948.5766, 982.5901
949.0587, 984.2732
949.5408, 985.0035
950.0229, 985.0472
950.5051, 984.4117
950.9872, 983.3945
951.4693, 982.4012
951.9514, 981.5736
952.4335, 981.2253
952.9156, 981.9333
953.3978, 982.1797
953.8799, 978.4135
954.3620, 972.7358
954.8441, 971.5735
955.3262, 974.6934
955.8083, 976.7139
956.2905, 975.5005
956.7726, 973.6149
957.2547, 974.1199
957.7368, 976.2636
958.2189, 976.4723
958.7010, 974.6148
959.1832, 973.7141
959.6653, 974.4802
960.1474, 974.7115
960.6295, 972.8164
961.1116, 970.2389
961.5938, 969.8573
962.0759, 972.0778
962.5580, 972.3890
963.0401, 969.7102
963.5222, 967.3407
964.0043, 965.6410
964.4865, 964.8671
964.9686, 966.0438
965.4507, 968.2389
965.9328, 968.3191
966.4149, 964.8030
966.8970, 963.1859
967.3792, 966.1908
967.8613, 968.2649
968.3434, 966.4950
968.8255, 963.4949
969.3076, 961.8083
969.7897, 961.4172
970.2719, 961.0527
970.7540, 960.1545
971.2361, 959.7098
971.7182, 960.6143
972.2003, 961.6619
972.6824, 961.9061
973.1646, 961.6396
973.6467, 961.6378
974.1288, 961.9057
974.6109, 961.2951
975.0930, 958.4816
975.5751, 955.6234
976.0573, 955.0472
976.5394, 955.5113
977.0215, 955.2670
977.5036, 954.2972
977.9857, 953.2357
978.4678, 952.3019
978.9500, 951.1930
979.4321, 949.3281
979.9142, 947.3713
980.3963, 946.8928
980.8784, 947.4926
981.3605, 947.6367
981.8427, 947.1700
982.3248, 947.0836
982.8069, 947.9304
983.2890, 949.0772
983.7711, 949.7407
984.2532, 949.8808
984.7354, 949.0069
985.2175, 947.0797
985.6996, 945.5526
986.1817, 944.7236
986.6638, 944.4958
987.1459, 944.9934
987.6281, 945.6166
988.1102, 944.8826
988.5923, 942.5273
989.0744, 940.6937
989.5565, 939.3107
990.0386, 938.7297
990.5208, 939.4991
991.0029, 940.2919
991.4850, 939.7240
991.9671, 938.2933
992.4492, 937.9977
992.9313, 939.6899
993.4135, 940.4570
993.8956, 939.5045
994.3777, 938.6899
994.8598, 938.7672
995.3419, 939.1009
995.8240, 939.1111
996.3062, 938.8426
996.7883, 938.6046
997.2704, 938.2348
997.7525, 938.2281
998.2346, 939.6838
998.7167, 940.3491
999.1989, 938.1204
999.6810, 935.0760
1000.163, 933.8877
1000.645, 934.6051
1001.127, 935.3565
1001.609, 935.7754
1002.092, 935.8210
1002.574, 935.1629
1003.056, 934.4269
1003.538, 934.2263
1004.020, 934.2504
1004.502, 933.8051
1004.984, 932.8425
1005.466, 932.2266
1005.948, 932.9099
1006.431, 933.3878
1006.913, 931.8992
1007.395, 930.0792
1007.877, 930.2898
1008.359, 931.7661
1008.841, 932.2811
1009.323, 931.1832
1009.805, 929.4578
1010.288, 927.4484
1010.770, 925.7180
1011.252, 925.1392
1011.734, 925.2606
1012.216, 925.2912
1012.698, 925.1993
1013.180, 925.3588
1013.662, 925.9069
1014.144, 926.4112
1014.627, 926.5090
1015.109, 926.2003
1015.591, 925.3865
1016.073, 924.1715
1016.555, 922.6628
1017.037, 921.0118
1017.519, 919.9977
1018.001, 920.0183
1018.484, 920.6874
1018.966, 921.9196
1019.448, 923.1992
1019.930, 921.8369
1020.412, 918.3251
1020.894, 917.8593
1021.376, 921.2663
1021.858, 923.5320
1022.340, 921.6240
1022.823, 918.1092
1023.305, 917.1147
1023.787, 918.3486
1024.269, 918.8220
1024.751, 918.4846
1025.233, 918.6661
1025.715, 919.7838
1026.197, 920.2312
1026.680, 918.7785
1027.162, 916.6924
1027.644, 916.5177
1028.126, 918.3201
1028.608, 919.2020
1029.090, 919.0869
1029.572, 918.3232
1030.054, 916.7549
1030.536, 915.2365
1031.019, 914.3991
1031.501, 913.9033
1031.983, 912.8672
1032.465, 911.0464
1032.947, 910.8204
1033.429, 913.2231
1033.911, 914.4026
1034.393, 912.8528
1034.875, 911.0843
1035.358, 910.9509
1035.840, 911.8127
1036.322, 912.1463
1036.804, 911.8096
1037.286, 911.6129
1037.768, 911.5677
1038.250, 911.6776
1038.732, 912.6425
1039.215, 912.8895
1039.697, 910.4470
1040.179, 906.6956
1040.661, 905.3442
1041.143, 907.3360
1041.625, 908.2175
1042.107, 907.2900
1042.589, 906.2166
1043.072, 904.6586
1043.554, 903.6903
1044.036, 904.6530
1044.518, 906.6677
1045.000, 907.6210
1045.482, 907.2842
1045.964, 906.5412
1046.446, 904.2467
1046.928, 903.1830
1047.411, 905.8521
1047.893, 908.3249
1048.375, 906.9786
1048.857, 903.3573
1049.339, 901.2922
1049.821, 901.3427
1050.303, 901.8802
1050.785, 903.5808
1051.267, 904.5074
1051.750, 903.4164
1052.232, 901.8809
1052.714, 901.0977
1053.196, 900.8527
1053.678, 900.5570
1054.160, 900.1517
1054.642, 899.4874
1055.124, 898.0446
1055.607, 896.9639
1056.089, 896.9661
1056.571, 897.2325
1057.053, 897.1862
1057.535, 896.8500
1058.017, 896.3926
1058.499, 895.8511
1058.981, 895.1423
1059.464, 893.9636
1059.946, 892.9883
1060.428, 892.3994
1060.910, 892.2114
1061.392, 892.8173
1061.874, 893.7005
1062.356, 893.8351
1062.838, 893.0022
1063.320, 891.9518
1063.802, 891.1276
1064.285, 889.9130
1064.767, 887.1636
1065.249, 884.7001
1065.731, 884.3405
1066.213, 885.3746
1066.695, 886.2366
1067.177, 886.6173
1067.659, 887.2274
1068.142, 889.3291
1068.624, 890.4480
1069.106, 888.4188
1069.588, 885.8659
1070.070, 884.8948
1070.552, 885.0760
1071.034, 885.6272
1071.516, 886.2852
1071.999, 885.9698
1072.481, 882.6344
1072.963, 880.3284
1073.445, 882.1865
1073.927, 884.6213
1074.409, 884.7043
1074.891, 883.2444
1075.373, 881.6426
1075.855, 880.2539
1076.338, 879.4117
1076.820, 879.5312
1077.302, 879.7509
1077.784, 879.4088
1078.266, 879.2564
1078.748, 880.1667
1079.230, 881.5186
1079.712, 882.5202
1080.194, 882.9736
1080.677, 882.6084
1081.159, 880.6645
1081.641, 879.3170
1082.123, 880.6346
1082.605, 881.8392
1083.087, 880.5487
1083.569, 878.1068
1084.052, 876.2096
1084.534, 875.0920
1085.016, 874.4515
1085.498, 874.2642
1085.980, 874.2971
1086.462, 874.8315
1086.944, 875.1227
1087.426, 874.4379
1087.908, 873.4101
1088.391, 872.5652
1088.873, 872.1144
1089.355, 872.7337
1089.837, 875.2416
1090.319, 876.0720
1090.801, 871.6888
1091.283, 867.7649
1091.765, 868.0926
1092.247, 869.9623
1092.730, 870.9619
1093.212, 870.9169
1093.694, 870.0777
1094.176, 868.3572
1094.658, 867.0236
1095.140, 867.2307
1095.622, 867.0145
1096.104, 864.0281
1096.587, 861.5313
1097.069, 863.6394
1097.551, 868.0088
1098.033, 869.3430
1098.515, 866.6213
1098.997, 863.9632
1099.479, 862.0526
1099.961, 861.0782
1100.443, 861.3656
1100.926, 862.3426
1101.408, 864.9799
1101.890, 867.3666
1102.372, 865.6576
1102.854, 859.7803
1103.336, 856.1993
1103.818, 858.1367
1104.300, 859.8668
1104.782, 860.1800
1105.265, 859.9439
1105.747, 858.8945
1106.229, 858.0392
1106.711, 858.9845
1107.193, 861.4612
1107.675, 863.0167
1108.157, 863.4396
1108.639, 862.7386
1109.122, 859.1486
1109.604, 856.6188
1110.086, 857.9745
1110.568, 860.0366
1111.050, 859.5324
1111.532, 857.0883
1112.014, 855.3880
1112.496, 854.6667
1112.979, 854.3816
1113.461, 854.8244
1113.943, 855.2932
1114.425, 855.7767
1114.907, 856.0841
1115.389, 855.9732
1115.871, 855.6317
1116.353, 855.6556
1116.835, 856.3563
1117.318, 855.5230
1117.800, 851.8325
1118.282, 849.0342
1118.764, 847.5912
1119.246, 847.3395
1119.728, 848.8488
1120.210, 850.8828
1120.692, 851.5565
1121.174, 850.8939
1121.657, 849.8562
1122.139, 847.8047
1122.621, 847.3140
1123.103, 849.5109
1123.585, 850.9137
1124.067, 849.5195
1124.549, 847.7889
1125.031, 848.6672
1125.514, 851.4272
1125.996, 852.6302
1126.478, 852.0190
1126.960, 851.0579
1127.442, 849.5980
1127.924, 848.5947
1128.406, 848.3392
1128.888, 848.6328
1129.370, 849.4329
1129.853, 850.4109
1130.335, 850.8065
1130.817, 850.6227
1131.299, 850.1708
1131.781, 849.4356
1132.263, 848.8289
1132.745, 848.4481
1133.227, 847.9620
1133.709, 847.1406
1134.192, 846.4763
1134.674, 846.8251
1135.156, 847.8482
1135.638, 848.1486
1136.120, 847.7816
1136.602, 847.0255
1137.084, 845.9666
1137.566, 845.0120
1138.049, 844.3295
1138.531, 844.1061
1139.013, 844.5917
1139.495, 845.4617
1139.977, 846.3970
1140.459, 847.1071
1140.941, 846.6697
1141.423, 845.2239
1141.906, 842.9156
1142.388, 840.1755
1142.870, 839.4379
1143.352, 842.4881
1143.834, 846.2810
1144.316, 847.5880
1144.798, 847.0748
1145.280, 844.7496
1145.762, 841.8291
1146.245, 840.9015
1146.727, 841.7521
1147.209, 842.1462
1147.691, 841.2264
1148.173, 840.5200
1148.655, 841.9627
1149.137, 843.2548
1149.619, 841.8549
1150.101, 839.6242
1150.584, 838.4530
1151.066, 838.2931
1151.548, 838.8077
1152.030, 839.7922
1152.512, 840.5392
1152.994, 840.7118
1153.476, 840.6300
1153.958, 840.3609
1154.441, 839.9761
1154.923, 839.0350
1155.405, 838.3459
1155.887, 839.5114
1156.369, 841.8172
1156.851, 842.2325
1157.333, 839.4825
1157.815, 837.6309
1158.297, 838.5791
1158.780, 839.1619
1159.262, 837.6661
1159.744, 836.1782
1160.226, 836.4766
1160.708, 837.7239
1161.190, 838.2314
1161.672, 837.9018
1162.154, 838.0197
1162.636, 839.6237
1163.119, 839.6270
1163.601, 836.5937
1164.083, 834.0687
1164.565, 833.5880
1165.047, 834.1036
1165.529, 834.7010
1166.011, 835.2800
1166.493, 835.3629
1166.976, 834.7495
1167.458, 834.6494
1167.940, 835.1129
1168.422, 835.8919
1168.904, 836.9835
1169.386, 838.2011
1169.868, 839.5607
1170.350, 840.3362
1170.833, 838.8939
1171.315, 835.9003
1171.797, 835.6797
1172.279, 837.9282
1172.761, 839.2345
1173.243, 839.2209
1173.725, 838.5422
1174.207, 837.4733
1174.689, 836.4597
1175.172, 835.8936
1175.654, 835.6496
1176.136, 835.5745
1176.618, 835.6272
1177.100, 835.9443
1177.582, 836.2631
1178.064, 835.5065
1178.546, 833.8557
1179.028, 833.3300
1179.511, 835.0043
1179.993, 836.4651
1180.475, 835.2678
1180.957, 833.2619
1181.439, 832.2667
1181.921, 831.5538
1182.403, 829.8226
1182.885, 827.6916
1183.368, 826.5403
1183.850, 826.6895
1184.332, 827.9062
1184.814, 831.5517
1185.296, 833.5645
1185.778, 830.3259
1186.260, 827.2048
1186.742, 828.1095
1187.224, 830.3084
1187.707, 830.6240
1188.189, 829.4808
1188.671, 829.3115
1189.153, 831.0300
1189.635, 831.0524
1190.117, 826.8630
1190.599, 824.4926
1191.081, 826.0907
1191.564, 827.9273
1192.046, 827.9745
1192.528, 827.2471
1193.010, 827.2620
1193.492, 827.8038
1193.974, 826.8614
1194.456, 824.0246
1194.938, 821.7424
1195.421, 819.9924
1195.903, 819.7621
1196.385, 821.4901
1196.867, 823.9169
1197.349, 826.2888
1197.831, 827.9915
1198.313, 827.6376
1198.795, 825.6710
1199.277, 824.0283
1199.760, 822.7516
1200.242, 822.2939
1200.724, 822.5803
1201.206, 822.8850
1201.688, 822.9280
1202.170, 822.8308
1202.652, 822.4757
1203.134, 822.6054
1203.616, 825.3226
1204.099, 828.2198
1204.581, 826.9697
1205.063, 823.6628
1205.545, 822.5801
1206.027, 823.7618
1206.509, 824.4872
1206.991, 823.7469
1207.473, 823.0026
1207.956, 823.3132
1208.438, 823.4486
1208.920, 822.5052
1209.402, 821.4028
1209.884, 820.5770
1210.366, 820.2508
1210.848, 821.1349
1211.330, 823.0124
1211.813, 823.5687
1212.295, 822.0233
1212.777, 820.2010
1213.259, 817.1603
1213.741, 815.5068
1214.223, 816.4415
1214.705, 818.1467
1215.187, 819.7844
1215.669, 820.8721
1216.151, 820.4050
1216.634, 818.4782
1217.116, 816.3222
1217.598, 813.7543
1218.080, 813.9769
1218.562, 817.5135
1219.044, 819.2756
1219.526, 817.4582
1220.008, 814.4469
1220.491, 811.9977
1220.973, 810.4092
1221.455, 810.5292
1221.937, 811.7747
1222.419, 812.8700
1222.901, 813.7536
1223.383, 814.4288
1223.865, 814.7979
1224.348, 814.4539
1224.830, 813.3039
1225.312, 812.0099
1225.794, 810.7895
1226.276, 810.0009
1226.758, 809.9382
1227.240, 810.3913
1227.722, 811.9590
1228.204, 813.3787
1228.687, 812.4013
1229.169, 809.8319
1229.651, 808.9642
1230.133, 810.8007
1230.615, 811.9803
1231.097, 811.4305
1231.579, 810.8934
1232.061, 810.6091
1232.543, 810.5787
1233.026, 811.3587
1233.508, 811.6998
1233.990, 809.7281
1234.472, 806.3397
1234.954, 805.4952
1235.436, 807.6767
1235.918, 809.1650
1236.400, 809.9526
1236.883, 810.0186
1237.365, 809.3224
1237.847, 808.6923
1238.329, 808.5717
1238.811, 808.5774
1239.293, 808.2574
1239.775, 807.7824
1240.257, 807.7161
1240.740, 807.6791
1241.222, 806.3741
1241.704, 804.4093
1242.186, 803.8167
1242.668, 804.5784
1243.150, 804.5163
1243.632, 802.5635
1244.114, 801.3820
1244.596, 803.7087
1245.078, 806.1444
1245.561, 806.9208
1246.043, 806.4958
1246.525, 804.0222
1247.007, 801.3779
1247.489, 801.8610
1247.971, 805.0488
1248.453, 806.3801
1248.935, 804.3861
1249.418, 803.0156
1249.900, 802.2996
1250.382, 802.3526
1250.864, 804.0419
1251.346, 804.4383
1251.828, 801.1038
1252.310, 797.6462
1252.792, 799.4464
1253.275, 804.5545
1253.757, 803.9263
1254.239, 798.2714
1254.721, 797.0069
1255.203, 799.9763
1255.685, 802.2332
1256.167, 802.6578
1256.649, 802.1046
1257.131, 801.0101
1257.614, 800.2108
1258.096, 800.7703
1258.578, 801.7502
1259.060, 802.5023
1259.542, 802.6564
1260.024, 801.1290
1260.506, 798.9827
1260.988, 798.0732
1261.470, 798.4219
1261.953, 798.8016
1262.435, 798.8226
1262.917, 799.2036
1263.399, 800.6607
1263.881, 801.7288
1264.363, 801.2246
1264.845, 801.2283
1265.327, 803.1367
1265.810, 805.7599
1266.292, 808.3783
1266.774, 810.2612
1267.256, 807.6639
1267.738, 799.7789
1268.220, 796.3819
1268.702, 797.6277
1269.184, 798.7473
1269.667, 798.8735
1270.149, 798.8309
1270.631, 798.9972
1271.113, 799.0375
1271.595, 798.6432
1272.077, 797.9160
1272.559, 796.6082
1273.041, 795.3832
1273.523, 795.6932
1274.005, 796.5820
1274.488, 795.8754
1274.970, 794.1221
1275.452, 794.1668
1275.934, 796.7740
1276.416, 797.8386
1276.898, 793.8987
1277.380, 791.1572
1277.862, 792.2403
1278.345, 793.7006
1278.827, 793.7333
1279.309, 793.6908
1279.791, 795.0293
1280.273, 796.8102
1280.755, 796.7381
1281.237, 794.8478
1281.719, 794.3469
1282.202, 795.3279
1282.684, 796.0271
1283.166, 796.2910
1283.648, 797.1564
1284.130, 798.8712
1284.612, 799.3546
1285.094, 797.0234
1285.576, 794.1496
1286.058, 793.8621
1286.541, 794.4462
1287.023, 794.1768
##END=



