##NAMES=Rutile
##RRUFFID=R040049
##IDEAL CHEMISTRY=Ti^4+^O_2_
##LOCALITY=Graves Mountain, Lincoln County, Georgia, USA
##OWNER=RRUFF
##SOURCE=University of Arizona Mineral Museum
##DESCRIPTION=Reddish-black fragments
##STATUS=The identification of this mineral has been confirmed by X-ray diffraction and chemical analysis
##URL=rruff.info/R040049
##MEASURED CHEMISTRY=(Ti_1.00_Fe_0.01_)O_2_
119.0413, 18450.08
119.5234, 18520.79
120.0055, 18562.71
120.4877, 18581.97
120.9698, 18591.13
121.4519, 18582.01
121.9340, 18565.42
122.4161, 18570.38
122.8982, 18614.56
123.3804, 18657.72
123.8625, 18669.62
124.3446, 18654.80
124.8267, 18635.41
125.3088, 18627.05
125.7909, 18630.34
126.2731, 18636.95
126.7552, 18640.00
127.2373, 18650.90
127.7194, 18677.63
128.2015, 18721.11
128.6837, 18774.02
129.1658, 18827.67
129.6479, 18887.81
130.1300, 18935.93
130.6121, 18970.94
131.0942, 18995.45
131.5764, 19008.09
132.0585, 19008.17
132.5406, 19001.76
133.0227, 19010.37
133.5048, 19039.20
133.9869, 19078.90
134.4691, 19141.98
134.9512, 19214.66
135.4333, 19271.86
135.9154, 19294.79
136.3975, 19286.67
136.8796, 19306.31
137.3618, 19381.24
137.8439, 19453.41
138.3260, 19472.59
138.8081, 19448.47
139.2902, 19453.67
139.7723, 19552.54
140.2545, 19750.55
140.7366, 19969.00
141.2187, 20261.28
141.7008, 20546.36
142.1829, 20748.52
142.6650, 20861.63
143.1471, 20873.32
143.6293, 20730.48
144.1114, 20462.87
144.5935, 20167.20
145.0756, 19873.01
145.5577, 19580.18
146.0398, 19279.85
146.5220, 18940.79
147.0041, 18633.76
147.4862, 18414.38
147.9683, 18279.79
148.4504, 18173.53
148.9325, 18046.91
149.4147, 17894.85
149.8968, 17767.36
150.3789, 17691.61
150.8610, 17633.39
151.3431, 17578.48
151.8252, 17523.32
152.3074, 17468.45
152.7895, 17414.36
153.2716, 17358.31
153.7537, 17309.38
154.2358, 17267.69
154.7179, 17231.97
155.2001, 17204.42
155.6822, 17185.94
156.1643, 17170.19
156.6464, 17137.32
157.1285, 17062.23
157.6106, 16997.04
158.0928, 16942.16
158.5749, 16901.04
159.0570, 16880.19
159.5391, 16884.91
160.0212, 16912.25
160.5033, 16929.22
160.9855, 16923.04
161.4676, 16921.07
161.9497, 16941.63
162.4318, 16975.77
162.9139, 16995.68
163.3960, 16975.58
163.8782, 16914.06
164.3603, 16885.35
164.8424, 16910.99
165.3245, 16948.79
165.8066, 16973.19
166.2887, 16982.17
166.7709, 16984.46
167.2530, 16982.91
167.7351, 16978.40
168.2172, 16992.25
168.6993, 17041.25
169.1814, 17104.25
169.6636, 17155.26
170.1457, 17189.32
170.6278, 17216.71
171.1099, 17250.56
171.5920, 17289.24
172.0741, 17319.01
172.5563, 17316.71
173.0384, 17299.78
173.5205, 17321.45
174.0026, 17405.84
174.4847, 17511.35
174.9668, 17602.18
175.4490, 17679.22
175.9311, 17750.30
176.4132, 17820.51
176.8953, 17890.21
177.3774, 17956.85
177.8595, 18019.37
178.3417, 18079.18
178.8238, 18131.03
179.3059, 18175.57
179.7880, 18228.86
180.2701, 18314.87
180.7522, 18445.51
181.2344, 18560.14
181.7165, 18645.34
182.1986, 18715.07
182.6807, 18767.29
183.1628, 18802.93
183.6449, 18842.57
184.1271, 18926.68
184.6092, 19091.66
185.0913, 19228.71
185.5734, 19311.56
186.0555, 19374.14
186.5376, 19443.87
187.0198, 19532.11
187.5019, 19632.58
187.9840, 19731.20
188.4661, 19831.54
188.9482, 19924.12
189.4303, 19993.54
189.9125, 20059.88
190.3946, 20152.04
190.8767, 20287.62
191.3588, 20450.59
191.8409, 20568.46
192.3230, 20590.51
192.8052, 20623.40
193.2873, 20686.52
193.7694, 20772.63
194.2515, 20866.15
194.7336, 20957.41
195.2157, 21048.21
195.6979, 21163.27
196.1800, 21335.58
196.6621, 21492.60
197.1442, 21610.69
197.6263, 21691.95
198.1084, 21740.46
198.5906, 21747.00
199.0727, 21720.40
199.5548, 21757.93
200.0369, 21901.95
200.5190, 22066.26
201.0011, 22205.44
201.4833, 22319.03
201.9654, 22425.59
202.4475, 22540.90
202.9296, 22662.01
203.4117, 22769.23
203.8938, 22857.33
204.3760, 22934.56
204.8581, 23004.09
205.3402, 23066.03
205.8223, 23129.63
206.3044, 23200.04
206.7865, 23278.10
207.2687, 23367.32
207.7508, 23482.77
208.2329, 23604.00
208.7150, 23699.04
209.1971, 23759.62
209.6792, 23818.40
210.1614, 23901.04
210.6435, 24001.01
211.1256, 24107.02
211.6077, 24221.59
212.0898, 24338.57
212.5719, 24444.31
213.0541, 24536.16
213.5362, 24620.09
214.0183, 24699.44
214.5004, 24774.59
214.9825, 24846.35
215.4646, 24911.97
215.9468, 24973.57
216.4289, 25038.13
216.9110, 25104.57
217.3931, 25177.20
217.8752, 25267.01
218.3573, 25366.45
218.8395, 25453.08
219.3216, 25498.22
219.8037, 25507.16
220.2858, 25550.64
220.7679, 25667.70
221.2500, 25779.71
221.7322, 25844.90
222.2143, 25872.61
222.6964, 25896.37
223.1785, 25942.25
223.6606, 26011.04
224.1427, 26084.42
224.6249, 26169.03
225.1070, 26252.45
225.5891, 26338.30
226.0712, 26420.95
226.5533, 26485.03
227.0354, 26506.37
227.5176, 26473.92
227.9997, 26474.53
228.4818, 26544.97
228.9639, 26618.08
229.4460, 26672.59
229.9281, 26705.21
230.4103, 26720.27
230.8924, 26720.78
231.3745, 26705.09
231.8566, 26681.04
232.3387, 26609.60
232.8208, 26562.48
233.3030, 26595.77
233.7851, 26697.65
234.2672, 26802.31
234.7493, 26833.57
235.2314, 26764.45
235.7135, 26719.00
236.1957, 26704.68
236.6778, 26703.50
237.1599, 26721.27
237.6420, 26749.82
238.1241, 26760.81
238.6062, 26715.43
239.0884, 26581.37
239.5705, 26498.93
240.0526, 26516.71
240.5347, 26538.81
241.0168, 26499.60
241.4989, 26397.49
241.9811, 26283.30
242.4632, 26217.29
242.9453, 26222.94
243.4274, 26205.41
243.9095, 26155.86
244.3916, 26093.58
244.8738, 26025.13
245.3559, 25953.93
245.8380, 25886.09
246.3201, 25830.51
246.8022, 25796.47
247.2843, 25742.78
247.7665, 25664.51
248.2486, 25572.03
248.7307, 25468.17
249.2128, 25355.13
249.6949, 25240.28
250.1770, 25130.04
250.6592, 25021.02
251.1413, 24935.94
251.6234, 24904.71
252.1055, 24875.97
252.5876, 24801.78
253.0697, 24679.91
253.5519, 24554.01
254.0340, 24477.96
254.5161, 24474.04
254.9982, 24427.42
255.4803, 24301.07
255.9624, 24157.85
256.4445, 24047.78
256.9267, 23977.07
257.4088, 23916.96
257.8909, 23834.82
258.3730, 23721.93
258.8551, 23639.96
259.3372, 23621.95
259.8194, 23613.84
260.3015, 23572.15
260.7836, 23492.06
261.2657, 23393.80
261.7478, 23291.94
262.2299, 23185.01
262.7121, 23097.68
263.1942, 23043.78
263.6763, 23001.20
264.1584, 22954.66
264.6405, 22902.25
265.1227, 22845.20
265.6048, 22783.66
266.0869, 22716.95
266.5690, 22653.76
267.0511, 22608.07
267.5332, 22556.46
268.0154, 22469.76
268.4975, 22348.18
268.9796, 22232.89
269.4617, 22160.58
269.9438, 22131.79
270.4259, 22097.20
270.9081, 22057.55
271.3902, 22010.28
271.8723, 21948.51
272.3544, 21872.66
272.8365, 21799.18
273.3186, 21738.89
273.8008, 21692.76
274.2829, 21654.12
274.7650, 21650.92
275.2471, 21634.56
275.7292, 21551.13
276.2113, 21406.14
276.6935, 21274.27
277.1756, 21215.76
277.6577, 21217.97
278.1398, 21183.74
278.6219, 21074.97
279.1040, 20960.25
279.5862, 20897.72
280.0683, 20880.38
280.5504, 20845.80
281.0325, 20743.21
281.5146, 20595.11
281.9967, 20497.47
282.4789, 20501.46
282.9610, 20507.54
283.4431, 20445.44
283.9252, 20325.64
284.4073, 20208.36
284.8894, 20122.40
285.3716, 20063.48
285.8537, 20010.63
286.3358, 19966.08
286.8179, 19924.52
287.3000, 19892.43
287.7821, 19863.95
288.2643, 19812.99
288.7464, 19718.47
289.2285, 19600.63
289.7106, 19510.61
290.1927, 19457.31
290.6748, 19412.66
291.1570, 19366.03
291.6391, 19318.01
292.1212, 19269.69
292.6033, 19219.52
293.0854, 19172.27
293.5675, 19139.70
294.0497, 19128.94
294.5318, 19111.20
295.0139, 19065.64
295.4960, 19004.74
295.9781, 18960.07
296.4602, 18946.54
296.9424, 18943.30
297.4245, 18911.41
297.9066, 18846.29
298.3887, 18784.12
298.8708, 18735.17
299.3529, 18696.64
299.8351, 18664.17
300.3172, 18636.80
300.7993, 18614.21
301.2814, 18596.31
301.7635, 18582.56
302.2456, 18573.26
302.7278, 18564.35
303.2099, 18561.39
303.6920, 18576.72
304.1741, 18614.49
304.6562, 18654.71
305.1383, 18678.01
305.6205, 18684.68
306.1026, 18670.61
306.5847, 18604.80
307.0668, 18534.25
307.5489, 18510.24
308.0310, 18539.18
308.5132, 18591.13
308.9953, 18649.16
309.4774, 18712.34
309.9595, 18738.85
310.4416, 18687.25
310.9237, 18626.54
311.4059, 18611.99
311.8880, 18644.66
312.3701, 18693.45
312.8522, 18738.64
313.3343, 18779.68
313.8164, 18818.43
314.2986, 18867.24
314.7807, 18902.86
315.2628, 18903.66
315.7449, 18876.34
316.2270, 18848.26
316.7091, 18833.93
317.1913, 18833.77
317.6734, 18847.51
318.1555, 18892.55
318.6376, 18930.73
319.1197, 18938.03
319.6018, 18927.25
320.0840, 18930.04
320.5661, 18963.41
321.0482, 19017.43
321.5303, 19059.27
322.0124, 19097.46
322.4945, 19115.40
322.9767, 19082.22
323.4588, 19033.11
323.9409, 19029.52
324.4230, 19097.64
324.9051, 19195.84
325.3872, 19239.30
325.8694, 19185.46
326.3515, 19151.52
326.8336, 19163.06
327.3157, 19190.09
327.7978, 19196.57
328.2799, 19174.41
328.7621, 19151.54
329.2442, 19171.07
329.7263, 19271.01
330.2084, 19313.84
330.6905, 19248.89
331.1726, 19165.93
331.6548, 19133.56
332.1369, 19156.38
332.6190, 19189.12
333.1011, 19181.77
333.5832, 19119.69
334.0653, 19102.88
334.5475, 19156.82
335.0296, 19223.28
335.5117, 19282.12
335.9938, 19329.56
336.4759, 19365.34
336.9580, 19387.97
337.4402, 19397.71
337.9223, 19410.79
338.4044, 19437.04
338.8865, 19455.91
339.3686, 19454.40
339.8507, 19442.82
340.3329, 19440.11
340.8150, 19457.95
341.2971, 19490.21
341.7792, 19510.19
342.2613, 19501.93
342.7434, 19501.15
343.2256, 19508.96
343.7077, 19527.07
344.1898, 19561.89
344.6719, 19615.55
345.1540, 19674.70
345.6361, 19712.10
346.1183, 19717.13
346.6004, 19719.29
347.0825, 19710.03
347.5646, 19706.22
348.0467, 19722.50
348.5288, 19760.62
349.0110, 19808.65
349.4931, 19856.18
349.9752, 19909.42
350.4573, 19937.55
350.9394, 19900.36
351.4215, 19870.88
351.9037, 19891.38
352.3858, 19954.56
352.8679, 20020.74
353.3500, 20053.70
353.8321, 20054.62
354.3142, 20064.47
354.7964, 20080.59
355.2785, 20110.60
355.7606, 20175.54
356.2427, 20254.53
356.7248, 20304.96
357.2069, 20290.26
357.6891, 20238.21
358.1712, 20233.55
358.6533, 20301.65
359.1354, 20360.03
359.6175, 20367.84
360.0996, 20351.50
360.5818, 20338.66
361.0639, 20337.46
361.5460, 20344.18
362.0281, 20355.72
362.5102, 20372.79
362.9923, 20388.57
363.4745, 20402.23
363.9566, 20412.43
364.4387, 20418.04
364.9208, 20418.97
365.4029, 20415.40
365.8850, 20403.09
366.3672, 20384.75
366.8493, 20373.53
367.3314, 20369.17
367.8135, 20378.44
368.2956, 20411.56
368.7777, 20466.58
369.2599, 20523.06
369.7420, 20580.06
370.2241, 20630.96
370.7062, 20663.66
371.1883, 20676.13
371.6704, 20673.91
372.1526, 20647.70
372.6347, 20605.77
373.1168, 20596.38
373.5989, 20653.32
374.0810, 20724.30
374.5631, 20767.27
375.0453, 20783.41
375.5274, 20791.71
376.0095, 20798.98
376.4916, 20808.93
376.9737, 20835.90
377.4558, 20895.42
377.9380, 20952.11
378.4201, 20992.72
378.9022, 21021.68
379.3843, 21045.72
379.8664, 21066.89
380.3485, 21087.46
380.8307, 21111.59
381.3128, 21139.11
381.7949, 21170.97
382.2770, 21203.88
382.7591, 21243.19
383.2412, 21294.05
383.7234, 21357.34
384.2055, 21430.39
384.6876, 21511.34
385.1697, 21605.01
385.6518, 21686.10
386.1339, 21754.55
386.6161, 21813.14
387.0982, 21857.03
387.5803, 21891.67
388.0624, 21928.28
388.5445, 21974.42
389.0266, 22030.41
389.5088, 22098.59
389.9909, 22197.87
390.4730, 22287.87
390.9551, 22352.49
391.4372, 22406.81
391.9193, 22467.91
392.4015, 22542.93
392.8836, 22631.37
393.3657, 22736.63
393.8478, 22869.50
394.3299, 22990.16
394.8120, 23083.29
395.2942, 23170.04
395.7763, 23261.45
396.2584, 23360.46
396.7405, 23467.87
397.2226, 23588.58
397.7047, 23722.26
398.1869, 23851.55
398.6690, 23971.16
399.1511, 24091.58
399.6332, 24210.54
400.1153, 24333.27
400.5974, 24475.37
401.0796, 24655.70
401.5617, 24858.09
402.0438, 25044.49
402.5259, 25209.53
403.0080, 25380.66
403.4901, 25581.96
403.9723, 25796.83
404.4544, 25997.93
404.9365, 26175.91
405.4186, 26347.69
405.9007, 26523.20
406.3828, 26702.61
406.8650, 26883.38
407.3471, 27053.01
407.8292, 27238.48
408.3113, 27498.15
408.7934, 27845.64
409.2755, 28174.97
409.7577, 28435.74
410.2398, 28664.17
410.7219, 28909.08
411.2040, 29178.77
411.6861, 29447.31
412.1682, 29679.08
412.6504, 29864.28
413.1325, 30119.15
413.6146, 30492.85
414.0967, 30888.55
414.5788, 31260.08
415.0609, 31609.11
415.5431, 31954.06
416.0252, 32306.38
416.5073, 32663.93
416.9894, 33022.25
417.4715, 33344.39
417.9536, 33717.13
418.4358, 34195.63
418.9179, 34707.43
419.4000, 35179.16
419.8821, 35588.27
420.3642, 35962.38
420.8463, 36339.35
421.3285, 36710.88
421.8106, 37105.35
422.2927, 37532.11
422.7748, 37970.46
423.2569, 38408.76
423.7390, 38848.71
424.2212, 39301.97
424.7033, 39777.66
425.1854, 40272.18
425.6675, 40782.07
426.1496, 41316.91
426.6317, 41844.54
427.1139, 42336.83
427.5960, 42820.09
428.0781, 43336.63
428.5602, 43904.18
429.0423, 44486.52
429.5244, 45030.96
430.0066, 45536.33
430.4887, 46060.51
430.9708, 46630.98
431.4529, 47218.19
431.9350, 47790.66
432.4171, 48350.22
432.8993, 48885.36
433.3814, 49384.74
433.8635, 49857.02
434.3456, 50325.02
434.8277, 50791.88
435.3098, 51239.72
435.7920, 51633.08
436.2741, 51984.23
436.7562, 52415.20
437.2383, 53038.04
437.7204, 53641.54
438.2025, 54083.41
438.6847, 54402.59
439.1668, 54725.76
439.6489, 55117.91
440.1310, 55544.85
440.6131, 55913.13
441.0952, 56211.88
441.5774, 56467.85
442.0595, 56669.84
442.5416, 56838.32
443.0237, 57000.87
443.5058, 57157.50
443.9879, 57272.70
444.4701, 57302.23
444.9522, 57235.11
445.4343, 57159.34
445.9164, 57093.82
446.3985, 57000.04
446.8806, 56868.73
447.3628, 56699.58
447.8449, 56498.77
448.3270, 56272.79
448.8091, 56006.66
449.2912, 55649.85
449.7733, 55173.90
450.2555, 54688.36
450.7375, 54253.11
451.2197, 53799.49
451.7018, 53262.46
452.1839, 52635.57
452.6660, 51976.27
453.1481, 51339.12
453.6302, 50710.57
454.1124, 50031.71
454.5945, 49277.86
455.0766, 48500.03
455.5587, 47735.61
456.0408, 46979.95
456.5229, 46233.48
457.0051, 45517.81
457.4872, 44787.05
457.9693, 43983.38
458.4514, 43116.50
458.9335, 42260.36
459.4156, 41451.10
459.8978, 40674.03
460.3799, 39893.96
460.8620, 39102.65
461.3441, 38325.81
461.8262, 37565.54
462.3083, 36821.95
462.7905, 36101.35
463.2726, 35402.47
463.7547, 34721.01
464.2368, 34046.78
464.7189, 33378.04
465.2010, 32740.57
465.6832, 32157.86
466.1653, 31584.29
466.6474, 30999.12
467.1295, 30416.83
467.6116, 29850.97
468.0938, 29313.22
468.5759, 28801.47
469.0580, 28325.09
469.5401, 27903.59
470.0222, 27457.90
470.5043, 26936.76
470.9865, 26416.85
471.4686, 25939.79
471.9507, 25512.09
472.4328, 25118.53
472.9149, 24766.87
473.3970, 24443.96
473.8792, 24096.66
474.3613, 23711.35
474.8434, 23336.21
475.3255, 23000.20
475.8076, 22696.85
476.2897, 22412.34
476.7719, 22154.02
477.2540, 21902.39
477.7361, 21645.70
478.2182, 21385.12
478.7003, 21119.82
479.1824, 20847.61
479.6646, 20582.10
480.1467, 20349.44
480.6288, 20160.36
481.1109, 19968.60
481.5930, 19766.44
482.0751, 19566.33
482.5573, 19376.31
483.0394, 19195.89
483.5215, 19020.20
484.0036, 18844.53
484.4857, 18671.02
484.9678, 18514.94
485.4500, 18395.58
485.9321, 18268.38
486.4142, 18122.11
486.8963, 17969.06
487.3784, 17814.32
487.8605, 17661.93
488.3427, 17526.35
488.8248, 17434.08
489.3069, 17387.88
489.7890, 17318.77
490.2711, 17213.97
490.7532, 17097.27
491.2354, 16968.36
491.7175, 16838.76
492.1996, 16734.38
492.6817, 16677.02
493.1638, 16637.98
493.6459, 16587.99
494.1281, 16526.82
494.6102, 16449.68
495.0923, 16344.60
495.5744, 16234.70
496.0565, 16165.33
496.5386, 16144.07
497.0208, 16116.93
497.5029, 16073.49
497.9850, 16016.83
498.4671, 15943.18
498.9492, 15855.89
499.4313, 15771.60
499.9135, 15702.49
500.3956, 15648.91
500.8777, 15613.39
501.3598, 15629.77
501.8419, 15623.68
502.3240, 15567.34
502.8062, 15489.81
503.2883, 15421.91
503.7704, 15373.40
504.2525, 15335.50
504.7346, 15294.58
505.2167, 15248.51
505.6989, 15218.20
506.1810, 15218.85
506.6631, 15219.00
507.1452, 15206.10
507.6273, 15181.47
508.1094, 15147.44
508.5916, 15097.63
509.0737, 15047.99
509.5558, 15025.17
510.0379, 15028.16
510.5200, 15026.74
511.0021, 15012.34
511.4843, 14986.28
511.9664, 14945.81
512.4485, 14887.39
512.9306, 14841.17
513.4127, 14821.69
513.8948, 14813.59
514.3770, 14807.13
514.8591, 14799.15
515.3412, 14780.18
515.8233, 14741.42
516.3054, 14687.36
516.7875, 14647.86
517.2697, 14640.34
517.7518, 14626.01
518.2339, 14594.44
518.7160, 14558.18
519.1981, 14532.90
519.6802, 14519.89
520.1624, 14503.66
520.6445, 14463.58
521.1266, 14398.83
521.6087, 14344.17
522.0908, 14298.50
522.5729, 14265.99
523.0551, 14258.13
523.5372, 14260.55
524.0193, 14248.90
524.5014, 14210.37
524.9835, 14168.67
525.4656, 14154.16
525.9478, 14159.79
526.4299, 14145.78
526.9120, 14097.48
527.3941, 14038.42
527.8762, 13992.73
528.3583, 13960.25
528.8405, 13942.43
529.3226, 13960.34
529.8047, 13974.38
530.2868, 13951.32
530.7689, 13902.25
531.2510, 13860.71
531.7332, 13844.16
532.2153, 13842.33
532.6974, 13829.13
533.1795, 13790.55
533.6616, 13766.55
534.1437, 13772.89
534.6259, 13779.57
535.1080, 13764.80
535.5901, 13732.12
536.0722, 13701.41
536.5543, 13689.29
537.0364, 13688.28
537.5186, 13673.51
538.0007, 13640.70
538.4828, 13610.61
538.9649, 13594.60
539.4470, 13583.19
539.9291, 13561.08
540.4113, 13523.55
540.8934, 13502.04
541.3755, 13527.34
541.8576, 13572.53
542.3397, 13592.39
542.8218, 13582.44
543.3040, 13573.38
543.7861, 13591.53
544.2682, 13631.07
544.7503, 13641.51
545.2324, 13588.29
545.7145, 13553.11
546.1967, 13563.07
546.6788, 13593.14
547.1609, 13620.69
547.6430, 13638.60
548.1251, 13646.15
548.6072, 13638.21
549.0894, 13613.79
549.5715, 13608.43
550.0536, 13640.89
550.5357, 13665.76
551.0178, 13654.12
551.4999, 13630.20
551.9821, 13628.07
552.4642, 13659.82
552.9463, 13705.04
553.4284, 13750.29
553.9105, 13794.23
554.3926, 13832.85
554.8748, 13867.40
555.3569, 13887.57
555.8390, 13873.03
556.3211, 13825.53
556.8032, 13814.98
557.2853, 13870.46
557.7675, 13933.74
558.2496, 13975.89
558.7317, 14007.60
559.2138, 14053.22
559.6959, 14120.60
560.1780, 14186.96
560.6602, 14211.64
561.1423, 14175.32
561.6244, 14174.69
562.1065, 14250.33
562.5886, 14323.04
563.0707, 14353.56
563.5529, 14364.02
564.0350, 14400.01
564.5171, 14486.84
564.9992, 14588.84
565.4813, 14653.03
565.9634, 14682.50
566.4456, 14729.28
566.9277, 14811.77
567.4098, 14903.18
567.8919, 14970.93
568.3740, 15018.01
568.8561, 15078.37
569.3383, 15169.42
569.8204, 15263.95
570.3025, 15346.41
570.7846, 15418.63
571.2667, 15483.97
571.7488, 15543.33
572.2310, 15603.41
572.7131, 15675.28
573.1952, 15762.76
573.6773, 15852.85
574.1594, 15946.01
574.6415, 16041.08
575.1237, 16135.98
575.6058, 16232.59
576.0879, 16337.07
576.5700, 16455.54
577.0521, 16574.60
577.5342, 16671.24
578.0164, 16745.13
578.4985, 16818.17
578.9806, 16882.48
579.4627, 16965.96
579.9448, 17114.80
580.4269, 17320.25
580.9091, 17505.68
581.3912, 17639.90
581.8733, 17765.11
582.3554, 17916.91
582.8375, 18083.95
583.3196, 18236.39
583.8018, 18360.74
584.2839, 18470.86
584.7660, 18588.86
585.2481, 18711.09
585.7302, 18851.25
586.2123, 19027.17
586.6945, 19202.80
587.1766, 19357.89
587.6587, 19502.84
588.1408, 19660.98
588.6229, 19844.66
589.1050, 20040.47
589.5872, 20230.89
590.0693, 20417.04
590.5514, 20598.33
591.0335, 20771.93
591.5156, 20947.03
591.9977, 21133.27
592.4799, 21329.63
592.9620, 21530.20
593.4441, 21729.22
593.9262, 21936.39
594.4083, 22163.89
594.8904, 22402.39
595.3726, 22623.13
595.8547, 22816.45
596.3368, 23012.40
596.8189, 23259.53
597.3010, 23576.67
597.7831, 23852.49
598.2653, 24053.70
598.7474, 24244.96
599.2295, 24445.13
599.7116, 24647.22
600.1937, 24836.06
600.6758, 25000.85
601.1580, 25171.99
601.6401, 25396.44
602.1222, 25659.59
602.6043, 25885.71
603.0864, 26057.18
603.5685, 26212.27
604.0507, 26378.78
604.5328, 26556.25
605.0149, 26739.37
605.4970, 26962.34
605.9791, 27151.37
606.4612, 27260.51
606.9434, 27329.60
607.4255, 27407.76
607.9076, 27506.49
608.3897, 27612.53
608.8718, 27716.80
609.3539, 27818.51
609.8361, 27880.37
610.3182, 27896.38
610.8003, 27880.76
611.2824, 27812.62
611.7645, 27731.14
612.2466, 27690.82
612.7288, 27705.86
613.2109, 27690.38
613.6930, 27556.84
614.1751, 27365.21
614.6572, 27229.89
615.1393, 27159.38
615.6215, 27095.04
616.1036, 27009.04
616.5857, 26893.73
617.0678, 26717.55
617.5499, 26401.95
618.0320, 26136.05
618.5142, 25975.98
618.9963, 25830.90
619.4784, 25633.64
619.9605, 25384.41
620.4426, 25116.96
620.9247, 24851.83
621.4069, 24590.13
621.8890, 24333.49
622.3711, 24080.80
622.8532, 23842.30
623.3353, 23636.97
623.8174, 23428.46
624.2996, 23168.12
624.7817, 22860.30
625.2638, 22572.47
625.7459, 22325.05
626.2280, 22102.05
626.7101, 21904.15
627.1923, 21720.73
627.6744, 21519.36
628.1565, 21288.17
628.6386, 21051.19
629.1207, 20855.04
629.6028, 20719.11
630.0850, 20546.62
630.5671, 20294.73
631.0492, 20049.92
631.5313, 19844.58
632.0134, 19662.97
632.4955, 19479.91
632.9777, 19287.51
633.4598, 19092.52
633.9419, 18899.28
634.4240, 18709.42
634.9061, 18528.47
635.3882, 18357.24
635.8704, 18194.14
636.3525, 18037.46
636.8346, 17887.96
637.3167, 17750.15
637.7988, 17641.32
638.2809, 17520.77
638.7631, 17375.61
639.2452, 17219.79
639.7273, 17058.91
640.2094, 16898.62
640.6915, 16755.09
641.1736, 16643.51
641.6558, 16555.49
642.1379, 16466.39
642.6200, 16376.55
643.1021, 16284.94
643.5842, 16197.59
644.0663, 16102.02
644.5485, 15975.92
645.0306, 15820.80
645.5127, 15692.77
645.9948, 15633.29
646.4769, 15584.11
646.9590, 15488.62
647.4412, 15366.79
647.9233, 15279.66
648.4054, 15251.52
648.8875, 15238.71
649.3696, 15169.53
649.8517, 15025.82
650.3339, 14920.79
650.8160, 14878.69
651.2981, 14849.03
651.7802, 14823.88
652.2623, 14796.93
652.7444, 14760.53
653.2266, 14712.57
653.7087, 14655.14
654.1908, 14585.39
654.6729, 14508.16
655.1550, 14429.99
655.6371, 14351.89
656.1193, 14286.02
656.6014, 14242.10
657.0835, 14214.94
657.5656, 14186.00
658.0477, 14144.39
658.5298, 14116.43
659.0120, 14128.84
659.4941, 14132.64
659.9762, 14085.99
660.4583, 13999.68
660.9404, 13913.39
661.4225, 13845.24
661.9047, 13796.72
662.3868, 13779.03
662.8689, 13790.71
663.3510, 13786.50
663.8331, 13754.12
664.3152, 13709.02
664.7974, 13661.09
665.2795, 13611.31
665.7616, 13573.42
666.2437, 13549.94
666.7258, 13535.82
667.2079, 13543.17
667.6901, 13552.18
668.1722, 13536.02
668.6543, 13491.27
669.1364, 13434.60
669.6185, 13369.86
670.1006, 13307.59
670.5828, 13328.75
671.0649, 13474.99
671.5470, 13565.85
672.0291, 13507.20
672.5112, 13391.73
672.9933, 13325.57
673.4755, 13311.22
673.9576, 13298.23
674.4397, 13269.31
674.9218, 13238.86
675.4039, 13219.67
675.8860, 13207.99
676.3682, 13192.90
676.8503, 13170.31
677.3324, 13146.88
677.8145, 13137.06
678.2966, 13146.58
678.7787, 13120.25
679.2609, 13015.50
679.7430, 12938.94
680.2251, 12964.25
680.7072, 13024.49
681.1893, 13027.81
681.6714, 12951.19
682.1536, 12877.97
682.6357, 12865.21
683.1178, 12877.27
683.5999, 12863.97
684.0820, 12826.43
684.5641, 12796.46
685.0463, 12791.99
685.5284, 12801.91
686.0105, 12799.72
686.4926, 12776.81
686.9747, 12762.04
687.4568, 12775.22
687.9390, 12776.26
688.4211, 12730.52
688.9032, 12664.50
689.3853, 12632.54
689.8674, 12660.39
690.3495, 12692.02
690.8317, 12676.57
691.3138, 12630.85
691.7959, 12590.86
692.2780, 12561.55
692.7601, 12533.89
693.2422, 12501.81
693.7244, 12466.92
694.2065, 12435.73
694.6886, 12410.71
695.1707, 12385.88
695.6528, 12356.94
696.1349, 12331.85
696.6171, 12317.15
697.0992, 12310.25
697.5813, 12305.03
698.0634, 12300.93
698.5455, 12292.20
699.0276, 12265.69
699.5098, 12228.28
699.9919, 12210.79
700.4740, 12221.43
700.9561, 12222.62
701.4382, 12179.10
701.9203, 12098.34
702.4025, 12039.68
702.8846, 12016.00
703.3667, 11998.11
703.8488, 11992.13
704.3309, 11984.87
704.8130, 11964.73
705.2952, 11933.64
705.7773, 11902.04
706.2594, 11875.92
706.7415, 11852.27
707.2236, 11828.17
707.7057, 11802.96
708.1879, 11773.89
708.6700, 11740.77
709.1521, 11699.74
709.6342, 11641.40
710.1163, 11567.62
710.5984, 11529.08
711.0806, 11567.52
711.5627, 11584.14
712.0448, 11547.86
712.5269, 11496.12
713.0090, 11462.22
713.4911, 11446.11
713.9733, 11426.78
714.4554, 11394.85
714.9375, 11347.92
715.4196, 11261.40
715.9017, 11145.66
716.3839, 11096.74
716.8660, 11152.36
717.3481, 11221.06
717.8302, 11208.74
718.3123, 11115.74
718.7944, 11047.82
719.2766, 11020.39
719.7587, 10995.56
720.2408, 10974.58
720.7229, 10947.81
721.2050, 10896.15
721.6871, 10826.41
722.1693, 10776.44
722.6514, 10780.42
723.1335, 10807.69
723.6156, 10811.91
724.0977, 10794.06
724.5798, 10757.28
725.0620, 10699.25
725.5441, 10638.13
726.0262, 10592.80
726.5083, 10563.14
726.9904, 10531.25
727.4725, 10493.23
727.9547, 10457.77
728.4368, 10425.97
728.9189, 10397.49
729.4010, 10370.00
729.8831, 10344.94
730.3652, 10329.80
730.8474, 10339.03
731.3295, 10350.16
731.8116, 10324.03
732.2937, 10268.36
732.7758, 10221.12
733.2579, 10191.63
733.7401, 10174.66
734.2222, 10168.84
734.7043, 10173.09
735.1864, 10156.56
735.6685, 10094.44
736.1506, 10044.00
736.6328, 10018.72
737.1149, 10002.24
737.5970, 9982.002
738.0791, 9957.903
738.5612, 9936.726
739.0433, 9922.237
739.5255, 9911.696
740.0076, 9906.397
740.4897, 9902.450
740.9718, 9883.401
741.4539, 9845.362
741.9360, 9811.999
742.4182, 9808.739
742.9003, 9828.984
743.3824, 9813.136
743.8645, 9723.995
744.3466, 9662.904
744.8287, 9666.247
745.3109, 9679.021
745.7930, 9665.074
746.2751, 9628.304
746.7572, 9591.318
747.2393, 9555.019
747.7214, 9532.627
748.2036, 9552.138
748.6857, 9588.896
749.1678, 9590.345
749.6499, 9550.304
750.1320, 9503.730
750.6141, 9476.673
751.0963, 9465.360
751.5784, 9455.296
752.0605, 9446.025
752.5426, 9439.271
753.0247, 9437.378
753.5068, 9435.697
753.9890, 9435.372
754.4711, 9432.910
754.9532, 9417.459
755.4353, 9374.693
755.9174, 9340.742
756.3995, 9347.247
756.8817, 9364.884
757.3638, 9353.012
757.8459, 9314.186
758.3280, 9280.756
758.8101, 9273.033
759.2922, 9281.280
759.7744, 9286.971
760.2565, 9290.539
760.7386, 9287.019
761.2207, 9274.509
761.7028, 9257.562
762.1849, 9236.647
762.6671, 9213.783
763.1492, 9193.569
763.6313, 9174.035
764.1134, 9161.949
764.5955, 9162.934
765.0776, 9168.297
765.5598, 9173.807
766.0419, 9177.936
766.5240, 9176.473
767.0061, 9167.259
767.4882, 9162.424
767.9703, 9189.493
768.4525, 9238.011
768.9346, 9242.642
769.4167, 9194.689
769.8988, 9146.308
770.3809, 9122.803
770.8630, 9115.172
771.3452, 9106.082
771.8273, 9093.119
772.3094, 9086.139
772.7915, 9089.567
773.2736, 9093.808
773.7557, 9094.206
774.2379, 9093.460
774.7200, 9096.224
775.2021, 9103.358
775.6842, 9109.462
776.1663, 9105.023
776.6484, 9099.907
777.1306, 9113.771
777.6127, 9142.942
778.0948, 9169.875
778.5769, 9188.867
779.0590, 9194.335
779.5411, 9176.679
780.0233, 9135.250
780.5054, 9102.020
780.9875, 9076.410
781.4696, 9060.362
781.9517, 9051.161
782.4338, 9053.844
782.9160, 9079.488
783.3981, 9124.845
783.8802, 9162.394
784.3623, 9187.774
784.8444, 9197.374
785.3265, 9175.240
785.8087, 9141.533
786.2908, 9128.329
786.7729, 9139.839
787.2550, 9160.081
787.7371, 9179.262
788.2192, 9192.613
788.7014, 9179.080
789.1835, 9133.758
789.6656, 9113.640
790.1477, 9140.301
790.6298, 9168.134
791.1119, 9161.441
791.5941, 9126.383
792.0762, 9092.739
792.5583, 9043.341
793.0404, 9022.475
793.5225, 9068.044
794.0046, 9116.784
794.4868, 9122.959
794.9689, 9095.606
795.4510, 9061.473
795.9331, 9030.048
796.4152, 9008.043
796.8973, 9004.994
797.3795, 9016.324
797.8616, 9031.145
798.3437, 9048.635
798.8258, 9072.005
799.3079, 9105.216
799.7900, 9136.471
800.2722, 9143.860
800.7543, 9124.006
801.2364, 9095.705
801.7185, 9050.217
802.2006, 9008.322
802.6827, 8976.746
803.1649, 8951.815
803.6470, 8929.362
804.1291, 8908.890
804.6112, 8895.652
805.0933, 8897.651
805.5754, 8901.698
806.0576, 8896.845
806.5397, 8887.520
807.0218, 8882.239
807.5039, 8882.650
807.9860, 8884.482
808.4681, 8885.103
808.9503, 8883.055
809.4324, 8872.463
809.9145, 8852.862
810.3966, 8832.271
810.8787, 8810.558
811.3608, 8793.464
811.8430, 8786.610
812.3251, 8788.939
812.8072, 8792.813
813.2893, 8820.058
813.7714, 8817.509
814.2535, 8750.030
814.7357, 8679.940
815.2178, 8649.374
815.6999, 8648.849
816.1820, 8651.552
816.6641, 8649.937
817.1462, 8639.920
817.6284, 8609.930
818.1105, 8573.304
818.5926, 8554.281
819.0747, 8551.255
819.5568, 8546.461
820.0389, 8531.602
820.5211, 8512.025
821.0032, 8497.626
821.4852, 8489.290
821.9673, 8467.411
822.4495, 8421.041
822.9316, 8389.194
823.4137, 8393.340
823.8958, 8413.542
824.3779, 8432.144
824.8600, 8450.342
825.3422, 8437.843
825.8243, 8347.978
826.3064, 8278.518
826.7885, 8287.848
827.2706, 8323.705
827.7527, 8331.993
828.2349, 8307.051
828.7170, 8270.663
829.1991, 8233.604
829.6812, 8196.198
830.1633, 8153.827
830.6454, 8111.347
831.1276, 8088.418
831.6097, 8087.392
832.0918, 8091.673
832.5739, 8091.767
833.0560, 8084.968
833.5381, 8060.364
834.0203, 8007.133
834.5024, 7973.765
834.9845, 7971.666
835.4666, 7975.128
835.9487, 7975.414
836.4308, 7971.851
836.9130, 7962.571
837.3951, 7946.617
837.8772, 7929.853
838.3593, 7913.694
838.8414, 7897.247
839.3235, 7881.271
839.8057, 7864.127
840.2878, 7840.934
840.7699, 7812.044
841.2520, 7787.589
841.7341, 7779.605
842.2162, 7778.064
842.6984, 7760.747
843.1805, 7731.962
843.6626, 7718.027
844.1447, 7725.686
844.6268, 7730.107
845.1089, 7708.859
845.5911, 7668.299
846.0732, 7638.564
846.5553, 7628.928
847.0374, 7604.146
847.5195, 7541.146
848.0016, 7486.417
848.4838, 7473.530
848.9659, 7485.378
849.4480, 7488.298
849.9301, 7473.886
850.4122, 7468.374
850.8943, 7492.129
851.3765, 7514.294
851.8586, 7510.927
852.3407, 7491.896
852.8228, 7476.146
853.3049, 7468.751
853.7870, 7460.083
854.2692, 7441.271
854.7513, 7415.888
855.2334, 7387.146
855.7155, 7357.034
856.1976, 7335.910
856.6797, 7326.639
857.1619, 7323.850
857.6440, 7323.575
858.1261, 7324.723
858.6082, 7324.322
859.0903, 7330.239
859.5724, 7305.666
860.0546, 7212.866
860.5367, 7134.274
861.0188, 7141.115
861.5009, 7199.914
861.9830, 7228.388
862.4651, 7207.282
862.9473, 7197.823
863.4294, 7232.634
863.9115, 7260.557
864.3936, 7245.536
864.8757, 7204.951
865.3578, 7166.032
865.8400, 7136.351
866.3221, 7114.708
866.8042, 7102.472
867.2863, 7096.004
867.7684, 7089.809
868.2505, 7085.147
868.7327, 7089.267
869.2148, 7102.820
869.6969, 7109.949
870.1790, 7094.470
870.6611, 7065.683
871.1432, 7060.051
871.6254, 7082.248
872.1075, 7089.077
872.5896, 7071.237
873.0717, 7045.638
873.5538, 7019.004
874.0359, 6994.302
874.5181, 6980.246
875.0002, 6982.182
875.4823, 6982.923
875.9644, 6982.098
876.4465, 6980.455
876.9286, 6978.013
877.4108, 6975.109
877.8929, 6972.588
878.3750, 6970.459
878.8571, 6966.653
879.3392, 6959.394
879.8214, 6950.832
880.3035, 6944.301
880.7856, 6936.948
881.2677, 6921.376
881.7498, 6898.658
882.2319, 6879.115
882.7141, 6868.581
883.1962, 6869.064
883.6783, 6894.574
884.1604, 6937.974
884.6425, 6949.498
885.1246, 6922.370
885.6068, 6884.728
886.0889, 6847.396
886.5710, 6819.953
887.0531, 6825.170
887.5352, 6874.367
888.0173, 6889.607
888.4995, 6846.227
888.9816, 6811.174
889.4637, 6812.045
889.9458, 6825.169
890.4279, 6828.913
890.9100, 6823.558
891.3922, 6816.379
891.8743, 6798.999
892.3564, 6792.172
892.8385, 6817.940
893.3206, 6844.387
893.8027, 6837.919
894.2849, 6807.816
894.7670, 6787.174
895.2491, 6791.016
895.7312, 6797.379
896.2133, 6783.043
896.6954, 6762.025
897.1776, 6758.727
897.6597, 6769.020
898.1418, 6772.887
898.6239, 6763.393
899.1060, 6751.098
899.5881, 6747.368
900.0703, 6750.807
900.5524, 6757.143
901.0345, 6766.856
901.5166, 6767.773
901.9987, 6755.663
902.4808, 6739.615
902.9630, 6726.234
903.4451, 6715.326
903.9272, 6705.834
904.4093, 6695.577
904.8914, 6691.490
905.3735, 6700.093
905.8557, 6707.549
906.3378, 6710.706
906.8199, 6708.154
907.3020, 6695.001
907.7841, 6669.176
908.2662, 6651.111
908.7484, 6646.669
909.2305, 6649.798
909.7126, 6666.132
910.1947, 6682.979
910.6768, 6683.948
911.1589, 6669.983
911.6411, 6655.028
912.1232, 6645.124
912.6053, 6640.088
913.0874, 6642.692
913.5695, 6648.649
914.0516, 6649.759
914.5338, 6646.414
915.0159, 6644.582
915.4980, 6647.047
915.9801, 6650.974
916.4622, 6654.654
916.9443, 6656.833
917.4265, 6645.025
917.9086, 6618.325
918.3907, 6604.643
918.8728, 6615.494
919.3549, 6627.047
919.8370, 6613.172
920.3192, 6580.175
920.8013, 6572.188
921.2834, 6604.032
921.7655, 6625.584
922.2476, 6634.341
922.7297, 6629.942
923.2119, 6602.163
923.6940, 6564.501
924.1761, 6540.097
924.6582, 6531.148
925.1403, 6528.859
925.6224, 6535.952
926.1046, 6544.813
926.5867, 6556.239
927.0688, 6565.084
927.5509, 6563.764
928.0330, 6553.592
928.5151, 6545.323
928.9973, 6543.518
929.4794, 6545.493
929.9615, 6551.979
930.4436, 6559.353
930.9257, 6564.902
931.4078, 6566.962
931.8900, 6560.424
932.3721, 6543.138
932.8542, 6526.014
933.3363, 6522.823
933.8184, 6528.686
934.3005, 6536.039
934.7827, 6542.171
935.2648, 6526.793
935.7469, 6484.290
936.2290, 6440.108
936.7111, 6415.350
937.1932, 6409.510
937.6754, 6426.344
938.1575, 6470.303
938.6396, 6498.388
939.1217, 6504.505
939.6038, 6498.347
940.0859, 6479.193
940.5681, 6458.002
941.0502, 6457.353
941.5323, 6484.607
942.0144, 6494.132
942.4965, 6472.836
942.9786, 6452.606
943.4608, 6439.567
943.9429, 6430.734
944.4250, 6423.799
944.9071, 6418.907
945.3892, 6417.416
945.8713, 6424.244
946.3535, 6426.107
946.8356, 6413.066
947.3177, 6400.285
947.7998, 6400.903
948.2819, 6407.982
948.7640, 6407.058
949.2462, 6395.058
949.7283, 6387.215
950.2104, 6393.353
950.6925, 6406.567
951.1746, 6426.587
951.6567, 6446.791
952.1389, 6456.385
952.6210, 6454.899
953.1031, 6448.104
953.5852, 6438.840
954.0673, 6428.877
954.5494, 6419.749
955.0316, 6411.991
955.5137, 6406.287
955.9958, 6403.056
956.4779, 6405.887
956.9600, 6416.134
957.4421, 6426.029
957.9243, 6427.450
958.4064, 6420.825
958.8885, 6405.079
959.3706, 6379.275
959.8527, 6363.637
960.3348, 6363.155
960.8170, 6365.434
961.2991, 6362.654
961.7812, 6356.747
962.2633, 6351.872
962.7454, 6347.401
963.2275, 6347.429
963.7097, 6357.250
964.1918, 6361.213
964.6739, 6351.293
965.1560, 6336.565
965.6381, 6324.290
966.1202, 6314.885
966.6024, 6312.337
967.0845, 6318.920
967.5666, 6329.024
968.0487, 6359.151
968.5308, 6374.974
969.0129, 6338.413
969.4951, 6282.681
969.9772, 6267.680
970.4593, 6306.237
970.9414, 6330.855
971.4235, 6303.413
971.9056, 6275.423
972.3878, 6279.355
972.8699, 6293.015
973.3520, 6286.912
973.8341, 6265.478
974.3162, 6258.534
974.7983, 6283.769
975.2805, 6306.759
975.7626, 6295.224
976.2447, 6271.676
976.7268, 6262.354
977.2089, 6263.337
977.6910, 6261.082
978.1732, 6252.234
978.6553, 6244.385
979.1374, 6244.962
979.6195, 6248.167
980.1016, 6243.395
980.5837, 6233.684
981.0659, 6228.694
981.5480, 6228.754
982.0301, 6226.877
982.5122, 6219.418
982.9943, 6209.674
983.4764, 6200.324
983.9586, 6192.697
984.4407, 6196.966
984.9228, 6212.954
985.4049, 6226.999
985.8870, 6236.208
986.3691, 6237.022
986.8513, 6224.968
987.3334, 6205.134
987.8155, 6193.052
988.2976, 6189.877
988.7797, 6186.896
989.2618, 6183.867
989.7440, 6179.875
990.2261, 6171.818
990.7082, 6167.711
991.1903, 6180.563
991.6724, 6209.626
992.1545, 6222.186
992.6367, 6211.313
993.1188, 6197.353
993.6009, 6173.380
994.0830, 6158.567
994.5651, 6170.995
995.0472, 6197.977
995.5294, 6214.942
996.0115, 6222.400
996.4936, 6218.011
996.9757, 6185.149
997.4578, 6161.938
997.9399, 6170.596
998.4221, 6183.076
998.9042, 6171.770
999.3863, 6143.129
999.8684, 6124.332
1000.351, 6121.041
1000.833, 6126.145
1001.315, 6143.204
1001.797, 6162.150
1002.279, 6185.758
1002.761, 6202.712
1003.243, 6193.282
1003.725, 6158.712
1004.207, 6128.998
1004.690, 6114.979
1005.172, 6112.240
1005.654, 6124.314
1006.136, 6141.484
1006.618, 6159.738
1007.100, 6173.376
1007.582, 6169.712
1008.064, 6145.496
1008.547, 6121.357
1009.029, 6117.249
1009.511, 6116.151
1009.993, 6094.204
1010.475, 6066.100
1010.957, 6056.252
1011.439, 6065.927
1011.921, 6085.828
1012.403, 6112.645
1012.886, 6132.721
1013.368, 6127.042
1013.850, 6106.475
1014.332, 6085.136
1014.814, 6066.781
1015.296, 6064.460
1015.778, 6078.656
1016.260, 6088.108
1016.742, 6075.320
1017.225, 6054.439
1017.707, 6048.918
1018.189, 6056.457
1018.671, 6072.765
1019.153, 6095.477
1019.635, 6110.293
1020.117, 6111.919
1020.599, 6108.634
1021.082, 6110.052
1021.564, 6112.077
1022.046, 6095.308
1022.528, 6062.255
1023.010, 6053.564
1023.492, 6075.318
1023.974, 6096.300
1024.456, 6101.241
1024.938, 6094.149
1025.421, 6077.505
1025.903, 6053.371
1026.385, 6051.501
1026.867, 6075.792
1027.349, 6082.798
1027.831, 6059.505
1028.313, 6040.275
1028.795, 6051.244
1029.278, 6075.916
1029.760, 6076.227
1030.242, 6048.589
1030.724, 6024.787
1031.206, 6001.262
1031.688, 5997.151
1032.170, 6028.104
1032.652, 6056.143
1033.135, 6043.507
1033.617, 6003.595
1034.099, 5988.790
1034.581, 6011.568
1035.063, 6023.027
1035.545, 6018.532
1036.027, 6011.015
1036.509, 6000.591
1036.991, 5995.025
1037.474, 6007.404
1037.956, 6034.518
1038.438, 6042.185
1038.920, 6015.496
1039.402, 5998.398
1039.884, 6001.001
1040.366, 6002.294
1040.848, 5989.560
1041.330, 5972.522
1041.813, 5964.590
1042.295, 5966.178
1042.777, 5967.695
1043.259, 5969.257
1043.741, 5970.590
1044.223, 5972.562
1044.705, 5973.402
1045.187, 5972.057
1045.670, 5969.000
1046.152, 5964.830
1046.634, 5959.436
1047.116, 5954.178
1047.598, 5944.890
1048.080, 5941.647
1048.562, 5957.277
1049.044, 5969.712
1049.526, 5955.182
1050.009, 5927.373
1050.491, 5920.958
1050.973, 5946.625
1051.455, 5961.569
1051.937, 5954.192
1052.419, 5941.013
1052.901, 5920.689
1053.383, 5902.988
1053.865, 5895.396
1054.348, 5897.585
1054.830, 5909.147
1055.312, 5937.206
1055.794, 5951.587
1056.276, 5934.374
1056.758, 5914.452
1057.240, 5900.247
1057.722, 5894.083
1058.205, 5903.286
1058.687, 5922.942
1059.169, 5932.125
1059.651, 5920.467
1060.133, 5910.629
1060.615, 5910.278
1061.097, 5913.203
1061.579, 5922.885
1062.062, 5929.241
1062.544, 5914.040
1063.026, 5881.130
1063.508, 5861.769
1063.990, 5872.101
1064.472, 5885.429
1064.954, 5891.975
1065.436, 5897.677
1065.918, 5904.837
1066.401, 5914.705
1066.883, 5937.230
1067.365, 5968.643
1067.847, 5971.211
1068.329, 5904.425
1068.811, 5847.499
1069.293, 5844.154
1069.775, 5855.098
1070.257, 5849.597
1070.740, 5837.100
1071.222, 5840.664
1071.704, 5862.327
1072.186, 5873.443
1072.668, 5851.464
1073.150, 5830.236
1073.632, 5824.976
1074.114, 5827.802
1074.596, 5842.053
1075.079, 5855.469
1075.561, 5841.810
1076.043, 5797.265
1076.525, 5764.506
1077.007, 5767.141
1077.489, 5779.667
1077.971, 5796.958
1078.453, 5811.756
1078.936, 5816.708
1079.418, 5814.426
1079.900, 5809.885
1080.382, 5804.291
1080.864, 5801.425
1081.346, 5808.385
1081.828, 5811.858
1082.310, 5803.362
1082.792, 5789.384
1083.275, 5771.238
1083.757, 5754.055
1084.239, 5745.483
1084.721, 5747.181
1085.203, 5762.815
1085.685, 5818.330
1086.167, 5858.430
1086.649, 5837.974
1087.131, 5801.356
1087.614, 5791.754
1088.096, 5801.442
1088.578, 5801.717
1089.060, 5784.837
1089.542, 5770.632
1090.024, 5770.358
1090.506, 5770.819
1090.988, 5766.111
1091.471, 5758.168
1091.953, 5743.585
1092.435, 5728.618
1092.917, 5730.091
1093.399, 5754.313
1093.881, 5771.211
1094.363, 5764.451
1094.845, 5754.248
1095.328, 5749.756
1095.810, 5746.710
1096.292, 5738.220
1096.774, 5728.224
1097.256, 5729.555
1097.738, 5747.792
1098.220, 5755.936
1098.702, 5737.854
1099.184, 5717.449
1099.667, 5701.543
1100.149, 5690.810
1100.631, 5687.900
1101.113, 5689.952
1101.595, 5691.534
1102.077, 5692.821
1102.559, 5686.855
1103.041, 5654.047
1103.523, 5636.860
1104.006, 5671.195
1104.488, 5709.416
1104.970, 5704.945
1105.452, 5673.855
1105.934, 5660.070
1106.416, 5671.796
1106.898, 5687.021
1107.380, 5717.375
1107.863, 5730.086
1108.345, 5701.884
1108.827, 5664.818
1109.309, 5635.504
1109.791, 5618.200
1110.273, 5623.867
1110.755, 5661.519
1111.237, 5682.214
1111.719, 5669.665
1112.202, 5656.292
1112.684, 5643.980
1113.166, 5638.527
1113.648, 5650.281
1114.130, 5670.116
1114.612, 5676.072
1115.094, 5663.428
1115.576, 5657.625
1116.058, 5663.969
1116.541, 5669.092
1117.023, 5670.878
1117.505, 5670.808
1117.987, 5669.216
1118.469, 5666.749
1118.951, 5665.286
1119.433, 5665.685
1119.915, 5659.888
1120.398, 5638.227
1120.880, 5631.567
1121.362, 5654.972
1121.844, 5676.886
1122.326, 5675.910
1122.808, 5664.625
1123.290, 5668.078
1123.772, 5688.141
1124.255, 5679.477
1124.737, 5627.762
1125.219, 5593.154
1125.701, 5586.953
1126.183, 5592.417
1126.665, 5602.292
1127.147, 5615.323
1127.629, 5631.516
1128.111, 5649.930
1128.594, 5649.197
1129.076, 5623.156
1129.558, 5624.393
1130.040, 5667.727
1130.522, 5690.692
1131.004, 5657.849
1131.486, 5609.167
1131.968, 5599.332
1132.450, 5619.458
1132.933, 5617.834
1133.415, 5594.694
1133.897, 5586.027
1134.379, 5595.954
1134.861, 5612.030
1135.343, 5629.593
1135.825, 5641.314
1136.307, 5636.649
1136.790, 5623.818
1137.272, 5631.104
1137.754, 5652.896
1138.236, 5655.143
1138.718, 5637.150
1139.200, 5616.852
1139.682, 5600.954
1140.164, 5592.017
1140.646, 5593.246
1141.129, 5600.605
1141.611, 5606.341
1142.093, 5612.591
1142.575, 5631.663
1143.057, 5656.550
1143.539, 5655.806
1144.021, 5624.854
1144.503, 5595.715
1144.985, 5588.902
1145.468, 5600.799
1145.950, 5650.195
1146.432, 5699.485
1146.914, 5673.333
1147.396, 5606.858
1147.878, 5582.587
1148.360, 5609.773
1148.842, 5643.127
1149.325, 5663.916
1149.807, 5665.587
1150.289, 5621.844
1150.771, 5577.439
1151.253, 5581.988
1151.735, 5608.404
1152.217, 5620.015
1152.699, 5613.220
1153.182, 5595.679
1153.664, 5566.291
1154.146, 5546.628
1154.628, 5551.708
1155.110, 5563.751
1155.592, 5576.364
1156.074, 5587.963
1156.556, 5598.549
1157.038, 5606.828
1157.521, 5608.354
1158.003, 5600.438
1158.485, 5599.125
1158.967, 5619.112
1159.449, 5630.403
1159.931, 5613.863
1160.413, 5596.508
1160.895, 5602.211
1161.377, 5617.362
1161.860, 5614.337
1162.342, 5590.748
1162.824, 5571.495
1163.306, 5552.805
1163.788, 5546.093
1164.270, 5561.000
1164.752, 5574.055
1165.234, 5572.840
1165.717, 5566.006
1166.199, 5564.896
1166.681, 5568.625
1167.163, 5568.602
1167.645, 5564.063
1168.127, 5558.556
1168.609, 5551.157
1169.091, 5548.820
1169.573, 5555.414
1170.056, 5561.956
1170.538, 5558.627
1171.020, 5550.510
1171.502, 5554.299
1171.984, 5568.977
1172.466, 5576.457
1172.948, 5576.579
1173.430, 5584.068
1173.912, 5602.392
1174.395, 5619.228
1174.877, 5626.479
1175.359, 5623.777
1175.841, 5601.768
1176.323, 5572.864
1176.805, 5576.424
1177.287, 5600.751
1177.769, 5607.993
1178.252, 5594.310
1178.734, 5576.232
1179.216, 5561.407
1179.698, 5548.192
1180.180, 5529.754
1180.662, 5517.125
1181.144, 5531.659
1181.626, 5554.085
1182.109, 5552.367
1182.591, 5534.962
1183.073, 5533.284
1183.555, 5554.454
1184.037, 5567.966
1184.519, 5552.829
1185.001, 5532.713
1185.483, 5513.271
1185.965, 5500.009
1186.448, 5499.485
1186.930, 5506.535
1187.412, 5517.503
1187.894, 5529.812
1188.376, 5528.386
1188.858, 5487.163
1189.340, 5474.849
1189.822, 5535.544
1190.304, 5582.385
1190.787, 5573.935
1191.269, 5545.302
1191.751, 5521.222
1192.233, 5502.401
1192.715, 5491.311
1193.197, 5487.904
1193.679, 5493.646
1194.161, 5513.331
1194.644, 5527.103
1195.126, 5528.467
1195.608, 5531.338
1196.090, 5546.264
1196.572, 5563.321
1197.054, 5567.079
1197.536, 5557.774
1198.018, 5532.274
1198.500, 5491.834
1198.983, 5459.716
1199.465, 5439.466
1199.947, 5443.474
1200.429, 5476.744
1200.911, 5513.271
1201.393, 5528.999
1201.875, 5528.515
1202.357, 5510.936
1202.839, 5487.512
1203.322, 5487.506
1203.804, 5503.509
1204.286, 5509.410
1204.768, 5500.686
1205.250, 5491.498
1205.732, 5490.075
1206.214, 5488.496
1206.696, 5479.328
1207.179, 5468.387
1207.661, 5457.537
1208.143, 5450.383
1208.625, 5456.622
1209.107, 5469.614
1209.589, 5467.239
1210.071, 5441.333
1210.553, 5425.723
1211.036, 5445.847
1211.518, 5455.439
1212.000, 5423.375
1212.482, 5394.548
1212.964, 5399.819
1213.446, 5425.616
1213.928, 5457.092
1214.410, 5492.816
1214.892, 5496.006
1215.375, 5449.950
1215.857, 5416.973
1216.339, 5404.154
1216.821, 5391.346
1217.303, 5368.027
1217.785, 5354.777
1218.267, 5371.893
1218.749, 5408.268
1219.231, 5438.725
1219.714, 5463.097
1220.196, 5471.727
1220.678, 5467.797
1221.160, 5498.735
1221.642, 5567.235
1222.124, 5596.848
1222.606, 5546.278
1223.088, 5471.741
1223.571, 5429.346
1224.053, 5409.111
1224.535, 5398.784
1225.017, 5396.955
1225.499, 5406.078
1225.981, 5420.378
1226.463, 5427.717
1226.945, 5424.872
1227.427, 5412.903
1227.910, 5382.816
1228.392, 5364.500
1228.874, 5385.524
1229.356, 5410.876
1229.838, 5419.768
1230.320, 5418.384
1230.802, 5411.604
1231.284, 5402.218
1231.766, 5397.479
1232.249, 5399.880
1232.731, 5400.642
1233.213, 5398.326
1233.695, 5396.301
1234.177, 5393.575
1234.659, 5395.266
1235.141, 5409.872
1235.623, 5420.000
1236.106, 5394.920
1236.588, 5344.351
1237.070, 5337.900
1237.552, 5376.756
1238.034, 5412.137
1238.516, 5440.109
1238.998, 5437.881
1239.480, 5399.453
1239.963, 5366.547
1240.445, 5372.696
1240.927, 5390.191
1241.409, 5373.509
1241.891, 5342.647
1242.373, 5330.929
1242.855, 5336.163
1243.337, 5364.824
1243.819, 5402.999
1244.302, 5401.801
1244.784, 5345.216
1245.266, 5307.887
1245.748, 5356.343
1246.230, 5403.770
1246.712, 5402.996
1247.194, 5387.181
1247.676, 5374.855
1248.158, 5367.253
1248.641, 5364.323
1249.123, 5365.685
1249.605, 5369.900
1250.087, 5383.097
1250.569, 5383.176
1251.051, 5363.147
1251.533, 5344.590
1252.015, 5331.762
1252.498, 5323.528
1252.980, 5318.996
1253.462, 5319.325
1253.944, 5328.908
1254.426, 5344.442
1254.908, 5340.295
1255.390, 5320.020
1255.872, 5323.800
1256.354, 5350.065
1256.837, 5349.607
1257.319, 5309.168
1257.801, 5273.426
1258.283, 5276.606
1258.765, 5295.557
1259.247, 5308.378
1259.729, 5317.757
1260.211, 5326.894
1260.693, 5334.919
1261.176, 5343.680
1261.658, 5349.336
1262.140, 5337.137
1262.622, 5300.978
1263.104, 5281.008
1263.586, 5302.319
1264.068, 5323.303
1264.550, 5340.453
1265.033, 5345.046
1265.515, 5322.110
1265.997, 5294.111
1266.479, 5286.845
1266.961, 5295.325
1267.443, 5296.304
1267.925, 5286.355
1268.407, 5291.366
1268.890, 5313.440
1269.372, 5330.671
1269.854, 5338.429
1270.336, 5335.033
##END=



