##NAMES=Rutile
##RRUFFID=R050417
##IDEAL CHEMISTRY=Ti^4+^O_2_
##LOCALITY=Champion mine, Mono County, California, USA
##OWNER=RRUFF
##SOURCE=Marcus Origlieri
##DESCRIPTION=Reddish black equant crystals
##STATUS=The identification of this mineral has been confirmed by X-ray diffraction and chemical analysis
##URL=rruff.info/R050417
##MEASURED CHEMISTRY=TiO_2_
91.87140, 0.0000000E+00
92.35352, 11.15428
92.83563, 10.99593
93.31775, 10.92878
93.79987, 10.91890
94.28198, 10.99584
94.76410, 11.25358
95.24622, 11.72670
95.72833, 12.37173
96.21045, 13.10990
96.69257, 13.94734
97.17468, 14.83330
97.65680, 15.69941
98.13892, 16.55078
98.62103, 17.46081
99.10315, 18.35695
99.58527, 19.29624
100.0674, 20.66892
100.5495, 22.52360
101.0316, 24.68003
101.5137, 26.88316
101.9958, 29.11370
102.4780, 31.50701
102.9601, 34.06437
103.4422, 36.76261
103.9243, 39.75657
104.4064, 43.04746
104.8885, 46.64750
105.3707, 50.67550
105.8528, 55.17180
106.3349, 59.99239
106.8170, 65.05204
107.2991, 70.33597
107.7813, 75.88560
108.2634, 81.64602
108.7455, 87.69318
109.2276, 94.05942
109.7097, 101.1541
110.1918, 108.3325
110.6740, 115.3387
111.1561, 122.2844
111.6382, 128.9253
112.1203, 135.0680
112.6024, 140.8443
113.0845, 146.7033
113.5667, 152.4415
114.0488, 158.4132
114.5309, 164.9267
115.0130, 172.1280
115.4951, 179.7441
115.9772, 187.8120
116.4594, 196.3891
116.9415, 205.1061
117.4236, 213.7070
117.9057, 222.4265
118.3878, 231.4764
118.8699, 241.4289
119.3521, 251.4680
119.8342, 261.2970
120.3163, 270.8978
120.7984, 280.2489
121.2805, 289.2030
121.7626, 297.9069
122.2448, 306.6116
122.7269, 316.3551
123.2090, 325.7115
123.6911, 333.0577
124.1732, 337.9457
124.6553, 341.9831
125.1375, 346.4039
125.6196, 351.1388
126.1017, 355.9685
126.5838, 360.8976
127.0659, 365.8172
127.5480, 370.5106
128.0302, 374.8976
128.5123, 379.2245
128.9944, 383.8502
129.4765, 388.7519
129.9586, 393.7168
130.4407, 398.4247
130.9229, 403.0175
131.4050, 408.1817
131.8871, 414.1334
132.3692, 420.5171
132.8513, 426.2271
133.3334, 430.5099
133.8156, 433.0742
134.2977, 435.4682
134.7798, 439.1445
135.2619, 442.6754
135.7440, 445.8277
136.2261, 448.5877
136.7083, 451.0369
137.1904, 453.1368
137.6725, 455.1392
138.1546, 457.5939
138.6367, 460.7903
139.1188, 462.9688
139.6010, 463.5358
140.0831, 462.4980
140.5652, 461.4465
141.0473, 460.2943
141.5294, 459.2165
142.0115, 458.5335
142.4937, 458.4980
142.9758, 458.2188
143.4579, 457.3973
143.9400, 455.9378
144.4221, 454.3348
144.9042, 452.4014
145.3864, 450.4007
145.8685, 448.8555
146.3506, 448.0335
146.8327, 447.2558
147.3148, 446.2636
147.7969, 444.8543
148.2791, 443.6992
148.7612, 442.8920
149.2433, 442.3335
149.7254, 441.7905
150.2075, 441.6242
150.6896, 441.1794
151.1718, 440.1741
151.6539, 437.5991
152.1360, 435.9441
152.6181, 435.8470
153.1002, 436.7892
153.5823, 437.2204
154.0645, 436.7028
154.5466, 435.8950
155.0287, 435.1020
155.5108, 434.3948
155.9929, 433.6299
156.4750, 432.6708
156.9572, 431.5921
157.4393, 430.7382
157.9214, 430.3410
158.4035, 430.0786
158.8856, 429.7486
159.3677, 429.3099
159.8499, 428.7968
160.3320, 427.9687
160.8141, 426.9481
161.2962, 426.4960
161.7783, 427.4508
162.2604, 428.8326
162.7426, 429.8331
163.2247, 429.9602
163.7068, 429.8839
164.1889, 429.7792
164.6710, 429.6657
165.1531, 429.7562
165.6353, 430.2552
166.1174, 430.9748
166.5995, 431.7128
167.0816, 432.2554
167.5637, 432.8892
168.0458, 433.9022
168.5280, 435.2827
169.0101, 436.5767
169.4922, 437.3151
169.9743, 437.8062
170.4564, 438.4771
170.9385, 439.2996
171.4207, 440.4935
171.9028, 442.5005
172.3849, 445.3698
172.8670, 448.1147
173.3491, 449.8404
173.8312, 450.9239
174.3134, 452.0911
174.7955, 453.7258
175.2776, 455.5869
175.7597, 457.4108
176.2418, 459.2051
176.7239, 460.9325
177.2061, 462.4305
177.6882, 463.8521
178.1703, 465.5753
178.6524, 467.9061
179.1345, 470.6490
179.6166, 473.5200
180.0988, 476.5711
180.5809, 479.5365
181.0630, 482.0791
181.5451, 484.2842
182.0272, 486.3852
182.5093, 488.4319
182.9915, 490.4907
183.4736, 492.7170
183.9557, 495.1733
184.4378, 497.6689
184.9199, 499.9816
185.4020, 502.0960
185.8842, 504.2246
186.3663, 506.2455
186.8484, 508.3227
187.3305, 511.0725
187.8126, 514.6963
188.2947, 518.6752
188.7769, 522.3052
189.2590, 525.5927
189.7411, 528.5975
190.2232, 531.4729
190.7053, 534.1570
191.1874, 536.1745
191.6696, 537.2899
192.1517, 538.1527
192.6338, 540.0810
193.1159, 543.1091
193.5980, 546.2932
194.0801, 548.9137
194.5623, 551.0306
195.0444, 553.8450
195.5265, 557.6799
196.0086, 561.9142
196.4907, 565.1118
196.9728, 567.1546
197.4550, 569.1229
197.9371, 571.6564
198.4192, 574.7601
198.9013, 578.0546
199.3834, 581.6353
199.8655, 585.2413
200.3477, 588.1819
200.8298, 590.3121
201.3119, 592.4057
201.7940, 594.9230
202.2761, 597.8822
202.7582, 601.1488
203.2404, 604.8699
203.7225, 608.7835
204.2046, 612.1007
204.6867, 614.7003
205.1688, 617.1516
205.6509, 619.6967
206.1331, 622.3107
206.6152, 625.3367
207.0973, 629.0059
207.5794, 633.0048
208.0615, 636.3604
208.5436, 638.9886
209.0258, 641.2079
209.5079, 643.0114
209.9900, 644.1702
210.4721, 645.9377
210.9542, 648.4640
211.4363, 651.6399
211.9185, 655.3074
212.4006, 659.8887
212.8827, 664.0594
213.3648, 666.6651
213.8469, 667.0901
214.3290, 668.3787
214.8112, 671.1031
215.2933, 674.7633
215.7754, 677.6055
216.2575, 679.2742
216.7396, 680.7930
217.2217, 682.7568
217.7039, 685.2856
218.1860, 687.8632
218.6681, 690.4219
219.1502, 692.9955
219.6323, 695.7689
220.1144, 699.0338
220.5966, 701.9709
221.0787, 703.9397
221.5608, 704.3684
222.0429, 705.4688
222.5250, 707.7756
223.0071, 710.8153
223.4893, 712.6236
223.9714, 712.5056
224.4535, 712.2978
224.9356, 713.0770
225.4177, 715.3946
225.8998, 717.3538
226.3820, 718.7122
226.8641, 719.6734
227.3462, 720.9072
227.8283, 722.5378
228.3104, 724.2363
228.7925, 725.8415
229.2747, 727.4518
229.7568, 728.7480
230.2389, 729.5875
230.7210, 730.1289
231.2031, 730.8792
231.6852, 731.9973
232.1674, 733.0778
232.6495, 733.9549
233.1316, 734.7520
233.6137, 735.0120
234.0958, 734.3589
234.5779, 733.2366
235.0601, 732.9461
235.5422, 733.9136
236.0243, 735.0996
236.5064, 736.1095
236.9885, 737.1154
237.4706, 737.5325
237.9528, 737.0981
238.4349, 736.1415
238.9170, 735.4821
239.3991, 735.2333
239.8812, 735.1097
240.3633, 735.0256
240.8455, 735.0838
241.3276, 734.9602
241.8097, 734.8539
242.2918, 734.4938
242.7739, 733.1629
243.2560, 730.1262
243.7382, 727.2620
244.2203, 725.3788
244.7024, 724.9993
245.1845, 724.1282
245.6666, 722.6160
246.1487, 720.6893
246.6309, 718.7148
247.1130, 716.5908
247.5951, 714.5816
248.0772, 712.9004
248.5593, 711.7907
249.0414, 710.0193
249.5236, 707.1700
250.0057, 703.9173
250.4878, 701.3444
250.9699, 699.7244
251.4520, 698.2930
251.9341, 696.9443
252.4163, 695.8156
252.8984, 693.9617
253.3805, 690.8652
253.8626, 687.4199
254.3447, 685.1631
254.8268, 684.8661
255.3090, 684.1127
255.7911, 682.1271
256.2732, 678.7444
256.7553, 675.4281
257.2374, 672.0106
257.7195, 668.8173
258.2017, 666.3435
258.6838, 664.9745
259.1659, 663.3870
259.6480, 661.0968
260.1301, 658.0788
260.6122, 655.6524
261.0944, 654.0552
261.5765, 652.7503
262.0586, 651.1497
262.5407, 649.1447
263.0228, 647.1907
263.5049, 645.5238
263.9871, 644.1006
264.4692, 641.9836
264.9513, 638.6918
265.4334, 635.4512
265.9155, 633.5844
266.3976, 633.7526
266.8798, 633.1191
267.3619, 630.9040
267.8440, 627.3529
268.3261, 624.6729
268.8082, 623.0891
269.2903, 621.9046
269.7725, 620.7119
270.2546, 619.6359
270.7367, 617.9823
271.2188, 615.4178
271.7009, 612.2570
272.1830, 609.8729
272.6652, 608.5166
273.1473, 607.2896
273.6294, 605.4730
274.1115, 602.9197
274.5936, 600.7224
275.0757, 599.0975
275.5579, 597.7936
276.0400, 596.1152
276.5221, 593.9857
277.0042, 591.7711
277.4863, 589.7572
277.9684, 587.9805
278.4506, 585.8021
278.9327, 583.0280
279.4148, 580.0251
279.8969, 577.7715
280.3790, 576.4318
280.8611, 574.7169
281.3433, 571.5334
281.8254, 566.8920
282.3075, 563.6061
282.7896, 562.0190
283.2717, 561.1873
283.7538, 559.6746
284.2360, 557.4662
284.7181, 555.0323
285.2002, 552.3384
285.6823, 549.4758
286.1644, 547.3865
286.6465, 546.2136
287.1287, 545.3519
287.6108, 544.2150
288.0929, 542.7873
288.5750, 540.8145
289.0571, 537.8864
289.5392, 534.3129
290.0214, 531.3810
290.5035, 529.1274
290.9856, 527.2842
291.4677, 525.7713
291.9498, 524.5134
292.4319, 523.0793
292.9141, 521.2479
293.3962, 519.1978
293.8783, 517.2769
294.3604, 515.4966
294.8425, 513.9363
295.3246, 512.7964
295.8068, 511.9481
296.2889, 510.9339
296.7710, 509.4933
297.2531, 508.0065
297.7352, 507.2090
298.2173, 507.0401
298.6995, 506.9548
299.1816, 506.5062
299.6637, 505.8580
300.1458, 505.4040
300.6279, 505.2875
301.1100, 505.1974
301.5922, 504.5542
302.0743, 503.5225
302.5564, 502.7894
303.0385, 502.9247
303.5206, 503.5385
304.0027, 504.0970
304.4849, 504.5213
304.9670, 504.8896
305.4491, 505.3829
305.9312, 505.8857
306.4133, 506.1211
306.8954, 505.6451
307.3776, 505.0114
307.8597, 504.8311
308.3418, 505.1795
308.8239, 505.6302
309.3060, 505.8353
309.7881, 505.9521
310.2703, 506.2172
310.7524, 506.9782
311.2345, 507.7492
311.7166, 505.7975
312.1987, 508.5735
312.6808, 510.2146
313.1630, 510.7818
313.6451, 507.0587
314.1272, 508.8757
314.6093, 508.4724
315.0914, 507.9781
315.5735, 510.5748
316.0557, 507.4758
316.5378, 510.0235
317.0199, 510.3170
317.5020, 511.6423
317.9841, 510.7336
318.4662, 510.5149
318.9484, 512.5308
319.4305, 513.3094
319.9126, 512.1436
320.3947, 513.5344
320.8768, 510.3572
321.3589, 511.1885
321.8411, 513.7493
322.3232, 512.6958
322.8053, 514.1274
323.2874, 514.6126
323.7695, 510.7963
324.2516, 514.4606
324.7338, 514.8899
325.2159, 511.9973
325.6980, 515.8391
326.1801, 517.3611
326.6622, 517.8093
327.1443, 513.9672
327.6265, 515.6652
328.1086, 515.1429
328.5907, 514.5295
329.0728, 517.0072
329.5549, 513.7891
330.0370, 516.2178
330.5192, 516.3923
331.0013, 517.5985
331.4834, 516.5708
331.9655, 516.2331
332.4476, 518.1300
332.9297, 518.7896
333.4119, 517.5047
333.8940, 518.3270
334.3761, 519.6097
334.8582, 520.2327
335.3403, 520.3859
335.8224, 519.9727
336.3046, 518.4821
336.7867, 518.0490
337.2688, 519.2143
337.7509, 521.0663
338.2330, 521.6336
338.7151, 520.4840
339.1973, 519.3949
339.6794, 519.1012
340.1615, 519.6482
340.6436, 520.1475
341.1257, 520.6302
341.6078, 521.0133
342.0900, 521.0673
342.5721, 520.7535
343.0542, 520.7421
343.5363, 521.3237
344.0184, 522.3649
344.5005, 523.3962
344.9827, 524.4503
345.4648, 525.2181
345.9469, 525.2083
346.4290, 524.5309
346.9111, 524.0031
347.3932, 523.6176
347.8754, 523.6553
348.3575, 525.1417
348.8396, 527.9118
349.3217, 530.2440
349.8038, 530.4578
350.2859, 529.3613
350.7681, 529.0266
351.2502, 529.8329
351.7323, 530.8627
352.2144, 530.9786
352.6965, 530.4322
353.1786, 529.9812
353.6608, 530.0775
354.1429, 530.4577
354.6250, 530.8947
355.1071, 531.3934
355.5892, 531.7094
356.0714, 531.3145
356.5535, 530.6989
357.0356, 530.5939
357.5177, 532.0471
357.9998, 533.4581
358.4819, 533.4465
358.9641, 532.2404
359.4462, 531.1014
359.9283, 530.4099
360.4104, 530.2121
360.8925, 530.6372
361.3746, 532.2075
361.8568, 533.5296
362.3389, 533.9001
362.8210, 533.5916
363.3031, 533.2402
363.7852, 532.9058
364.2673, 532.6779
364.7495, 532.6566
365.2316, 532.9557
365.7137, 533.0735
366.1958, 532.5898
366.6779, 531.9858
367.1600, 531.8232
367.6422, 532.5790
368.1243, 533.3551
368.6064, 534.0080
369.0885, 534.5363
369.5706, 534.9327
370.0527, 535.0833
370.5349, 535.1995
371.0170, 535.4366
371.4991, 535.9913
371.9812, 536.3383
372.4633, 536.3978
372.9454, 536.2316
373.4276, 536.0201
373.9097, 535.6520
374.3918, 535.4356
374.8739, 535.4918
375.3560, 535.8054
375.8381, 536.5181
376.3203, 537.8011
376.8024, 539.2455
377.2845, 540.0923
377.7666, 540.1619
378.2487, 540.5799
378.7308, 541.8484
379.2130, 543.8123
379.6951, 545.2877
380.1772, 546.2214
380.6593, 546.9868
381.1414, 548.0150
381.6235, 549.2471
382.1057, 550.1223
382.5878, 550.2716
383.0699, 550.3465
383.5520, 551.9167
384.0341, 554.8375
384.5162, 557.4770
384.9984, 558.4141
385.4805, 558.3954
385.9626, 559.1258
386.4447, 560.8721
386.9268, 562.8316
387.4089, 564.0922
387.8911, 564.9398
388.3732, 565.9904
388.8553, 567.6604
389.3374, 569.5696
389.8195, 571.2587
390.3016, 572.7285
390.7838, 574.4583
391.2659, 577.0457
391.7480, 579.9022
392.2301, 582.3983
392.7122, 584.0981
393.1943, 585.7823
393.6765, 587.8375
394.1586, 590.1754
394.6407, 592.4913
395.1228, 594.5548
395.6049, 596.6957
396.0870, 599.0989
396.5692, 601.7956
397.0513, 604.6920
397.5334, 607.9254
398.0155, 611.3126
398.4976, 614.5789
398.9797, 617.6979
399.4619, 620.7101
399.9440, 623.5518
400.4261, 626.2158
400.9082, 628.9948
401.3903, 631.4866
401.8724, 634.4560
402.3546, 638.5364
402.8367, 644.5058
403.3188, 649.7640
403.8009, 653.9851
404.2830, 657.4882
404.7651, 660.9650
405.2473, 664.1889
405.7294, 667.9495
406.2115, 672.7861
406.6936, 678.7012
407.1757, 684.1500
407.6578, 689.0395
408.1400, 693.7652
408.6221, 698.7590
409.1042, 704.0252
409.5863, 709.7374
410.0684, 716.2340
410.5505, 722.9670
411.0327, 728.8505
411.5148, 733.9294
411.9969, 738.8217
412.4790, 743.7372
412.9611, 748.8818
413.4432, 754.6993
413.9254, 761.3703
414.4075, 768.4944
414.8896, 775.9777
415.3717, 783.6215
415.8538, 790.9065
416.3359, 797.0682
416.8181, 803.0355
417.3002, 809.4358
417.7823, 816.3699
418.2644, 823.7255
418.7465, 831.9654
419.2286, 840.5175
419.7108, 848.7264
420.1929, 856.4047
420.6750, 863.8663
421.1571, 871.0722
421.6392, 878.1705
422.1213, 885.3693
422.6035, 892.4526
423.0856, 899.8529
423.5677, 908.0432
424.0498, 917.4602
424.5319, 926.0250
425.0140, 932.9794
425.4962, 939.3889
425.9783, 946.3649
426.4604, 954.5130
426.9425, 962.3561
427.4246, 969.4112
427.9067, 975.9412
428.3889, 983.3739
428.8710, 992.1374
429.3531, 1001.022
429.8352, 1009.526
430.3173, 1017.515
430.7994, 1025.192
431.2816, 1032.576
431.7637, 1039.580
432.2458, 1045.693
432.7279, 1050.830
433.2100, 1056.262
433.6921, 1062.462
434.1743, 1069.302
434.6564, 1076.523
435.1385, 1084.251
435.6206, 1091.252
436.1027, 1096.265
436.5848, 1099.745
437.0670, 1102.878
437.5491, 1105.852
438.0312, 1108.690
438.5133, 1111.629
438.9954, 1114.531
439.4775, 1116.993
439.9597, 1118.775
440.4418, 1120.074
440.9239, 1121.070
441.4060, 1121.785
441.8881, 1122.118
442.3702, 1121.586
442.8524, 1120.844
443.3345, 1120.557
443.8166, 1122.579
444.2987, 1123.095
444.7808, 1120.318
445.2629, 1115.045
445.7451, 1109.586
446.2272, 1104.878
446.7093, 1099.755
447.1914, 1093.604
447.6735, 1085.879
448.1556, 1078.832
448.6378, 1073.553
449.1199, 1068.283
449.6020, 1061.159
450.0841, 1051.667
450.5662, 1041.718
451.0483, 1031.550
451.5305, 1021.112
452.0126, 1010.452
452.4947, 999.4824
452.9768, 988.2947
453.4589, 976.7350
453.9410, 964.6890
454.4232, 952.9993
454.9053, 941.6146
455.3874, 930.2458
455.8695, 918.3024
456.3516, 905.7900
456.8337, 893.2201
457.3159, 880.4566
457.7980, 867.8015
458.2801, 855.7302
458.7622, 844.2587
459.2443, 833.0325
459.7264, 822.5137
460.2086, 811.9440
460.6907, 800.1924
461.1728, 786.8239
461.6549, 773.7299
462.1370, 762.8668
462.6191, 753.2145
463.1013, 743.5281
463.5834, 732.9788
464.0655, 722.6075
464.5476, 712.9799
465.0297, 704.0865
465.5118, 695.3615
465.9940, 686.9335
466.4761, 678.5997
466.9582, 670.2833
467.4403, 661.7142
467.9224, 653.4662
468.4045, 645.6464
468.8867, 638.1414
469.3688, 630.6243
469.8509, 622.9745
470.3330, 615.7881
470.8151, 609.3076
471.2972, 603.4713
471.7794, 597.6009
472.2615, 591.5899
472.7436, 585.6944
473.2257, 580.0282
473.7078, 574.5684
474.1899, 569.5467
474.6721, 565.0267
475.1542, 560.7224
475.6363, 556.2048
476.1184, 551.5089
476.6005, 546.8577
477.0826, 542.1505
477.5648, 537.6594
478.0469, 533.8635
478.5290, 530.7092
479.0111, 527.7107
479.4932, 524.5777
479.9753, 521.3869
480.4575, 518.1870
480.9396, 514.9269
481.4217, 511.8396
481.9038, 509.2129
482.3859, 506.8655
482.8680, 504.5660
483.3502, 502.3219
483.8323, 500.0247
484.3144, 497.5777
484.7965, 495.0110
485.2786, 492.5033
485.7607, 489.5450
486.2429, 487.1057
486.7250, 485.7626
487.2071, 486.4044
487.6892, 486.2706
488.1713, 485.2337
488.6534, 483.5194
489.1356, 481.2372
489.6177, 477.9328
490.0998, 475.4510
490.5819, 474.4599
491.0640, 474.6051
491.5461, 473.9916
492.0283, 472.5159
492.5104, 471.0849
492.9925, 470.4501
493.4746, 470.4433
493.9567, 470.1838
494.4388, 469.5510
494.9210, 468.9243
495.4031, 468.8001
495.8852, 469.0115
496.3673, 469.1421
496.8494, 468.9642
497.3315, 468.6871
497.8137, 468.4670
498.2958, 468.2998
498.7779, 468.1986
499.2600, 468.1851
499.7421, 468.2246
500.2242, 468.3212
500.7064, 468.5091
501.1885, 468.6173
501.6706, 468.4662
502.1527, 468.2787
502.6348, 468.2831
503.1169, 468.8990
503.5991, 469.2530
504.0812, 469.1293
504.5633, 468.6699
505.0454, 468.3590
505.5275, 468.1168
506.0096, 468.1792
506.4918, 468.7420
506.9739, 469.8745
507.4560, 470.6553
507.9381, 470.9887
508.4202, 471.2216
508.9023, 471.7906
509.3845, 472.6638
509.8666, 473.2705
510.3487, 473.4577
510.8308, 473.4229
511.3129, 473.4039
511.7950, 473.4261
512.2772, 473.6002
512.7593, 474.0096
513.2414, 474.5913
513.7235, 475.3613
514.2056, 476.3024
514.6877, 477.1278
515.1699, 477.4007
515.6520, 477.6002
516.1341, 478.2450
516.6162, 479.8771
517.0983, 481.1049
517.5804, 481.1873
518.0626, 480.6326
518.5447, 480.2775
519.0268, 480.2548
519.5089, 480.4457
519.9910, 480.9577
520.4731, 481.7516
520.9553, 482.1804
521.4374, 482.0934
521.9195, 481.8665
522.4016, 481.6503
522.8837, 481.3971
523.3658, 481.4856
523.8480, 482.0145
524.3301, 482.7010
524.8122, 483.2241
525.2943, 483.5849
525.7764, 483.7070
526.2585, 483.4360
526.7407, 483.0770
527.2228, 483.2739
527.7049, 483.9409
528.1870, 484.5614
528.6691, 484.5111
529.1512, 484.4073
529.6334, 485.1473
530.1155, 486.8248
530.5976, 488.3337
531.0797, 488.8798
531.5618, 488.9978
532.0439, 489.2042
532.5261, 489.6284
533.0082, 490.1392
533.4903, 490.7597
533.9724, 491.4362
534.4545, 492.0764
534.9366, 492.8545
535.4188, 493.3713
535.9009, 493.3530
536.3830, 492.8286
536.8651, 492.9340
537.3472, 493.7978
537.8293, 495.0523
538.3115, 496.6211
538.7936, 498.5616
539.2757, 499.9418
539.7578, 500.5957
540.2399, 501.0153
540.7220, 501.8846
541.2042, 503.1234
541.6863, 504.3427
542.1684, 505.4660
542.6505, 506.4671
543.1326, 507.1043
543.6147, 507.5209
544.0969, 508.3022
544.5790, 509.8902
545.0611, 511.8932
545.5432, 514.1323
546.0253, 516.6010
546.5074, 518.8111
546.9896, 520.1844
547.4717, 521.3998
547.9538, 523.0111
548.4359, 525.4694
548.9180, 527.8467
549.4001, 530.0499
549.8823, 532.1577
550.3644, 534.2752
550.8465, 536.3417
551.3286, 538.5884
551.8107, 541.1005
552.2928, 543.8646
552.7750, 546.6808
553.2571, 549.5704
553.7392, 552.4854
554.2213, 555.4377
554.7034, 558.3847
555.1855, 561.1869
555.6677, 563.8080
556.1498, 566.4922
556.6319, 569.4832
557.1140, 572.7025
557.5961, 575.9553
558.0782, 579.1174
558.5604, 582.4174
559.0425, 585.9024
559.5246, 589.6401
560.0067, 593.7747
560.4888, 598.8188
560.9709, 603.8229
561.4531, 608.1014
561.9352, 611.6599
562.4173, 615.7402
562.8994, 620.9922
563.3815, 626.4212
563.8636, 631.6454
564.3458, 636.7473
564.8279, 641.2166
565.3100, 644.6124
565.7921, 647.9987
566.2742, 652.8856
566.7563, 659.4754
567.2385, 665.8255
567.7206, 671.4180
568.2027, 676.6282
568.6848, 681.9710
569.1669, 687.4998
569.6490, 693.0795
570.1312, 698.4357
570.6133, 703.9718
571.0954, 710.3562
571.5775, 717.6281
572.0596, 724.8969
572.5417, 731.2421
573.0239, 737.6391
573.5060, 744.9937
573.9881, 754.0528
574.4702, 762.6371
574.9523, 769.7056
575.4344, 776.2018
575.9166, 783.2205
576.3987, 790.9739
576.8808, 799.2846
577.3629, 808.5685
577.8450, 818.4013
578.3271, 827.4030
578.8093, 835.2069
579.2914, 843.1621
579.7735, 851.6777
580.2556, 860.6519
580.7377, 870.5394
581.2198, 881.3730
581.7020, 892.1404
582.1841, 901.8627
582.6662, 910.8415
583.1483, 919.9432
583.6304, 929.1097
584.1125, 938.5576
584.5947, 948.3820
585.0768, 958.6185
585.5589, 969.3345
586.0410, 981.1630
586.5231, 992.8226
587.0052, 1003.393
587.4874, 1013.365
587.9695, 1023.825
588.4516, 1035.212
588.9337, 1047.040
589.4158, 1059.312
589.8979, 1072.037
590.3801, 1084.386
590.8622, 1095.986
591.3443, 1107.906
591.8264, 1120.867
592.3085, 1135.003
592.7906, 1148.605
593.2728, 1161.595
593.7549, 1174.160
594.2370, 1186.383
594.7191, 1198.496
595.2012, 1211.282
595.6833, 1225.384
596.1655, 1239.503
596.6476, 1252.239
597.1297, 1263.830
597.6118, 1275.135
598.0939, 1286.685
598.5760, 1297.931
599.0582, 1308.580
599.5403, 1318.530
600.0224, 1328.423
600.5045, 1338.639
600.9866, 1348.646
601.4688, 1358.422
601.9509, 1368.146
602.4330, 1376.950
602.9151, 1384.754
603.3972, 1391.664
603.8793, 1397.581
604.3615, 1402.442
604.8436, 1407.337
605.3257, 1412.534
605.8078, 1417.306
606.2899, 1420.305
606.7720, 1421.743
607.2542, 1422.574
607.7363, 1423.354
608.2184, 1423.467
608.7005, 1422.386
609.1826, 1420.056
609.6647, 1416.328
610.1469, 1410.381
610.6290, 1403.569
611.1111, 1397.102
611.5932, 1391.033
612.0753, 1383.416
612.5574, 1372.969
613.0396, 1361.466
613.5217, 1349.986
614.0038, 1338.651
614.4859, 1326.761
614.9680, 1314.365
615.4501, 1301.333
615.9323, 1287.436
616.4144, 1272.704
616.8965, 1257.379
617.3786, 1241.422
617.8607, 1225.244
618.3428, 1209.892
618.8250, 1195.056
619.3071, 1179.443
619.7892, 1161.859
620.2713, 1143.648
620.7534, 1126.262
621.2355, 1109.410
621.7177, 1092.421
622.1998, 1074.593
622.6819, 1056.848
623.1640, 1039.527
623.6461, 1022.686
624.1282, 1006.195
624.6104, 990.1512
625.0925, 974.3219
625.5746, 958.6310
626.0567, 942.9491
626.5388, 927.1483
627.0209, 911.1396
627.5031, 895.3953
627.9852, 880.6495
628.4673, 866.9802
628.9494, 853.7145
629.4315, 840.7831
629.9136, 827.9811
630.3958, 815.0016
630.8779, 801.9838
631.3600, 789.5113
631.8421, 778.4608
632.3242, 767.5985
632.8063, 755.6479
633.2885, 742.9797
633.7706, 731.0626
634.2527, 720.6865
634.7348, 710.9824
635.2169, 701.5931
635.6990, 692.6904
636.1812, 683.2737
636.6633, 672.7230
637.1454, 662.3961
637.6275, 653.5014
638.1096, 646.1941
638.5917, 638.6877
639.0739, 630.7678
639.5560, 622.8146
640.0381, 615.0813
640.5202, 607.5707
641.0023, 600.5211
641.4844, 593.9747
641.9666, 587.7670
642.4487, 581.6995
642.9308, 575.6686
643.4129, 569.5496
643.8950, 562.6111
644.3771, 556.1682
644.8593, 551.0667
645.3414, 547.0947
645.8235, 542.7736
646.3056, 537.3942
646.7877, 532.2444
647.2698, 527.9202
647.7520, 524.4280
648.2341, 520.3868
648.7162, 515.6049
649.1983, 510.8164
649.6804, 506.5813
650.1625, 502.8629
650.6447, 499.4241
651.1268, 496.2956
651.6089, 493.1621
652.0910, 489.4033
652.5731, 485.5305
653.0552, 482.5371
653.5374, 481.0941
654.0195, 479.5731
654.5016, 476.6577
654.9837, 473.0760
655.4658, 469.8800
655.9479, 467.5977
656.4301, 465.4543
656.9122, 463.3019
657.3943, 461.1612
657.8764, 459.1101
658.3585, 457.1635
658.8406, 455.2205
659.3228, 453.2041
659.8049, 451.1469
660.2870, 449.3463
660.7691, 447.7974
661.2512, 446.3802
661.7333, 445.1421
662.2155, 443.9456
662.6976, 442.4497
663.1797, 440.6523
663.6618, 438.9935
664.1439, 437.9086
664.6260, 437.0232
665.1082, 436.0097
665.5903, 434.8080
666.0724, 433.5696
666.5545, 432.5009
667.0366, 431.3324
667.5187, 429.7752
668.0009, 427.3712
668.4830, 425.6208
668.9651, 424.8863
669.4472, 424.5475
669.9293, 423.4855
670.4114, 421.6905
670.8936, 420.2682
671.3757, 419.6083
671.8578, 419.3152
672.3399, 418.7626
672.8220, 418.0036
673.3041, 417.2404
673.7863, 416.5034
674.2684, 415.8459
674.7505, 415.2714
675.2326, 414.7928
675.7147, 414.4962
676.1968, 414.7342
676.6790, 414.8463
677.1611, 414.6046
677.6432, 414.0214
678.1253, 412.8624
678.6074, 410.6937
679.0895, 408.7810
679.5717, 408.1981
680.0538, 408.9409
680.5359, 408.8139
681.0180, 407.6843
681.5001, 406.4124
681.9822, 406.0858
682.4644, 406.2036
682.9465, 405.6105
683.4286, 403.8787
683.9107, 402.3353
684.3928, 402.2764
684.8749, 402.7927
685.3571, 402.7790
685.8392, 401.3909
686.3213, 400.1516
686.8034, 399.4194
687.2855, 398.9279
687.7676, 398.2531
688.2498, 397.2951
688.7319, 396.3969
689.2140, 395.6357
689.6961, 394.9688
690.1782, 394.2787
690.6603, 393.5732
691.1425, 392.9716
691.6246, 392.6499
692.1067, 392.3791
692.5888, 391.8712
693.0709, 391.1212
693.5530, 390.0909
694.0352, 388.3223
694.5173, 386.6273
694.9994, 385.5436
695.4815, 385.1137
695.9636, 384.7831
696.4457, 384.7500
696.9279, 384.5114
697.4100, 383.7560
697.8921, 382.3629
698.3742, 381.2785
698.8563, 380.5756
699.3384, 379.9567
699.8206, 379.3103
700.3027, 378.5598
700.7848, 377.1294
701.2669, 374.8546
701.7490, 372.7094
702.2311, 371.6880
702.7133, 371.3550
703.1954, 371.2072
703.6775, 371.4907
704.1596, 371.1468
704.6417, 369.0849
705.1238, 366.3905
705.6060, 364.6245
706.0881, 364.4612
706.5702, 364.2457
707.0523, 364.0020
707.5344, 363.4936
708.0165, 362.0229
708.4987, 359.5111
708.9808, 357.3748
709.4629, 356.1474
709.9450, 355.3985
710.4271, 354.3987
710.9092, 353.1931
711.3914, 351.9097
711.8735, 350.6476
712.3556, 349.3245
712.8377, 347.7370
713.3198, 345.9755
713.8019, 344.5197
714.2841, 343.6712
714.7662, 342.9760
715.2483, 342.4197
715.7304, 341.9803
716.2125, 340.8548
716.6946, 338.7566
717.1768, 336.7370
717.6589, 335.5870
718.1410, 335.1382
718.6231, 334.0305
719.1052, 332.2307
719.5873, 330.6124
720.0695, 330.1803
720.5516, 330.1646
721.0337, 329.5181
721.5158, 328.0594
721.9979, 326.4988
722.4800, 325.1055
722.9622, 323.7684
723.4443, 322.3784
723.9264, 320.7950
724.4085, 319.4447
724.8906, 318.3356
725.3727, 317.4301
725.8549, 316.8172
726.3370, 316.5385
726.8191, 315.7513
727.3012, 314.2936
727.7833, 312.5796
728.2654, 310.9344
728.7476, 309.4847
729.2297, 308.6512
729.7118, 308.9970
730.1939, 309.0507
730.6760, 307.4098
731.1581, 304.9412
731.6403, 302.9544
732.1224, 302.0694
732.6045, 301.3288
733.0866, 300.7344
733.5687, 300.1468
734.0508, 299.1865
734.5330, 297.6894
735.0151, 296.5501
735.4972, 296.1534
735.9793, 296.0757
736.4614, 295.2908
736.9435, 293.9199
737.4257, 292.5858
737.9078, 291.5238
738.3899, 290.6900
738.8720, 290.1906
739.3541, 289.9178
739.8362, 289.5045
740.3184, 288.8336
740.8005, 287.9789
741.2826, 286.7789
741.7647, 285.3178
742.2468, 284.3858
742.7289, 284.1535
743.2111, 284.0262
743.6932, 283.7674
744.1753, 283.3870
744.6574, 282.9679
745.1395, 282.5110
745.6216, 281.8980
746.1038, 280.9098
746.5859, 279.8020
747.0680, 278.8781
747.5501, 278.1516
748.0322, 277.5743
748.5143, 277.2541
748.9965, 276.9755
749.4786, 276.5655
749.9607, 275.9425
750.4428, 275.5783
750.9249, 275.5801
751.4070, 275.6467
751.8892, 275.6006
752.3713, 275.4411
752.8534, 275.1023
753.3355, 274.5606
753.8176, 274.0269
754.2997, 273.7863
754.7819, 273.6524
755.2640, 273.2655
755.7461, 272.5123
756.2282, 271.9247
756.7103, 271.9901
757.1924, 272.2304
757.6746, 272.2070
758.1567, 271.5082
758.6388, 271.2805
759.1209, 271.6729
759.6030, 272.3523
760.0851, 273.0226
760.5673, 273.6893
761.0494, 274.2548
761.5315, 274.6973
762.0136, 275.0688
762.4957, 275.2245
762.9778, 275.3918
763.4600, 276.1154
763.9421, 277.8614
764.4242, 279.3398
764.9063, 279.7512
765.3884, 279.5313
765.8705, 279.2030
766.3527, 278.3117
766.8348, 278.1599
767.3169, 279.2211
767.7990, 280.6691
768.2811, 281.1865
768.7632, 280.7258
769.2454, 280.2988
769.7275, 280.0511
770.2096, 280.0646
770.6917, 280.4591
771.1738, 281.2018
771.6559, 282.2561
772.1381, 283.8378
772.6202, 285.3926
773.1023, 286.8803
773.5844, 288.0809
774.0665, 288.5626
774.5486, 287.6693
775.0308, 286.9496
775.5129, 286.6441
775.9950, 286.5883
776.4771, 286.2082
776.9592, 285.4616
777.4413, 285.7614
777.9235, 288.0106
778.4056, 290.7309
778.8877, 291.5352
779.3698, 290.9644
779.8519, 290.4057
780.3340, 290.4667
780.8162, 290.7048
781.2983, 290.8590
781.7804, 291.0309
782.2625, 291.5336
782.7446, 292.7036
783.2267, 293.6437
783.7089, 294.1163
784.1910, 294.2724
784.6731, 294.4795
785.1552, 294.7382
785.6373, 295.2731
786.1194, 296.4798
786.6016, 297.6566
787.0837, 297.5441
787.5658, 296.5215
788.0479, 295.6329
788.5300, 295.3403
789.0121, 295.3239
789.4943, 295.5497
789.9764, 295.9599
790.4585, 296.3475
790.9406, 296.7404
791.4227, 297.0410
791.9048, 297.2339
792.3870, 297.3051
792.8691, 297.0732
793.3512, 296.5732
793.8333, 296.3823
794.3154, 297.1131
794.7975, 298.0079
795.2797, 298.0742
795.7618, 297.5138
796.2439, 296.9652
796.7260, 296.7206
797.2081, 296.5070
797.6902, 296.3189
798.1724, 296.0975
798.6545, 295.5529
799.1366, 294.5213
799.6187, 293.6201
800.1008, 293.0920
800.5829, 292.8091
801.0651, 292.4720
801.5472, 292.0604
802.0293, 291.4312
802.5114, 290.1877
802.9935, 288.9433
803.4756, 288.5215
803.9578, 288.6162
804.4399, 288.2156
804.9220, 286.4880
805.4041, 284.7864
805.8862, 283.4964
806.3683, 282.5415
806.8505, 281.7295
807.3326, 281.1946
807.8147, 280.0576
808.2968, 277.5883
808.7789, 274.6320
809.2610, 273.3038
809.7432, 273.2510
810.2253, 273.0320
810.7074, 271.8045
811.1895, 270.2531
811.6716, 268.7737
812.1537, 267.3232
812.6359, 265.6993
813.1180, 263.5475
813.6001, 261.6772
814.0822, 260.3662
814.5643, 259.4358
815.0464, 258.3251
815.5286, 257.0421
816.0107, 255.4586
816.4928, 253.2907
816.9749, 251.0369
817.4570, 249.5105
817.9391, 248.5404
818.4213, 247.5871
818.9034, 246.7649
819.3855, 245.5457
819.8676, 243.3446
820.3497, 240.5469
820.8318, 238.5422
821.3140, 237.8460
821.7961, 236.7075
822.2782, 234.4293
822.7603, 231.7005
823.2424, 230.2863
823.7245, 229.9822
824.2067, 229.5251
824.6888, 228.4435
825.1709, 226.9351
825.6530, 224.9222
826.1351, 222.6158
826.6172, 220.5505
827.0994, 219.0602
827.5815, 217.5695
828.0636, 215.9423
828.5457, 214.2473
829.0278, 212.5665
829.5099, 210.8993
829.9921, 209.3207
830.4742, 207.8596
830.9563, 206.4823
831.4384, 205.1851
831.9205, 203.9141
832.4026, 202.5180
832.8848, 200.8309
833.3669, 199.1366
833.8490, 197.6043
834.3311, 196.1475
834.8132, 194.6119
835.2953, 192.9022
835.7775, 191.2942
836.2596, 189.8978
836.7417, 188.5203
837.2238, 186.7582
837.7059, 184.6520
838.1880, 182.8008
838.6702, 181.3595
839.1523, 180.0989
839.6344, 178.8294
840.1165, 177.5734
840.5986, 176.3999
841.0807, 175.5354
841.5629, 174.3969
842.0450, 172.6797
842.5271, 170.7802
843.0092, 169.0824
843.4913, 167.6116
843.9734, 166.2294
844.4556, 164.9529
844.9377, 163.6559
845.4198, 162.0517
845.9019, 160.3466
846.3840, 158.9966
846.8661, 158.1670
847.3483, 157.3118
847.8304, 156.0275
848.3125, 154.6364
848.7946, 153.4440
849.2767, 152.6127
849.7589, 151.6040
850.2410, 150.2973
850.7231, 149.0402
851.2052, 148.2825
851.6873, 147.9060
852.1694, 146.9924
852.6516, 145.4565
853.1337, 143.9481
853.6158, 143.0174
854.0979, 142.3466
854.5800, 141.6182
855.0621, 140.7804
855.5443, 140.0066
856.0264, 139.4399
856.5085, 138.8395
856.9906, 138.0923
857.4727, 137.2033
857.9548, 136.2816
858.4370, 135.3235
858.9191, 134.3582
859.4012, 133.4029
859.8833, 132.4419
860.3654, 131.3690
860.8475, 130.2259
861.3297, 129.3448
861.8118, 129.1345
862.2939, 128.9711
862.7760, 128.5278
863.2581, 127.8426
863.7402, 127.1708
864.2224, 126.5037
864.7045, 125.8969
865.1866, 125.4360
865.6687, 125.0062
866.1508, 124.2264
866.6329, 123.1878
867.1151, 122.3171
867.5972, 121.9066
868.0793, 121.6609
868.5614, 121.5935
869.0435, 121.5612
869.5256, 121.0963
870.0078, 119.8679
870.4899, 118.7747
870.9720, 117.9810
871.4541, 117.4017
871.9362, 116.8618
872.4183, 116.3623
872.9005, 115.9165
873.3826, 115.5630
873.8647, 115.1932
874.3468, 114.6553
874.8289, 114.0449
875.3110, 113.5133
875.7932, 113.1276
876.2753, 112.8071
876.7574, 112.5958
877.2395, 112.3955
877.7216, 112.1009
878.2037, 111.7143
878.6859, 111.1726
879.1680, 110.4351
879.6501, 109.7009
880.1322, 109.1512
880.6143, 108.7495
881.0964, 108.4849
881.5786, 108.4081
882.0607, 108.2179
882.5428, 107.6627
883.0249, 107.0709
883.5070, 106.6816
883.9891, 106.5330
884.4713, 106.3346
884.9534, 106.0767
885.4355, 105.8237
885.9176, 105.6990
886.3997, 105.5913
886.8818, 105.2177
887.3640, 104.5905
887.8461, 104.0198
888.3282, 103.7062
888.8103, 103.4728
889.2924, 103.2501
889.7745, 103.0302
890.2567, 102.7584
890.7388, 102.4256
891.2209, 102.0744
891.7030, 101.7103
892.1851, 101.3470
892.6672, 101.0371
893.1494, 100.7583
893.6315, 100.4217
894.1136, 99.85546
894.5957, 99.34106
895.0778, 99.06212
895.5599, 98.95383
896.0421, 98.86852
896.5242, 98.89206
897.0063, 98.72804
897.4884, 98.29192
897.9705, 97.70178
898.4526, 97.04819
898.9348, 96.40594
899.4169, 96.19579
899.8990, 96.67996
900.3811, 97.13196
900.8632, 96.93749
901.3453, 96.40517
901.8275, 95.87756
902.3096, 95.40269
902.7917, 94.97689
903.2738, 94.57111
903.7559, 94.24934
904.2380, 94.11192
904.7202, 94.13217
905.2023, 94.04845
905.6844, 93.84338
906.1665, 93.65703
906.6486, 93.71175
907.1307, 93.76645
907.6129, 93.36340
908.0950, 92.40535
908.5771, 92.45090
909.0592, 94.88853
909.5413, 96.67023
910.0234, 96.31730
910.5056, 94.22629
910.9877, 92.77353
911.4698, 91.94063
911.9519, 91.37654
912.4340, 90.88273
912.9161, 90.56321
913.3983, 90.74256
913.8804, 91.19785
914.3625, 91.30856
914.8446, 90.52946
915.3267, 89.85368
915.8088, 89.42061
916.2910, 89.20556
916.7731, 89.22841
917.2552, 89.48183
917.7373, 89.66000
918.2194, 89.70509
918.7015, 89.61925
919.1837, 89.30711
919.6658, 88.90449
920.1479, 88.61157
920.6300, 88.57856
921.1121, 88.41455
921.5942, 87.87679
922.0764, 87.39344
922.5585, 87.42281
923.0406, 87.99734
923.5227, 87.99460
924.0048, 87.35152
924.4869, 86.69047
924.9691, 86.56404
925.4512, 86.66075
925.9333, 86.66718
926.4154, 86.55836
926.8975, 86.36381
927.3796, 85.91499
927.8618, 85.58347
928.3439, 85.54418
928.8260, 85.71992
929.3081, 85.70529
929.7902, 85.50304
930.2723, 85.24902
930.7545, 85.00000
931.2366, 84.73624
931.7187, 84.35708
932.2008, 83.96046
932.6829, 83.74744
933.1650, 84.10413
933.6472, 84.19443
934.1293, 83.76395
934.6114, 83.16487
935.0935, 82.93628
935.5756, 83.07188
936.0577, 83.07669
936.5399, 82.87167
937.0220, 82.60866
937.5041, 82.47135
937.9862, 82.34378
938.4683, 82.05613
938.9504, 81.52563
939.4326, 81.14281
939.9147, 81.06284
940.3968, 81.02980
940.8789, 80.91541
941.3610, 80.72600
941.8431, 80.51610
942.3253, 80.28713
942.8074, 80.13195
943.2895, 80.24210
943.7716, 80.34663
944.2537, 80.16904
944.7358, 79.76686
945.2180, 79.36604
945.7001, 78.86375
946.1822, 78.60748
946.6643, 78.78049
947.1464, 79.11806
947.6285, 79.00461
948.1107, 78.50540
948.5928, 78.11296
949.0749, 77.95963
949.5570, 77.91491
950.0391, 77.97740
950.5212, 78.02647
951.0034, 77.90512
951.4855, 77.44404
951.9676, 77.15144
952.4497, 77.07600
952.9318, 77.09418
953.4139, 77.15958
953.8961, 77.24660
954.3782, 77.18851
954.8603, 76.98900
955.3424, 76.75523
955.8245, 76.58892
956.3066, 76.38755
956.7888, 75.99751
957.2709, 75.46738
957.7530, 75.20124
958.2351, 75.33884
958.7172, 75.42905
959.1993, 75.34196
959.6815, 75.14827
960.1636, 75.01440
960.6457, 74.90649
961.1278, 74.69611
961.6099, 74.24027
962.0920, 73.88045
962.5742, 73.91549
963.0563, 74.09293
963.5384, 74.12067
964.0205, 73.93369
964.5026, 73.76833
964.9847, 73.63916
965.4669, 73.48927
965.9490, 73.22374
966.4311, 72.91438
966.9132, 72.69566
967.3953, 72.57621
967.8774, 72.52026
968.3596, 72.54648
968.8417, 72.59987
969.3238, 72.70988
969.8059, 72.83089
970.2880, 72.70827
970.7701, 72.30502
971.2523, 71.97141
971.7344, 71.87099
972.2165, 71.81430
972.6986, 71.40893
973.1807, 70.86491
973.6628, 70.59980
974.1450, 70.96629
974.6271, 71.23894
975.1092, 71.24257
975.5913, 71.13680
976.0734, 71.08131
976.5555, 71.08091
977.0377, 70.88770
977.5198, 70.48103
978.0019, 70.12424
978.4840, 70.11610
978.9661, 70.20493
979.4482, 70.12256
979.9304, 69.86364
980.4125, 69.65715
980.8946, 69.57658
981.3767, 69.48591
981.8588, 69.33709
982.3409, 69.15646
982.8231, 69.02047
983.3052, 68.92134
983.7873, 68.81957
984.2694, 68.69460
984.7515, 68.57375
985.2336, 68.43279
985.7158, 68.32536
986.1979, 68.33830
986.6800, 68.59164
987.1621, 68.69939
987.6442, 68.66813
988.1263, 68.46909
988.6085, 67.92031
989.0906, 67.22033
989.5727, 66.91433
990.0548, 66.99583
990.5369, 67.10534
991.0190, 67.05667
991.5012, 66.99386
991.9833, 67.04620
992.4654, 67.14058
992.9475, 66.86742
993.4296, 66.13101
993.9117, 66.01445
994.3939, 67.03130
994.8760, 68.37613
995.3581, 69.10957
995.8402, 69.37944
996.3223, 69.39504
996.8044, 68.89832
997.2866, 68.87421
997.7687, 69.87847
998.2508, 70.87530
998.7329, 71.22234
999.2150, 70.90974
999.6971, 69.34383
1000.179, 66.60506
1000.661, 64.29739
1001.143, 63.80196
1001.626, 63.95192
1002.108, 63.98731
1002.590, 63.88480
1003.072, 63.70258
1003.554, 63.34809
1004.036, 63.19285
1004.518, 63.40168
1005.000, 63.68055
1005.483, 63.42868
1005.965, 62.84664
1006.447, 62.47821
1006.929, 62.48250
1007.411, 62.57245
1007.893, 62.70582
1008.375, 62.78400
1008.857, 62.58840
1009.339, 62.03072
1009.822, 62.79638
1010.304, 65.05848
1010.786, 66.71634
1011.268, 65.87045
1011.750, 64.04483
1012.232, 63.02412
1012.714, 62.63579
1013.196, 62.34035
1013.679, 61.98019
1014.161, 61.70301
1014.643, 61.55071
1015.125, 61.46797
1015.607, 61.43438
1016.089, 61.41877
1016.571, 61.16603
1017.053, 60.61446
1017.535, 60.12238
1018.018, 60.07012
1018.500, 60.10624
1018.982, 59.86141
1019.464, 59.30781
1019.946, 59.27011
1020.428, 59.94986
1020.910, 60.38743
1021.392, 60.04099
1021.875, 59.34480
1022.357, 59.16293
1022.839, 59.30362
1023.321, 59.31962
1023.803, 58.92220
1024.285, 58.55833
1024.767, 58.30286
1025.249, 58.15181
1025.731, 58.10320
1026.214, 58.15582
1026.696, 58.40855
1027.178, 58.87589
1027.660, 59.23200
1028.142, 59.19916
1028.624, 58.96717
1029.106, 58.60535
1029.588, 58.16265
1030.071, 57.93657
1030.553, 58.07735
1031.035, 58.09443
1031.517, 57.82714
1031.999, 57.44910
1032.481, 57.25035
1032.963, 57.19120
1033.445, 57.19455
1033.927, 57.28719
1034.410, 57.26686
1034.892, 56.88247
1035.374, 56.48962
1035.856, 56.34679
1036.338, 56.45898
1036.820, 56.53895
1037.302, 56.58583
1037.784, 56.59027
1038.266, 56.55719
1038.749, 56.46967
1039.231, 56.21491
1039.713, 55.89995
1040.195, 55.80026
1040.677, 56.21156
1041.159, 56.39771
1041.641, 56.27581
1042.123, 55.95702
1042.605, 55.43723
1043.088, 54.84401
1043.570, 54.59196
1044.052, 54.72382
1044.534, 54.93233
1045.016, 55.24090
1045.498, 55.38749
1045.980, 55.17043
1046.462, 54.68338
1046.945, 54.33372
1047.427, 54.12182
1047.909, 53.96083
1048.391, 53.80681
1048.873, 53.73248
1049.355, 53.93785
1049.837, 54.21899
1050.319, 54.28433
1050.802, 53.91467
1051.284, 53.72554
1051.766, 53.80029
1052.248, 53.88835
1052.730, 53.77276
1053.212, 53.53595
1053.694, 53.45838
1054.176, 53.50645
1054.658, 53.52238
1055.141, 53.39427
1055.623, 53.25923
1056.105, 53.18028
1056.587, 53.11421
1057.069, 52.98733
1057.551, 52.79700
1058.033, 52.64346
1058.515, 52.54435
1058.998, 52.43077
1059.480, 52.21407
1059.962, 51.97087
1060.444, 51.74992
1060.926, 51.56240
1061.408, 51.49917
1061.890, 51.64361
1062.372, 51.67881
1062.854, 51.45140
1063.337, 51.12650
1063.819, 51.04206
1064.301, 51.10400
1064.783, 51.09935
1065.265, 50.91683
1065.747, 50.78691
1066.229, 50.88721
1066.711, 50.95512
1067.193, 50.76111
1067.676, 50.33162
1068.158, 50.26290
1068.640, 50.52210
1069.122, 50.63161
1069.604, 50.07790
1070.086, 49.49818
1070.568, 49.31343
1071.050, 49.41414
1071.532, 49.55713
1072.015, 49.80254
1072.497, 49.81210
1072.979, 49.50286
1073.461, 49.17423
1073.943, 49.23781
1074.425, 49.43202
1074.907, 49.33540
1075.389, 48.93122
1075.872, 48.66423
1076.354, 48.76487
1076.836, 48.85082
1077.318, 48.82576
1077.800, 48.71807
1078.282, 48.55870
1078.764, 48.36763
1079.246, 48.22124
1079.729, 48.14693
1080.211, 48.08527
1080.693, 47.95824
1081.175, 47.87423
1081.657, 47.96441
1082.139, 48.22871
1082.621, 48.14761
1083.103, 47.71394
1083.585, 47.32265
1084.068, 47.22395
1084.550, 47.22523
1085.032, 47.08577
1085.514, 46.92965
1085.996, 47.01575
1086.478, 47.66027
1086.960, 47.84635
1087.442, 47.41955
1087.925, 46.92049
1088.407, 46.95306
1088.889, 47.22277
1089.371, 47.15586
1089.853, 46.77722
1090.335, 46.42609
1090.817, 46.13416
1091.299, 46.03276
1091.781, 46.25038
1092.264, 46.56191
1092.746, 46.50172
1093.228, 46.15379
1093.710, 45.92193
1094.192, 45.88189
1094.674, 45.89505
1095.156, 45.89529
1095.638, 45.89743
1096.120, 45.91858
1096.603, 45.95235
1097.085, 45.94765
1097.567, 45.90234
1098.049, 45.86601
1098.531, 45.87098
1099.013, 45.86113
1099.495, 45.80071
1099.977, 45.67894
1100.459, 45.44393
1100.942, 44.94983
1101.424, 44.85711
1101.906, 45.31215
1102.388, 45.69244
1102.870, 45.46679
1103.352, 44.96438
1103.834, 44.83685
1104.316, 44.97134
1104.799, 45.05381
1105.281, 44.89599
1105.763, 44.79476
1106.245, 44.82202
1106.727, 44.86943
1107.209, 44.82699
1107.691, 44.70197
1108.173, 44.47164
1108.656, 44.14991
1109.138, 43.95055
1109.620, 44.15094
1110.102, 44.32800
1110.584, 44.24680
1111.066, 44.02370
1111.548, 43.88975
1112.030, 43.84310
1112.512, 43.83909
1112.995, 43.86240
1113.477, 43.97528
1113.959, 44.45211
1114.441, 44.87341
1114.923, 44.80445
1115.405, 44.24624
1115.887, 43.77874
1116.369, 43.37473
1116.852, 43.22562
1117.334, 43.49717
1117.816, 43.84853
1118.298, 43.84179
1118.780, 43.61387
1119.262, 43.32926
1119.744, 42.92331
1120.226, 42.80113
1120.708, 43.05077
1121.191, 43.39540
1121.673, 43.78740
1122.155, 44.09278
1122.637, 43.89454
1123.119, 43.34917
1123.601, 42.88853
1124.083, 42.56847
1124.565, 42.53051
1125.047, 42.92057
1125.530, 43.40173
1126.012, 43.73354
1126.494, 43.89631
1126.976, 43.67101
1127.458, 43.10559
1127.940, 42.64649
1128.422, 42.53011
1128.904, 42.60234
1129.386, 43.00966
1129.869, 43.43726
1130.351, 43.27281
1130.833, 42.53229
1131.315, 42.20710
1131.797, 42.42863
1132.279, 42.75471
1132.761, 42.90499
1133.243, 42.96481
1133.726, 42.96747
1134.208, 42.92888
1134.690, 42.92303
1135.172, 42.96503
1135.654, 42.90538
1136.136, 42.67883
1136.618, 42.45192
1137.100, 42.41171
1137.583, 42.46909
1138.065, 42.54835
1138.547, 42.64700
1139.029, 42.66164
1139.511, 42.55507
1139.993, 42.49430
1140.475, 42.57356
1140.957, 42.68843
1141.439, 42.66291
1141.922, 42.55807
1142.404, 42.47671
1142.886, 42.44717
1143.368, 42.44368
1143.850, 42.49842
1144.332, 42.49969
1144.814, 42.31786
1145.296, 42.06458
1145.779, 42.07697
1146.261, 42.26704
1146.743, 42.37796
1147.225, 42.21856
1147.707, 42.09464
1148.189, 42.07323
1148.671, 42.07152
1149.153, 41.99750
1149.635, 41.87756
1150.118, 41.86828
1150.600, 41.95210
1151.082, 41.98296
1151.564, 41.79182
1152.046, 41.64807
1152.528, 41.62695
1153.010, 41.72109
1153.492, 42.01920
1153.974, 42.48010
1154.457, 42.60614
1154.939, 42.35478
1155.421, 41.99234
1155.903, 41.51519
1156.385, 41.16203
1156.867, 41.15656
1157.349, 41.36012
1157.831, 41.50689
1158.313, 41.59692
1158.796, 41.59673
1159.278, 41.49441
1159.760, 41.35546
1160.242, 41.19674
1160.724, 41.05587
1161.206, 40.96321
1161.688, 40.91792
1162.170, 40.93407
1162.653, 41.02696
1163.135, 40.98924
1163.617, 40.70201
1164.099, 40.47197
1164.581, 40.74566
1165.063, 41.16441
1165.545, 41.33231
1166.027, 41.18402
1166.510, 41.04448
1166.992, 40.90240
1167.474, 40.83504
1167.956, 40.91243
1168.438, 41.00946
1168.920, 40.95935
1169.402, 40.82567
1169.884, 40.68823
1170.366, 40.53776
1170.849, 40.48604
1171.331, 40.56153
1171.813, 40.63472
1172.295, 40.59358
1172.777, 40.54448
1173.259, 40.76439
1173.741, 41.08637
1174.223, 41.16953
1174.706, 40.64412
1175.188, 40.38813
1175.670, 40.48810
1176.152, 40.65222
1176.634, 40.64473
1177.116, 40.55619
1177.598, 40.63113
1178.080, 40.78339
1178.563, 40.75174
1179.045, 40.14785
1179.527, 39.83662
1180.009, 39.97660
1180.491, 40.22087
1180.973, 40.21879
1181.455, 40.07561
1181.937, 40.01178
1182.419, 40.03279
1182.901, 40.11391
1183.384, 40.30689
1183.866, 40.48494
1184.348, 40.65732
1184.830, 40.75953
1185.312, 40.68370
1185.794, 40.47909
1186.276, 40.24215
1186.758, 39.98880
1187.240, 39.81055
1187.723, 39.72087
1188.205, 39.77340
1188.687, 40.05928
1189.169, 40.37690
1189.651, 40.35711
1190.133, 40.09595
1190.615, 39.86360
1191.097, 39.69489
1191.580, 39.61494
1192.062, 39.69417
1192.544, 39.80055
1193.026, 39.92995
1193.508, 40.01914
1193.990, 39.85305
1194.472, 39.52547
1194.954, 39.38626
1195.437, 39.51637
1195.919, 39.66379
1196.401, 39.78170
1196.883, 39.81049
1197.365, 39.71862
1197.847, 39.53068
1198.329, 39.23526
1198.811, 38.89783
1199.293, 38.78780
1199.776, 39.00940
1200.258, 39.27711
1200.740, 39.57647
1201.222, 39.75229
1201.704, 39.69534
1202.186, 39.46799
1202.668, 39.29540
1203.150, 39.17469
1203.633, 39.08880
1204.115, 39.02077
1204.597, 39.02190
1205.079, 39.22599
1205.561, 39.39318
1206.043, 39.35044
1206.525, 39.15700
1207.007, 39.15541
1207.490, 39.29225
1207.972, 39.31082
1208.454, 38.99575
1208.936, 38.78040
1209.418, 38.95711
1209.900, 39.20192
1210.382, 39.33221
1210.864, 39.34966
1211.346, 39.19750
1211.828, 38.91940
1212.311, 38.73756
1212.793, 38.81010
1213.275, 38.90296
1213.757, 38.89662
1214.239, 38.91288
1214.721, 39.10398
1215.203, 39.41912
1215.685, 39.42783
1216.167, 39.17495
1216.650, 38.90224
1217.132, 38.60089
1217.614, 38.47548
1218.096, 38.73888
1218.578, 39.04401
1219.060, 39.07828
1219.542, 38.87741
1220.024, 38.59509
1220.507, 38.28324
1220.989, 38.20057
1221.471, 38.70115
1221.953, 39.15949
1222.435, 39.43755
1222.917, 39.55886
1223.399, 39.49333
1223.881, 39.28178
1224.364, 39.14479
1224.846, 39.07049
1225.328, 38.94267
1225.810, 38.56459
1226.292, 38.32186
1226.774, 38.33896
1227.256, 38.46837
1227.738, 38.58254
1228.220, 38.66023
1228.703, 38.57778
1229.185, 38.36061
1229.667, 38.22182
1230.149, 38.36152
1230.631, 38.44218
1231.113, 38.33563
1231.595, 38.22176
1232.077, 38.36009
1232.560, 38.66944
1233.042, 38.98141
1233.524, 39.26221
1234.006, 39.36530
1234.488, 39.00621
1234.970, 38.78560
1235.452, 38.88163
1235.934, 39.04168
1236.417, 38.90799
1236.899, 38.58799
1237.381, 38.28070
1237.863, 38.01501
1238.345, 37.85180
1238.827, 37.82650
1239.309, 37.91791
1239.791, 38.18508
1240.273, 38.43783
1240.755, 38.36517
1241.238, 38.12301
1241.720, 37.98433
1242.202, 37.97110
1242.684, 38.01995
1243.166, 38.19191
1243.648, 38.26126
1244.130, 38.16686
1244.612, 38.00618
1245.094, 37.87642
1245.577, 37.77824
1246.059, 37.71432
1246.541, 37.68336
1247.023, 37.67358
1247.505, 37.64190
1247.987, 37.76444
1248.469, 38.12152
1248.951, 38.48662
1249.434, 38.57853
1249.916, 38.50776
1250.398, 38.35461
1250.880, 38.14282
1251.362, 38.06047
1251.844, 38.16817
1252.326, 38.12398
1252.808, 37.80233
1253.291, 37.52811
1253.773, 37.77555
1254.255, 38.15215
1254.737, 38.26844
1255.219, 38.11523
1255.701, 37.93282
1256.183, 37.69769
1256.665, 37.59948
1257.147, 37.64444
1257.630, 38.03800
1258.112, 39.78967
1258.594, 41.29394
1259.076, 40.73233
1259.558, 38.66498
1260.040, 37.44867
1260.522, 37.08595
1261.004, 37.10283
1261.487, 37.40099
1261.969, 38.03437
1262.451, 39.99170
1262.933, 41.32789
1263.415, 40.31426
1263.897, 37.82977
1264.379, 36.81536
1264.861, 37.08358
1265.344, 37.32710
1265.826, 37.26487
1266.308, 37.16292
1266.790, 37.11945
1267.272, 37.15176
1267.754, 37.33003
1268.236, 37.53144
1268.718, 37.34192
1269.200, 36.89191
1269.682, 36.69460
1270.165, 36.87890
1270.647, 36.99082
1271.129, 36.59468
1271.611, 36.44262
1272.093, 36.89905
1272.575, 37.56984
1273.057, 37.60646
1273.539, 37.26177
1274.021, 37.15123
1274.504, 37.41543
1274.986, 37.38667
1275.468, 36.75307
1275.950, 36.23140
1276.432, 36.02854
1276.914, 36.04256
1277.396, 36.25250
1277.878, 36.50151
1278.361, 36.48615
1278.843, 36.15128
1279.325, 36.12502
1279.807, 36.56273
1280.289, 36.81328
1280.771, 36.66538
1281.253, 36.37480
1281.735, 36.15279
1282.218, 36.02046
1282.700, 36.04120
1283.182, 36.20148
1283.664, 36.24443
1284.146, 36.15607
1284.628, 36.10511
1285.110, 36.13247
1285.592, 36.20841
1286.074, 36.44795
1286.557, 36.59627
1287.039, 36.34793
1287.521, 35.84843
1288.003, 35.63079
1288.485, 35.67638
1288.967, 35.78694
1289.449, 35.93161
1289.931, 36.03312
1290.414, 35.97511
1290.896, 35.94602
1291.378, 36.08540
1291.860, 36.27583
1292.342, 36.17738
1292.824, 35.87543
1293.306, 35.67147
1293.788, 35.62469
1294.271, 35.56372
1294.753, 35.37867
1295.235, 35.22469
1295.717, 35.14191
1296.199, 35.11399
1296.681, 35.13664
1297.163, 35.18530
1297.645, 35.21701
1298.127, 35.22631
1298.609, 35.23407
1299.092, 35.26989
1299.574, 35.21495
1300.056, 35.01522
1300.538, 34.80955
1301.020, 34.78056
1301.502, 34.82982
1301.984, 34.85485
1302.466, 34.84678
1302.948, 34.83187
1303.431, 34.80919
1303.913, 34.79351
1304.395, 34.79197
##END=



