##NAMES=Rutile
##RRUFFID=R060745
##IDEAL CHEMISTRY=Ti^4+^O_2_
##LOCALITY=Zagi Mountain near Hammedabad, Knaffor Dehri, NW Frontier Provence, Pakistan
##OWNER=RRUFF
##SOURCE=Herb Obodda
##DESCRIPTION=Group of black prismatic crystals
##STATUS=The identification of this mineral has been confirmed by X-ray diffraction and chemical analysis
##URL=rruff.info/R060745
##MEASURED CHEMISTRY=(Ti_0.96_Nb^5+^_0.02_Fe^3+^_0.02_)_Î£=1_O_2_
142.2540, 756.3795
142.7361, 756.2238
143.2183, 757.4614
143.7004, 759.4938
144.1825, 762.4601
144.6646, 766.0254
145.1467, 769.8851
145.6288, 774.1262
146.1110, 778.6549
146.5931, 785.0243
147.0752, 794.4009
147.5573, 795.5047
148.0394, 779.9929
148.5215, 760.3021
149.0037, 750.8821
149.4858, 763.8962
149.9679, 774.8167
150.4500, 777.1214
150.9321, 765.8264
151.4142, 758.3888
151.8964, 755.9967
152.3785, 757.4697
152.8606, 760.6392
153.3427, 768.9761
153.8248, 776.2693
154.3069, 780.1978
154.7890, 779.4529
155.2712, 777.2075
155.7533, 771.7070
156.2354, 764.5505
156.7175, 760.9952
157.1996, 764.6255
157.6817, 770.5812
158.1639, 775.9610
158.6460, 778.8327
159.1281, 782.3104
159.6102, 787.1204
160.0923, 793.1964
160.5744, 800.0988
161.0566, 810.3022
161.5387, 820.1166
162.0208, 826.1592
162.5029, 827.8759
162.9850, 825.0721
163.4671, 814.7332
163.9493, 796.3125
164.4314, 781.5934
164.9135, 776.5286
165.3956, 778.5250
165.8777, 784.0304
166.3598, 794.6575
166.8420, 806.3384
167.3241, 816.9461
167.8062, 826.6932
168.2883, 833.6156
168.7704, 834.5778
169.2525, 831.7993
169.7346, 829.9745
170.2168, 835.1387
170.6989, 840.8148
171.1810, 839.6230
171.6631, 827.6340
172.1452, 814.8510
172.6273, 809.3091
173.1095, 810.0465
173.5916, 813.3848
174.0737, 818.8680
174.5558, 825.1524
175.0379, 829.7382
175.5201, 830.0076
176.0022, 830.9995
176.4843, 841.9089
176.9664, 861.1764
177.4485, 876.7598
177.9306, 876.4553
178.4128, 865.6820
178.8949, 855.9578
179.3770, 851.1489
179.8591, 849.1983
180.3412, 845.3870
180.8233, 839.5964
181.3055, 837.4971
181.7876, 850.3690
182.2697, 872.8411
182.7518, 886.9788
183.2339, 878.1194
183.7160, 856.6772
184.1981, 849.2017
184.6803, 857.0823
185.1624, 869.9729
185.6445, 879.4001
186.1266, 884.7839
186.6087, 882.9151
187.0908, 864.9974
187.5730, 836.8756
188.0551, 823.5865
188.5372, 827.7921
189.0193, 841.3185
189.5014, 853.9214
189.9835, 865.6906
190.4657, 875.9775
190.9478, 885.5355
191.4299, 893.9669
191.9120, 896.1220
192.3941, 889.3604
192.8762, 879.7895
193.3584, 881.1165
193.8405, 894.0248
194.3226, 907.2197
194.8047, 913.5117
195.2868, 913.0407
195.7689, 910.0681
196.2511, 904.5586
196.7332, 897.2445
197.2153, 889.3043
197.6974, 880.1273
198.1795, 873.4528
198.6616, 873.3605
199.1437, 880.3553
199.6259, 886.1084
200.1080, 888.7920
200.5901, 889.2166
201.0722, 891.8592
201.5543, 897.8982
202.0364, 902.4075
202.5186, 898.1536
203.0007, 882.7530
203.4828, 875.3868
203.9649, 883.9387
204.4470, 906.0060
204.9291, 914.5021
205.4113, 905.6244
205.8934, 891.4838
206.3755, 885.8476
206.8576, 891.0626
207.3397, 894.5355
207.8218, 891.6342
208.3040, 882.1982
208.7861, 878.9476
209.2682, 884.2291
209.7503, 892.3237
210.2324, 896.2241
210.7145, 895.7515
211.1967, 891.5993
211.6788, 882.3729
212.1609, 866.8644
212.6430, 857.0983
213.1251, 854.3857
213.6072, 856.1963
214.0894, 859.6885
214.5715, 866.9749
215.0536, 870.7474
215.5357, 866.6707
216.0178, 851.4878
216.4999, 843.2198
216.9820, 844.3669
217.4642, 850.7334
217.9463, 854.9145
218.4284, 857.7906
218.9105, 856.5201
219.3926, 846.9789
219.8747, 820.8474
220.3569, 812.4369
220.8390, 829.8599
221.3211, 861.8431
221.8032, 881.5300
222.2853, 886.2008
222.7674, 883.0400
223.2496, 873.1620
223.7317, 849.3804
224.2138, 837.5038
224.6959, 842.5916
225.1780, 859.2430
225.6601, 870.5420
226.1423, 874.4980
226.6244, 875.9749
227.1065, 877.6618
227.5886, 880.8138
228.0707, 881.0648
228.5528, 876.2943
229.0350, 868.1904
229.5171, 865.1303
229.9992, 870.4236
230.4813, 876.1772
230.9634, 877.3925
231.4455, 871.2631
231.9276, 866.4427
232.4098, 863.8296
232.8919, 863.1595
233.3740, 863.0825
233.8561, 864.6859
234.3382, 865.5428
234.8203, 863.2806
235.3025, 853.5303
235.7846, 849.8746
236.2667, 857.4080
236.7488, 874.3187
237.2309, 880.1441
237.7130, 867.6030
238.1952, 852.3696
238.6773, 846.7177
239.1594, 857.9689
239.6415, 864.1542
240.1236, 859.2759
240.6057, 844.2969
241.0879, 840.6570
241.5700, 856.7278
242.0521, 875.1007
242.5342, 880.4557
243.0163, 863.1074
243.4984, 851.3685
243.9806, 851.4919
244.4627, 863.2110
244.9448, 870.3155
245.4269, 870.4006
245.9090, 868.2535
246.3911, 868.2794
246.8732, 872.4666
247.3554, 874.9097
247.8375, 874.4429
248.3196, 871.0438
248.8017, 866.4908
249.2838, 860.0593
249.7659, 853.3126
250.2481, 847.2957
250.7302, 840.8166
251.2123, 837.6756
251.6944, 839.8006
252.1765, 847.3614
252.6586, 851.9880
253.1408, 851.7680
253.6229, 850.7410
254.1050, 854.0036
254.5871, 866.2661
255.0692, 872.4552
255.5513, 867.0761
256.0334, 849.6454
256.5156, 839.5396
256.9977, 840.0270
257.4798, 844.1899
257.9619, 844.3321
258.4440, 837.4830
258.9261, 833.4487
259.4083, 834.8621
259.8904, 841.9175
260.3725, 849.5460
260.8546, 860.8834
261.3367, 869.0119
261.8188, 863.9774
262.3010, 837.7211
262.7831, 819.2598
263.2652, 818.3240
263.7473, 835.3145
264.2294, 841.8185
264.7115, 833.9040
265.1937, 820.7144
265.6758, 811.2609
266.1579, 804.5325
266.6400, 805.4171
267.1221, 818.1937
267.6042, 842.8763
268.0864, 858.2461
268.5685, 852.9659
269.0506, 864.8861
269.5327, 871.2891
270.0148, 872.4716
270.4969, 852.7969
270.9791, 860.0547
271.4612, 856.5192
271.9433, 852.5412
272.4254, 863.5897
272.9075, 846.9487
273.3896, 857.7590
273.8718, 857.6110
274.3539, 862.4785
274.8360, 856.4859
275.3181, 853.8476
275.8002, 862.0728
276.2823, 864.2828
276.7645, 857.0399
277.2466, 862.2261
277.7287, 845.2057
278.2108, 847.6720
278.6929, 858.5458
279.1750, 851.8491
279.6572, 857.2337
280.1393, 847.3526
280.6214, 847.4137
281.1035, 843.2735
281.5856, 834.4756
282.0677, 830.8807
282.5499, 837.4893
283.0320, 851.4429
283.5141, 858.5002
283.9962, 857.9946
284.4783, 853.6861
284.9604, 845.9435
285.4425, 834.9822
285.9247, 833.3200
286.4068, 848.7732
286.8889, 874.4948
287.3710, 886.0235
287.8531, 882.1693
288.3352, 873.9105
288.8174, 871.7142
289.2995, 874.8085
289.7816, 876.4429
290.2637, 874.8295
290.7458, 870.6699
291.2279, 865.2474
291.7101, 858.5178
292.1922, 851.3733
292.6743, 842.8875
293.1564, 834.1199
293.6385, 830.3191
294.1206, 834.6251
294.6028, 842.9731
295.0849, 848.1849
295.5670, 850.3280
296.0491, 850.8845
296.5312, 849.4269
297.0133, 847.1873
297.4955, 848.4839
297.9776, 857.3445
298.4597, 866.5370
298.9418, 862.3748
299.4239, 846.3914
299.9060, 831.1229
300.3882, 828.0190
300.8703, 832.0588
301.3524, 833.0668
301.8345, 827.2305
302.3166, 820.1161
302.7987, 817.9086
303.2809, 820.0972
303.7630, 824.1443
304.2451, 829.5829
304.7272, 835.4688
305.2093, 840.1900
305.6914, 842.9425
306.1736, 845.4941
306.6557, 851.8901
307.1378, 860.1655
307.6199, 863.7816
308.1020, 854.0327
308.5841, 839.9893
309.0663, 831.6931
309.5484, 832.5057
310.0305, 834.7064
310.5126, 831.8489
310.9947, 826.0512
311.4768, 822.3977
311.9590, 826.7069
312.4411, 832.1964
312.9232, 832.9528
313.4053, 826.7254
313.8874, 820.5084
314.3695, 816.3758
314.8516, 814.8472
315.3337, 816.8128
315.8159, 828.3528
316.2980, 839.2305
316.7801, 842.3011
317.2622, 834.4189
317.7443, 829.0026
318.2264, 836.1601
318.7086, 847.8844
319.1907, 853.0281
319.6728, 839.2833
320.1549, 826.0556
320.6370, 821.8088
321.1191, 828.4261
321.6013, 835.9490
322.0834, 847.7047
322.5655, 857.0078
323.0476, 856.5612
323.5297, 827.3478
324.0118, 805.4324
324.4940, 803.6470
324.9761, 824.7366
325.4582, 840.8702
325.9403, 848.8252
326.4224, 850.7275
326.9045, 848.5471
327.3867, 834.7251
327.8688, 825.0936
328.3509, 823.8666
328.8330, 830.9496
329.3151, 834.6539
329.7972, 829.7164
330.2794, 825.3135
330.7615, 828.3150
331.2436, 849.8290
331.7257, 861.8282
332.2078, 859.6234
332.6899, 844.9766
333.1721, 829.1331
333.6542, 807.7839
334.1363, 790.8952
334.6184, 785.0252
335.1005, 794.3645
335.5826, 804.6566
336.0648, 816.2934
336.5469, 827.9075
337.0290, 835.4578
337.5111, 838.6791
337.9932, 838.3687
338.4753, 833.8860
338.9575, 824.1243
339.4396, 816.5551
339.9217, 811.6984
340.4038, 808.8694
340.8859, 806.1767
341.3680, 803.2218
341.8502, 802.7385
342.3323, 808.1456
342.8144, 819.3190
343.2965, 824.0679
343.7786, 821.2700
344.2607, 814.8254
344.7429, 808.4175
345.2250, 802.1981
345.7071, 800.5668
346.1892, 809.0953
346.6713, 823.9672
347.1534, 829.5122
347.6355, 824.6331
348.1176, 817.7719
348.5998, 819.5522
349.0819, 827.6691
349.5640, 832.2220
350.0461, 827.0821
350.5282, 817.6868
351.0103, 813.4750
351.4925, 814.3365
351.9746, 817.7853
352.4567, 823.8174
352.9388, 830.7476
353.4209, 835.3239
353.9030, 836.1322
354.3852, 834.8434
354.8673, 831.2487
355.3494, 826.2737
355.8315, 824.4174
356.3136, 831.6226
356.7957, 842.1760
357.2779, 850.3535
357.7600, 856.2524
358.2421, 857.0463
358.7242, 845.0189
359.2063, 825.8423
359.6884, 814.0620
360.1706, 820.1385
360.6527, 833.3412
361.1348, 847.9005
361.6169, 864.5404
362.0990, 877.4258
362.5811, 884.7103
363.0633, 886.9019
363.5454, 884.7886
364.0275, 873.6091
364.5096, 862.5137
364.9917, 855.7194
365.4738, 854.5687
365.9560, 851.4518
366.4381, 839.2511
366.9202, 826.9486
367.4023, 823.5646
367.8844, 840.4727
368.3665, 855.2153
368.8487, 862.8079
369.3308, 863.1627
369.8129, 865.6594
370.2950, 871.4595
370.7771, 878.4391
371.2592, 885.5858
371.7414, 895.9125
372.2235, 900.6592
372.7056, 896.2236
373.1877, 885.1758
373.6698, 880.6465
374.1519, 886.1588
374.6341, 891.8799
375.1162, 891.8641
375.5983, 884.3082
376.0804, 877.9216
376.5625, 872.0634
377.0446, 868.5852
377.5267, 873.2092
378.0089, 887.8421
378.4910, 900.8631
378.9731, 906.6479
379.4552, 905.4657
379.9373, 902.8084
380.4194, 897.7436
380.9016, 894.2431
381.3837, 899.9251
381.8658, 913.7935
382.3479, 923.8380
382.8300, 923.4595
383.3121, 916.9997
383.7943, 915.6362
384.2764, 919.4104
384.7585, 924.6500
385.2406, 930.6930
385.7227, 935.7368
386.2048, 933.9366
386.6870, 917.7714
387.1691, 901.4968
387.6512, 906.5481
388.1333, 928.7300
388.6154, 948.1780
389.0975, 949.7198
389.5797, 942.4481
390.0618, 935.9549
390.5439, 931.3746
391.0260, 929.0248
391.5081, 931.8492
391.9902, 936.9855
392.4724, 938.7217
392.9545, 929.2211
393.4366, 919.7042
393.9187, 918.6527
394.4008, 929.0952
394.8829, 934.5051
395.3651, 922.7565
395.8472, 905.5338
396.3293, 896.0328
396.8114, 905.2328
397.2935, 914.1547
397.7756, 917.4120
398.2578, 914.7709
398.7399, 913.6235
399.2220, 914.6057
399.7041, 917.1069
400.1862, 920.9956
400.6683, 930.5245
401.1505, 934.8384
401.6326, 929.7722
402.1147, 919.0800
402.5968, 915.8243
403.0789, 923.4432
403.5610, 932.9006
404.0432, 940.9134
404.5253, 948.3600
405.0074, 950.1354
405.4895, 943.7772
405.9716, 934.7138
406.4537, 931.9667
406.9359, 936.2186
407.4180, 942.0653
407.9001, 948.0776
408.3822, 954.1284
408.8643, 960.3887
409.3464, 967.2520
409.8285, 972.0917
410.3106, 971.2139
410.7928, 965.4960
411.2749, 959.2181
411.7570, 952.2218
412.2391, 946.6226
412.7212, 946.5359
413.2033, 951.5845
413.6855, 958.4517
414.1676, 966.4431
414.6497, 974.3475
415.1318, 979.9711
415.6139, 982.6848
416.0960, 984.1425
416.5782, 986.9846
417.0603, 989.6597
417.5424, 988.8076
418.0245, 976.3281
418.5066, 964.5439
418.9887, 964.2465
419.4709, 977.1878
419.9530, 986.2926
420.4351, 979.7988
420.9172, 967.5514
421.3993, 959.4687
421.8814, 958.7416
422.3636, 961.7999
422.8457, 969.8040
423.3278, 981.9269
423.8099, 991.8028
424.2920, 1001.048
424.7741, 1006.171
425.2563, 1005.081
425.7384, 989.8882
426.2205, 981.2994
426.7026, 982.2157
427.1847, 988.6671
427.6668, 992.4656
428.1490, 991.3627
428.6311, 991.8711
429.1132, 997.2656
429.5953, 1008.224
430.0774, 1014.005
430.5595, 1013.570
431.0417, 1010.208
431.5238, 1006.484
432.0059, 1002.176
432.4880, 1000.876
432.9701, 1004.482
433.4522, 1010.907
433.9344, 1013.229
434.4165, 1011.305
434.8986, 1011.110
435.3807, 1019.201
435.8628, 1032.521
436.3449, 1042.327
436.8271, 1047.608
437.3092, 1048.975
437.7913, 1045.834
438.2734, 1039.176
438.7555, 1031.674
439.2376, 1023.395
439.7197, 1015.626
440.2018, 1007.252
440.6840, 998.2621
441.1661, 997.1481
441.6482, 1017.677
442.1303, 1045.185
442.6124, 1064.548
443.0945, 1068.231
443.5767, 1066.317
444.0588, 1059.457
444.5409, 1049.191
445.0230, 1041.216
445.5051, 1036.577
445.9872, 1034.827
446.4694, 1036.588
446.9515, 1045.950
447.4336, 1049.837
447.9157, 1043.405
448.3978, 1033.248
448.8799, 1028.448
449.3621, 1030.800
449.8442, 1035.743
450.3263, 1043.800
450.8084, 1054.665
451.2905, 1059.427
451.7726, 1055.845
452.2548, 1050.765
452.7369, 1049.410
453.2190, 1052.003
453.7011, 1055.937
454.1832, 1061.058
454.6653, 1067.056
455.1475, 1075.752
455.6296, 1086.823
456.1117, 1092.030
456.5938, 1084.586
457.0759, 1067.992
457.5580, 1048.337
458.0402, 1024.915
458.5223, 1009.425
459.0044, 1020.431
459.4865, 1046.494
459.9686, 1065.764
460.4507, 1067.666
460.9329, 1062.829
461.4150, 1059.239
461.8971, 1056.413
462.3792, 1052.310
462.8613, 1042.671
463.3434, 1033.447
463.8256, 1029.779
464.3077, 1035.129
464.7898, 1038.935
465.2719, 1031.920
465.7540, 1022.945
466.2361, 1024.876
466.7183, 1058.101
467.2004, 1083.411
467.6825, 1088.194
468.1646, 1072.254
468.6467, 1060.909
469.1288, 1054.543
469.6109, 1052.510
470.0930, 1056.415
470.5752, 1072.499
471.0573, 1074.486
471.5394, 1052.834
472.0215, 1021.801
472.5036, 1018.477
472.9857, 1048.120
473.4679, 1073.483
473.9500, 1072.724
474.4321, 1051.319
474.9142, 1046.644
475.3963, 1060.555
475.8784, 1076.665
476.3606, 1076.350
476.8427, 1064.473
477.3248, 1056.575
477.8069, 1058.457
478.2890, 1063.435
478.7711, 1063.633
479.2533, 1060.093
479.7354, 1056.628
480.2175, 1052.938
480.6996, 1051.792
481.1817, 1057.544
481.6638, 1072.377
482.1460, 1083.773
482.6281, 1083.579
483.1102, 1077.419
483.5923, 1071.700
484.0744, 1062.829
484.5565, 1059.930
485.0387, 1070.515
485.5208, 1092.217
486.0029, 1103.594
486.4850, 1096.473
486.9671, 1086.100
487.4492, 1079.193
487.9314, 1076.916
488.4135, 1074.935
488.8956, 1072.540
489.3777, 1071.230
489.8598, 1073.922
490.3419, 1081.629
490.8241, 1088.719
491.3062, 1094.751
491.7883, 1098.825
492.2704, 1093.953
492.7525, 1079.210
493.2346, 1067.945
493.7168, 1074.817
494.1989, 1094.000
494.6810, 1107.107
495.1631, 1110.331
495.6452, 1110.924
496.1273, 1118.254
496.6095, 1129.470
497.0916, 1137.208
497.5737, 1135.226
498.0558, 1130.647
498.5379, 1128.236
499.0201, 1128.119
499.5022, 1130.035
499.9843, 1135.108
500.4664, 1141.494
500.9485, 1148.162
501.4306, 1159.679
501.9127, 1164.195
502.3948, 1152.053
502.8770, 1132.427
503.3591, 1124.017
503.8412, 1137.226
504.3233, 1149.096
504.8054, 1153.505
505.2875, 1150.204
505.7697, 1147.343
506.2518, 1144.836
506.7339, 1142.804
507.2160, 1140.481
507.6981, 1137.378
508.1802, 1139.967
508.6624, 1151.443
509.1445, 1164.736
509.6266, 1165.630
510.1087, 1155.022
510.5908, 1143.284
511.0729, 1132.757
511.5551, 1125.190
512.0372, 1126.954
512.5193, 1137.867
513.0014, 1146.333
513.4835, 1138.258
513.9656, 1124.507
514.4478, 1119.805
514.9299, 1133.039
515.4120, 1145.569
515.8941, 1147.331
516.3762, 1141.051
516.8583, 1132.278
517.3405, 1118.726
517.8226, 1106.611
518.3047, 1099.051
518.7868, 1096.744
519.2689, 1092.736
519.7510, 1080.501
520.2332, 1071.418
520.7153, 1074.358
521.1974, 1097.999
521.6795, 1113.483
522.1616, 1118.741
522.6437, 1115.398
523.1259, 1102.808
523.6080, 1077.755
524.0901, 1063.429
524.5722, 1074.805
525.0543, 1104.261
525.5364, 1117.775
526.0186, 1114.823
526.5007, 1107.261
526.9828, 1104.938
527.4649, 1105.630
527.9470, 1103.977
528.4291, 1098.031
528.9113, 1092.384
529.3934, 1093.737
529.8755, 1098.368
530.3576, 1098.946
530.8397, 1085.643
531.3218, 1073.051
531.8040, 1071.002
532.2861, 1079.182
532.7682, 1084.992
533.2503, 1083.778
533.7324, 1080.194
534.2145, 1076.883
534.6967, 1073.066
535.1788, 1071.284
535.6609, 1071.778
536.1430, 1074.238
536.6251, 1078.176
537.1072, 1083.798
537.5894, 1090.679
538.0715, 1099.403
538.5536, 1109.346
539.0357, 1116.937
539.5178, 1122.155
539.9999, 1125.035
540.4821, 1124.032
540.9642, 1120.423
541.4463, 1119.610
541.9284, 1122.714
542.4105, 1125.178
542.8926, 1119.722
543.3748, 1110.161
543.8569, 1104.297
544.3390, 1105.557
544.8211, 1111.143
545.3032, 1122.490
545.7853, 1137.551
546.2675, 1148.258
546.7495, 1146.483
547.2316, 1143.394
547.7137, 1144.803
548.1959, 1152.153
548.6780, 1161.012
549.1601, 1174.869
549.6422, 1187.716
550.1243, 1193.895
550.6064, 1190.699
551.0886, 1186.179
551.5707, 1179.802
552.0528, 1173.397
552.5349, 1173.394
553.0170, 1180.850
553.4991, 1187.845
553.9813, 1189.347
554.4634, 1186.969
554.9455, 1188.456
555.4276, 1193.875
555.9097, 1202.541
556.3918, 1216.871
556.8740, 1233.457
557.3561, 1245.569
557.8382, 1250.648
558.3203, 1253.656
558.8024, 1255.225
559.2845, 1257.821
559.7667, 1266.220
560.2488, 1293.491
560.7309, 1316.372
561.2130, 1320.303
561.6951, 1305.660
562.1772, 1300.630
562.6594, 1317.874
563.1415, 1338.565
563.6236, 1353.577
564.1057, 1360.989
564.5878, 1367.131
565.0699, 1370.560
565.5521, 1374.264
566.0342, 1383.721
566.5163, 1399.938
566.9984, 1412.540
567.4805, 1418.376
567.9626, 1419.423
568.4448, 1417.654
568.9269, 1413.777
569.4090, 1415.443
569.8911, 1429.336
570.3732, 1451.008
570.8553, 1475.467
571.3375, 1502.904
571.8196, 1526.796
572.3017, 1543.795
572.7838, 1555.008
573.2659, 1561.245
573.7480, 1555.827
574.2302, 1555.423
574.7123, 1567.034
575.1944, 1586.886
575.6765, 1607.152
576.1586, 1630.344
576.6407, 1650.043
577.1229, 1665.179
577.6050, 1675.724
578.0871, 1682.009
578.5692, 1683.479
579.0513, 1682.165
579.5334, 1677.525
580.0156, 1669.582
580.4977, 1668.186
580.9798, 1674.797
581.4619, 1684.382
581.9440, 1693.001
582.4261, 1699.778
582.9083, 1700.600
583.3904, 1688.150
583.8725, 1676.863
584.3546, 1687.462
584.8367, 1712.465
585.3188, 1729.350
585.8010, 1716.215
586.2831, 1700.162
586.7652, 1699.082
587.2473, 1715.871
587.7294, 1727.726
588.2115, 1725.031
588.6937, 1719.535
589.1758, 1719.548
589.6579, 1731.916
590.1400, 1736.085
590.6221, 1728.354
591.1042, 1715.226
591.5864, 1707.534
592.0685, 1705.755
592.5506, 1705.369
593.0327, 1704.462
593.5148, 1704.508
593.9969, 1711.712
594.4791, 1725.391
594.9612, 1736.620
595.4433, 1735.271
595.9254, 1729.968
596.4075, 1734.484
596.8896, 1750.505
597.3718, 1765.414
597.8539, 1768.871
598.3360, 1768.458
598.8181, 1772.105
599.3002, 1788.917
599.7823, 1799.266
600.2645, 1793.164
600.7466, 1778.711
601.2287, 1772.219
601.7108, 1777.512
602.1929, 1785.189
602.6750, 1793.677
603.1572, 1802.835
603.6393, 1812.272
604.1214, 1822.171
604.6035, 1831.209
605.0856, 1839.173
605.5677, 1845.703
606.0499, 1848.708
606.5320, 1847.885
607.0141, 1845.140
607.4962, 1838.651
607.9783, 1832.232
608.4604, 1833.667
608.9425, 1848.527
609.4246, 1864.852
609.9067, 1875.776
610.3889, 1882.477
610.8710, 1887.385
611.3531, 1892.583
611.8352, 1894.760
612.3173, 1891.299
612.7994, 1882.627
613.2816, 1876.173
613.7637, 1870.018
614.2458, 1869.001
614.7279, 1879.740
615.2100, 1906.163
615.6921, 1907.816
616.1743, 1878.022
616.6564, 1844.126
617.1385, 1839.334
617.6206, 1857.903
618.1027, 1868.596
618.5848, 1863.696
619.0670, 1852.188
619.5491, 1843.553
620.0312, 1836.602
620.5133, 1828.535
620.9954, 1815.675
621.4775, 1803.473
621.9597, 1795.677
622.4418, 1791.717
622.9239, 1787.630
623.4060, 1783.709
623.8881, 1778.241
624.3702, 1769.532
624.8524, 1756.173
625.3345, 1746.904
625.8166, 1742.135
626.2987, 1740.905
626.7808, 1745.366
627.2629, 1756.975
627.7451, 1755.326
628.2272, 1734.973
628.7093, 1709.052
629.1914, 1697.632
629.6735, 1698.043
630.1556, 1699.445
630.6378, 1701.321
631.1199, 1698.777
631.6020, 1682.728
632.0841, 1657.079
632.5662, 1635.138
633.0483, 1624.938
633.5305, 1618.644
634.0126, 1611.235
634.4947, 1601.715
634.9768, 1598.786
635.4589, 1613.657
635.9410, 1626.310
636.4232, 1623.830
636.9053, 1597.436
637.3874, 1583.348
637.8695, 1586.339
638.3516, 1593.775
638.8337, 1588.346
639.3159, 1570.929
639.7980, 1554.452
640.2801, 1541.597
640.7622, 1531.721
641.2443, 1523.742
641.7264, 1517.802
642.2086, 1514.188
642.6907, 1517.822
643.1728, 1519.968
643.6549, 1511.749
644.1370, 1494.635
644.6191, 1481.926
645.1013, 1485.422
645.5834, 1488.367
646.0655, 1481.094
646.5476, 1460.292
647.0297, 1442.146
647.5118, 1423.710
647.9940, 1411.526
648.4761, 1414.791
648.9582, 1435.759
649.4403, 1447.538
649.9224, 1445.694
650.4045, 1436.962
650.8867, 1429.618
651.3688, 1423.458
651.8509, 1417.634
652.3330, 1411.451
652.8151, 1405.829
653.2972, 1401.663
653.7794, 1398.824
654.2615, 1397.089
654.7436, 1400.056
655.2257, 1400.807
655.7078, 1394.109
656.1899, 1379.304
656.6721, 1370.302
657.1542, 1371.828
657.6363, 1374.474
658.1184, 1373.626
658.6005, 1368.843
659.0826, 1362.626
659.5648, 1354.763
660.0469, 1346.016
660.5290, 1335.150
661.0111, 1323.414
661.4932, 1318.003
661.9753, 1321.029
662.4575, 1328.163
662.9396, 1339.985
663.4217, 1351.887
663.9038, 1354.983
664.3859, 1336.909
664.8680, 1318.098
665.3502, 1307.765
665.8323, 1304.113
666.3144, 1300.707
666.7965, 1300.172
667.2786, 1295.501
667.7607, 1281.502
668.2429, 1258.660
668.7250, 1249.921
669.2071, 1259.509
669.6892, 1270.507
670.1713, 1269.744
670.6534, 1259.563
671.1355, 1257.885
671.6176, 1266.238
672.0997, 1275.073
672.5818, 1273.716
673.0640, 1267.377
673.5461, 1265.052
674.0282, 1272.112
674.5103, 1274.880
674.9924, 1261.499
675.4745, 1240.921
675.9567, 1225.572
676.4388, 1219.557
676.9209, 1217.130
677.4030, 1218.994
677.8851, 1223.505
678.3672, 1225.819
678.8494, 1225.017
679.3315, 1225.439
679.8136, 1230.541
680.2957, 1237.445
680.7778, 1233.203
681.2599, 1218.244
681.7421, 1202.793
682.2242, 1192.550
682.7063, 1186.175
683.1884, 1181.647
683.6705, 1178.866
684.1526, 1178.860
684.6348, 1186.867
685.1169, 1194.871
685.5990, 1196.077
686.0811, 1185.291
686.5632, 1177.646
687.0453, 1177.116
687.5275, 1177.744
688.0096, 1171.952
688.4917, 1156.276
688.9738, 1150.823
689.4559, 1161.758
689.9380, 1177.323
690.4202, 1174.609
690.9023, 1156.906
691.3844, 1144.037
691.8665, 1146.708
692.3486, 1153.301
692.8307, 1149.469
693.3129, 1138.714
693.7950, 1131.446
694.2771, 1137.655
694.7592, 1143.450
695.2413, 1140.922
695.7234, 1130.078
696.2056, 1123.171
696.6877, 1123.496
697.1698, 1124.117
697.6519, 1120.681
698.1340, 1112.619
698.6161, 1115.285
699.0983, 1131.747
699.5804, 1144.855
700.0625, 1133.136
700.5446, 1106.050
701.0267, 1093.531
701.5089, 1100.419
701.9910, 1110.832
702.4731, 1110.958
702.9552, 1106.844
703.4373, 1106.280
703.9194, 1115.144
704.4016, 1121.276
704.8837, 1120.107
705.3658, 1114.493
705.8479, 1108.479
706.3300, 1098.521
706.8121, 1096.304
707.2943, 1108.208
707.7764, 1125.680
708.2585, 1124.676
708.7406, 1104.866
709.2227, 1086.798
709.7048, 1081.726
710.1870, 1081.232
710.6691, 1066.541
711.1512, 1041.612
711.6333, 1023.938
712.1154, 1024.741
712.5975, 1035.206
713.0797, 1054.471
713.5618, 1082.386
714.0439, 1099.526
714.5260, 1094.794
715.0081, 1084.897
715.4902, 1077.073
715.9724, 1071.542
716.4545, 1065.972
716.9366, 1060.230
717.4187, 1054.658
717.9008, 1048.902
718.3829, 1043.389
718.8651, 1040.857
719.3472, 1042.254
719.8293, 1042.918
720.3114, 1035.996
720.7935, 1026.293
721.2756, 1020.691
721.7578, 1021.921
722.2399, 1025.824
722.7220, 1035.278
723.2041, 1045.209
723.6862, 1047.104
724.1683, 1031.746
724.6505, 1025.115
725.1326, 1035.168
725.6147, 1052.803
726.0968, 1054.259
726.5789, 1038.985
727.0610, 1024.703
727.5432, 1019.422
728.0253, 1017.639
728.5074, 1007.687
728.9895, 992.0566
729.4716, 980.8616
729.9537, 983.9243
730.4359, 989.5214
730.9180, 989.8911
731.4000, 985.2321
731.8821, 981.8923
732.3643, 984.7191
732.8464, 985.3182
733.3285, 978.9570
733.8106, 964.9485
734.2927, 958.4315
734.7748, 960.5490
735.2570, 965.8353
735.7391, 972.6194
736.2212, 979.3348
736.7033, 979.1450
737.1854, 971.3271
737.6675, 962.6913
738.1497, 956.8508
738.6318, 954.3231
739.1139, 944.9445
739.5960, 956.1797
740.0781, 961.8978
740.5602, 962.3954
741.0424, 942.0355
741.5245, 948.6086
742.0066, 944.3882
742.4887, 939.7252
742.9708, 950.0888
743.4529, 932.7630
743.9351, 942.8880
744.4172, 942.0554
744.8993, 946.2379
745.3814, 939.5604
745.8635, 936.2371
746.3456, 943.7775
746.8278, 945.3022
747.3099, 937.3748
747.7920, 941.8760
748.2741, 924.1707
748.7562, 925.9520
749.2383, 936.1410
749.7205, 928.7590
750.2026, 933.4590
750.6847, 933.5575
751.1668, 912.7451
751.6489, 928.2990
752.1310, 928.1257
752.6132, 911.8036
753.0953, 926.1115
753.5774, 912.0160
754.0595, 908.0587
754.5416, 911.7310
755.0237, 907.4499
755.5059, 915.7081
755.9880, 915.2326
756.4701, 921.2728
756.9522, 922.2826
757.4343, 917.5974
757.9164, 914.0515
758.3986, 911.6509
758.8807, 911.0190
759.3628, 914.6024
759.8449, 922.9371
760.3270, 918.2858
760.8091, 899.0839
761.2913, 879.2727
761.7734, 869.3105
762.2555, 867.7791
762.7376, 875.9008
763.2197, 894.7367
763.7018, 906.7513
764.1840, 891.2961
764.6661, 869.5159
765.1482, 860.4836
765.6303, 873.1558
766.1124, 884.1282
766.5945, 893.6553
767.0767, 899.4299
767.5588, 898.7731
768.0409, 890.9324
768.5230, 880.9875
769.0051, 868.4000
769.4872, 857.4167
769.9694, 854.7231
770.4515, 857.6323
770.9336, 859.7330
771.4157, 859.9642
771.8978, 857.7067
772.3799, 849.4534
772.8621, 839.5719
773.3442, 833.7639
773.8263, 831.6930
774.3084, 836.7256
774.7905, 855.2214
775.2726, 876.8770
775.7548, 882.9733
776.2369, 871.3038
776.7190, 860.0997
777.2011, 853.2495
777.6832, 848.9915
778.1653, 843.7899
778.6475, 838.5623
779.1296, 836.0519
779.6117, 839.3366
780.0938, 843.6483
780.5759, 846.8040
781.0580, 848.6461
781.5402, 848.7171
782.0223, 846.9771
782.5044, 842.9924
782.9865, 834.9229
783.4686, 824.9385
783.9507, 820.4991
784.4329, 821.8742
784.9150, 826.9157
785.3971, 836.1226
785.8792, 847.4266
786.3613, 859.4206
786.8434, 870.8243
787.3256, 876.1680
787.8077, 868.6560
788.2898, 857.7742
788.7719, 847.3183
789.2540, 837.8113
789.7361, 832.4066
790.2183, 831.9857
790.7004, 834.7712
791.1825, 841.5405
791.6646, 851.3798
792.1467, 857.0775
792.6288, 858.3962
793.1110, 858.9211
793.5930, 862.5349
794.0751, 866.0019
794.5573, 861.3111
795.0394, 849.6133
795.5215, 840.9381
796.0036, 841.5898
796.4857, 846.1182
796.9678, 855.3201
797.4500, 869.8761
797.9321, 867.9662
798.4142, 836.7894
798.8963, 809.2787
799.3784, 803.6008
799.8605, 818.2827
800.3427, 827.3220
800.8248, 830.5511
801.3069, 833.9406
801.7890, 844.6783
802.2711, 856.8857
802.7532, 862.4354
803.2354, 860.7749
803.7175, 856.0945
804.1996, 850.3056
804.6817, 842.0577
805.1638, 827.8632
805.6459, 805.0485
806.1281, 795.9491
806.6102, 805.5944
807.0923, 818.0826
807.5744, 821.5299
808.0565, 817.7040
808.5386, 820.2527
809.0208, 829.7653
809.5029, 836.1001
809.9850, 824.3975
810.4671, 808.8564
810.9492, 806.4664
811.4313, 820.9291
811.9135, 833.4426
812.3956, 837.8131
812.8777, 839.1439
813.3598, 840.8703
813.8419, 843.9109
814.3240, 841.4003
814.8062, 831.6395
815.2883, 822.3961
815.7704, 823.0292
816.2525, 829.5667
816.7346, 828.9517
817.2167, 819.6757
817.6989, 812.6858
818.1810, 818.8173
818.6631, 829.1130
819.1452, 836.1149
819.6273, 838.1596
820.1094, 838.9821
820.5916, 839.6743
821.0737, 838.5670
821.5558, 833.6051
822.0379, 824.2334
822.5200, 817.1655
823.0021, 812.3611
823.4843, 811.3849
823.9664, 817.1273
824.4485, 827.2421
824.9306, 840.2056
825.4127, 856.9127
825.8948, 865.9562
826.3770, 853.5438
826.8591, 836.6143
827.3412, 829.2067
827.8233, 835.2471
828.3054, 838.5067
828.7875, 837.0309
829.2697, 836.7034
829.7518, 845.5590
830.2339, 861.0969
830.7160, 867.1057
831.1981, 861.9591
831.6802, 854.2919
832.1624, 847.3495
832.6445, 843.9823
833.1266, 850.0658
833.6087, 870.5177
834.0908, 880.9973
834.5729, 867.3342
835.0551, 848.9164
835.5372, 836.8913
836.0193, 832.2068
836.5014, 828.4547
836.9835, 825.4715
837.4656, 824.0261
837.9478, 825.8146
838.4299, 829.3881
838.9120, 831.9601
839.3941, 833.2178
839.8762, 833.6207
840.3583, 830.9172
840.8405, 829.2500
841.3226, 833.0824
841.8047, 845.7822
842.2868, 851.3430
842.7689, 847.8311
843.2510, 840.5468
843.7332, 830.5341
844.2153, 818.7382
844.6974, 818.9677
845.1795, 832.0421
845.6616, 842.3259
846.1437, 831.1351
846.6259, 814.2151
847.1080, 809.8290
847.5901, 820.9106
848.0722, 829.5268
848.5543, 828.5167
849.0364, 825.4151
849.5186, 823.8445
850.0007, 823.9855
850.4828, 822.6533
850.9649, 819.3936
851.4470, 817.4138
851.9291, 822.4549
852.4113, 829.3691
852.8934, 825.6489
853.3755, 811.7381
853.8576, 800.2437
854.3397, 798.3635
854.8218, 801.2775
855.3039, 808.1266
855.7860, 819.3345
856.2681, 824.7233
856.7502, 823.0484
857.2324, 818.1140
857.7145, 810.2576
858.1966, 800.6638
858.6787, 795.7325
859.1608, 795.2974
859.6429, 796.8552
860.1251, 799.0155
860.6072, 802.2067
861.0893, 808.9863
861.5714, 818.3250
862.0535, 821.9634
862.5356, 813.5076
863.0178, 803.6335
863.4999, 794.9594
863.9820, 787.3936
864.4641, 779.4185
864.9462, 770.5982
865.4283, 769.1240
865.9105, 784.9139
866.3926, 806.3649
866.8747, 815.4792
867.3568, 815.0743
867.8389, 814.4840
868.3210, 816.9906
868.8032, 820.8972
869.2853, 830.8291
869.7674, 841.6779
870.2495, 834.1511
870.7316, 800.6489
871.2137, 777.6769
871.6959, 778.2505
872.1780, 792.9243
872.6601, 807.4327
873.1422, 820.0164
873.6243, 825.0081
874.1064, 813.4329
874.5886, 800.3777
875.0707, 792.2341
875.5528, 788.8618
876.0349, 790.5453
876.5170, 803.4597
876.9991, 808.7369
877.4813, 801.7485
877.9634, 788.4212
878.4455, 776.6951
878.9276, 767.4365
879.4097, 768.1666
879.8918, 785.0797
880.3740, 801.1517
880.8561, 796.9610
881.3382, 783.8568
881.8203, 777.2440
882.3024, 787.5746
882.7845, 795.0913
883.2667, 798.5054
883.7488, 798.5660
884.2309, 793.9925
884.7130, 784.6084
885.1951, 783.7045
885.6772, 794.2018
886.1594, 804.8909
886.6415, 803.1351
887.1236, 794.6155
887.6057, 785.4003
888.0878, 774.6411
888.5699, 771.3156
889.0521, 787.8487
889.5342, 804.8239
890.0163, 807.8245
890.4984, 793.4951
890.9805, 786.9485
891.4626, 788.9916
891.9448, 794.1644
892.4269, 799.5280
892.9090, 804.1061
893.3911, 806.3998
893.8732, 806.2290
894.3553, 803.2482
894.8375, 789.0163
895.3196, 779.1828
895.8017, 787.2155
896.2838, 812.5142
896.7659, 823.4646
897.2480, 817.4616
897.7302, 806.2827
898.2123, 793.0009
898.6944, 780.4595
899.1765, 779.4585
899.6586, 787.3788
900.1407, 791.5445
900.6229, 776.5932
901.1050, 764.4905
901.5871, 770.7077
902.0692, 790.9512
902.5513, 803.1793
903.0334, 805.4635
903.5156, 803.5156
903.9977, 797.7167
904.4798, 789.7601
904.9619, 782.4788
905.4440, 776.1995
905.9261, 772.4439
906.4083, 773.4409
906.8904, 774.6720
907.3725, 769.6862
907.8546, 763.8456
908.3367, 766.8566
908.8188, 788.6298
909.3010, 802.9315
909.7831, 805.9529
910.2652, 803.9977
910.7473, 806.3348
911.2294, 811.6819
911.7115, 813.1570
912.1937, 809.0988
912.6758, 803.1109
913.1579, 797.4139
913.6400, 791.8464
914.1221, 785.6407
914.6042, 776.1638
915.0864, 773.7189
915.5685, 781.6769
916.0506, 791.8290
916.5327, 798.5400
917.0148, 801.9754
917.4969, 804.1950
917.9790, 805.2629
918.4611, 804.9174
918.9432, 800.3789
919.4254, 796.2315
919.9075, 797.9263
920.3896, 805.6949
920.8717, 810.0671
921.3538, 809.1022
921.8359, 805.4448
922.3181, 798.7339
922.8002, 790.1970
923.2823, 785.9595
923.7644, 785.8077
924.2465, 786.9723
924.7286, 788.1213
925.2108, 789.8438
925.6929, 793.3160
926.1750, 797.7606
926.6571, 801.3021
927.1392, 809.6967
927.6213, 807.4058
928.1035, 785.7650
928.5856, 758.5242
929.0677, 752.9064
929.5498, 767.4950
930.0319, 784.7025
930.5140, 802.4126
930.9962, 814.5782
931.4783, 810.9796
931.9604, 800.0408
932.4425, 792.1999
932.9246, 790.7903
933.4067, 790.5204
933.8889, 791.2160
934.3710, 792.4391
934.8531, 793.8543
935.3352, 795.4750
935.8173, 798.0638
936.2994, 801.7659
936.7816, 803.0767
937.2637, 795.6689
937.7458, 786.8951
938.2279, 784.5385
938.7100, 789.2413
939.1921, 793.2409
939.6743, 795.3329
940.1564, 796.4879
940.6385, 797.3862
941.1206, 797.5793
941.6027, 792.0289
942.0848, 781.7390
942.5670, 778.5255
943.0491, 795.8337
943.5312, 815.5618
944.0133, 820.5903
944.4954, 815.9763
944.9775, 813.5711
945.4597, 819.3820
945.9418, 822.3936
946.4239, 820.6252
946.9060, 816.4547
947.3881, 813.7889
947.8702, 812.2939
948.3524, 809.6508
948.8345, 805.3324
949.3166, 800.0959
949.7987, 791.2526
950.2808, 783.5653
950.7629, 782.5074
951.2451, 791.3141
951.7272, 801.2820
952.2093, 815.1282
952.6914, 824.9216
953.1735, 822.7613
953.6556, 810.8027
954.1378, 802.5972
954.6199, 798.1425
955.1020, 794.0372
955.5841, 782.5429
956.0662, 775.3663
956.5483, 785.8184
957.0305, 811.2253
957.5126, 823.1506
957.9947, 813.6364
958.4768, 807.1078
958.9589, 812.7130
959.4410, 823.3697
959.9232, 819.7625
960.4053, 806.2930
960.8874, 799.0517
961.3695, 809.1542
961.8516, 818.6255
962.3337, 814.8067
962.8159, 805.3512
963.2980, 800.6437
963.7801, 801.1896
964.2622, 807.2205
964.7443, 821.0367
965.2264, 833.8118
965.7086, 834.3993
966.1907, 827.1714
966.6728, 822.2344
967.1549, 820.7917
967.6370, 817.4910
968.1191, 805.4131
968.6013, 794.3027
969.0834, 791.5167
969.5655, 796.4991
970.0476, 794.6308
970.5297, 784.3618
971.0118, 777.1655
971.4940, 781.4685
971.9761, 790.1085
972.4582, 790.3768
972.9403, 784.8842
973.4224, 780.9402
973.9045, 779.6448
974.3867, 782.8081
974.8688, 795.5568
975.3509, 810.0837
975.8330, 813.8654
976.3151, 806.2643
976.7972, 797.9153
977.2794, 789.8876
977.7615, 784.4144
978.2435, 785.1228
978.7256, 789.3244
979.2078, 794.4177
979.6899, 800.6895
980.1720, 803.8053
980.6541, 801.0886
981.1362, 797.5812
981.6183, 794.2242
982.1005, 791.8735
982.5826, 801.9009
983.0647, 823.1772
983.5468, 838.7905
984.0289, 831.1962
984.5110, 820.1942
984.9932, 825.0705
985.4753, 839.8193
985.9574, 842.2380
986.4395, 821.0627
986.9216, 806.8189
987.4037, 805.3549
987.8859, 811.7170
988.3680, 820.7800
988.8501, 830.7031
989.3322, 834.5307
989.8143, 829.3995
990.2964, 823.7614
990.7786, 825.1904
991.2607, 826.7174
991.7428, 820.1744
992.2249, 801.9309
992.7070, 798.9639
993.1891, 814.6017
993.6713, 830.7206
994.1534, 834.5840
994.6355, 830.8975
995.1176, 826.7202
995.5997, 822.5833
996.0818, 820.2561
996.5640, 824.4191
997.0461, 825.5780
997.5282, 817.3099
998.0103, 805.8782
998.4924, 807.1673
998.9745, 821.6350
999.4567, 830.3214
999.9388, 828.2886
1000.421, 822.0709
1000.903, 814.9628
1001.385, 809.5897
1001.867, 810.5325
1002.349, 822.9293
1002.831, 827.7181
1003.314, 819.8255
1003.796, 810.4597
1004.278, 805.9029
1004.760, 806.0200
1005.242, 812.1605
1005.724, 823.3261
1006.206, 831.1847
1006.688, 827.8262
1007.171, 822.0899
1007.653, 817.2918
1008.135, 814.5240
1008.617, 817.0353
1009.099, 828.2800
1009.581, 832.8729
1010.063, 826.0177
1010.545, 816.1001
1011.027, 816.9013
1011.510, 823.2161
1011.992, 824.2941
1012.474, 816.3542
1012.956, 809.3139
1013.438, 809.3298
1013.920, 808.9040
1014.402, 801.7330
1014.884, 787.9238
1015.367, 783.9564
1015.849, 789.9723
1016.331, 799.8571
1016.813, 814.4615
1017.295, 827.3320
1017.777, 831.8622
1018.259, 829.2443
1018.741, 822.6652
1019.223, 805.8167
1019.706, 797.3502
1020.188, 802.0495
1020.670, 812.6172
1021.152, 818.4543
1021.634, 820.5294
1022.116, 822.4122
1022.598, 824.8616
1023.080, 826.1641
1023.563, 822.2205
1024.045, 819.1467
1024.527, 822.2575
1025.009, 831.6909
1025.491, 840.6740
1025.973, 850.1033
1026.455, 852.7484
1026.937, 840.4722
1027.419, 822.8969
1027.901, 810.4583
1028.384, 804.7821
1028.866, 810.1052
1029.348, 843.8706
1029.830, 866.5991
1030.312, 871.1381
1030.794, 865.3190
1031.276, 855.1730
1031.758, 841.9897
1032.241, 839.8315
1032.723, 850.7295
1033.205, 858.5573
1033.687, 844.0186
1034.169, 827.1452
1034.651, 824.7505
1035.133, 837.5176
1035.615, 846.9354
1036.098, 852.8051
1036.580, 855.4448
1037.062, 853.9185
1037.544, 850.5970
1038.026, 850.3856
1038.508, 851.6148
1038.990, 850.6105
1039.472, 845.2721
1039.954, 838.8872
1040.437, 831.4287
1040.919, 824.0245
1041.401, 815.3253
1041.883, 805.6708
1042.365, 812.8745
1042.847, 837.3651
1043.329, 854.2599
1043.811, 832.4625
1044.293, 806.9855
1044.776, 809.2034
1045.258, 834.4295
1045.740, 846.7674
1046.222, 840.2660
1046.704, 834.2492
1047.186, 832.2724
1047.668, 834.7562
1048.150, 849.2446
1048.633, 867.1407
1049.115, 868.2379
1049.597, 841.7597
1050.079, 820.8729
1050.561, 821.1171
1051.043, 826.8091
1051.525, 829.9304
1052.007, 830.6063
1052.490, 828.9066
1052.972, 825.2038
1053.454, 826.2239
1053.936, 847.2372
1054.418, 863.8242
1054.900, 847.5861
1055.382, 814.2996
1055.864, 801.3735
1056.346, 820.9006
1056.828, 832.9410
1057.311, 833.4003
1057.793, 826.5755
1058.275, 811.9745
1058.757, 795.6660
1059.239, 789.0386
1059.721, 793.3879
1060.203, 801.1276
1060.685, 815.4116
1061.168, 825.5375
1061.650, 825.4403
1062.132, 818.9510
1062.614, 821.7009
1063.096, 832.2681
1063.578, 838.7959
1064.060, 835.2482
1064.542, 830.3648
1065.025, 829.8326
1065.507, 832.0609
1065.989, 835.3850
1066.471, 840.0663
1066.953, 844.2970
1067.435, 848.1730
1067.917, 851.2043
1068.399, 854.0607
1068.881, 855.2983
1069.364, 851.9804
1069.846, 844.8510
1070.328, 837.1450
1070.810, 824.2318
1071.292, 818.9631
1071.774, 825.2762
1072.256, 837.7922
1072.738, 848.9039
1073.220, 858.7105
1073.703, 867.9915
1074.185, 877.4108
1074.667, 881.5040
1075.149, 872.4841
1075.631, 860.6160
1076.113, 852.7970
1076.595, 848.7361
1077.077, 843.7271
1077.559, 837.2130
1078.042, 837.9931
1078.524, 854.5892
1079.006, 871.5272
1079.488, 867.1814
1079.970, 851.8141
1080.452, 840.7824
1080.934, 840.1889
1081.416, 839.9200
1081.899, 839.9344
1082.381, 840.2258
1082.863, 842.0066
1083.345, 843.7697
1083.827, 839.5347
1084.309, 830.6692
1084.791, 824.7448
1085.273, 825.3542
1085.755, 829.9435
1086.238, 840.9114
1086.720, 852.7925
1087.202, 854.3298
1087.684, 846.3952
1088.166, 843.9554
1088.648, 850.1646
1089.130, 854.7776
1089.612, 847.6721
1090.094, 836.9428
1090.577, 828.0131
1091.059, 821.4204
1091.541, 820.1210
1092.023, 825.4420
1092.505, 829.0840
1092.987, 826.7355
1093.469, 823.1941
1093.951, 825.1411
1094.434, 830.7437
1094.916, 837.2053
1095.398, 845.1972
1095.880, 851.2374
1096.362, 856.8770
1096.844, 857.5759
1097.326, 846.5715
1097.808, 828.1867
1098.291, 816.8748
1098.773, 812.6852
1099.255, 815.7079
1099.737, 834.0920
1100.219, 849.8715
1100.701, 855.8341
1101.183, 856.3173
1101.665, 855.7391
1102.147, 854.2014
1102.630, 858.0831
1103.112, 854.3021
1103.594, 867.0358
1104.076, 874.2523
1104.558, 876.2482
1105.040, 857.3870
1105.522, 865.4584
1106.004, 862.7365
1106.486, 859.5719
1106.969, 871.4342
1107.451, 855.6067
1107.933, 867.2304
1108.415, 867.8961
1108.897, 873.5770
1109.379, 868.3979
1109.861, 866.5731
1110.343, 875.6118
1110.826, 878.6356
1111.308, 872.2062
1111.790, 878.2059
1112.272, 861.9990
1112.754, 865.2787
1113.236, 876.9659
1113.718, 871.0828
1114.200, 855.1835
1114.682, 843.8728
1115.165, 843.4604
1115.647, 848.0114
1116.129, 853.4418
1116.611, 859.4229
1117.093, 862.4355
1117.575, 862.3666
1118.057, 859.8401
1118.539, 852.7873
1119.021, 845.9102
1119.504, 842.3141
1119.986, 840.8414
1120.468, 837.9009
1120.950, 832.8402
1121.432, 835.1414
1121.914, 847.6423
1122.396, 858.9825
1122.878, 853.7327
1123.361, 845.0263
1123.843, 847.7996
1124.325, 863.6948
1124.807, 869.8048
1125.289, 863.0300
1125.771, 856.8398
1126.253, 856.5007
1126.735, 857.3278
1127.218, 848.5865
1127.700, 837.1361
1128.182, 835.4257
1128.664, 850.9871
1129.146, 861.5898
1129.628, 863.6168
1130.110, 863.3394
1130.592, 863.5868
1131.074, 864.5520
1131.557, 868.9990
1132.039, 874.9781
1132.521, 875.7977
1133.003, 861.5228
1133.485, 851.5973
1133.967, 853.3601
1134.449, 858.1786
1134.931, 858.6368
1135.413, 854.9598
1135.896, 847.0280
1136.378, 835.5808
1136.860, 828.6554
1137.342, 833.2824
1137.824, 841.6858
1138.306, 852.5363
1138.788, 863.3815
1139.270, 870.1799
1139.752, 872.8263
1140.235, 871.3463
1140.717, 865.1836
1141.199, 860.8458
1141.681, 869.2125
1142.163, 877.5315
1142.645, 871.6506
1143.127, 853.3768
1143.609, 848.2410
1144.092, 858.7079
1144.574, 866.1132
1145.056, 864.3489
1145.538, 860.7943
1146.020, 868.7581
1146.502, 877.9150
1146.984, 871.9153
1147.466, 842.4642
1147.948, 832.7578
1148.431, 848.9105
1148.913, 867.7744
1149.395, 881.7601
1149.877, 888.6545
1150.359, 878.7809
1150.841, 860.2553
1151.323, 848.7201
1151.805, 852.2843
1152.287, 856.4354
1152.770, 860.0759
1153.252, 863.8379
1153.734, 868.0764
1154.216, 872.8543
1154.698, 881.7667
1155.180, 891.9446
1155.662, 892.8149
1156.144, 867.6164
1156.627, 849.6071
1157.109, 845.0299
1157.591, 848.8442
1158.073, 858.8187
1158.555, 872.5798
1159.037, 879.0007
1159.519, 877.9833
1160.001, 875.9715
1160.484, 876.4901
1160.966, 876.6666
1161.448, 875.9792
1161.930, 873.8540
1162.412, 867.5822
1162.894, 858.0688
1163.376, 853.6597
1163.858, 855.7453
1164.340, 859.9306
1164.823, 867.3594
1165.305, 871.8773
1165.787, 868.4983
1166.269, 859.4507
1166.751, 851.1713
1167.233, 843.7683
1167.715, 843.3239
1168.197, 853.5677
1168.679, 862.5700
1169.162, 860.2591
1169.644, 852.2832
1170.126, 840.8110
1170.608, 826.5296
1171.090, 825.0856
1171.572, 837.1664
1172.054, 848.4071
1172.536, 851.4211
1173.019, 854.0173
1173.501, 868.4982
1173.983, 884.6116
1174.465, 887.3674
1174.947, 872.4604
1175.429, 866.3957
1175.911, 870.4852
1176.393, 873.7761
1176.875, 866.9699
1177.358, 858.8959
1177.840, 861.6489
1178.322, 869.8974
1178.804, 873.1844
1179.286, 866.7139
1179.768, 864.1560
1180.250, 865.9487
1180.732, 870.5303
1181.214, 881.3404
1181.697, 890.8698
1182.179, 884.1359
1182.661, 867.5433
1183.143, 862.7986
1183.625, 883.0454
1184.107, 892.5185
1184.589, 886.0777
1185.071, 875.9331
1185.554, 873.9604
1186.036, 876.7262
1186.518, 880.8090
1187.000, 885.2982
1187.482, 885.4980
1187.964, 874.5424
1188.446, 873.2838
1188.928, 889.2319
1189.411, 905.7818
1189.893, 893.9320
1190.375, 870.0371
1190.857, 866.4474
1191.339, 885.7706
1191.821, 894.8726
1192.303, 879.9702
1192.785, 866.8935
1193.267, 861.7070
1193.750, 862.3720
1194.232, 868.3994
1194.714, 876.7410
1195.196, 880.5687
1195.678, 877.8785
1196.160, 878.7491
1196.642, 890.3224
1197.124, 897.1633
1197.606, 892.9041
1198.089, 881.7234
1198.571, 867.3934
1199.053, 854.6155
1199.535, 856.1598
1200.017, 880.3793
1200.499, 898.9418
1200.981, 906.9072
1201.463, 906.4640
1201.945, 894.5940
1202.428, 878.1387
1202.910, 877.8444
1203.392, 888.0414
1203.874, 893.4568
1204.356, 884.7101
1204.838, 882.0880
1205.320, 894.7437
1205.802, 905.4368
1206.285, 900.5908
1206.767, 886.4849
1207.249, 884.4090
1207.731, 891.1602
1208.213, 897.1177
1208.695, 900.0574
1209.177, 898.6378
1209.659, 889.3970
1210.141, 881.4344
1210.624, 884.0575
1211.106, 893.7833
1211.588, 901.5242
1212.070, 905.6912
1212.552, 900.7355
1213.034, 868.8156
1213.516, 850.2063
1213.998, 854.8289
1214.480, 868.0846
1214.963, 877.2589
1215.445, 883.0069
1215.927, 887.8566
1216.409, 891.6148
1216.891, 892.7178
1217.373, 886.7401
1217.855, 883.4797
1218.337, 885.6649
1218.820, 889.6091
1219.302, 891.0978
1219.784, 890.6919
1220.266, 889.2295
1220.748, 887.0975
1221.230, 886.6695
1221.712, 888.6594
1222.194, 893.5638
1222.677, 903.5934
1223.159, 912.9481
1223.641, 911.6337
1224.123, 903.5826
1224.605, 897.7180
1225.087, 894.8998
1225.569, 894.9563
1226.051, 903.8139
1226.533, 906.2682
1227.016, 895.0117
1227.498, 882.3266
1227.980, 894.6718
1228.462, 918.6992
1228.944, 921.9132
1229.426, 900.1924
1229.908, 885.1597
1230.390, 891.1550
1230.872, 896.7222
1231.355, 895.4499
1231.837, 892.8556
1232.319, 901.8270
1232.801, 915.4140
1233.283, 919.1953
1233.765, 910.3200
1234.247, 901.2435
1234.729, 889.6175
1235.212, 889.2401
1235.694, 909.0807
1236.176, 934.1027
1236.658, 935.2886
1237.140, 923.3574
1237.622, 917.0793
1238.104, 921.0148
1238.586, 921.5245
1239.068, 916.2391
1239.551, 910.0325
1240.033, 903.8557
1240.515, 899.2521
1240.997, 899.0643
1241.479, 902.0017
1241.961, 906.6951
1242.443, 913.7485
1242.925, 918.2819
1243.407, 922.2073
1243.890, 915.4114
1244.372, 887.4176
1244.854, 857.5185
1245.336, 857.8040
1245.818, 874.3889
1246.300, 888.4397
1246.782, 896.7224
1247.264, 901.0053
1247.747, 899.7668
1248.229, 902.5891
1248.711, 919.1343
1249.193, 933.1259
1249.675, 915.3864
1250.157, 887.2031
1250.639, 881.7132
1251.121, 907.9421
1251.604, 914.7533
1252.086, 899.7289
1252.568, 886.0367
1253.050, 884.3172
1253.532, 890.3029
1254.014, 910.0590
1254.496, 929.3080
1254.978, 924.7507
1255.460, 891.2309
1255.943, 884.8285
1256.425, 906.1543
1256.907, 927.0201
1257.389, 934.9399
1257.871, 934.8300
1258.353, 923.8282
1258.835, 911.2408
1259.317, 908.9351
1259.799, 917.9088
1260.281, 918.7956
1260.764, 912.2729
1261.246, 907.6039
1261.728, 911.1503
1262.210, 915.9169
1262.692, 920.5670
1263.174, 922.5258
1263.656, 918.3259
1264.138, 908.4460
1264.621, 901.5466
1265.103, 897.7719
1265.585, 898.0087
1266.067, 904.8624
1266.549, 913.0942
1267.031, 925.6278
1267.513, 933.8961
1267.995, 927.9694
1268.478, 911.0274
1268.960, 900.0342
1269.442, 894.8747
1269.924, 895.0792
1270.406, 906.6976
1270.888, 914.4130
1271.370, 914.8786
1271.852, 912.4370
1272.334, 908.7388
1272.817, 905.4761
1273.299, 910.4218
1273.781, 920.1977
1274.263, 924.0058
1274.745, 909.6136
1275.227, 902.9950
1275.709, 908.6130
1276.191, 914.4276
1276.673, 906.8347
1277.156, 895.2257
1277.638, 896.5497
1278.120, 907.2144
1278.602, 917.7310
1279.084, 931.4934
1279.566, 930.4246
1280.048, 910.6862
1280.530, 892.7991
1281.013, 895.0164
1281.495, 905.4518
1281.977, 911.9850
1282.459, 916.2332
1282.941, 922.9224
1283.423, 935.0397
1283.905, 936.9143
1284.387, 927.8269
1284.870, 913.1912
1285.352, 882.5146
1285.834, 862.9250
1286.316, 887.1418
1286.798, 929.0901
1287.280, 947.1377
1287.762, 940.1172
1288.244, 935.4921
1288.726, 933.7144
1289.208, 929.0952
1289.691, 908.1109
1290.173, 895.6688
1290.655, 913.5979
##END=



