##NAMES=Rynersonite
##RRUFFID=R080063
##IDEAL CHEMISTRY=CaTa_2_O_6_
##LOCALITY=Brown Derby mine, Ohio City, Quartz Creek District, Gunnison County, Colorado, USA
##OWNER=RRUFF
##SOURCE=Michael Scott
##DESCRIPTION=Pearly white fibrous aggregate
##STATUS=The identification of this mineral has been confirmed only by single crystal X-ray diffraction.
##URL=rruff.info/R080063
119.0398, 535.7535
119.5220, 533.0513
120.0041, 530.0358
120.4862, 527.9918
120.9683, 529.4190
121.4504, 536.3356
121.9325, 543.2646
122.4147, 545.2858
122.8968, 542.0068
123.3789, 538.5535
123.8610, 536.8252
124.3431, 536.5089
124.8252, 537.6910
125.3074, 540.6932
125.7895, 544.8476
126.2716, 548.7828
126.7537, 552.2440
127.2358, 555.9025
127.7179, 559.8615
128.2001, 564.1212
128.6822, 568.8437
129.1643, 574.2565
129.6464, 580.2476
130.1285, 585.0688
130.6107, 586.5037
131.0928, 588.8688
131.5749, 593.7074
132.0570, 600.3935
132.5391, 607.4726
133.0212, 613.7235
133.5034, 619.1786
133.9855, 623.3908
134.4676, 624.1682
134.9497, 625.6895
135.4318, 630.6901
135.9139, 639.2424
136.3960, 649.1539
136.8782, 657.9167
137.3603, 665.1823
137.8424, 673.3254
138.3245, 682.9313
138.8066, 693.2882
139.2887, 703.4739
139.7709, 713.1937
140.2530, 722.9329
140.7351, 733.2831
141.2172, 744.0991
141.6993, 755.3470
142.1814, 766.5109
142.6636, 777.8898
143.1457, 790.8656
143.6278, 806.4202
144.1099, 822.8954
144.5920, 839.2640
145.0741, 855.4067
145.5563, 870.9142
146.0384, 885.4940
146.5205, 899.1300
147.0026, 911.7697
147.4847, 924.4232
147.9668, 935.3470
148.4490, 943.0258
148.9311, 947.2306
149.4132, 949.4963
149.8953, 952.4819
150.3774, 958.4671
150.8595, 960.0838
151.3417, 955.7913
151.8238, 948.4232
152.3059, 939.5436
152.7880, 929.9167
153.2701, 920.0643
153.7522, 911.4468
154.2344, 903.1985
154.7165, 897.6205
155.1986, 895.8341
155.6807, 896.4575
156.1628, 897.5518
156.6449, 898.0433
157.1271, 898.7048
157.6092, 903.0167
158.0913, 913.6217
158.5734, 924.1550
159.0555, 931.9323
159.5376, 938.1144
160.0198, 945.9780
160.5019, 957.8469
160.9840, 972.5457
161.4661, 985.1888
161.9482, 994.3727
162.4303, 1003.100
162.9125, 1012.708
163.3946, 1023.219
163.8767, 1035.594
164.3588, 1052.062
164.8409, 1070.265
165.3230, 1086.224
165.8052, 1097.957
166.2873, 1108.320
166.7694, 1121.165
167.2515, 1137.431
167.7336, 1153.132
168.2157, 1166.205
168.6979, 1177.718
169.1800, 1188.816
169.6621, 1199.897
170.1442, 1210.942
170.6263, 1222.343
171.1084, 1236.132
171.5906, 1246.651
172.0727, 1251.543
172.5548, 1252.753
173.0369, 1253.064
173.5190, 1254.301
174.0011, 1256.106
174.4833, 1255.458
174.9654, 1250.546
175.4475, 1244.634
175.9296, 1238.549
176.4117, 1231.963
176.8938, 1224.167
177.3760, 1214.664
177.8581, 1203.449
178.3402, 1190.485
178.8223, 1175.012
179.3044, 1158.818
179.7865, 1142.394
180.2687, 1125.797
180.7508, 1108.991
181.2329, 1092.043
181.7150, 1074.880
182.1971, 1057.558
182.6792, 1039.885
183.1614, 1022.278
183.6435, 1004.777
184.1256, 987.4904
184.6077, 970.8446
185.0898, 955.6179
185.5719, 941.8760
186.0541, 926.3330
186.5362, 907.3896
187.0183, 887.5062
187.5004, 868.8749
187.9825, 851.6808
188.4646, 835.5068
188.9468, 820.3060
189.4289, 805.9225
189.9110, 791.4321
190.3931, 776.7626
190.8752, 761.8539
191.3573, 746.0118
191.8395, 728.4693
192.3216, 712.0719
192.8037, 699.4130
193.2858, 689.5334
193.7679, 680.5504
194.2500, 671.8944
194.7322, 663.5499
195.2143, 655.2263
195.6964, 646.5365
196.1785, 638.6123
196.6606, 631.5158
197.1427, 625.4264
197.6249, 620.8956
198.1070, 619.0614
198.5891, 619.5271
199.0712, 618.1954
199.5533, 613.4127
200.0354, 608.5099
200.5176, 604.3326
200.9997, 601.0258
201.4818, 598.7497
201.9639, 597.8175
202.4460, 598.2632
202.9281, 598.5455
203.4103, 598.6931
203.8924, 598.6296
204.3745, 597.4908
204.8566, 595.9871
205.3387, 595.8445
205.8208, 598.8279
206.3030, 605.4550
206.7851, 610.4916
207.2672, 612.1683
207.7493, 614.0980
208.2314, 617.7780
208.7135, 623.0414
209.1957, 628.7933
209.6778, 633.9817
210.1599, 638.3800
210.6420, 644.0789
211.1241, 651.8568
211.6062, 659.9464
212.0884, 667.2189
212.5705, 673.7821
213.0526, 680.7252
213.5347, 689.1207
214.0168, 699.1807
214.4989, 709.0052
214.9811, 718.3068
215.4632, 727.6384
215.9453, 737.9798
216.4274, 749.1903
216.9095, 759.2605
217.3916, 766.0209
217.8737, 769.4131
218.3559, 774.1703
218.8380, 781.2706
219.3201, 789.2360
219.8022, 796.7833
220.2843, 803.8201
220.7664, 811.1185
221.2486, 819.4782
221.7307, 828.7179
222.2128, 837.6720
222.6949, 844.7731
223.1770, 852.2659
223.6591, 863.1058
224.1413, 877.7524
224.6234, 893.0509
225.1055, 906.1211
225.5876, 918.2279
226.0697, 931.7991
226.5518, 948.0000
227.0340, 965.6631
227.5161, 982.7567
227.9982, 998.7609
228.4803, 1016.056
228.9624, 1037.251
229.4445, 1060.160
229.9267, 1082.439
230.4088, 1103.562
230.8909, 1123.100
231.3730, 1139.739
231.8551, 1152.691
232.3372, 1164.579
232.8194, 1177.982
233.3015, 1190.741
233.7836, 1200.207
234.2657, 1205.111
234.7478, 1206.401
235.2299, 1206.192
235.7121, 1204.768
236.1942, 1200.994
236.6763, 1194.238
237.1584, 1185.550
237.6405, 1176.021
238.1227, 1166.124
238.6048, 1155.433
239.0869, 1142.528
239.5690, 1124.886
240.0511, 1109.464
240.5332, 1097.411
241.0154, 1087.878
241.4975, 1080.443
241.9796, 1074.932
242.4617, 1070.881
242.9438, 1067.295
243.4259, 1064.677
243.9081, 1061.705
244.3902, 1057.275
244.8723, 1052.915
245.3544, 1050.218
245.8365, 1049.771
246.3186, 1050.771
246.8008, 1051.347
247.2829, 1050.420
247.7650, 1050.710
248.2471, 1050.403
248.7292, 1052.183
249.2113, 1059.419
249.6935, 1073.039
250.1756, 1090.057
250.6577, 1104.700
251.1398, 1115.193
251.6219, 1125.477
252.1040, 1134.321
252.5862, 1143.523
253.0683, 1155.109
253.5504, 1169.498
254.0325, 1185.081
254.5146, 1199.214
254.9967, 1210.837
255.4789, 1222.711
255.9610, 1234.580
256.4431, 1246.781
256.9252, 1259.706
257.4073, 1273.459
257.8894, 1287.748
258.3716, 1302.245
258.8537, 1317.036
259.3358, 1331.843
259.8179, 1347.390
260.3000, 1362.589
260.7821, 1376.478
261.2643, 1388.931
261.7464, 1400.440
262.2285, 1411.546
262.7106, 1422.244
263.1927, 1432.540
263.6748, 1442.796
264.1570, 1452.379
264.6391, 1459.912
265.1212, 1465.434
265.6033, 1471.717
266.0854, 1482.167
266.5675, 1496.887
267.0497, 1507.309
267.5318, 1510.379
268.0139, 1511.026
268.4960, 1513.310
268.9781, 1517.367
269.4602, 1520.514
269.9424, 1520.134
270.4245, 1516.824
270.9066, 1515.494
271.3887, 1518.864
271.8708, 1522.278
272.3529, 1522.054
272.8351, 1518.350
273.3172, 1513.421
273.7993, 1507.512
274.2814, 1501.755
274.7635, 1499.115
275.2456, 1502.175
275.7278, 1505.569
276.2099, 1505.585
276.6920, 1502.488
277.1741, 1498.467
277.6562, 1494.696
278.1383, 1490.381
278.6205, 1484.590
279.1026, 1477.581
279.5847, 1468.423
280.0668, 1457.628
280.5489, 1444.634
281.0310, 1425.863
281.5132, 1397.953
281.9953, 1365.446
282.4774, 1336.031
282.9595, 1310.563
283.4416, 1283.253
283.9237, 1249.706
284.4059, 1211.217
284.8880, 1172.495
285.3701, 1133.910
285.8522, 1096.824
286.3343, 1062.699
286.8164, 1031.403
287.2986, 1000.781
287.7807, 968.4991
288.2628, 935.7835
288.7449, 907.2241
289.2270, 884.3453
289.7091, 864.0823
290.1913, 843.2619
290.6734, 822.4393
291.1555, 803.3675
291.6376, 787.3649
292.1197, 773.7709
292.6018, 760.7937
293.0840, 748.3187
293.5661, 736.8163
294.0482, 726.6474
294.5303, 717.6138
295.0124, 709.4063
295.4945, 702.2797
295.9767, 695.8018
296.4588, 688.8404
296.9409, 680.8165
297.4230, 674.3121
297.9051, 671.6143
298.3872, 670.8822
298.8694, 670.1497
299.3515, 668.8287
299.8336, 667.3518
300.3157, 666.1348
300.7978, 665.1045
301.2799, 664.7509
301.7621, 665.6089
302.2442, 667.0912
302.7263, 668.7072
303.2084, 670.3491
303.6905, 672.2636
304.1726, 674.8951
304.6548, 678.2786
305.1369, 681.3807
305.6190, 683.6205
306.1011, 685.7808
306.5832, 688.3358
307.0653, 691.3332
307.5475, 694.8192
308.0296, 698.6818
308.5117, 702.9581
308.9938, 708.3815
309.4759, 716.1120
309.9580, 723.7450
310.4402, 728.8618
310.9223, 732.2349
311.4044, 736.8649
311.8865, 745.1632
312.3686, 756.3723
312.8507, 767.3632
313.3329, 778.0046
313.8150, 788.5663
314.2971, 799.0339
314.7792, 809.6107
315.2613, 820.7827
315.7434, 833.0032
316.2256, 845.8615
316.7077, 858.5602
317.1898, 871.2776
317.6719, 883.6294
318.1540, 895.2896
318.6361, 906.5951
319.1183, 917.6646
319.6004, 928.3289
320.0825, 939.5021
320.5646, 952.3663
321.0467, 966.9651
321.5288, 983.0174
322.0110, 1002.402
322.4931, 1022.042
322.9752, 1039.085
323.4573, 1052.974
323.9394, 1066.351
324.4215, 1081.605
324.9037, 1098.614
325.3858, 1116.064
325.8679, 1134.328
326.3500, 1152.295
326.8321, 1168.339
327.3142, 1182.969
327.7964, 1199.045
328.2785, 1219.827
328.7606, 1244.062
329.2427, 1265.333
329.7248, 1281.022
330.2069, 1297.672
330.6891, 1320.032
331.1712, 1346.113
331.6533, 1371.936
332.1354, 1395.823
332.6175, 1418.280
333.0996, 1439.816
333.5818, 1459.876
334.0639, 1481.173
334.5460, 1506.367
335.0281, 1533.068
335.5102, 1558.555
335.9923, 1582.126
336.4745, 1604.681
336.9566, 1627.641
337.4387, 1650.990
337.9208, 1673.450
338.4029, 1694.150
338.8850, 1714.057
339.3671, 1733.984
339.8492, 1754.090
340.3314, 1774.040
340.8135, 1793.740
341.2956, 1813.255
341.7777, 1831.718
342.2598, 1848.011
342.7419, 1864.658
343.2241, 1884.911
343.7062, 1907.931
344.1883, 1928.923
344.6704, 1946.082
345.1525, 1959.578
345.6346, 1968.975
346.1168, 1973.176
346.5989, 1976.730
347.0810, 1984.502
347.5631, 1993.756
348.0452, 1999.363
348.5273, 1998.828
349.0095, 1995.175
349.4916, 1992.278
349.9737, 1990.235
350.4558, 1985.181
350.9379, 1974.385
351.4200, 1959.850
351.9022, 1945.281
352.3843, 1931.168
352.8664, 1916.246
353.3485, 1899.779
353.8306, 1881.872
354.3127, 1862.835
354.7949, 1842.323
355.2770, 1821.252
355.7591, 1800.446
356.2412, 1779.921
356.7233, 1759.779
357.2054, 1741.294
357.6876, 1722.821
358.1697, 1700.906
358.6518, 1674.600
359.1339, 1648.533
359.6160, 1628.348
360.0981, 1612.397
360.5803, 1592.432
361.0624, 1562.666
361.5445, 1532.206
362.0266, 1509.866
362.5087, 1494.727
362.9908, 1478.943
363.4730, 1457.934
363.9551, 1433.372
364.4372, 1410.211
364.9193, 1388.364
365.4014, 1367.998
365.8835, 1350.330
366.3657, 1334.188
366.8478, 1316.975
367.3299, 1297.794
367.8120, 1277.723
368.2941, 1258.062
368.7762, 1238.535
369.2584, 1220.578
369.7405, 1206.213
370.2226, 1192.531
370.7047, 1176.369
371.1868, 1157.365
371.6689, 1138.140
372.1511, 1120.943
372.6332, 1105.878
373.1153, 1090.526
373.5974, 1074.535
374.0795, 1058.515
374.5616, 1042.089
375.0438, 1025.800
375.5259, 1010.852
376.0080, 998.1060
376.4901, 986.9348
376.9722, 975.2211
377.4543, 962.1575
377.9365, 949.6245
378.4186, 937.7897
378.9007, 926.5700
379.3828, 916.0704
379.8649, 906.2772
380.3470, 896.8339
380.8292, 887.1282
381.3113, 876.3929
381.7934, 867.8131
382.2755, 863.3557
382.7576, 859.0436
383.2397, 852.1134
383.7219, 843.1144
384.2040, 834.5751
384.6861, 828.4874
385.1682, 824.7397
385.6503, 821.7640
386.1324, 820.9672
386.6146, 819.4124
387.0967, 815.2589
387.5788, 810.5293
388.0609, 807.9633
388.5430, 808.7281
389.0251, 811.4196
389.5073, 813.2579
389.9894, 813.8901
390.4715, 814.3536
390.9536, 814.0321
391.4357, 814.0842
391.9178, 815.1896
392.4000, 817.4323
392.8821, 820.5795
393.3642, 824.6381
393.8463, 829.6548
394.3284, 834.1348
394.8105, 838.0964
395.2927, 841.4581
395.7748, 843.5747
396.2569, 845.2094
396.7390, 847.5961
397.2211, 851.3716
397.7032, 856.2103
398.1854, 861.2948
398.6675, 866.4487
399.1496, 872.4694
399.6317, 880.3441
400.1138, 888.7604
400.5959, 896.8450
401.0781, 904.4271
401.5602, 911.6326
402.0423, 918.1947
402.5244, 924.2184
403.0065, 931.1753
403.4886, 939.8784
403.9708, 948.5613
404.4529, 955.6274
404.9350, 961.6387
405.4171, 968.2648
405.8992, 976.3082
406.3813, 985.2899
406.8635, 994.7133
407.3456, 1004.658
407.8277, 1014.424
408.3098, 1023.719
408.7919, 1032.689
409.2740, 1041.488
409.7562, 1049.992
410.2383, 1058.748
410.7204, 1068.385
411.2025, 1078.610
411.6846, 1088.690
412.1667, 1098.526
412.6489, 1108.077
413.1310, 1117.162
413.6131, 1125.843
414.0952, 1134.642
414.5773, 1142.697
415.0594, 1151.559
415.5416, 1162.698
416.0237, 1176.093
416.5058, 1191.004
416.9879, 1207.480
417.4700, 1224.908
417.9521, 1240.001
418.4343, 1251.440
418.9164, 1262.551
419.3985, 1273.441
419.8806, 1284.803
420.3627, 1297.844
420.8448, 1312.972
421.3270, 1329.020
421.8091, 1344.368
422.2912, 1358.914
422.7733, 1372.666
423.2554, 1383.300
423.7375, 1395.137
424.2197, 1411.439
424.7018, 1431.324
425.1839, 1451.364
425.6660, 1468.993
426.1481, 1484.675
426.6302, 1502.261
427.1124, 1525.475
427.5945, 1545.787
428.0766, 1558.301
428.5587, 1569.362
429.0408, 1586.508
429.5229, 1611.604
430.0051, 1639.262
430.4872, 1661.380
430.9693, 1675.897
431.4514, 1693.113
431.9335, 1714.815
432.4156, 1738.195
432.8978, 1763.362
433.3799, 1789.436
433.8620, 1814.899
434.3441, 1838.491
434.8262, 1860.871
435.3083, 1883.674
435.7905, 1906.644
436.2726, 1930.545
436.7547, 1957.287
437.2368, 1984.366
437.7189, 2009.294
438.2010, 2031.534
438.6832, 2052.886
439.1653, 2074.572
439.6474, 2096.553
440.1295, 2118.806
440.6116, 2140.916
441.0938, 2164.005
441.5759, 2188.976
442.0580, 2215.533
442.5401, 2243.311
443.0222, 2275.597
443.5043, 2306.586
443.9865, 2330.231
444.4686, 2346.900
444.9507, 2360.707
445.4328, 2372.839
445.9149, 2383.964
446.3970, 2395.809
446.8792, 2409.222
447.3613, 2420.880
447.8434, 2429.829
448.3255, 2436.563
448.8076, 2441.909
449.2897, 2445.980
449.7719, 2447.942
450.2540, 2447.210
450.7361, 2443.747
451.2182, 2436.168
451.7003, 2423.457
452.1824, 2408.483
452.6646, 2391.599
453.1467, 2373.250
453.6288, 2354.396
454.1109, 2335.406
454.5930, 2315.474
455.0751, 2292.576
455.5573, 2264.466
456.0394, 2237.710
456.5215, 2214.961
457.0036, 2191.111
457.4857, 2162.071
457.9678, 2128.862
458.4500, 2095.384
458.9321, 2064.588
459.4142, 2036.067
459.8963, 2007.103
460.3784, 1977.561
460.8605, 1947.909
461.3427, 1919.349
461.8248, 1889.940
462.3069, 1856.905
462.7890, 1819.570
463.2711, 1781.622
463.7532, 1747.178
464.2354, 1715.847
464.7175, 1684.919
465.1996, 1654.045
465.6817, 1623.659
466.1638, 1593.970
466.6459, 1564.932
467.1281, 1536.491
467.6102, 1509.600
468.0923, 1482.528
468.5744, 1452.603
469.0565, 1420.065
469.5386, 1390.131
470.0208, 1365.755
470.5029, 1343.819
470.9850, 1318.491
471.4671, 1288.752
471.9492, 1261.369
472.4313, 1238.821
472.9135, 1218.881
473.3956, 1199.546
473.8777, 1180.517
474.3598, 1161.418
474.8419, 1141.792
475.3240, 1121.880
475.8062, 1104.526
476.2883, 1091.272
476.7704, 1078.236
477.2525, 1065.098
477.7346, 1051.600
478.2167, 1037.131
478.6989, 1021.624
479.1810, 1006.425
479.6631, 992.9987
480.1452, 981.5262
480.6273, 971.3651
481.1094, 963.9437
481.5916, 956.4169
482.0737, 947.5636
482.5558, 938.0150
483.0379, 929.0321
483.5200, 921.2493
484.0021, 913.9263
484.4843, 905.5850
484.9664, 895.9742
485.4485, 886.2764
485.9306, 875.3981
486.4127, 865.7083
486.8948, 859.2847
487.3770, 855.7142
487.8591, 852.5282
488.3412, 847.9518
488.8233, 842.9482
489.3054, 840.2235
489.7875, 840.2412
490.2697, 838.1194
490.7518, 830.0321
491.2339, 818.9410
491.7160, 810.8312
492.1981, 806.3700
492.6802, 803.0417
493.1624, 799.7186
493.6445, 796.9548
494.1266, 796.1915
494.6087, 797.5891
495.0908, 798.5907
495.5729, 796.6736
496.0551, 791.8873
496.5372, 788.6390
497.0193, 788.1061
497.5014, 787.4961
497.9835, 785.2357
498.4656, 782.6263
498.9478, 781.4292
499.4299, 782.2367
499.9120, 784.6134
500.3941, 788.2220
500.8762, 793.8317
501.3583, 797.6761
501.8405, 798.2185
502.3226, 798.5413
502.8047, 798.8762
503.2868, 799.9214
503.7689, 802.9642
504.2510, 808.8864
504.7331, 816.0918
505.2152, 821.2326
505.6974, 823.6970
506.1795, 828.1298
506.6616, 838.0593
507.1437, 847.7236
507.6258, 851.3490
508.1079, 850.2539
508.5901, 851.7563
509.0722, 861.1462
509.5543, 874.3151
510.0364, 885.5453
510.5185, 894.7936
511.0006, 903.5355
511.4828, 912.1639
511.9649, 920.9160
512.4470, 930.2238
512.9291, 940.0815
513.4113, 950.3706
513.8934, 960.4399
514.3755, 971.2332
514.8576, 984.4467
515.3397, 999.8073
515.8218, 1014.439
516.3040, 1026.191
516.7861, 1035.461
517.2682, 1044.969
517.7503, 1052.827
518.2324, 1063.355
518.7145, 1078.872
519.1967, 1096.177
519.6788, 1112.631
520.1609, 1127.624
520.6430, 1141.682
521.1251, 1154.987
521.6072, 1167.670
522.0894, 1181.702
522.5715, 1197.808
523.0536, 1214.223
523.5357, 1231.340
524.0178, 1247.961
524.4999, 1262.089
524.9821, 1272.993
525.4642, 1284.113
525.9463, 1299.618
526.4284, 1318.277
526.9105, 1334.957
527.3926, 1348.662
527.8748, 1360.928
528.3569, 1372.539
528.8390, 1383.646
529.3211, 1394.899
529.8032, 1405.376
530.2853, 1417.086
530.7675, 1433.158
531.2496, 1450.849
531.7317, 1464.387
532.2138, 1472.115
532.6959, 1477.182
533.1780, 1483.524
533.6602, 1491.740
534.1423, 1497.387
534.6244, 1498.985
535.1065, 1500.091
535.5886, 1501.564
536.0707, 1503.544
536.5529, 1506.752
537.0350, 1511.362
537.5171, 1515.229
537.9992, 1514.305
538.4813, 1507.463
538.9634, 1501.705
539.4456, 1498.212
539.9277, 1494.897
540.4098, 1491.442
540.8919, 1487.421
541.3740, 1482.027
541.8561, 1474.780
542.3383, 1466.403
542.8204, 1457.823
543.3025, 1448.984
543.7846, 1439.219
544.2667, 1428.053
544.7488, 1416.551
545.2310, 1406.281
545.7131, 1397.026
546.1952, 1386.166
546.6773, 1372.141
547.1594, 1357.568
547.6415, 1344.200
548.1237, 1331.646
548.6058, 1318.384
549.0879, 1303.839
549.5700, 1289.023
550.0521, 1275.815
550.5342, 1265.531
551.0164, 1252.927
551.4985, 1235.657
551.9806, 1218.935
552.4627, 1205.365
552.9448, 1193.874
553.4269, 1182.011
553.9091, 1168.580
554.3912, 1154.602
554.8733, 1141.971
555.3554, 1130.847
555.8375, 1119.633
556.3196, 1108.520
556.8018, 1096.761
557.2839, 1082.899
557.7660, 1067.957
558.2481, 1055.008
558.7302, 1045.920
559.2123, 1038.400
559.6945, 1031.031
560.1766, 1023.488
560.6587, 1014.036
561.1408, 1001.757
561.6229, 988.6298
562.1050, 976.6230
562.5872, 965.7614
563.0693, 957.3066
563.5514, 953.6535
564.0335, 950.0566
564.5156, 944.0195
564.9977, 936.3685
565.4799, 928.5209
565.9620, 921.0933
566.4441, 914.3273
566.9262, 908.8206
567.4083, 905.1038
567.8904, 900.4714
568.3726, 894.0355
568.8547, 887.5539
569.3368, 881.6460
569.8189, 876.0756
570.3010, 870.3231
570.7831, 864.0242
571.2653, 858.0980
571.7474, 853.7135
572.2295, 850.7369
572.7116, 847.9485
573.1937, 845.1732
573.6758, 842.5461
574.1580, 839.9174
574.6401, 837.5062
575.1222, 836.2052
575.6043, 838.1626
576.0864, 838.9059
576.5685, 834.7184
577.0507, 828.3004
577.5328, 824.2911
578.0149, 823.7928
578.4970, 824.5803
578.9791, 824.2386
579.4612, 822.6830
579.9434, 822.1722
580.4255, 824.1022
580.9076, 825.4512
581.3897, 825.1259
581.8718, 824.2323
582.3539, 823.9354
582.8361, 824.5132
583.3182, 825.5547
583.8003, 826.4193
584.2824, 827.2825
584.7645, 829.6000
585.2466, 833.8356
585.7288, 838.2538
586.2108, 842.3799
586.6929, 845.9940
587.1750, 848.4794
587.6572, 849.4230
588.1393, 850.8514
588.6214, 854.4266
589.1035, 858.6382
589.5856, 861.3019
590.0677, 862.3480
590.5499, 862.8434
591.0320, 863.0084
591.5141, 863.8276
591.9962, 869.0217
592.4783, 884.4442
592.9604, 896.0018
593.4426, 902.6052
593.9247, 906.1631
594.4068, 905.9997
594.8889, 903.8063
595.3710, 903.8120
595.8531, 909.0519
596.3353, 917.5636
596.8174, 924.6967
597.2995, 930.0045
597.7816, 936.4790
598.2637, 946.0438
598.7458, 955.5957
599.2280, 962.0519
599.7101, 966.0068
600.1922, 970.7977
600.6743, 978.1388
601.1564, 986.1310
601.6385, 993.4047
602.1207, 1000.046
602.6028, 1006.102
603.0849, 1011.470
603.5670, 1017.281
604.0491, 1025.076
604.5313, 1035.185
605.0134, 1045.231
605.4955, 1056.018
605.9776, 1065.865
606.4597, 1073.062
606.9418, 1079.548
607.4240, 1088.146
607.9061, 1099.482
608.3882, 1111.023
608.8703, 1119.381
609.3524, 1124.863
609.8345, 1131.805
610.3167, 1140.481
610.7988, 1150.025
611.2809, 1160.416
611.7630, 1171.261
612.2451, 1182.102
612.7272, 1192.879
613.2094, 1203.658
613.6915, 1214.913
614.1736, 1225.964
614.6557, 1235.464
615.1378, 1243.651
615.6199, 1252.067
616.1021, 1261.463
616.5842, 1272.082
617.0663, 1284.523
617.5484, 1300.382
618.0305, 1315.601
618.5126, 1331.228
618.9948, 1345.298
619.4769, 1354.702
619.9590, 1361.736
620.4411, 1371.760
620.9232, 1387.957
621.4053, 1406.665
621.8875, 1421.548
622.3696, 1432.678
622.8517, 1446.787
623.3338, 1466.833
623.8159, 1486.403
624.2980, 1497.609
624.7802, 1503.689
625.2623, 1515.627
625.7444, 1539.747
626.2265, 1563.307
626.7086, 1578.963
627.1907, 1591.207
627.6729, 1606.604
628.1550, 1626.239
628.6371, 1646.839
629.1192, 1665.559
629.6013, 1682.690
630.0834, 1700.001
630.5656, 1717.752
631.0477, 1735.350
631.5298, 1752.280
632.0119, 1769.267
632.4940, 1787.060
632.9761, 1805.539
633.4583, 1823.950
633.9404, 1841.224
634.4225, 1858.696
634.9046, 1879.232
635.3867, 1902.594
635.8688, 1924.517
636.3510, 1943.445
636.8331, 1961.128
637.3152, 1979.867
637.7973, 1999.973
638.2794, 2018.661
638.7615, 2035.191
639.2437, 2051.175
639.7258, 2066.382
640.2079, 2081.920
640.6900, 2100.015
641.1721, 2120.879
641.6542, 2141.108
642.1364, 2156.843
642.6185, 2168.446
643.1006, 2180.128
643.5827, 2191.521
644.0648, 2203.734
644.5469, 2218.700
645.0291, 2233.662
645.5112, 2246.062
645.9933, 2255.704
646.4754, 2264.523
646.9575, 2273.293
647.4396, 2281.675
647.9218, 2289.413
648.4039, 2296.477
648.8860, 2303.171
649.3681, 2309.817
649.8502, 2314.787
650.3323, 2315.179
650.8145, 2309.399
651.2966, 2306.380
651.7787, 2307.823
652.2608, 2309.933
652.7429, 2313.516
653.2250, 2316.226
653.7072, 2314.287
654.1893, 2307.012
654.6714, 2299.442
655.1535, 2296.926
655.6356, 2297.904
656.1177, 2297.775
656.5999, 2296.681
657.0820, 2291.754
657.5641, 2279.925
658.0462, 2265.137
658.5283, 2254.863
659.0104, 2249.859
659.4926, 2244.421
659.9747, 2237.694
660.4568, 2230.419
660.9389, 2222.501
661.4210, 2214.487
661.9031, 2207.519
662.3853, 2201.981
662.8674, 2197.062
663.3495, 2191.947
663.8316, 2186.718
664.3137, 2179.094
664.7958, 2166.457
665.2780, 2156.196
665.7601, 2153.586
666.2422, 2154.123
666.7243, 2152.429
667.2064, 2147.552
667.6885, 2143.887
668.1707, 2144.534
668.6528, 2146.781
669.1349, 2147.810
669.6170, 2147.579
670.0991, 2146.466
670.5812, 2144.526
671.0634, 2142.975
671.5455, 2144.174
672.0276, 2149.176
672.5097, 2152.939
672.9918, 2154.222
673.4739, 2155.605
673.9561, 2157.213
674.4382, 2159.623
674.9203, 2163.899
675.4024, 2170.277
675.8845, 2176.768
676.3666, 2181.488
676.8488, 2185.210
677.3309, 2189.389
677.8130, 2194.104
678.2951, 2200.063
678.7772, 2208.033
679.2593, 2216.712
679.7415, 2223.896
680.2236, 2229.414
680.7057, 2233.670
681.1878, 2237.335
681.6699, 2239.069
682.1520, 2238.280
682.6342, 2235.171
683.1163, 2230.281
683.5984, 2223.682
684.0805, 2214.716
684.5626, 2203.070
685.0447, 2188.503
685.5269, 2169.025
686.0090, 2143.885
686.4911, 2117.516
686.9732, 2091.462
687.4553, 2065.667
687.9374, 2041.058
688.4196, 2018.495
688.9017, 1990.823
689.3838, 1952.600
689.8659, 1913.448
690.3480, 1880.412
690.8301, 1850.178
691.3123, 1815.817
691.7944, 1775.386
692.2765, 1733.449
692.7586, 1694.837
693.2407, 1659.314
693.7228, 1624.668
694.2050, 1590.461
694.6871, 1557.587
695.1692, 1526.962
695.6513, 1497.223
696.1334, 1466.552
696.6155, 1434.890
697.0977, 1404.103
697.5798, 1373.122
698.0619, 1344.536
698.5440, 1321.216
699.0261, 1301.443
699.5082, 1282.326
699.9904, 1262.898
700.4725, 1243.004
700.9546, 1222.390
701.4367, 1201.159
701.9188, 1179.985
702.4009, 1157.656
702.8831, 1137.918
703.3652, 1123.984
703.8473, 1111.199
704.3294, 1095.646
704.8115, 1077.749
705.2936, 1061.260
705.7758, 1048.196
706.2579, 1036.694
706.7400, 1025.657
707.2221, 1014.860
707.7042, 1003.547
708.1863, 991.5913
708.6685, 979.4882
709.1506, 967.6206
709.6327, 956.0405
710.1148, 945.3395
710.5969, 935.9395
711.0790, 926.7234
711.5612, 917.1089
712.0433, 907.9819
712.5254, 900.4699
713.0075, 894.0236
713.4896, 886.9695
713.9717, 878.5618
714.4539, 869.5348
714.9360, 860.0470
715.4181, 850.5109
715.9002, 841.8410
716.3823, 834.1784
716.8644, 827.7137
717.3466, 822.8738
717.8287, 818.9205
718.3108, 812.9127
718.7929, 803.1948
719.2750, 794.6000
719.7571, 788.6384
720.2393, 782.4076
720.7214, 773.7771
721.2035, 764.0217
721.6856, 755.6014
722.1677, 749.4149
722.6498, 744.3056
723.1320, 739.7120
723.6141, 735.3744
724.0962, 730.7846
724.5783, 725.8901
725.0604, 721.1620
725.5425, 717.0359
726.0247, 712.6133
726.5068, 705.7172
726.9889, 694.6331
727.4710, 686.3278
727.9531, 683.1561
728.4352, 680.0436
728.9174, 675.1544
729.3995, 669.4591
729.8816, 664.1481
730.3637, 659.5066
730.8458, 655.6607
731.3279, 653.1573
731.8101, 651.2485
732.2922, 649.2956
732.7743, 647.0165
733.2564, 642.4330
733.7385, 634.5414
734.2206, 626.0551
734.7028, 620.4875
735.1849, 618.0442
735.6670, 615.4119
736.1491, 612.5416
736.6312, 609.5343
737.1133, 605.7990
737.5955, 602.3450
738.0776, 600.8286
738.5597, 600.7222
739.0418, 598.9827
739.5239, 592.8201
740.0060, 585.7604
740.4882, 582.1786
740.9703, 581.0496
741.4524, 579.2473
741.9345, 576.1239
742.4166, 572.7561
742.8987, 569.9453
743.3809, 567.7226
743.8630, 566.3428
744.3451, 566.9195
744.8272, 566.2896
745.3093, 563.7788
745.7914, 560.5927
746.2736, 556.6624
746.7557, 552.6784
747.2378, 549.9153
747.7199, 548.9343
748.2020, 548.5735
748.6841, 547.8888
749.1663, 547.2540
749.6484, 547.6843
750.1305, 549.0070
750.6126, 549.6211
751.0947, 548.6877
751.5768, 546.7394
752.0590, 544.5491
752.5411, 541.7971
753.0232, 540.4012
753.5053, 542.1986
753.9874, 542.8764
754.4695, 540.1233
754.9517, 536.2783
755.4338, 533.6896
755.9159, 532.6388
756.3980, 532.3968
756.8801, 533.5485
757.3622, 534.5624
757.8444, 533.1862
758.3265, 530.6034
758.8086, 529.9093
759.2907, 531.8145
759.7728, 534.3428
760.2549, 535.6137
760.7371, 535.8055
761.2192, 535.9254
761.7013, 535.8041
762.1834, 536.1071
762.6655, 537.6722
763.1476, 538.9329
763.6298, 538.3741
764.1119, 536.7180
764.5940, 536.0283
765.0761, 537.1346
765.5582, 538.4207
766.0403, 538.6267
766.5225, 538.9200
767.0046, 541.0216
767.4867, 544.5450
767.9688, 547.7036
768.4509, 549.6010
768.9330, 550.6089
769.4152, 551.3644
769.8973, 551.8883
770.3794, 551.2846
770.8615, 548.5809
771.3436, 547.3963
771.8257, 550.0630
772.3079, 554.5842
772.7900, 558.1256
773.2721, 560.6404
773.7542, 562.8239
774.2363, 564.5455
774.7184, 566.2438
775.2006, 568.7817
775.6827, 571.1017
776.1648, 571.0242
776.6469, 568.7755
777.1290, 567.6683
777.6111, 570.7829
778.0933, 576.0206
778.5754, 578.3456
779.0575, 577.8851
779.5396, 578.1592
780.0217, 580.0215
780.5038, 582.0291
780.9860, 582.8993
781.4681, 583.0369
781.9502, 584.2656
782.4323, 587.6229
782.9144, 590.3328
783.3965, 592.0282
783.8787, 593.2872
784.3608, 594.4657
784.8429, 595.4424
785.3250, 595.9183
785.8071, 595.7991
786.2892, 595.3988
786.7714, 594.7103
787.2535, 594.0428
787.7356, 593.8466
788.2177, 594.1810
788.6998, 595.4320
789.1819, 597.8133
789.6641, 600.5391
790.1462, 602.7733
790.6283, 604.5140
791.1104, 605.0502
791.5925, 603.1978
792.0746, 602.1447
792.5568, 604.2139
793.0389, 605.7077
793.5210, 602.9651
794.0031, 597.3322
794.4852, 593.7973
794.9673, 595.0494
795.4495, 596.2637
795.9316, 593.2865
796.4137, 589.1979
796.8958, 588.8810
797.3779, 591.6509
797.8600, 592.7426
798.3422, 589.6559
798.8243, 584.5201
799.3064, 580.6024
799.7885, 577.9067
800.2706, 576.0112
800.7527, 575.3312
801.2349, 574.1869
801.7170, 571.8235
802.1991, 568.7499
802.6812, 565.5111
803.1633, 562.1174
803.6454, 558.8989
804.1276, 555.8041
804.6097, 553.0143
805.0918, 551.1115
805.5739, 549.2404
806.0560, 546.3895
806.5381, 542.6500
807.0203, 538.8658
807.5024, 535.5822
807.9845, 532.3606
808.4666, 528.4181
808.9487, 523.9985
809.4308, 520.1108
809.9130, 516.8648
810.3951, 513.7819
810.8772, 510.6407
811.3593, 507.3358
811.8414, 503.5177
812.3235, 498.7259
812.8057, 495.0959
813.2878, 494.6160
813.7699, 492.7739
814.2520, 486.9721
814.7341, 480.1628
815.2162, 475.5478
815.6984, 473.2038
816.1805, 470.5654
816.6626, 465.7262
817.1447, 461.0961
817.6268, 459.4334
818.1089, 458.7384
818.5911, 455.0663
819.0732, 448.5631
819.5553, 443.4584
820.0374, 442.6953
820.5195, 443.8971
821.0016, 442.2150
821.4838, 437.5927
821.9659, 431.5470
822.4480, 423.0565
822.9301, 417.0653
823.4122, 417.4771
823.8943, 420.6404
824.3765, 419.9047
824.8586, 414.3003
825.3407, 409.8984
825.8228, 408.1279
826.3049, 406.1072
826.7870, 402.2367
827.2692, 398.0221
827.7513, 395.3067
828.2334, 393.9885
828.7155, 392.3976
829.1976, 389.4403
829.6797, 386.1812
830.1619, 383.7399
830.6440, 381.9408
831.1261, 380.5350
831.6082, 379.4190
832.0903, 378.3080
832.5724, 377.1148
833.0546, 375.3177
833.5367, 371.4483
834.0188, 364.8191
834.5009, 360.9677
834.9830, 360.8413
835.4651, 361.6381
835.9473, 363.5229
836.4294, 364.9400
836.9115, 363.9330
837.3936, 360.6198
837.8757, 357.4662
838.3578, 354.4385
838.8400, 352.1500
839.3221, 351.2612
839.8042, 350.8956
840.2863, 350.1149
840.7684, 349.0220
841.2505, 348.4445
841.7327, 348.8881
842.2148, 349.2037
842.6969, 347.5699
843.1790, 344.7907
843.6611, 343.1136
844.1432, 342.6390
844.6254, 342.8716
845.1075, 343.7433
845.5896, 344.3041
846.0717, 342.9735
846.5538, 339.7355
847.0359, 339.0703
847.5181, 343.0081
848.0002, 345.5301
848.4823, 344.4012
848.9644, 342.4707
849.4465, 341.6910
849.9286, 341.6981
850.4108, 341.2619
850.8929, 339.8498
851.3750, 338.7519
851.8571, 337.9652
852.3392, 338.0740
852.8214, 340.5280
853.3035, 344.0026
853.7856, 345.8336
854.2677, 345.2274
854.7498, 343.6451
855.2319, 341.6705
855.7141, 340.1213
856.1962, 341.5343
856.6783, 345.4117
857.1604, 348.2195
857.6425, 349.0491
858.1246, 349.0889
858.6068, 349.1221
859.0889, 349.3777
859.5710, 350.8150
860.0531, 353.9775
860.5352, 356.9196
861.0173, 359.7673
861.4995, 362.1175
861.9816, 363.4950
862.4637, 364.4507
862.9458, 365.4944
863.4279, 366.6123
863.9100, 368.6949
864.3922, 373.3100
864.8743, 377.4287
865.3564, 378.9641
865.8385, 379.3970
866.3206, 380.0425
866.8027, 381.3768
867.2849, 384.1718
867.7670, 389.2545
868.2491, 394.3973
868.7312, 396.0659
869.2133, 395.5397
869.6954, 396.6074
870.1776, 399.4676
870.6597, 402.4508
871.1418, 404.8498
871.6239, 406.6826
872.1060, 407.8592
872.5881, 408.3874
873.0703, 409.5102
873.5524, 411.1484
874.0345, 413.6518
874.5166, 417.9745
874.9987, 422.2101
875.4808, 424.4842
875.9630, 425.4645
876.4451, 427.1581
876.9272, 430.1906
877.4093, 432.8419
877.8914, 435.4784
878.3735, 436.9249
878.8557, 435.6733
879.3378, 433.1044
879.8199, 431.2056
880.3020, 430.4468
880.7841, 430.3402
881.2662, 431.0741
881.7484, 431.7858
882.2305, 431.1725
882.7126, 429.7480
883.1947, 428.7415
883.6768, 428.3233
884.1589, 428.1553
884.6411, 428.1239
885.1232, 427.5583
885.6053, 424.4642
886.0874, 418.7103
886.5695, 415.9325
887.0516, 417.1047
887.5338, 417.6723
888.0159, 415.5127
888.4980, 412.6633
888.9801, 411.7281
889.4622, 412.6979
889.9443, 412.5968
890.4265, 410.4481
890.9086, 408.6493
891.3907, 408.2874
891.8728, 407.4877
892.3549, 403.9243
892.8370, 399.4052
893.3192, 397.8105
893.8013, 400.3274
894.2834, 402.7212
894.7655, 403.1176
895.2476, 402.3592
895.7297, 400.5536
896.2119, 398.3348
896.6940, 396.8166
897.1761, 396.0765
897.6582, 395.1074
898.1403, 393.0368
898.6224, 390.8576
899.1046, 390.5617
899.5867, 391.6184
900.0688, 391.6701
900.5509, 390.5007
901.0330, 388.7799
901.5151, 386.7442
901.9973, 384.7368
902.4794, 383.3852
902.9615, 382.6913
903.4436, 380.9851
903.9257, 377.6849
904.4078, 374.8683
904.8900, 372.9587
905.3721, 371.6531
905.8542, 370.9125
906.3363, 370.5917
906.8184, 370.4306
907.3005, 371.3293
907.7827, 370.1591
908.2648, 364.1166
908.7469, 358.6388
909.2290, 357.0350
909.7111, 357.1088
910.1932, 355.7345
910.6754, 352.7791
911.1575, 350.8270
911.6396, 352.1189
912.1217, 353.3834
912.6038, 351.8005
913.0859, 348.6413
913.5681, 345.1717
914.0502, 341.8525
914.5323, 339.5222
915.0144, 338.5269
915.4965, 337.7794
915.9786, 335.6388
916.4607, 332.7321
916.9428, 331.9935
917.4249, 333.1337
917.9070, 331.5228
918.3892, 325.7450
918.8713, 320.5315
919.3534, 319.9385
919.8355, 322.2198
920.3176, 321.9556
920.7997, 318.3507
921.2819, 315.1060
921.7640, 312.1366
922.2461, 309.8124
922.7282, 308.7092
923.2103, 307.9773
923.6924, 306.5861
924.1746, 304.5680
924.6567, 302.4982
925.1388, 300.0772
925.6209, 298.0574
926.1030, 296.9961
926.5851, 295.9728
927.0673, 294.1310
927.5494, 291.9610
928.0315, 290.5719
928.5136, 290.2689
928.9957, 289.5759
929.4778, 287.0344
929.9600, 284.4860
930.4421, 284.1000
930.9242, 284.3593
931.4063, 282.4036
931.8884, 278.4257
932.3705, 275.2466
932.8527, 274.5184
933.3348, 274.6007
933.8169, 273.4937
934.2990, 271.4819
934.7811, 269.1390
935.2632, 266.5887
935.7454, 264.3464
936.2275, 262.5797
936.7096, 261.3316
937.1917, 260.6550
937.6738, 260.5146
938.1559, 260.9987
938.6381, 262.2944
939.1202, 262.6456
939.6023, 261.8307
940.0844, 260.1320
940.5665, 257.3102
941.0486, 254.1876
941.5308, 252.1316
942.0129, 251.2509
942.4950, 250.1441
942.9771, 248.2619
943.4592, 246.9808
943.9413, 247.1042
944.4235, 247.2640
944.9056, 246.6909
945.3877, 245.5069
945.8698, 243.7321
946.3519, 240.8947
946.8340, 239.6770
947.3162, 242.9879
947.7983, 245.5319
948.2804, 243.4944
948.7625, 239.8850
949.2446, 238.4222
949.7267, 238.9812
950.2089, 238.8833
950.6910, 236.6918
951.1731, 234.4234
951.6552, 233.7876
952.1373, 233.8746
952.6194, 233.7273
953.1016, 233.3025
953.5837, 232.6587
954.0658, 231.8478
954.5479, 231.0417
955.0300, 230.3365
955.5121, 229.7988
955.9943, 229.6027
956.4764, 229.6812
956.9585, 229.7784
957.4406, 229.8669
957.9227, 230.1245
958.4048, 230.6780
958.8870, 230.8329
959.3691, 229.4630
959.8512, 226.8598
960.3333, 225.4865
960.8154, 225.5260
961.2975, 225.4123
961.7797, 224.7183
962.2618, 224.4227
962.7439, 225.4469
963.2260, 226.9390
963.7081, 226.9976
964.1902, 225.2721
964.6724, 223.9891
965.1545, 223.4154
965.6366, 222.8444
966.1187, 221.9224
966.6008, 221.1361
967.0829, 221.0761
967.5651, 221.4388
968.0472, 221.2840
968.5293, 220.4323
969.0114, 219.4042
969.4935, 217.3506
969.9756, 216.2125
970.4578, 217.7810
970.9399, 220.0517
971.4220, 220.8690
971.9041, 220.2277
972.3862, 219.2888
972.8683, 218.1558
973.3505, 217.4461
973.8326, 217.5797
974.3147, 218.1757
974.7968, 219.1997
975.2789, 220.3126
975.7610, 221.0668
976.2432, 221.3308
976.7253, 221.0336
977.2074, 219.7284
977.6895, 218.5541
978.1716, 219.4181
978.6537, 220.9332
979.1359, 220.3307
979.6180, 218.0363
980.1001, 216.4006
980.5822, 216.3070
981.0643, 217.1320
981.5464, 218.5191
982.0286, 220.0824
982.5107, 220.9627
982.9928, 221.1914
983.4749, 220.5145
983.9570, 219.0229
984.4391, 218.7056
984.9213, 220.6984
985.4034, 223.4338
985.8855, 224.6928
986.3676, 224.5935
986.8497, 224.0476
987.3318, 223.0253
987.8140, 221.7966
988.2961, 220.2866
988.7782, 219.1665
989.2603, 218.8822
989.7424, 219.2661
990.2245, 220.0684
990.7067, 221.4154
991.1888, 222.1102
991.6709, 221.8694
992.1530, 221.6700
992.6351, 221.6858
993.1172, 221.8765
993.5994, 222.1346
994.0815, 222.5695
994.5636, 223.6525
995.0457, 226.1621
995.5278, 227.1084
996.0099, 225.1008
996.4921, 223.3582
996.9742, 222.6561
997.4563, 222.5617
997.9384, 222.9213
998.4205, 223.5793
998.9026, 224.1101
999.3848, 224.6595
999.8669, 224.5660
1000.349, 222.5863
1000.831, 221.2406
1001.313, 222.2805
1001.795, 224.2060
1002.277, 225.4138
1002.760, 225.8614
1003.242, 226.3375
1003.724, 227.2710
1004.206, 227.7849
1004.688, 226.9427
1005.170, 226.0620
1005.652, 226.3937
1006.134, 227.2438
1006.617, 227.3173
1007.099, 226.6186
1007.581, 226.4484
1008.063, 227.6959
1008.545, 229.0498
1009.027, 229.7903
1009.509, 229.8051
1009.991, 228.2048
1010.473, 225.9878
1010.956, 225.3551
1011.438, 226.6971
1011.920, 228.7064
1012.402, 230.8247
1012.884, 232.3934
1013.366, 232.1285
1013.848, 230.9544
1014.330, 230.5728
1014.813, 230.9545
1015.295, 231.4815
1015.777, 231.9535
1016.259, 232.5579
1016.741, 233.5558
1017.223, 234.5610
1017.705, 234.6462
1018.187, 234.1440
1018.669, 234.3804
1019.152, 235.3236
1019.634, 235.7312
1020.116, 235.1586
1020.598, 234.6753
1021.080, 235.5489
1021.562, 237.0247
1022.044, 236.3853
1022.526, 233.9903
1023.008, 234.1274
1023.491, 237.2232
1023.973, 239.4562
1024.455, 239.1436
1024.937, 238.1347
1025.419, 238.5604
1025.901, 240.0830
1026.383, 241.1228
1026.865, 241.6339
1027.348, 242.5239
1027.830, 244.0814
1028.312, 244.6331
1028.794, 243.1382
1029.276, 241.2510
1029.758, 241.0752
1030.240, 242.3985
1030.722, 243.7231
1031.204, 245.2999
1031.687, 245.5195
1032.169, 243.5680
1032.651, 242.2361
1033.133, 243.0444
1033.615, 244.7241
1034.097, 245.6326
1034.579, 245.8341
1035.061, 246.2930
1035.544, 247.0789
1036.026, 248.0102
1036.508, 249.5893
1036.990, 250.2781
1037.472, 248.5935
1037.954, 246.4374
1038.436, 246.3428
1038.918, 248.2454
1039.401, 250.3603
1039.883, 253.1454
1040.365, 255.2782
1040.847, 257.0923
1041.329, 257.6701
1041.811, 255.2498
1042.293, 252.2965
1042.775, 252.5105
1043.257, 255.7721
1043.740, 257.2816
1044.222, 254.5855
1044.704, 253.9348
1045.186, 257.8192
1045.668, 261.2807
1046.150, 261.6083
1046.632, 260.6944
1047.114, 260.8465
1047.596, 262.0432
1048.079, 262.9087
1048.561, 262.8550
1049.043, 263.1779
1049.525, 264.2485
1050.007, 265.4687
1050.489, 266.5489
1050.971, 267.6259
1051.453, 269.0168
1051.936, 270.6469
1052.418, 271.8116
1052.900, 272.3603
1053.382, 272.5108
1053.864, 271.5059
1054.346, 271.0269
1054.828, 272.3624
1055.310, 274.4312
1055.792, 276.0472
1056.275, 277.1318
1056.757, 277.9515
1057.239, 278.4009
1057.721, 278.9351
1058.203, 279.8350
1058.685, 280.6721
1059.167, 280.8299
1059.649, 281.0521
1060.131, 282.7406
1060.614, 285.4274
1061.096, 286.5270
1061.578, 284.4676
1062.060, 283.1668
1062.542, 284.6361
1063.024, 286.4536
1063.506, 287.1038
1063.988, 287.4536
1064.471, 288.7557
1064.953, 290.7756
1065.435, 292.1774
1065.917, 292.4355
1066.399, 292.6977
1066.881, 293.4051
1067.363, 294.2629
1067.845, 295.1581
1068.328, 296.0706
1068.810, 297.0523
1069.292, 298.0306
1069.774, 298.7385
1070.256, 299.0007
1070.738, 299.5829
1071.220, 301.0914
1071.702, 302.6837
1072.184, 303.5762
1072.667, 304.5306
1073.149, 307.1005
1073.631, 310.2977
1074.113, 311.1377
1074.595, 308.6149
1075.077, 306.5485
1075.559, 307.0941
1076.041, 308.0313
1076.523, 307.8311
1077.006, 307.6650
1077.488, 308.9201
1077.970, 311.1043
1078.452, 312.8522
1078.934, 313.8425
1079.416, 315.1609
1079.898, 318.1186
1080.380, 320.4832
1080.862, 320.8120
1081.345, 320.3040
1081.827, 319.3087
1082.309, 318.5960
1082.791, 319.8002
1083.273, 323.0264
1083.755, 325.3535
1084.237, 324.5761
1084.719, 324.0285
1085.202, 325.8271
1085.684, 327.9658
1086.166, 328.7500
1086.648, 328.8079
1087.130, 329.2209
1087.612, 330.1419
1088.094, 331.1731
1088.576, 332.1899
1089.058, 333.2389
1089.541, 334.6295
1090.023, 335.7585
1090.505, 335.6770
1090.987, 335.4066
1091.469, 336.3170
1091.951, 338.4001
1092.433, 340.8586
1092.915, 343.7776
1093.397, 346.0580
1093.880, 346.2054
1094.362, 346.8005
1094.844, 350.3209
1095.326, 354.3536
1095.808, 356.0504
1096.290, 355.8274
1096.772, 355.6411
1097.254, 355.7302
1097.737, 356.9956
1098.219, 361.3730
1098.701, 364.9171
1099.183, 365.5621
1099.665, 364.8436
1100.147, 362.8807
1100.629, 361.0666
1101.111, 362.6688
1101.594, 368.6028
1102.076, 372.7364
1102.558, 372.0184
1103.040, 371.2737
1103.522, 371.8873
1104.004, 373.2098
1104.486, 375.0981
1104.968, 377.2108
1105.450, 378.8064
1105.932, 379.8695
1106.415, 381.9934
1106.897, 387.4585
1107.379, 391.0313
1107.861, 390.2816
1108.343, 389.0338
1108.825, 389.1165
1109.307, 389.8868
1109.789, 390.3087
1110.272, 390.5077
1110.754, 391.8029
1111.236, 395.7847
1111.718, 397.9617
1112.200, 395.9349
1112.682, 394.6176
1113.164, 396.6523
1113.646, 399.3170
1114.129, 399.8008
1114.611, 398.8924
1115.093, 399.4282
1115.575, 402.1549
1116.057, 404.1182
1116.539, 404.6895
1117.021, 405.4773
1117.503, 407.7545
1117.985, 409.1385
1118.468, 406.7985
1118.950, 403.2681
1119.432, 403.7329
1119.914, 408.6464
1120.396, 412.0041
1120.878, 413.2640
1121.360, 414.1581
1121.842, 415.1786
1122.324, 415.1628
1122.807, 412.5448
1123.289, 409.9754
1123.771, 411.2367
1124.253, 415.7287
1124.735, 418.2904
1125.217, 418.2877
1125.699, 418.6100
1126.181, 419.3502
1126.664, 420.6370
1127.146, 422.7961
1127.628, 424.7271
1128.110, 425.2801
1128.592, 425.0106
1129.074, 425.6169
1129.556, 427.2131
1130.038, 428.4753
1130.521, 429.4231
1131.003, 429.6988
1131.485, 429.0624
1131.967, 428.8786
1132.449, 430.1336
1132.931, 431.8695
1133.413, 432.3989
1133.895, 431.9876
1134.377, 432.6141
1134.859, 434.2455
1135.342, 435.7075
1135.824, 436.8498
1136.306, 438.2638
1136.788, 440.2160
1137.270, 442.1320
1137.752, 443.3253
1138.234, 444.1897
1138.716, 446.0652
1139.199, 448.4750
1139.681, 448.8271
1140.163, 447.4813
1140.645, 447.6414
1141.127, 450.0086
1141.609, 452.2020
1142.091, 452.5336
1142.573, 452.2650
1143.056, 453.0485
1143.538, 454.5564
1144.020, 456.3246
1144.502, 458.2042
1144.984, 459.7178
1145.466, 460.9759
1145.948, 462.8607
1146.430, 465.7286
1146.912, 468.2546
1147.395, 469.0897
1147.877, 469.1993
1148.359, 469.1514
1148.841, 469.4363
1149.323, 471.0152
1149.805, 473.4345
1150.287, 475.8569
1150.769, 477.9188
1151.251, 478.8609
1151.734, 477.5446
1152.216, 476.8934
1152.698, 479.5432
1153.180, 482.9198
1153.662, 484.9440
1154.144, 486.3376
1154.626, 487.8449
1155.108, 489.7796
1155.591, 492.8380
1156.073, 497.4915
1156.555, 501.3506
1157.037, 503.6304
1157.519, 504.8823
1158.001, 504.2878
1158.483, 503.7914
1158.965, 505.0959
1159.448, 507.4115
1159.930, 509.1943
1160.412, 510.3344
1160.894, 512.0829
1161.376, 514.5671
1161.858, 517.6664
1162.340, 522.5394
1162.822, 526.5003
1163.304, 527.6566
1163.786, 528.3727
1164.269, 531.2350
1164.751, 535.3590
1165.233, 537.4994
1165.715, 536.7081
1166.197, 538.2299
1166.679, 542.8500
1167.161, 547.7333
1167.643, 552.8055
1168.126, 556.7028
1168.608, 558.3561
1169.090, 558.9666
1169.572, 560.2032
1170.054, 562.0997
1170.536, 564.7484
1171.018, 568.1343
1171.500, 573.1080
1171.983, 579.8114
1172.465, 586.5197
1172.947, 592.7015
1173.429, 597.3444
1173.911, 599.4684
1174.393, 600.1625
1174.875, 600.6393
1175.357, 601.5897
1175.839, 606.5040
1176.322, 614.3739
1176.804, 621.0969
1177.286, 625.9515
1177.768, 629.1130
1178.250, 630.7562
1178.732, 632.8824
1179.214, 638.0253
1179.696, 643.8731
1180.178, 646.8060
1180.661, 648.7824
1181.143, 652.9413
1181.625, 658.6768
1182.107, 664.0392
1182.589, 668.6818
1183.071, 673.4977
1183.553, 678.9698
1184.035, 684.3310
1184.518, 688.7631
1185.000, 693.2648
1185.482, 699.0721
1185.964, 704.8832
1186.446, 708.5825
1186.928, 711.3167
1187.410, 716.1638
1187.892, 723.6903
1188.375, 730.5326
1188.857, 735.9627
1189.339, 740.5193
1189.821, 742.8976
1190.303, 746.1335
1190.785, 752.8154
1191.267, 760.2429
1191.749, 765.3990
1192.231, 768.8596
1192.714, 772.9709
1193.196, 778.0837
1193.678, 782.3943
1194.160, 785.1624
1194.642, 789.2673
1195.124, 795.6659
1195.606, 802.2909
1196.088, 807.8590
1196.570, 813.3041
1197.053, 820.1655
1197.535, 827.8494
1198.017, 832.7507
1198.499, 835.0016
1198.981, 841.0428
1199.463, 851.0721
1199.945, 858.6439
1200.427, 862.0798
1200.910, 865.7516
1201.392, 872.7360
1201.874, 881.2842
1202.356, 889.5259
1202.838, 897.2243
1203.320, 903.3943
1203.802, 908.7526
1204.284, 914.8379
1204.766, 921.7421
1205.249, 929.3489
1205.731, 937.3641
1206.213, 943.5903
1206.695, 945.5377
1207.177, 948.0643
1207.659, 955.3417
1208.141, 964.3419
1208.623, 973.4403
1209.105, 981.8550
1209.588, 988.4025
1210.070, 993.6470
1210.552, 999.3563
##END=



