##NAMES=Rynersonite
##RRUFFID=R080063
##IDEAL CHEMISTRY=CaTa_2_O_6_
##LOCALITY=Brown Derby mine, Ohio City, Quartz Creek District, Gunnison County, Colorado, USA
##OWNER=RRUFF
##SOURCE=Michael Scott
##DESCRIPTION=Pearly white fibrous aggregate
##STATUS=The identification of this mineral has been confirmed only by single crystal X-ray diffraction.
##URL=rruff.info/R080063
115.0130, 1129.675
115.4951, 1181.741
115.9772, 1224.576
116.4594, 1258.700
116.9415, 1292.474
117.4236, 1329.434
117.9057, 1367.558
118.3878, 1404.520
118.8699, 1440.870
119.3521, 1475.224
119.8342, 1506.828
120.3163, 1535.468
120.7984, 1563.137
121.2805, 1591.355
121.7626, 1619.406
122.2448, 1646.070
122.7269, 1669.977
123.2090, 1692.605
123.6911, 1715.085
124.1732, 1737.327
124.6553, 1760.300
125.1375, 1784.403
125.6196, 1809.847
126.1017, 1837.301
126.5838, 1867.106
127.0659, 1899.233
127.5480, 1933.245
128.0302, 1968.530
128.5123, 2007.295
128.9944, 2053.899
129.4765, 2107.791
129.9586, 2163.793
130.4407, 2218.032
130.9229, 2271.211
131.4050, 2327.041
131.8871, 2386.222
132.3692, 2446.987
132.8513, 2502.908
133.3334, 2549.467
133.8156, 2585.319
134.2977, 2620.074
134.7798, 2662.370
135.2619, 2701.424
135.7440, 2733.831
136.2261, 2761.088
136.7083, 2793.654
137.1904, 2833.010
137.6725, 2873.513
138.1546, 2909.183
138.6367, 2939.098
139.1188, 2970.532
139.6010, 3005.318
140.0831, 3043.292
140.5652, 3084.958
141.0473, 3131.394
141.5294, 3180.542
142.0115, 3228.092
142.4937, 3271.227
142.9758, 3320.028
143.4579, 3378.214
143.9400, 3446.448
144.4221, 3518.844
144.9042, 3596.016
145.3864, 3676.889
145.8685, 3758.382
146.3506, 3844.650
146.8327, 3926.844
147.3148, 4003.515
147.7969, 4075.727
148.2791, 4139.339
148.7612, 4196.779
149.2433, 4245.556
149.7254, 4280.411
150.2075, 4299.688
150.6896, 4306.651
151.1718, 4302.462
151.6539, 4287.484
152.1360, 4261.480
152.6181, 4220.979
153.1002, 4169.075
153.5823, 4115.111
154.0645, 4048.370
154.5466, 3987.253
155.0287, 3940.284
155.5108, 3912.368
155.9929, 3892.572
156.4750, 3878.999
156.9572, 3872.001
157.4393, 3873.828
157.9214, 3886.020
158.4035, 3906.360
158.8856, 3933.440
159.3677, 3969.186
159.8499, 4009.486
160.3320, 4053.395
160.8141, 4100.728
161.2962, 4151.021
161.7783, 4204.239
162.2604, 4259.919
162.7426, 4317.675
163.2247, 4377.764
163.7068, 4439.610
164.1889, 4502.173
164.6710, 4565.181
165.1531, 4632.533
165.6353, 4708.980
166.1174, 4789.671
166.5995, 4869.375
167.0816, 4944.407
167.5637, 5019.131
168.0458, 5098.112
168.5280, 5180.650
169.0101, 5260.739
169.4922, 5331.241
169.9743, 5396.704
170.4564, 5463.050
170.9385, 5535.796
171.4207, 5608.608
171.9028, 5678.491
172.3849, 5745.284
172.8670, 5802.695
173.3491, 5844.388
173.8312, 5873.790
174.3134, 5897.511
174.7955, 5923.015
175.2776, 5942.386
175.7597, 5944.625
176.2418, 5928.258
176.7239, 5902.583
177.2061, 5876.201
177.6882, 5847.146
178.1703, 5810.667
178.6524, 5762.817
179.1345, 5706.043
179.6166, 5644.919
180.0988, 5579.063
180.5809, 5509.107
181.0630, 5434.695
181.5451, 5355.829
182.0272, 5275.752
182.5093, 5192.795
182.9915, 5108.990
183.4736, 5032.526
183.9557, 4964.903
184.4378, 4898.420
184.9199, 4819.606
185.4020, 4731.154
185.8842, 4641.710
186.3663, 4559.046
186.8484, 4480.057
187.3305, 4395.913
187.8126, 4303.970
188.2947, 4209.601
188.7769, 4121.803
189.2590, 4040.232
189.7411, 3957.751
190.2232, 3865.927
190.7053, 3767.517
191.1874, 3678.817
191.6696, 3601.864
192.1517, 3531.807
192.6338, 3458.097
193.1159, 3380.452
193.5980, 3306.548
194.0801, 3240.899
194.5623, 3183.489
195.0444, 3130.852
195.5265, 3083.439
196.0086, 3040.188
196.4907, 2998.936
196.9728, 2959.585
197.4550, 2922.820
197.9371, 2889.126
198.4192, 2858.507
198.9013, 2830.061
199.3834, 2803.303
199.8655, 2779.151
200.3477, 2760.335
200.8298, 2747.806
201.3119, 2736.555
201.7940, 2723.436
202.2761, 2708.270
202.7582, 2693.063
203.2404, 2677.142
203.7225, 2661.938
204.2046, 2651.891
204.6867, 2647.913
205.1688, 2646.000
205.6509, 2643.335
206.1331, 2639.334
206.6152, 2638.177
207.0973, 2639.880
207.5794, 2644.814
208.0615, 2654.695
208.5436, 2670.601
209.0258, 2688.671
209.5079, 2706.209
209.9900, 2722.533
210.4721, 2740.670
210.9542, 2759.571
211.4363, 2780.839
211.9185, 2810.546
212.4006, 2850.538
212.8827, 2895.274
213.3648, 2939.438
213.8469, 2980.977
214.3290, 3032.154
214.8112, 3099.231
215.2933, 3175.210
215.7754, 3236.785
216.2575, 3280.082
216.7396, 3316.405
217.2217, 3351.566
217.7038, 3385.331
218.1860, 3418.352
218.6681, 3450.544
219.1502, 3481.853
219.6323, 3510.822
220.1144, 3534.270
220.5965, 3560.456
221.0787, 3593.827
221.5608, 3635.241
222.0429, 3681.435
222.5250, 3732.707
223.0071, 3788.600
223.4892, 3844.407
223.9714, 3896.729
224.4535, 3955.132
224.9356, 4026.486
225.4177, 4115.291
225.8998, 4205.134
226.3819, 4293.419
226.8641, 4382.763
227.3462, 4478.942
227.8283, 4581.323
228.3104, 4691.180
228.7925, 4808.494
229.2746, 4938.243
229.7568, 5068.076
230.2389, 5200.037
230.7210, 5332.531
231.2031, 5456.814
231.6852, 5573.129
232.1673, 5680.643
232.6495, 5779.887
233.1316, 5879.176
233.6137, 5951.467
234.0958, 5993.660
234.5779, 6008.227
235.0600, 6001.456
235.5422, 5974.762
236.0243, 5924.502
236.5064, 5847.600
236.9885, 5736.798
237.4706, 5615.124
237.9527, 5482.118
238.4349, 5339.857
238.9170, 5194.025
239.3991, 5041.269
239.8812, 4889.908
240.3633, 4742.935
240.8454, 4600.058
241.3276, 4462.399
241.8097, 4330.928
242.2918, 4206.138
242.7739, 4090.817
243.2560, 3987.486
243.7381, 3889.721
244.2203, 3794.672
244.7024, 3700.250
245.1845, 3614.559
245.6666, 3538.429
246.1487, 3470.819
246.6308, 3408.227
247.1130, 3350.246
247.5951, 3297.702
248.0772, 3251.195
248.5593, 3210.168
249.0414, 3176.298
249.5235, 3150.735
250.0057, 3131.625
250.4878, 3115.660
250.9699, 3103.083
251.4520, 3093.111
251.9341, 3085.313
252.4162, 3079.192
252.8984, 3077.355
253.3805, 3079.852
253.8626, 3086.666
254.3447, 3098.006
254.8268, 3115.782
255.3089, 3134.503
255.7911, 3152.368
256.2732, 3169.221
256.7553, 3187.177
257.2374, 3206.077
257.7195, 3226.338
258.2017, 3248.273
258.6838, 3271.551
259.1659, 3297.697
259.6480, 3327.498
260.1301, 3360.741
260.6122, 3396.462
261.0944, 3435.448
261.5765, 3476.167
262.0586, 3517.438
262.5407, 3559.557
263.0228, 3601.021
263.5049, 3640.147
263.9871, 3677.532
264.4692, 3719.473
264.9513, 3768.033
265.4334, 3818.456
265.9155, 3867.899
266.3976, 3915.980
266.8798, 3961.316
267.3619, 4002.807
267.8440, 4041.098
268.3261, 4078.004
268.8082, 4112.562
269.2903, 4147.571
269.7725, 4186.216
270.2546, 4229.773
270.7367, 4268.487
271.2188, 4299.319
271.7009, 4324.154
272.1830, 4351.394
272.6652, 4380.855
273.1473, 4412.639
273.6294, 4447.476
274.1115, 4485.667
274.5936, 4525.086
275.0757, 4566.200
275.5579, 4608.255
276.0400, 4647.402
276.5221, 4682.813
277.0042, 4718.487
277.4863, 4758.854
277.9684, 4804.804
278.4506, 4843.489
278.9327, 4875.173
279.4148, 4897.788
279.8969, 4909.240
280.3790, 4910.703
280.8611, 4893.183
281.3433, 4850.448
281.8254, 4782.333
282.3075, 4700.346
282.7896, 4603.879
283.2717, 4495.057
283.7538, 4374.705
284.2360, 4242.521
284.7181, 4107.308
285.2002, 3971.286
285.6823, 3834.850
286.1644, 3700.520
286.6465, 3568.985
287.1287, 3441.572
287.6108, 3320.018
288.0929, 3204.360
288.5750, 3095.699
289.0571, 2993.384
289.5392, 2897.959
290.0214, 2814.677
290.5035, 2744.377
290.9856, 2681.653
291.4677, 2621.448
291.9498, 2563.938
292.4319, 2512.025
292.9141, 2466.115
293.3962, 2426.079
293.8783, 2392.812
294.3604, 2366.551
294.8425, 2342.934
295.3246, 2317.226
295.8068, 2290.682
296.2889, 2268.231
296.7710, 2251.841
297.2531, 2238.791
297.7352, 2225.104
298.2173, 2210.923
298.6995, 2196.869
299.1816, 2182.022
299.6637, 2167.794
300.1458, 2158.100
300.6279, 2154.703
301.1100, 2153.374
301.5922, 2148.713
302.0743, 2141.453
302.5564, 2134.674
303.0385, 2130.064
303.5206, 2127.011
304.0027, 2124.830
304.4849, 2123.659
304.9670, 2122.410
305.4491, 2118.815
305.9312, 2114.252
306.4133, 2112.037
306.8954, 2116.250
307.3776, 2122.364
307.8597, 2125.095
308.3418, 2123.813
308.8239, 2123.305
309.3060, 2127.873
309.7881, 2135.505
310.2703, 2142.848
310.7524, 2147.810
311.2345, 2152.647
311.7166, 2158.435
312.1987, 2165.245
312.6808, 2173.868
313.1630, 2186.776
313.6451, 2201.031
314.1272, 2213.573
314.6093, 2222.039
315.0914, 2229.628
315.5735, 2236.732
316.0557, 2243.728
316.5378, 2252.700
317.0199, 2265.351
317.5020, 2279.780
317.9841, 2294.979
318.4662, 2311.503
318.9484, 2327.133
319.4305, 2342.171
319.9126, 2355.870
320.3947, 2366.257
320.8768, 2371.837
321.3589, 2374.684
321.8411, 2375.345
322.3232, 2372.582
322.8053, 2370.869
323.2874, 2372.213
323.7695, 2374.906
324.2516, 2376.239
324.7338, 2377.070
325.2159, 2375.296
325.6980, 2369.774
326.1801, 2359.668
326.6622, 2349.253
327.1443, 2338.718
327.6265, 2328.006
328.1086, 2317.033
328.5907, 2307.134
329.0728, 2295.596
329.5549, 2280.240
330.0370, 2260.937
330.5192, 2247.159
331.0013, 2241.274
331.4834, 2238.801
331.9655, 2237.036
332.4476, 2238.771
332.9297, 2236.156
333.4119, 2226.287
333.8940, 2211.313
334.3761, 2201.207
334.8582, 2198.939
335.3403, 2197.112
335.8224, 2191.697
336.3046, 2180.901
336.7867, 2171.912
337.2688, 2165.710
337.7509, 2160.658
338.2330, 2152.482
338.7151, 2139.531
339.1973, 2128.864
339.6794, 2123.775
340.1615, 2124.596
340.6436, 2124.976
341.1257, 2124.900
341.6078, 2124.519
342.0899, 2123.972
342.5721, 2123.294
343.0542, 2122.523
343.5363, 2121.307
344.0184, 2120.079
344.5005, 2121.143
344.9826, 2124.781
345.4648, 2128.665
345.9469, 2130.950
346.4290, 2131.669
346.9111, 2130.553
347.3932, 2126.460
347.8753, 2121.912
348.3575, 2123.042
348.8396, 2129.295
349.3217, 2134.788
349.8038, 2134.138
350.2859, 2129.752
350.7680, 2127.819
351.2502, 2129.465
351.7323, 2131.954
352.2144, 2132.005
352.6965, 2130.281
353.1786, 2128.779
353.6607, 2128.463
354.1429, 2128.991
354.6250, 2130.059
355.1071, 2131.692
355.5892, 2133.636
356.0713, 2136.412
356.5534, 2139.269
357.0356, 2141.058
357.5177, 2139.665
357.9998, 2138.520
358.4819, 2140.583
358.9640, 2145.355
359.4461, 2150.031
359.9283, 2152.798
360.4104, 2154.998
360.8925, 2157.860
361.3746, 2162.438
361.8567, 2166.293
362.3388, 2167.448
362.8210, 2167.086
363.3031, 2167.954
363.7852, 2170.904
364.2673, 2175.248
364.7494, 2181.505
365.2315, 2191.085
365.7137, 2197.542
366.1958, 2196.473
366.6779, 2192.662
367.1600, 2191.722
367.6421, 2195.708
368.1242, 2201.142
368.6064, 2208.690
369.0885, 2218.604
369.5706, 2224.696
370.0527, 2226.080
370.5348, 2224.412
371.0169, 2220.527
371.4991, 2212.592
371.9812, 2205.833
372.4633, 2202.108
372.9454, 2199.744
373.4275, 2192.604
373.9096, 2178.378
374.3918, 2163.285
374.8739, 2151.135
375.3560, 2143.487
375.8381, 2130.507
376.3202, 2110.135
376.8023, 2087.287
377.2845, 2069.815
377.7666, 2058.713
378.2487, 2048.297
378.7308, 2037.353
379.2129, 2025.674
379.6950, 2012.027
380.1772, 1995.603
380.6593, 1980.721
381.1414, 1971.749
381.6235, 1968.276
382.1056, 1965.925
382.5877, 1964.218
383.0699, 1962.680
383.5520, 1959.810
384.0341, 1955.815
384.5162, 1953.036
384.9983, 1953.137
385.4804, 1955.482
385.9626, 1959.083
386.4447, 1964.098
386.9268, 1968.969
387.4089, 1970.958
387.8910, 1971.552
388.3731, 1974.063
388.8553, 1981.302
389.3374, 1990.286
389.8195, 1998.419
390.3016, 2005.567
390.7837, 2012.173
391.2658, 2017.528
391.7480, 2022.808
392.2301, 2029.342
392.7122, 2038.586
393.1943, 2047.673
393.6764, 2055.850
394.1585, 2062.901
394.6407, 2068.040
395.1228, 2069.300
395.6049, 2070.035
396.0870, 2071.810
396.5691, 2074.828
397.0512, 2078.859
397.5334, 2086.148
398.0155, 2093.711
398.4976, 2097.733
398.9797, 2092.740
399.4618, 2089.631
399.9439, 2090.682
400.4261, 2095.853
400.9082, 2101.946
401.3903, 2111.654
401.8724, 2119.664
402.3545, 2122.223
402.8366, 2116.430
403.3188, 2111.469
403.8009, 2108.276
404.2830, 2106.025
404.7651, 2102.314
405.2472, 2096.408
405.7293, 2091.370
406.2115, 2090.206
406.6936, 2093.269
407.1757, 2087.315
407.6578, 2070.199
408.1399, 2049.848
408.6220, 2035.303
409.1042, 2026.447
409.5863, 2018.050
410.0684, 2009.484
410.5505, 1999.927
411.0326, 1986.011
411.5147, 1967.811
411.9969, 1949.636
412.4790, 1934.369
412.9611, 1921.221
413.4432, 1908.690
413.9253, 1896.543
414.4074, 1884.630
414.8896, 1870.780
415.3717, 1856.869
415.8538, 1847.460
416.3359, 1850.515
416.8180, 1855.401
417.3001, 1851.226
417.7823, 1838.002
418.2644, 1825.229
418.7465, 1818.046
419.2286, 1813.870
419.7107, 1810.372
420.1928, 1807.637
420.6750, 1804.416
421.1571, 1800.320
421.6392, 1795.348
422.1213, 1789.614
422.6034, 1780.929
423.0855, 1773.410
423.5677, 1768.726
424.0498, 1767.439
424.5319, 1767.653
425.0140, 1770.500
425.4961, 1774.238
425.9782, 1777.096
426.4604, 1778.311
426.9425, 1779.829
427.4246, 1781.928
427.9067, 1784.595
428.3888, 1787.412
428.8709, 1789.946
429.3531, 1793.378
429.8352, 1798.646
430.3173, 1806.061
430.7994, 1813.567
431.2815, 1821.552
431.7636, 1828.829
432.2458, 1832.011
432.7279, 1830.664
433.2100, 1832.191
433.6921, 1839.846
434.1742, 1852.294
434.6563, 1864.923
435.1385, 1877.906
435.6206, 1890.523
436.1027, 1902.100
436.5848, 1912.870
437.0669, 1923.188
437.5490, 1932.708
438.0312, 1942.962
438.5133, 1956.153
438.9954, 1971.689
439.4775, 1987.885
439.9596, 2004.583
440.4417, 2021.160
440.9239, 2036.459
441.4060, 2050.433
441.8881, 2065.833
442.3702, 2085.247
442.8523, 2106.197
443.3344, 2126.472
443.8166, 2145.781
444.2987, 2163.937
444.7808, 2180.359
445.2629, 2195.484
445.7450, 2210.758
446.2271, 2224.477
446.7093, 2239.716
447.1914, 2258.012
447.6735, 2280.647
448.1556, 2302.302
448.6377, 2321.561
449.1198, 2340.565
449.6020, 2361.664
450.0841, 2385.414
450.5662, 2409.241
451.0483, 2432.908
451.5304, 2456.445
452.0125, 2478.961
452.4947, 2500.013
452.9768, 2521.997
453.4589, 2546.898
453.9410, 2575.002
454.4231, 2602.268
454.9052, 2628.963
455.3874, 2654.789
455.8695, 2679.047
456.3516, 2702.165
456.8337, 2726.393
457.3158, 2752.720
457.7979, 2780.719
458.2801, 2812.526
458.7622, 2846.923
459.2443, 2876.258
459.7264, 2893.231
460.2085, 2902.588
460.6906, 2909.522
461.1728, 2914.344
461.6549, 2919.036
462.1370, 2926.769
462.6191, 2934.855
463.1012, 2939.139
463.5833, 2938.723
464.0655, 2933.600
464.5476, 2924.464
465.0297, 2911.059
465.5118, 2890.703
465.9939, 2857.890
466.4760, 2821.687
466.9582, 2787.374
467.4403, 2757.992
467.9224, 2725.045
468.4045, 2688.088
468.8866, 2647.821
469.3687, 2603.854
469.8509, 2553.185
470.3330, 2505.745
470.8151, 2464.531
471.2972, 2428.955
471.7793, 2392.592
472.2614, 2354.428
472.7436, 2317.329
473.2257, 2283.257
473.7078, 2252.113
474.1899, 2222.294
474.6720, 2193.381
475.1541, 2166.001
475.6363, 2140.774
476.1184, 2117.769
476.6005, 2097.532
477.0826, 2080.985
477.5647, 2066.936
478.0468, 2052.962
478.5290, 2039.201
479.0111, 2026.899
479.4932, 2018.668
479.9753, 2011.650
480.4574, 2001.956
480.9395, 1987.850
481.4217, 1974.460
481.9038, 1965.305
482.3859, 1958.972
482.8680, 1953.533
483.3501, 1950.226
483.8322, 1945.857
484.3144, 1937.923
484.7965, 1926.871
485.2786, 1918.554
485.7607, 1917.685
486.2428, 1916.782
486.7249, 1912.076
487.2071, 1902.126
487.6892, 1891.302
488.1713, 1877.657
488.6534, 1864.544
489.1355, 1857.211
489.6176, 1857.687
490.0998, 1858.178
490.5819, 1857.318
491.0640, 1854.981
491.5461, 1849.921
492.0282, 1841.801
492.5103, 1833.503
492.9925, 1826.890
493.4746, 1821.764
493.9567, 1817.749
494.4388, 1814.859
494.9209, 1812.406
495.4030, 1809.846
495.8852, 1807.056
496.3673, 1803.626
496.8494, 1798.517
497.3315, 1793.509
497.8136, 1790.179
498.2957, 1788.349
498.7779, 1787.504
499.2600, 1788.102
499.7421, 1789.050
500.2242, 1789.792
500.7063, 1790.453
501.1884, 1790.097
501.6706, 1786.945
502.1527, 1783.350
502.6348, 1781.746
503.1169, 1783.348
503.5990, 1786.010
504.0811, 1790.892
504.5633, 1796.812
505.0454, 1799.331
505.5275, 1797.566
506.0096, 1793.773
506.4917, 1787.785
506.9738, 1779.001
507.4560, 1775.136
507.9381, 1777.084
508.4202, 1781.503
508.9023, 1785.717
509.3844, 1789.657
509.8665, 1791.906
510.3487, 1791.615
510.8308, 1790.614
511.3129, 1792.895
511.7950, 1797.585
512.2772, 1800.571
512.7593, 1796.627
513.2414, 1791.419
513.7235, 1793.184
514.2056, 1801.710
514.6877, 1809.031
515.1699, 1808.694
515.6520, 1805.505
516.1341, 1803.793
516.6162, 1804.553
517.0983, 1806.708
517.5804, 1810.381
518.0626, 1815.099
518.5447, 1820.094
519.0268, 1827.058
519.5089, 1832.284
519.9910, 1833.864
520.4731, 1832.167
520.9553, 1833.167
521.4374, 1838.292
521.9195, 1843.975
522.4016, 1847.948
522.8837, 1849.517
523.3658, 1853.305
523.8480, 1860.107
524.3301, 1867.609
524.8122, 1872.250
525.2943, 1874.238
525.7764, 1877.013
526.2585, 1881.892
526.7407, 1887.665
527.2228, 1892.090
527.7049, 1895.404
528.1870, 1898.812
528.6691, 1903.730
529.1512, 1908.831
529.6334, 1912.829
530.1155, 1915.664
530.5976, 1916.827
531.0797, 1913.451
531.5618, 1909.443
532.0439, 1908.803
532.5261, 1914.903
533.0082, 1920.955
533.4903, 1926.470
533.9724, 1930.691
534.4545, 1932.075
534.9366, 1925.951
535.4188, 1922.241
535.9009, 1924.443
536.3830, 1932.365
536.8651, 1936.783
537.3472, 1937.060
537.8293, 1935.183
538.3115, 1931.495
538.7936, 1925.693
539.2757, 1923.073
539.7578, 1924.379
540.2399, 1927.598
540.7220, 1930.506
541.2042, 1933.059
541.6863, 1935.230
542.1684, 1937.021
542.6505, 1938.415
543.1326, 1939.200
543.6147, 1939.501
544.0969, 1939.854
544.5790, 1940.796
545.0611, 1941.727
545.5432, 1941.763
546.0253, 1940.743
546.5074, 1940.745
546.9896, 1943.752
547.4717, 1947.526
547.9538, 1950.260
548.4359, 1950.983
548.9180, 1951.589
549.4001, 1952.403
549.8823, 1953.176
550.3644, 1953.434
550.8465, 1952.876
551.3286, 1952.433
551.8107, 1952.490
552.2928, 1952.909
552.7750, 1952.789
553.2571, 1952.229
553.7392, 1950.699
554.2213, 1946.625
554.7034, 1940.863
555.1855, 1938.485
555.6677, 1939.933
556.1498, 1943.179
556.6319, 1947.312
557.1140, 1951.510
557.5961, 1954.019
558.0782, 1954.145
558.5604, 1952.729
559.0425, 1949.056
559.5246, 1944.358
560.0067, 1941.417
560.4888, 1943.287
560.9709, 1945.455
561.4531, 1946.139
561.9352, 1945.259
562.4173, 1943.202
562.8994, 1937.528
563.3815, 1932.758
563.8636, 1931.585
564.3458, 1936.560
564.8279, 1937.966
565.3100, 1934.069
565.7921, 1928.835
566.2742, 1927.924
566.7563, 1931.896
567.2385, 1934.546
567.7206, 1934.026
568.2027, 1932.102
568.6848, 1932.834
569.1669, 1935.908
569.6490, 1938.925
570.1312, 1941.005
570.6133, 1942.092
571.0954, 1940.984
571.5775, 1937.917
572.0596, 1936.863
572.5417, 1942.960
573.0239, 1950.666
573.5060, 1954.691
573.9881, 1952.513
574.4702, 1951.187
574.9523, 1953.052
575.4344, 1956.858
575.9166, 1961.027
576.3987, 1967.378
576.8808, 1971.469
577.3629, 1971.464
577.8450, 1969.026
578.3271, 1969.986
578.8093, 1975.514
579.2914, 1980.832
579.7735, 1983.196
580.2556, 1983.265
580.7377, 1987.351
581.2198, 1995.767
581.7020, 2004.333
582.1841, 2008.481
582.6662, 2010.201
583.1483, 2014.835
583.6304, 2023.462
584.1125, 2032.502
584.5947, 2039.364
585.0768, 2044.474
585.5589, 2048.418
586.0410, 2049.798
586.5231, 2051.937
587.0052, 2056.022
587.4873, 2061.974
587.9694, 2069.421
588.4515, 2081.750
588.9337, 2092.058
589.4158, 2096.802
589.8979, 2095.926
590.3800, 2101.143
590.8621, 2115.375
591.3442, 2130.534
591.8264, 2140.859
592.3085, 2145.939
592.7906, 2153.136
593.2727, 2163.026
593.7548, 2173.672
594.2369, 2182.557
594.7191, 2190.297
595.2012, 2199.190
595.6833, 2210.101
596.1654, 2221.872
596.6475, 2232.956
597.1296, 2243.871
597.6118, 2256.073
598.0939, 2272.754
598.5760, 2288.683
599.0581, 2300.701
599.5402, 2308.940
600.0223, 2316.994
600.5045, 2324.510
600.9866, 2333.107
601.4687, 2344.044
601.9508, 2358.329
602.4329, 2370.398
602.9150, 2378.745
603.3972, 2386.866
603.8793, 2398.491
604.3614, 2414.185
604.8435, 2427.566
605.3256, 2437.424
605.8077, 2445.456
606.2899, 2453.267
606.7720, 2461.183
607.2541, 2470.671
607.7362, 2483.438
608.2183, 2496.783
608.7004, 2506.230
609.1826, 2513.176
609.6647, 2522.140
610.1468, 2538.702
610.6289, 2555.550
611.1110, 2567.795
611.5931, 2575.224
612.0753, 2582.317
612.5574, 2590.010
613.0395, 2597.732
613.5216, 2605.072
614.0037, 2611.705
614.4858, 2619.047
614.9680, 2627.316
615.4501, 2635.970
615.9322, 2644.461
616.4143, 2652.746
616.8964, 2660.843
617.3785, 2669.017
617.8607, 2676.327
618.3428, 2680.279
618.8249, 2681.659
619.3070, 2683.789
619.7891, 2688.673
620.2712, 2694.747
620.7534, 2700.148
621.2355, 2705.292
621.7176, 2711.804
622.1997, 2723.480
622.6818, 2734.388
623.1639, 2739.774
623.6461, 2737.794
624.1282, 2741.097
624.6103, 2756.695
625.0924, 2772.954
625.5745, 2781.513
626.0566, 2776.794
626.5388, 2781.532
627.0209, 2799.261
627.5030, 2821.089
627.9851, 2834.270
628.4672, 2839.122
628.9493, 2844.843
629.4315, 2853.367
629.9136, 2864.117
630.3957, 2876.825
630.8778, 2891.043
631.3599, 2905.298
631.8420, 2919.308
632.3242, 2932.777
632.8063, 2945.349
633.2884, 2957.086
633.7705, 2968.817
634.2526, 2979.841
634.7347, 2991.808
635.2169, 3006.340
635.6990, 3024.163
636.1811, 3039.563
636.6632, 3051.942
637.1453, 3062.672
637.6274, 3072.155
638.1096, 3080.097
638.5917, 3089.109
639.0738, 3099.318
639.5559, 3110.725
640.0380, 3124.424
640.5201, 3139.757
641.0023, 3153.525
641.4844, 3164.945
641.9665, 3174.797
642.4486, 3185.021
642.9307, 3194.604
643.4128, 3201.192
643.8950, 3201.191
644.3771, 3200.665
644.8592, 3202.840
645.3413, 3207.169
645.8234, 3210.432
646.3055, 3212.409
646.7877, 3212.856
647.2698, 3211.111
647.7519, 3207.031
648.2340, 3204.677
648.7161, 3204.500
649.1982, 3204.738
649.6804, 3205.446
650.1625, 3206.078
650.6446, 3200.405
651.1267, 3187.469
651.6088, 3173.476
652.0909, 3164.333
652.5731, 3158.887
653.0552, 3155.250
653.5373, 3153.543
654.0194, 3152.300
654.5015, 3149.551
654.9836, 3146.989
655.4658, 3147.065
655.9479, 3151.085
656.4300, 3157.103
656.9121, 3165.362
657.3942, 3175.416
657.8763, 3185.747
658.3585, 3195.193
658.8406, 3207.611
659.3227, 3223.847
659.8048, 3244.039
660.2869, 3268.700
660.7690, 3297.833
661.2512, 3329.746
661.7333, 3360.846
662.2154, 3394.322
662.6975, 3436.748
663.1796, 3488.188
663.6617, 3544.201
664.1439, 3601.004
664.6260, 3661.406
665.1081, 3728.587
665.5902, 3803.547
666.0723, 3881.458
666.5544, 3958.789
667.0366, 4040.185
667.5187, 4129.677
668.0008, 4228.642
668.4829, 4333.448
668.9650, 4443.335
669.4471, 4558.468
669.9293, 4680.858
670.4114, 4810.589
670.8935, 4944.108
671.3756, 5080.282
671.8577, 5220.431
672.3398, 5370.577
672.8220, 5529.601
673.3041, 5690.976
673.7862, 5850.040
674.2683, 6011.118
674.7504, 6175.670
675.2325, 6344.792
675.7147, 6519.061
676.1968, 6704.685
676.6789, 6893.024
677.1610, 7078.011
677.6431, 7261.183
678.1252, 7439.996
678.6074, 7611.730
679.0895, 7781.465
679.5716, 7952.351
680.0537, 8125.779
680.5358, 8286.442
681.0179, 8433.123
681.5001, 8570.607
681.9822, 8704.175
682.4643, 8830.573
682.9464, 8941.168
683.4285, 9036.639
683.9106, 9111.482
684.3928, 9165.192
684.8749, 9195.559
685.3570, 9201.214
685.8391, 9178.661
686.3212, 9135.553
686.8033, 9072.205
687.2855, 8988.762
687.7676, 8883.323
688.2497, 8750.276
688.7318, 8606.146
689.2139, 8454.701
689.6960, 8292.663
690.1782, 8114.209
690.6603, 7919.664
691.1424, 7715.323
691.6245, 7497.429
692.1066, 7272.435
692.5887, 7048.906
693.0709, 6827.916
693.5530, 6612.778
694.0351, 6408.451
694.5172, 6210.590
694.9993, 6016.665
695.4814, 5826.422
695.9636, 5640.978
696.4457, 5457.073
696.9278, 5281.009
697.4099, 5115.646
697.8920, 4961.237
698.3741, 4816.739
698.8563, 4683.600
699.3384, 4555.977
699.8205, 4426.573
700.3026, 4298.341
700.7847, 4180.470
701.2668, 4074.565
701.7490, 3974.657
702.2311, 3874.908
702.7132, 3777.689
703.1953, 3686.413
703.6774, 3602.504
704.1595, 3523.116
704.6417, 3446.650
705.1238, 3373.230
705.6059, 3304.301
706.0880, 3240.990
706.5701, 3178.967
707.0522, 3117.129
707.5344, 3056.625
708.0165, 3000.614
708.4986, 2949.384
708.9807, 2901.362
709.4628, 2856.719
709.9449, 2814.351
710.4271, 2770.911
710.9092, 2727.836
711.3913, 2688.827
711.8734, 2661.013
712.3555, 2634.189
712.8376, 2599.688
713.3198, 2558.967
713.8019, 2520.754
714.2840, 2486.053
714.7661, 2455.367
715.2482, 2430.602
715.7303, 2411.438
716.2125, 2387.499
716.6946, 2356.585
717.1767, 2326.461
717.6588, 2302.553
718.1409, 2283.824
718.6230, 2264.119
719.1052, 2243.177
719.5873, 2222.129
720.0694, 2201.280
720.5515, 2180.661
721.0336, 2159.613
721.5157, 2138.007
721.9979, 2117.712
722.4800, 2099.773
722.9621, 2083.157
723.4442, 2066.822
723.9263, 2049.336
724.4084, 2035.476
724.8906, 2027.679
725.3727, 2020.438
725.8548, 2007.177
726.3369, 1987.176
726.8190, 1970.559
727.3011, 1959.153
727.7833, 1949.599
728.2654, 1937.439
728.7475, 1923.983
729.2296, 1912.700
729.7117, 1906.043
730.1938, 1898.734
730.6760, 1886.379
731.1581, 1871.389
731.6402, 1857.281
732.1223, 1843.832
732.6044, 1832.816
733.0865, 1825.657
733.5687, 1820.613
734.0508, 1813.950
734.5329, 1805.219
735.0150, 1796.590
735.4971, 1788.249
735.9792, 1780.704
736.4614, 1776.300
736.9435, 1774.216
737.4256, 1770.219
737.9077, 1759.359
738.3898, 1747.809
738.8719, 1742.016
739.3541, 1740.536
739.8362, 1738.398
740.3183, 1732.826
740.8004, 1727.248
741.2825, 1723.277
741.7646, 1720.624
742.2468, 1716.999
742.7289, 1712.207
743.2110, 1706.924
743.6931, 1701.235
744.1752, 1695.291
744.6573, 1690.220
745.1395, 1686.031
745.6216, 1681.467
746.1037, 1674.503
746.5858, 1667.362
747.0679, 1663.362
747.5500, 1662.513
748.0322, 1661.517
748.5143, 1657.760
748.9964, 1654.278
749.4785, 1653.536
749.9606, 1656.755
750.4427, 1656.739
750.9249, 1652.502
751.4070, 1646.709
751.8891, 1640.379
752.3712, 1633.519
752.8533, 1630.530
753.3354, 1631.893
753.8176, 1633.399
754.2997, 1631.930
754.7818, 1627.741
755.2639, 1619.719
755.7460, 1606.670
756.2281, 1597.139
756.7103, 1599.336
757.1924, 1604.962
757.6745, 1606.725
758.1566, 1600.611
758.6387, 1596.930
759.1208, 1596.627
759.6030, 1597.553
760.0851, 1598.197
760.5672, 1598.632
761.0493, 1595.298
761.5314, 1587.034
762.0135, 1578.126
762.4957, 1573.649
762.9778, 1572.231
763.4599, 1571.453
763.9420, 1571.124
764.4241, 1570.282
764.9063, 1567.388
765.3884, 1564.093
765.8705, 1562.450
766.3526, 1564.708
766.8347, 1565.827
767.3168, 1565.507
767.7990, 1564.076
768.2811, 1561.996
768.7632, 1559.276
769.2453, 1555.675
769.7274, 1550.882
770.2095, 1545.948
770.6917, 1542.222
771.1738, 1539.533
771.6559, 1537.430
772.1380, 1535.407
772.6201, 1534.447
773.1022, 1536.705
773.5844, 1540.046
774.0665, 1540.586
774.5486, 1535.218
775.0307, 1530.942
775.5128, 1529.092
775.9949, 1528.513
776.4771, 1526.271
776.9592, 1522.256
777.4413, 1520.053
777.9234, 1521.872
778.4055, 1524.157
778.8876, 1520.558
779.3698, 1512.962
779.8519, 1506.188
780.3340, 1501.887
780.8161, 1499.530
781.2982, 1500.288
781.7803, 1502.780
782.2625, 1503.113
782.7446, 1498.656
783.2267, 1496.172
783.7088, 1498.212
784.1909, 1502.412
784.6730, 1501.167
785.1552, 1494.528
785.6373, 1488.993
786.1194, 1487.569
786.6015, 1488.167
787.0836, 1488.207
787.5657, 1487.807
788.0479, 1487.292
788.5300, 1486.737
789.0121, 1486.173
789.4942, 1486.160
789.9763, 1486.216
790.4584, 1484.456
790.9406, 1479.713
791.4227, 1475.335
791.9048, 1471.997
792.3869, 1469.812
792.8690, 1470.360
793.3511, 1473.327
793.8333, 1473.670
794.3154, 1466.513
794.7975, 1457.635
795.2796, 1454.375
795.7617, 1455.419
796.2438, 1456.693
796.7260, 1457.127
797.2081, 1456.892
797.6902, 1456.710
798.1723, 1456.027
798.6544, 1451.831
799.1365, 1441.905
799.6187, 1434.600
800.1008, 1433.477
800.5829, 1436.355
801.0650, 1436.377
801.5471, 1434.069
802.0292, 1432.880
802.5114, 1437.327
802.9935, 1441.597
803.4756, 1439.529
803.9577, 1432.640
804.4398, 1426.120
804.9219, 1419.541
805.4041, 1415.832
805.8862, 1417.097
806.3683, 1421.790
806.8504, 1423.441
807.3325, 1421.632
807.8146, 1418.748
808.2968, 1415.376
808.7789, 1411.760
809.2610, 1408.005
809.7431, 1404.379
810.2252, 1401.963
810.7073, 1403.599
811.1895, 1404.537
811.6716, 1400.785
812.1537, 1393.660
812.6358, 1388.084
813.1179, 1384.468
813.6000, 1383.073
814.0822, 1385.028
814.5643, 1388.971
815.0464, 1389.456
815.5285, 1386.417
816.0106, 1383.891
816.4927, 1383.847
816.9749, 1384.921
817.4570, 1385.783
817.9391, 1386.096
818.4212, 1384.906
818.9033, 1378.869
819.3854, 1374.267
819.8676, 1375.108
820.3497, 1379.576
820.8318, 1381.185
821.3139, 1378.221
821.7960, 1376.371
822.2781, 1377.178
822.7603, 1379.796
823.2424, 1383.044
823.7245, 1386.595
824.2066, 1388.293
824.6887, 1386.914
825.1708, 1383.802
825.6530, 1378.809
826.1351, 1373.093
826.6172, 1369.356
827.0993, 1370.271
827.5814, 1370.887
828.0635, 1370.094
828.5457, 1368.488
829.0278, 1367.118
829.5099, 1365.930
829.9920, 1365.623
830.4741, 1366.697
830.9562, 1368.103
831.4384, 1367.645
831.9205, 1366.170
832.4026, 1365.933
832.8847, 1369.156
833.3668, 1371.765
833.8489, 1370.663
834.3311, 1367.821
834.8132, 1366.678
835.2953, 1368.139
835.7774, 1369.858
836.2595, 1371.715
836.7416, 1373.535
837.2238, 1375.261
837.7059, 1376.817
838.1880, 1377.072
838.6701, 1375.240
839.1522, 1373.762
839.6343, 1376.075
840.1165, 1380.015
840.5986, 1382.327
841.0807, 1380.006
841.5628, 1379.602
842.0449, 1384.166
842.5270, 1390.019
843.0092, 1393.263
843.4913, 1393.218
843.9734, 1394.831
844.4555, 1399.063
844.9376, 1403.063
845.4197, 1402.189
845.9019, 1398.800
846.3840, 1398.124
846.8661, 1401.649
847.3482, 1405.467
847.8303, 1407.107
848.3124, 1408.207
848.7946, 1410.357
849.2767, 1414.358
849.7588, 1417.273
850.2409, 1418.127
850.7230, 1419.725
851.2051, 1425.669
851.6873, 1434.956
852.1694, 1440.748
852.6515, 1442.477
853.1336, 1444.316
853.6157, 1451.250
854.0978, 1459.004
854.5800, 1462.849
855.0621, 1461.622
855.5442, 1461.983
856.0263, 1465.969
856.5084, 1471.147
856.9905, 1476.322
857.4727, 1481.479
857.9548, 1488.596
858.4369, 1498.000
858.9190, 1506.229
859.4011, 1509.245
859.8832, 1510.437
860.3654, 1515.093
860.8475, 1523.151
861.3296, 1532.416
861.8117, 1543.183
862.2938, 1553.764
862.7759, 1563.320
863.2581, 1571.922
863.7402, 1580.547
864.2223, 1589.055
864.7044, 1597.887
865.1865, 1607.299
865.6686, 1617.102
866.1508, 1626.158
866.6329, 1634.872
867.1150, 1644.675
867.5971, 1656.898
868.0792, 1669.873
868.5613, 1682.737
869.0435, 1695.604
869.5256, 1708.555
870.0077, 1722.039
870.4898, 1734.754
870.9719, 1746.394
871.4540, 1757.368
871.9362, 1769.069
872.4183, 1781.260
872.9004, 1792.071
873.3825, 1801.051
873.8646, 1808.200
874.3467, 1812.485
874.8289, 1815.271
875.3110, 1818.563
875.7931, 1823.718
876.2752, 1828.335
876.7573, 1832.691
877.2394, 1836.020
877.7216, 1837.402
878.2037, 1836.779
878.6858, 1834.978
879.1679, 1832.132
879.6500, 1827.862
880.1321, 1821.967
880.6143, 1814.265
881.0964, 1803.862
881.5785, 1789.766
882.0606, 1776.989
882.5427, 1769.859
883.0248, 1762.576
883.5070, 1751.415
883.9891, 1735.977
884.4712, 1718.120
884.9533, 1697.433
885.4354, 1677.152
885.9175, 1660.491
886.3997, 1645.830
886.8818, 1630.050
887.3639, 1613.040
887.8460, 1596.203
888.3281, 1579.814
888.8102, 1564.454
889.2924, 1551.446
889.7745, 1540.455
890.2566, 1526.398
890.7387, 1508.078
891.2208, 1490.666
891.7029, 1476.536
892.1851, 1464.538
892.6672, 1451.378
893.1493, 1437.258
893.6314, 1423.346
894.1135, 1409.589
894.5956, 1396.647
895.0778, 1385.146
895.5599, 1374.676
896.0420, 1364.544
896.5241, 1355.048
897.0062, 1344.920
897.4883, 1333.829
897.9705, 1322.326
898.4526, 1311.337
898.9347, 1300.948
899.4168, 1291.636
899.8989, 1283.557
900.3810, 1276.217
900.8632, 1269.822
901.3453, 1263.572
901.8274, 1256.424
902.3095, 1248.271
902.7916, 1238.958
903.2737, 1227.213
903.7559, 1216.061
904.2380, 1209.353
904.7201, 1206.299
905.2022, 1199.032
905.6843, 1187.076
906.1664, 1175.571
906.6486, 1170.101
907.1307, 1166.255
907.6128, 1159.927
908.0949, 1150.629
908.5770, 1140.870
909.0591, 1129.311
909.5413, 1119.788
910.0234, 1114.320
910.5055, 1112.290
910.9876, 1110.296
911.4697, 1108.298
911.9518, 1105.456
912.4340, 1101.488
912.9161, 1096.278
913.3982, 1089.308
913.8803, 1081.050
914.3624, 1072.877
914.8445, 1064.254
915.3267, 1056.929
915.8088, 1051.074
916.2909, 1046.718
916.7730, 1044.669
917.2551, 1044.828
917.7372, 1043.384
918.2194, 1039.182
918.7015, 1034.019
919.1836, 1029.407
919.6657, 1025.239
920.1478, 1021.393
920.6299, 1017.946
921.1121, 1014.568
921.5942, 1010.990
922.0763, 1007.630
922.5584, 1005.170
923.0405, 1003.690
923.5226, 1000.174
924.0048, 994.4124
924.4869, 989.0454
924.9690, 986.9769
925.4511, 985.9323
925.9332, 983.0963
926.4153, 978.3840
926.8975, 974.3534
927.3796, 972.8307
927.8617, 970.7700
928.3438, 966.5842
928.8259, 961.0233
929.3080, 958.4134
929.7902, 958.6796
930.2723, 958.4152
930.7544, 955.6497
931.2365, 952.1749
931.7186, 949.9914
932.2007, 948.7082
932.6829, 947.5198
933.1650, 946.3090
933.6471, 945.0125
934.1292, 943.5955
934.6113, 942.1497
935.0934, 941.0568
935.5756, 940.2977
936.0577, 938.4897
936.5398, 935.4291
937.0219, 931.5922
937.5040, 927.0140
937.9861, 922.1951
938.4683, 917.2690
938.9504, 911.6757
939.4325, 909.3584
939.9146, 913.7772
940.3967, 917.8999
940.8788, 917.6025
941.3610, 913.3322
941.8431, 911.1543
942.3252, 910.9843
942.8073, 910.9323
943.2894, 909.4409
943.7715, 907.8063
944.2537, 907.9212
944.7358, 909.0303
945.2179, 908.2662
945.7000, 902.0106
946.1821, 898.1528
946.6642, 898.8781
947.1464, 901.9265
947.6285, 902.2894
948.1106, 900.3861
948.5927, 899.6385
949.0748, 901.4650
949.5569, 902.8096
950.0391, 899.8398
950.5212, 895.4245
951.0033, 893.0387
951.4854, 894.8275
951.9675, 894.7609
952.4496, 891.6224
952.9318, 888.6017
953.4139, 888.4352
953.8960, 890.6291
954.3781, 892.7743
954.8602, 894.7240
955.3423, 895.4539
955.8245, 893.4352
956.3066, 890.6774
956.7887, 888.2341
957.2708, 886.2457
957.7529, 885.1788
958.2350, 885.5153
958.7172, 885.6395
959.1993, 885.2023
959.6814, 884.1926
960.1635, 882.1922
960.6456, 879.5800
961.1277, 877.5423
961.6099, 876.3671
962.0920, 876.0695
962.5741, 877.6595
963.0562, 879.5882
963.5383, 879.9637
964.0204, 877.9432
964.5026, 876.8159
964.9847, 876.8109
965.4668, 876.9769
965.9489, 875.9055
966.4310, 874.5433
966.9131, 875.5338
967.3953, 878.7622
967.8774, 880.7518
968.3595, 879.2112
968.8416, 876.4908
969.3237, 872.8969
969.8058, 869.0143
970.2880, 867.7543
970.7701, 869.4051
971.2522, 871.2180
971.7343, 872.4241
972.2164, 873.0506
972.6985, 872.8424
973.1807, 872.1492
973.6628, 871.6564
974.1449, 871.6128
974.6270, 871.6947
975.1091, 871.8824
975.5912, 872.1241
976.0734, 872.3610
976.5555, 872.5941
977.0376, 873.2150
977.5197, 874.2956
978.0018, 874.6678
978.4839, 872.5288
978.9661, 869.8118
979.4482, 868.4824
979.9303, 868.6149
980.4124, 868.8817
980.8945, 868.8470
981.3766, 869.3131
981.8588, 870.6592
982.3409, 872.5498
982.8230, 874.4426
983.3051, 876.1400
983.7872, 876.4860
984.2693, 874.3306
984.7515, 872.1252
985.2336, 871.8032
985.7157, 872.3395
986.1978, 872.3131
986.6799, 870.6423
987.1620, 870.9272
987.6442, 873.8793
988.1263, 876.7835
988.6084, 876.6171
989.0905, 874.6512
989.5726, 874.0610
990.0547, 874.8951
990.5369, 875.7795
991.0190, 876.3522
991.5011, 876.4539
991.9832, 875.6966
992.4653, 874.4301
992.9474, 874.0632
993.4296, 874.8049
993.9117, 874.0677
994.3938, 869.8107
994.8759, 866.6019
995.3580, 873.8120
995.8401, 885.2140
996.3223, 890.5684
996.8044, 883.5284
997.2865, 878.6210
997.7686, 878.7787
998.2507, 880.6306
998.7328, 881.7980
999.2150, 882.3207
999.6971, 883.3529
1000.179, 884.8846
1000.661, 886.7449
1001.143, 888.8729
1001.626, 891.2339
1002.108, 894.7775
1002.590, 898.7654
1003.072, 899.5282
1003.554, 894.9393
1004.036, 891.9855
1004.518, 892.2690
1005.000, 894.5049
1005.482, 896.8495
1005.965, 899.3589
1006.447, 902.0466
1006.929, 904.7952
1007.411, 908.2018
1007.893, 914.4445
1008.375, 919.8907
1008.857, 921.3906
1009.339, 918.4854
1009.822, 918.6298
1010.304, 922.0706
1010.786, 925.7907
1011.268, 927.2244
1011.750, 928.2504
1012.232, 931.9927
1012.714, 937.3700
1013.196, 941.2836
1013.678, 940.7875
1014.161, 941.5791
1014.643, 945.2334
1015.125, 949.5380
1015.607, 951.0826
1016.089, 950.2607
1016.571, 949.0072
1017.053, 947.4193
1017.535, 947.5897
1018.018, 953.3138
1018.500, 959.7582
1018.982, 962.9794
1019.464, 962.6702
1019.946, 962.3934
1020.428, 962.2341
1020.910, 961.7477
1021.392, 960.2543
1021.874, 958.8555
1022.357, 960.5280
1022.839, 963.9296
1023.321, 965.9122
1023.803, 964.8918
1024.285, 962.8639
1024.767, 959.2404
1025.249, 955.6784
1025.731, 954.0002
1026.214, 954.2163
1026.696, 953.7325
1027.178, 952.4006
1027.660, 951.5189
1028.142, 953.0557
1028.624, 954.7338
1029.106, 954.6266
1029.588, 952.7365
1030.070, 949.9185
1030.553, 945.0827
1031.035, 942.4219
1031.517, 943.9347
1031.999, 946.4564
1032.481, 943.2542
1032.963, 936.5685
1033.445, 932.4121
1033.927, 933.0389
1034.410, 933.1801
1034.892, 929.2718
1035.374, 925.1061
1035.856, 923.7173
1036.338, 925.2032
1036.820, 923.8065
1037.302, 919.4894
1037.784, 915.5028
1038.266, 913.7560
1038.749, 913.3925
1039.231, 915.3204
1039.713, 917.8418
1040.195, 916.6149
1040.677, 906.6725
1041.159, 900.7040
1041.641, 900.7106
1042.123, 903.0013
1042.605, 903.6262
1043.088, 902.8148
1043.570, 901.0770
1044.052, 898.4686
1044.534, 895.3630
1045.016, 890.5983
1045.498, 886.7969
1045.980, 885.6621
1046.462, 886.6102
1046.945, 886.9100
1047.427, 886.5162
1047.909, 887.3608
1048.391, 891.0850
1048.873, 893.9296
1049.355, 890.1906
1049.837, 883.8073
1050.319, 880.2009
1050.802, 882.1323
1051.284, 882.9888
1051.766, 882.5782
1052.248, 881.3093
1052.730, 878.9601
1053.212, 876.0543
1053.694, 874.0800
1054.176, 873.0273
1054.658, 872.8418
1055.141, 874.1371
1055.623, 875.5349
1056.105, 876.2532
1056.587, 876.9420
1057.069, 879.0765
1057.551, 882.7516
1058.033, 884.1639
1058.515, 882.6893
1058.997, 880.3192
1059.480, 878.6735
1059.962, 877.1111
1060.444, 874.7604
1060.926, 871.5944
1061.408, 869.5194
1061.890, 868.8122
1062.372, 868.5664
1062.854, 868.4064
1063.337, 868.6603
1063.819, 870.6761
1064.301, 873.4752
1064.783, 874.8535
1065.265, 873.8539
1065.747, 872.1642
1066.229, 869.5226
1066.711, 867.0760
1067.193, 865.6395
1067.676, 865.1597
1068.158, 864.0825
1068.640, 862.5135
1069.122, 862.0706
1069.604, 865.9198
1070.086, 869.0347
1070.568, 866.7797
1071.050, 861.6234
1071.532, 859.2676
1072.015, 860.7576
1072.497, 861.7410
1072.979, 861.7384
1073.461, 861.4834
1073.943, 862.3304
1074.425, 863.1194
1074.907, 861.3550
1075.389, 857.0720
1075.872, 855.1621
1076.354, 859.3128
1076.836, 862.4609
1077.318, 862.5104
1077.800, 860.5876
1078.282, 858.8687
1078.764, 857.3551
1079.246, 856.1019
1079.729, 855.2148
1080.211, 854.1783
1080.693, 852.1703
1081.175, 850.3575
1081.657, 849.6670
1082.139, 850.0911
1082.621, 850.3690
1083.103, 850.4890
1083.585, 851.4808
1084.068, 855.2435
1084.550, 858.7108
1085.032, 858.7839
1085.514, 856.4960
1085.996, 853.4312
1086.478, 848.1361
1086.960, 846.2477
1087.442, 848.8234
1087.924, 852.0379
1088.406, 852.1707
1088.889, 850.5179
1089.371, 849.1915
1089.853, 848.3193
1090.335, 847.9149
1090.817, 848.8254
1091.299, 849.0828
1091.781, 847.9750
1092.263, 846.2722
1092.746, 845.4463
1093.228, 845.3084
1093.710, 844.8042
1094.192, 843.6533
1094.674, 843.1086
1095.156, 844.4962
1095.638, 846.3140
1096.120, 847.7199
1096.603, 848.6630
1097.085, 848.9349
1097.567, 848.5313
1098.049, 847.0994
1098.531, 843.7015
1099.013, 840.9189
1099.495, 842.5465
1099.977, 845.8696
1100.459, 847.2796
1100.942, 845.3423
1101.424, 844.4886
1101.906, 845.2416
1102.388, 845.3802
1102.870, 842.6995
1103.352, 838.8436
1103.834, 836.4615
1104.316, 835.5638
1104.798, 836.2401
1105.281, 840.5717
1105.763, 843.6094
1106.245, 844.7150
1106.727, 844.3895
1107.209, 842.7869
1107.691, 840.1945
1108.173, 837.5565
1108.655, 834.9979
1109.138, 833.5319
1109.620, 834.1412
1110.102, 835.5519
1110.584, 838.0309
1111.066, 840.5143
1111.548, 840.1827
1112.030, 837.1107
1112.512, 835.7841
1112.995, 837.1669
1113.477, 839.1932
1113.959, 841.1353
1114.441, 842.1051
1114.923, 840.6682
1115.405, 836.9343
1115.887, 834.8999
1116.369, 834.7321
1116.851, 835.3223
1117.333, 836.5562
1117.816, 837.7936
1118.298, 838.2225
1118.780, 838.0905
1119.262, 837.6984
1119.744, 836.9398
1120.226, 836.3901
1120.708, 835.8495
1121.190, 836.1144
1121.673, 838.5625
1122.155, 841.6224
1122.637, 841.2573
1123.119, 838.3781
1123.601, 835.4933
1124.083, 833.0768
1124.565, 831.4694
1125.047, 830.7380
1125.530, 830.6851
1126.012, 831.3429
1126.494, 832.5555
1126.976, 833.6003
1127.458, 834.4185
1127.940, 834.7595
1128.422, 834.0110
1128.904, 833.2630
1129.386, 832.5743
1129.869, 832.4183
1130.351, 834.1432
1130.833, 837.6837
1131.315, 839.1801
1131.797, 838.0898
1132.279, 836.6201
1132.761, 836.4036
1133.243, 836.5676
1133.725, 836.6750
1134.208, 836.6171
1134.690, 835.7318
1135.172, 833.7084
1135.654, 833.5641
1136.136, 836.5692
1136.618, 839.5662
1137.100, 838.9636
1137.582, 836.5361
1138.065, 833.9798
1138.547, 831.4982
1139.029, 829.3113
1139.511, 827.1411
1139.993, 826.3099
1140.475, 827.7950
1140.957, 830.1550
1141.439, 831.7052
1141.922, 832.3102
1142.404, 831.5599
1142.886, 828.3879
1143.368, 826.4837
1143.850, 826.2360
1144.332, 826.9904
1144.814, 828.8964
1145.296, 831.2215
1145.778, 832.0483
1146.260, 831.6808
1146.743, 831.0306
1147.225, 830.1216
1147.707, 829.4596
1148.189, 829.1649
1148.671, 829.0400
1149.153, 828.6167
1149.635, 828.1783
1150.117, 830.0607
1150.600, 833.7422
1151.082, 835.3583
1151.564, 830.9572
1152.046, 826.4991
1152.528, 823.4548
1153.010, 822.0392
1153.492, 823.5522
1153.974, 827.5596
1154.457, 828.5791
1154.939, 826.1642
1155.421, 824.0652
1155.903, 824.6576
1156.385, 826.4657
1156.867, 830.1351
1157.349, 833.9681
1157.831, 833.2624
1158.313, 827.9077
1158.796, 824.8425
1159.278, 825.3539
1159.760, 826.9941
1160.242, 828.5629
1160.724, 829.6877
1161.206, 829.6591
1161.688, 828.7479
1162.170, 828.9819
1162.652, 830.4580
1163.135, 832.3000
1163.617, 834.6629
1164.099, 835.9664
1164.581, 833.4293
1165.063, 829.6987
1165.545, 827.6450
1166.027, 827.7241
1166.509, 827.8480
1166.992, 828.0682
1167.474, 827.9279
1167.956, 826.8268
1168.438, 826.0121
1168.920, 828.3410
1169.402, 831.4557
1169.884, 831.5573
1170.366, 826.0056
1170.849, 824.3235
1171.331, 827.5799
1171.813, 830.9725
1172.295, 831.3625
1172.777, 830.7006
1173.259, 833.0168
1173.741, 836.5358
1174.223, 837.6483
1174.705, 833.0319
1175.188, 830.1840
1175.670, 829.6221
1176.152, 829.6550
1176.634, 829.0072
1177.116, 828.0510
1177.598, 827.1520
1178.080, 826.5511
1178.562, 826.9422
1179.044, 829.7892
1179.527, 831.7083
1180.009, 832.1390
1180.491, 832.2577
1180.973, 834.0382
1181.455, 836.0994
1181.937, 833.9797
1182.419, 828.6973
1182.901, 825.7568
1183.384, 830.9619
1183.866, 833.3120
1184.348, 830.1102
1184.830, 825.1959
1185.312, 823.1689
1185.794, 823.3019
1186.276, 823.9644
1186.758, 824.9617
1187.240, 825.7826
1187.723, 825.4362
1188.205, 825.9889
1188.687, 828.3322
1189.169, 831.1909
1189.651, 832.6238
1190.133, 832.8140
1190.615, 832.0131
1191.097, 830.2440
1191.579, 828.8205
1192.062, 828.0648
1192.544, 828.2443
1193.026, 830.1802
1193.508, 832.3118
1193.990, 830.0552
1194.472, 825.0244
1194.954, 823.2692
1195.436, 826.2197
1195.919, 829.2614
1196.401, 830.6733
1196.883, 831.3009
1197.365, 831.5345
1197.847, 831.2587
1198.329, 830.0323
1198.811, 827.9735
1199.293, 825.1608
1199.776, 821.0731
1200.258, 818.6987
1200.740, 820.6781
1201.222, 823.4681
1201.704, 825.2954
1202.186, 826.4979
1202.668, 829.0988
1203.150, 832.3491
1203.632, 832.9518
1204.115, 828.7599
1204.597, 825.0289
1205.079, 824.1284
1205.561, 824.6190
1206.043, 826.1585
1206.525, 828.3475
1207.007, 828.6253
1207.489, 827.4861
1207.971, 827.3074
1208.454, 830.1141
1208.936, 831.7882
1209.418, 829.1292
1209.900, 826.0441
1210.382, 825.0684
1210.864, 825.9045
1211.346, 827.1816
1211.828, 828.5980
1212.311, 828.5812
1212.793, 824.9762
1213.275, 822.0396
1213.757, 821.5588
1214.239, 822.1332
1214.721, 822.9893
1215.203, 824.0799
1215.685, 824.9847
1216.167, 825.7682
1216.650, 826.7803
1217.132, 828.5127
1217.614, 830.0824
1218.096, 831.0143
1218.578, 831.8872
1219.060, 833.6206
1219.542, 835.8712
1220.024, 835.8334
1220.506, 833.9077
1220.989, 832.5729
1221.471, 833.2497
1221.953, 834.5202
1222.435, 836.6356
1222.917, 838.3877
1223.399, 838.1136
1223.881, 836.3289
1224.363, 835.9193
1224.846, 836.6632
1225.328, 836.6282
1225.810, 833.8348
1226.292, 831.4445
1226.774, 829.6580
1227.256, 829.2550
1227.738, 831.9800
1228.220, 836.8173
1228.703, 840.5697
1229.185, 842.9837
1229.667, 843.7404
1230.149, 840.4354
1230.631, 838.5807
1231.113, 839.7850
1231.595, 842.1968
1232.077, 843.7094
1232.559, 844.4633
1233.042, 844.8996
##END=



