##NAMES=Sadanagaite
##RRUFFID=R080070
##IDEAL CHEMISTRY=NaCa_2_(Mg_3_Al_2_)(Si_5_Al_3_)O_22_(OH)_2_
##LOCALITY=Ilmen Mts, Chelyabinsk Oblast', Urals Region, Russia
##OWNER=RRUFF
##SOURCE=Michael Scott
##DESCRIPTION=Unconsolidated aggregate of black to dark brown grains showing strong pleochroism
##STATUS=The identification of this mineral has been confirmed only by single crystal X-ray diffraction.
##URL=rruff.info/R080070
155.6807, 263.4051
156.1628, 262.5258
156.6449, 262.6187
157.1271, 263.3988
157.6092, 263.7002
158.0913, 263.2484
158.5734, 262.7377
159.0555, 262.2596
159.5376, 261.8554
160.0198, 261.6710
160.5019, 261.8829
160.9840, 262.3215
161.4661, 262.3720
161.9482, 261.7603
162.4303, 261.0688
162.9125, 260.6743
163.3946, 260.5674
163.8767, 260.5692
164.3588, 260.7387
164.8409, 260.8961
165.3230, 260.7220
165.8052, 260.0000
166.2873, 259.0733
166.7694, 258.3801
167.2515, 257.9454
167.7336, 257.6601
168.2157, 257.5446
168.6979, 257.5171
169.1800, 257.4907
169.6621, 257.4361
170.1442, 257.3548
170.6263, 257.2180
171.1084, 256.8540
171.5906, 256.7362
172.0727, 257.2726
172.5548, 258.0618
173.0369, 258.5453
173.5190, 258.3624
174.0011, 257.5787
174.4833, 256.7452
174.9654, 255.5385
175.4475, 254.6173
175.9296, 254.2402
176.4117, 254.2519
176.8938, 254.3806
177.3760, 254.4458
177.8581, 254.4505
178.3402, 254.2531
178.8223, 253.6074
179.3044, 253.0253
179.7865, 252.7651
180.2687, 252.7486
180.7508, 252.6869
181.2329, 252.2969
181.7150, 251.5270
182.1971, 251.2012
182.6792, 251.9093
183.1614, 252.5127
183.6435, 252.1472
184.1256, 250.8653
184.6077, 249.5984
185.0898, 249.2510
185.5719, 249.8969
186.0541, 250.1272
186.5362, 249.4833
187.0183, 248.6591
187.5004, 248.3891
187.9825, 248.7766
188.4646, 249.1884
188.9468, 248.9360
189.4289, 248.1832
189.9110, 247.5813
190.3931, 247.3368
190.8752, 247.3101
191.3573, 247.3623
191.8395, 247.5839
192.3216, 247.5929
192.8037, 246.8022
193.2858, 245.5567
193.7679, 244.6613
194.2500, 244.7831
194.7322, 245.5675
195.2143, 245.8309
195.6964, 245.2824
196.1785, 244.6047
196.6606, 244.2241
197.1427, 244.0226
197.6249, 243.7375
198.1070, 243.1011
198.5891, 242.1728
199.0712, 241.5741
199.5533, 241.5765
200.0354, 241.6348
200.5176, 241.5097
200.9997, 241.2693
201.4818, 241.0902
201.9639, 241.1225
202.4460, 241.3708
202.9281, 241.6139
203.4103, 242.0759
203.8924, 242.3168
204.3745, 242.0716
204.8566, 241.4648
205.3387, 240.8234
205.8208, 240.4453
206.3030, 240.3729
206.7851, 240.1563
207.2672, 239.4191
207.7493, 238.8998
208.2314, 239.1158
208.7135, 239.8855
209.1957, 240.5649
209.6778, 240.5257
210.1599, 239.6179
210.6420, 239.1698
211.1241, 239.5523
211.6062, 239.9746
212.0884, 240.0512
212.5705, 239.7723
213.0526, 239.3157
213.5347, 238.8060
214.0168, 238.2316
214.4989, 237.7822
214.9811, 237.5062
215.4632, 237.3031
215.9453, 237.1939
216.4274, 237.1507
216.9095, 236.9441
217.3916, 236.2497
217.8737, 235.0851
218.3559, 234.5028
218.8380, 235.1986
219.3201, 236.0437
219.8022, 236.0000
220.2843, 234.9919
220.7664, 233.7348
221.2486, 232.6541
221.7307, 231.7787
222.2128, 231.2444
222.6949, 231.3674
223.1770, 231.6886
223.6591, 231.6329
224.1413, 231.1263
224.6234, 230.6505
225.1055, 230.6856
225.5876, 230.9902
226.0697, 231.1274
226.5518, 230.9302
227.0340, 230.5301
227.5161, 230.1005
227.9982, 229.6329
228.4803, 229.1604
228.9624, 228.6922
229.4445, 228.2350
229.9267, 227.7917
230.4088, 227.3562
230.8909, 226.9463
231.3730, 226.5743
231.8551, 226.1885
232.3372, 225.9873
232.8194, 226.2764
233.3015, 226.7101
233.7836, 226.8721
234.2657, 226.5593
234.7478, 225.9314
235.2299, 225.3049
235.7121, 224.5732
236.1942, 224.0759
236.6763, 224.0578
237.1584, 224.2266
237.6405, 224.2562
238.1227, 223.9897
238.6048, 223.5713
239.0869, 223.4132
239.5690, 223.8438
240.0511, 223.9376
240.5332, 223.2641
241.0154, 222.3374
241.4975, 221.7387
241.9796, 221.7230
242.4617, 221.9681
242.9438, 221.6039
243.4259, 219.8351
243.9081, 218.7297
244.3902, 218.8671
244.8723, 219.5280
245.3544, 220.0613
245.8365, 220.2123
246.3186, 220.1266
246.8008, 220.1608
247.2829, 220.7063
247.7650, 220.7610
248.2471, 219.8690
248.7292, 218.7134
249.2113, 217.8911
249.6935, 217.6116
250.1756, 217.7151
250.6577, 217.9103
251.1398, 218.4781
251.6219, 218.6985
252.1040, 218.3786
252.5862, 217.8304
253.0683, 217.3133
253.5504, 216.9084
254.0325, 216.5418
254.5146, 216.0843
254.9967, 215.3872
255.4789, 214.9004
255.9610, 214.6792
256.4431, 214.6351
256.9252, 214.7406
257.4073, 214.9786
257.8894, 215.2528
258.3716, 215.4362
258.8537, 215.4960
259.3358, 215.5336
259.8179, 215.5576
260.3000, 215.5558
260.7821, 215.5898
261.2643, 215.6535
261.7464, 215.5352
262.2285, 214.9365
262.7106, 213.6931
263.1927, 212.7624
263.6748, 212.1620
264.1570, 211.8779
264.6391, 212.0268
265.1212, 212.5898
265.6033, 213.2157
266.0854, 213.6160
266.5675, 213.7600
267.0497, 213.6927
267.5318, 213.1033
268.0139, 212.5179
268.4960, 212.4799
268.9781, 212.9862
269.4602, 213.4231
269.9424, 213.3124
270.4245, 212.6922
270.9066, 212.1007
271.3887, 211.4214
271.8708, 210.8707
272.3529, 210.6924
272.8351, 210.8588
273.3172, 211.0297
273.7993, 210.9866
274.2814, 210.7975
274.7635, 210.6977
275.2456, 210.6766
275.7278, 210.7634
276.2099, 211.1335
276.6920, 211.7261
277.1741, 212.0299
277.6562, 211.7520
278.1383, 211.0334
278.6205, 210.2181
279.1026, 209.1468
279.5847, 208.3032
280.0668, 208.0831
280.5489, 208.4089
281.0310, 208.8571
281.5132, 209.3816
281.9953, 209.8528
282.4774, 210.1260
282.9595, 210.1978
283.4416, 210.1042
283.9237, 209.8105
284.4059, 209.3530
284.8880, 208.8664
285.3701, 208.3398
285.8522, 207.8591
286.3343, 207.4731
286.8164, 207.1796
287.2986, 207.0379
287.7807, 207.2341
288.2628, 207.6272
288.7449, 207.7324
289.2270, 207.3934
289.7091, 206.9145
290.1913, 206.5118
290.6734, 206.1777
291.1555, 205.8851
291.6376, 205.6434
292.1197, 205.4344
292.6018, 205.2219
293.0840, 205.0258
293.5661, 204.7760
294.0482, 204.2783
294.5303, 203.7043
295.0124, 203.4023
295.4945, 203.7401
295.9767, 204.3085
296.4588, 204.2866
296.9409, 203.4843
297.4230, 202.7450
297.9051, 202.7018
298.3872, 202.9137
298.8694, 202.8325
299.3515, 202.1912
299.8336, 201.3926
300.3157, 200.9772
300.7978, 200.9950
301.2799, 201.0861
301.7621, 201.2567
302.2442, 201.3610
302.7263, 201.2576
303.2084, 200.9114
303.6905, 200.4082
304.1726, 199.7742
304.6548, 199.0023
305.1369, 198.2962
305.6190, 197.5932
306.1011, 197.0818
306.5832, 197.0221
307.0653, 197.4088
307.5475, 197.7465
308.0296, 197.6141
308.5117, 197.0457
308.9938, 196.4024
309.4759, 195.5186
309.9580, 194.8409
310.4402, 194.8191
310.9223, 195.2859
311.4044, 195.6036
311.8865, 195.1615
312.3686, 194.1881
312.8507, 193.7498
313.3329, 194.2130
313.8150, 194.6020
314.2971, 194.2496
314.7792, 193.4757
315.2613, 192.8667
315.7434, 192.7255
316.2256, 192.8859
316.7077, 192.9810
317.1898, 192.9613
317.6719, 193.0180
318.1540, 193.5039
318.6361, 194.0085
319.1183, 194.0175
319.6004, 193.2902
320.0825, 192.2702
320.5646, 191.4935
321.0467, 190.9616
321.5288, 190.6693
322.0110, 190.8512
322.4931, 191.1384
322.9752, 191.2004
323.4573, 190.9803
323.9394, 190.7896
324.4215, 191.0197
324.9037, 191.6566
325.3858, 192.0451
325.8679, 191.9821
326.3500, 191.7050
326.8321, 191.3821
327.3142, 191.0155
327.7964, 190.5797
328.2785, 189.9700
328.7606, 189.2514
329.2427, 188.7299
329.7248, 188.4346
330.2069, 188.3320
330.6891, 188.5060
331.1712, 188.8342
331.6533, 189.0555
332.1354, 189.0238
332.6175, 188.8267
333.0996, 188.6297
333.5818, 188.4286
334.0639, 188.2371
334.5460, 188.0348
335.0281, 187.8553
335.5102, 187.7338
335.9923, 187.6645
336.4745, 187.6885
336.9566, 187.9472
337.4387, 188.4655
337.9208, 188.7593
338.4029, 188.4190
338.8850, 187.9638
339.3671, 187.9947
339.8492, 188.5984
340.3314, 189.1086
340.8135, 188.8912
341.2956, 188.0770
341.7777, 187.4815
342.2598, 187.2315
342.7419, 187.2791
343.2241, 187.7397
343.7062, 188.5072
344.1883, 189.0120
344.6704, 188.7577
345.1525, 188.0889
345.6346, 187.7612
346.1168, 187.8675
346.5989, 188.1385
347.0810, 188.5244
347.5631, 188.9311
348.0452, 189.1770
348.5273, 189.1976
349.0095, 189.0554
349.4916, 188.7266
349.9737, 188.2053
350.4558, 187.8698
350.9379, 188.1269
351.4200, 188.5331
351.9022, 188.2771
352.3843, 187.0095
352.8664, 185.9587
353.3485, 186.2859
353.8306, 187.6009
354.3127, 188.3115
354.7949, 187.8342
355.2770, 186.8405
355.7591, 186.1419
356.2412, 185.7269
356.7233, 185.3578
357.2054, 184.8285
357.6876, 184.3300
358.1697, 184.2651
358.6518, 184.7449
359.1339, 185.2213
359.6160, 185.0856
360.0981, 184.4882
360.5803, 184.2541
361.0624, 184.8171
361.5445, 185.5283
362.0266, 185.8889
362.5087, 185.9125
362.9908, 185.7892
363.4730, 185.6373
363.9551, 185.3914
364.4372, 184.8555
364.9193, 183.7863
365.4014, 182.8567
365.8835, 182.3607
366.3657, 182.1997
366.8478, 182.2300
367.3299, 182.4413
367.8120, 182.6756
368.2941, 182.6516
368.7762, 182.2983
369.2584, 182.0215
369.7405, 181.9824
370.2226, 181.9827
370.7047, 181.8533
371.1868, 181.5658
371.6689, 181.1147
372.1511, 180.4121
372.6332, 179.4470
373.1153, 178.9842
373.5974, 179.3700
374.0795, 179.8596
374.5616, 180.1775
375.0438, 180.3138
375.5259, 180.3116
376.0080, 180.1980
376.4901, 179.9528
376.9722, 179.4921
377.4543, 178.4793
377.9365, 177.6871
378.4186, 177.3504
378.9007, 177.2006
379.3828, 176.9066
379.8649, 176.3881
380.3470, 175.8724
380.8292, 175.6966
381.3113, 176.0298
381.7934, 176.2051
382.2755, 176.2740
382.7576, 176.1672
383.2397, 175.7668
383.7219, 175.1381
384.2040, 174.4752
384.6861, 173.9284
385.1682, 173.4924
385.6503, 173.0926
386.1324, 172.5202
386.6146, 172.2344
387.0967, 172.6309
387.5788, 173.2591
388.0609, 173.5058
388.5430, 173.1111
389.0251, 172.3976
389.5073, 172.0492
389.9894, 172.3913
390.4715, 172.4057
390.9536, 171.5669
391.4357, 170.7888
391.9178, 170.8016
392.4000, 171.5643
392.8821, 172.3848
393.3642, 172.5440
393.8463, 172.0148
394.3284, 171.7279
394.8105, 171.9819
395.2927, 172.1333
395.7748, 171.9097
396.2569, 171.4510
396.7390, 170.9857
397.2211, 170.6163
397.7032, 170.3310
398.1854, 170.1440
398.6675, 170.1322
399.1496, 169.9834
399.6317, 169.3259
400.1138, 168.6712
400.5959, 168.4860
401.0781, 168.8405
401.5602, 169.2791
402.0423, 169.4401
402.5244, 169.3304
403.0065, 168.9594
403.4886, 168.0434
403.9708, 167.2927
404.4529, 167.3495
404.9350, 167.9619
405.4171, 168.4246
405.8992, 168.3520
406.3813, 167.9982
406.8635, 167.7372
407.3456, 167.5720
407.8277, 167.4747
408.3098, 167.5177
408.7919, 167.5751
409.2740, 167.4146
409.7562, 166.9253
410.2383, 166.4751
410.7204, 166.3223
411.2025, 166.3857
411.6846, 166.4067
412.1667, 166.2938
412.6489, 166.2038
413.1310, 166.4591
413.6131, 167.0566
414.0952, 167.2580
414.5773, 166.4533
415.0594, 165.5245
415.5416, 165.4159
416.0237, 166.0837
416.5058, 166.7050
416.9879, 166.7256
417.4700, 166.2584
417.9521, 165.9325
418.4343, 165.7641
418.9164, 165.6875
419.3985, 165.6835
419.8806, 165.7604
420.3627, 165.9890
420.8448, 166.3889
421.3270, 166.7728
421.8091, 166.8488
422.2912, 166.4771
422.7733, 166.1763
423.2554, 165.9864
423.7375, 165.8265
424.2197, 165.5947
424.7018, 165.3417
425.1839, 165.2425
425.6660, 165.4415
426.1481, 165.8845
426.6302, 166.2136
427.1124, 166.6517
427.5945, 166.6569
428.0766, 165.7896
428.5587, 164.6575
429.0408, 163.8271
429.5229, 163.4809
430.0051, 163.4698
430.4872, 163.7015
430.9693, 164.3400
431.4514, 164.5335
431.9335, 163.7712
432.4156, 162.9792
432.8978, 162.4551
433.3799, 162.2005
433.8620, 162.1570
434.3441, 162.3847
434.8262, 162.7226
435.3083, 162.6320
435.7905, 161.9051
436.2726, 161.3274
436.7547, 161.3394
437.2368, 161.5420
437.7189, 161.5835
438.2010, 161.3899
438.6832, 161.1656
439.1653, 161.2215
439.6474, 161.4485
440.1295, 161.1057
440.6116, 159.6872
441.0938, 158.4500
441.5759, 158.8118
442.0580, 160.2836
442.5401, 161.4106
443.0222, 161.7496
443.5043, 161.5890
443.9865, 160.9985
444.4686, 160.0511
444.9507, 159.3852
445.4328, 159.3998
445.9149, 159.7782
446.3970, 159.7540
446.8792, 159.1444
447.3613, 158.7295
447.8434, 158.9213
448.3255, 159.3300
448.8076, 159.4939
449.2897, 159.3333
449.7719, 158.9783
450.2540, 158.5040
450.7361, 157.8947
451.2182, 157.5637
451.7003, 157.6367
452.1824, 157.8035
452.6646, 158.0875
453.1467, 158.3603
453.6288, 158.4105
454.1109, 158.1449
454.5930, 157.6703
455.0751, 157.1665
455.5573, 156.4443
456.0394, 156.0855
456.5215, 156.2937
457.0036, 156.6271
457.4857, 156.8630
457.9678, 156.9844
458.4500, 157.0666
458.9321, 157.1712
459.4142, 157.2828
459.8963, 157.2995
460.3784, 157.1380
460.8605, 157.0308
461.3427, 157.0804
461.8248, 157.1843
462.3069, 157.2840
462.7890, 157.3642
463.2711, 157.3192
463.7532, 156.9227
464.2354, 156.2139
464.7175, 155.8027
465.1996, 155.8871
465.6817, 156.0774
466.1638, 155.9647
466.6459, 155.7267
467.1281, 155.8601
467.6102, 156.9518
468.0923, 158.1004
468.5744, 158.1513
469.0565, 157.2157
469.5386, 156.4220
470.0208, 156.2193
470.5029, 156.3752
470.9850, 156.5141
471.4671, 156.6381
471.9492, 156.7427
472.4313, 156.8899
472.9135, 156.9811
473.3956, 156.8331
473.8777, 156.4668
474.3598, 156.1927
474.8419, 156.2932
475.3240, 156.7042
475.8062, 156.7731
476.2883, 156.1190
476.7704, 155.6431
477.2525, 155.5905
477.7346, 155.7864
478.2167, 156.1155
478.6989, 156.5104
479.1810, 156.7654
479.6631, 156.5327
480.1452, 155.6059
480.6273, 155.2647
481.1094, 156.1310
481.5916, 156.9499
482.0737, 157.2166
482.5558, 157.1707
483.0379, 157.3293
483.5200, 157.9833
484.0021, 158.7426
484.4843, 158.7493
484.9664, 157.7734
485.4485, 157.1076
485.9306, 157.2360
486.4127, 157.5588
486.8948, 157.7564
487.3770, 157.8061
487.8591, 157.7152
488.3412, 157.3461
488.8233, 156.8830
489.3054, 156.6965
489.7875, 156.8063
490.2697, 157.0355
490.7518, 157.3271
491.2339, 157.6722
491.7160, 158.0846
492.1981, 158.6543
492.6802, 159.0224
493.1624, 158.9096
493.6445, 158.5450
494.1266, 158.1800
494.6087, 157.8668
495.0908, 157.8180
495.5729, 158.3026
496.0551, 159.3088
496.5372, 159.9474
497.0193, 159.9556
497.5014, 159.9612
497.9835, 160.1323
498.4656, 160.4256
498.9478, 160.8708
499.4299, 161.4502
499.9120, 161.8798
500.3941, 161.6562
500.8762, 160.4677
501.3583, 159.8653
501.8405, 160.2450
502.3226, 160.8110
502.8047, 161.4693
503.2868, 162.0831
503.7689, 162.4137
504.2510, 162.3121
504.7331, 162.0237
505.2152, 162.0239
505.6974, 162.3708
506.1795, 162.6439
506.6616, 162.6797
507.1437, 162.6912
507.6258, 162.8597
508.1079, 163.1591
508.5901, 163.4203
509.0722, 163.4176
509.5543, 163.4017
510.0364, 163.8828
510.5185, 164.8503
511.0006, 165.5789
511.4828, 165.7285
511.9649, 165.4241
512.4470, 164.8353
512.9291, 163.7683
513.4113, 163.0952
513.8934, 163.3270
514.3755, 163.8903
514.8576, 164.1910
515.3397, 164.1902
515.8218, 164.1717
516.3040, 164.3481
516.7861, 164.6913
517.2682, 164.9936
517.7503, 165.5614
518.2324, 165.6875
518.7145, 164.8294
519.1967, 163.7873
519.6788, 163.3222
520.1609, 163.5477
520.6430, 164.0675
521.1251, 164.5430
521.6072, 164.9729
522.0894, 165.2304
522.5715, 165.3344
523.0536, 165.2200
523.5357, 164.6249
524.0178, 163.9382
524.4999, 163.6913
524.9821, 164.0571
525.4642, 164.4459
525.9463, 164.2000
526.4284, 163.4863
526.9105, 163.0928
527.3926, 163.2122
527.8748, 163.4117
528.3569, 163.4249
528.8390, 163.2460
529.3211, 162.8474
529.8032, 161.9431
530.2853, 161.1423
530.7675, 160.8664
531.2496, 160.9154
531.7317, 160.8977
532.2138, 160.6978
532.6959, 160.4598
533.1780, 160.4008
533.6602, 160.6141
534.1423, 160.3971
534.6244, 159.2319
535.1065, 158.2669
535.5886, 158.1055
536.0707, 158.3760
536.5529, 158.5082
537.0350, 158.2731
537.5171, 157.8053
537.9992, 157.2908
538.4813, 156.7128
538.9634, 156.1791
539.4456, 155.6747
539.9277, 155.2463
540.4098, 154.9844
540.8919, 154.8063
541.3740, 154.5122
541.8561, 153.9266
542.3383, 153.4032
542.8204, 153.5220
543.3025, 154.1979
543.7846, 154.5968
544.2667, 154.4686
544.7488, 154.0956
545.2310, 153.7722
545.7131, 153.4859
546.1952, 153.0739
546.6773, 152.2513
547.1594, 151.5397
547.6415, 151.4231
548.1237, 151.6866
548.6058, 151.7556
549.0879, 151.3945
549.5700, 150.8502
550.0521, 150.5395
550.5342, 150.5928
551.0164, 150.4865
551.4985, 150.1871
551.9806, 149.7922
552.4627, 149.2079
552.9448, 148.5817
553.4269, 148.1929
553.9091, 148.1859
554.3912, 148.3434
554.8733, 148.2688
555.3554, 147.9172
555.8375, 147.6441
556.3196, 147.6178
556.8018, 147.5307
557.2839, 146.9926
557.7660, 146.2302
558.2481, 145.9291
558.7302, 146.7566
559.2123, 147.6397
559.6945, 147.2825
560.1766, 145.9644
560.6587, 144.9682
561.1408, 144.7323
561.6229, 144.7794
562.1050, 144.5397
562.5872, 143.9682
563.0693, 143.3589
563.5514, 142.6245
564.0335, 141.9463
564.5156, 141.3635
564.9977, 140.9168
565.4799, 140.6935
565.9620, 140.7255
566.4441, 140.8982
566.9262, 141.0749
567.4083, 141.3340
567.8904, 141.2717
568.3726, 140.3389
568.8547, 139.6517
569.3368, 139.8598
569.8189, 140.5003
570.3010, 140.7780
570.7831, 140.3647
571.2653, 139.7106
571.7474, 139.3589
572.2295, 139.2635
572.7116, 139.0173
573.1937, 138.5082
573.6758, 137.9581
574.1580, 137.4318
574.6401, 137.0035
575.1222, 136.9763
575.6043, 137.9018
576.0864, 138.6398
576.5685, 138.4441
577.0507, 137.7399
577.5328, 137.2113
578.0149, 137.0320
578.4970, 137.0282
578.9791, 137.0597
579.4612, 137.1420
579.9434, 136.8713
580.4255, 135.6141
580.9076, 134.7519
581.3897, 134.8192
581.8718, 135.2568
582.3539, 135.4565
582.8361, 135.2820
583.3182, 135.0060
583.8003, 134.9009
584.2824, 134.9394
584.7645, 134.9208
585.2466, 134.8315
585.7288, 134.7159
586.2108, 134.5105
586.6929, 134.3326
587.1750, 134.4075
587.6572, 134.8384
588.1393, 135.1329
588.6214, 134.9838
589.1035, 134.6112
589.5856, 134.2314
590.0677, 133.8925
590.5499, 133.7314
591.0320, 133.8612
591.5141, 134.1982
591.9962, 134.4349
592.4783, 134.6959
592.9604, 134.6575
593.4426, 134.0610
593.9247, 133.3814
594.4068, 132.9501
594.8889, 132.7449
595.3710, 132.5468
595.8531, 132.1979
596.3353, 131.8076
596.8174, 131.6404
597.2995, 131.7252
597.7816, 131.8854
598.2637, 132.1518
598.7458, 132.4064
599.2280, 132.5477
599.7101, 132.5893
600.1922, 132.6102
600.6743, 132.6639
601.1564, 132.6805
601.6385, 132.6833
602.1207, 132.6044
602.6028, 132.1361
603.0849, 131.1446
603.5670, 130.1282
604.0491, 129.7381
604.5313, 130.0604
605.0134, 130.4911
605.4955, 131.2444
605.9776, 131.8471
606.4597, 132.2369
606.9418, 132.3544
607.4240, 131.9728
607.9061, 131.0870
608.3882, 130.2516
608.8703, 130.1970
609.3524, 130.8549
609.8345, 131.2971
610.3167, 131.4473
610.7988, 131.5534
611.2809, 131.8853
611.7630, 132.1718
612.2451, 131.9414
612.7272, 131.0077
613.2094, 130.2615
613.6915, 130.2471
614.1736, 130.5650
614.6557, 130.7346
615.1378, 130.7291
615.6199, 130.7309
616.1021, 130.8674
616.5842, 131.0420
617.0663, 130.9635
617.5484, 130.2905
618.0305, 129.9457
618.5126, 130.1001
618.9948, 130.3898
619.4769, 130.6320
619.9590, 130.8389
620.4411, 131.1144
620.9232, 131.5407
621.4053, 131.9464
621.8875, 131.9955
622.3696, 131.6959
622.8517, 131.5729
623.3338, 131.8661
623.8159, 132.0524
624.2980, 131.3842
624.7802, 130.2246
625.2623, 129.8175
625.7444, 130.9554
626.2265, 132.0296
626.7086, 132.2314
627.1907, 131.9515
627.6729, 131.6612
628.1550, 131.4824
628.6371, 131.4564
629.1192, 131.6375
629.6013, 131.9969
630.0834, 132.3090
630.5656, 132.7121
631.0477, 132.8228
631.5298, 132.4512
632.0119, 131.9113
632.4940, 131.2707
632.9761, 130.6396
633.4583, 130.3723
633.9404, 130.9311
634.4225, 131.7628
634.9046, 131.9737
635.3867, 131.5986
635.8688, 131.0148
636.3510, 130.2305
636.8331, 129.5486
637.3152, 129.3859
637.7973, 129.8077
638.2794, 130.0916
638.7615, 130.2852
639.2437, 130.2791
639.7258, 129.8659
640.2079, 129.2917
640.6900, 128.8723
641.1721, 128.6963
641.6542, 128.7031
642.1364, 128.8874
642.6185, 129.2197
643.1006, 129.2507
643.5827, 128.7293
644.0648, 128.4641
644.5469, 129.0908
645.0291, 129.8831
645.5112, 130.1804
645.9933, 129.9366
646.4754, 129.5725
646.9575, 129.0616
647.4396, 128.6774
647.9218, 128.9477
648.4039, 129.6689
648.8860, 129.8978
649.3681, 129.2106
649.8502, 128.2267
650.3323, 127.9351
650.8145, 128.6024
651.2966, 128.7324
651.7787, 127.6427
652.2608, 126.8248
652.7429, 127.0059
653.2250, 127.5889
653.7072, 127.8017
654.1893, 127.4523
654.6714, 126.9324
655.1535, 126.5107
655.6356, 126.2140
656.1177, 126.1643
656.5999, 126.3864
657.0820, 126.6840
657.5641, 127.0032
658.0462, 127.3124
658.5283, 127.5705
659.0104, 127.8015
659.4926, 127.8945
659.9747, 127.7578
660.4568, 127.5500
660.9389, 127.2943
661.4210, 127.0578
661.9031, 126.9882
662.3853, 127.1363
662.8674, 127.3346
663.3495, 127.2854
663.8316, 126.9522
664.3137, 127.0014
664.7958, 127.7643
665.2780, 128.3035
665.7601, 127.8878
666.2422, 127.1749
666.7243, 126.9958
667.2064, 127.5119
667.6885, 127.9005
668.1707, 127.5190
668.6528, 126.9829
669.1349, 127.1346
669.6170, 127.8335
670.0991, 128.3058
670.5812, 128.1863
671.0634, 127.7092
671.5455, 127.2615
672.0276, 126.8511
672.5097, 126.4529
672.9918, 125.7075
673.4739, 125.3847
673.9561, 126.1582
674.4382, 127.3000
674.9203, 127.8434
675.4024, 127.5462
675.8845, 127.0188
676.3666, 126.6406
676.8488, 126.4146
677.3309, 126.4120
677.8130, 126.6289
678.2951, 126.7779
678.7772, 126.7174
679.2593, 126.5231
679.7415, 126.3209
680.2236, 126.0879
680.7057, 125.9235
681.1878, 125.7814
681.6699, 125.7534
682.1520, 126.0556
682.6342, 126.4325
683.1163, 126.5028
683.5984, 126.1562
684.0805, 125.5956
684.5626, 124.8722
685.0447, 124.0835
685.5269, 123.8537
686.0090, 124.3099
686.4911, 124.6502
686.9732, 124.4603
687.4553, 124.0294
687.9374, 123.8197
688.4196, 123.8450
688.9017, 123.8967
689.3838, 124.0136
689.8659, 124.0802
690.3480, 124.0121
690.8301, 123.8501
691.3123, 123.6155
691.7944, 123.3344
692.2765, 123.1561
692.7586, 123.2775
693.2407, 123.6777
693.7228, 124.1342
694.2050, 124.8574
694.6871, 125.0532
695.1692, 123.9405
695.6513, 122.5388
696.1334, 121.9828
696.6155, 122.2795
697.0977, 122.5756
697.5798, 122.6956
698.0619, 122.6545
698.5440, 122.3005
699.0261, 121.8285
699.5082, 121.6620
699.9904, 121.9085
700.4725, 122.2963
700.9546, 122.5526
701.4367, 122.6785
701.9188, 122.6646
702.4009, 122.4134
702.8831, 122.2178
703.3652, 122.2294
703.8473, 122.2639
704.3294, 122.1223
704.8115, 121.8467
705.2936, 121.7352
705.7758, 122.1622
706.2579, 122.5483
706.7400, 122.1741
707.2221, 121.4367
707.7042, 121.3517
708.1863, 122.1183
708.6685, 122.8960
709.1506, 122.9049
709.6327, 122.2461
710.1148, 121.6491
710.5969, 120.9799
711.0790, 120.6321
711.5612, 120.9736
712.0433, 121.3567
712.5254, 121.3189
713.0075, 120.9672
713.4896, 120.7047
713.9717, 120.7026
714.4539, 120.8085
714.9360, 120.9483
715.4181, 121.0825
715.9002, 121.0933
716.3823, 120.9697
716.8644, 120.8550
717.3466, 120.8619
717.8287, 120.9458
718.3108, 120.9346
718.7929, 120.7223
719.2750, 120.6164
719.7571, 120.7521
720.2393, 120.8626
720.7214, 120.8565
721.2035, 120.7190
721.6856, 120.3691
722.1677, 119.7125
722.6498, 119.2156
723.1320, 119.4154
723.6141, 120.0085
724.0962, 120.4171
724.5783, 120.5909
725.0604, 120.5984
725.5425, 120.4661
726.0247, 120.2184
726.5068, 119.8880
726.9889, 119.4031
727.4710, 119.0565
727.9531, 118.6715
728.4352, 118.6244
728.9174, 119.3469
729.3995, 120.3373
729.8816, 120.9631
730.3637, 121.0895
730.8458, 121.0165
731.3279, 120.8190
731.8101, 120.6242
732.2922, 120.7847
732.7743, 121.2061
733.2564, 121.2165
733.7385, 120.5319
734.2206, 119.6159
734.7028, 119.0377
735.1849, 118.8103
735.6670, 118.7222
736.1491, 118.8158
736.6312, 119.0024
737.1133, 119.4733
737.5955, 119.8831
738.0776, 119.8635
738.5597, 119.4600
739.0418, 119.0765
739.5239, 118.9818
740.0060, 118.9259
740.4882, 118.4462
740.9703, 117.7638
741.4524, 117.6871
741.9345, 118.3794
742.4166, 119.0798
742.8987, 119.1308
743.3809, 118.6834
743.8630, 118.5018
744.3451, 118.8043
744.8272, 118.9747
745.3093, 118.9057
745.7914, 118.7764
746.2736, 118.6992
746.7557, 118.6293
747.2378, 118.4660
747.7199, 118.1760
748.2020, 117.7945
748.6841, 117.1443
749.1663, 116.5056
749.6484, 116.4342
750.1305, 116.9069
750.6126, 117.5337
751.0947, 118.1540
751.5768, 118.5785
752.0590, 118.3747
752.5411, 117.2814
753.0232, 116.8203
753.5053, 117.5877
753.9874, 118.1957
754.4695, 118.0987
754.9517, 117.7182
755.4338, 117.4819
755.9159, 117.4398
756.3980, 117.4366
756.8801, 117.4237
757.3622, 117.3950
757.8444, 117.3225
758.3265, 117.2317
758.8086, 117.2126
759.2907, 117.2787
759.7728, 117.2883
760.2549, 117.0854
760.7371, 116.7190
761.2192, 116.4879
761.7013, 116.3764
762.1834, 116.4550
762.6655, 117.0208
763.1476, 117.4825
763.6298, 117.3356
764.1119, 116.7834
764.5940, 116.3969
765.0761, 116.3432
765.5582, 116.3660
766.0403, 116.2597
766.5225, 116.2193
767.0046, 116.6102
767.4867, 117.2996
767.9688, 117.7754
768.4509, 117.7800
768.9330, 117.4200
769.4152, 116.6797
769.8973, 115.5123
770.3794, 115.2081
770.8615, 116.1532
771.3436, 116.9690
771.8257, 116.9335
772.3079, 116.5265
772.7900, 116.5122
773.2721, 116.9399
773.7542, 117.1053
774.2363, 116.5897
774.7184, 116.1287
775.2006, 116.2681
775.6827, 116.5973
776.1648, 116.4212
776.6469, 115.7326
777.1290, 115.2703
777.6111, 115.7160
778.0933, 116.6160
778.5754, 116.8833
779.0575, 116.5448
779.5396, 116.3617
780.0217, 116.5163
780.5038, 116.7025
780.9860, 116.6433
781.4681, 116.4296
781.9502, 116.4683
782.4323, 116.9983
782.9144, 117.3793
783.3965, 117.6787
783.8787, 117.7282
784.3608, 117.1782
784.8429, 116.3876
785.3250, 116.0478
785.8071, 116.3795
786.2892, 116.7229
786.7714, 116.3044
787.2535, 115.6101
787.7356, 115.7059
788.2177, 116.4831
788.6998, 116.9519
789.1819, 116.7396
789.6641, 116.1985
790.1462, 115.6939
790.6283, 115.2275
791.1104, 115.2116
791.5925, 116.1255
792.0746, 116.6779
792.5568, 116.3218
793.0389, 115.8259
793.5210, 115.7823
794.0031, 116.0630
794.4852, 116.1232
794.9673, 115.6112
795.4495, 115.2234
795.9316, 115.6210
796.4137, 116.2621
796.8958, 116.3913
797.3779, 116.0443
797.8600, 115.7030
798.3422, 115.6146
798.8243, 115.6861
799.3064, 115.7852
799.7885, 115.9128
800.2706, 116.0270
800.7527, 116.1124
801.2349, 116.2275
801.7170, 116.3925
802.1991, 116.6008
802.6812, 116.9397
803.1633, 117.4195
803.6454, 117.5205
804.1276, 116.7948
804.6097, 116.1731
805.0918, 116.0645
805.5739, 116.1869
806.0560, 116.3003
806.5381, 116.3460
807.0203, 116.2854
807.5024, 116.0472
807.9845, 115.8438
808.4666, 116.1343
808.9487, 116.7280
809.4308, 116.7907
809.9130, 116.2172
810.3951, 115.6372
810.8772, 115.3994
811.3593, 115.3980
811.8414, 115.4042
812.3235, 115.3484
812.8057, 115.5677
813.2878, 116.5095
813.7699, 117.1641
814.2520, 117.1039
814.7341, 116.7387
815.2162, 116.4047
815.6984, 116.1575
816.1805, 116.0677
816.6626, 116.3472
817.1447, 116.6043
817.6268, 116.6607
818.1089, 116.4569
818.5911, 115.6274
819.0732, 114.3297
819.5553, 113.5632
820.0374, 114.0424
820.5195, 115.0987
821.0016, 115.2617
821.4838, 114.4974
821.9659, 114.0789
822.4480, 114.1339
822.9301, 114.4277
823.4122, 115.0038
823.8943, 115.6104
824.3765, 115.7780
824.8586, 115.4206
825.3407, 115.0743
825.8228, 114.5305
826.3049, 114.2747
826.7870, 114.7891
827.2692, 115.4627
827.7513, 115.6081
828.2334, 115.2355
828.7155, 114.8726
829.1976, 114.8425
829.6797, 114.8663
830.1619, 114.5465
830.6440, 114.0575
831.1261, 113.8192
831.6082, 113.8721
832.0903, 114.0848
832.5724, 114.4074
833.0546, 114.6982
833.5367, 114.6454
834.0188, 114.1829
834.5009, 113.8411
834.9830, 113.6696
835.4651, 113.5190
835.9473, 113.3615
836.4294, 113.1807
836.9115, 112.8959
837.3936, 112.5238
837.8757, 112.3658
838.3578, 112.5046
838.8400, 112.8201
839.3221, 113.5757
839.8042, 114.2649
840.2863, 114.2626
840.7684, 113.7157
841.2505, 113.2357
841.7327, 113.1139
842.2148, 113.1877
842.6969, 113.3518
843.1790, 113.5421
843.6611, 113.5551
844.1432, 113.3895
844.6254, 113.1968
845.1075, 113.0345
845.5896, 112.9060
846.0717, 112.8256
846.5538, 112.7941
847.0359, 112.6719
847.5181, 112.3288
848.0002, 112.1549
848.4823, 112.4395
848.9644, 112.7166
849.4465, 112.6326
849.9286, 112.2835
850.4108, 111.9445
850.8929, 111.5558
851.3750, 111.4177
851.8571, 112.0564
852.3392, 112.6161
852.8214, 112.1979
853.3035, 111.1964
853.7856, 110.4387
854.2677, 110.1999
854.7498, 110.2844
855.2319, 110.5966
855.7141, 111.0545
856.1962, 111.5435
856.6783, 112.0323
857.1604, 112.2393
857.6425, 112.0702
858.1246, 112.0040
858.6068, 112.5172
859.0889, 113.3500
859.5710, 113.4846
860.0531, 112.6119
860.5352, 111.8453
861.0173, 111.1361
861.4995, 110.6582
861.9816, 110.5828
862.4637, 110.7243
862.9458, 110.8756
863.4279, 111.0253
863.9100, 111.1022
864.3922, 111.0533
864.8743, 110.9664
865.3564, 110.9676
865.8385, 110.9069
866.3206, 110.4592
866.8027, 109.7358
867.2849, 109.3012
867.7670, 109.5286
868.2491, 109.9793
868.7312, 110.1446
869.2133, 110.0679
869.6954, 109.7864
870.1776, 109.3346
870.6597, 109.0879
871.1418, 109.2437
871.6239, 109.4312
872.1060, 109.0473
872.5881, 108.1018
873.0703, 107.9212
873.5524, 108.9624
874.0345, 109.5891
874.5166, 109.2058
874.9987, 108.5775
875.4808, 108.3156
875.9630, 108.2989
876.4451, 108.1690
876.9272, 107.8522
877.4093, 107.5350
877.8914, 107.0949
878.3735, 106.8263
878.8557, 107.0018
879.3378, 107.4277
879.8199, 107.9048
880.3020, 108.3410
880.7841, 108.4516
881.2662, 107.7951
881.7484, 106.9470
882.2305, 106.6333
882.7126, 106.6839
883.1947, 106.7277
883.6768, 106.6937
884.1589, 106.5980
884.6411, 106.4366
885.1232, 106.3142
885.6053, 106.5486
886.0874, 107.1617
886.5695, 107.2241
887.0516, 106.5606
887.5338, 105.9906
888.0159, 105.8324
888.4980, 105.8965
888.9801, 106.0064
889.4622, 106.1618
889.9443, 106.1794
890.4265, 105.8238
890.9086, 105.6714
891.3907, 106.0901
891.8728, 106.4202
892.3549, 106.1225
892.8370, 105.4751
893.3192, 105.0345
893.8013, 104.9262
894.2834, 104.9731
894.7655, 105.3475
895.2476, 105.5953
895.7297, 105.0531
896.2119, 104.2289
896.6940, 104.1255
897.1761, 104.8045
897.6582, 105.3770
898.1403, 105.1865
898.6224, 104.6801
899.1046, 104.6407
899.5867, 104.9357
900.0688, 104.9091
900.5509, 104.5107
901.0330, 104.2827
901.5151, 104.5115
901.9973, 104.8601
902.4794, 104.8093
902.9615, 104.3584
903.4436, 104.0960
903.9257, 104.1140
904.4078, 104.0784
904.8900, 103.9053
905.3721, 103.6799
905.8542, 103.4579
906.3363, 103.2359
906.8184, 102.9755
907.3005, 102.5139
907.7827, 102.4201
908.2648, 103.1087
908.7469, 103.7942
909.2290, 104.1880
909.7111, 104.3069
910.1932, 104.1162
910.6754, 103.6698
911.1575, 103.2553
911.6396, 102.9646
912.1217, 102.8275
912.6038, 102.9531
913.0859, 103.1963
913.5681, 103.3782
914.0502, 103.4772
914.5323, 103.5418
915.0144, 103.5905
915.4965, 103.5133
915.9786, 103.0122
916.4607, 102.3059
916.9428, 102.3287
917.4249, 103.0091
917.9070, 103.3228
918.3892, 102.9998
918.8713, 102.4995
919.3534, 102.1491
919.8355, 101.9600
920.3176, 101.9814
920.7997, 102.2526
921.2819, 102.6236
921.7640, 103.2786
922.2461, 103.6650
922.7282, 103.4498
923.2103, 102.9533
923.6924, 102.5036
924.1746, 102.1021
924.6567, 101.8367
925.1388, 101.6345
925.6209, 101.6743
926.1030, 102.3611
926.5851, 102.9407
927.0673, 102.7403
927.5494, 102.1171
928.0315, 101.7913
928.5136, 101.9447
928.9957, 102.0555
929.4778, 101.7091
929.9600, 101.3537
930.4421, 101.2889
930.9242, 101.4902
931.4063, 102.1233
931.8884, 103.0113
932.3705, 103.4259
932.8527, 102.9211
933.3348, 102.0738
933.8169, 101.5321
934.2990, 101.2616
934.7811, 101.2352
935.2632, 101.4179
935.7454, 101.5967
936.2275, 101.7021
936.7096, 101.8196
937.1917, 102.0531
937.6738, 102.3372
938.1559, 102.4213
938.6381, 102.2955
939.1202, 102.0049
939.6023, 101.4731
940.0844, 101.0468
940.5665, 100.9175
941.0486, 100.9720
941.5308, 101.0490
942.0129, 101.1533
942.4950, 101.2214
942.9771, 101.0873
943.4592, 101.1700
943.9413, 101.8556
944.4235, 102.4471
944.9056, 102.3906
945.3877, 101.9495
945.8698, 101.7237
946.3519, 101.8458
946.8340, 101.9204
947.3162, 101.7371
947.7983, 101.6089
948.2804, 101.8179
948.7625, 102.0929
949.2446, 102.0848
949.7267, 101.8227
950.2089, 101.6137
950.6910, 101.6342
951.1731, 101.6019
951.6552, 101.1280
952.1373, 100.5975
952.6194, 100.5257
953.1016, 100.8031
953.5837, 101.1329
954.0658, 101.4064
954.5479, 101.5624
955.0300, 101.5061
955.5121, 101.3921
955.9943, 101.6640
956.4764, 102.1356
956.9585, 101.8894
957.4406, 100.8999
957.9227, 100.2141
958.4048, 100.3221
958.8870, 100.8443
959.3691, 101.3517
959.8512, 101.8052
960.3333, 101.8243
960.8154, 101.3360
961.2975, 100.9485
961.7797, 100.7702
962.2618, 100.7130
962.7439, 100.7539
963.2260, 100.8418
963.7081, 100.8638
964.1902, 100.8018
964.6724, 100.7861
965.1545, 101.0454
965.6366, 100.9623
966.1187, 99.97978
966.6008, 99.00391
967.0829, 98.68399
967.5651, 98.92319
968.0472, 99.50338
968.5293, 100.7799
969.0114, 101.4197
969.4935, 100.6919
969.9756, 99.94377
970.4578, 99.84591
970.9399, 99.98225
971.4220, 99.80208
971.9041, 99.36338
972.3862, 99.23091
972.8683, 99.82010
973.3505, 100.2387
973.8326, 99.92908
974.3147, 99.34193
974.7968, 98.66521
975.2789, 98.09525
975.7610, 97.99283
976.2432, 98.36650
976.7253, 98.73515
977.2074, 98.76538
977.6895, 98.69329
978.1716, 98.78860
978.6537, 98.95288
979.1359, 99.00668
979.6180, 98.96497
980.1001, 98.93405
980.5822, 98.95737
981.0643, 99.05098
981.5464, 99.27725
982.0286, 99.53448
982.5107, 99.58008
982.9928, 99.43787
983.4749, 99.13004
983.9570, 98.68803
984.4391, 98.55392
984.9213, 98.98920
985.4034, 99.54014
985.8855, 99.51398
986.3676, 98.98904
986.8497, 98.65517
987.3318, 98.52868
987.8140, 98.35907
988.2961, 98.04223
988.7782, 98.00160
989.2603, 98.66859
989.7424, 99.50339
990.2245, 99.27145
990.7067, 97.73633
991.1888, 97.13252
991.6709, 97.90990
992.1530, 98.50757
992.6351, 98.48814
993.1172, 98.30042
993.5994, 98.24926
994.0815, 98.30693
994.5636, 98.40488
995.0457, 98.61758
995.5278, 98.65741
996.0099, 98.47043
996.4921, 98.18091
996.9742, 97.54090
997.4563, 97.04311
997.9384, 97.32104
998.4205, 98.10240
998.9026, 98.37653
999.3848, 97.77805
999.8669, 97.30166
1000.349, 97.21794
1000.831, 97.20596
1001.313, 97.11191
1001.795, 97.01073
1002.277, 97.01457
1002.760, 97.10386
1003.242, 97.13887
1003.724, 97.02002
1004.206, 96.98583
1004.688, 97.28904
1005.170, 97.57730
1005.652, 97.50979
1006.134, 97.28241
1006.617, 97.28375
1007.099, 97.49579
1007.581, 97.45461
1008.063, 96.81802
1008.545, 96.14065
1009.027, 95.78299
1009.509, 95.69244
1009.991, 95.91692
1010.473, 96.32324
1010.956, 96.70020
1011.438, 96.96830
1011.920, 97.05419
1012.402, 96.90260
1012.884, 96.56179
1013.366, 95.92844
1013.848, 95.22469
1014.330, 94.90829
1014.813, 94.92134
1015.295, 94.97286
1015.777, 94.96157
1016.259, 94.90816
1016.741, 94.82840
1017.223, 94.72226
1017.705, 94.60487
1018.187, 94.46031
1018.669, 94.12834
1019.152, 93.66364
1019.634, 93.61046
1020.116, 94.16010
1020.598, 94.74019
1021.080, 94.74519
1021.562, 94.37346
1022.044, 94.15838
1022.526, 94.09099
1023.008, 94.11875
1023.491, 94.23699
1023.973, 94.22898
1024.455, 93.98351
1024.937, 93.78561
1025.419, 94.01559
1025.901, 94.52076
1026.383, 94.56786
1026.865, 94.12672
1027.348, 93.63632
1027.830, 93.09563
1028.312, 92.77137
1028.794, 92.79800
1029.276, 93.05904
1029.758, 93.45215
1030.240, 93.93841
1030.722, 94.20944
1031.204, 94.28080
1031.687, 93.98798
1032.169, 93.08801
1032.651, 92.52222
1033.133, 92.88049
1033.615, 93.52066
1034.097, 93.57217
1034.579, 93.08833
1035.061, 92.90517
1035.544, 93.16430
1036.026, 93.35828
1036.508, 93.43814
1036.990, 93.46811
1037.472, 93.50917
1037.954, 93.47900
1038.436, 93.22457
1038.918, 92.75865
1039.401, 92.45369
1039.883, 92.32195
1040.365, 92.33656
1040.847, 92.61544
1041.329, 92.88315
1041.811, 93.08225
1042.293, 93.16389
1042.775, 93.00655
1043.257, 92.61993
1043.740, 92.36775
1044.222, 92.19251
1044.704, 92.24141
1045.186, 92.85257
1045.668, 93.30560
1046.150, 93.15778
1046.632, 92.76429
1047.114, 92.65701
1047.596, 92.79576
1048.079, 92.45232
1048.561, 90.81831
1049.043, 89.83713
1049.525, 90.23002
1050.007, 90.75531
1050.489, 90.82751
1050.971, 90.69926
1051.453, 90.69888
1051.936, 90.82553
1052.418, 90.87977
1052.900, 90.78178
1053.382, 90.69221
1053.864, 90.56818
1054.346, 90.54306
1054.828, 90.77472
1055.310, 91.08462
1055.792, 91.27640
1056.275, 91.34071
1056.757, 91.34540
1057.239, 91.32887
1057.721, 91.20530
1058.203, 90.85513
1058.685, 90.50156
1059.167, 90.23521
1059.649, 90.05655
1060.131, 89.98766
1060.614, 90.00211
1061.096, 89.99400
1061.578, 89.93537
1062.060, 89.85411
1062.542, 89.74079
1063.024, 89.62919
1063.506, 89.53923
1063.988, 89.46074
1064.471, 89.36728
1064.953, 89.27287
1065.435, 89.22974
1065.917, 89.25069
1066.399, 89.32736
1066.881, 89.61186
1067.363, 89.77163
1067.845, 89.47912
1068.328, 89.05923
1068.810, 88.82928
1069.292, 88.80811
1069.774, 88.94338
1070.256, 89.26429
1070.738, 89.48799
1071.220, 89.39777
1071.702, 89.28585
1072.184, 89.43443
1072.667, 89.55907
1073.149, 89.27991
1073.631, 88.72654
1074.113, 88.28626
1074.595, 88.06040
1075.077, 87.95618
1075.559, 88.00175
1076.041, 88.07615
1076.523, 88.04629
1077.006, 88.06683
1077.488, 88.42582
1077.970, 88.92050
1078.452, 89.05814
1078.934, 88.72318
1079.416, 88.39351
1079.898, 88.32710
1080.380, 88.25854
1080.862, 87.92762
1081.345, 87.64207
1081.827, 87.78682
1082.309, 88.14667
1082.791, 88.34996
1083.273, 88.31023
1083.755, 87.98852
1084.237, 86.98369
1084.719, 86.23574
1085.202, 86.40852
1085.684, 86.80717
1086.166, 86.95031
1086.648, 86.89565
1087.130, 86.76038
1087.612, 86.58394
1088.094, 86.45403
1088.576, 86.46725
1089.058, 86.40570
1089.541, 85.93866
1090.023, 85.61338
1090.505, 86.02019
1090.987, 86.67394
1091.469, 86.92010
1091.951, 86.75272
1092.433, 86.61751
1092.915, 86.83211
1093.397, 86.55189
1093.880, 84.56160
1094.362, 83.00165
1094.844, 83.60693
1095.326, 84.96250
1095.808, 85.68205
1096.290, 85.68601
1096.772, 85.21072
1097.254, 84.15836
1097.737, 83.40410
1098.219, 83.21520
1098.701, 83.42484
1099.183, 84.33183
1099.665, 85.27682
1100.147, 85.69829
1100.629, 85.69094
1101.111, 85.49899
1101.594, 85.13725
1102.076, 84.95599
1102.558, 85.35247
1103.040, 85.52275
1103.522, 84.99302
1104.004, 84.36285
1104.486, 84.05977
1104.968, 83.94048
1105.450, 83.70300
1105.932, 83.32797
1106.415, 83.14930
1106.897, 83.30222
1107.379, 83.54806
1107.861, 84.08293
1108.343, 84.42229
1108.825, 84.09957
1109.307, 83.58852
1109.789, 83.52930
1110.272, 83.86517
1110.754, 83.96857
1111.236, 83.59745
1111.718, 83.35218
1112.200, 83.37643
1112.682, 83.41875
1113.164, 83.43378
1113.646, 83.39520
1114.129, 83.15002
1114.611, 82.83605
1115.093, 82.98064
1115.575, 83.91033
1116.057, 84.29092
1116.539, 83.75435
1117.021, 83.22427
1117.503, 82.86726
1117.985, 82.57468
1118.468, 82.18499
1118.950, 81.86917
1119.432, 82.01589
1119.914, 82.68301
1120.396, 83.09887
1120.878, 83.16245
1121.360, 83.19330
1121.842, 83.25998
1122.324, 83.22900
1122.807, 82.96911
1123.289, 82.67352
1123.771, 82.63910
1124.253, 82.80340
1124.735, 82.56363
1125.217, 81.61121
1125.699, 81.42827
1126.181, 82.41149
1126.664, 83.12357
1127.146, 83.01262
1127.628, 82.60925
1128.110, 82.34364
1128.592, 82.22684
1129.074, 82.29617
1129.556, 82.55571
1130.038, 83.05360
1130.521, 83.89837
1131.003, 84.10931
1131.485, 83.37669
1131.967, 82.55126
1132.449, 82.15908
1132.931, 82.06435
1133.413, 82.08160
1133.895, 82.18484
1134.377, 82.09880
1134.859, 81.84277
1135.342, 82.23420
1135.824, 83.36071
1136.306, 83.80006
1136.788, 82.91414
1137.270, 81.75741
1137.752, 81.44492
1138.234, 81.67050
1138.716, 81.72722
1139.199, 81.65457
1139.681, 81.61287
1140.163, 81.61097
1140.645, 81.61480
1141.127, 81.62131
1141.609, 81.69067
1142.091, 81.86501
1142.573, 82.11829
1143.056, 82.64181
1143.538, 83.08987
1144.020, 82.37029
1144.502, 81.08604
1144.984, 81.04660
1145.466, 82.15581
1145.948, 82.70493
1146.430, 81.97820
1146.912, 81.11014
1147.395, 81.07809
1147.877, 81.43908
1148.359, 81.87346
1148.841, 82.25787
1149.323, 82.53941
1149.805, 82.58897
1150.287, 81.94392
1150.769, 80.67375
1151.251, 79.88153
1151.734, 80.31525
1152.216, 80.93415
1152.698, 81.07667
1153.180, 81.09553
1153.662, 81.38537
1154.144, 81.65652
1154.626, 81.37701
1155.108, 80.71462
1155.591, 80.37020
1156.073, 80.57691
1156.555, 80.79817
1157.037, 80.86978
1157.519, 80.88744
1158.001, 80.80733
1158.483, 80.77060
1158.965, 81.03850
1159.448, 81.35078
1159.930, 81.12106
1160.412, 80.32184
1160.894, 80.02407
1161.376, 81.12642
1161.858, 81.49925
1162.340, 80.01745
1162.822, 78.99977
1163.304, 79.72066
1163.786, 80.84673
1164.269, 81.19023
1164.751, 80.91612
1165.233, 80.55212
1165.715, 80.00243
1166.197, 79.81261
1166.679, 80.10462
1167.161, 80.43069
1167.643, 80.74924
1168.126, 80.95145
1168.608, 80.93513
1169.090, 80.86126
1169.572, 81.00404
1170.054, 81.30312
1170.536, 81.22923
1171.018, 80.75416
1171.500, 80.61110
1171.983, 80.87730
1172.465, 80.94959
1172.947, 80.60793
1173.429, 80.28407
1173.911, 80.35146
1174.393, 80.60858
1174.875, 80.71074
1175.357, 80.67109
1175.839, 80.43468
1176.322, 80.10231
1176.804, 80.13715
1177.286, 80.56032
1177.768, 81.04264
1178.250, 81.42664
1178.732, 81.59383
1179.214, 81.34399
1179.696, 80.93533
1180.178, 80.62929
1180.661, 80.44960
1181.143, 80.60013
1181.625, 80.85316
1182.107, 80.61687
1182.589, 79.88814
1183.071, 79.30875
1183.553, 79.17865
1184.035, 79.26939
1184.518, 79.65035
1185.000, 79.95902
1185.482, 79.89918
1185.964, 79.66695
1186.446, 79.31663
1186.928, 79.02219
1187.410, 79.25453
1187.892, 80.11166
1188.375, 80.44318
1188.857, 79.32018
1189.339, 78.63768
1189.821, 79.27605
1190.303, 79.85751
1190.785, 79.51734
1191.267, 78.94335
1191.749, 78.88795
1192.231, 79.23626
1192.714, 79.57589
1193.196, 80.00642
1193.678, 80.01358
1194.160, 79.42344
1194.642, 78.86465
1195.124, 78.40579
1195.606, 78.17577
1196.088, 78.31027
1196.570, 78.54349
1197.053, 78.47058
1197.535, 78.19791
1198.017, 78.33982
1198.499, 78.87911
1198.981, 79.00494
1199.463, 78.68784
1199.945, 78.56104
1200.427, 78.79605
1200.910, 78.97615
1201.392, 78.79733
1201.874, 78.56875
1202.356, 78.80810
1202.838, 79.27339
1203.320, 79.49753
1203.802, 79.51151
1204.284, 79.29223
1204.766, 78.94613
1205.249, 78.78513
1205.731, 78.89117
1206.213, 79.05745
1206.695, 79.17392
1207.177, 79.26740
1207.659, 79.37380
1208.141, 79.44959
1208.623, 79.58659
1209.105, 79.57644
1209.588, 78.96420
1210.070, 78.00050
1210.552, 77.44469
1211.034, 77.46755
1211.516, 77.77289
1211.998, 78.60658
1212.480, 79.25333
1212.962, 79.47249
1213.445, 79.54420
1213.927, 79.71290
1214.409, 79.72112
1214.891, 79.10645
1215.373, 78.10035
1215.855, 77.79961
1216.337, 78.46399
1216.819, 78.66750
1217.302, 78.27651
1217.784, 77.89053
1218.266, 77.56254
1218.748, 77.64246
1219.230, 78.40269
1219.712, 79.28112
1220.194, 79.53845
1220.676, 79.36197
1221.158, 79.44034
1221.641, 79.65125
1222.123, 79.19080
1222.605, 78.18777
1223.087, 77.49419
1223.569, 77.31288
1224.051, 77.48816
1224.533, 77.95245
1225.015, 78.34996
1225.497, 78.30143
1225.980, 78.01267
1226.462, 77.49261
1226.944, 77.05700
1227.426, 77.24447
1227.908, 77.79495
1228.390, 78.14707
1228.872, 78.21524
1229.354, 78.24378
1229.837, 78.35263
1230.319, 78.32235
1230.801, 77.94607
1231.283, 77.58756
1231.765, 77.30322
1232.247, 77.19379
1232.729, 77.55872
1233.211, 78.03893
1233.693, 77.91630
1234.176, 77.22211
1234.658, 76.88175
1235.140, 76.99837
1235.622, 77.18016
1236.104, 77.47162
1236.586, 77.57390
1237.068, 77.33797
1237.550, 77.20517
1238.032, 77.52693
1238.515, 77.99330
1238.997, 78.07825
1239.479, 77.87155
1239.961, 77.70116
1240.443, 77.57352
1240.925, 77.57311
1241.407, 77.65483
1241.889, 77.55132
1242.372, 77.22179
1242.854, 76.96153
1243.336, 76.95700
1243.818, 77.05206
1244.300, 77.14790
1244.782, 77.22385
1245.264, 77.15323
1245.746, 77.13784
1246.229, 77.64988
1246.711, 78.31469
1247.193, 78.24723
1247.675, 77.39384
1248.157, 76.78431
1248.639, 76.69273
1249.121, 76.81480
1249.603, 77.33562
1250.085, 77.73843
1250.568, 77.89044
1251.050, 77.83023
1251.532, 77.47862
1252.014, 77.03046
1252.496, 76.80415
1252.978, 76.78783
1253.460, 76.89439
1253.942, 77.15324
1254.424, 77.14696
1254.907, 76.83558
1255.389, 76.75723
1255.871, 77.05517
1256.353, 77.30438
1256.835, 77.22315
1257.317, 77.10250
1257.799, 77.38187
1258.281, 77.80552
1258.764, 77.99744
1259.246, 77.94647
1259.728, 77.46186
1260.210, 76.77737
1260.692, 76.41806
1261.174, 76.44030
1261.656, 76.55618
1262.138, 76.69009
1262.620, 76.70968
1263.103, 76.44837
1263.585, 76.20081
1264.067, 76.11871
1264.549, 76.07408
1265.031, 75.96276
1265.513, 75.83872
1265.995, 75.73822
1266.477, 75.69176
1266.959, 75.89775
1267.442, 76.50632
1267.924, 76.70085
1268.406, 76.35408
1268.888, 76.23514
1269.370, 76.54262
1269.852, 76.58829
1270.334, 75.98822
1270.816, 75.45735
1271.299, 75.83209
1271.781, 76.58109
1272.263, 76.53089
1272.745, 76.05193
1273.227, 76.06253
1273.709, 76.41281
1274.191, 76.66358
1274.673, 76.77587
1275.156, 76.92956
1275.638, 77.17596
##END=



