##NAMES=Safflorite
##RRUFFID=R100115
##IDEAL CHEMISTRY=(Co^2+^,Fe^2+^,Ni^2+^)As_2_
##LOCALITY=Hudson Bay (Rustex) mine, Gowganda area, Ontario, Canada
##OWNER=RRUFF
##SOURCE=Robert Woodside
##DESCRIPTION=Steel gray elongated tablets arranged as sixling twins
##STATUS=The identification of this mineral has been confirmed only by single crystal X-ray diffraction.
##URL=rruff.info/R100115
145.7269, 47.01156
146.2090, 46.69133
146.6911, 46.69252
147.1732, 46.76197
147.6553, 46.87649
148.1375, 46.95679
148.6196, 46.89304
149.1017, 46.71004
149.5838, 46.47860
150.0659, 46.24030
150.5480, 45.97412
151.0302, 45.59920
151.5123, 44.99294
151.9944, 44.42802
152.4765, 44.15730
152.9586, 44.14792
153.4408, 44.14057
153.9229, 43.86719
154.4050, 43.31741
154.8871, 42.99727
155.3692, 43.32503
155.8513, 43.64021
156.3335, 43.50856
156.8156, 42.93618
157.2977, 42.33400
157.7798, 42.25631
158.2619, 42.95966
158.7440, 43.44121
159.2262, 43.69481
159.7083, 43.71568
160.1904, 43.41074
160.6725, 42.78788
161.1546, 42.01790
161.6367, 41.41005
162.1189, 41.12369
162.6010, 40.76215
163.0831, 40.06067
163.5652, 39.41064
164.0473, 39.26428
164.5294, 39.78191
165.0115, 40.65479
165.4937, 41.13689
165.9758, 41.07092
166.4579, 40.83290
166.9400, 40.31722
167.4221, 39.67509
167.9042, 39.17421
168.3864, 38.96532
168.8685, 38.88599
169.3506, 38.40092
169.8327, 37.02566
170.3148, 36.15155
170.7969, 36.79730
171.2791, 38.51665
171.7612, 39.73112
172.2433, 39.53086
172.7254, 38.53074
173.2075, 38.11110
173.6896, 38.50765
174.1718, 39.03133
174.6539, 39.31577
175.1360, 39.36265
175.6181, 38.89140
176.1002, 37.13969
176.5823, 35.10793
177.0645, 33.90518
177.5466, 33.83562
178.0287, 34.37421
178.5108, 34.93518
178.9929, 35.54745
179.4750, 36.07751
179.9572, 36.61175
180.4393, 36.99268
180.9214, 36.99454
181.4035, 36.49133
181.8856, 35.74432
182.3677, 35.33591
182.8499, 35.50389
183.3320, 35.58498
183.8141, 35.29691
184.2962, 34.92106
184.7783, 34.77623
185.2604, 35.02744
185.7425, 35.54276
186.2247, 35.85411
186.7068, 35.84807
187.1889, 35.74752
187.6710, 35.59171
188.1531, 35.36086
188.6352, 35.00417
189.1174, 34.48830
189.5995, 33.85194
190.0816, 33.31675
190.5637, 32.78081
191.0458, 32.45939
191.5279, 32.43133
192.0101, 32.64606
192.4922, 33.09696
192.9743, 33.84307
193.4564, 34.77484
193.9385, 34.99508
194.4206, 33.86483
194.9028, 32.88358
195.3849, 32.73345
195.8670, 33.17823
196.3491, 33.47046
196.8312, 33.07566
197.3133, 32.19577
197.7955, 31.87086
198.2776, 32.58871
198.7597, 33.35219
199.2418, 33.59417
199.7239, 33.37167
200.2060, 33.06454
200.6882, 32.83661
201.1703, 32.70775
201.6524, 32.70287
202.1345, 32.99194
202.6166, 33.23528
203.0987, 33.00447
203.5809, 32.27961
204.0630, 31.79074
204.5451, 32.32245
205.0272, 33.19997
205.5093, 33.38195
205.9914, 32.33330
206.4735, 30.97768
206.9557, 30.56326
207.4378, 31.30633
207.9199, 31.98494
208.4020, 31.82638
208.8841, 31.39753
209.3662, 31.29344
209.8484, 31.81326
210.3305, 32.51254
210.8126, 32.52043
211.2947, 31.46872
211.7768, 30.68009
212.2589, 30.67811
212.7411, 31.06337
213.2232, 31.55458
213.7053, 32.08024
214.1874, 32.48541
214.6695, 32.32084
215.1516, 31.01874
215.6338, 30.19065
216.1159, 30.50492
216.5980, 31.20714
217.0801, 31.45794
217.5622, 30.86521
218.0443, 29.85973
218.5265, 29.69898
219.0086, 31.28832
219.4907, 32.44419
219.9728, 32.97492
220.4549, 32.96614
220.9370, 32.33009
221.4192, 31.02530
221.9013, 29.43141
222.3834, 28.67843
222.8655, 29.65494
223.3476, 30.48635
223.8297, 31.22062
224.3119, 31.70256
224.7940, 31.62034
225.2761, 30.82916
225.7582, 29.68356
226.2403, 29.21991
226.7224, 30.29285
227.2045, 31.04997
227.6867, 31.12899
228.1688, 30.88437
228.6509, 30.78327
229.1330, 31.02863
229.6151, 31.46143
230.0972, 31.66955
230.5794, 31.65121
231.0615, 31.43719
231.5436, 30.71910
232.0257, 29.87496
232.5078, 29.55923
232.9899, 30.08261
233.4721, 30.99655
233.9542, 31.28537
234.4363, 30.75610
234.9184, 30.24758
235.4005, 29.92748
235.8826, 29.76903
236.3648, 29.74276
236.8469, 29.85947
237.3290, 30.05514
237.8111, 30.25856
238.2932, 30.50582
238.7753, 30.61247
239.2575, 30.40010
239.7396, 30.00934
240.2217, 29.73678
240.7038, 29.66223
241.1859, 29.72803
241.6680, 29.94840
242.1502, 30.33632
242.6323, 30.51616
243.1144, 30.17249
243.5965, 29.49875
244.0786, 28.98409
244.5607, 28.72973
245.0428, 28.65065
245.5250, 28.67154
246.0071, 28.78310
246.4892, 28.95243
246.9713, 29.28244
247.4534, 29.66898
247.9355, 29.76860
248.4177, 29.42646
248.8998, 28.96869
249.3819, 28.58010
249.8640, 28.27372
250.3461, 28.11889
250.8282, 28.24999
251.3104, 28.57952
251.7925, 28.81039
252.2746, 29.00360
252.7567, 28.94973
253.2388, 28.29412
253.7209, 27.32137
254.2031, 26.68514
254.6852, 26.98500
255.1673, 27.92368
255.6494, 28.31051
256.1315, 27.84275
256.6136, 27.27675
257.0958, 26.88918
257.5779, 26.65726
258.0600, 26.55805
258.5421, 26.62725
259.0242, 26.79942
259.5063, 26.84010
259.9885, 26.69572
260.4706, 26.49592
260.9527, 26.12547
261.4348, 25.77500
261.9169, 25.75899
262.3990, 26.31247
262.8812, 27.14984
263.3633, 27.39215
263.8454, 26.58787
264.3275, 25.94327
264.8096, 25.72889
265.2917, 25.79716
265.7739, 26.05423
266.2560, 26.47379
266.7381, 26.93077
267.2202, 27.11647
267.7023, 26.90314
268.1844, 26.62372
268.6666, 26.31948
269.1487, 25.98981
269.6308, 25.56819
270.1129, 25.04147
270.5950, 24.57803
271.0771, 24.52442
271.5593, 25.09741
272.0414, 25.67823
272.5235, 26.42024
273.0056, 27.02982
273.4877, 27.19710
273.9698, 26.88389
274.4520, 26.38630
274.9341, 26.16894
275.4162, 26.43675
275.8983, 26.55172
276.3804, 26.42222
276.8625, 26.24225
277.3446, 26.14057
277.8268, 26.12967
278.3089, 26.12813
278.7910, 26.02303
279.2731, 25.74541
279.7552, 25.60975
280.2373, 25.72700
280.7195, 25.86321
281.2016, 26.00933
281.6837, 26.09110
282.1658, 25.88987
282.6479, 25.10204
283.1300, 23.52891
283.6122, 22.83077
284.0943, 23.59540
284.5764, 24.52006
285.0585, 25.21886
285.5406, 25.64514
286.0227, 25.86395
286.5049, 25.93218
286.9870, 25.84772
287.4691, 25.43322
287.9512, 24.15797
288.4333, 23.14725
288.9154, 22.90756
289.3976, 23.16256
289.8797, 23.34451
290.3618, 23.09326
290.8439, 22.52875
291.3260, 22.32638
291.8081, 22.88488
292.2903, 23.33764
292.7724, 23.52151
293.2545, 23.52131
293.7366, 23.41529
294.2187, 23.23155
294.7008, 23.05781
295.1830, 23.13288
295.6651, 23.86135
296.1472, 24.34843
296.6293, 24.34649
297.1114, 24.18132
297.5935, 24.30865
298.0757, 24.85715
298.5578, 25.41599
299.0399, 25.26527
299.5220, 23.77468
300.0041, 22.72846
300.4862, 22.23110
300.9684, 22.10543
301.4505, 22.35683
301.9326, 22.92776
302.4147, 23.49100
302.8968, 23.64033
303.3789, 23.21445
303.8611, 22.97788
304.3432, 22.84396
304.8253, 22.94302
305.3074, 23.69628
305.7895, 24.90718
306.2716, 25.62980
306.7538, 24.89472
307.2359, 22.56674
307.7180, 21.55875
308.2001, 23.10385
308.6822, 24.49767
309.1643, 24.32607
309.6465, 23.00492
310.1286, 21.76759
310.6107, 21.40761
311.0928, 21.79840
311.5749, 22.08530
312.0570, 22.34528
312.5392, 22.43608
313.0213, 22.14301
313.5034, 21.68992
313.9855, 21.43272
314.4676, 21.53711
314.9497, 21.90824
315.4319, 22.31756
315.9140, 22.91274
316.3961, 23.33207
316.8782, 23.54670
317.3603, 23.57169
317.8424, 23.38061
318.3245, 22.97147
318.8066, 22.44995
319.2888, 21.94913
319.7709, 21.37841
320.2530, 21.10791
320.7351, 21.30987
321.2172, 21.68132
321.6993, 22.07647
322.1815, 22.43764
322.6636, 22.64779
323.1457, 22.54011
323.6278, 22.02454
324.1099, 21.90029
324.5920, 22.70197
325.0742, 23.34009
325.5563, 23.05527
326.0384, 22.09072
326.5205, 21.28364
327.0026, 21.24814
327.4847, 21.90033
327.9669, 22.28585
328.4490, 22.19503
328.9311, 22.11766
329.4132, 22.23179
329.8953, 22.43140
330.3774, 22.54074
330.8596, 22.47651
331.3417, 22.27537
331.8238, 22.03263
332.3059, 21.58682
332.7880, 21.30597
333.2701, 21.29706
333.7523, 21.41162
334.2344, 21.56308
334.7165, 21.70948
335.1986, 21.74815
335.6807, 21.50034
336.1628, 20.74111
336.6450, 20.28318
337.1271, 20.11526
337.6092, 20.21316
338.0913, 20.75832
338.5734, 21.63401
339.0555, 22.36389
339.5377, 22.46999
340.0198, 21.88269
340.5019, 21.54617
340.9840, 21.90920
341.4661, 22.02823
341.9482, 21.22900
342.4304, 19.94039
342.9125, 19.09504
343.3946, 19.30477
343.8767, 20.32143
344.3588, 20.93644
344.8409, 20.73001
345.3231, 20.56982
345.8052, 20.71338
346.2873, 20.86683
346.7694, 20.56308
347.2515, 19.66116
347.7336, 18.61288
348.2158, 18.32992
348.6979, 19.44073
349.1800, 20.20108
349.6621, 20.45716
350.1442, 20.52938
350.6263, 20.63220
351.1085, 20.78594
351.5906, 20.86352
352.0727, 20.69198
352.5548, 20.20190
353.0369, 19.93116
353.5190, 20.20007
354.0012, 20.36911
354.4833, 20.07145
354.9654, 19.49923
355.4475, 19.09757
355.9296, 19.20173
356.4117, 19.69206
356.8939, 19.86831
357.3760, 19.33882
357.8581, 19.02575
358.3402, 19.32122
358.8223, 19.80804
359.3044, 19.97064
359.7865, 19.61398
360.2686, 19.06502
360.7508, 18.95917
361.2329, 19.55141
361.7150, 19.91983
362.1971, 19.87067
362.6792, 19.66314
363.1613, 19.36086
363.6435, 19.01666
364.1256, 18.77704
364.6077, 18.85256
365.0898, 19.27203
365.5719, 19.51910
366.0540, 19.48743
366.5362, 19.38444
367.0183, 19.22465
367.5004, 19.06132
367.9825, 18.98666
368.4646, 19.05480
368.9467, 19.24798
369.4289, 19.56167
369.9110, 20.13325
370.3931, 20.50959
370.8752, 20.38993
371.3573, 20.08848
371.8394, 19.92688
372.3216, 20.01298
372.8037, 20.13581
373.2858, 19.98829
373.7679, 19.54306
374.2500, 19.23186
374.7321, 19.24417
375.2143, 19.33624
375.6964, 19.37244
376.1785, 19.33781
376.6606, 19.18906
377.1427, 18.72989
377.6248, 18.10913
378.1070, 17.95596
378.5891, 18.53768
379.0712, 19.07563
379.5533, 18.86251
380.0354, 18.24782
380.5175, 17.90788
380.9997, 18.22416
381.4818, 18.74901
381.9639, 18.91489
382.4460, 18.71512
382.9281, 18.51763
383.4102, 18.52641
383.8924, 18.59548
384.3745, 18.47109
384.8566, 18.08499
385.3387, 17.73406
385.8208, 17.59212
386.3029, 17.61709
386.7851, 17.72092
387.2672, 17.91127
387.7493, 18.09690
388.2314, 18.13598
388.7135, 18.04439
389.1956, 18.01772
389.6778, 18.24264
390.1599, 18.45878
390.6420, 18.30951
391.1241, 17.80609
391.6062, 17.42201
392.0883, 17.56615
392.5705, 18.08719
393.0526, 18.16644
393.5347, 17.22793
394.0168, 16.51543
394.4989, 16.67458
394.9810, 17.38578
395.4632, 18.10547
395.9453, 18.66570
396.4274, 18.96916
396.9095, 18.78047
397.3916, 17.69951
397.8737, 17.09936
398.3559, 17.47992
398.8380, 18.06266
399.3201, 18.15919
399.8022, 17.73936
400.2843, 17.25294
400.7664, 17.11636
401.2485, 17.34577
401.7307, 17.34942
402.2128, 16.91527
402.6949, 16.52424
403.1770, 16.17385
403.6591, 15.99391
404.1412, 16.29216
404.6234, 17.22590
405.1055, 18.41911
405.5876, 18.93147
406.0697, 18.26169
406.5518, 17.72083
407.0339, 17.35471
407.5161, 17.11488
407.9982, 16.94540
408.4803, 16.85254
408.9624, 16.91148
409.4445, 17.25618
409.9266, 17.91829
410.4088, 18.32669
410.8909, 18.26459
411.3730, 18.16614
411.8551, 18.21507
412.3372, 18.30113
412.8193, 18.22441
413.3015, 17.86985
413.7836, 17.35605
414.2657, 16.94207
414.7478, 16.66642
415.2299, 16.36731
415.7120, 15.62152
416.1942, 15.10272
416.6763, 15.55317
417.1584, 16.97888
417.6405, 18.27310
418.1226, 18.31114
418.6047, 17.29969
419.0869, 16.70734
419.5690, 16.84742
420.0511, 17.02755
420.5332, 16.68821
421.0153, 16.07005
421.4974, 15.67948
421.9796, 15.82464
422.4617, 16.12584
422.9438, 16.05978
423.4259, 15.63320
423.9080, 15.37297
424.3901, 15.53008
424.8723, 15.93696
425.3544, 16.34928
425.8365, 16.79516
426.3186, 17.10723
426.8007, 17.30721
427.2828, 17.30058
427.7650, 16.76943
428.2471, 15.61275
428.7292, 14.53368
429.2113, 14.20799
429.6934, 14.66140
430.1755, 15.04868
430.6577, 15.48135
431.1398, 15.74009
431.6219, 15.49192
432.1040, 14.96027
432.5861, 14.76005
433.0682, 15.21567
433.5504, 16.03261
434.0325, 16.51639
434.5146, 16.46938
434.9967, 16.39407
435.4788, 16.21561
435.9609, 16.07471
436.4431, 16.15863
436.9252, 16.44267
437.4073, 16.66567
437.8894, 16.54173
438.3715, 16.05208
438.8536, 15.95305
439.3358, 16.63584
439.8179, 17.28112
440.3000, 17.91507
440.7821, 18.33383
441.2642, 18.16609
441.7463, 17.26065
442.2284, 16.06463
442.7105, 15.38972
443.1927, 15.33664
443.6748, 15.49560
444.1569, 16.22324
444.6390, 16.82690
445.1211, 16.76740
445.6032, 16.19973
446.0854, 15.78030
446.5675, 16.09965
447.0496, 16.92360
447.5317, 17.35607
448.0138, 17.33867
448.4959, 17.06971
448.9781, 16.38899
449.4602, 15.60832
449.9423, 15.03530
450.4244, 14.72096
450.9065, 14.67348
451.3886, 15.12176
451.8708, 15.91881
452.3529, 16.24104
452.8350, 15.75286
453.3171, 15.11141
453.7992, 15.04671
454.2813, 15.43205
454.7635, 15.72216
455.2456, 15.75765
455.7277, 15.67005
456.2098, 15.49776
456.6919, 15.27766
457.1740, 15.21566
457.6562, 15.46343
458.1383, 15.87952
458.6204, 16.06033
459.1025, 15.86229
459.5846, 15.77110
460.0667, 15.85266
460.5489, 16.09199
461.0310, 16.62153
461.5131, 17.38930
461.9952, 17.96627
462.4773, 17.90638
462.9594, 17.18247
463.4416, 16.67834
463.9237, 16.33589
464.4058, 16.26032
464.8879, 16.86353
465.3700, 17.62236
465.8521, 17.66936
466.3343, 16.69592
466.8164, 15.45125
467.2985, 15.42641
467.7806, 17.44650
468.2627, 18.09893
468.7448, 15.46888
469.2270, 13.06777
469.7091, 12.74767
470.1912, 14.02493
470.6733, 15.31804
471.1554, 15.66144
471.6375, 15.37005
472.1197, 15.21522
472.6018, 15.20775
473.0839, 15.30068
473.5660, 15.66797
474.0481, 16.01090
474.5302, 15.96559
475.0124, 15.47550
475.4945, 15.08205
475.9766, 15.34846
476.4587, 15.95238
476.9408, 16.01003
477.4229, 15.33242
477.9051, 14.59187
478.3872, 14.18148
478.8693, 14.13561
479.3514, 14.49906
479.8335, 15.89783
480.3156, 17.01276
480.7978, 16.93011
481.2799, 16.09433
481.7620, 15.38936
482.2441, 15.09358
482.7262, 15.10962
483.2083, 15.36052
483.6904, 16.00301
484.1725, 16.26464
484.6547, 15.87667
485.1368, 15.38565
485.6189, 14.93114
486.1010, 14.61516
486.5831, 14.62428
487.0652, 15.07738
487.5474, 15.82968
488.0295, 16.50146
488.5116, 17.34824
488.9937, 17.60409
489.4758, 16.68879
489.9579, 15.67589
490.4401, 15.36132
490.9222, 15.69789
491.4043, 16.06425
491.8864, 15.93876
492.3685, 15.43249
492.8506, 15.09586
493.3328, 15.00929
493.8149, 14.90068
494.2970, 14.55659
494.7791, 14.18516
495.2612, 14.01121
495.7433, 14.08640
496.2255, 14.25622
496.7076, 14.44779
497.1897, 14.64303
497.6718, 14.76280
498.1539, 14.77089
498.6360, 14.81203
499.1182, 15.07112
499.6003, 15.48276
500.0824, 15.69860
500.5645, 15.53048
501.0466, 15.33538
501.5287, 15.26765
502.0109, 15.30951
502.4930, 15.48607
502.9751, 15.81558
503.4572, 16.07361
503.9393, 15.90187
504.4214, 15.08528
504.9036, 14.61669
505.3857, 14.77480
505.8678, 14.96599
506.3499, 14.92398
506.8320, 14.69514
507.3141, 14.35450
507.7963, 13.92460
508.2784, 13.58263
508.7605, 13.84067
509.2426, 15.09889
509.7247, 15.88176
510.2068, 15.68386
510.6890, 15.28539
511.1711, 14.92053
511.6532, 14.69957
512.1353, 14.86318
512.6174, 15.86136
513.0995, 17.15471
513.5817, 17.37722
514.0638, 16.36040
514.5459, 15.32480
515.0280, 14.59047
515.5101, 14.18740
515.9922, 14.16764
516.4744, 14.56806
516.9565, 15.01993
517.4386, 15.51156
517.9207, 15.89504
518.4028, 15.85453
518.8849, 15.39157
519.3671, 15.01429
519.8492, 15.11757
520.3313, 15.55965
520.8134, 15.62107
521.2955, 14.98503
521.7776, 14.45494
522.2598, 14.12782
522.7419, 13.98756
523.2240, 14.07820
523.7061, 14.37309
524.1882, 14.72797
524.6703, 15.00815
525.1525, 15.21451
525.6346, 15.41843
526.1167, 15.83676
526.5988, 15.94435
527.0809, 15.28976
527.5630, 14.46964
528.0452, 14.15304
528.5273, 14.49431
529.0094, 15.03998
529.4915, 15.40718
529.9736, 15.59086
530.4557, 15.50049
530.9379, 15.01105
531.4200, 14.49614
531.9021, 14.13628
532.3842, 13.91655
532.8663, 13.84576
533.3484, 13.99092
533.8306, 14.15394
534.3127, 14.13139
534.7948, 14.03201
535.2769, 14.15710
535.7590, 14.59223
536.2411, 15.07326
536.7233, 15.35878
537.2054, 15.43901
537.6875, 15.34197
538.1696, 14.68613
538.6517, 14.29324
539.1339, 14.70782
539.6160, 15.49547
540.0981, 15.97693
540.5802, 15.94155
541.0623, 15.73204
541.5444, 15.84756
542.0266, 16.38098
542.5087, 16.71288
542.9908, 16.64598
543.4728, 16.58126
543.9550, 16.65673
544.4371, 16.81071
544.9192, 16.98654
545.4013, 17.18744
545.8834, 17.24126
546.3655, 16.82805
546.8477, 15.98647
547.3298, 15.29308
547.8119, 14.78863
548.2940, 14.53502
548.7761, 14.75210
549.2582, 15.28110
549.7404, 15.68979
550.2225, 15.94433
550.7046, 16.00718
551.1867, 15.69576
551.6688, 15.18701
552.1509, 14.92034
552.6331, 15.03550
553.1152, 15.27415
553.5973, 15.31330
554.0794, 15.10837
554.5615, 14.97084
555.0436, 14.98995
555.5258, 14.96814
556.0079, 14.76022
556.4900, 14.48951
556.9721, 14.35561
557.4542, 14.42719
557.9363, 14.58481
558.4185, 14.69096
558.9006, 14.75734
559.3827, 14.65305
559.8648, 14.16724
560.3469, 13.78698
560.8290, 13.83139
561.3112, 14.09802
561.7933, 14.22849
562.2754, 14.07241
562.7575, 13.87789
563.2396, 13.88048
563.7217, 14.03652
564.2039, 14.18523
564.6860, 14.29113
565.1681, 14.40838
565.6502, 14.59955
566.1323, 14.85904
566.6144, 15.06636
567.0966, 15.28353
567.5787, 15.37945
568.0608, 15.35004
568.5429, 15.15176
569.0250, 14.57027
569.5071, 13.61620
569.9893, 12.79199
570.4714, 12.74515
570.9535, 13.53418
571.4356, 14.04935
571.9177, 14.30960
572.3998, 14.24185
572.8820, 13.43351
573.3641, 12.49814
573.8462, 12.13657
574.3283, 12.51680
574.8104, 13.23674
575.2925, 14.21666
575.7747, 15.27218
576.2568, 15.39254
576.7389, 14.24312
577.2210, 13.24177
577.7031, 13.36390
578.1852, 14.21560
578.6674, 14.81699
579.1495, 15.12554
579.6316, 15.23664
580.1137, 15.02528
580.5958, 14.72026
581.0779, 14.64568
581.5601, 14.81111
582.0422, 14.97580
582.5243, 14.98158
583.0064, 14.80850
583.4885, 14.31474
583.9706, 12.73575
584.4528, 11.97328
584.9349, 12.90897
585.4170, 14.10642
585.8991, 14.39427
586.3812, 13.81120
586.8633, 13.20596
587.3455, 13.19694
587.8276, 13.58809
588.3097, 13.81542
588.7918, 13.82365
589.2739, 14.05487
589.7560, 14.96400
590.2382, 15.85377
590.7203, 15.77996
591.2024, 14.76262
591.6845, 13.96447
592.1666, 13.83478
592.6487, 14.00021
593.1309, 14.24653
593.6130, 14.51101
594.0951, 14.61242
594.5772, 14.45350
595.0593, 14.22426
595.5414, 14.27692
596.0236, 14.77297
596.5057, 15.07226
596.9878, 14.98306
597.4699, 14.92668
597.9520, 15.21414
598.4341, 15.62137
598.9163, 15.71443
599.3984, 15.30455
599.8805, 14.75862
600.3626, 14.61547
600.8447, 14.86007
601.3268, 14.91719
601.8090, 14.61298
602.2911, 14.35330
602.7732, 14.59497
603.2553, 15.05653
603.7374, 15.11301
604.2195, 14.40202
604.7017, 13.81674
605.1838, 13.99596
605.6659, 14.51886
606.1480, 14.69265
606.6301, 14.42998
607.1122, 14.16221
607.5944, 14.26960
608.0765, 14.67923
608.5586, 14.83339
609.0407, 14.46378
609.5228, 14.19941
610.0049, 14.07702
610.4871, 14.08692
610.9692, 14.29143
611.4513, 14.63926
611.9334, 14.94366
612.4155, 15.07596
612.8976, 15.07690
613.3798, 15.01153
613.8619, 14.86736
614.3440, 14.79377
614.8261, 14.87175
615.3082, 14.99487
615.7903, 15.03096
616.2725, 14.98719
616.7546, 14.96587
617.2367, 15.15334
617.7188, 15.21411
618.2009, 14.80332
618.6830, 14.10668
619.1652, 13.48589
619.6473, 13.07266
620.1294, 12.91059
620.6115, 13.12222
621.0936, 13.80634
621.5757, 14.11091
622.0579, 13.62675
622.5400, 13.23704
623.0221, 13.13348
623.5042, 13.25799
623.9863, 13.64597
624.4684, 14.28804
624.9506, 14.78655
625.4327, 14.56649
625.9147, 13.96686
626.3969, 14.01636
626.8790, 14.82000
627.3611, 15.65317
627.8432, 16.21548
628.3253, 16.51426
628.8074, 16.50061
629.2896, 16.05192
629.7717, 15.74604
630.2538, 15.93277
630.7359, 16.06262
631.2180, 15.52966
631.7001, 14.60081
632.1823, 14.02741
632.6644, 14.19672
633.1465, 14.80621
633.6286, 15.39337
634.1107, 16.05422
634.5928, 16.19592
635.0750, 15.39351
635.5571, 14.55991
636.0392, 13.99030
636.5213, 13.73401
637.0034, 13.97240
637.4855, 14.93725
637.9677, 15.79240
638.4498, 15.79130
638.9319, 15.29486
639.4140, 14.99193
639.8961, 14.97670
640.3782, 15.03130
640.8604, 15.03038
641.3425, 14.95476
641.8246, 14.72228
642.3067, 14.07923
642.7888, 13.63225
643.2709, 13.28604
643.7531, 13.22338
644.2352, 13.79797
644.7173, 14.76812
645.1994, 15.50879
645.6815, 15.67097
646.1636, 15.43174
646.6458, 14.89172
647.1279, 14.05427
647.6100, 13.85661
648.0921, 14.75950
648.5742, 15.71593
649.0563, 15.73976
649.5385, 15.08560
650.0206, 14.71602
650.5027, 14.87402
650.9848, 15.09594
651.4669, 15.19263
651.9490, 15.25749
652.4312, 15.46854
652.9133, 15.80481
653.3954, 15.98972
653.8775, 15.76638
654.3596, 15.28701
654.8417, 15.27400
655.3239, 16.14701
655.8060, 16.47951
656.2881, 15.30634
656.7702, 14.14907
657.2523, 13.98200
657.7344, 14.59986
658.2166, 15.17232
658.6987, 15.36579
659.1808, 15.41189
659.6629, 15.52066
660.1450, 15.65954
660.6271, 15.73454
661.1093, 15.72325
661.5914, 15.66531
662.0735, 15.59321
662.5556, 15.50682
663.0377, 15.40619
663.5198, 15.08463
664.0020, 15.02615
664.4841, 15.63930
664.9662, 16.26217
665.4483, 16.25248
665.9304, 15.69958
666.4125, 15.21508
666.8947, 15.20622
667.3768, 15.45368
667.8589, 15.62135
668.3410, 15.70565
668.8231, 15.49526
669.3052, 14.78353
669.7874, 14.14496
670.2695, 14.23505
670.7516, 14.98862
671.2337, 15.46432
671.7158, 15.53854
672.1979, 15.46699
672.6801, 15.16572
673.1622, 14.85554
673.6443, 14.83169
674.1264, 15.08462
674.6085, 15.32581
675.0906, 15.31905
675.5728, 15.15591
676.0549, 15.17593
676.5370, 15.45435
677.0191, 15.57733
677.5012, 15.38243
677.9833, 15.09427
678.4655, 14.88660
678.9476, 14.73971
679.4297, 14.57332
679.9118, 14.13707
680.3939, 13.97072
680.8760, 14.61987
681.3582, 15.65703
681.8403, 16.59225
682.3224, 17.25407
682.8045, 17.23392
683.2866, 16.04118
683.7687, 14.08055
684.2509, 13.38488
684.7330, 14.59865
685.2151, 15.66907
685.6972, 16.53951
686.1793, 16.99486
686.6614, 16.62632
687.1436, 15.72114
687.6257, 15.08708
688.1078, 15.09783
688.5899, 15.34302
689.0720, 15.58853
689.5541, 15.77114
690.0363, 15.68733
690.5184, 15.30824
691.0005, 14.88364
691.4826, 14.56187
691.9647, 14.38727
692.4468, 14.59863
692.9290, 15.87639
693.4111, 16.42799
693.8932, 15.47963
694.3753, 14.48337
694.8574, 14.40273
695.3395, 14.97510
695.8217, 15.40878
696.3038, 15.34280
696.7859, 15.10164
697.2680, 14.93281
697.7501, 14.87994
698.2322, 15.18766
698.7144, 15.91753
699.1965, 16.57377
699.6786, 16.81298
700.1607, 16.73017
700.6428, 16.65543
701.1249, 16.70362
701.6071, 16.56498
702.0892, 15.88922
702.5713, 15.35128
703.0534, 15.49761
703.5355, 16.06731
704.0176, 16.51254
704.4998, 16.60929
704.9819, 16.47428
705.4640, 16.07778
705.9461, 15.53412
706.4282, 15.49357
706.9103, 16.08994
707.3925, 16.61226
707.8745, 16.69523
708.3566, 16.42808
708.8387, 15.93248
709.3209, 14.94720
709.8030, 14.50591
710.2851, 15.19064
710.7672, 15.92212
711.2493, 16.00577
711.7314, 15.73488
712.2136, 15.74349
712.6957, 16.22578
713.1778, 16.65162
713.6599, 16.25762
714.1420, 15.24684
714.6241, 14.69365
715.1063, 14.62735
715.5884, 14.97765
716.0705, 15.98050
716.5526, 17.09353
717.0347, 17.40843
717.5168, 16.84222
717.9990, 16.34152
718.4811, 15.94107
718.9632, 15.66981
719.4453, 15.57413
719.9274, 15.60105
720.4095, 15.69767
720.8917, 15.84213
721.3738, 16.00959
721.8559, 16.18274
722.3380, 16.35853
722.8201, 16.54929
723.3022, 16.77201
723.7844, 16.86338
724.2665, 16.74378
724.7486, 16.52698
725.2307, 16.29126
725.7128, 16.04449
726.1949, 15.91628
726.6771, 15.99655
727.1592, 16.09332
727.6413, 16.11926
728.1234, 16.14405
728.6055, 16.34308
729.0876, 16.64745
729.5698, 16.69990
730.0519, 16.20674
730.5340, 15.44453
731.0161, 14.93975
731.4982, 14.69249
731.9803, 14.79756
732.4625, 15.37313
732.9446, 16.06841
733.4267, 16.78205
733.9088, 17.39295
734.3909, 17.48325
734.8730, 16.73993
735.3552, 16.07432
735.8373, 15.48241
736.3194, 15.19071
736.8015, 15.68448
737.2836, 16.59761
737.7657, 16.95266
738.2479, 16.29397
738.7300, 15.44536
739.2121, 15.77463
739.6942, 17.08800
740.1763, 17.46788
740.6584, 16.58004
741.1406, 15.90439
741.6227, 16.23215
742.1048, 17.13676
742.5869, 17.93757
743.0690, 18.71802
743.5511, 19.01605
744.0333, 18.59037
744.5154, 17.89424
744.9975, 16.77876
745.4796, 15.69283
745.9617, 15.29908
746.4438, 15.70297
746.9260, 16.37554
747.4081, 17.00762
747.8902, 17.47717
748.3723, 17.28219
748.8544, 16.40845
749.3365, 15.83704
749.8187, 15.89060
750.3008, 16.20873
750.7829, 16.43769
751.2650, 16.58357
751.7471, 16.86864
752.2292, 17.72919
752.7114, 18.13115
753.1935, 17.36269
753.6756, 16.47967
754.1577, 16.39702
754.6398, 17.01893
755.1219, 17.77955
755.6041, 18.47540
756.0862, 18.89251
756.5683, 18.62451
757.0504, 17.81840
757.5325, 17.04098
758.0146, 16.35255
758.4968, 15.79669
758.9789, 15.35545
759.4610, 15.12957
759.9431, 15.40938
760.4252, 16.59647
760.9073, 17.33887
761.3895, 17.40515
761.8716, 17.31637
762.3537, 17.09216
762.8358, 16.92793
763.3179, 17.16230
763.8000, 17.84766
764.2822, 18.42299
764.7643, 18.43429
765.2464, 18.12269
765.7285, 17.73489
766.2106, 17.32996
766.6927, 17.19884
767.1749, 17.44475
767.6570, 17.80181
768.1391, 17.99266
768.6212, 18.01944
769.1033, 17.90598
769.5854, 17.58553
770.0676, 17.23517
770.5497, 16.73696
771.0318, 16.34405
771.5139, 16.31947
771.9960, 16.55377
772.4781, 16.66246
772.9603, 16.40357
773.4424, 16.23863
773.9245, 16.53287
774.4066, 17.09070
774.8887, 17.71375
775.3708, 18.33046
775.8530, 18.80029
776.3351, 19.04712
776.8172, 19.10180
777.2993, 18.98830
777.7814, 18.67294
778.2635, 18.43474
778.7457, 18.29885
779.2278, 18.19769
779.7099, 18.16493
780.1920, 18.11307
780.6741, 17.89871
781.1563, 17.50278
781.6384, 17.18500
782.1205, 16.85727
782.6026, 16.78443
783.0847, 17.41947
783.5668, 18.27265
784.0490, 18.53132
784.5311, 18.12465
785.0132, 17.73420
785.4953, 17.94913
785.9774, 18.48200
786.4595, 18.56469
786.9417, 18.19574
787.4238, 17.97978
787.9059, 18.03504
788.3880, 18.23961
788.8701, 18.57546
789.3522, 18.97162
789.8344, 19.12414
790.3164, 18.75855
790.7985, 18.66626
791.2806, 19.37504
791.7628, 19.87796
792.2449, 19.34451
792.7270, 18.31002
793.2091, 17.70895
793.6912, 17.81396
794.1733, 18.12889
794.6555, 18.26665
795.1376, 18.33678
795.6197, 18.64238
796.1018, 19.10349
796.5839, 19.15771
797.0660, 18.59914
797.5482, 17.93161
798.0303, 17.72361
798.5124, 17.93942
798.9945, 17.98241
799.4766, 17.57098
799.9587, 17.52899
800.4409, 18.63730
800.9230, 19.56285
801.4051, 19.27615
801.8872, 18.17739
802.3693, 17.36413
802.8514, 17.04353
803.3336, 17.15152
803.8157, 17.98835
804.2978, 19.00428
804.7799, 19.75369
805.2620, 20.13663
805.7441, 19.91017
806.2263, 18.98556
806.7084, 18.04209
807.1905, 18.15416
807.6726, 19.16170
808.1547, 19.46579
808.6368, 18.93845
809.1190, 18.41911
809.6011, 18.14979
810.0832, 18.05942
810.5653, 18.08750
811.0474, 18.23660
811.5295, 18.44733
812.0117, 18.92162
812.4938, 19.18214
812.9759, 18.86193
813.4580, 18.51823
813.9401, 18.78113
814.4222, 19.40017
814.9044, 19.53830
815.3865, 18.74669
815.8686, 17.90459
816.3507, 18.03041
816.8328, 18.67162
817.3149, 18.81355
817.7971, 18.47406
818.2792, 18.40897
818.7613, 18.98303
819.2434, 19.66286
819.7255, 19.58889
820.2076, 18.71076
820.6898, 18.61994
821.1719, 19.95159
821.6540, 20.75504
822.1361, 19.92707
822.6182, 18.90450
823.1003, 19.10200
823.5825, 20.20666
824.0646, 20.68623
824.5467, 19.72922
825.0288, 18.90042
825.5109, 18.90738
825.9930, 19.23991
826.4752, 19.52860
826.9573, 19.68695
827.4394, 19.61237
827.9215, 19.25523
828.4036, 18.90115
828.8857, 18.97882
829.3679, 19.35292
829.8500, 19.51481
830.3321, 19.45040
830.8142, 19.23709
831.2963, 18.86525
831.7784, 18.48360
832.2606, 18.22945
832.7427, 18.10566
833.2248, 18.34984
833.7069, 19.53368
834.1890, 20.18311
834.6711, 19.74452
835.1533, 19.10705
835.6354, 18.82112
836.1175, 18.78313
836.5996, 18.60874
837.0817, 18.08697
837.5638, 17.80725
838.0460, 18.35115
838.5281, 19.08280
839.0102, 19.27366
839.4923, 19.08840
839.9744, 19.06732
840.4565, 19.39186
840.9387, 19.83332
841.4208, 20.23660
841.9029, 20.51262
842.3850, 20.16361
842.8671, 19.15463
843.3492, 18.41153
843.8314, 18.18102
844.3135, 18.21298
844.7956, 18.34501
845.2777, 18.55350
845.7598, 18.71978
846.2419, 18.70667
846.7241, 18.87224
847.2062, 19.52895
847.6883, 20.02240
848.1704, 19.84899
848.6525, 19.40330
849.1346, 19.38053
849.6168, 19.91579
850.0989, 20.19767
850.5810, 19.48103
851.0631, 18.62329
851.5452, 18.46382
852.0273, 18.72354
852.5095, 18.76557
852.9916, 18.52343
853.4737, 18.54920
853.9558, 19.33751
854.4379, 20.41806
854.9200, 20.68491
855.4022, 20.15407
855.8843, 19.51201
856.3664, 18.77712
856.8485, 18.20129
857.3306, 17.95257
857.8127, 17.90760
858.2949, 17.84386
858.7770, 17.74910
859.2591, 17.69179
859.7412, 17.57477
860.2233, 17.61860
860.7054, 17.93195
861.1876, 18.38330
861.6697, 18.95395
862.1518, 19.57048
862.6339, 20.00651
863.1160, 20.27939
863.5981, 20.17591
864.0803, 19.10754
864.5624, 17.88568
865.0445, 17.70175
865.5266, 18.29887
866.0087, 18.55363
866.4908, 17.99984
866.9730, 17.25173
867.4551, 17.07011
867.9372, 17.33690
868.4193, 17.57464
868.9014, 17.78390
869.3835, 17.85442
869.8657, 17.72709
870.3478, 17.56971
870.8299, 17.52346
871.3120, 17.58579
871.7941, 17.75696
872.2762, 18.18728
872.7583, 18.43699
873.2404, 18.49159
873.7225, 18.35073
874.2047, 17.90239
874.6868, 17.30702
875.1689, 16.68610
875.6510, 16.03568
876.1331, 15.81829
876.6152, 16.60685
877.0974, 17.42572
877.5795, 17.70555
878.0616, 17.63191
878.5437, 17.39151
879.0258, 17.07302
879.5079, 16.77733
879.9901, 16.53335
880.4722, 16.46597
880.9543, 17.01521
881.4364, 17.86204
881.9185, 17.76720
882.4006, 16.73282
882.8828, 16.06953
883.3649, 16.39760
883.8470, 17.03428
884.3291, 17.02875
884.8112, 16.40684
885.2933, 15.99945
885.7755, 15.85081
886.2576, 15.80411
886.7397, 15.91192
887.2218, 16.00475
887.7039, 15.92246
888.1860, 15.72500
888.6682, 15.60803
889.1503, 15.67343
889.6324, 15.58467
890.1145, 15.04622
890.5966, 14.61077
891.0787, 14.55197
891.5609, 14.78408
892.0430, 15.30885
892.5251, 16.04512
893.0072, 16.53288
893.4893, 16.41729
893.9714, 16.06493
894.4536, 15.78483
894.9357, 15.53170
895.4178, 15.18058
895.8999, 14.76369
896.3820, 14.51493
896.8641, 14.56448
897.3463, 14.66227
897.8284, 14.32891
898.3105, 13.66059
898.7926, 13.47336
899.2747, 13.79978
899.7568, 14.19192
900.2390, 14.55927
900.7211, 14.77258
901.2032, 14.63373
901.6853, 14.24351
902.1674, 14.27736
902.6495, 15.25810
903.1317, 15.57931
903.6138, 14.51030
904.0959, 13.52952
904.5780, 13.40670
905.0601, 13.69868
905.5422, 13.83536
906.0244, 13.76837
906.5065, 13.60585
906.9886, 13.02556
907.4707, 12.77491
907.9528, 13.62845
908.4349, 14.67607
908.9171, 14.89892
909.3992, 14.41037
909.8813, 13.90323
910.3634, 13.64008
910.8455, 13.70868
911.3276, 14.59723
911.8098, 15.64218
912.2919, 15.54835
912.7740, 14.60439
913.2561, 14.03460
913.7382, 14.18852
914.2203, 14.42696
914.7025, 14.13563
915.1846, 13.50544
915.6667, 13.12908
916.1488, 13.00867
916.6309, 12.74858
917.1130, 12.23816
917.5952, 11.92772
918.0773, 12.09696
918.5594, 12.54468
919.0415, 12.90650
919.5236, 13.14675
920.0057, 13.63608
920.4879, 14.97415
920.9700, 15.57469
921.4521, 14.37191
921.9342, 12.97601
922.4163, 12.50029
922.8984, 12.73782
923.3806, 13.06051
923.8627, 13.53195
924.3448, 13.73288
924.8269, 13.38219
925.3090, 12.91738
925.7911, 12.49081
926.2733, 12.17471
926.7554, 12.04561
927.2375, 12.10838
927.7196, 12.32401
928.2017, 12.83745
928.6838, 13.21847
929.1660, 12.76660
929.6481, 12.08872
930.1302, 12.34467
930.6123, 13.33941
931.0944, 13.95600
931.5765, 13.72877
932.0587, 13.17688
932.5408, 12.78562
933.0229, 12.59990
933.5050, 12.97319
933.9871, 13.81518
934.4692, 13.96445
934.9514, 13.12642
935.4335, 12.43335
935.9156, 12.75897
936.3977, 13.58811
936.8798, 13.56028
937.3619, 12.38169
937.8441, 12.12283
938.3262, 13.24969
938.8083, 14.11062
939.2904, 14.06055
939.7725, 13.66298
940.2546, 13.47846
940.7368, 13.47509
941.2189, 13.34807
941.7010, 12.67850
942.1831, 12.52858
942.6652, 13.75074
943.1473, 14.62021
943.6295, 13.92711
944.1116, 12.56608
944.5937, 11.69292
945.0758, 11.46060
945.5579, 11.63184
946.0400, 12.61811
946.5222, 13.38435
947.0043, 13.28198
947.4864, 12.78555
947.9685, 12.06730
948.4506, 11.43662
948.9327, 11.61583
949.4149, 12.88224
949.8970, 14.09128
950.3791, 14.17199
950.8612, 13.73450
951.3433, 13.56256
951.8254, 13.55507
952.3076, 13.38531
952.7897, 13.02812
953.2718, 12.76504
953.7539, 12.78572
954.2360, 12.92876
954.7181, 12.95795
955.2002, 12.87453
955.6823, 12.60891
956.1644, 12.16842
956.6465, 11.98770
957.1287, 12.23350
957.6108, 12.51851
958.0929, 12.43535
958.5750, 12.11557
959.0571, 12.18878
959.5392, 12.81254
960.0214, 12.98686
960.5035, 12.45419
960.9856, 11.98194
961.4677, 11.96887
961.9498, 12.13907
962.4319, 12.11290
962.9141, 11.88515
963.3962, 11.74574
963.8783, 11.77635
964.3604, 11.76982
964.8425, 11.54003
965.3246, 11.44535
965.8068, 11.84797
966.2889, 12.44440
966.7710, 12.67731
967.2531, 12.45660
967.7352, 12.32469
968.2173, 12.66135
968.6995, 12.77149
969.1816, 12.14890
969.6637, 11.36812
970.1458, 10.81754
970.6279, 10.58980
971.1100, 10.88754
971.5922, 11.87974
972.0743, 12.55579
972.5564, 11.92761
973.0385, 11.11422
973.5206, 11.18707
974.0027, 11.70455
974.4849, 12.01896
974.9670, 11.98902
975.4491, 11.58012
975.9312, 10.67725
976.4133, 9.922527
976.8954, 10.20327
977.3776, 11.03846
977.8597, 11.69342
978.3418, 12.09429
978.8239, 12.06114
979.3060, 11.59492
979.7881, 11.13155
980.2703, 11.02072
980.7524, 11.14051
981.2345, 11.27927
981.7166, 11.43014
982.1987, 11.58697
982.6808, 11.74368
983.1630, 11.67439
983.6451, 11.25997
984.1272, 10.92982
984.6093, 11.21373
985.0914, 11.92476
985.5735, 12.16236
986.0557, 11.87105
986.5378, 11.45358
987.0199, 10.84717
987.5020, 10.54737
987.9841, 10.95119
988.4662, 11.47937
988.9484, 11.21672
989.4305, 10.17131
989.9126, 9.784587
990.3947, 10.47742
990.8768, 10.88762
991.3589, 10.68161
991.8411, 10.39893
992.3232, 10.25064
992.8053, 10.26553
993.2874, 10.62279
993.7695, 11.44931
994.2516, 11.68259
994.7338, 10.28203
995.2159, 9.719379
995.6980, 11.40931
996.1801, 13.15354
996.6622, 13.33968
997.1443, 12.55457
997.6265, 12.04914
998.1086, 12.01871
998.5907, 12.03599
999.0728, 12.02152
999.5549, 12.00213
1000.037, 12.06970
1000.519, 12.07194
1001.001, 11.75434
1001.483, 11.26623
1001.966, 11.03750
1002.448, 11.22729
1002.930, 11.40145
1003.412, 11.33545
1003.894, 11.17655
1004.376, 10.87623
1004.858, 10.64434
1005.340, 10.85367
1005.822, 11.39941
1006.305, 11.76853
1006.787, 11.71238
1007.269, 11.66092
1007.751, 12.13098
1008.233, 12.66283
1008.715, 12.64035
1009.197, 12.28994
1009.679, 12.09009
1010.161, 12.10044
1010.644, 12.08958
1011.126, 11.92436
1011.608, 11.69890
1012.090, 11.49229
1012.572, 11.32076
1013.054, 11.19434
1013.536, 11.13174
1014.018, 11.27894
1014.501, 11.61591
1014.983, 11.68567
1015.465, 11.10170
1015.947, 10.45211
1016.429, 10.96946
1016.911, 12.23641
1017.393, 12.50844
1017.875, 11.87304
1018.357, 11.58118
1018.840, 11.98133
1019.322, 12.52307
1019.804, 12.78736
1020.286, 12.78791
1020.768, 12.45392
1021.250, 11.82707
1021.732, 11.48411
1022.214, 11.45353
1022.697, 11.53392
1023.179, 11.68277
1023.661, 11.72895
1024.143, 11.49786
1024.625, 11.08683
1025.107, 10.76682
1025.589, 10.52662
1026.071, 10.52814
1026.553, 10.78732
1027.036, 11.32288
1027.518, 12.30816
1028.000, 13.00596
1028.482, 12.58435
1028.964, 11.37987
1029.446, 10.81489
1029.928, 11.05866
1030.410, 11.26979
1030.892, 11.53064
1031.375, 11.42607
1031.857, 10.55912
1032.339, 9.712374
1032.821, 9.714223
1033.303, 10.40553
1033.785, 11.00298
1034.267, 11.58370
1034.749, 11.86724
1035.232, 11.74359
1035.714, 11.51220
1036.196, 11.20419
1036.678, 10.91223
1037.160, 10.67810
1037.642, 10.53386
1038.124, 10.68474
1038.606, 11.42802
1039.089, 11.87928
1039.571, 11.93595
1040.053, 11.83705
1040.535, 11.60389
1041.017, 11.29434
1041.499, 10.83043
1041.981, 10.30306
1042.463, 10.23001
1042.945, 10.86055
1043.427, 11.47520
1043.910, 12.42984
1044.392, 12.88548
1044.874, 12.20604
1045.356, 11.15499
1045.838, 10.26982
1046.320, 9.647907
1046.802, 9.604817
1047.284, 10.53993
1047.767, 11.21338
1048.249, 11.29543
1048.731, 11.29402
1049.213, 11.35982
1049.695, 11.48029
1050.177, 11.80974
1050.659, 12.19054
1051.141, 11.96801
1051.624, 10.63789
1052.106, 9.794686
1052.588, 10.21972
1053.070, 10.66004
1053.552, 10.43998
1054.034, 10.05013
1054.516, 9.958294
1054.998, 10.15473
1055.480, 10.47113
1055.963, 10.91630
1056.445, 11.33029
1056.927, 11.95711
1057.409, 12.19372
1057.891, 11.30834
1058.373, 10.23292
1058.855, 9.843080
1059.337, 10.09318
1059.819, 10.64141
1060.302, 11.51358
1060.784, 12.17917
1061.266, 12.50447
1061.748, 12.52111
1062.230, 11.95107
1062.712, 11.31792
1063.194, 11.12611
1063.676, 11.31999
1064.159, 11.67757
1064.641, 12.19232
1065.123, 12.49674
1065.605, 12.42709
1066.087, 12.13323
1066.569, 11.41860
1067.051, 10.74475
1067.533, 10.72113
1068.016, 11.07053
1068.498, 10.98068
1068.980, 10.22241
1069.462, 9.763439
1069.944, 10.35158
1070.426, 10.92372
1070.908, 10.74424
1071.390, 10.45023
1071.872, 10.74160
1072.354, 11.36458
1072.837, 11.64575
1073.319, 11.44573
1073.801, 11.34642
1074.283, 11.90786
1074.765, 12.23882
1075.247, 11.61186
1075.729, 10.80985
1076.211, 10.42111
1076.694, 10.41151
1077.176, 10.72470
1077.658, 11.29601
1078.140, 11.63200
1078.622, 11.48258
1079.104, 11.11590
1079.586, 10.29236
1080.068, 9.662412
1080.550, 9.960174
1081.033, 10.70782
1081.515, 11.10382
1081.997, 11.06717
1082.479, 11.11990
1082.961, 11.63240
1083.443, 11.92942
1083.925, 11.58895
1084.407, 11.02908
1084.890, 10.40346
1085.372, 9.842980
1085.854, 9.417216
1086.336, 9.185022
1086.818, 9.367936
1087.300, 10.28064
1087.782, 10.92560
1088.264, 10.74976
1088.746, 10.32772
1089.229, 9.720569
1089.711, 9.288212
1090.193, 9.693110
1090.675, 10.63410
1091.157, 10.89972
1091.639, 9.944297
1092.121, 9.334460
1092.603, 10.06678
1093.085, 10.79808
1093.568, 10.76005
1094.050, 10.44301
1094.532, 10.30868
1095.014, 10.32490
1095.496, 10.30624
1095.978, 10.22035
1096.460, 10.04568
1096.942, 9.465024
1097.425, 9.204314
1097.907, 9.840591
1098.389, 10.62928
1098.871, 11.16367
1099.353, 11.34003
1099.835, 10.92789
1100.317, 9.899009
1100.799, 9.129976
1101.281, 8.710452
1101.764, 8.762456
1102.246, 9.950796
1102.728, 10.94354
1103.210, 10.48600
1103.692, 9.569787
1104.174, 9.880258
1104.656, 11.34257
1105.138, 11.85471
1105.620, 10.09015
1106.103, 9.004956
1106.585, 9.715081
1107.067, 10.40067
1107.549, 10.08177
1108.031, 9.461242
1108.513, 9.266166
1108.995, 9.458829
1109.477, 9.745234
1109.960, 10.30900
1110.442, 10.45606
1110.924, 9.453003
1111.406, 8.935820
1111.888, 10.01188
1112.370, 11.15672
1112.852, 11.02093
1113.334, 10.06286
1113.817, 9.403823
1114.299, 8.978728
1114.781, 9.182934
1115.263, 10.95683
1115.745, 11.78789
1116.227, 10.46420
1116.709, 9.200168
1117.191, 9.508585
1117.673, 10.46471
1118.156, 10.44317
1118.638, 10.88476
1119.120, 11.47843
1119.602, 11.14118
1120.084, 12.09362
1120.566, 11.84428
1121.048, 11.19020
1121.530, 10.29925
1122.012, 9.414998
1122.495, 8.753749
1122.977, 8.362667
1123.459, 8.600078
1123.941, 9.763953
1124.423, 10.23972
1124.905, 9.730977
1125.387, 9.521047
1125.869, 10.12279
1126.352, 10.73590
1126.834, 10.68083
1127.316, 10.19651
1127.798, 9.826831
1128.280, 9.571079
1128.762, 9.513365
1129.244, 9.669202
1129.726, 9.955234
1130.208, 10.40922
1130.691, 10.39075
1131.173, 9.434701
1131.655, 8.322469
1132.137, 8.249737
1132.619, 9.007852
1133.101, 9.665391
1133.583, 10.21371
1134.065, 10.38283
1134.547, 10.16722
1135.030, 10.12166
1135.512, 10.46486
1135.994, 10.75388
1136.476, 10.55500
1136.958, 10.04447
1137.440, 9.421038
1137.922, 8.828323
1138.404, 9.023230
1138.887, 9.786033
1139.369, 9.786530
1139.851, 8.827188
1140.333, 8.099302
1140.815, 8.359282
1141.297, 9.040142
1141.779, 9.602544
1142.261, 9.975962
1142.744, 9.998152
1143.226, 9.740590
1143.708, 9.241610
1144.190, 8.625648
1144.672, 8.194400
1145.154, 8.071452
1145.636, 8.309930
1146.118, 9.301648
1146.600, 10.22198
1147.083, 10.04782
1147.565, 9.457880
1148.047, 9.251568
1148.529, 9.351964
1149.011, 9.410052
1149.493, 9.386714
1149.975, 9.568534
1150.457, 10.19513
1150.939, 10.76530
1151.422, 11.04713
1151.904, 11.09741
1152.386, 10.92305
1152.868, 10.56409
1153.350, 9.804145
1153.832, 8.926669
1154.314, 8.839802
1154.796, 9.908051
1155.279, 10.60000
1155.761, 10.09761
1156.243, 9.651978
1156.725, 9.685332
1157.207, 9.933359
1157.689, 10.41751
1158.171, 10.87961
1158.653, 10.86000
1159.135, 10.34854
1159.618, 9.972163
1160.100, 9.702806
1160.582, 9.685190
1161.064, 10.30001
1161.546, 10.60189
1162.028, 9.939310
1162.510, 9.242839
1162.992, 9.518775
1163.474, 10.34723
1163.957, 10.35804
1164.439, 9.331528
1164.921, 8.687071
1165.403, 8.409068
1165.885, 8.656677
1166.367, 9.655894
1166.849, 10.51421
1167.331, 10.71193
1167.813, 10.50344
1168.296, 10.18494
1168.778, 9.826502
1169.260, 9.981912
1169.742, 10.63522
1170.224, 10.38727
1170.706, 9.150305
1171.188, 8.630828
1171.670, 9.396418
1172.153, 10.23506
1172.635, 10.13575
1173.117, 10.85510
1173.599, 10.24867
1174.081, 11.27978
1174.563, 11.39859
1175.045, 10.86424
1175.527, 10.62373
1176.010, 10.77874
1176.492, 10.91258
1176.974, 10.84666
1177.456, 10.81703
1177.938, 11.15003
1178.420, 11.46809
1178.902, 11.26369
1179.384, 10.82434
1179.866, 10.44012
1180.349, 10.17830
1180.831, 10.20286
1181.313, 10.44710
1181.795, 10.43126
1182.277, 9.826072
1182.759, 9.376565
1183.241, 9.690644
1183.723, 10.03995
1184.205, 9.767535
1184.688, 9.481810
1185.170, 9.940663
1185.652, 10.84134
1186.134, 11.40644
1186.616, 11.51861
1187.098, 11.52344
1187.580, 11.58669
1188.062, 11.37830
1188.545, 10.33808
1189.027, 9.651422
1189.509, 10.15357
1189.991, 10.93347
1190.473, 11.03816
1190.955, 10.63234
1191.437, 10.33793
1191.919, 10.09552
1192.401, 10.30122
1192.884, 11.17806
1193.366, 11.70287
1193.848, 11.63478
1194.330, 11.24535
1194.812, 10.58943
1195.294, 10.09177
1195.776, 10.44277
1196.258, 11.37311
1196.740, 11.72977
1197.223, 11.55788
1197.705, 11.28438
1198.187, 10.96148
1198.669, 10.73474
1199.151, 10.63556
1199.633, 10.49051
1200.115, 10.16966
1200.597, 9.840414
1201.080, 9.591934
1201.562, 9.572498
1202.044, 10.29856
1202.526, 11.32071
1203.008, 11.81208
1203.490, 11.75267
1203.972, 11.28691
1204.454, 10.53931
1204.937, 10.15553
1205.419, 10.61865
1205.901, 11.33437
1206.383, 12.29004
1206.865, 12.95767
1207.347, 12.80826
1207.829, 12.22697
1208.311, 11.58071
1208.793, 10.95939
1209.276, 10.40363
1209.758, 9.865269
1210.240, 9.723521
1210.722, 10.58014
1211.204, 11.02727
1211.686, 10.23514
1212.168, 9.677506
1212.650, 10.31487
1213.132, 11.22239
1213.615, 11.24762
1214.097, 10.61438
1214.579, 10.41938
1215.061, 10.75028
1215.543, 11.10963
1216.025, 11.52774
1216.507, 11.75313
1216.989, 11.70805
1217.472, 11.63798
1217.954, 11.68023
1218.436, 11.81212
1218.918, 12.02072
1219.400, 12.27136
1219.882, 12.52205
1220.364, 12.72326
1220.846, 12.59998
1221.328, 12.25040
1221.811, 12.18919
1222.293, 12.46598
1222.775, 12.53861
1223.257, 12.08309
1223.739, 11.52845
1224.221, 11.08147
1224.703, 10.91438
1225.185, 11.33106
1225.667, 12.01830
1226.150, 12.88645
1226.632, 13.60855
1227.114, 13.48848
1227.596, 12.53383
1228.078, 11.90080
1228.560, 12.13311
1229.042, 12.26512
1229.524, 11.81831
1230.007, 11.56679
1230.489, 12.19888
1230.971, 12.73623
1231.453, 12.20516
1231.935, 11.23589
1232.417, 11.02437
1232.899, 11.56515
1233.381, 12.12277
1233.864, 12.87317
1234.346, 12.71484
1234.828, 11.34131
1235.310, 10.33570
1235.792, 10.21082
1236.274, 10.68040
1236.756, 11.60176
1237.238, 12.57402
1237.720, 12.89640
1238.203, 12.70565
1238.685, 12.29993
1239.167, 11.80634
1239.649, 11.63437
1240.131, 11.77907
1240.613, 12.05771
1241.095, 12.39699
1241.577, 12.78143
1242.059, 13.30447
1242.542, 13.50954
1243.024, 12.61110
1243.506, 11.71022
1243.988, 12.06492
1244.470, 12.64736
1244.952, 12.02753
1245.434, 10.74723
1245.916, 10.22004
1246.398, 10.65145
1246.881, 11.16092
1247.363, 11.82295
1247.845, 12.19965
1248.327, 12.08056
1248.809, 11.94956
1249.291, 11.92822
1249.773, 11.97919
1250.255, 12.07783
1250.738, 12.22877
1251.220, 12.46022
1251.702, 12.55941
1252.184, 12.89923
1252.666, 12.89023
1253.148, 13.01430
1253.630, 13.28771
1254.112, 13.52105
1254.594, 13.64876
1255.077, 13.64680
1255.559, 13.49208
1256.041, 13.24769
1256.523, 12.89620
1257.005, 12.58809
1257.487, 12.62801
1257.969, 12.80631
1258.451, 12.79007
1258.933, 12.63950
1259.416, 12.56381
1259.898, 12.59677
1260.380, 12.62579
1260.862, 12.59143
1261.344, 12.60497
1261.826, 13.06110
1262.308, 13.09111
1262.790, 11.58057
1263.273, 10.34652
1263.755, 11.08412
1264.237, 12.57275
1264.719, 12.95554
1265.201, 12.41084
1265.683, 12.50387
1266.165, 13.39420
1266.647, 13.99329
1267.130, 14.26400
1267.612, 14.26093
1268.094, 13.98988
1268.576, 13.68521
1269.058, 13.47620
1269.540, 13.29382
1270.022, 13.05725
1270.504, 12.79128
1270.986, 12.45067
1271.469, 12.16687
1271.951, 12.27461
1272.433, 12.60544
1272.915, 12.83649
1273.397, 12.88975
1273.879, 12.73624
1274.361, 12.35304
1274.843, 11.98761
1275.325, 11.67660
1275.808, 11.50697
1276.290, 11.57119
1276.772, 11.71413
1277.254, 11.93968
1277.736, 12.11433
1278.218, 11.99409
1278.700, 11.76476
1279.182, 12.01748
1279.665, 11.93507
1280.147, 11.81165
1280.629, 12.18372
1281.111, 11.86934
1281.593, 12.15807
1282.075, 12.92154
1282.557, 14.12560
1283.039, 14.72587
1283.521, 13.78853
1284.004, 12.57322
1284.486, 12.57402
1284.968, 13.79511
##END=



