##NAMES=Safflorite
##RRUFFID=R100115
##IDEAL CHEMISTRY=(Co^2+^,Fe^2+^,Ni^2+^)As_2_
##LOCALITY=Hudson Bay (Rustex) mine, Gowganda area, Ontario, Canada
##OWNER=RRUFF
##SOURCE=Robert Woodside
##DESCRIPTION=Steel gray elongated tablets arranged as sixling twins
##STATUS=The identification of this mineral has been confirmed only by single crystal X-ray diffraction.
##URL=rruff.info/R100115
139.1977, 8.435837
139.6798, 9.797046
140.1619, 10.90225
140.6440, 11.66417
141.1262, 12.26456
141.6083, 12.84478
142.0904, 13.55919
142.5725, 14.06229
143.0546, 14.28537
143.5367, 14.21407
144.0189, 14.05185
144.5010, 13.35719
144.9831, 12.78666
145.4652, 12.87678
145.9473, 14.53952
146.4294, 15.95639
146.9116, 16.69295
147.3937, 16.64330
147.8758, 16.72456
148.3579, 17.15738
148.8400, 17.71774
149.3221, 18.18707
149.8043, 18.67490
150.2864, 18.93221
150.7685, 18.67752
151.2506, 17.70289
151.7327, 17.29287
152.2149, 18.47630
152.6970, 20.23503
153.1791, 21.24771
153.6612, 20.36467
154.1433, 19.27207
154.6254, 18.83806
155.1076, 19.38940
155.5897, 19.63295
156.0718, 18.44351
156.5539, 16.69349
157.0360, 15.81836
157.5181, 17.40643
158.0003, 19.36310
158.4824, 20.30593
158.9645, 19.75740
159.4466, 19.08971
159.9287, 19.08519
160.4108, 19.51303
160.8930, 19.88542
161.3751, 19.89445
161.8572, 19.78420
162.3393, 19.62652
162.8214, 19.20176
163.3035, 19.17973
163.7857, 20.80589
164.2678, 23.52281
164.7499, 25.60859
165.2320, 25.78020
165.7141, 25.01861
166.1963, 24.30471
166.6784, 23.75198
167.1605, 23.41833
167.6426, 23.71429
168.1247, 24.40243
168.6068, 24.57449
169.0890, 23.09705
169.5711, 20.90897
170.0532, 19.36829
170.5353, 18.79613
171.0174, 18.85485
171.4995, 19.42790
171.9817, 20.41414
172.4638, 21.24190
172.9459, 21.35697
173.4280, 21.02562
173.9101, 20.78411
174.3922, 20.76996
174.8744, 20.86075
175.3565, 20.90892
175.8386, 20.91301
176.3207, 20.84139
176.8028, 20.56751
177.2849, 20.18596
177.7671, 19.96722
178.2492, 19.98143
178.7313, 20.18235
179.2134, 20.56702
179.6955, 21.13672
180.1777, 21.64176
180.6598, 21.91099
181.1419, 21.95109
181.6240, 21.78002
182.1061, 21.32764
182.5882, 20.71713
183.0704, 20.22266
183.5525, 19.83946
184.0346, 19.63198
184.5167, 19.73684
184.9988, 20.12389
185.4809, 20.50194
185.9631, 20.85972
186.4452, 21.13915
186.9273, 21.12616
187.4094, 20.80137
187.8915, 20.31528
188.3736, 19.70518
188.8558, 18.96446
189.3379, 18.45402
189.8200, 18.25920
190.3021, 18.35224
190.7842, 18.72826
191.2663, 19.48011
191.7485, 20.14924
192.2306, 20.18856
192.7127, 19.54928
193.1948, 19.00131
193.6769, 18.72572
194.1591, 18.69174
194.6412, 18.78060
195.1233, 19.03432
195.6054, 19.28616
196.0875, 19.31695
196.5696, 19.07516
197.0518, 18.99146
197.5339, 19.29724
198.0160, 19.90202
198.4981, 19.87949
198.9802, 19.03061
199.4623, 18.02005
199.9445, 17.53153
200.4266, 17.65386
200.9087, 17.88074
201.3908, 18.11834
201.8729, 18.36517
202.3550, 18.66366
202.8372, 19.07788
203.3193, 19.41722
203.8014, 19.42476
204.2835, 18.97224
204.7656, 18.65664
205.2477, 18.64728
205.7299, 18.92930
206.2120, 19.15510
206.6941, 19.36882
207.1762, 19.46119
207.6583, 19.22886
208.1405, 18.45958
208.6226, 18.03436
209.1047, 18.28307
209.5868, 19.18144
210.0689, 19.55704
210.5510, 19.14873
211.0332, 18.61104
211.5153, 18.63647
211.9974, 19.49286
212.4795, 20.22127
212.9616, 20.66846
213.4437, 20.83724
213.9259, 20.61634
214.4080, 19.68319
214.8901, 18.78606
215.3722, 18.72030
215.8543, 19.91591
216.3364, 20.93988
216.8186, 21.57490
217.3007, 21.82144
217.7828, 21.74526
218.2649, 21.07301
218.7470, 20.41282
219.2291, 20.35091
219.7113, 21.20385
220.1934, 21.95837
220.6755, 22.43279
221.1576, 22.63640
221.6397, 22.89954
222.1218, 23.26051
222.6040, 23.62665
223.0861, 23.95012
223.5682, 24.31765
224.0503, 24.43274
224.5324, 24.08376
225.0146, 23.33439
225.4967, 23.15964
225.9788, 23.94867
226.4609, 24.84884
226.9430, 25.18094
227.4251, 24.60961
227.9073, 24.15867
228.3894, 23.95270
228.8715, 23.97851
229.3536, 24.11724
229.8357, 24.37042
230.3178, 24.73495
230.8000, 25.21313
231.2821, 25.81017
231.7642, 26.53728
232.2463, 27.61243
232.7284, 28.89910
233.2105, 29.36001
233.6927, 28.69617
234.1748, 27.57816
234.6569, 26.40877
235.1390, 25.20945
235.6211, 23.90264
236.1032, 22.36036
236.5854, 20.67686
237.0675, 19.29117
237.5496, 18.09651
238.0317, 17.33644
238.5138, 17.24154
238.9960, 18.24312
239.4781, 18.95615
239.9602, 19.20028
240.4423, 19.09702
240.9244, 19.10516
241.4065, 19.29206
241.8887, 19.49298
242.3708, 19.59474
242.8529, 19.46185
243.3350, 19.56816
243.8171, 20.04506
244.2992, 20.74884
244.7814, 21.26611
245.2635, 21.66723
245.7456, 21.77901
246.2277, 21.41626
246.7098, 20.15925
247.1919, 19.54251
247.6741, 19.85777
248.1562, 20.68293
248.6383, 20.97915
249.1204, 20.42273
249.6025, 19.92508
250.0846, 19.91704
250.5668, 20.60548
251.0489, 21.03758
251.5310, 21.07807
252.0131, 20.95288
252.4952, 21.13066
252.9774, 21.81487
253.4595, 22.37634
253.9416, 22.50584
254.4237, 22.04525
254.9058, 22.02398
255.3879, 22.64595
255.8701, 23.51114
256.3522, 23.99039
256.8343, 23.92071
257.3164, 23.87033
257.7985, 24.05090
258.2806, 24.50525
258.7628, 24.76876
259.2449, 24.80070
259.7270, 24.70541
260.2091, 24.65653
260.6912, 24.74685
261.1733, 24.58422
261.6555, 24.03245
262.1376, 23.09608
262.6197, 22.02210
263.1018, 20.71015
263.5839, 19.44693
264.0660, 18.47808
264.5482, 17.78540
265.0303, 17.52867
265.5124, 17.92656
265.9945, 18.86551
266.4766, 19.19212
266.9587, 18.75691
267.4409, 18.11384
267.9230, 17.76762
268.4051, 17.76164
268.8872, 17.75942
269.3693, 17.70571
269.8514, 17.60914
270.3336, 17.49212
270.8157, 17.34182
271.2978, 17.22535
271.7799, 17.19776
272.2620, 17.26200
272.7441, 17.37945
273.2263, 17.58377
273.7084, 17.80743
274.1905, 17.88047
274.6726, 17.80504
275.1548, 17.56690
275.6369, 16.97969
276.1190, 16.05977
276.6011, 15.67795
277.0832, 16.03340
277.5653, 16.76664
278.0475, 17.19813
278.5296, 17.31757
279.0117, 17.32479
279.4938, 17.35030
279.9759, 17.37492
280.4580, 17.18248
280.9402, 16.69914
281.4223, 16.17142
281.9044, 16.07288
282.3865, 16.37766
282.8686, 16.54052
283.3507, 16.10762
283.8329, 15.28273
284.3150, 14.99757
284.7971, 15.32478
285.2792, 15.84965
285.7613, 16.12956
286.2434, 16.18701
286.7256, 16.14475
287.2077, 15.92574
287.6898, 15.67262
288.1719, 15.81458
288.6540, 16.37370
289.1361, 16.94294
289.6183, 16.98139
290.1004, 16.68262
290.5825, 16.74414
291.0646, 17.75707
291.5467, 18.93637
292.0288, 18.72316
292.5110, 17.22431
292.9931, 15.70376
293.4752, 15.17054
293.9573, 15.34565
294.4394, 15.71921
294.9215, 16.32252
295.4037, 16.84671
295.8858, 16.77031
296.3679, 16.22548
296.8500, 15.81034
297.3321, 15.99590
297.8142, 16.52313
298.2964, 17.15032
298.7785, 18.00214
299.2606, 18.45839
299.7427, 17.39308
300.2248, 15.42028
300.7069, 14.09273
301.1891, 14.98562
301.6712, 16.54379
302.1533, 17.20816
302.6354, 16.69615
303.1176, 15.97309
303.5997, 15.54189
304.0818, 15.36631
304.5639, 15.37976
305.0460, 15.90751
305.5281, 16.35972
306.0103, 16.16543
306.4924, 15.29206
306.9745, 14.59954
307.4566, 14.60076
307.9387, 15.01299
308.4208, 15.52410
308.9030, 16.32546
309.3851, 16.94401
309.8672, 17.10298
310.3493, 16.84158
310.8314, 16.48830
311.3135, 16.12047
311.7957, 15.74010
312.2778, 15.33194
312.7599, 14.68221
313.2420, 14.27689
313.7241, 14.32718
314.2062, 14.74599
314.6884, 15.25925
315.1705, 16.11499
315.6526, 16.80164
316.1347, 17.00137
316.6168, 16.32241
317.0989, 15.88937
317.5811, 16.20048
318.0632, 16.82806
318.5453, 17.01297
319.0274, 15.97706
319.5095, 15.11046
319.9916, 14.90918
320.4738, 15.61842
320.9559, 16.15682
321.4380, 16.42186
321.9201, 16.53102
322.4022, 16.60639
322.8843, 16.65140
323.3665, 16.65796
323.8486, 16.62605
324.3307, 16.55631
324.8128, 16.43216
325.2949, 16.15537
325.7770, 15.91295
326.2592, 15.87466
326.7413, 16.26791
327.2234, 16.42014
327.7055, 16.18075
328.1876, 15.64605
328.6697, 15.22702
329.1519, 14.92162
329.6340, 14.73472
330.1161, 14.65478
330.5982, 14.65838
331.0803, 14.89969
331.5625, 15.52494
332.0446, 16.26287
332.5267, 16.51447
333.0088, 16.14409
333.4909, 15.80570
333.9731, 15.90429
334.4552, 16.45431
334.9373, 16.22315
335.4194, 14.95337
335.9015, 13.57904
336.3836, 13.48195
336.8658, 14.70378
337.3479, 15.67661
337.8300, 15.84690
338.3121, 15.43694
338.7942, 15.32283
339.2763, 15.53804
339.7585, 15.71738
340.2406, 15.41305
340.7227, 14.74811
341.2048, 14.35408
341.6869, 14.41381
342.1690, 14.72823
342.6512, 14.99812
343.1333, 15.22715
343.6154, 15.44901
344.0975, 15.81150
344.5796, 16.16625
345.0617, 16.10592
345.5439, 15.49639
346.0260, 14.88936
346.5081, 15.07991
346.9902, 15.76787
347.4723, 16.18642
347.9544, 15.69379
348.4366, 14.89812
348.9187, 14.45197
349.4008, 14.37824
349.8829, 14.41534
350.3650, 14.45410
350.8471, 14.47042
351.3293, 14.43282
351.8114, 14.29585
352.2935, 14.13537
352.7756, 13.90007
353.2577, 13.64288
353.7398, 13.61423
354.2220, 14.27357
354.7041, 15.00578
355.1862, 15.31278
355.6683, 14.88199
356.1504, 14.46227
356.6325, 14.36975
357.1147, 14.45994
357.5968, 14.45201
358.0789, 14.02224
358.5610, 13.69396
359.0431, 13.75132
359.5252, 14.33479
360.0074, 14.73009
360.4895, 14.76208
360.9716, 14.59660
361.4537, 14.40281
361.9359, 14.02913
362.4180, 13.80739
362.9001, 13.81925
363.3822, 14.05440
363.8643, 14.31317
364.3464, 14.65220
364.8286, 14.96099
365.3107, 15.18863
365.7928, 15.39316
366.2749, 15.38265
366.7570, 15.02609
367.2391, 14.49250
367.7213, 14.22761
368.2034, 14.33758
368.6855, 14.48227
369.1676, 14.53002
369.6497, 14.47370
370.1318, 14.35631
370.6140, 14.13104
371.0961, 13.93235
371.5782, 14.00984
372.0603, 14.40272
372.5424, 14.62245
373.0245, 14.44094
373.5067, 13.99744
373.9888, 13.94815
374.4709, 14.33782
374.9530, 14.68380
375.4351, 14.41836
375.9172, 13.70648
376.3994, 13.42125
376.8815, 13.82308
377.3636, 14.45902
377.8457, 14.61768
378.3278, 14.36421
378.8099, 14.04383
379.2921, 13.79268
379.7742, 13.61484
380.2563, 13.54663
380.7384, 13.59780
381.2205, 13.66388
381.7026, 13.60284
382.1848, 13.49812
382.6669, 13.49757
383.1490, 13.87467
383.6311, 14.20300
384.1132, 14.04054
384.5953, 13.47287
385.0775, 13.01036
385.5596, 13.06088
386.0417, 13.26180
386.5238, 13.28019
387.0059, 12.86832
387.4880, 12.62676
387.9702, 12.90031
388.4523, 13.49549
388.9344, 14.04232
389.4165, 14.63594
389.8987, 14.98702
390.3808, 14.86877
390.8629, 14.13878
391.3450, 13.67288
391.8271, 13.88496
392.3092, 14.25574
392.7914, 14.31141
393.2735, 13.62785
393.7556, 13.13617
394.2377, 12.98032
394.7198, 13.11497
395.2019, 13.27051
395.6841, 13.56513
396.1662, 13.72636
396.6483, 13.52692
397.1304, 12.62430
397.6125, 12.40377
398.0946, 13.14013
398.5768, 14.27603
399.0589, 14.84158
399.5410, 14.71540
400.0231, 14.55115
400.5052, 14.59757
400.9873, 14.80462
401.4695, 14.71958
401.9516, 14.28779
402.4337, 13.84712
402.9158, 13.70566
403.3979, 13.84102
403.8800, 14.10718
404.3622, 14.56433
404.8443, 14.99219
405.3264, 14.93025
405.8085, 14.44251
406.2906, 13.92595
406.7727, 13.66520
407.2549, 13.52196
407.7370, 13.25075
408.2191, 12.82656
408.7012, 12.40434
409.1833, 11.85197
409.6654, 11.43897
410.1476, 11.63163
410.6297, 13.52201
411.1118, 15.28119
411.5939, 15.32118
412.0760, 13.96972
412.5581, 12.80425
413.0403, 12.77527
413.5224, 13.07456
414.0045, 13.10332
414.4866, 12.58737
414.9687, 12.20776
415.4508, 12.23238
415.9330, 12.50094
416.4151, 12.77171
416.8972, 13.16152
417.3793, 13.38903
417.8614, 13.24046
418.3436, 12.65916
418.8257, 12.47547
419.3078, 13.07334
419.7899, 13.75962
420.2720, 14.08462
420.7542, 13.98974
421.2363, 13.61324
421.7184, 12.74772
422.2005, 11.68100
422.6826, 11.18960
423.1647, 11.43223
423.6469, 11.82490
424.1290, 12.20543
424.6111, 12.57567
425.0932, 12.61760
425.5753, 12.23543
426.0574, 11.81975
426.5396, 11.85210
427.0217, 12.30851
427.5038, 12.72273
427.9859, 13.02099
428.4680, 13.18353
428.9501, 13.06279
429.4323, 12.69565
429.9144, 12.44346
430.3965, 12.69248
430.8786, 13.17484
431.3607, 13.35864
431.8428, 13.15792
432.3250, 12.96025
432.8071, 13.17775
433.2892, 13.62434
433.7713, 13.98571
434.2534, 14.32873
434.7355, 14.38527
435.2177, 13.66964
435.6998, 12.38729
436.1819, 11.55062
436.6640, 11.95569
437.1461, 12.71683
437.6282, 13.28625
438.1104, 13.58189
438.5925, 13.67342
439.0746, 13.32705
439.5567, 12.85141
440.0388, 12.67791
440.5209, 13.22375
441.0031, 13.67926
441.4852, 13.89551
441.9673, 13.87632
442.4494, 13.72378
442.9315, 13.35884
443.4136, 12.95752
443.8958, 12.60029
444.3779, 12.23840
444.8600, 12.08727
445.3421, 12.21743
445.8242, 12.49637
446.3063, 12.66549
446.7885, 12.70720
447.2706, 12.77292
447.7527, 12.97466
448.2348, 13.25105
448.7169, 13.22128
449.1991, 12.85911
449.6812, 12.50062
450.1633, 12.45393
450.6454, 12.64987
451.1275, 12.89972
451.6096, 13.22424
452.0918, 13.44389
452.5739, 13.14131
453.0560, 12.52619
453.5381, 12.19122
454.0202, 12.67011
454.5023, 13.40511
454.9845, 13.95098
455.4666, 14.28844
455.9487, 14.43454
456.4308, 14.25855
456.9129, 13.96945
457.3951, 13.74130
457.8772, 13.51723
458.3593, 13.49929
458.8414, 14.04861
459.3235, 14.83427
459.8056, 15.13185
460.2878, 13.96483
460.7699, 13.13712
461.2520, 13.54446
461.7341, 15.49544
462.2162, 15.96649
462.6983, 13.81039
463.1805, 11.35624
463.6626, 10.52946
464.1447, 12.05846
464.6268, 13.11610
465.1089, 13.36155
465.5910, 13.08845
466.0732, 12.92247
466.5553, 12.86144
467.0374, 12.92108
467.5195, 13.21183
468.0016, 13.65125
468.4837, 13.71354
468.9659, 13.36891
469.4480, 12.97373
469.9301, 12.93336
470.4122, 13.11281
470.8943, 13.08332
471.3764, 12.66516
471.8586, 12.22538
472.3407, 12.18332
472.8228, 12.44981
473.3049, 12.79150
473.7870, 13.24405
474.2691, 13.61683
474.7513, 13.73037
475.2334, 13.58495
475.7155, 13.39139
476.1976, 13.07476
476.6797, 12.84657
477.1619, 12.90145
477.6440, 13.69958
478.1261, 14.15604
478.6082, 13.83741
479.0903, 13.07293
479.5724, 12.52862
480.0546, 12.22136
480.5367, 12.14836
481.0188, 12.40530
481.5009, 13.00062
481.9830, 13.36186
482.4651, 13.43341
482.9473, 13.35957
483.4294, 13.17767
483.9115, 12.83313
484.3936, 12.80349
484.8757, 13.23775
485.3578, 13.79785
485.8400, 13.85516
486.3221, 13.42630
486.8042, 12.94917
487.2863, 12.54987
487.7684, 12.22954
488.2505, 11.97804
488.7327, 11.79737
489.2148, 11.74615
489.6969, 11.98117
490.1790, 12.32946
490.6611, 12.53983
491.1432, 12.53445
491.6254, 12.52324
492.1075, 12.68699
492.5896, 12.92833
493.0717, 13.10635
493.5538, 13.22087
494.0359, 13.21153
494.5181, 12.94490
495.0002, 12.47996
495.4823, 12.19378
495.9644, 12.25422
496.4465, 12.43328
496.9286, 12.66123
497.4108, 13.03611
497.8929, 13.17605
498.3750, 12.95204
498.8571, 12.60365
499.3392, 12.42667
499.8214, 12.49722
500.3035, 12.49110
500.7856, 12.33190
501.2677, 12.06658
501.7498, 11.77182
502.2319, 11.41840
502.7141, 11.33076
503.1962, 11.93698
503.6783, 12.98384
504.1604, 13.43765
504.6425, 13.23900
505.1246, 12.87496
505.6068, 12.69535
506.0889, 12.70400
506.5710, 12.96320
507.0531, 13.69531
507.5352, 14.29586
508.0174, 14.13323
508.4995, 13.45938
508.9816, 12.84371
509.4637, 12.49374
509.9458, 12.29834
510.4279, 12.25577
510.9101, 12.36496
511.3922, 12.42596
511.8743, 12.33406
512.3564, 12.22088
512.8385, 12.17635
513.3206, 12.27328
513.8027, 12.31713
514.2849, 12.29628
514.7670, 12.22905
515.2491, 12.13433
515.7312, 11.99364
516.2133, 11.87515
516.6954, 11.76379
517.1776, 11.69169
517.6597, 11.86458
518.1418, 12.30535
518.6239, 12.74620
519.1060, 12.98765
519.5881, 13.07748
520.0703, 13.24384
520.5524, 13.52529
521.0345, 13.69941
521.5167, 13.31404
521.9988, 12.68903
522.4809, 12.47018
522.9630, 13.13195
523.4451, 13.87912
523.9272, 14.17075
524.4094, 14.07970
524.8915, 13.78644
525.3736, 13.13349
525.8557, 12.49616
526.3378, 12.02526
526.8199, 11.73937
527.3021, 11.58564
527.7842, 11.74676
528.2663, 11.90641
528.7484, 11.84374
529.2305, 11.26377
529.7126, 11.03397
530.1948, 11.31106
530.6769, 11.82815
531.1590, 12.16719
531.6411, 12.32655
532.1232, 12.30587
532.6053, 12.00092
533.0875, 11.55719
533.5696, 11.54171
534.0517, 11.95587
534.5338, 12.43327
535.0159, 12.70447
535.4980, 12.86560
535.9802, 13.20656
536.4623, 13.77428
536.9444, 14.16743
537.4265, 13.82366
537.9086, 13.16122
538.3907, 12.76490
538.8729, 12.95581
539.3550, 13.22768
539.8371, 13.41431
540.3192, 13.50027
540.8013, 13.44653
541.2834, 13.22822
541.7656, 12.88268
542.2477, 12.23259
542.7298, 11.26035
543.2119, 10.96001
543.6940, 11.81963
544.1761, 12.76902
544.6583, 13.15415
545.1404, 12.79266
545.6225, 12.58928
546.1046, 12.60101
546.5867, 12.68569
547.0688, 12.64294
547.5510, 12.47809
548.0331, 12.32822
548.5152, 12.20784
548.9973, 12.14961
549.4794, 12.31286
549.9615, 12.63149
550.4437, 12.79214
550.9258, 12.40506
551.4079, 11.88960
551.8900, 11.71988
552.3721, 11.90807
552.8542, 12.16732
553.3364, 12.52698
553.8185, 12.77946
554.3006, 12.70047
554.7827, 11.92943
555.2648, 11.47307
555.7469, 11.83215
556.2291, 12.51093
556.7112, 12.78427
557.1933, 12.29628
557.6754, 11.95378
558.1575, 11.93017
558.6396, 12.15997
559.1218, 12.37805
559.6039, 12.57269
560.0860, 12.79482
560.5681, 13.14792
561.0502, 13.58671
561.5323, 13.66964
562.0145, 13.37875
562.4966, 12.98070
562.9787, 12.73613
563.4608, 12.56401
563.9429, 12.24125
564.4250, 11.63972
564.9072, 11.17240
565.3893, 11.32835
565.8714, 11.82578
566.3535, 12.21958
566.8356, 12.42687
567.3177, 12.40977
567.7999, 11.88925
568.2820, 11.05279
568.7641, 10.69552
569.2462, 11.36070
569.7283, 12.15390
570.2104, 12.87327
570.6926, 13.56895
571.1747, 13.64946
571.6568, 12.75805
572.1389, 11.83559
572.6210, 11.71633
573.1031, 12.47830
573.5853, 13.04758
574.0674, 13.33758
574.5495, 13.39721
575.0316, 13.14332
575.5137, 12.66840
575.9958, 12.41407
576.4780, 12.66698
576.9601, 13.05320
577.4422, 13.18118
577.9243, 13.06780
578.4065, 12.76971
578.8886, 11.97317
579.3707, 11.27106
579.8528, 11.18367
580.3350, 11.75790
580.8171, 12.10515
581.2992, 11.66393
581.7813, 11.14933
582.2634, 11.04281
582.7455, 11.65598
583.2277, 12.01149
583.7098, 11.88194
584.1919, 11.70361
584.6740, 12.18867
585.1561, 13.56896
585.6382, 14.31040
586.1204, 13.96314
586.6025, 13.00850
587.0846, 12.40146
587.5667, 12.13121
588.0488, 12.08767
588.5309, 12.41017
589.0131, 12.83765
589.4952, 12.87011
589.9773, 12.56194
590.4594, 12.38269
590.9415, 12.87918
591.4236, 13.47270
591.9058, 13.60881
592.3879, 13.07658
592.8700, 12.69900
593.3521, 12.94090
593.8342, 13.33230
594.3163, 13.41952
594.7985, 12.86312
595.2806, 12.49022
595.7627, 12.41388
596.2448, 12.49895
596.7269, 12.46137
597.2090, 12.24700
597.6912, 12.17429
598.1733, 12.42438
598.6554, 12.83125
599.1375, 12.76891
599.6196, 12.26301
600.1017, 11.86690
600.5839, 12.12603
601.0660, 12.64751
601.5481, 12.71705
602.0302, 12.31720
602.5123, 11.99345
602.9944, 12.26905
603.4766, 12.69996
603.9587, 12.84719
604.4408, 12.47447
604.9229, 12.20250
605.4050, 12.26783
605.8871, 12.49426
606.3693, 12.67199
606.8514, 12.76170
607.3335, 12.85194
607.8156, 12.96202
608.2977, 13.07255
608.7798, 13.12912
609.2620, 13.11774
609.7441, 13.13124
610.2262, 13.25942
610.7083, 13.42127
611.1904, 13.21396
611.6725, 12.66379
612.1547, 12.29627
612.6368, 12.78705
613.1189, 13.53012
613.6010, 13.56917
614.0831, 12.80652
614.5652, 12.06103
615.0474, 11.79311
615.5295, 11.78641
616.0116, 11.86755
616.4937, 12.13471
616.9758, 12.23412
617.4579, 11.89383
617.9401, 11.44074
618.4222, 11.28268
618.9043, 11.52240
619.3864, 11.87150
619.8685, 12.36843
620.3506, 12.89393
620.8328, 13.06150
621.3149, 12.83858
621.7970, 12.70326
622.2791, 12.89743
622.7612, 13.30023
623.2433, 13.66679
623.7255, 13.98597
624.2076, 14.18733
624.6897, 14.15484
625.1718, 14.01935
625.6539, 13.97666
626.1360, 14.06192
626.6182, 13.91582
627.1003, 12.97256
627.5824, 11.98593
628.0645, 11.53991
628.5466, 12.07592
629.0287, 12.53851
629.5109, 12.98426
629.9930, 13.28370
630.4751, 13.22054
630.9572, 12.65576
631.4393, 12.22416
631.9214, 12.01137
632.4036, 12.01569
632.8857, 12.36567
633.3678, 13.02137
633.8499, 13.48391
634.3320, 13.43439
634.8141, 13.15365
635.2963, 13.07438
635.7784, 13.15134
636.2606, 13.18996
636.7427, 13.08826
637.2248, 12.90525
637.7069, 12.65538
638.1890, 12.33567
638.6711, 12.04625
639.1533, 11.51525
639.6354, 11.26449
640.1175, 11.67494
640.5996, 13.19310
641.0817, 14.00924
641.5638, 13.93212
642.0460, 13.46453
642.5281, 13.06312
643.0102, 12.72730
643.4923, 12.61526
643.9744, 12.80125
644.4565, 13.06666
644.9387, 13.04649
645.4208, 12.84637
645.9029, 12.78224
646.3850, 13.11063
646.8671, 13.45575
647.3492, 13.43951
647.8314, 13.20308
648.3135, 13.10562
648.7956, 13.55595
649.2777, 13.89429
649.7598, 13.73119
650.2419, 13.10786
650.7241, 12.89182
651.2062, 13.41523
651.6883, 13.83198
652.1704, 13.66029
652.6525, 12.88406
653.1346, 12.51335
653.6168, 12.57976
654.0989, 12.86864
654.5810, 13.38591
655.0631, 13.97357
655.5452, 14.09423
656.0273, 13.63014
656.5095, 13.14001
656.9916, 13.16679
657.4737, 13.43348
657.9558, 13.58512
658.4379, 13.44980
658.9200, 13.32564
659.4022, 13.29731
659.8843, 13.34395
660.3664, 13.44493
660.8485, 13.78309
661.3306, 13.86330
661.8127, 13.46381
662.2949, 12.83138
662.7770, 12.73561
663.2591, 13.25340
663.7412, 13.68941
664.2233, 13.75271
664.7054, 13.56623
665.1876, 13.39257
665.6697, 13.23828
666.1518, 13.15040
666.6339, 13.26523
667.1160, 13.39169
667.5981, 13.27823
668.0803, 12.92647
668.5624, 12.70725
669.0445, 12.87343
669.5266, 13.14036
670.0087, 13.32141
670.4908, 13.34436
670.9730, 13.50811
671.4551, 13.96031
671.9372, 14.36893
672.4193, 14.44011
672.9014, 14.14506
673.3835, 13.72244
673.8657, 13.12858
674.3478, 12.62119
674.8299, 12.66092
675.3120, 13.06842
675.7941, 13.25384
676.2762, 12.93743
676.7584, 12.64636
677.2405, 12.87226
677.7226, 13.43976
678.2047, 14.04196
678.6868, 15.10295
679.1689, 15.60313
679.6511, 14.71897
680.1332, 12.99006
680.6153, 12.16391
681.0974, 12.67906
681.5795, 13.35194
682.0616, 13.97368
682.5438, 14.48273
683.0259, 14.47446
683.5080, 13.91715
683.9901, 13.35355
684.4722, 13.15256
684.9543, 13.15058
685.4365, 12.95534
685.9186, 12.58909
686.4007, 12.31982
686.8828, 12.37855
687.3649, 12.56960
687.8470, 12.70674
688.3292, 12.74272
688.8113, 12.94497
689.2934, 13.79446
689.7755, 14.50964
690.2576, 14.54659
690.7397, 13.51966
691.2219, 12.92161
691.7040, 12.85769
692.1861, 13.02418
692.6682, 13.15491
693.1503, 13.24243
693.6324, 13.11790
694.1146, 12.67015
694.5967, 12.34015
695.0789, 12.91093
695.5610, 13.92870
696.0431, 14.52308
696.5252, 14.11825
697.0073, 13.67551
697.4894, 13.79457
697.9716, 14.19337
698.4537, 14.36996
698.9358, 13.82493
699.4179, 13.58883
699.9000, 14.01463
700.3821, 14.78627
700.8643, 14.92993
701.3464, 14.32575
701.8285, 13.72253
702.3106, 13.30603
702.7927, 13.12567
703.2748, 13.49036
703.7570, 14.30116
704.2391, 14.94420
704.7212, 15.04776
705.2033, 14.82112
705.6854, 14.26573
706.1675, 13.46305
706.6497, 12.99287
707.1318, 13.41731
707.6139, 13.94046
708.0960, 14.10954
708.5781, 13.86985
709.0602, 13.90076
709.5424, 14.43281
710.0245, 14.80637
710.5066, 14.44985
710.9887, 13.38287
711.4708, 12.69238
711.9529, 12.37964
712.4351, 12.50428
712.9172, 13.60365
713.3993, 15.01854
713.8814, 15.57734
714.3635, 15.00119
714.8456, 14.22164
715.3278, 13.54273
715.8099, 13.06517
716.2920, 12.90131
716.7741, 13.23058
717.2562, 13.62385
717.7383, 14.18977
718.2205, 14.70084
718.7026, 14.83054
719.1847, 14.48605
719.6668, 14.30994
720.1489, 14.41078
720.6310, 14.64702
721.1132, 14.89586
721.5953, 15.10800
722.0774, 15.07473
722.5595, 14.59395
723.0416, 14.09035
723.5237, 13.94721
724.0059, 14.03163
724.4880, 14.10483
724.9701, 13.99480
725.4522, 13.97538
725.9343, 14.36336
726.4164, 14.86094
726.8986, 14.65276
727.3807, 13.34521
727.8628, 12.38441
728.3449, 12.21631
728.8270, 12.64073
729.3091, 13.18353
729.7913, 13.83106
730.2734, 14.44816
730.7555, 15.13755
731.2376, 15.64673
731.7197, 15.56534
732.2018, 15.00704
732.6840, 14.43813
733.1661, 13.82825
733.6482, 13.47590
734.1303, 13.67453
734.6124, 14.40598
735.0945, 14.80122
735.5767, 14.66787
736.0588, 14.54492
736.5409, 14.77667
737.0230, 15.28690
737.5051, 15.02389
737.9872, 13.94907
738.4694, 13.15157
738.9515, 13.74133
739.4336, 14.99343
739.9157, 15.76612
740.3978, 16.01137
740.8799, 15.95929
741.3621, 15.60807
741.8442, 15.10228
742.3263, 14.42407
742.8084, 13.41312
743.2905, 13.02383
743.7726, 13.61142
744.2548, 14.39271
744.7369, 14.93548
745.2190, 15.26238
745.7011, 14.97549
746.1832, 13.96064
746.6653, 12.99266
747.1475, 12.95675
747.6296, 13.50240
748.1117, 13.89235
748.5938, 13.99953
749.0759, 14.16844
749.5580, 14.96097
750.0402, 15.72958
750.5223, 15.81334
751.0044, 14.45825
751.4865, 13.75358
751.9686, 14.11439
752.4508, 14.85631
752.9329, 15.38462
753.4150, 15.68476
753.8972, 15.85132
754.3793, 15.89459
754.8614, 15.79337
755.3435, 15.49334
755.8256, 15.03000
756.3077, 14.40542
756.7899, 13.46678
757.2720, 12.86301
757.7541, 13.37954
758.2362, 14.36873
758.7183, 15.04794
759.2004, 14.96556
759.6826, 14.92821
760.1647, 14.99619
760.6468, 15.13160
761.1289, 15.30376
761.6110, 15.53159
762.0931, 15.67325
762.5753, 15.69040
763.0574, 15.64707
763.5395, 15.67265
764.0216, 15.71863
764.5037, 15.61303
764.9858, 15.11061
765.4680, 14.79009
765.9501, 15.34486
766.4322, 16.26830
766.9143, 16.74071
767.3964, 16.35538
767.8785, 15.77900
768.3607, 14.93342
768.8428, 14.03491
769.3249, 13.49787
769.8070, 13.34941
770.2891, 13.36494
770.7712, 13.51268
771.2534, 13.75607
771.7355, 14.05249
772.2176, 14.39482
772.6997, 14.76915
773.1818, 15.26285
773.6639, 15.66936
774.1461, 15.80356
774.6282, 15.76324
775.1103, 15.75605
775.5924, 15.95407
776.0745, 16.00324
776.5566, 15.73948
777.0388, 15.35118
777.5209, 15.41943
778.0030, 16.00949
778.4851, 16.24917
778.9672, 15.74854
779.4493, 14.93223
779.9315, 14.35603
780.4136, 14.04545
780.8957, 14.05559
781.3778, 14.82029
781.8599, 15.50199
782.3420, 15.55833
782.8242, 15.20654
783.3063, 15.05361
783.7884, 15.23815
784.2705, 15.51233
784.7526, 15.89805
785.2347, 16.30471
785.7169, 16.40487
786.1990, 16.19745
786.6811, 16.11252
787.1632, 16.46698
787.6453, 16.83050
788.1274, 16.30295
788.6096, 15.25154
789.0917, 14.67047
789.5738, 15.58818
790.0559, 16.44964
790.5380, 16.53411
791.0201, 16.03915
791.5023, 15.68645
791.9844, 15.51854
792.4665, 15.43296
792.9486, 15.42271
793.4307, 15.46527
793.9128, 15.51288
794.3950, 15.56331
794.8771, 15.59359
795.3592, 15.59191
795.8413, 15.56878
796.3234, 15.55643
796.8055, 15.53210
797.2877, 15.44008
797.7698, 14.94000
798.2519, 14.72419
798.7340, 15.40423
799.2161, 16.47945
799.6982, 16.61884
800.1804, 15.42687
800.6625, 14.59920
801.1446, 14.64957
801.6267, 15.24481
802.1088, 15.77616
802.5909, 16.22662
803.0731, 16.52680
803.5552, 16.71337
804.0373, 16.66229
804.5194, 15.92916
805.0015, 14.91469
805.4836, 14.47932
805.9658, 15.62969
806.4479, 16.39264
806.9300, 16.28249
807.4121, 15.64370
807.8942, 15.24850
808.3763, 15.10717
808.8585, 15.09262
809.3406, 15.19095
809.8227, 15.36105
810.3049, 15.61746
810.7870, 15.89046
811.2691, 16.00419
811.7512, 15.67866
812.2333, 15.42850
812.7155, 15.72611
813.1976, 16.22997
813.6797, 16.23470
814.1618, 15.21940
814.6439, 14.68134
815.1260, 14.99683
815.6082, 15.67399
816.0903, 15.67120
816.5724, 15.07862
817.0545, 14.86340
817.5366, 15.41749
818.0187, 16.08900
818.5009, 16.05372
818.9830, 15.66748
819.4651, 15.51346
819.9472, 16.23532
820.4293, 16.58889
820.9114, 15.73571
821.3936, 14.65841
821.8757, 14.70207
822.3578, 16.32668
822.8399, 17.07426
823.3220, 16.42049
823.8041, 15.34713
824.2863, 15.33791
824.7684, 16.05271
825.2505, 16.62433
825.7326, 16.85810
826.2147, 16.84910
826.6968, 16.42068
827.1790, 15.89655
827.6611, 15.62956
828.1432, 15.90086
828.6253, 16.13146
829.1074, 16.41262
829.5895, 16.53652
830.0717, 16.11429
830.5538, 15.17851
831.0359, 14.75271
831.5180, 14.97778
832.0001, 15.45891
832.4822, 16.04216
832.9644, 16.53210
833.4465, 16.59571
833.9286, 16.05482
834.4107, 15.62308
834.8928, 15.69926
835.3749, 15.85286
835.8571, 15.73731
836.3392, 15.22969
836.8213, 15.03344
837.3034, 15.21743
837.7855, 15.45435
838.2676, 15.38171
838.7498, 15.15108
839.2319, 15.20917
839.7140, 15.58274
840.1961, 15.94896
840.6782, 16.23543
841.1603, 16.33080
841.6425, 16.07880
842.1246, 15.39802
842.6067, 14.87863
843.0888, 14.48385
843.5709, 14.35471
844.0530, 14.70110
844.5352, 15.43083
845.0173, 15.62781
845.4994, 15.31337
845.9815, 15.16980
846.4636, 16.10590
846.9457, 17.13842
847.4279, 17.05989
847.9100, 16.01395
848.3921, 15.27469
848.8742, 15.65206
849.3563, 15.97276
849.8384, 15.75320
850.3206, 15.12792
850.8027, 14.94259
851.2848, 15.26166
851.7669, 15.44613
852.2490, 15.03580
852.7311, 14.50249
853.2133, 14.89640
853.6954, 15.92358
854.1775, 16.69183
854.6596, 16.75409
855.1417, 16.47384
855.6238, 15.72828
856.1060, 14.76834
856.5881, 14.29593
857.0702, 14.54874
857.5523, 14.66096
858.0344, 14.42301
858.5165, 14.01738
858.9987, 13.67402
859.4808, 13.43628
859.9629, 13.48887
860.4450, 13.97497
860.9271, 14.58069
861.4092, 15.20761
861.8914, 15.76284
862.3735, 16.13154
862.8556, 16.39440
863.3377, 16.25523
863.8198, 15.43233
864.3019, 14.55159
864.7841, 14.53823
865.2662, 15.31789
865.7483, 15.53620
866.2304, 14.96898
866.7125, 14.26539
867.1946, 13.95977
867.6768, 13.92609
868.1589, 14.05714
868.6411, 14.38625
869.1232, 14.64833
869.6053, 14.82257
870.0874, 14.86087
870.5695, 14.64360
871.0516, 14.11748
871.5338, 14.11601
872.0159, 14.69777
872.4980, 15.24435
872.9801, 15.23967
873.4622, 14.90222
873.9443, 14.51703
874.4265, 14.10827
874.9086, 13.74425
875.3907, 13.26363
875.8728, 13.02460
876.3549, 13.36104
876.8370, 14.15937
877.3192, 14.61524
877.8013, 14.70555
878.2834, 14.55293
878.7655, 14.06462
879.2476, 13.48605
879.7297, 13.37039
880.2119, 13.63891
880.6940, 14.02106
881.1761, 14.78517
881.6582, 15.19633
882.1403, 14.55998
882.6224, 13.35241
883.1046, 12.74967
883.5867, 13.05641
884.0688, 13.28969
884.5509, 13.28863
885.0330, 13.14999
885.5151, 12.95867
885.9973, 12.75774
886.4794, 12.73918
886.9615, 13.02534
887.4436, 13.26832
887.9257, 13.12920
888.4078, 12.85387
888.8900, 12.71759
889.3721, 12.89623
889.8542, 12.91668
890.3363, 12.67229
890.8184, 12.45277
891.3005, 12.53978
891.7827, 12.89555
892.2648, 13.34284
892.7469, 13.86836
893.2290, 14.22768
893.7111, 14.10599
894.1932, 13.82899
894.6754, 13.72910
895.1575, 13.85097
895.6396, 13.68484
896.1217, 12.92264
896.6038, 12.27237
897.0859, 12.02888
897.5681, 12.13269
898.0502, 12.28689
898.5323, 12.48556
899.0144, 12.64742
899.4965, 12.69075
899.9786, 12.70854
900.4608, 12.81088
900.9429, 12.96003
901.4250, 13.05739
901.9071, 12.94797
902.3892, 12.97063
902.8713, 13.31139
903.3535, 13.70537
903.8356, 13.56375
904.3177, 12.91026
904.7998, 12.41534
905.2819, 12.25358
905.7640, 12.20053
906.2462, 12.00577
906.7283, 11.77524
907.2104, 11.63319
907.6925, 11.56046
908.1746, 11.71991
908.6567, 12.42392
909.1389, 13.06096
909.6210, 13.06215
910.1031, 12.37988
910.5852, 12.10298
911.0673, 12.26533
911.5494, 12.65519
912.0316, 13.44984
912.5137, 14.16153
912.9958, 14.00889
913.4779, 13.01755
913.9600, 12.39373
914.4421, 13.00658
914.9243, 13.47264
915.4064, 13.23568
915.8885, 12.47712
916.3706, 12.18445
916.8527, 12.36360
917.3348, 12.45996
917.8170, 12.13245
918.2991, 11.74050
918.7812, 11.76406
919.2633, 12.05997
919.7454, 12.33783
920.2275, 12.36176
920.7097, 12.57074
921.1918, 13.30735
921.6739, 14.03078
922.1560, 13.84774
922.6381, 12.73045
923.1202, 12.08305
923.6024, 12.12251
924.0845, 12.41164
924.5666, 12.66426
925.0487, 12.82443
925.5308, 12.81659
926.0129, 12.61460
926.4951, 12.31934
926.9772, 11.78587
927.4594, 11.34424
927.9415, 11.14430
928.4236, 11.18376
928.9057, 11.59570
929.3878, 12.38666
929.8699, 12.86187
930.3521, 12.13609
930.8342, 11.20842
931.3163, 11.31656
931.7984, 12.16936
932.2805, 12.75776
932.7626, 12.69928
933.2448, 12.43177
933.7269, 11.88348
934.2090, 11.30761
934.6911, 11.38443
935.1732, 12.06373
935.6553, 12.34337
936.1375, 11.86669
936.6196, 11.38306
937.1017, 11.94540
937.5838, 12.81003
938.0659, 12.97472
938.5480, 11.67395
939.0302, 11.23296
939.5123, 12.36860
939.9944, 13.61459
940.4765, 13.81887
940.9586, 13.06157
941.4407, 12.73684
941.9229, 12.83809
942.4050, 12.90551
942.8871, 12.39176
943.3692, 11.88796
943.8513, 12.10946
944.3334, 12.90391
944.8156, 13.06070
945.2977, 11.95102
945.7798, 11.10087
946.2619, 10.89406
946.7440, 11.14630
947.2261, 11.61694
947.7083, 12.21427
948.1904, 12.43699
948.6725, 11.97567
949.1546, 11.45676
949.6367, 11.16420
950.1188, 11.15950
950.6010, 11.57193
951.0831, 12.83663
951.5652, 13.50145
952.0473, 13.41564
952.5294, 13.07236
953.0115, 12.87792
953.4937, 12.78214
953.9758, 12.60598
954.4579, 12.35113
954.9400, 12.16371
955.4221, 12.15815
955.9042, 12.21983
956.3864, 12.32267
956.8685, 12.44324
957.3506, 12.46651
957.8327, 12.38188
958.3148, 12.22249
958.7969, 11.94829
959.2791, 11.68262
959.7612, 11.69507
960.2433, 11.88764
960.7254, 12.02905
961.2075, 12.02312
961.6896, 11.99656
962.1718, 11.99162
962.6539, 11.99214
963.1360, 11.99225
963.6181, 12.00621
964.1002, 11.90920
964.5823, 11.67587
965.0645, 11.50171
965.5466, 11.65897
966.0287, 11.92625
966.5108, 11.94261
966.9929, 11.72146
967.4750, 11.63609
967.9572, 11.97414
968.4393, 12.28616
968.9214, 12.43838
969.4035, 12.46310
969.8856, 12.50980
970.3677, 12.57131
970.8499, 12.39824
971.3320, 11.81650
971.8141, 11.19180
972.2962, 10.74600
972.7783, 10.54145
973.2604, 10.69528
973.7426, 11.68613
974.2247, 12.12436
974.7068, 11.71214
975.1889, 11.16250
975.6710, 11.10990
976.1531, 11.45294
976.6353, 11.65223
977.1174, 11.68925
977.5995, 11.55396
978.0816, 10.84782
978.5637, 10.31969
979.0458, 10.66532
979.5280, 11.72339
980.0101, 12.36763
980.4922, 12.53787
980.9743, 12.43082
981.4564, 12.01605
981.9385, 11.49598
982.4207, 11.20482
982.9028, 11.09056
983.3849, 11.03885
983.8670, 11.01045
984.3491, 11.06508
984.8313, 11.36376
985.3134, 11.64839
985.7955, 11.66026
986.2776, 11.33536
986.7598, 11.44010
987.2419, 12.02302
987.7240, 12.47064
988.2061, 12.20722
988.6882, 11.65392
989.1703, 11.27287
989.6525, 11.06048
990.1346, 10.94809
990.6167, 11.04918
991.0988, 11.06295
991.5809, 10.86652
992.0630, 10.62206
992.5452, 10.67495
993.0273, 10.98258
993.5094, 11.19728
993.9915, 11.23796
994.4736, 11.23428
994.9557, 11.21756
995.4379, 11.25361
995.9200, 11.48019
996.4021, 12.01597
996.8842, 11.99729
997.3663, 11.08805
997.8484, 10.58961
998.3306, 11.58772
998.8127, 13.28144
999.2948, 13.61545
999.7769, 12.88269
1000.259, 12.10647
1000.741, 11.58287
1001.223, 11.31692
1001.705, 11.41044
1002.188, 11.70937
1002.670, 12.11295
1003.152, 12.67529
1003.634, 12.72009
1004.116, 12.10845
1004.598, 11.46008
1005.080, 11.43085
1005.562, 11.69152
1006.044, 11.97911
1006.527, 12.26622
1007.009, 12.15685
1007.491, 11.09167
1007.973, 10.43701
1008.455, 10.83060
1008.937, 11.87082
1009.419, 12.34817
1009.901, 12.36489
1010.383, 12.40224
1010.866, 12.67332
1011.348, 12.94693
1011.830, 13.12903
1012.312, 13.20256
1012.794, 13.13270
1013.276, 12.83314
1013.758, 12.71132
1014.240, 12.81663
1014.723, 12.87190
1015.205, 12.51801
1015.687, 12.02540
1016.169, 11.89267
1016.651, 12.07413
1017.133, 12.22437
1017.615, 12.32181
1018.097, 12.20170
1018.579, 11.60571
1019.062, 10.93742
1019.544, 11.26263
1020.026, 12.45304
1020.508, 13.12180
1020.990, 12.89496
1021.472, 12.52996
1021.954, 12.73638
1022.436, 13.07654
1022.919, 13.10236
1023.401, 12.70177
1023.883, 12.37904
1024.365, 12.12679
1024.847, 11.96540
1025.329, 11.88413
1025.811, 11.91344
1026.293, 12.32083
1026.776, 12.90551
1027.258, 13.08608
1027.740, 12.18003
1028.222, 11.39984
1028.704, 10.98720
1029.186, 10.90193
1029.668, 11.19534
1030.150, 11.87042
1030.632, 12.50570
1031.115, 13.07808
1031.597, 13.41918
1032.079, 13.27417
1032.561, 12.93670
1033.043, 12.59707
1033.525, 12.28494
1034.007, 12.11919
1034.489, 12.23896
1034.971, 12.11866
1035.454, 11.50313
1035.936, 10.80754
1036.418, 10.81493
1036.900, 11.29421
1037.382, 11.72571
1037.864, 11.99787
1038.346, 12.18024
1038.828, 12.29636
1039.311, 12.33233
1039.793, 12.26494
1040.275, 12.09833
1040.757, 11.88558
1041.239, 11.63202
1041.721, 11.56850
1042.203, 12.02709
1042.685, 12.53834
1043.167, 12.77728
1043.650, 12.77796
1044.132, 12.58717
1044.614, 12.08159
1045.096, 11.70658
1045.578, 11.49434
1046.060, 11.40592
1046.542, 11.37640
1047.024, 11.44530
1047.506, 11.82766
1047.989, 12.49370
1048.471, 12.85202
1048.953, 12.52603
1049.435, 11.94523
1049.917, 11.08885
1050.399, 10.20412
1050.881, 10.07700
1051.363, 10.64419
1051.846, 11.17530
1052.328, 11.49403
1052.810, 11.68724
1053.292, 11.70513
1053.774, 11.70844
1054.256, 11.94380
1054.738, 12.52537
1055.220, 12.48505
1055.703, 11.65679
1056.185, 10.89658
1056.667, 10.72935
1057.149, 10.88009
1057.631, 10.93347
1058.113, 10.91879
1058.595, 10.90527
1059.077, 10.79413
1059.559, 10.88218
1060.042, 11.32872
1060.524, 11.80804
1061.006, 11.99215
1061.488, 11.91205
1061.970, 11.68586
1062.452, 11.33533
1062.934, 11.10342
1063.416, 11.10168
1063.898, 11.31461
1064.381, 11.93171
1064.863, 12.73617
1065.345, 13.11489
1065.827, 13.02543
1066.309, 12.76768
1066.791, 12.35380
1067.273, 11.99189
1067.755, 11.96003
1068.238, 12.09977
1068.720, 12.25044
1069.202, 12.39870
1069.684, 12.46884
1070.166, 12.50214
1070.648, 12.34872
1071.130, 11.83080
1071.612, 11.19525
1072.094, 11.16316
1072.577, 11.51181
1073.059, 11.59576
1073.541, 10.89310
1074.023, 10.45704
1074.505, 10.91910
1074.987, 11.56904
1075.469, 11.90117
1075.951, 11.91325
1076.434, 11.86112
1076.916, 11.75105
1077.398, 11.71805
1077.880, 11.88216
1078.362, 12.12180
1078.844, 12.52502
1079.326, 12.89853
1079.808, 12.76537
1080.291, 11.87624
1080.773, 11.43023
1081.255, 11.59922
1081.737, 11.97584
1082.219, 12.27125
1082.701, 12.43915
1083.183, 12.40713
1083.665, 12.17453
1084.147, 11.78692
1084.630, 10.91605
1085.112, 10.49703
1085.594, 10.90086
1086.076, 11.70533
1086.558, 12.12724
1087.040, 12.24434
1087.522, 12.31085
1088.004, 12.42066
1088.486, 12.29967
1088.969, 11.53617
1089.451, 10.78338
1089.933, 10.44792
1090.415, 10.46819
1090.897, 10.22492
1091.379, 9.757691
1091.861, 9.616987
1092.343, 10.24469
1092.826, 10.94529
1093.308, 11.27212
1093.790, 11.32377
1094.272, 11.19335
1094.754, 10.76675
1095.236, 10.71963
1095.718, 11.12428
1096.200, 11.40427
1096.682, 10.90375
1097.165, 10.19633
1097.647, 10.03868
1098.129, 10.29333
1098.611, 10.51549
1099.093, 10.59211
1099.575, 10.65401
1100.057, 10.69685
1100.539, 10.76331
1101.021, 10.99293
1101.504, 11.25962
1101.986, 11.20323
1102.468, 10.82391
1102.950, 10.57855
1103.432, 10.76260
1103.914, 10.99615
1104.396, 11.22663
1104.878, 11.37763
1105.361, 11.20861
1105.843, 10.78484
1106.325, 10.43581
1106.807, 10.20750
1107.289, 10.18222
1107.771, 10.70459
1108.253, 11.18595
1108.735, 11.05521
1109.218, 10.44290
1109.700, 10.67953
1110.182, 11.78731
1110.664, 12.27932
1111.146, 11.28724
1111.628, 10.14843
1112.110, 10.36008
1112.592, 11.06557
1113.074, 11.13907
1113.557, 10.24102
1114.039, 9.812023
1114.521, 9.910019
1115.003, 10.20526
1115.485, 10.70507
1115.967, 11.11227
1116.449, 10.74343
1116.931, 9.983283
1117.413, 9.679105
1117.896, 10.62007
1118.378, 11.18212
1118.860, 11.23306
1119.342, 11.05888
1119.824, 10.78504
1120.306, 10.52715
1120.788, 10.73400
1121.270, 11.28986
1121.753, 11.53876
1122.235, 10.76168
1122.717, 10.23944
1123.199, 10.39685
1123.681, 10.78386
1124.163, 10.58760
1124.645, 10.01031
1125.127, 10.15847
1125.609, 11.14025
1126.092, 12.00251
1126.574, 12.30143
1127.056, 12.17254
1127.538, 11.53317
1128.020, 10.60179
1128.502, 9.856517
1128.984, 9.313123
1129.466, 9.291837
1129.949, 9.966265
1130.431, 10.59482
1130.913, 10.30975
1131.395, 9.927238
1131.877, 10.34650
1132.359, 11.45941
1132.841, 11.62841
1133.323, 10.75803
1133.806, 10.02057
1134.288, 9.828506
1134.770, 9.926229
1135.252, 10.19286
1135.734, 10.49429
1136.216, 10.70682
1136.698, 10.86583
1137.180, 10.55012
1137.662, 9.606617
1138.145, 8.849672
1138.627, 8.713134
1139.109, 9.031678
1139.591, 9.905674
1140.073, 10.96768
1140.555, 11.52495
1141.037, 10.89956
1141.519, 10.68754
1142.001, 11.11653
1142.484, 11.45998
1142.966, 11.06279
1143.448, 10.23447
1143.930, 9.449034
1144.412, 8.805730
1144.894, 8.598450
1145.376, 9.573084
1145.858, 10.03455
1146.341, 9.544128
1146.823, 8.872512
1147.305, 8.875382
1147.787, 9.364768
1148.269, 9.793084
1148.751, 10.12940
1149.233, 10.35033
1149.715, 10.58017
1150.198, 10.48160
1150.680, 9.765646
1151.162, 8.927038
1151.644, 8.751291
1152.126, 9.141987
1152.608, 9.731021
1153.090, 10.46749
1153.572, 10.84123
1154.054, 10.06629
1154.536, 9.391874
1155.019, 9.510286
1155.501, 10.07992
1155.983, 10.22431
1156.465, 10.00036
1156.947, 10.07173
1157.429, 10.59836
1157.911, 11.10766
1158.393, 11.36878
1158.876, 11.39444
1159.358, 11.16867
1159.840, 10.72439
1160.322, 9.993151
1160.804, 8.993424
1161.286, 8.643930
1161.768, 9.370662
1162.250, 10.16145
1162.733, 10.05291
1163.215, 9.701273
1163.697, 9.747121
1164.179, 10.18117
1164.661, 10.48810
1165.143, 10.67066
1165.625, 10.68206
1166.107, 10.41284
1166.589, 10.15265
1167.072, 10.22880
1167.554, 10.45459
1168.036, 10.63281
1168.518, 10.76852
1169.000, 10.67775
1169.482, 10.31964
1169.964, 10.11325
1170.446, 10.47484
1170.928, 10.83348
1171.411, 10.37190
1171.893, 9.554857
1172.375, 9.107138
1172.857, 9.177663
1173.339, 9.422469
1173.821, 9.885222
1174.303, 10.28951
1174.785, 10.50290
1175.268, 10.51382
1175.750, 10.13867
1176.232, 9.585542
1176.714, 9.306290
1177.196, 9.553588
1177.678, 9.606139
1178.160, 9.390323
1178.642, 9.219738
1179.125, 9.434350
1179.607, 9.793646
1180.089, 9.914288
1180.571, 9.900680
1181.053, 10.11252
1181.535, 10.91270
1182.017, 11.24974
1182.499, 10.94960
1182.981, 10.52216
1183.464, 10.44346
1183.946, 10.56418
1184.428, 10.70585
1184.910, 10.84917
1185.392, 10.96682
1185.874, 11.14137
1186.356, 11.08777
1186.838, 10.71393
1187.320, 10.26872
1187.803, 9.955630
1188.285, 9.797191
1188.767, 9.986208
1189.249, 10.44961
1189.731, 10.47928
1190.213, 9.558643
1190.695, 9.010621
1191.177, 9.128886
1191.660, 9.530240
1192.142, 9.738469
1192.624, 9.858142
1193.106, 10.08831
1193.588, 10.43845
1194.070, 10.67286
1194.552, 10.73860
1195.034, 10.70297
1195.516, 10.56397
1195.999, 10.36479
1196.481, 10.11519
1196.963, 9.878435
1197.445, 9.799154
1197.927, 9.904570
1198.409, 9.891648
1198.891, 9.615314
1199.373, 9.404754
1199.856, 9.326171
1200.338, 9.405234
1200.820, 9.838132
1201.302, 10.39563
1201.784, 10.70012
1202.266, 10.68338
1202.748, 10.41147
1203.230, 9.628073
1203.713, 9.225662
1204.195, 9.643613
1204.677, 10.37352
1205.159, 10.54462
1205.641, 10.36566
1206.123, 10.17129
1206.605, 10.00850
1207.087, 9.951129
1207.569, 10.11902
1208.052, 10.08984
1208.534, 9.585400
1209.016, 8.964794
1209.498, 8.809443
1209.980, 9.020672
1210.462, 9.507763
1210.944, 10.42845
1211.426, 10.82838
1211.908, 10.51370
1212.391, 10.02757
1212.873, 9.501510
1213.355, 9.093935
1213.837, 9.097052
1214.319, 9.417813
1214.801, 9.981424
1215.283, 11.02733
1215.765, 11.32265
1216.248, 10.59121
1216.730, 9.806481
1217.212, 9.477552
1217.694, 9.367711
1218.176, 9.084361
1218.658, 8.730593
1219.140, 8.471588
1219.622, 8.335378
1220.104, 8.346866
1220.587, 8.509768
1221.069, 8.821717
1221.551, 9.458375
1222.033, 10.04416
1222.515, 9.837280
1222.997, 9.226240
1223.479, 8.866664
1223.961, 8.986418
1224.443, 9.042760
1224.926, 8.999219
1225.408, 9.072654
1225.890, 9.531879
1226.372, 10.02867
1226.854, 10.02795
1227.336, 9.783494
1227.818, 9.745543
1228.300, 10.08762
1228.783, 10.21667
1229.265, 10.10468
1229.747, 9.966287
1230.229, 9.926760
1230.711, 9.939176
1231.193, 10.02230
1231.675, 10.09716
1232.157, 10.01028
1232.640, 9.703299
1233.122, 9.430521
1233.604, 9.184764
1234.086, 9.123789
1234.568, 9.406032
1235.050, 9.862842
1235.532, 10.61422
1236.014, 11.30925
1236.496, 11.35989
1236.979, 10.58879
1237.461, 10.13121
1237.943, 9.984006
1238.425, 9.972208
1238.907, 10.01051
1239.389, 10.11442
1239.871, 10.54702
1240.353, 10.89367
1240.835, 10.48572
1241.318, 9.208576
1241.800, 8.782324
1242.282, 9.184278
1242.764, 9.788527
1243.246, 10.63049
1243.728, 11.08630
1244.210, 10.43552
1244.692, 9.483957
1245.175, 9.043390
1245.657, 9.103338
1246.139, 9.548343
1246.621, 10.31455
1247.103, 10.90432
1247.585, 11.12022
1248.067, 10.99027
1248.549, 10.19110
1249.031, 9.382745
1249.514, 9.255700
1249.996, 9.697728
1250.478, 10.00095
1250.960, 10.18485
1251.442, 10.42087
1251.924, 11.11202
1252.406, 11.37406
1252.888, 10.81927
1253.371, 10.13676
1253.853, 10.13412
1254.335, 10.48735
1254.817, 9.928897
1255.299, 8.729728
1255.781, 7.963727
1256.263, 8.320412
1256.745, 8.777416
1257.228, 9.313562
1257.710, 9.727221
1258.192, 9.742083
1258.674, 9.555594
1259.156, 9.512084
1259.638, 9.601222
1260.120, 9.777119
1260.602, 10.15028
1261.084, 10.37575
1261.567, 10.41693
1262.049, 10.41408
1262.531, 10.49428
1263.013, 10.58671
1263.495, 10.57657
1263.977, 10.50785
1264.459, 10.49649
1264.941, 10.58516
1265.423, 10.63739
1265.906, 10.65494
1266.388, 10.58534
1266.870, 10.26082
1267.352, 9.956979
1267.834, 10.00462
1268.316, 10.21347
1268.798, 10.21871
1269.280, 9.956056
1269.763, 9.920404
1270.245, 10.11535
1270.727, 10.26930
1271.209, 10.21597
1271.691, 10.05647
1272.173, 9.792941
1272.655, 9.495373
1273.137, 9.170289
1273.620, 8.831686
1274.102, 9.032744
1274.584, 9.694044
1275.066, 10.15815
1275.548, 9.656759
1276.030, 9.462313
1276.512, 10.33587
1276.994, 11.33243
1277.476, 11.65968
1277.958, 11.44098
1278.441, 11.20803
1278.923, 10.95216
1279.405, 10.63951
1279.887, 10.02470
1280.369, 9.744980
1280.851, 9.991896
1281.333, 10.28260
1281.815, 10.22781
1282.298, 9.963877
1282.780, 9.675637
1283.262, 9.435980
1283.744, 9.429475
1284.226, 10.00124
1284.708, 10.18681
1285.190, 9.921039
1285.672, 9.540832
1286.155, 9.158703
1286.637, 8.890347
1287.119, 8.905197
1287.601, 9.123696
1288.083, 9.460835
1288.565, 9.972264
1289.047, 10.18585
1289.529, 10.09182
1290.011, 9.970058
1290.494, 9.958117
1290.976, 9.993116
1291.458, 10.05232
1291.940, 10.11574
1292.422, 10.12703
1292.904, 10.09526
1293.386, 10.42442
1293.868, 11.02854
1294.350, 11.25135
1294.833, 10.48946
1295.315, 9.934026
1295.797, 9.989572
##END=



