##NAMES=Safflorite
##RRUFFID=R070611
##IDEAL CHEMISTRY=(Co^2+^,Fe^2+^,Ni^2+^)As_2_
##LOCALITY=Timiskaming County, Ontario, Canada
##OWNER=RRUFF
##SOURCE=
##DESCRIPTION=Dark gray tarnished metallic prismatic crystals embedded in metalic spherules with native silver. Crystal structure reported in Yang et al (2008). This is the structure type sample.
##STATUS=The identification of this mineral is confirmed by single-crystal X-ray diffraction and chemical analysis.
##URL=rruff.info/R070611
##MEASURED CHEMISTRY=(Co_0.61_Ni_0.22_Fe_0.17_)_Σ=1_(As_1.99_S_0.01_)_Σ=2_
90.32306, 1317.839
90.80518, 1352.301
91.28729, 1387.679
91.76941, 1423.851
92.25153, 1454.759
92.73364, 1491.863
93.21576, 1540.126
93.69788, 1598.652
94.17999, 1662.941
94.66211, 1728.768
95.14423, 1797.551
95.62634, 1863.530
96.10846, 1920.510
96.59058, 1978.162
97.07269, 2046.582
97.55481, 2129.225
98.03693, 2218.490
98.51904, 2297.519
99.00116, 2366.004
99.48328, 2427.706
99.96539, 2479.145
100.4475, 2523.957
100.9296, 2564.853
101.4117, 2580.606
101.8939, 2582.831
102.3760, 2568.450
102.8581, 2523.160
103.3402, 2476.964
103.8223, 2455.945
104.3044, 2461.197
104.7866, 2478.081
105.2687, 2514.001
105.7508, 2553.607
106.2329, 2573.834
106.7150, 2555.991
107.1971, 2510.278
107.6793, 2476.815
108.1614, 2467.056
108.6435, 2454.661
109.1256, 2424.552
109.6077, 2381.357
110.0898, 2338.777
110.5720, 2309.323
111.0541, 2295.005
111.5362, 2284.415
112.0183, 2280.683
112.5004, 2277.586
112.9825, 2267.801
113.4647, 2251.365
113.9468, 2237.628
114.4289, 2244.399
114.9110, 2303.240
115.3931, 2339.898
115.8752, 2346.207
116.3574, 2333.746
116.8395, 2313.187
117.3216, 2289.314
117.8037, 2262.598
118.2858, 2235.069
118.7680, 2198.112
119.2501, 2168.863
119.7322, 2153.936
120.2143, 2151.608
120.6964, 2156.716
121.1785, 2168.370
121.6607, 2185.175
122.1428, 2195.476
122.6249, 2192.460
123.1070, 2186.946
123.5891, 2193.952
124.0712, 2217.701
124.5534, 2233.024
125.0355, 2201.339
125.5176, 2139.665
125.9997, 2093.824
126.4818, 2088.953
126.9639, 2113.774
127.4461, 2135.477
127.9282, 2153.965
128.4103, 2163.513
128.8924, 2159.770
129.3745, 2143.983
129.8566, 2124.733
130.3387, 2106.394
130.8209, 2087.804
131.3030, 2078.480
131.7851, 2089.602
132.2672, 2104.079
132.7493, 2114.572
133.2314, 2119.138
133.7136, 2118.314
134.1957, 2111.235
134.6778, 2088.531
135.1599, 2077.603
135.6420, 2087.455
136.1241, 2105.429
136.6063, 2121.711
137.0884, 2131.770
137.5705, 2135.256
138.0526, 2130.583
138.5347, 2103.378
139.0168, 2083.037
139.4990, 2078.383
139.9811, 2083.533
140.4632, 2088.816
140.9453, 2088.460
141.4274, 2082.231
141.9095, 2066.491
142.3917, 2023.382
142.8738, 1988.177
143.3559, 1984.849
143.8380, 2010.485
144.3201, 2038.379
144.8022, 2043.111
145.2844, 2021.748
145.7665, 2012.296
146.2486, 2027.974
146.7307, 2050.430
147.2128, 2059.834
147.6949, 2051.895
148.1771, 2037.390
148.6592, 2030.234
149.1413, 2029.391
149.6234, 2022.021
150.1055, 1995.321
150.5877, 1957.789
151.0698, 1934.432
151.5519, 1936.925
152.0340, 1947.308
152.5161, 1945.539
152.9982, 1931.308
153.4804, 1918.416
153.9625, 1921.296
154.4446, 1940.662
154.9267, 1951.247
155.4088, 1931.676
155.8909, 1910.546
156.3731, 1909.872
156.8552, 1935.040
157.3373, 1967.761
157.8194, 1982.008
158.3015, 1971.114
158.7836, 1958.435
159.2658, 1945.329
159.7479, 1934.314
160.2300, 1929.296
160.7121, 1932.350
161.1942, 1939.125
161.6763, 1935.872
162.1585, 1905.873
162.6406, 1888.708
163.1227, 1902.443
163.6048, 1929.170
164.0869, 1944.615
164.5690, 1932.708
165.0512, 1897.082
165.5333, 1876.833
166.0154, 1884.295
166.4975, 1894.333
166.9796, 1903.272
167.4617, 1910.158
167.9439, 1914.971
168.4260, 1918.001
168.9081, 1919.488
169.3902, 1913.615
169.8723, 1889.906
170.3544, 1869.205
170.8366, 1865.624
171.3187, 1877.873
171.8008, 1891.612
172.2829, 1892.118
172.7650, 1875.115
173.2471, 1866.383
173.7293, 1870.531
174.2114, 1880.229
174.6935, 1891.609
175.1756, 1904.169
175.6577, 1912.924
176.1398, 1908.460
176.6220, 1889.557
177.1041, 1876.634
177.5862, 1878.844
178.0683, 1888.499
178.5504, 1893.388
179.0325, 1890.729
179.5147, 1882.601
179.9968, 1869.479
180.4789, 1850.930
180.9610, 1836.056
181.4431, 1830.451
181.9252, 1832.376
182.4074, 1834.971
182.8895, 1835.739
183.3716, 1837.624
183.8537, 1845.947
184.3358, 1862.092
184.8179, 1873.513
185.3001, 1865.557
185.7822, 1837.964
186.2643, 1818.001
186.7464, 1819.077
187.2285, 1827.876
187.7106, 1835.132
188.1928, 1839.331
188.6749, 1841.525
189.1570, 1844.006
189.6391, 1848.380
190.1212, 1846.582
190.6033, 1831.305
191.0855, 1812.021
191.5676, 1793.828
192.0497, 1778.049
192.5318, 1767.410
193.0139, 1769.015
193.4960, 1791.648
193.9782, 1809.056
194.4603, 1813.911
194.9424, 1812.608
195.4245, 1811.911
195.9066, 1815.236
196.3887, 1819.969
196.8709, 1816.840
197.3530, 1792.691
197.8351, 1778.149
198.3172, 1786.967
198.7993, 1805.515
199.2814, 1815.663
199.7636, 1805.882
200.2457, 1780.046
200.7278, 1764.190
201.2099, 1768.989
201.6920, 1773.658
202.1741, 1773.496
202.6563, 1770.720
203.1384, 1770.653
203.6205, 1777.733
204.1026, 1791.476
204.5847, 1794.004
205.0668, 1772.752
205.5490, 1754.189
206.0311, 1747.381
206.5132, 1750.415
206.9953, 1757.347
207.4774, 1764.327
207.9595, 1771.563
208.4417, 1772.895
208.9238, 1764.386
209.4059, 1754.824
209.8880, 1748.698
210.3701, 1745.670
210.8522, 1741.907
211.3344, 1732.386
211.8165, 1716.044
212.2986, 1715.531
212.7807, 1747.191
213.2628, 1780.870
213.7449, 1798.405
214.2271, 1798.116
214.7092, 1785.698
215.1913, 1763.348
215.6734, 1729.294
216.1555, 1703.838
216.6376, 1682.337
217.1198, 1672.525
217.6019, 1689.261
218.0840, 1734.509
218.5661, 1779.852
219.0482, 1793.844
219.5303, 1776.688
220.0125, 1764.967
220.4946, 1769.629
220.9767, 1779.373
221.4588, 1780.556
221.9409, 1770.609
222.4230, 1756.359
222.9052, 1742.469
223.3873, 1729.062
223.8694, 1720.683
224.3515, 1719.954
224.8336, 1724.548
225.3158, 1732.106
225.7979, 1743.968
226.2800, 1753.945
226.7621, 1755.150
227.2442, 1749.029
227.7263, 1740.266
228.2085, 1729.417
228.6906, 1717.284
229.1727, 1703.699
229.6548, 1684.745
230.1369, 1672.716
230.6190, 1685.143
231.1012, 1716.959
231.5833, 1741.000
232.0654, 1735.334
232.5475, 1709.949
233.0296, 1699.939
233.5117, 1717.623
233.9939, 1739.860
234.4760, 1748.949
234.9581, 1746.449
235.4402, 1739.828
235.9223, 1732.503
236.4044, 1724.501
236.8866, 1714.970
237.3687, 1699.260
237.8508, 1688.280
238.3329, 1691.776
238.8150, 1707.374
239.2971, 1722.013
239.7793, 1725.099
240.2614, 1717.867
240.7435, 1713.546
241.2256, 1716.995
241.7077, 1719.450
242.1898, 1713.584
242.6720, 1701.066
243.1541, 1690.532
243.6362, 1691.146
244.1183, 1702.538
244.6004, 1708.432
245.0825, 1704.006
245.5647, 1697.208
246.0468, 1690.770
246.5289, 1685.324
247.0110, 1682.093
247.4931, 1684.417
247.9752, 1692.698
248.4574, 1694.422
248.9395, 1683.810
249.4216, 1670.790
249.9037, 1658.951
250.3858, 1648.649
250.8679, 1639.707
251.3501, 1632.348
251.8322, 1626.735
252.3143, 1620.535
252.7964, 1610.746
253.2785, 1603.138
253.7606, 1598.611
254.2428, 1598.014
254.7249, 1603.341
255.2070, 1622.462
255.6891, 1659.036
256.1712, 1673.107
256.6534, 1634.909
257.1355, 1597.932
257.6176, 1584.553
258.0997, 1591.839
258.5818, 1602.757
259.0639, 1600.687
259.5461, 1583.772
260.0282, 1574.152
260.5103, 1578.469
260.9924, 1585.063
261.4745, 1592.529
261.9566, 1599.304
262.4388, 1602.472
262.9209, 1598.346
263.4030, 1586.079
263.8851, 1577.027
264.3672, 1574.609
264.8493, 1572.637
265.3315, 1571.329
265.8136, 1569.114
266.2957, 1562.073
266.7778, 1543.818
267.2599, 1512.931
267.7420, 1498.653
268.2242, 1523.233
268.7063, 1544.935
269.1884, 1551.683
269.6705, 1544.859
270.1526, 1530.684
270.6347, 1512.754
271.1169, 1490.871
271.5990, 1473.272
272.0811, 1461.822
272.5632, 1453.364
273.0453, 1447.909
273.5274, 1444.837
274.0096, 1443.244
274.4917, 1442.474
274.9738, 1442.536
275.4559, 1443.617
275.9380, 1443.280
276.4201, 1446.679
276.9023, 1461.174
277.3844, 1480.178
277.8665, 1491.319
278.3486, 1485.267
278.8307, 1463.594
279.3128, 1444.973
279.7950, 1430.650
280.2771, 1418.497
280.7592, 1405.880
281.2413, 1395.387
281.7234, 1392.019
282.2055, 1399.754
282.6877, 1416.354
283.1698, 1427.982
283.6519, 1436.722
284.1340, 1436.890
284.6161, 1419.638
285.0982, 1395.167
285.5804, 1377.289
286.0625, 1373.890
286.5446, 1381.899
287.0267, 1389.491
287.5088, 1402.618
287.9909, 1406.552
288.4731, 1391.618
288.9552, 1369.245
289.4373, 1352.946
289.9194, 1349.471
290.4015, 1354.759
290.8836, 1357.156
291.3658, 1356.295
291.8479, 1352.605
292.3300, 1338.344
292.8121, 1324.994
293.2942, 1327.223
293.7763, 1350.906
294.2585, 1383.869
294.7406, 1399.231
295.2227, 1387.501
295.7048, 1374.033
296.1869, 1360.630
296.6690, 1347.433
297.1512, 1333.067
297.6333, 1317.342
298.1154, 1304.190
298.5975, 1301.878
299.0796, 1318.200
299.5617, 1327.777
300.0439, 1323.886
300.5260, 1316.983
301.0081, 1315.724
301.4902, 1321.344
301.9723, 1326.757
302.4544, 1319.903
302.9366, 1293.083
303.4187, 1277.963
303.9008, 1285.128
304.3829, 1296.513
304.8650, 1303.828
305.3471, 1305.526
305.8293, 1303.456
306.3114, 1297.736
306.7935, 1286.192
307.2756, 1281.557
307.7577, 1292.535
308.2398, 1303.360
308.7220, 1307.945
309.2041, 1306.218
309.6862, 1301.061
310.1683, 1293.182
310.6504, 1282.177
311.1325, 1277.647
311.6147, 1282.695
312.0968, 1291.867
312.5789, 1308.498
313.0610, 1328.028
313.5431, 1340.553
314.0252, 1337.220
314.5074, 1320.060
314.9895, 1305.491
315.4716, 1293.399
315.9537, 1284.624
316.4358, 1282.092
316.9179, 1282.372
317.4001, 1279.039
317.8822, 1266.150
318.3643, 1248.909
318.8464, 1246.112
319.3285, 1268.587
319.8106, 1285.061
320.2928, 1280.925
320.7749, 1266.955
321.2570, 1256.740
321.7391, 1256.916
322.2212, 1260.610
322.7033, 1252.443
323.1855, 1226.095
323.6676, 1207.244
324.1497, 1206.398
324.6318, 1215.443
325.1139, 1230.310
325.5960, 1251.102
326.0782, 1270.905
326.5603, 1281.328
327.0424, 1281.749
327.5245, 1277.291
328.0066, 1264.784
328.4887, 1250.699
328.9709, 1240.049
329.4530, 1233.540
329.9351, 1228.831
330.4172, 1225.167
330.8993, 1222.335
331.3814, 1215.327
331.8636, 1193.639
332.3457, 1178.813
332.8278, 1194.234
333.3099, 1237.957
333.7920, 1275.108
334.2741, 1278.790
334.7563, 1258.283
335.2384, 1246.782
335.7205, 1250.829
336.2026, 1259.246
336.6847, 1263.153
337.1668, 1263.523
337.6490, 1263.913
338.1311, 1270.285
338.6132, 1276.183
339.0953, 1267.737
339.5774, 1241.141
340.0595, 1214.327
340.5417, 1200.647
341.0238, 1196.950
341.5059, 1195.974
341.9880, 1195.935
342.4701, 1198.326
342.9522, 1208.117
343.4344, 1224.933
343.9165, 1234.844
344.3986, 1225.665
344.8807, 1204.417
345.3628, 1194.288
345.8449, 1202.174
346.3271, 1212.913
346.8092, 1219.218
347.2913, 1221.409
347.7734, 1221.103
348.2555, 1219.862
348.7376, 1215.279
349.2198, 1198.612
349.7019, 1157.126
350.1840, 1132.718
350.6661, 1154.981
351.1482, 1199.038
351.6303, 1221.910
352.1125, 1209.502
352.5946, 1182.036
353.0767, 1170.506
353.5588, 1181.387
354.0409, 1187.777
354.5230, 1182.944
355.0052, 1175.309
355.4873, 1173.765
355.9694, 1179.302
356.4515, 1185.267
356.9336, 1183.954
357.4157, 1172.906
357.8979, 1169.582
358.3800, 1184.117
358.8621, 1196.684
359.3442, 1192.779
359.8263, 1176.118
360.3084, 1161.778
360.7906, 1161.850
361.2727, 1175.350
361.7548, 1181.407
362.2369, 1171.346
362.7190, 1164.048
363.2011, 1168.094
363.6833, 1177.290
364.1654, 1180.548
364.6475, 1171.905
365.1296, 1156.360
365.6117, 1149.935
366.0938, 1162.166
366.5760, 1170.294
367.0581, 1174.522
367.5402, 1173.191
368.0223, 1160.512
368.5044, 1136.103
368.9865, 1111.883
369.4687, 1108.010
369.9508, 1133.331
370.4329, 1154.266
370.9150, 1171.554
371.3971, 1182.800
371.8792, 1184.239
372.3614, 1177.123
372.8435, 1167.498
373.3256, 1161.063
373.8077, 1157.935
374.2898, 1152.687
374.7719, 1143.457
375.2541, 1134.187
375.7362, 1120.532
376.2183, 1108.118
376.7004, 1109.837
377.1825, 1140.981
377.6646, 1186.624
378.1468, 1204.442
378.6289, 1185.978
379.1110, 1160.985
379.5931, 1133.331
380.0752, 1109.630
380.5573, 1099.876
381.0395, 1110.322
381.5216, 1126.755
382.0037, 1131.645
382.4858, 1124.896
382.9679, 1123.632
383.4500, 1138.866
383.9322, 1157.268
384.4143, 1161.880
384.8964, 1150.701
385.3785, 1137.818
385.8606, 1130.596
386.3427, 1127.565
386.8249, 1124.686
387.3070, 1120.647
387.7891, 1118.241
388.2712, 1123.191
388.7533, 1134.704
389.2354, 1140.630
389.7176, 1133.674
390.1997, 1122.888
390.6818, 1116.886
391.1639, 1116.278
391.6460, 1118.266
392.1281, 1120.585
392.6103, 1123.766
393.0924, 1131.586
393.5745, 1156.877
394.0566, 1173.213
394.5387, 1161.304
395.0208, 1132.141
395.5030, 1110.852
395.9851, 1110.108
396.4672, 1121.934
396.9493, 1124.929
397.4314, 1114.220
397.9135, 1100.560
398.3957, 1072.988
398.8778, 1048.739
399.3599, 1050.834
399.8420, 1081.755
400.3241, 1117.126
400.8062, 1122.705
401.2884, 1084.838
401.7705, 1064.659
402.2526, 1071.972
402.7347, 1085.362
403.2168, 1098.765
403.6989, 1109.808
404.1811, 1115.954
404.6632, 1114.832
405.1453, 1107.117
405.6274, 1098.129
406.1095, 1081.533
406.5916, 1073.145
407.0738, 1085.200
407.5559, 1103.964
408.0380, 1111.217
408.5201, 1098.532
409.0022, 1077.786
409.4843, 1069.195
409.9665, 1075.485
410.4486, 1079.789
410.9307, 1073.190
411.4128, 1066.607
411.8949, 1070.610
412.3770, 1085.812
412.8592, 1098.529
413.3413, 1095.414
413.8234, 1080.835
414.3055, 1073.716
414.7876, 1079.874
415.2697, 1085.837
415.7519, 1074.264
416.2340, 1051.666
416.7161, 1040.999
417.1982, 1059.592
417.6803, 1085.873
418.1624, 1097.274
418.6446, 1093.971
419.1267, 1085.032
419.6088, 1072.040
420.0909, 1058.790
420.5730, 1057.769
421.0551, 1080.301
421.5373, 1097.856
422.0194, 1098.446
422.5015, 1087.910
422.9836, 1073.907
423.4657, 1058.622
423.9478, 1045.932
424.4300, 1042.316
424.9121, 1052.373
425.3942, 1061.204
425.8763, 1068.384
426.3584, 1074.741
426.8405, 1083.063
427.3227, 1091.834
427.8048, 1094.193
428.2869, 1082.473
428.7690, 1057.504
429.2511, 1047.476
429.7332, 1072.928
430.2154, 1092.089
430.6975, 1092.670
431.1796, 1083.870
431.6617, 1078.880
432.1438, 1083.569
432.6259, 1092.060
433.1081, 1092.357
433.5902, 1080.932
434.0723, 1072.585
434.5544, 1071.200
435.0365, 1072.541
435.5186, 1074.880
436.0008, 1077.824
436.4829, 1080.778
436.9650, 1082.342
437.4471, 1083.252
437.9292, 1088.276
438.4113, 1100.786
438.8935, 1110.779
439.3756, 1108.183
439.8577, 1098.451
440.3398, 1092.744
440.8219, 1098.562
441.3040, 1105.527
441.7862, 1101.970
442.2683, 1089.258
442.7504, 1077.355
443.2325, 1069.128
443.7146, 1065.954
444.1967, 1072.825
444.6789, 1096.005
445.1610, 1111.091
445.6431, 1105.336
446.1252, 1090.433
446.6073, 1079.902
447.0894, 1076.506
447.5716, 1077.801
448.0537, 1082.624
448.5358, 1092.715
449.0179, 1092.474
449.5000, 1067.982
449.9821, 1048.809
450.4643, 1052.286
450.9464, 1070.345
451.4285, 1084.992
451.9106, 1085.826
452.3927, 1078.239
452.8748, 1079.205
453.3570, 1096.650
453.8391, 1108.640
454.3212, 1111.719
454.8033, 1110.024
455.2854, 1105.771
455.7675, 1099.720
456.2497, 1092.933
456.7318, 1086.951
457.2139, 1081.690
457.6960, 1073.340
458.1782, 1057.054
458.6603, 1044.741
459.1424, 1045.364
459.6245, 1054.091
460.1066, 1060.171
460.5887, 1054.298
461.0709, 1049.295
461.5530, 1068.192
462.0351, 1110.016
462.5172, 1137.861
462.9993, 1132.269
463.4814, 1108.417
463.9636, 1094.295
464.4457, 1092.943
464.9278, 1089.248
465.4099, 1072.875
465.8920, 1053.403
466.3741, 1045.499
466.8563, 1051.242
467.3384, 1059.520
467.8205, 1058.734
468.3026, 1047.685
468.7847, 1048.194
469.2668, 1076.162
469.7490, 1097.106
470.2311, 1093.339
470.7132, 1074.309
471.1953, 1055.127
471.6774, 1042.693
472.1595, 1037.879
472.6417, 1044.804
473.1238, 1075.484
473.6059, 1091.830
474.0880, 1083.377
474.5701, 1067.961
475.0522, 1054.214
475.5344, 1043.897
476.0165, 1036.875
476.4986, 1037.215
476.9807, 1041.803
477.4628, 1027.902
477.9449, 980.3846
478.4271, 947.6131
478.9092, 969.8618
479.3913, 1016.530
479.8734, 1046.694
480.3555, 1046.666
480.8376, 1038.230
481.3198, 1038.622
481.8019, 1045.902
482.2840, 1052.594
482.7661, 1057.173
483.2482, 1059.180
483.7303, 1056.916
484.2125, 1049.850
484.6946, 1044.639
485.1767, 1040.610
485.6588, 1039.886
486.1409, 1047.762
486.6230, 1061.468
487.1052, 1070.272
487.5873, 1066.749
488.0694, 1053.461
488.5515, 1042.377
489.0336, 1034.414
489.5157, 1027.688
489.9979, 1019.650
490.4800, 1014.230
490.9621, 1015.978
491.4442, 1025.281
491.9263, 1037.589
492.4084, 1048.924
492.8906, 1059.360
493.3727, 1066.710
493.8548, 1070.569
494.3369, 1071.561
494.8190, 1069.875
495.3011, 1065.883
495.7833, 1060.172
496.2654, 1052.837
496.7475, 1044.098
497.2296, 1030.703
497.7117, 1013.401
498.1938, 1007.835
498.6760, 1024.019
499.1581, 1047.085
499.6402, 1057.550
500.1223, 1055.797
500.6044, 1048.637
501.0865, 1034.196
501.5687, 1017.524
502.0508, 1000.533
502.5329, 984.8502
503.0150, 977.8763
503.4971, 986.4091
503.9792, 1006.855
504.4614, 1018.004
504.9435, 1014.890
505.4256, 1008.769
505.9077, 991.3581
506.3898, 976.6959
506.8719, 982.4357
507.3541, 1010.412
507.8362, 1043.704
508.3183, 1065.823
508.8004, 1077.052
509.2825, 1070.617
509.7646, 1023.145
510.2468, 988.0370
510.7289, 995.0466
511.2110, 1025.143
511.6931, 1046.732
512.1752, 1047.119
512.6573, 1036.914
513.1395, 1024.642
513.6216, 1010.922
514.1037, 1006.881
514.5858, 1019.268
515.0679, 1036.604
515.5500, 1044.565
516.0322, 1043.666
516.5143, 1041.659
516.9964, 1041.203
517.4785, 1039.600
517.9606, 1034.547
518.4427, 1026.180
518.9249, 1014.663
519.4070, 999.2446
519.8891, 982.5086
520.3712, 973.4003
520.8533, 975.9352
521.3354, 981.5167
521.8176, 997.0491
522.2997, 1010.628
522.7818, 1010.791
523.2639, 997.7876
523.7460, 981.2901
524.2281, 968.6382
524.7103, 960.1021
525.1924, 958.8922
525.6745, 967.6673
526.1566, 979.0508
526.6387, 994.0931
527.1208, 1008.392
527.6030, 1016.023
528.0851, 1014.783
528.5672, 1010.819
529.0493, 1007.354
529.5314, 1005.025
530.0135, 1007.489
530.4957, 1016.867
530.9778, 1024.343
531.4599, 1019.770
531.9420, 1003.076
532.4241, 993.4617
532.9063, 1000.105
533.3884, 1004.820
533.8705, 995.0877
534.3526, 977.8343
534.8347, 965.1250
535.3168, 961.8133
535.7990, 967.4037
536.2811, 983.5979
536.7632, 1021.533
537.2453, 1040.090
537.7274, 1022.204
538.2095, 1002.170
538.6917, 995.5956
539.1738, 999.1884
539.6559, 1001.825
540.1380, 995.7701
540.6201, 988.1798
541.1022, 996.7405
541.5844, 1024.049
542.0665, 1039.794
542.5486, 1029.195
543.0307, 1008.566
543.5128, 995.8117
543.9949, 990.9782
544.4771, 990.7524
544.9592, 1000.314
545.4413, 1009.989
545.9234, 1006.771
546.4055, 992.1620
546.8876, 979.7714
547.3698, 977.6763
547.8519, 983.3940
548.3340, 988.2640
548.8161, 993.6749
549.2982, 996.2601
549.7803, 993.7378
550.2625, 989.9603
550.7446, 986.7147
551.2267, 984.9481
551.7088, 986.7886
552.1909, 996.2097
552.6730, 1010.490
553.1552, 1011.712
553.6373, 991.6057
554.1194, 977.4316
554.6015, 987.8937
555.0836, 1004.803
555.5657, 1009.452
556.0479, 997.8875
556.5300, 985.5052
557.0121, 981.4086
557.4942, 983.0012
557.9763, 986.6376
558.4584, 991.9198
558.9406, 995.3588
559.4227, 994.0859
559.9048, 988.6492
560.3869, 983.1843
560.8690, 970.0099
561.3511, 966.3822
561.8333, 987.4232
562.3154, 1013.834
562.7975, 1022.797
563.2796, 1010.695
563.7617, 992.5921
564.2438, 984.2015
564.7260, 985.5216
565.2081, 986.3268
565.6902, 984.8997
566.1723, 985.6904
566.6544, 995.5859
567.1365, 1006.119
567.6187, 1003.874
568.1008, 982.9196
568.5829, 964.5999
569.0650, 971.5437
569.5471, 994.9615
570.0292, 1009.517
570.5114, 1011.103
570.9935, 1005.544
571.4756, 995.5573
571.9577, 981.7937
572.4398, 972.9547
572.9219, 969.3249
573.4041, 969.8256
573.8862, 981.0965
574.3683, 993.3441
574.8504, 988.5394
575.3325, 964.5458
575.8146, 943.8585
576.2968, 958.5471
576.7789, 1012.503
577.2610, 1035.646
577.7431, 1003.823
578.2252, 973.7022
578.7073, 965.5403
579.1895, 970.6404
579.6716, 978.4744
580.1537, 986.7904
580.6358, 994.3524
581.1179, 1000.650
581.6000, 1005.293
582.0822, 1007.423
582.5643, 1007.169
583.0464, 1002.172
583.5285, 987.5618
584.0106, 964.8735
584.4927, 953.5110
584.9749, 963.0451
585.4570, 971.6112
585.9391, 971.4272
586.4212, 967.0920
586.9033, 963.6256
587.3854, 962.6342
587.8676, 964.5881
588.3497, 971.5865
588.8318, 983.8647
589.3139, 987.2513
589.7960, 974.7827
590.2781, 964.1302
590.7603, 963.1009
591.2424, 966.5108
591.7245, 968.6982
592.2066, 968.6523
592.6887, 965.9593
593.1708, 956.8215
593.6530, 945.3806
594.1351, 942.2660
594.6172, 949.1808
595.0993, 958.0780
595.5814, 963.7435
596.0635, 966.1792
596.5457, 965.1139
597.0278, 955.4058
597.5099, 949.3298
597.9920, 953.1122
598.4741, 959.1115
598.9562, 958.6285
599.4384, 951.2162
599.9205, 944.0320
600.4026, 943.7880
600.8847, 949.5933
601.3668, 955.5983
601.8489, 962.4843
602.3311, 968.0180
602.8132, 971.4542
603.2953, 973.0272
603.7774, 971.7976
604.2595, 967.1682
604.7416, 965.0073
605.2238, 970.1885
605.7059, 978.5068
606.1880, 985.6356
606.6701, 990.8514
607.1522, 991.9418
607.6343, 986.9680
608.1165, 977.8745
608.5986, 970.9359
609.0807, 964.2277
609.5628, 962.8849
610.0449, 969.6343
610.5270, 979.3491
611.0092, 992.1541
611.4913, 1005.265
611.9734, 1011.427
612.4555, 1004.935
612.9376, 990.1458
613.4197, 975.5079
613.9019, 960.8041
614.3840, 948.4347
614.8661, 939.1456
615.3482, 932.4303
615.8303, 926.6769
616.3124, 921.7618
616.7946, 922.6674
617.2767, 935.1714
617.7588, 949.5278
618.2409, 963.1469
618.7230, 972.8438
619.2051, 969.7471
619.6873, 950.0959
620.1694, 924.8450
620.6515, 911.6828
621.1336, 910.8583
621.6157, 921.2601
622.0978, 962.7325
622.5800, 994.1047
623.0621, 996.3336
623.5442, 979.1116
624.0263, 957.5854
624.5084, 933.8929
624.9905, 916.2419
625.4727, 914.0383
625.9548, 924.0380
626.4369, 939.3743
626.9190, 960.1061
627.4011, 973.2858
627.8832, 965.2462
628.3654, 938.1165
628.8475, 920.9921
629.3296, 920.8721
629.8117, 920.0847
630.2938, 910.9300
630.7759, 901.9976
631.2581, 902.8160
631.7402, 914.0488
632.2223, 929.0579
632.7044, 944.2864
633.1865, 958.1185
633.6686, 961.3240
634.1508, 950.2526
634.6329, 943.0449
635.1150, 952.3728
635.5971, 964.0502
636.0792, 956.2809
636.5613, 925.9592
637.0435, 907.9051
637.5256, 923.0441
638.0077, 946.8967
638.4898, 959.3080
638.9719, 961.0689
639.4540, 958.6627
639.9362, 955.0165
640.4183, 951.2678
640.9004, 950.3111
641.3825, 954.7427
641.8646, 954.5724
642.3467, 942.6800
642.8289, 933.1901
643.3110, 933.3560
643.7931, 939.8164
644.2752, 945.6191
644.7573, 948.0474
645.2394, 950.2975
645.7216, 958.5905
646.2037, 969.0573
646.6858, 966.6542
647.1679, 947.5562
647.6500, 933.7938
648.1321, 947.8373
648.6143, 985.6708
649.0964, 1000.705
649.5785, 968.6529
650.0606, 946.5096
650.5427, 949.4526
651.0248, 960.7742
651.5070, 965.0724
651.9891, 961.3038
652.4712, 958.6276
652.9533, 966.4180
653.4354, 978.9866
653.9175, 978.6139
654.3997, 963.7065
654.8818, 952.8569
655.3639, 954.5997
655.8460, 960.1643
656.3281, 955.1971
656.8102, 938.7539
657.2924, 930.6658
657.7745, 941.3115
658.2566, 953.3081
658.7387, 954.2057
659.2208, 949.2783
659.7029, 950.8655
660.1851, 963.1301
660.6672, 976.5100
661.1493, 975.0370
661.6314, 956.9450
662.1135, 951.2377
662.5956, 965.6907
663.0778, 978.7316
663.5599, 980.4244
664.0420, 974.3485
664.5241, 962.6617
665.0062, 942.6931
665.4883, 928.7595
665.9705, 933.1637
666.4526, 944.0317
666.9347, 944.7451
667.4168, 936.4011
667.8989, 934.1185
668.3810, 948.1868
668.8632, 970.2560
669.3453, 975.9424
669.8274, 955.0313
670.3095, 942.3121
670.7916, 945.4385
671.2737, 952.1335
671.7559, 960.0587
672.2380, 966.8481
672.7201, 967.2313
673.2022, 956.2225
673.6843, 944.3335
674.1664, 942.2302
674.6486, 946.5596
675.1307, 950.1856
675.6128, 951.7301
676.0949, 947.3958
676.5770, 931.5633
677.0591, 906.6236
677.5413, 896.4013
678.0234, 919.1653
678.5055, 932.1039
678.9876, 919.9813
679.4697, 905.1139
679.9518, 908.2870
680.4340, 927.2605
680.9161, 941.8282
681.3982, 935.7875
681.8803, 921.6605
682.3624, 919.4141
682.8445, 927.8115
683.3267, 938.2262
683.8088, 949.4784
684.2909, 956.7051
684.7730, 952.6108
685.2551, 935.4932
685.7372, 925.6190
686.2194, 925.9933
686.7015, 929.2197
687.1836, 937.3514
687.6657, 944.9865
688.1478, 945.9553
688.6299, 939.3108
689.1121, 929.2525
689.5942, 916.0259
690.0763, 902.8440
690.5584, 900.8970
691.0405, 910.8975
691.5226, 920.7539
692.0048, 925.7170
692.4869, 928.6169
692.9690, 934.9001
693.4511, 946.9753
693.9332, 950.4061
694.4153, 932.8869
694.8975, 919.1047
695.3796, 924.6489
695.8617, 940.2776
696.3438, 951.8806
696.8259, 954.8315
697.3080, 952.9060
697.7902, 950.7203
698.2723, 947.5383
698.7544, 936.1606
699.2365, 913.4139
699.7186, 898.4516
700.2007, 905.1333
700.6829, 921.2355
701.1650, 920.9971
701.6471, 897.9918
702.1292, 885.9647
702.6113, 898.9577
703.0934, 915.0317
703.5756, 919.2430
704.0577, 916.3574
704.5398, 918.7618
705.0219, 931.4164
705.5040, 945.7458
705.9861, 950.3505
706.4683, 945.7620
706.9504, 938.2961
707.4325, 925.6790
707.9146, 919.4135
708.3967, 931.1398
708.8788, 950.6011
709.3610, 953.6824
709.8431, 933.8057
710.3252, 918.0807
710.8073, 910.1119
711.2894, 909.2236
711.7715, 918.5200
712.2537, 934.1683
712.7358, 949.7394
713.2179, 962.5118
713.7000, 969.1992
714.1821, 964.3422
714.6642, 948.1640
715.1464, 923.7287
715.6285, 884.3736
716.1106, 857.7653
716.5927, 866.5912
717.0748, 897.2700
717.5569, 914.2375
718.0391, 912.0380
718.5212, 910.1179
719.0033, 912.1835
719.4854, 915.9468
719.9675, 922.4268
720.4496, 928.9255
720.9318, 928.4476
721.4139, 917.2389
721.8960, 903.4485
722.3781, 900.0209
722.8602, 906.4772
723.3423, 913.3567
723.8245, 921.7208
724.3066, 924.2719
724.7887, 911.3380
725.2708, 891.2565
725.7529, 887.9823
726.2350, 910.1835
726.7172, 928.0055
727.1993, 933.9797
727.6814, 936.0868
728.1635, 939.2265
728.6456, 943.3234
729.1277, 947.3408
729.6099, 950.9710
730.0920, 952.1401
730.5741, 945.6064
731.0562, 932.7083
731.5383, 926.6313
732.0204, 930.1454
732.5026, 932.7029
732.9847, 927.2908
733.4668, 917.0018
733.9489, 910.1823
734.4310, 907.0417
734.9131, 906.5364
735.3953, 910.2198
735.8774, 914.9737
736.3595, 919.0146
736.8416, 922.6130
737.3237, 927.3204
737.8058, 933.9738
738.2880, 939.0363
738.7701, 937.1605
739.2522, 929.9995
739.7343, 923.9336
740.2164, 919.2769
740.6985, 918.2362
741.1807, 923.3932
741.6628, 931.3351
742.1449, 933.6461
742.6270, 924.8541
743.1091, 922.5359
743.5912, 938.8911
744.0734, 948.9243
744.5555, 931.3990
745.0376, 902.4556
745.5197, 889.7477
746.0018, 902.4582
746.4839, 923.1258
746.9661, 939.6993
747.4482, 951.7372
747.9303, 958.1741
748.4124, 958.9602
748.8945, 952.3254
749.3766, 935.4520
749.8588, 916.9119
750.3409, 914.5518
750.8230, 938.0450
751.3051, 943.5483
751.7872, 910.5486
752.2693, 882.6705
752.7515, 871.2988
753.2336, 873.4044
753.7157, 891.4063
754.1978, 925.9592
754.6799, 946.2226
755.1620, 916.7935
755.6442, 872.9373
756.1263, 862.1250
756.6084, 878.7278
757.0905, 893.0020
757.5726, 893.3401
758.0547, 891.2590
758.5369, 905.1851
759.0190, 937.3116
759.5011, 947.3536
759.9832, 918.6429
760.4653, 896.4209
760.9474, 902.7293
761.4296, 917.0162
761.9117, 920.0614
762.3938, 910.8540
762.8759, 902.1013
763.3580, 895.7484
763.8401, 893.5627
764.3223, 899.3397
764.8044, 909.5282
765.2865, 919.1662
765.7686, 926.3810
766.2507, 928.3575
766.7328, 920.4710
767.2150, 905.7663
767.6971, 900.7988
768.1792, 908.2501
768.6613, 910.9363
769.1434, 899.8816
769.6255, 888.6857
770.1077, 894.8906
770.5898, 916.3746
771.0719, 927.2061
771.5540, 918.5040
772.0361, 908.3151
772.5182, 901.6713
773.0004, 896.6118
773.4825, 888.7351
773.9646, 879.6729
774.4467, 878.0807
774.9288, 891.9797
775.4109, 911.1821
775.8931, 917.1144
776.3752, 911.9788
776.8573, 911.2869
777.3394, 918.5471
777.8215, 925.0239
778.3036, 923.7870
778.7858, 916.5004
779.2679, 910.7299
779.7500, 904.1905
780.2321, 902.9747
780.7142, 912.3701
781.1964, 921.8405
781.6785, 926.1421
782.1606, 925.9354
782.6427, 923.1319
783.1248, 917.8577
783.6069, 912.1462
784.0891, 906.1613
784.5712, 901.3273
785.0533, 902.0629
785.5354, 907.0116
786.0175, 906.8184
786.4996, 896.2340
786.9818, 882.4669
787.4639, 879.4243
787.9460, 889.0795
788.4281, 897.0659
788.9102, 903.8804
789.3923, 908.1173
789.8745, 908.3265
790.3566, 905.9869
790.8387, 902.3604
791.3208, 897.1278
791.8029, 893.7786
792.2850, 896.4096
792.7672, 897.9394
793.2493, 889.1639
793.7314, 878.1133
794.2135, 880.9656
794.6956, 899.9869
795.1777, 917.0347
795.6599, 912.1563
796.1420, 894.2009
796.6241, 888.8243
797.1062, 895.9086
797.5883, 905.4924
798.0704, 916.2158
798.5526, 923.4083
799.0347, 921.1556
799.5168, 909.8786
799.9989, 901.9151
800.4810, 899.3645
800.9631, 897.4427
801.4453, 898.5575
801.9274, 897.7427
802.4095, 887.2480
802.8916, 871.3330
803.3737, 864.2774
803.8558, 874.0365
804.3380, 889.0194
804.8201, 902.5626
805.3022, 913.9630
805.7843, 924.7405
806.2664, 933.2454
806.7485, 928.6293
807.2307, 902.9057
807.7128, 869.2313
808.1949, 856.6580
808.6770, 868.0699
809.1591, 875.5679
809.6412, 876.1264
810.1234, 876.6564
810.6055, 880.5637
811.0876, 886.6673
811.5697, 893.5826
812.0518, 902.7078
812.5339, 906.7161
813.0161, 897.5903
813.4982, 890.6016
813.9803, 897.4446
814.4624, 909.7455
814.9445, 915.2060
815.4266, 911.1157
815.9088, 903.8062
816.3909, 897.2335
816.8730, 891.3174
817.3551, 884.9827
817.8372, 878.8735
818.3193, 877.4545
818.8015, 882.1794
819.2836, 886.7501
819.7657, 884.2978
820.2478, 876.1960
820.7299, 873.5833
821.2120, 877.8751
821.6942, 884.6583
822.1763, 898.6408
822.6584, 909.5058
823.1405, 908.0184
823.6226, 898.3361
824.1047, 892.5219
824.5869, 895.3632
825.0690, 896.8295
825.5511, 888.4594
826.0332, 880.6561
826.5153, 886.5462
826.9974, 901.1165
827.4796, 908.6799
827.9617, 902.2890
828.4438, 892.5360
828.9260, 892.2855
829.4081, 899.4647
829.8902, 908.4595
830.3723, 919.0648
830.8544, 920.7018
831.3365, 907.1516
831.8187, 888.8620
832.3008, 880.6646
832.7829, 883.2166
833.2650, 889.3423
833.7471, 908.9583
834.2292, 917.4717
834.7114, 896.5438
835.1935, 873.2506
835.6756, 873.9398
836.1577, 895.5413
836.6398, 911.1904
837.1219, 906.6338
837.6041, 901.0653
838.0862, 909.2352
838.5683, 919.9133
839.0504, 916.5678
839.5325, 900.8408
840.0146, 887.9109
840.4968, 886.9011
840.9789, 890.7708
841.4610, 885.7656
841.9431, 874.4916
842.4252, 876.8348
842.9073, 895.8616
843.3895, 911.9334
843.8716, 914.4608
844.3537, 908.9498
844.8358, 905.7567
845.3179, 905.7377
845.8000, 904.4335
846.2822, 899.0892
846.7643, 895.9482
847.2464, 900.5057
847.7285, 905.5024
848.2106, 901.3497
848.6927, 888.3275
849.1749, 880.2603
849.6570, 884.3974
850.1391, 892.0457
850.6212, 903.5228
851.1033, 912.4429
851.5854, 905.8317
852.0676, 886.2126
852.5497, 871.7048
853.0318, 874.5287
853.5139, 886.8575
853.9960, 899.3635
854.4781, 910.6474
854.9603, 910.0572
855.4424, 895.6342
855.9245, 885.7268
856.4066, 892.3331
856.8887, 906.2845
857.3708, 907.3563
857.8530, 890.7084
858.3351, 880.4911
858.8172, 880.6423
859.2993, 881.6184
859.7814, 879.8362
860.2635, 877.4785
860.7457, 876.5875
861.2278, 877.2808
861.7099, 879.5626
862.1920, 883.1595
862.6741, 888.6684
863.1563, 899.7866
863.6384, 910.8878
864.1205, 916.2570
864.6026, 914.8649
865.0847, 905.8926
865.5668, 885.8232
866.0490, 866.7853
866.5311, 869.1536
867.0132, 885.4347
867.4953, 893.6485
867.9774, 891.4490
868.4595, 881.6945
868.9417, 864.5430
869.4238, 847.5531
869.9059, 845.9884
870.3880, 862.2333
870.8701, 874.4982
871.3522, 882.4523
871.8344, 887.1888
872.3165, 887.7592
872.7986, 886.4333
873.2807, 885.6508
873.7628, 885.3906
874.2449, 885.8116
874.7271, 886.5526
875.2092, 888.4469
875.6913, 892.2416
876.1734, 896.8742
876.6555, 903.5631
877.1376, 910.3009
877.6198, 910.8174
878.1019, 900.3013
878.5840, 889.7467
879.0661, 890.6146
879.5482, 895.8909
880.0303, 895.0209
880.5125, 888.3781
880.9946, 879.4160
881.4767, 869.6947
881.9588, 865.2354
882.4409, 878.5005
882.9230, 905.2595
883.4052, 915.1100
883.8873, 906.7495
884.3694, 895.1549
884.8515, 883.1919
885.3336, 874.5703
885.8157, 874.3672
886.2979, 881.5211
886.7800, 883.1472
887.2621, 872.5721
887.7442, 867.9055
888.2263, 872.2490
888.7084, 881.2416
889.1906, 899.4790
889.6727, 919.1849
890.1548, 922.2144
890.6369, 899.5038
891.1190, 883.4073
891.6011, 891.6328
892.0833, 903.9044
892.5654, 907.2392
893.0475, 903.8696
893.5296, 898.2193
894.0117, 891.7221
894.4938, 884.8531
894.9760, 875.6198
895.4581, 868.4717
895.9402, 874.3369
896.4223, 887.8327
896.9044, 891.1617
897.3865, 881.7272
897.8687, 869.8955
898.3508, 862.1211
898.8329, 859.3930
899.3150, 865.9338
899.7971, 882.7457
900.2792, 895.1425
900.7614, 903.2137
901.2435, 902.8953
901.7256, 887.2635
902.2077, 868.4979
902.6898, 867.0448
903.1719, 886.4379
903.6541, 900.2678
904.1362, 908.4783
904.6183, 911.1776
905.1004, 900.7936
905.5825, 890.9591
906.0646, 897.0853
906.5468, 914.5961
907.0289, 922.2054
907.5110, 908.0800
907.9931, 894.8739
908.4752, 895.4948
908.9573, 899.0410
909.4395, 894.1781
909.9216, 884.1534
910.4037, 878.3309
910.8858, 880.0273
911.3679, 883.2679
911.8500, 879.8907
912.3322, 875.9446
912.8143, 886.3896
913.2964, 906.0444
913.7785, 915.7164
914.2606, 910.5598
914.7427, 895.9842
915.2249, 874.6510
915.7070, 850.9780
916.1891, 836.7786
916.6712, 831.9205
917.1533, 841.6619
917.6354, 871.1577
918.1176, 897.7784
918.5997, 909.5408
919.0818, 909.7565
919.5639, 903.9387
920.0460, 890.3339
920.5281, 878.3666
921.0103, 863.6794
921.4924, 856.9225
921.9745, 866.7750
922.4566, 880.6874
922.9387, 888.0775
923.4208, 889.3761
923.9030, 890.0219
924.3851, 889.7021
924.8672, 890.7066
925.3493, 891.1929
925.8314, 895.5092
926.3135, 915.2619
926.7957, 939.6053
927.2778, 944.2146
927.7599, 920.7737
928.2420, 893.8585
928.7241, 875.5515
929.2062, 867.4175
929.6884, 880.3766
930.1705, 902.7809
930.6526, 906.0880
931.1347, 886.2129
931.6168, 863.9755
932.0989, 854.3568
932.5811, 854.8190
933.0632, 864.1077
933.5453, 880.0165
934.0274, 888.4597
934.5095, 887.8826
934.9916, 886.5852
935.4738, 888.8399
935.9559, 892.9597
936.4380, 897.3605
936.9201, 902.4447
937.4022, 895.9296
937.8843, 871.0856
938.3665, 856.3682
938.8486, 864.8254
939.3307, 877.1371
939.8128, 873.7406
940.2949, 857.9156
940.7770, 852.3506
941.2592, 868.0297
941.7413, 877.2599
942.2234, 870.3184
942.7055, 867.1455
943.1876, 886.9212
943.6697, 911.9355
944.1519, 911.3231
944.6340, 879.5137
945.1161, 858.3469
945.5982, 873.8340
946.0803, 887.2374
946.5624, 870.7127
947.0446, 847.3795
947.5267, 844.1008
948.0088, 860.0042
948.4909, 879.5075
948.9730, 898.1873
949.4551, 909.7440
949.9373, 903.4123
950.4194, 890.3516
950.9015, 886.5273
951.3836, 889.8094
951.8657, 891.3973
952.3478, 888.2402
952.8300, 881.7292
953.3121, 869.9307
953.7942, 858.7994
954.2763, 868.2083
954.7584, 892.6408
955.2405, 898.1086
955.7227, 879.3837
956.2048, 859.6750
956.6869, 853.0500
957.1690, 857.0605
957.6511, 870.4221
958.1332, 894.5587
958.6154, 900.5100
959.0975, 882.5188
959.5796, 873.4084
960.0617, 887.5818
960.5438, 907.6570
961.0259, 915.5678
961.5081, 912.0841
961.9902, 905.1125
962.4723, 892.4517
962.9544, 880.6286
963.4365, 865.1129
963.9186, 856.7439
964.4008, 871.0351
964.8829, 892.6837
965.3650, 892.1824
965.8471, 861.6927
966.3292, 849.9570
966.8113, 877.9254
967.2935, 905.0582
967.7756, 929.8041
968.2577, 938.8438
968.7398, 905.5475
969.2219, 844.7121
969.7040, 812.5772
970.1862, 836.7764
970.6683, 862.9136
971.1504, 863.0294
971.6325, 857.7510
972.1146, 864.7039
972.5967, 878.5876
973.0789, 887.4184
973.5610, 889.0095
974.0431, 891.9581
974.5252, 906.4230
975.0073, 919.7955
975.4894, 917.5723
975.9716, 905.7047
976.4537, 889.8511
976.9358, 874.0774
977.4179, 870.2684
977.9000, 884.5760
978.3821, 900.5996
978.8643, 893.9229
979.3464, 875.0815
979.8285, 874.5742
980.3106, 888.5973
980.7927, 892.6645
981.2748, 881.1539
981.7570, 872.7985
982.2391, 884.4142
982.7212, 905.2848
983.2033, 906.2799
983.6854, 888.2590
984.1675, 880.0175
984.6497, 884.5192
985.1318, 888.4370
985.6139, 885.8053
986.0960, 881.4454
986.5781, 882.4297
987.0602, 887.9847
987.5424, 885.2704
988.0245, 870.6697
988.5066, 860.5876
988.9887, 857.3785
989.4708, 859.9184
989.9529, 870.8699
990.4351, 884.5126
990.9172, 886.5403
991.3993, 871.3892
991.8814, 866.9037
992.3635, 883.6345
992.8456, 895.3480
993.3278, 894.2139
993.8099, 886.2680
994.2920, 870.7919
994.7741, 851.7562
995.2562, 847.6850
995.7383, 873.6066
996.2205, 889.2181
996.7026, 880.4570
997.1847, 870.9844
997.6668, 871.7338
998.1489, 878.6106
998.6310, 886.8163
999.1132, 895.5535
999.5953, 902.6443
1000.077, 913.5450
1000.560, 914.8558
1001.042, 890.3275
1001.524, 863.6707
1002.006, 854.8017
1002.488, 860.1301
1002.970, 871.1656
1003.452, 886.0060
1003.934, 893.3289
1004.416, 878.5628
1004.899, 862.3780
1005.381, 862.2737
1005.863, 870.2734
1006.345, 876.6646
1006.827, 879.5112
1007.309, 877.9771
1007.791, 870.0432
1008.273, 866.7287
1008.755, 885.4861
1009.238, 909.3656
1009.720, 912.7615
1010.202, 902.7089
1010.684, 899.7319
1011.166, 907.4451
1011.648, 912.8248
1012.130, 906.0774
1012.612, 893.0447
1013.095, 877.8734
1013.577, 864.2847
1014.059, 862.8530
1014.541, 872.4234
1015.023, 885.3388
1015.505, 898.3142
1015.987, 906.9087
1016.469, 905.6781
1016.951, 897.4133
1017.434, 885.4869
1017.916, 872.1755
1018.398, 874.0317
1018.880, 892.2886
1019.362, 906.1669
1019.844, 904.0784
1020.326, 895.8717
1020.808, 898.1293
1021.291, 908.3747
1021.773, 904.2391
1022.255, 885.4920
1022.737, 877.6461
1023.219, 887.2904
1023.701, 899.6382
1024.183, 904.4773
1024.665, 903.8472
1025.147, 901.8458
1025.630, 898.2120
1026.112, 897.0605
1026.594, 899.2448
1027.076, 899.2959
1027.558, 895.3013
1028.040, 888.9459
1028.522, 880.3652
1029.004, 871.7737
1029.486, 874.4567
1029.969, 893.7792
1030.451, 901.6561
1030.933, 892.9797
1031.415, 883.0417
1031.897, 877.0241
1032.379, 874.3411
1032.861, 875.1594
1033.343, 879.0720
1033.826, 879.9183
1034.308, 877.2206
1034.790, 872.1234
1035.272, 860.7927
1035.754, 853.6107
1036.236, 856.8676
1036.718, 866.5344
1037.200, 877.5558
1037.682, 890.5364
1038.165, 897.8511
1038.647, 898.4822
1039.129, 894.9974
1039.611, 880.9145
1040.093, 870.3898
1040.575, 876.6949
1041.057, 890.9544
1041.539, 894.7097
1042.021, 886.0663
1042.504, 875.2653
1042.986, 851.0419
1043.468, 840.2236
1043.950, 863.5873
1044.432, 888.7367
1044.914, 886.7715
1045.396, 868.2676
1045.878, 864.6075
1046.361, 884.7695
1046.843, 898.5066
1047.325, 896.3230
1047.807, 895.0276
1048.289, 905.1219
1048.771, 914.7083
1049.253, 910.3539
1049.735, 895.4176
1050.218, 884.5496
1050.700, 878.5857
1051.182, 879.5386
1051.664, 899.8992
1052.146, 913.0729
1052.628, 897.1823
1053.110, 874.1456
1053.592, 871.1135
1054.074, 885.9496
1054.557, 892.9055
1055.039, 877.6539
1055.521, 870.4174
1056.003, 893.1380
1056.485, 911.2637
1056.967, 894.9765
1057.449, 867.4390
1057.931, 861.8361
1058.413, 879.2945
1058.896, 892.3941
1059.378, 888.7487
1059.860, 886.3152
1060.342, 897.8608
1060.824, 905.9373
1061.306, 888.3074
1061.788, 863.8765
1062.270, 866.8087
1062.753, 900.0466
1063.235, 923.2532
1063.717, 916.6221
1064.199, 904.4323
1064.681, 892.7913
1065.163, 882.7626
1065.645, 873.7569
1066.127, 867.4952
1066.609, 868.1293
1067.092, 876.1909
1067.574, 882.6768
1068.056, 884.4564
1068.538, 883.2087
1069.020, 873.4039
1069.502, 866.5009
1069.984, 877.2766
1070.466, 897.5805
1070.948, 909.0203
1071.431, 907.3511
1071.913, 905.6929
1072.395, 912.4822
1072.877, 917.3526
1073.359, 913.9633
1073.841, 906.8687
1074.323, 898.7345
1074.805, 890.9781
1075.288, 884.4911
1075.770, 879.2366
1076.252, 880.2479
1076.734, 899.9125
1077.216, 914.3105
1077.698, 903.3047
1078.180, 885.6188
1078.662, 879.8233
1079.145, 883.7075
1079.627, 886.7651
1080.109, 885.9932
1080.591, 886.5135
1081.073, 893.8289
1081.555, 899.2902
1082.037, 895.6639
1082.519, 889.4282
1083.001, 887.7626
1083.484, 889.4301
1083.966, 888.1866
1084.448, 881.3216
1084.930, 879.5465
1085.412, 894.8740
1085.894, 907.8109
1086.376, 904.9194
1086.858, 896.0964
1087.341, 888.7119
1087.823, 885.2509
1088.305, 891.2606
1088.787, 911.3647
1089.269, 921.6880
1089.751, 901.9366
1090.233, 882.4724
1090.715, 882.3091
1091.198, 888.5929
1091.680, 886.4136
1092.162, 878.7649
1092.644, 879.7722
1093.126, 896.0207
1093.608, 904.7963
1094.090, 889.4877
1094.572, 875.0349
1095.054, 875.5408
1095.536, 881.5039
1096.019, 885.3617
1096.501, 885.9621
1096.983, 881.3065
1097.465, 867.7894
1097.947, 863.7316
1098.429, 890.3942
1098.911, 908.1837
1099.393, 886.9256
1099.876, 859.1052
1100.358, 856.5143
1100.840, 873.2505
1101.322, 885.4129
1101.804, 887.6666
1102.286, 890.8824
1102.768, 904.4289
1103.250, 910.5100
1103.733, 889.1277
1104.215, 868.7681
1104.697, 881.3771
1105.179, 914.5336
1105.661, 929.5474
1106.143, 915.9248
1106.625, 907.3677
1107.107, 917.6744
1107.589, 921.8229
1108.072, 902.0767
1108.554, 882.4077
1109.036, 888.1224
1109.518, 907.9549
1110.000, 910.2484
1110.482, 887.0363
1110.964, 870.0659
1111.446, 863.3060
1111.928, 859.8717
1112.411, 857.4186
1112.893, 858.5503
1113.375, 870.2117
1113.857, 885.5296
1114.339, 887.5737
1114.821, 872.3741
1115.303, 861.3292
1115.785, 851.4269
1116.268, 851.0533
1116.750, 868.3912
1117.232, 886.9914
1117.714, 896.1945
1118.196, 899.2772
1118.678, 903.5994
1119.160, 910.4552
1119.642, 907.6512
1120.125, 890.0176
1120.607, 873.7991
1121.089, 856.3915
1121.571, 852.8922
1122.053, 880.6724
1122.535, 917.8251
1123.017, 923.6619
1123.499, 897.0202
1123.981, 878.7613
1124.464, 869.8298
1124.946, 866.2542
1125.428, 869.2309
1125.910, 871.3305
1126.392, 867.9614
1126.874, 862.7933
1127.356, 861.0171
1127.838, 862.5932
1128.320, 867.9754
1128.803, 877.7318
1129.285, 885.2319
1129.767, 889.7266
1130.249, 889.9079
1130.731, 884.4402
1131.213, 878.4260
1131.695, 878.5725
1132.177, 883.3322
1132.660, 884.8522
1133.142, 883.6788
1133.624, 892.5482
1134.106, 912.1083
1134.588, 918.7484
1135.070, 902.6577
1135.552, 887.1156
1136.034, 899.0767
1136.516, 922.4017
1136.999, 911.8625
1137.481, 878.1448
1137.963, 864.8854
1138.445, 872.6613
1138.927, 884.7059
1139.409, 895.0137
1139.891, 901.7245
1140.373, 903.5452
1140.855, 900.4680
1141.338, 882.5895
1141.820, 864.5060
1142.302, 890.4251
1142.784, 942.0074
1143.266, 956.8151
1143.748, 925.5105
1144.230, 890.8464
1144.712, 877.0970
1145.195, 878.8169
1145.677, 902.9861
1146.159, 929.2192
1146.641, 929.8195
1147.123, 914.2745
1147.605, 898.1042
1148.087, 885.6342
1148.569, 878.2300
1149.052, 876.4992
1149.534, 879.9301
1150.016, 896.6572
1150.498, 909.2822
1150.980, 897.1426
1151.462, 878.0827
1151.944, 873.9899
1152.426, 883.0139
1152.908, 893.7929
1153.391, 904.5142
1153.873, 907.1362
1154.355, 886.6488
1154.837, 872.8094
1155.319, 885.5192
1155.801, 904.1284
1156.283, 913.8486
1156.765, 915.6149
1157.247, 913.2598
1157.730, 907.0015
1158.212, 899.1619
1158.694, 883.5482
1159.176, 875.9111
1159.658, 884.2184
1160.140, 895.2879
1160.622, 906.7456
1161.104, 913.6529
1161.587, 905.5550
1162.069, 883.2259
1162.551, 875.6016
1163.033, 890.0943
1163.515, 902.4993
1163.997, 914.3525
1164.479, 916.3115
1164.961, 899.6097
1165.443, 881.3945
1165.926, 881.0734
1166.408, 893.6029
1166.890, 897.2476
1167.372, 890.3293
1167.854, 889.8781
1168.336, 897.9034
1168.818, 897.3950
1169.300, 881.8076
1169.782, 871.0775
1170.265, 882.7304
1170.747, 902.5856
1171.229, 899.0126
1171.711, 877.0094
1172.193, 867.2206
1172.675, 869.1852
1173.157, 879.1800
1173.639, 895.4623
1174.122, 912.3466
1174.604, 927.0918
1175.086, 932.5883
1175.568, 908.6796
1176.050, 877.6288
1176.532, 890.1767
1177.014, 923.5335
1177.496, 926.6036
1177.979, 903.0390
1178.461, 887.3463
1178.943, 891.1210
1179.425, 898.4355
1179.907, 899.1747
1180.389, 897.0248
1180.871, 892.5467
1181.353, 889.0253
1181.835, 892.1047
1182.318, 897.8453
1182.800, 897.5226
1183.282, 891.0310
1183.764, 889.3080
1184.246, 900.9346
1184.728, 908.1558
1185.210, 899.0165
1185.692, 890.3142
1186.174, 894.0113
1186.657, 900.8256
1187.139, 901.5624
1187.621, 896.1951
1188.103, 886.1119
1188.585, 866.1142
1189.067, 857.1395
1189.549, 868.0000
1190.031, 876.0001
1190.514, 872.3112
1190.996, 871.0237
1191.478, 884.0850
1191.960, 902.6434
1192.442, 910.2310
1192.924, 906.7639
1193.406, 902.3011
1193.888, 896.1626
1194.370, 893.0159
1194.853, 893.6036
1195.335, 896.6399
1195.817, 902.0454
1196.299, 906.6890
1196.781, 907.4915
1197.263, 904.1674
1197.745, 888.0049
1198.227, 865.9120
1198.709, 888.2934
1199.192, 946.5076
1199.674, 966.8619
1200.156, 933.8809
1200.638, 905.0806
1201.120, 921.1747
1201.602, 947.1241
1202.084, 935.2831
1202.566, 910.3852
1203.049, 909.6672
1203.531, 922.2773
1204.013, 928.1301
1204.495, 925.6411
1204.977, 921.6651
1205.459, 918.6057
1205.941, 914.5369
1206.423, 903.8620
1206.906, 897.5612
1207.388, 908.8965
1207.870, 920.5856
1208.352, 914.5713
1208.834, 900.1683
1209.316, 895.5181
1209.798, 901.9752
1210.280, 904.7772
1210.762, 897.1771
1211.245, 893.1130
1211.727, 892.9413
1212.209, 897.7719
1212.691, 911.1285
1213.173, 926.2982
1213.655, 940.6867
1214.137, 949.9883
1214.619, 937.7559
1215.101, 898.5652
1215.584, 879.2850
1216.066, 882.9152
1216.548, 889.5723
1217.030, 896.0662
1217.512, 898.4654
1217.994, 894.0465
1218.476, 888.1896
1218.958, 889.5647
1219.441, 894.0820
1219.923, 884.8836
1220.405, 868.0553
1220.887, 868.6633
1221.369, 884.8856
1221.851, 898.6660
1222.333, 904.4138
1222.815, 906.6125
1223.297, 907.7507
1223.780, 908.5667
1224.262, 913.4979
1224.744, 915.0717
1225.226, 899.9281
1225.708, 879.1204
1226.190, 869.1429
1226.672, 869.6049
1227.154, 871.1876
1227.636, 871.3450
1228.119, 872.4233
1228.601, 874.1946
1229.083, 878.3958
1229.565, 888.7126
1230.047, 898.4028
1230.529, 898.2653
1231.011, 897.6547
1231.493, 916.1024
1231.976, 951.0958
1232.458, 958.4371
1232.940, 923.2400
1233.422, 907.2015
1233.904, 919.1985
1234.386, 927.4566
1234.868, 921.1523
1235.350, 911.3553
1235.833, 906.0250
1236.315, 906.0314
1236.797, 917.1042
1237.279, 935.6022
1237.761, 937.5076
1238.243, 926.0500
1238.725, 917.5791
1239.207, 913.7425
1239.689, 906.0422
1240.172, 891.5161
1240.654, 882.7113
1241.136, 894.2438
1241.618, 910.1674
1242.100, 911.8432
1242.582, 909.4015
1243.064, 917.5090
1243.546, 928.8259
1244.028, 925.9494
1244.511, 911.3467
1244.993, 908.7497
##END=



