##NAMES=Salammoniac
##RRUFFID=R061022
##IDEAL CHEMISTRY=N^3-^H_4_Cl
##LOCALITY=Schoeller mine, Kladno, Bohemia, Czech Republic
##OWNER=RRUFF
##SOURCE=Michael Scott
##DESCRIPTION=A crust of colorless tabular crystals
##STATUS=The identification of this mineral has been confirmed by X-ray diffraction and chemical analysis
##URL=rruff.info/R061022
##MEASURED CHEMISTRY=NH_4_Cl_1.00_ ; N, H not measured but estimated by stoichiometry
118.8382, 2166.206
119.3203, 2169.236
119.8024, 2177.511
120.2845, 2190.534
120.7667, 2206.516
121.2488, 2224.627
121.7309, 2245.094
122.2130, 2267.126
122.6951, 2291.511
123.1772, 2316.827
123.6594, 2341.110
124.1415, 2364.030
124.6236, 2388.577
125.1057, 2417.272
125.5878, 2449.388
126.0699, 2484.458
126.5521, 2523.579
127.0342, 2565.703
127.5163, 2608.618
127.9984, 2652.254
128.4805, 2696.628
128.9626, 2741.824
129.4448, 2787.823
129.9269, 2834.184
130.4090, 2881.206
130.8911, 2928.935
131.3732, 2975.653
131.8553, 3020.836
132.3375, 3065.459
132.8196, 3110.648
133.3017, 3155.867
133.7838, 3199.109
134.2659, 3237.888
134.7480, 3270.920
135.2302, 3302.004
135.7123, 3332.265
136.1944, 3360.067
136.6765, 3384.427
137.1586, 3405.079
137.6407, 3422.041
138.1229, 3435.530
138.6050, 3445.223
139.0871, 3451.143
139.5692, 3453.254
140.0513, 3451.562
140.5334, 3445.613
141.0156, 3434.793
141.4977, 3420.678
141.9798, 3406.630
142.4619, 3393.380
142.9440, 3378.459
143.4261, 3360.078
143.9083, 3338.915
144.3904, 3317.625
144.8725, 3297.814
145.3546, 3277.822
145.8367, 3255.317
146.3188, 3229.489
146.8010, 3202.759
147.2831, 3177.109
147.7652, 3152.604
148.2473, 3128.631
148.7294, 3105.196
149.2115, 3082.083
149.6937, 3058.965
150.1758, 3035.532
150.6579, 3012.628
151.1400, 2991.575
151.6221, 2972.873
152.1042, 2955.496
152.5864, 2938.800
153.0685, 2923.189
153.5506, 2909.353
154.0327, 2897.629
154.5148, 2887.697
154.9969, 2877.929
155.4791, 2868.001
155.9612, 2858.708
156.4433, 2849.734
156.9254, 2841.521
157.4075, 2834.708
157.8896, 2829.679
158.3718, 2826.426
158.8539, 2825.137
159.3360, 2826.306
159.8181, 2828.570
160.3002, 2831.966
160.7823, 2836.186
161.2645, 2840.614
161.7466, 2844.815
162.2287, 2848.771
162.7108, 2852.574
163.1929, 2856.680
163.6750, 2860.316
164.1572, 2863.284
164.6393, 2865.503
165.1214, 2866.515
165.6035, 2866.002
166.0856, 2863.807
166.5677, 2859.638
167.0499, 2853.257
167.5320, 2844.954
168.0141, 2835.557
168.4962, 2825.476
168.9783, 2812.559
169.4604, 2794.366
169.9426, 2772.054
170.4247, 2747.108
170.9068, 2719.984
171.3889, 2690.586
171.8710, 2658.273
172.3531, 2622.109
172.8353, 2584.293
173.3174, 2546.367
173.7995, 2507.956
174.2816, 2468.839
174.7637, 2427.890
175.2458, 2385.241
175.7280, 2344.685
176.2101, 2306.638
176.6922, 2270.436
177.1743, 2235.810
177.6564, 2202.837
178.1385, 2171.323
178.6207, 2141.478
179.1028, 2113.590
179.5849, 2085.856
180.0670, 2057.263
180.5491, 2029.839
181.0313, 2004.389
181.5134, 1980.853
181.9955, 1959.019
182.4776, 1938.552
182.9597, 1919.715
183.4418, 1901.690
183.9240, 1883.963
184.4061, 1867.228
184.8882, 1852.430
185.3703, 1839.402
185.8524, 1826.695
186.3345, 1812.479
186.8167, 1795.798
187.2988, 1780.511
187.7809, 1766.539
188.2630, 1753.776
188.7451, 1742.496
189.2272, 1732.656
189.7094, 1723.499
190.1915, 1714.135
190.6736, 1704.606
191.1557, 1694.461
191.6378, 1683.229
192.1199, 1671.472
192.6021, 1659.722
193.0842, 1648.087
193.5663, 1636.678
194.0484, 1626.160
194.5305, 1616.458
195.0126, 1606.242
195.4948, 1595.218
195.9769, 1583.408
196.4590, 1570.539
196.9411, 1556.155
197.4232, 1541.541
197.9053, 1528.210
198.3875, 1515.992
198.8696, 1503.708
199.3517, 1490.528
199.8338, 1476.767
200.3159, 1463.695
200.7980, 1452.217
201.2802, 1440.550
201.7623, 1427.250
202.2444, 1412.587
202.7265, 1397.758
203.2086, 1383.710
203.6907, 1370.480
204.1729, 1357.309
204.6550, 1344.838
205.1371, 1331.831
205.6192, 1317.090
206.1013, 1300.999
206.5834, 1285.293
207.0656, 1272.184
207.5477, 1262.278
208.0298, 1250.776
208.5119, 1235.542
208.9940, 1220.355
209.4761, 1206.742
209.9583, 1194.667
210.4404, 1183.115
210.9225, 1170.835
211.4046, 1157.387
211.8867, 1145.130
212.3689, 1134.923
212.8510, 1125.020
213.3331, 1114.675
213.8152, 1103.830
214.2973, 1092.868
214.7794, 1082.248
215.2616, 1071.939
215.7437, 1062.064
216.2258, 1052.568
216.7079, 1043.497
217.1900, 1034.937
217.6721, 1026.873
218.1543, 1019.047
218.6364, 1011.264
219.1185, 1003.621
219.6006, 995.6218
220.0827, 986.7472
220.5648, 977.9578
221.0470, 969.9265
221.5291, 962.7474
222.0112, 956.0544
222.4933, 949.5566
222.9754, 943.3525
223.4575, 936.8340
223.9397, 929.7849
224.4218, 922.6284
224.9039, 915.5956
225.3860, 908.7635
225.8681, 902.2482
226.3502, 896.3018
226.8324, 890.9526
227.3145, 885.3384
227.7966, 878.8737
228.2787, 872.4180
228.7608, 866.8801
229.2429, 862.3777
229.7251, 858.0983
230.2072, 853.3007
230.6893, 848.0754
231.1714, 842.9431
231.6535, 838.4540
232.1356, 833.8631
232.6178, 827.8815
233.0999, 820.1680
233.5820, 812.8072
234.0641, 807.9285
234.5462, 804.6721
235.0283, 801.1895
235.5105, 796.8438
235.9926, 792.0892
236.4747, 787.5603
236.9568, 783.3304
237.4389, 779.1500
237.9210, 774.8334
238.4032, 770.4963
238.8853, 766.3272
239.3674, 762.4015
239.8495, 758.7004
240.3316, 755.2264
240.8137, 752.1292
241.2959, 748.8619
241.7780, 744.9841
242.2601, 740.8241
242.7422, 736.6868
243.2243, 732.6139
243.7064, 728.7423
244.1886, 725.3697
244.6707, 722.6945
245.1528, 720.0499
245.6349, 717.3076
246.1170, 714.4330
246.5991, 711.2885
247.0813, 707.7569
247.5634, 704.1424
248.0455, 701.1448
248.5276, 699.3022
249.0097, 696.8646
249.4918, 693.0648
249.9740, 688.7308
250.4561, 684.3957
250.9382, 680.2410
251.4203, 676.4705
251.9024, 673.5098
252.3845, 671.6145
252.8667, 670.0181
253.3488, 668.9969
253.8309, 667.9385
254.3130, 666.2087
254.7951, 663.6410
255.2772, 660.7590
255.7594, 658.5497
256.2415, 657.4401
256.7236, 656.1125
257.2057, 654.2348
257.6878, 652.2916
258.1699, 650.7585
258.6520, 649.7050
259.1342, 648.6865
259.6163, 646.8929
260.0984, 643.4111
260.5805, 641.1159
261.0626, 640.7457
261.5447, 640.8058
262.0269, 640.4033
262.5090, 639.3450
262.9911, 637.9008
263.4732, 636.4288
263.9553, 634.9833
264.4374, 633.3259
264.9196, 630.9146
265.4017, 628.7482
265.8838, 627.8418
266.3659, 628.0198
266.8480, 627.9702
267.3301, 626.0861
267.8123, 621.5744
268.2944, 618.6424
268.7765, 617.9323
269.2586, 617.8861
269.7407, 618.1815
270.2228, 618.5111
270.7050, 618.2201
271.1871, 616.5972
271.6692, 613.4218
272.1513, 611.0009
272.6334, 609.2921
273.1155, 608.1689
273.5977, 607.9240
274.0798, 608.2797
274.5619, 608.4822
275.0440, 607.9379
275.5261, 606.6605
276.0082, 605.6360
276.4904, 605.2130
276.9725, 604.6287
277.4546, 603.3058
277.9367, 601.5814
278.4188, 600.3682
278.9009, 600.3492
279.3831, 601.2183
279.8652, 600.9384
280.3473, 598.4001
280.8294, 596.2200
281.3115, 595.3363
281.7936, 595.2990
282.2758, 595.2732
282.7579, 594.8718
283.2400, 594.1937
283.7221, 593.5262
284.2042, 592.9744
284.6863, 592.2868
285.1685, 591.2541
285.6506, 590.0922
286.1327, 589.1469
286.6148, 588.5557
287.0969, 588.1628
287.5790, 587.6552
288.0612, 586.9086
288.5433, 586.3562
289.0254, 586.3932
289.5075, 586.5354
289.9896, 586.0880
290.4717, 584.8485
290.9539, 583.3329
291.4360, 582.2087
291.9181, 581.5309
292.4002, 581.0176
292.8823, 580.8168
293.3644, 580.6738
293.8466, 580.2829
294.3287, 579.5963
294.8108, 578.8849
295.2929, 578.3984
295.7750, 578.1600
296.2571, 578.0297
296.7393, 578.0336
297.2214, 578.1182
297.7035, 578.3889
298.1856, 578.8014
298.6677, 578.8900
299.1498, 578.1345
299.6320, 576.6572
300.1141, 575.8832
300.5962, 576.5208
301.0783, 577.2141
301.5604, 577.1436
302.0425, 576.4003
302.5247, 575.4660
303.0068, 574.6034
303.4889, 573.7562
303.9710, 572.6956
304.4531, 570.9713
304.9352, 569.6594
305.4174, 569.5205
305.8995, 570.1957
306.3816, 570.7933
306.8637, 571.0258
307.3458, 570.8640
307.8279, 570.1307
308.3101, 568.6456
308.7922, 567.2803
309.2743, 566.3570
309.7564, 565.7198
310.2385, 565.1108
310.7206, 564.4509
311.2028, 563.8040
311.6849, 563.3034
312.1670, 562.9752
312.6491, 562.4824
313.1312, 561.6263
313.6133, 560.6233
314.0955, 559.6611
314.5776, 558.7619
315.0597, 558.1091
315.5418, 558.0813
316.0239, 558.6419
316.5060, 558.6016
316.9882, 557.4216
317.4703, 555.9196
317.9524, 554.6682
318.4345, 553.7106
318.9166, 553.0386
319.3987, 552.7462
319.8809, 552.7565
320.3630, 552.5638
320.8451, 551.9709
321.3272, 551.3723
321.8093, 551.1676
322.2914, 551.1896
322.7736, 550.7527
323.2557, 549.3658
323.7378, 547.4932
324.2199, 546.3900
324.7020, 546.3943
325.1841, 546.3721
325.6663, 545.9091
326.1484, 545.1522
326.6305, 544.3583
327.1126, 543.5910
327.5947, 542.8710
328.0768, 542.2177
328.5590, 541.6109
329.0411, 541.1404
329.5232, 541.1183
330.0053, 541.1053
330.4874, 540.4117
330.9695, 538.9106
331.4517, 537.4028
331.9338, 536.7815
332.4159, 537.1533
332.8980, 537.2336
333.3801, 536.6207
333.8622, 535.9777
334.3444, 535.9989
334.8265, 536.5876
335.3086, 536.8490
335.7907, 536.0413
336.2729, 534.3384
336.7550, 533.2056
337.2371, 533.1837
337.7192, 533.0919
338.2013, 532.3104
338.6834, 531.0735
339.1656, 529.9231
339.6477, 529.1049
340.1298, 528.5573
340.6119, 528.1835
341.0940, 528.3352
341.5761, 528.0250
342.0583, 526.7533
342.5404, 525.0362
343.0225, 523.4988
343.5046, 522.3190
343.9867, 521.3907
344.4688, 520.5913
344.9510, 520.0035
345.4331, 519.3263
345.9152, 518.8144
346.3973, 518.0379
346.8794, 516.3061
347.3615, 513.7531
347.8437, 511.5592
348.3258, 510.8344
348.8079, 511.6820
349.2900, 511.9512
349.7721, 511.5203
350.2542, 510.7510
350.7364, 509.5889
351.2185, 508.1999
351.7006, 506.9175
352.1827, 505.9399
352.6648, 505.1933
353.1469, 504.3771
353.6291, 503.1257
354.1112, 502.2528
354.5933, 502.3637
355.0754, 502.6944
355.5575, 502.1701
356.0396, 500.4778
356.5218, 498.4475
357.0039, 497.5500
357.4860, 498.7899
357.9681, 499.0113
358.4502, 497.4101
358.9323, 495.5053
359.4145, 494.4304
359.8966, 494.1752
360.3787, 493.8744
360.8608, 492.6548
361.3429, 490.4073
361.8250, 488.5395
362.3072, 487.0993
362.7893, 485.9629
363.2714, 485.2510
363.7535, 484.8094
364.2356, 484.3937
364.7177, 483.8633
365.1999, 483.2393
365.6820, 482.6315
366.1641, 482.4409
366.6462, 481.6615
367.1283, 479.6105
367.6104, 477.2661
368.0926, 475.6938
368.5747, 475.1624
369.0568, 474.9201
369.5389, 473.6933
370.0210, 470.8272
370.5031, 468.8112
370.9853, 468.4635
371.4674, 468.2703
371.9495, 467.4303
372.4316, 465.9971
372.9137, 464.5338
373.3958, 463.5233
373.8780, 462.9426
374.3601, 462.2672
374.8422, 461.6223
375.3243, 460.6869
375.8064, 459.1561
376.2885, 457.3517
376.7707, 455.7302
377.2528, 454.4997
377.7349, 453.5482
378.2170, 452.6953
378.6991, 452.0513
379.1812, 451.1810
379.6634, 449.7039
380.1455, 448.1379
380.6276, 446.8888
381.1097, 446.0272
381.5918, 445.2687
382.0739, 444.3526
382.5561, 443.2881
383.0382, 442.2030
383.5203, 441.1458
384.0024, 440.0197
384.4845, 438.5797
384.9666, 436.9961
385.4488, 435.7932
385.9309, 435.5725
386.4130, 435.8098
386.8951, 435.2386
387.3772, 433.6415
387.8593, 432.0701
388.3415, 431.0985
388.8236, 430.4759
389.3057, 429.9609
389.7878, 429.6093
390.2699, 429.1223
390.7520, 428.0319
391.2342, 426.4514
391.7163, 425.3743
392.1984, 425.3851
392.6805, 425.6005
393.1626, 424.8000
393.6447, 422.9891
394.1269, 421.3314
394.6090, 420.2711
395.0911, 419.6394
395.5732, 419.2610
396.0553, 419.1429
396.5374, 418.9951
397.0196, 418.6082
397.5017, 417.9795
397.9838, 417.2041
398.4659, 416.2045
398.9480, 415.1337
399.4301, 413.9684
399.9123, 412.7861
400.3944, 411.8555
400.8765, 411.3289
401.3586, 411.0654
401.8407, 410.7261
402.3228, 410.2275
402.8050, 409.8428
403.2871, 409.7938
403.7692, 409.7952
404.2513, 409.5275
404.7334, 408.9316
405.2155, 408.1385
405.6977, 407.2253
406.1798, 406.1144
406.6619, 405.5445
407.1440, 406.2358
407.6261, 406.6845
408.1082, 405.9642
408.5904, 404.4555
409.0725, 403.0450
409.5546, 402.2274
410.0367, 401.9273
410.5188, 401.9068
411.0009, 402.4097
411.4831, 402.8880
411.9652, 403.5023
412.4473, 403.9715
412.9294, 403.9753
413.4115, 403.4866
413.8936, 402.8073
414.3758, 402.2724
414.8579, 401.8803
415.3400, 401.6513
415.8221, 401.4760
416.3042, 401.5877
416.7863, 402.3264
417.2685, 403.3999
417.7506, 404.2928
418.2327, 404.7190
418.7148, 404.7050
419.1969, 404.1750
419.6790, 402.6241
420.1612, 401.7405
420.6433, 402.6533
421.1254, 403.9210
421.6075, 404.2638
422.0896, 403.4623
422.5717, 402.4854
423.0539, 402.2938
423.5360, 402.8419
424.0181, 403.4445
424.5002, 404.1554
424.9823, 404.7239
425.4644, 404.9641
425.9466, 404.9513
426.4287, 404.8542
426.9108, 404.5574
427.3929, 404.3477
427.8750, 404.8034
428.3571, 405.9735
428.8393, 406.8638
429.3214, 406.9279
429.8035, 406.5201
430.2856, 406.3081
430.7677, 406.3532
431.2498, 406.3759
431.7320, 406.2099
432.2141, 405.9335
432.6962, 405.6220
433.1783, 405.2575
433.6604, 405.1184
434.1425, 405.5977
434.6247, 406.7091
435.1068, 407.5052
435.5889, 407.6598
436.0710, 407.7534
436.5531, 408.2453
437.0352, 408.9882
437.5174, 409.4698
437.9995, 409.3939
438.4816, 409.0045
438.9637, 408.9613
439.4458, 409.5419
439.9279, 410.0620
440.4101, 410.5622
440.8922, 410.9474
441.3743, 411.0850
441.8564, 410.9890
442.3385, 410.8345
442.8206, 410.7774
443.3028, 410.8145
443.7849, 411.0158
444.2670, 411.6209
444.7491, 412.1285
445.2312, 412.2930
445.7133, 412.3200
446.1955, 412.5288
446.6776, 413.0586
447.1597, 413.7431
447.6418, 414.2318
448.1239, 414.3840
448.6060, 414.7748
449.0882, 415.9457
449.5703, 416.9826
450.0524, 417.3031
450.5345, 416.9838
451.0166, 416.5158
451.4987, 416.1320
451.9809, 415.8791
452.4630, 415.9868
452.9451, 416.5927
453.4272, 417.1877
453.9093, 417.5569
454.3914, 417.7643
454.8736, 417.8300
455.3557, 417.7208
455.8378, 417.6105
456.3199, 417.6931
456.8020, 417.9059
457.2841, 417.9348
457.7663, 417.6129
458.2484, 417.3453
458.7305, 417.6191
459.2126, 418.3630
459.6947, 419.1704
460.1768, 420.1694
460.6590, 421.0573
461.1411, 421.6094
461.6232, 421.8317
462.1053, 421.7516
462.5874, 421.3154
463.0695, 420.6981
463.5517, 420.3969
464.0338, 420.6879
464.5159, 420.7589
464.9980, 420.0765
465.4801, 419.4085
465.9622, 419.7342
466.4444, 421.0044
466.9265, 422.1020
467.4086, 421.9095
467.8907, 420.4210
468.3728, 419.5482
468.8549, 420.0522
469.3371, 420.3183
469.8192, 419.5518
470.3013, 418.5573
470.7834, 418.5179
471.2655, 419.8206
471.7477, 421.5256
472.2298, 422.1723
472.7119, 421.5346
473.1940, 420.9178
473.6761, 420.4451
474.1582, 419.9630
474.6404, 419.2477
475.1225, 418.4638
475.6046, 418.0432
476.0867, 418.3725
476.5688, 419.0358
477.0509, 419.1659
477.5331, 418.6767
478.0152, 418.2881
478.4973, 418.3685
478.9794, 418.5783
479.4615, 418.4453
479.9436, 417.9113
480.4258, 417.5824
480.9079, 418.0334
481.3900, 418.7882
481.8721, 418.9265
482.3542, 418.3244
482.8363, 417.7453
483.3185, 417.8300
483.8006, 418.4121
484.2827, 418.5136
484.7648, 417.6235
485.2469, 416.8741
485.7290, 416.8300
486.2112, 417.1150
486.6933, 417.0959
487.1754, 416.6025
487.6575, 416.0743
488.1396, 416.1087
488.6217, 416.9057
489.1039, 417.3138
489.5860, 417.4671
490.0681, 417.1736
490.5502, 415.8563
491.0323, 414.1337
491.5144, 413.1128
491.9966, 413.3607
492.4787, 414.3091
492.9608, 414.8091
493.4429, 414.8387
493.9250, 414.4803
494.4071, 413.2675
494.8893, 412.0570
495.3714, 411.2680
495.8535, 410.8886
496.3356, 410.7346
496.8177, 410.8069
497.2998, 410.9656
497.7820, 410.8849
498.2641, 410.5556
498.7462, 409.9956
499.2283, 408.6811
499.7104, 407.5101
500.1925, 407.9284
500.6747, 410.3338
501.1568, 412.0884
501.6389, 411.5468
502.1210, 409.6489
502.6031, 407.7130
503.0852, 405.9096
503.5674, 404.5241
504.0495, 403.8532
504.5316, 403.8170
505.0137, 403.7527
505.4958, 403.8990
505.9779, 403.7356
506.4601, 402.8706
506.9422, 401.7131
507.4243, 400.6791
507.9064, 399.9138
508.3885, 399.5826
508.8706, 400.0080
509.3528, 401.3963
509.8349, 401.9216
510.3170, 400.9693
510.7991, 399.8135
511.2812, 398.4091
511.7633, 397.1502
512.2454, 396.7704
512.7275, 397.5873
513.2097, 398.5366
513.6918, 397.6859
514.1739, 394.7382
514.6560, 392.8339
515.1381, 393.0380
515.6202, 393.5431
516.1024, 393.3190
516.5845, 392.5083
517.0666, 391.5045
517.5487, 390.3531
518.0308, 389.1903
518.5129, 388.2436
518.9951, 387.4767
519.4772, 386.4984
519.9593, 385.0301
520.4414, 383.5296
520.9235, 382.8177
521.4056, 382.9404
521.8878, 382.8918
522.3699, 382.5472
522.8520, 381.9382
523.3341, 380.9305
523.8162, 379.6508
524.2983, 378.5494
524.7805, 377.8941
525.2626, 377.4905
525.7447, 376.7884
526.2268, 375.6089
526.7089, 374.3823
527.1910, 372.9452
527.6732, 371.6036
528.1553, 370.6919
528.6374, 370.0891
529.1195, 369.3036
529.6016, 367.8920
530.0837, 366.1207
530.5659, 365.0318
531.0480, 364.8896
531.5301, 364.7359
532.0122, 364.5446
532.4943, 364.0737
532.9764, 362.8674
533.4586, 360.9618
533.9407, 359.3847
534.4228, 359.0411
534.9049, 359.3902
535.3870, 359.4450
535.8691, 359.1645
536.3513, 358.4949
536.8334, 357.1812
537.3155, 355.5813
537.7976, 354.6132
538.2797, 354.4086
538.7618, 354.4270
539.2440, 355.1214
539.7261, 355.6196
540.2082, 354.7003
540.6903, 352.4059
541.1724, 349.9595
541.6545, 348.2945
542.1367, 347.3420
542.6188, 346.5078
543.1009, 345.8853
543.5830, 345.2690
544.0651, 344.6847
544.5472, 344.0669
545.0294, 343.3510
545.5115, 342.5322
545.9936, 341.6429
546.4757, 340.5939
546.9578, 339.4749
547.4399, 339.0516
547.9221, 339.8817
548.4042, 340.0880
548.8863, 338.0623
549.3684, 335.3716
549.8505, 333.6445
550.3326, 333.1787
550.8148, 332.9821
551.2969, 332.6327
551.7790, 332.0970
552.2611, 331.2358
552.7432, 330.0296
553.2253, 328.8131
553.7075, 327.8343
554.1896, 327.0289
554.6717, 326.0918
555.1538, 324.5899
555.6359, 323.5615
556.1180, 323.7706
556.6002, 324.2064
557.0823, 323.7064
557.5644, 322.2261
558.0465, 320.6543
558.5286, 319.7951
559.0107, 319.5622
559.4929, 319.1559
559.9750, 318.6347
560.4571, 317.8219
560.9392, 316.3783
561.4213, 314.8733
561.9034, 313.7846
562.3856, 313.1839
562.8677, 312.8055
563.3498, 312.5119
563.8319, 312.2744
564.3140, 312.0315
564.7961, 311.7994
565.2783, 311.4505
565.7604, 310.8884
566.2425, 310.1800
566.7246, 309.4894
567.2067, 308.8636
567.6888, 308.0861
568.1710, 306.8294
568.6531, 305.5355
569.1352, 304.7475
569.6173, 304.4601
570.0994, 304.3298
570.5815, 304.1525
571.0637, 303.9009
571.5458, 303.4571
572.0279, 302.5865
572.5100, 301.8643
572.9921, 301.2491
573.4742, 300.8362
573.9564, 300.9080
574.4385, 301.2913
574.9206, 301.3771
575.4027, 300.6472
575.8848, 299.4109
576.3669, 298.5423
576.8491, 298.0979
577.3312, 297.7350
577.8133, 297.4782
578.2954, 297.1475
578.7775, 296.4261
579.2596, 295.3526
579.7418, 294.6522
580.2239, 294.9940
580.7060, 295.5475
581.1881, 295.4245
581.6702, 294.7139
582.1523, 293.9351
582.6345, 293.3104
583.1166, 292.7629
583.5988, 292.1570
584.0809, 291.4367
584.5630, 290.8192
585.0451, 290.2209
585.5272, 289.7955
586.0093, 289.6846
586.4915, 289.7959
586.9736, 290.0067
587.4557, 290.2684
587.9378, 290.4298
588.4199, 290.1728
588.9020, 289.4386
589.3842, 288.7734
589.8663, 288.1238
590.3484, 287.7019
590.8305, 287.8188
591.3126, 288.2159
591.7947, 288.3174
592.2769, 287.8673
592.7590, 287.2682
593.2411, 286.6899
593.7232, 286.2162
594.2053, 286.1032
594.6874, 286.4185
595.1696, 286.9217
595.6517, 287.4719
596.1338, 288.0618
596.6159, 288.1385
597.0980, 287.2624
597.5801, 286.5016
598.0623, 286.1465
598.5444, 285.9887
599.0265, 285.8878
599.5086, 285.7647
599.9907, 285.4408
600.4728, 284.6156
600.9550, 283.4239
601.4371, 282.9220
601.9192, 283.3893
602.4013, 283.8672
602.8834, 284.0589
603.3655, 284.0814
603.8477, 284.0145
604.3298, 283.8658
604.8119, 283.6656
605.2940, 283.3812
605.7761, 283.0839
606.2582, 282.7932
606.7404, 282.5459
607.2225, 282.5560
607.7046, 282.9395
608.1867, 283.6136
608.6688, 284.4727
609.1509, 285.9001
609.6331, 286.5555
610.1152, 286.1048
610.5973, 285.2480
611.0794, 284.0399
611.5615, 282.7551
612.0436, 281.8548
612.5258, 281.5518
613.0079, 281.5747
613.4900, 281.5506
613.9721, 281.4820
614.4542, 281.2657
614.9363, 280.6983
615.4185, 280.2994
615.9006, 280.6515
616.3827, 281.3666
616.8648, 281.6703
617.3469, 281.2586
617.8290, 280.7473
618.3112, 280.3778
618.7933, 280.1871
619.2754, 280.3727
619.7575, 280.9241
620.2396, 281.3184
620.7217, 281.0791
621.2039, 280.3458
621.6860, 280.0434
622.1681, 280.3983
622.6502, 280.9021
623.1323, 281.8919
623.6144, 282.7281
624.0966, 282.8424
624.5787, 282.3133
625.0608, 281.6483
625.5429, 281.1236
626.0250, 280.7317
626.5071, 280.4127
626.9893, 280.1539
627.4714, 280.2714
627.9535, 281.0943
628.4356, 281.9644
628.9177, 281.9319
629.3998, 281.1543
629.8820, 280.9018
630.3641, 281.9594
630.8462, 282.9666
631.3283, 283.0818
631.8104, 282.6559
632.2925, 282.3306
632.7747, 282.2800
633.2568, 282.2250
633.7389, 281.8141
634.2210, 281.0446
634.7031, 280.5701
635.1852, 280.5098
635.6674, 280.5813
636.1495, 280.6628
636.6316, 280.8624
637.1137, 281.4525
637.5958, 282.4033
638.0779, 283.0327
638.5601, 282.6004
639.0422, 281.7008
639.5243, 281.3851
640.0064, 281.6334
640.4885, 281.8604
640.9706, 281.8194
641.4528, 281.6448
641.9349, 281.5363
642.4170, 281.4941
642.8991, 281.5384
643.3812, 281.7749
643.8633, 281.9850
644.3455, 281.9815
644.8276, 281.9125
645.3097, 282.0419
645.7918, 282.4507
646.2739, 282.9483
646.7560, 283.3313
647.2382, 283.6024
647.7203, 283.7510
648.2024, 283.7954
648.6845, 283.6747
649.1666, 283.2441
649.6487, 282.6891
650.1309, 282.1936
650.6130, 281.7243
651.0951, 281.5988
651.5772, 282.2057
652.0593, 283.0225
652.5414, 283.5113
653.0236, 283.7050
653.5057, 283.9183
653.9878, 284.3152
654.4699, 284.6938
654.9520, 284.6395
655.4341, 283.9724
655.9163, 283.4602
656.3984, 283.0606
656.8805, 282.8705
657.3626, 283.1192
657.8447, 283.5265
658.3268, 283.6695
658.8090, 283.4136
659.2911, 283.0782
659.7732, 282.8423
660.2553, 282.7434
660.7374, 282.9261
661.2195, 283.4034
661.7017, 283.9586
662.1838, 284.5805
662.6659, 285.0631
663.1480, 284.8305
663.6301, 283.2508
664.1122, 282.3051
664.5944, 282.5123
665.0765, 282.9123
665.5586, 282.9439
666.0407, 282.7493
666.5228, 282.7040
667.0049, 282.9669
667.4871, 283.3732
667.9692, 283.7715
668.4513, 284.1473
668.9334, 284.2696
669.4155, 284.0387
669.8976, 283.7948
670.3798, 283.7918
670.8619, 283.8787
671.3440, 283.7080
671.8261, 283.1430
672.3082, 282.7272
672.7903, 282.7944
673.2725, 282.9399
673.7546, 282.7304
674.2367, 282.2681
674.7188, 281.9445
675.2009, 281.9550
675.6830, 282.1715
676.1652, 282.3457
676.6473, 282.4395
677.1294, 282.7146
677.6115, 283.3949
678.0936, 283.9497
678.5757, 284.1900
679.0579, 284.1503
679.5400, 283.8241
680.0221, 283.1611
680.5042, 282.4848
680.9863, 281.8490
681.4684, 281.3786
681.9506, 281.2441
682.4327, 281.4456
682.9148, 282.0184
683.3969, 283.0431
683.8790, 284.1048
684.3611, 284.2962
684.8433, 283.1606
685.3254, 282.5478
685.8075, 283.1683
686.2896, 283.5435
686.7717, 282.8391
687.2538, 281.7200
687.7360, 281.1571
688.2181, 281.4196
688.7002, 281.8823
689.1823, 282.3065
689.6644, 282.5044
690.1465, 281.8173
690.6287, 280.2861
691.1108, 279.2323
691.5929, 279.3685
692.0750, 280.1696
692.5571, 280.6842
693.0392, 280.8351
693.5214, 280.9471
694.0035, 281.1564
694.4856, 281.1869
694.9677, 280.7379
695.4498, 280.1277
695.9319, 279.8086
696.4141, 279.8951
696.8962, 280.0941
697.3783, 280.1791
697.8604, 280.1570
698.3425, 279.9786
698.8246, 279.6261
699.3068, 279.5114
699.7889, 279.9666
700.2710, 280.4689
700.7531, 280.0681
701.2352, 278.4146
701.7173, 277.6536
702.1995, 278.6879
702.6816, 279.6479
703.1637, 279.6255
703.6458, 279.1369
704.1279, 278.9496
704.6100, 279.2104
705.0922, 279.4457
705.5743, 279.1738
706.0564, 278.5404
706.5385, 278.0682
707.0206, 277.7704
707.5027, 277.4985
707.9849, 277.1628
708.4670, 276.8946
708.9491, 276.9306
709.4312, 277.2626
709.9133, 277.4040
710.3954, 277.1263
710.8776, 276.8785
711.3597, 276.9468
711.8418, 277.0858
712.3239, 276.8959
712.8060, 276.3891
713.2881, 276.0452
713.7703, 276.3498
714.2524, 276.9901
714.7345, 276.9131
715.2166, 276.0021
715.6987, 275.3755
716.1808, 275.3761
716.6630, 275.5859
717.1451, 275.7704
717.6272, 275.8731
718.1093, 275.6092
718.5914, 274.4721
719.0735, 273.5875
719.5557, 273.5338
720.0378, 273.7906
720.5199, 273.8894
721.0020, 273.7545
721.4841, 273.4248
721.9662, 272.8973
722.4484, 272.3216
722.9305, 272.0599
723.4126, 272.1471
723.8947, 272.1625
724.3768, 272.1137
724.8589, 271.8740
725.3411, 271.0955
725.8232, 270.1193
726.3053, 269.8033
726.7874, 270.5302
727.2695, 271.0782
727.7516, 270.8740
728.2338, 270.5156
728.7159, 270.6399
729.1980, 271.0540
729.6801, 271.0789
730.1622, 270.3990
730.6443, 269.5302
731.1265, 269.3624
731.6086, 269.8985
732.0907, 269.7987
732.5728, 268.6841
733.0549, 267.9540
733.5370, 268.6710
734.0192, 269.8620
734.5013, 269.8739
734.9834, 268.5268
735.4655, 267.5191
735.9476, 267.4311
736.4297, 267.5470
736.9119, 267.6140
737.3940, 267.5130
737.8761, 266.9204
738.3582, 265.8369
738.8403, 264.9550
739.3224, 265.0865
739.8046, 265.9727
740.2867, 266.4096
740.7688, 266.3848
741.2509, 265.9413
741.7330, 264.8152
742.2151, 263.6481
742.6973, 263.2702
743.1794, 263.5557
743.6615, 263.4621
744.1436, 262.3818
744.6257, 261.5620
745.1078, 261.6747
745.5900, 262.0988
746.0721, 262.2146
746.5542, 261.9709
747.0363, 261.5738
747.5184, 261.1018
748.0005, 260.7284
748.4827, 260.9579
748.9648, 261.7720
749.4469, 261.9915
749.9290, 261.2834
750.4111, 260.5139
750.8932, 260.2513
751.3754, 260.3557
751.8575, 260.3992
752.3396, 260.3579
752.8217, 260.3079
753.3038, 260.3642
753.7859, 260.3072
754.2681, 259.8993
754.7502, 259.2997
755.2323, 258.8416
755.7144, 258.6352
756.1965, 258.4184
756.6786, 257.8151
757.1608, 256.9761
757.6429, 256.4881
758.1250, 256.3833
758.6071, 256.1635
759.0892, 255.5838
759.5714, 254.9259
760.0535, 254.5649
760.5356, 254.5273
761.0177, 254.6088
761.4998, 255.0309
761.9819, 255.2877
762.4641, 255.1360
762.9462, 254.8443
763.4283, 254.7186
763.9104, 254.7307
764.3925, 254.5603
764.8746, 253.9289
765.3568, 253.1638
765.8389, 252.6613
766.3210, 252.3950
766.8031, 252.3670
767.2852, 252.5839
767.7673, 252.6775
768.2495, 252.3432
768.7316, 251.7092
769.2137, 251.2567
769.6958, 251.2105
770.1779, 250.9137
770.6600, 249.8154
771.1422, 249.0474
771.6243, 249.4604
772.1064, 250.4158
772.5885, 250.8486
773.0706, 250.4747
773.5527, 249.9594
774.0349, 249.6243
774.5170, 249.4554
774.9991, 249.5938
775.4812, 249.9017
775.9633, 249.8535
776.4454, 249.2558
776.9276, 248.4733
777.4097, 247.9436
777.8918, 247.6613
778.3739, 247.4313
778.8560, 247.1705
779.3381, 247.1525
779.8203, 247.7620
780.3024, 248.3592
780.7845, 248.4195
781.2666, 248.0115
781.7487, 247.4971
782.2308, 246.7226
782.7130, 246.1754
783.1951, 246.3596
783.6772, 246.7279
784.1593, 246.5478
784.6414, 245.8897
785.1235, 245.3485
785.6057, 245.2625
786.0878, 245.4483
786.5699, 245.6160
787.0520, 245.7663
787.5341, 245.9892
788.0162, 246.3675
788.4984, 246.5088
788.9805, 246.1257
789.4626, 245.4687
789.9447, 244.9209
790.4268, 244.4347
790.9089, 244.3047
791.3911, 245.0508
791.8732, 245.5737
792.3553, 245.2381
792.8374, 244.5450
793.3195, 244.0093
793.8016, 243.7512
794.2838, 243.7413
794.7659, 244.1611
795.2480, 244.5606
795.7301, 244.0506
796.2122, 242.8681
796.6943, 242.1029
797.1765, 241.9756
797.6586, 242.0180
798.1407, 241.8782
798.6228, 241.6389
799.1049, 241.6130
799.5870, 241.9790
800.0692, 242.1781
800.5513, 241.8726
801.0334, 241.7530
801.5155, 242.3789
801.9976, 243.2362
802.4797, 243.5019
802.9619, 242.9946
803.4440, 242.5175
803.9261, 242.6352
804.4082, 242.8126
804.8903, 242.4834
805.3724, 241.8296
805.8546, 241.3021
806.3367, 241.0153
806.8188, 240.7055
807.3009, 240.0660
807.7830, 239.2552
808.2651, 238.9693
808.7473, 239.2953
809.2294, 239.5338
809.7115, 239.4893
810.1936, 239.4661
810.6757, 239.7620
811.1578, 240.2661
811.6400, 240.5322
812.1221, 240.4557
812.6042, 240.3640
813.0863, 240.3336
813.5684, 240.2705
814.0505, 240.2261
814.5327, 240.0699
815.0148, 239.4845
815.4969, 238.4081
815.9790, 237.4118
816.4611, 236.9541
816.9432, 236.9211
817.4254, 237.2742
817.9075, 237.9083
818.3896, 238.2786
818.8717, 238.2229
819.3538, 237.9163
819.8359, 237.4964
820.3181, 236.9941
820.8002, 236.6164
821.2823, 236.2985
821.7644, 236.2639
822.2465, 236.8995
822.7286, 237.4392
823.2108, 237.3732
823.6929, 236.9415
824.1750, 236.6318
824.6571, 236.5499
825.1392, 236.4658
825.6213, 236.2095
826.1035, 235.9929
826.5856, 236.0977
827.0677, 236.3471
827.5498, 236.3317
828.0319, 235.9605
828.5140, 235.6097
828.9962, 235.7043
829.4783, 236.0347
829.9604, 235.9348
830.4425, 235.4181
830.9246, 235.0408
831.4067, 234.9358
831.8889, 234.9700
832.3710, 235.0899
832.8531, 235.2354
833.3352, 235.1213
833.8173, 234.3027
834.2994, 233.9921
834.7816, 234.7403
835.2637, 235.3664
835.7458, 235.1936
836.2279, 234.6348
836.7100, 234.3990
837.1921, 234.6339
837.6743, 234.6096
838.1564, 233.6105
838.6385, 232.5011
839.1206, 232.0993
839.6027, 232.1793
840.0848, 232.2933
840.5670, 232.3246
841.0491, 232.3534
841.5312, 232.4718
842.0133, 232.5628
842.4954, 232.1969
842.9775, 231.3546
843.4597, 231.0104
843.9418, 231.4111
844.4239, 231.8426
844.9060, 231.8261
845.3881, 231.6078
845.8702, 231.7980
846.3524, 232.7488
846.8345, 233.0061
847.3166, 231.8646
847.7987, 230.9098
848.2808, 230.7038
848.7629, 230.9046
849.2451, 231.3022
849.7272, 231.7748
850.2093, 231.9334
850.6914, 231.4486
851.1735, 230.7978
851.6556, 230.2967
852.1378, 229.9330
852.6199, 229.7062
853.1020, 229.5985
853.5841, 229.6085
854.0662, 229.7520
854.5483, 229.7744
855.0305, 229.0556
855.5126, 227.6560
855.9947, 227.0907
856.4768, 227.5793
856.9589, 227.8191
857.4410, 227.1726
857.9232, 226.3645
858.4053, 226.3144
858.8874, 227.0328
859.3695, 227.4502
859.8516, 227.3315
860.3337, 227.2510
860.8159, 227.6072
861.2980, 227.7140
861.7801, 226.7518
862.2622, 225.2462
862.7443, 224.4425
863.2264, 224.7924
863.7086, 225.2773
864.1907, 225.4298
864.6728, 225.2924
865.1549, 224.7602
865.6370, 224.0022
866.1191, 223.3340
866.6013, 222.8720
867.0834, 222.7331
867.5655, 223.1266
868.0476, 223.7959
868.5297, 223.9309
869.0118, 223.5359
869.4940, 223.2902
869.9761, 223.3470
870.4582, 223.3702
870.9403, 223.1670
871.4224, 222.7367
871.9045, 222.0366
872.3867, 220.8592
872.8688, 220.0350
873.3509, 219.7489
873.8330, 219.6053
874.3151, 219.7028
874.7972, 219.7551
875.2794, 219.3355
875.7615, 218.5126
876.2436, 218.0149
876.7257, 218.5312
877.2078, 218.8430
877.6899, 217.9548
878.1721, 216.7675
878.6542, 216.2981
879.1363, 216.4884
879.6184, 216.8535
880.1005, 217.1823
880.5826, 217.3368
881.0648, 217.0740
881.5469, 216.5269
882.0290, 216.1472
882.5111, 215.9010
882.9932, 215.2026
883.4753, 213.8141
883.9575, 212.7073
884.4396, 212.9574
884.9217, 214.2080
885.4038, 214.5028
885.8859, 213.3928
886.3680, 212.7113
886.8502, 212.9667
887.3323, 213.1564
887.8144, 212.6089
888.2965, 211.7005
888.7786, 211.0067
889.2607, 210.5282
889.7429, 210.3431
890.2250, 210.6942
890.7071, 211.0633
891.1892, 211.4631
891.6713, 211.6199
892.1534, 211.0842
892.6356, 210.0139
893.1177, 209.0936
893.5998, 208.6344
894.0819, 208.4536
894.5640, 208.6672
895.0461, 208.9061
895.5283, 208.3765
896.0104, 207.2853
896.4925, 206.6209
896.9746, 206.7456
897.4567, 207.0892
897.9388, 206.9899
898.4210, 206.5778
898.9031, 206.4880
899.3852, 206.7417
899.8673, 206.7133
900.3494, 206.1960
900.8315, 205.7296
901.3137, 205.7639
901.7958, 206.0768
902.2779, 206.0259
902.7600, 205.4456
903.2421, 204.9695
903.7242, 204.6463
904.2064, 204.3662
904.6885, 204.1272
905.1706, 203.8932
905.6527, 203.6669
906.1348, 203.4281
906.6169, 203.0405
907.0991, 202.1890
907.5812, 201.5662
908.0633, 201.5795
908.5454, 201.8048
909.0275, 201.9362
909.5096, 201.9523
909.9918, 201.8676
910.4739, 201.6913
910.9560, 201.5734
911.4381, 201.8153
911.9202, 202.0757
912.4023, 201.7205
912.8845, 200.9665
913.3666, 200.4733
913.8487, 200.3575
914.3308, 200.2459
914.8129, 199.8495
915.2950, 199.3869
915.7772, 199.4773
916.2593, 200.1069
916.7414, 199.9875
917.2235, 198.8779
917.7056, 198.1927
918.1877, 198.6991
918.6699, 199.4065
919.1520, 198.9385
919.6341, 197.3452
920.1162, 196.7678
920.5983, 198.1198
921.0804, 198.8662
921.5626, 198.4683
922.0447, 197.6707
922.5268, 196.4642
923.0089, 195.2510
923.4910, 194.7998
923.9731, 195.2951
924.4553, 195.8222
924.9374, 196.4927
925.4195, 196.7533
925.9016, 195.8002
926.3837, 194.6589
926.8658, 194.6899
927.3480, 195.6795
927.8301, 196.1885
928.3122, 195.4276
928.7943, 194.5315
929.2764, 194.4554
929.7585, 194.8497
930.2407, 195.4628
930.7228, 196.0768
931.2049, 196.1141
931.6870, 195.4415
932.1691, 194.5870
932.6512, 193.9824
933.1334, 193.6325
933.6155, 193.5935
934.0976, 193.8405
934.5797, 194.2728
935.0618, 194.8973
935.5439, 195.1368
936.0261, 194.6153
936.5082, 193.7699
936.9903, 193.3440
937.4724, 193.3668
937.9545, 193.1281
938.4366, 192.4815
938.9188, 191.9785
939.4009, 191.7402
939.8830, 191.6864
940.3651, 191.8357
940.8472, 192.1135
941.3293, 192.2573
941.8115, 192.2357
942.2936, 192.1690
942.7757, 192.1730
943.2578, 192.0002
943.7399, 191.2412
944.2220, 190.4803
944.7042, 190.5931
945.1863, 191.4002
945.6684, 191.5284
946.1505, 189.9347
946.6326, 188.6837
947.1147, 189.0500
947.5969, 189.9260
948.0790, 190.5707
948.5611, 190.8626
949.0432, 190.6375
949.5253, 189.9157
950.0074, 189.2593
950.4896, 189.0308
950.9717, 189.1502
951.4538, 189.8442
951.9359, 190.7084
952.4180, 190.7263
952.9001, 189.9397
953.3823, 189.2714
953.8644, 189.1887
954.3465, 189.3419
954.8286, 189.2084
955.3107, 188.8965
955.7928, 188.9730
956.2750, 189.4149
956.7571, 189.7874
957.2392, 190.0080
957.7213, 189.8284
958.2034, 188.9488
958.6855, 187.7908
959.1677, 187.5744
959.6498, 188.5705
960.1319, 188.9451
960.6140, 188.4517
961.0961, 188.0471
961.5782, 188.1321
962.0604, 188.3141
962.5425, 188.1588
963.0246, 187.7248
963.5067, 187.4673
963.9888, 187.5408
964.4709, 187.5406
964.9531, 187.6140
965.4352, 187.4392
965.9173, 186.4459
966.3994, 185.3906
966.8815, 185.3084
967.3636, 186.2200
967.8458, 187.0632
968.3279, 187.9165
968.8100, 188.2797
969.2921, 187.6088
969.7742, 186.7500
970.2563, 186.2984
970.7385, 186.1776
971.2206, 186.1541
971.7027, 186.1680
972.1848, 186.2227
972.6669, 186.4461
973.1490, 186.5794
973.6312, 186.2117
974.1133, 185.7454
974.5954, 185.9228
975.0775, 186.5566
975.5596, 186.6931
976.0417, 185.8876
976.5239, 185.0868
977.0060, 185.4919
977.4881, 186.3747
977.9702, 186.4205
978.4523, 185.8681
978.9344, 185.4312
979.4166, 185.2783
979.8987, 185.4074
980.3808, 185.8543
980.8629, 186.3115
981.3450, 186.1224
981.8271, 185.4494
982.3093, 185.2946
982.7914, 185.6553
983.2735, 185.8142
983.7556, 185.5511
984.2377, 185.1298
984.7198, 184.7568
985.2020, 184.4492
985.6841, 184.2598
986.1662, 184.1926
986.6483, 184.2241
987.1304, 184.3803
987.6125, 184.5199
988.0947, 184.5714
988.5768, 184.6332
989.0589, 184.8541
989.5410, 185.1874
990.0231, 185.2479
990.5052, 184.8507
990.9874, 184.6068
991.4695, 184.5015
991.9516, 184.6376
992.4337, 185.4373
992.9158, 186.2387
993.3979, 185.9804
993.8801, 184.6687
994.3622, 183.9143
994.8443, 184.1246
995.3264, 184.3134
995.8085, 184.2577
996.2906, 184.2751
996.7728, 184.6878
997.2549, 185.2112
997.7370, 185.4262
998.2191, 185.2874
998.7012, 184.9807
999.1833, 184.2588
999.6655, 183.7630
1000.148, 183.8469
1000.630, 184.1311
1001.112, 184.3799
1001.594, 184.5667
1002.076, 184.6757
1002.558, 184.7041
1003.040, 184.8077
1003.522, 185.1631
1004.005, 185.5051
1004.487, 185.6976
1004.969, 185.7530
1005.451, 185.5868
1005.933, 185.3138
1006.415, 185.2479
1006.897, 185.5020
1007.379, 185.7291
1007.861, 185.6178
1008.344, 185.3840
1008.826, 185.1875
1009.308, 185.0763
1009.790, 185.1948
1010.272, 185.4907
1010.754, 185.7276
1011.236, 185.7955
1011.718, 185.7376
1012.201, 185.4291
1012.683, 185.1269
1013.165, 185.4914
1013.647, 186.2437
1014.129, 186.5415
1014.611, 186.2703
1015.093, 185.7236
1015.575, 185.0415
1016.057, 184.6059
1016.540, 185.2477
1017.022, 186.5529
1017.504, 186.9401
1017.986, 186.5505
1018.468, 186.4617
1018.950, 186.8955
1019.432, 187.2978
1019.914, 187.2794
1020.396, 187.0889
1020.879, 187.2183
1021.361, 187.6285
1021.843, 187.8613
1022.325, 187.9135
1022.807, 187.8909
1023.289, 187.8072
1023.771, 187.7723
1024.253, 187.8554
1024.735, 188.0794
1025.218, 188.5856
1025.700, 189.4185
1026.182, 189.6898
1026.664, 189.2595
1027.146, 189.0469
1027.628, 189.2555
1028.110, 189.9457
1028.592, 191.3486
1029.075, 193.0403
1029.557, 193.8383
1030.039, 193.5964
1030.521, 193.2071
1031.003, 192.5308
1031.485, 192.1073
1031.967, 192.0917
1032.449, 192.3794
1032.932, 192.9986
1033.414, 193.7912
1033.896, 194.2578
1034.378, 194.3794
1034.860, 194.2217
1035.342, 193.6723
1035.824, 193.0313
1036.306, 192.0766
1036.788, 191.4415
1037.271, 191.7070
1037.753, 192.7052
1038.235, 193.9746
1038.717, 195.9728
1039.199, 196.9570
1039.681, 196.1864
1040.163, 195.4730
1040.645, 195.2220
1041.127, 195.2472
1041.610, 195.5904
1042.092, 196.0833
1042.574, 196.1424
1043.056, 195.4972
1043.538, 195.1553
1044.020, 195.4655
1044.502, 195.6789
1044.984, 195.3972
1045.467, 195.1027
1045.949, 195.2807
1046.431, 195.7632
1046.913, 196.0170
1047.395, 195.9438
1047.877, 195.8201
1048.359, 195.4640
1048.841, 195.3403
1049.323, 195.7079
1049.806, 196.2827
1050.288, 196.9494
1050.770, 197.6073
1051.252, 198.0280
1051.734, 198.1557
1052.216, 198.1589
1052.698, 198.0388
1053.180, 197.8446
1053.662, 197.5408
1054.145, 197.2176
1054.627, 196.7952
1055.109, 196.4455
1055.591, 196.6594
1056.073, 197.6579
1056.555, 198.4004
1057.037, 198.3339
1057.519, 198.2846
1058.002, 198.7178
1058.484, 199.2211
1058.966, 199.4904
1059.448, 199.5082
1059.930, 199.2635
1060.412, 198.7200
1060.894, 198.2783
1061.376, 198.0212
1061.859, 197.9661
1062.341, 198.2908
1062.823, 198.6691
1063.305, 198.7439
1063.787, 198.6629
1064.269, 198.8964
1064.751, 199.5637
1065.233, 199.7775
1065.715, 198.8582
1066.198, 197.8349
1066.680, 196.8029
1067.162, 196.2374
1067.644, 196.9298
1068.126, 198.2685
1068.608, 199.1258
1069.090, 199.2697
1069.572, 199.0404
1070.054, 198.1055
1070.537, 197.4471
1071.019, 197.9905
1071.501, 198.5838
1071.983, 197.9206
1072.465, 196.7265
1072.947, 196.4954
1073.429, 197.4018
1073.911, 198.0490
1074.394, 197.6517
1074.876, 197.1717
1075.358, 197.0179
1075.840, 197.0114
1076.322, 197.0683
1076.804, 197.1437
1077.286, 197.1808
1077.768, 197.1799
1078.250, 197.2079
1078.733, 197.3058
1079.215, 197.4099
1079.697, 197.6413
1080.179, 197.7118
1080.661, 197.2359
1081.143, 196.5606
1081.625, 196.1873
1082.107, 196.1301
1082.590, 196.0501
1083.072, 195.7723
1083.554, 195.6126
1084.036, 195.7944
1084.518, 196.0539
1085.000, 196.3227
1085.482, 196.4921
1085.964, 196.2663
1086.447, 195.8205
1086.929, 195.8815
1087.411, 196.8417
1087.893, 197.5680
1088.375, 197.5443
1088.857, 197.2099
1089.339, 196.6658
1089.821, 196.0678
1090.303, 195.6143
1090.786, 195.2271
1091.268, 194.5858
1091.750, 193.5474
1092.232, 192.8254
1092.714, 192.8796
1093.196, 193.0690
1093.678, 193.2687
1094.160, 193.3158
1094.642, 192.9822
1095.125, 192.4230
1095.607, 191.8973
1096.089, 191.4483
1096.571, 191.2869
1097.053, 191.9280
1097.535, 192.2501
1098.017, 191.5528
1098.499, 190.6979
1098.982, 190.1706
1099.464, 189.9754
1099.946, 190.1481
1100.428, 190.6561
1100.910, 191.0345
1101.392, 191.2051
1101.874, 191.1850
1102.356, 190.8587
1102.839, 190.4763
1103.321, 190.2074
1103.803, 189.9395
1104.285, 189.4492
1104.767, 188.7929
1105.249, 188.3856
1105.731, 188.4689
1106.213, 188.4296
1106.695, 187.9898
1107.177, 187.6389
1107.660, 187.6260
1108.142, 187.7498
1108.624, 187.9077
1109.106, 188.0358
1109.588, 187.9261
1110.070, 187.4347
1110.552, 187.1228
1111.034, 187.3859
1111.517, 187.3416
1111.999, 186.4595
1112.481, 185.5098
1112.963, 185.0520
1113.445, 184.9097
1113.927, 184.7010
1114.409, 184.4004
1114.891, 184.2136
1115.374, 184.2786
1115.856, 184.2172
1116.338, 183.8302
1116.820, 183.5253
1117.302, 183.6077
1117.784, 183.8069
1118.266, 183.7060
1118.748, 183.3267
1119.230, 183.1705
1119.713, 183.2804
1120.195, 183.5425
1120.677, 184.1687
1121.159, 184.4704
1121.641, 184.1093
1122.123, 183.4361
1122.605, 182.7609
1123.087, 182.0951
1123.569, 181.4612
1124.052, 180.7694
1124.534, 180.5475
1125.016, 180.9607
1125.498, 181.2528
1125.980, 181.2565
1126.462, 180.9446
1126.944, 180.2201
1127.426, 179.3205
1127.909, 178.7376
1128.391, 178.4687
1128.873, 178.2146
1129.355, 177.9537
1129.837, 178.0082
1130.319, 178.4799
1130.801, 178.7863
1131.283, 178.6003
1131.766, 178.2413
1132.248, 178.1476
1132.730, 178.2236
1133.212, 178.0386
1133.694, 177.6199
1134.176, 177.3327
1134.658, 177.2020
1135.140, 177.0096
1135.622, 176.6806
1136.104, 176.4033
1136.587, 176.3417
1137.069, 176.4522
1137.551, 176.7187
1138.033, 177.0713
1138.515, 177.3527
1138.997, 177.5003
1139.479, 177.1668
1139.961, 176.3719
1140.444, 175.7683
1140.926, 175.7422
1141.408, 175.9290
1141.890, 175.9087
1142.372, 175.7959
1142.854, 175.7402
1143.336, 175.7646
1143.818, 176.0567
1144.301, 176.4736
1144.783, 176.4580
1145.265, 175.8411
1145.747, 175.1786
1146.229, 174.9315
1146.711, 174.7605
1147.193, 174.2683
1147.675, 173.7121
1148.157, 173.3325
1148.640, 173.1704
1149.122, 173.4197
1149.604, 173.9626
1150.086, 174.0736
1150.568, 173.2414
1151.050, 172.5708
1151.532, 172.8764
1152.014, 173.3603
1152.496, 173.5447
1152.979, 173.5347
1153.461, 173.3972
1153.943, 173.2121
1154.425, 173.2051
1154.907, 173.4746
1155.389, 173.3693
1155.871, 172.1768
1156.353, 171.3123
1156.836, 171.5027
1157.318, 171.8698
1157.800, 171.8286
1158.282, 171.5962
1158.764, 171.4793
1159.246, 171.4990
1159.728, 171.6975
1160.210, 172.3788
1160.693, 172.7373
1161.175, 172.7615
1161.657, 172.4514
1162.139, 171.5030
1162.621, 170.5944
1163.103, 170.3785
1163.585, 170.5910
1164.067, 170.4678
1164.549, 169.8941
1165.031, 169.8889
1165.514, 170.7456
1165.996, 171.0493
1166.478, 170.3629
1166.960, 169.7694
1167.442, 169.8350
1167.924, 170.3525
1168.406, 171.1593
1168.888, 172.0771
1169.371, 171.9955
1169.853, 170.9451
1170.335, 170.9496
1170.817, 172.1150
1171.299, 172.5325
1171.781, 171.6110
1172.263, 170.4428
1172.745, 169.8210
1173.228, 169.6386
1173.710, 169.8438
1174.192, 170.3076
1174.674, 170.7060
1175.156, 171.0246
1175.638, 171.2838
1176.120, 171.4496
1176.602, 171.2907
1177.084, 170.7349
1177.567, 170.2826
1178.049, 170.4805
1178.531, 170.7915
1179.013, 170.4430
1179.495, 169.9619
1179.977, 170.1746
1180.459, 170.7502
1180.941, 170.9554
1181.423, 170.7096
1181.906, 170.3938
1182.388, 170.1221
1182.870, 169.9689
1183.352, 170.2174
1183.834, 170.3013
1184.316, 169.5749
1184.798, 168.7918
1185.280, 168.7592
1185.763, 169.2186
1186.245, 169.5400
1186.727, 169.6359
1187.209, 169.6918
1187.691, 169.8879
1188.173, 169.8156
1188.655, 168.9220
1189.137, 168.3775
1189.620, 168.8786
1190.102, 169.7267
1190.584, 170.3377
1191.066, 170.7103
1191.548, 170.8210
1192.030, 170.6320
1192.512, 170.3174
1192.994, 169.7544
1193.476, 169.5691
1193.958, 170.0076
1194.441, 170.2950
1194.923, 169.9488
1195.405, 169.4245
1195.887, 169.3644
1196.369, 169.6114
1196.851, 169.4592
1197.333, 168.9769
1197.815, 168.7861
1198.298, 168.9516
1198.780, 169.9204
1199.262, 171.6843
1199.744, 172.5528
1200.226, 171.3259
1200.708, 169.4936
1201.190, 168.9110
1201.672, 169.0558
1202.155, 169.1622
1202.637, 169.2534
1203.119, 169.4785
1203.601, 169.7415
1204.083, 169.6478
1204.565, 169.1489
1205.047, 168.8995
1205.529, 169.4458
1206.011, 169.9666
1206.494, 169.8528
1206.976, 169.6040
1207.458, 169.5628
1207.940, 169.6325
1208.422, 169.6914
1208.904, 169.7310
1209.386, 169.8133
1209.868, 169.9960
1210.350, 169.9141
1210.833, 168.9301
1211.315, 168.5438
1211.797, 169.7302
1212.279, 170.6880
1212.761, 170.4509
1213.243, 169.7405
1213.725, 169.2940
1214.207, 169.1089
1214.690, 169.2234
1215.172, 169.7542
1215.654, 169.9248
1216.136, 169.6479
1216.618, 169.6148
1217.100, 170.0223
1217.582, 170.2742
1218.064, 170.0053
1218.547, 169.6337
1219.029, 169.7250
1219.511, 170.1070
1219.993, 170.3114
1220.475, 170.3808
1220.957, 170.4351
1221.439, 170.4991
1221.921, 170.6523
1222.403, 170.8837
1222.885, 171.0189
1223.368, 170.9518
1223.850, 170.8349
1224.332, 170.8005
1224.814, 170.7838
1225.296, 170.6140
1225.778, 170.5109
1226.260, 170.8697
1226.742, 171.4460
1227.225, 171.7274
1227.707, 171.6483
1228.189, 171.4944
1228.671, 171.2693
1229.153, 171.1434
1229.635, 171.1785
1230.117, 171.2947
1230.599, 171.5150
1231.082, 171.7554
1231.564, 171.9482
1232.046, 172.1284
1232.528, 172.3942
1233.010, 172.7430
1233.492, 172.7945
1233.974, 172.4106
1234.456, 172.3720
1234.938, 172.7858
1235.421, 173.3173
1235.903, 173.8995
1236.385, 174.1367
1236.867, 173.6777
1237.349, 172.8947
1237.831, 172.3412
1238.313, 172.0340
1238.795, 172.1386
1239.277, 172.5230
1239.760, 172.8245
1240.242, 172.9888
1240.724, 172.9213
1241.206, 172.6669
1241.688, 172.7745
1242.170, 173.7458
1242.652, 174.6156
1243.134, 174.4768
1243.617, 174.0681
1244.099, 173.8376
1244.581, 173.8234
1245.063, 174.2112
1245.545, 174.7627
1246.027, 174.9133
1246.509, 174.5816
1246.991, 174.4546
1247.474, 174.8320
1247.956, 175.1066
1248.438, 175.1526
1248.920, 175.2071
1249.402, 175.3289
1249.884, 175.5046
1250.366, 175.7337
1250.848, 176.0022
1251.330, 176.3157
1251.813, 176.6513
1252.295, 176.6544
1252.777, 176.3276
1253.259, 176.1006
1253.741, 176.0211
1254.223, 176.1560
1254.705, 176.5119
1255.187, 176.8569
1255.669, 177.0250
1256.152, 177.1316
1256.634, 177.2368
1257.116, 177.4473
1257.598, 178.1625
1258.080, 178.9277
1258.562, 178.8127
1259.044, 178.2200
1259.526, 178.2613
1260.009, 179.0752
1260.491, 179.7713
1260.973, 179.9691
1261.455, 180.1730
1261.937, 180.5560
1262.419, 180.9607
1262.901, 181.4897
1263.383, 181.8376
1263.865, 181.5561
1264.348, 181.1348
1264.830, 181.3924
1265.312, 182.2234
1265.794, 182.5888
1266.276, 182.3845
1266.758, 182.2717
1267.240, 182.2505
1267.722, 182.6954
1268.204, 183.7228
1268.687, 184.4120
1269.169, 184.2046
1269.651, 183.7489
1270.133, 183.8440
1270.615, 184.1761
1271.097, 184.0796
1271.579, 183.8463
1272.061, 184.0038
1272.544, 184.4914
1273.026, 185.2815
1273.508, 186.1732
1273.990, 186.4494
1274.472, 185.7811
1274.954, 185.4619
1275.436, 186.4908
1275.918, 187.3901
1276.401, 187.2699
1276.883, 187.2170
1277.365, 188.0334
1277.847, 189.1414
1278.329, 189.9405
1278.811, 190.4666
1279.293, 190.7591
1279.775, 190.7743
1280.257, 191.0595
1280.740, 191.6796
1281.222, 192.0407
1281.704, 192.0361
1282.186, 192.1588
1282.668, 192.5646
##END=



