##NAMES=Saleeite
##RRUFFID=R070618
##IDEAL CHEMISTRY=Mg(U^6+^O_2_)_2_(PO_4_)_2_&#183;10H_2_O
##LOCALITY=Shinkolobwe mine, near Kolweze, Katanga, Zaire
##OWNER=RRUFF
##SOURCE=James Shigley
##DESCRIPTION=Lemon-yellow platy aggregates, associated with green metatorbernite
##STATUS=The identification of this mineral is confirmed by single-crystal X-ray diffraction and chemical analysis.
##URL=rruff.info/R070618
##MEASURED CHEMISTRY=Mg_1.00_(UO_2_)_1.96_(PO_4_)_2.04_Â·5.01H_2_O
142.3241, 15106.51
142.8062, 15310.61
143.2883, 15415.82
143.7704, 15458.40
144.2526, 15485.03
144.7347, 15480.91
145.2168, 15480.74
145.6989, 15490.68
146.1810, 15508.36
146.6631, 15543.23
147.1453, 15608.70
147.6274, 15689.60
148.1095, 15754.29
148.5916, 15828.18
149.0737, 15867.06
149.5558, 15854.00
150.0379, 15707.73
150.5201, 15616.53
151.0022, 15621.47
151.4843, 15698.73
151.9664, 15750.14
152.4485, 15748.83
152.9306, 15729.13
153.4128, 15711.59
153.8949, 15699.63
154.3770, 15688.89
154.8591, 15675.42
155.3412, 15658.99
155.8233, 15651.29
156.3055, 15656.41
156.7876, 15670.45
157.2697, 15689.54
157.7518, 15717.25
158.2339, 15745.43
158.7160, 15771.80
159.1982, 15796.49
159.6803, 15815.44
160.1624, 15822.99
160.6445, 15823.81
161.1266, 15826.06
161.6087, 15824.09
162.0909, 15829.88
162.5730, 15854.06
163.0551, 15908.45
163.5372, 15961.26
164.0193, 15987.70
164.5014, 15997.08
164.9836, 16018.81
165.4657, 16093.26
165.9478, 16177.81
166.4299, 16230.64
166.9120, 16232.95
167.3941, 16207.82
167.8763, 16150.08
168.3584, 16065.12
168.8405, 16012.25
169.3226, 16052.50
169.8047, 16145.92
170.2868, 16232.88
170.7690, 16279.23
171.2511, 16313.11
171.7332, 16368.26
172.2153, 16446.70
172.6974, 16523.09
173.1795, 16558.03
173.6617, 16570.69
174.1438, 16607.72
174.6259, 16709.74
175.1080, 16845.31
175.5901, 16966.19
176.0722, 17066.65
176.5544, 17160.58
177.0365, 17266.92
177.5186, 17383.42
178.0007, 17496.17
178.4828, 17589.42
178.9649, 17673.79
179.4471, 17777.15
179.9292, 17907.47
180.4113, 18052.86
180.8934, 18196.53
181.3755, 18338.16
181.8576, 18488.20
182.3397, 18665.40
182.8219, 18861.25
183.3040, 19030.62
183.7861, 19143.12
184.2682, 19233.47
184.7503, 19396.88
185.2324, 19636.79
185.7146, 19899.65
186.1967, 20132.31
186.6788, 20337.07
187.1609, 20556.48
187.6430, 20811.03
188.1251, 21088.35
188.6073, 21356.51
189.0894, 21613.65
189.5715, 21859.40
190.0536, 22107.40
190.5357, 22356.53
191.0178, 22566.69
191.5000, 22734.42
191.9821, 22855.53
192.4642, 22897.31
192.9463, 22856.34
193.4284, 22745.03
193.9105, 22576.11
194.3927, 22347.31
194.8748, 22090.80
195.3569, 21815.38
195.8390, 21516.89
196.3211, 21237.51
196.8032, 20983.90
197.2854, 20745.57
197.7675, 20489.34
198.2496, 20208.18
198.7317, 19937.19
199.2138, 19708.98
199.6959, 19526.52
200.1780, 19331.12
200.6602, 19104.19
201.1423, 18856.46
201.6244, 18643.49
202.1065, 18470.80
202.5886, 18317.94
203.0707, 18173.21
203.5529, 18041.67
204.0350, 17891.93
204.5171, 17707.73
204.9992, 17491.80
205.4813, 17319.25
205.9634, 17194.41
206.4456, 17103.01
206.9277, 17032.40
207.4098, 16986.91
207.8919, 16947.53
208.3740, 16910.75
208.8561, 16876.57
209.3383, 16837.53
209.8204, 16787.19
210.3025, 16738.56
210.7846, 16712.28
211.2667, 16712.68
211.7488, 16724.37
212.2310, 16743.10
212.7131, 16770.27
213.1952, 16800.69
213.6773, 16840.63
214.1594, 16879.88
214.6415, 16895.99
215.1236, 16886.24
215.6058, 16859.42
216.0879, 16808.07
216.5700, 16705.36
217.0521, 16666.10
217.5342, 16717.79
218.0163, 16829.55
218.4985, 16901.16
218.9806, 16912.30
219.4627, 16915.14
219.9448, 16940.92
220.4269, 17001.26
220.9090, 17052.67
221.3912, 17086.45
221.8733, 17107.18
222.3554, 17142.21
222.8375, 17204.25
223.3196, 17263.29
223.8017, 17295.35
224.2839, 17279.42
224.7660, 17282.56
225.2481, 17326.05
225.7302, 17404.41
226.2123, 17435.53
226.6944, 17388.00
227.1766, 17328.02
227.6587, 17316.81
228.1408, 17384.71
228.6229, 17441.84
229.1050, 17467.88
229.5871, 17461.41
230.0693, 17472.96
230.5514, 17516.18
231.0335, 17565.55
231.5156, 17592.04
231.9977, 17580.81
232.4798, 17573.71
232.9619, 17579.43
233.4441, 17598.28
233.9262, 17627.47
234.4083, 17673.05
234.8904, 17724.17
235.3725, 17766.37
235.8546, 17795.68
236.3368, 17822.38
236.8189, 17849.26
237.3010, 17877.82
237.7831, 17899.54
238.2652, 17908.99
238.7473, 17914.58
239.2295, 17930.28
239.7116, 17958.07
240.1937, 17993.19
240.6758, 18035.68
241.1579, 18090.83
241.6400, 18136.99
242.1222, 18167.28
242.6043, 18191.61
243.0864, 18233.22
243.5685, 18307.71
244.0506, 18375.66
244.5327, 18417.88
245.0149, 18413.81
245.4970, 18433.43
245.9791, 18490.77
246.4612, 18568.22
246.9433, 18615.65
247.4254, 18613.64
247.9075, 18610.06
248.3897, 18625.78
248.8718, 18660.54
249.3539, 18716.52
249.8360, 18805.93
250.3181, 18916.11
250.8002, 18998.63
251.2824, 19043.55
251.7645, 19077.19
252.2466, 19111.63
252.7287, 19141.03
253.2108, 19186.84
253.6929, 19259.13
254.1751, 19349.34
254.6572, 19420.35
255.1393, 19461.84
255.6214, 19500.41
256.1035, 19552.50
256.5856, 19620.50
257.0677, 19698.13
257.5499, 19791.33
258.0320, 19895.79
258.5141, 19982.80
258.9962, 20049.83
259.4783, 20104.36
259.9604, 20148.04
260.4426, 20170.59
260.9247, 20211.93
261.4068, 20283.30
261.8889, 20379.84
262.3710, 20459.44
262.8531, 20515.24
263.3353, 20566.81
263.8174, 20630.76
264.2995, 20708.69
264.7816, 20793.85
265.2637, 20890.96
265.7458, 20995.84
266.2280, 21068.38
266.7101, 21095.15
267.1922, 21115.18
267.6743, 21166.63
268.1564, 21258.21
268.6385, 21345.10
269.1207, 21415.18
269.6028, 21471.13
270.0849, 21534.57
270.5670, 21605.81
271.0491, 21683.60
271.5313, 21765.37
272.0134, 21850.77
272.4955, 21947.25
272.9776, 22064.19
273.4597, 22195.75
273.9418, 22293.80
274.4240, 22347.09
274.9061, 22397.52
275.3882, 22502.64
275.8703, 22672.37
276.3524, 22805.46
276.8345, 22855.79
277.3167, 22840.50
277.7988, 22894.78
278.2809, 23032.29
278.7630, 23195.83
279.2451, 23329.52
279.7272, 23433.02
280.2094, 23515.36
280.6915, 23575.53
281.1736, 23616.47
281.6557, 23647.10
282.1378, 23663.23
282.6199, 23688.52
283.1021, 23757.75
283.5842, 23869.89
284.0663, 23977.49
284.5484, 24076.62
285.0305, 24160.29
285.5126, 24181.92
285.9948, 24134.25
286.4769, 24070.67
286.9590, 24047.33
287.4411, 24061.29
287.9232, 24086.83
288.4053, 24117.35
288.8874, 24152.19
289.3695, 24190.58
289.8517, 24232.68
290.3338, 24276.62
290.8159, 24302.22
291.2980, 24320.21
291.7801, 24387.99
292.2622, 24585.53
292.7444, 24834.60
293.2265, 24941.46
293.7086, 24899.07
294.1907, 24805.17
294.6728, 24736.56
295.1549, 24693.10
295.6371, 24676.07
296.1192, 24693.70
296.6013, 24735.79
297.0834, 24782.88
297.5655, 24835.37
298.0476, 24898.00
298.5298, 24979.74
299.0119, 25075.78
299.4940, 25173.27
299.9761, 25284.51
300.4582, 25386.53
300.9403, 25435.13
301.4225, 25428.62
301.9046, 25433.77
302.3867, 25512.48
302.8688, 25640.21
303.3509, 25771.74
303.8330, 25905.08
304.3152, 26024.94
304.7973, 26106.92
305.2794, 26151.68
305.7615, 26194.41
306.2436, 26250.72
306.7257, 26323.20
307.2079, 26414.50
307.6900, 26554.21
308.1721, 26693.29
308.6542, 26789.29
309.1363, 26842.48
309.6184, 26894.72
310.1006, 26968.91
310.5827, 27054.91
311.0648, 27140.84
311.5469, 27213.53
312.0290, 27293.34
312.5111, 27402.13
312.9933, 27537.52
313.4754, 27652.40
313.9575, 27707.49
314.4396, 27741.89
314.9217, 27792.52
315.4038, 27895.30
315.8860, 27992.42
316.3681, 28052.94
316.8502, 28080.38
317.3323, 28124.83
317.8144, 28205.29
318.2965, 28307.54
318.7787, 28420.45
319.2608, 28561.70
319.7429, 28692.58
320.2250, 28795.46
320.7071, 28874.06
321.1892, 28965.97
321.6713, 29100.41
322.1534, 29236.08
322.6356, 29346.31
323.1177, 29413.36
323.5998, 29471.67
324.0819, 29513.21
324.5640, 29542.67
325.0461, 29596.95
325.5283, 29713.54
326.0104, 29829.78
326.4925, 29911.58
326.9746, 29911.35
327.4567, 29940.09
327.9388, 30013.64
328.4210, 30123.27
328.9031, 30225.14
329.3852, 30319.61
329.8673, 30405.34
330.3494, 30483.01
330.8315, 30551.97
331.3137, 30611.73
331.7958, 30650.21
332.2779, 30680.05
332.7600, 30749.14
333.2421, 30879.08
333.7242, 31009.80
334.2064, 31112.72
334.6885, 31182.66
335.1706, 31238.44
335.6527, 31272.99
336.1348, 31299.55
336.6169, 31351.69
337.0991, 31433.63
337.5812, 31528.45
338.0633, 31636.78
338.5454, 31762.99
339.0275, 31851.58
339.5096, 31885.42
339.9918, 31903.01
340.4739, 31980.68
340.9560, 32123.95
341.4381, 32269.36
341.9202, 32387.85
342.4023, 32481.63
342.8845, 32555.13
343.3666, 32605.09
343.8487, 32644.81
344.3308, 32685.02
344.8129, 32727.13
345.2950, 32790.71
345.7772, 32911.56
346.2593, 33060.23
346.7414, 33149.66
347.2235, 33174.94
347.7056, 33172.70
348.1877, 33172.25
348.6699, 33176.03
349.1520, 33190.71
349.6341, 33225.25
350.1162, 33270.67
350.5983, 33313.14
351.0804, 33352.50
351.5626, 33398.26
352.0447, 33473.35
352.5268, 33558.53
353.0089, 33620.57
353.4910, 33611.88
353.9731, 33597.94
354.4552, 33642.15
354.9373, 33740.02
355.4195, 33837.02
355.9016, 33907.39
356.3837, 33955.53
356.8658, 33985.94
357.3479, 33971.88
357.8300, 33966.96
358.3122, 34010.34
358.7943, 34092.70
359.2764, 34158.52
359.7585, 34163.72
360.2406, 34156.82
360.7227, 34174.29
361.2049, 34258.60
361.6870, 34326.79
362.1691, 34338.15
362.6512, 34312.54
363.1333, 34321.11
363.6154, 34433.34
364.0976, 34542.13
364.5797, 34590.91
365.0618, 34500.71
365.5439, 34461.14
366.0260, 34530.95
366.5081, 34658.51
366.9903, 34718.03
367.4724, 34625.98
367.9545, 34549.98
368.4366, 34554.92
368.9187, 34691.35
369.4008, 34777.61
369.8830, 34796.99
370.3651, 34774.59
370.8472, 34747.88
371.3293, 34713.28
371.8114, 34681.54
372.2935, 34654.34
372.7757, 34630.89
373.2578, 34623.04
373.7399, 34638.43
374.2220, 34657.66
374.7041, 34648.24
375.1862, 34600.96
375.6684, 34579.47
376.1505, 34615.27
376.6326, 34695.32
377.1147, 34725.56
377.5968, 34696.58
378.0789, 34659.53
378.5611, 34677.77
379.0432, 34743.73
379.5253, 34772.75
380.0074, 34724.43
380.4895, 34641.04
380.9716, 34621.00
381.4538, 34663.31
381.9359, 34715.08
382.4180, 34735.41
382.9001, 34734.14
383.3822, 34734.61
383.8643, 34742.82
384.3465, 34752.29
384.8286, 34759.86
385.3107, 34763.43
385.7928, 34754.74
386.2749, 34699.79
386.7570, 34642.91
387.2391, 34643.65
387.7213, 34732.39
388.2034, 34814.94
388.6855, 34810.80
389.1676, 34753.09
389.6497, 34710.21
390.1318, 34727.78
390.6140, 34757.08
391.0961, 34770.98
391.5782, 34766.06
392.0603, 34750.24
392.5424, 34723.89
393.0245, 34688.79
393.5067, 34647.61
393.9888, 34576.84
394.4709, 34523.08
394.9530, 34509.23
395.4351, 34539.60
395.9172, 34553.99
396.3994, 34520.55
396.8815, 34483.67
397.3636, 34479.42
397.8457, 34536.22
398.3278, 34588.88
398.8099, 34634.26
399.2921, 34671.67
399.7742, 34694.29
400.2563, 34700.52
400.7384, 34694.75
401.2205, 34679.91
401.7026, 34657.88
402.1848, 34621.45
402.6669, 34568.21
403.1490, 34501.83
403.6311, 34427.18
404.1132, 34339.48
404.5953, 34261.73
405.0775, 34215.08
405.5596, 34199.24
406.0417, 34145.46
406.5238, 34041.27
407.0059, 33926.44
407.4880, 33866.73
407.9702, 33856.35
408.4523, 33828.79
408.9344, 33731.35
409.4165, 33598.91
409.8986, 33531.97
410.3807, 33533.04
410.8629, 33548.79
411.3450, 33526.64
411.8271, 33482.87
412.3092, 33453.46
412.7913, 33471.92
413.2734, 33491.20
413.7556, 33452.80
414.2377, 33366.18
414.7198, 33287.50
415.2019, 33265.27
415.6840, 33261.84
416.1661, 33240.91
416.6483, 33186.97
417.1304, 33125.55
417.6125, 33050.76
418.0946, 32975.83
418.5767, 32937.34
419.0588, 32992.43
419.5410, 33050.10
420.0230, 33067.50
420.5052, 33034.39
420.9873, 32976.02
421.4694, 32854.33
421.9515, 32720.37
422.4336, 32648.84
422.9157, 32717.25
423.3979, 32764.70
423.8800, 32751.53
424.3621, 32671.09
424.8442, 32612.11
425.3263, 32587.55
425.8084, 32572.90
426.2906, 32546.54
426.7727, 32503.78
427.2548, 32464.39
427.7369, 32428.86
428.2190, 32398.77
428.7011, 32384.34
429.1833, 32389.20
429.6654, 32391.03
430.1475, 32370.14
430.6296, 32326.91
431.1117, 32293.13
431.5938, 32274.06
432.0760, 32257.47
432.5581, 32217.63
433.0402, 32157.51
433.5223, 32106.32
434.0044, 32084.99
434.4865, 32081.12
434.9687, 32079.73
435.4508, 32082.80
435.9329, 32063.09
436.4150, 31973.31
436.8971, 31847.02
437.3792, 31744.75
437.8614, 31711.05
438.3435, 31693.18
438.8256, 31657.49
439.3077, 31605.29
439.7898, 31545.06
440.2719, 31465.21
440.7541, 31387.52
441.2362, 31330.38
441.7183, 31304.27
442.2004, 31288.21
442.6825, 31295.06
443.1646, 31309.19
443.6468, 31289.41
444.1289, 31177.36
444.6110, 31074.74
445.0931, 31026.99
445.5752, 31062.73
446.0573, 31065.18
446.5395, 31014.23
447.0216, 30941.67
447.5037, 30886.53
447.9858, 30854.12
448.4679, 30827.83
448.9500, 30807.68
449.4322, 30792.01
449.9143, 30758.61
450.3964, 30703.29
450.8785, 30641.22
451.3606, 30587.40
451.8427, 30541.47
452.3249, 30488.25
452.8070, 30424.44
453.2891, 30353.29
453.7712, 30279.26
454.2533, 30202.27
454.7354, 30126.19
455.2175, 30041.23
455.6996, 29961.01
456.1818, 29917.09
456.6639, 29917.10
457.1460, 29925.05
457.6281, 29913.69
458.1102, 29886.30
458.5923, 29848.28
459.0745, 29797.04
459.5566, 29740.24
460.0387, 29688.91
460.5208, 29641.52
461.0029, 29576.07
461.4850, 29447.83
461.9672, 29316.52
462.4493, 29230.61
462.9314, 29247.14
463.4135, 29247.88
463.8956, 29186.05
464.3777, 29088.09
464.8599, 29034.46
465.3420, 29085.62
465.8241, 29126.83
466.3062, 29118.60
466.7883, 29048.84
467.2704, 28968.69
467.7526, 28863.61
468.2347, 28760.65
468.7168, 28704.67
469.1989, 28720.48
469.6810, 28694.93
470.1631, 28583.99
470.6453, 28411.85
471.1274, 28304.96
471.6095, 28271.91
472.0916, 28252.09
472.5737, 28199.55
473.0558, 28119.88
473.5380, 28034.12
474.0201, 27939.82
474.5022, 27853.89
474.9843, 27811.54
475.4664, 27801.16
475.9485, 27779.33
476.4307, 27704.24
476.9128, 27614.08
477.3949, 27553.49
477.8770, 27525.39
478.3591, 27503.14
478.8412, 27473.08
479.3234, 27438.43
479.8055, 27403.00
480.2876, 27390.80
480.7697, 27355.27
481.2518, 27252.31
481.7339, 27101.13
482.2161, 27001.73
482.6982, 27036.96
483.1803, 27079.73
483.6624, 27063.02
484.1445, 26933.37
484.6266, 26851.60
485.1088, 26846.36
485.5909, 26873.83
486.0730, 26864.09
486.5551, 26797.18
487.0372, 26737.04
487.5193, 26700.11
488.0014, 26684.89
488.4836, 26680.82
488.9657, 26691.58
489.4478, 26697.47
489.9299, 26685.36
490.4120, 26654.65
490.8941, 26599.00
491.3763, 26511.38
491.8584, 26409.23
492.3405, 26315.53
492.8226, 26231.08
493.3047, 26149.74
493.7868, 26067.61
494.2690, 25988.79
494.7511, 25920.57
495.2332, 25863.62
495.7153, 25812.39
496.1974, 25766.00
496.6795, 25722.15
497.1617, 25676.41
497.6438, 25627.59
498.1259, 25576.82
498.6080, 25520.29
499.0901, 25459.95
499.5722, 25406.44
500.0544, 25369.35
500.5365, 25332.04
501.0186, 25286.78
501.5007, 25233.97
501.9828, 25168.49
502.4649, 25075.08
502.9471, 24979.06
503.4292, 24921.40
503.9113, 24920.43
504.3934, 24908.49
504.8755, 24864.59
505.3576, 24795.24
505.8398, 24741.17
506.3219, 24705.90
506.8040, 24670.63
507.2861, 24617.23
507.7682, 24549.79
508.2503, 24487.30
508.7325, 24432.94
509.2146, 24384.90
509.6967, 24345.01
510.1788, 24310.76
510.6609, 24274.74
511.1430, 24227.14
511.6252, 24178.88
512.1072, 24145.97
512.5894, 24128.92
513.0715, 24097.95
513.5536, 24018.37
514.0357, 23926.80
514.5178, 23856.18
514.9999, 23825.87
515.4821, 23803.86
515.9642, 23797.52
516.4463, 23796.72
516.9284, 23767.71
517.4105, 23680.55
517.8926, 23599.44
518.3748, 23552.39
518.8569, 23551.96
519.3390, 23507.40
519.8211, 23394.29
520.3032, 23273.15
520.7853, 23214.35
521.2675, 23226.66
521.7496, 23223.66
522.2317, 23185.71
522.7138, 23124.08
523.1959, 23064.88
523.6780, 23007.62
524.1602, 22951.50
524.6423, 22889.30
525.1244, 22829.99
525.6065, 22794.61
526.0886, 22787.41
526.5707, 22781.72
527.0529, 22756.84
527.5350, 22718.73
528.0171, 22676.44
528.4992, 22630.08
528.9813, 22583.40
529.4634, 22535.20
529.9456, 22487.38
530.4277, 22446.19
530.9098, 22429.42
531.3919, 22407.42
531.8740, 22362.80
532.3561, 22277.40
532.8383, 22210.44
533.3204, 22174.97
533.8025, 22148.22
534.2846, 22098.90
534.7667, 22015.12
535.2488, 21939.92
535.7310, 21879.57
536.2131, 21835.09
536.6952, 21814.73
537.1773, 21822.09
537.6594, 21822.49
538.1415, 21781.74
538.6237, 21712.33
539.1058, 21667.88
539.5879, 21657.83
540.0700, 21650.61
540.5521, 21610.02
541.0342, 21546.83
541.5164, 21483.56
541.9985, 21428.19
542.4806, 21376.84
542.9627, 21329.72
543.4448, 21285.60
543.9269, 21238.81
544.4091, 21184.59
544.8912, 21128.65
545.3733, 21071.69
545.8554, 21004.65
546.3375, 20957.91
546.8196, 20955.29
547.3018, 20964.74
547.7839, 20945.12
548.2660, 20882.17
548.7481, 20817.69
549.2302, 20758.93
549.7123, 20705.29
550.1945, 20653.62
550.6766, 20603.54
551.1587, 20556.50
551.6408, 20511.77
552.1229, 20470.50
552.6050, 20440.16
553.0872, 20423.49
553.5693, 20408.00
554.0514, 20374.19
554.5335, 20329.96
555.0156, 20295.71
555.4977, 20297.34
555.9799, 20297.02
556.4620, 20257.56
556.9441, 20186.71
557.4262, 20120.90
557.9083, 20078.75
558.3904, 20046.05
558.8726, 20016.85
559.3547, 19995.90
559.8368, 19962.46
560.3189, 19901.59
560.8010, 19831.85
561.2831, 19773.36
561.7653, 19732.51
562.2474, 19691.75
562.7295, 19649.00
563.2116, 19604.03
563.6937, 19553.48
564.1758, 19495.04
564.6580, 19440.37
565.1401, 19399.79
565.6222, 19370.36
566.1043, 19326.65
566.5864, 19265.28
567.0685, 19209.12
567.5507, 19189.26
568.0327, 19193.13
568.5148, 19195.01
568.9969, 19194.30
569.4791, 19179.01
569.9612, 19124.69
570.4433, 19044.86
570.9254, 18983.22
571.4075, 18981.14
571.8896, 18983.08
572.3718, 18960.54
572.8539, 18905.99
573.3360, 18850.42
573.8181, 18785.48
574.3002, 18728.24
574.7823, 18697.33
575.2645, 18714.66
575.7466, 18704.74
576.2287, 18650.20
576.7108, 18571.71
577.1929, 18515.56
577.6750, 18482.95
578.1572, 18465.83
578.6393, 18480.65
579.1214, 18508.45
579.6035, 18464.40
580.0856, 18348.00
580.5677, 18240.36
581.0499, 18236.03
581.5320, 18275.96
582.0141, 18266.33
582.4962, 18164.25
582.9783, 18062.64
583.4604, 18024.36
583.9426, 18023.53
584.4247, 18014.91
584.9068, 17973.28
585.3889, 17933.63
585.8710, 17903.96
586.3531, 17884.68
586.8353, 17880.51
587.3174, 17911.91
587.7995, 17932.46
588.2816, 17909.08
588.7637, 17823.91
589.2458, 17775.34
589.7280, 17775.84
590.2101, 17790.44
590.6922, 17768.62
591.1743, 17713.30
591.6564, 17656.56
592.1385, 17606.26
592.6207, 17562.17
593.1028, 17529.74
593.5849, 17506.13
594.0670, 17474.67
594.5491, 17416.13
595.0313, 17352.56
595.5134, 17306.48
595.9955, 17283.67
596.4776, 17253.39
596.9597, 17185.51
597.4418, 17114.24
597.9240, 17071.24
598.4061, 17094.90
598.8882, 17102.96
599.3703, 17086.62
599.8524, 17052.76
600.3345, 17015.60
600.8167, 16971.77
601.2988, 16934.73
601.7809, 16916.83
602.2630, 16911.79
602.7451, 16861.21
603.2272, 16760.56
603.7094, 16673.50
604.1915, 16671.83
604.6736, 16721.96
605.1557, 16743.19
605.6378, 16720.13
606.1199, 16679.88
606.6021, 16634.71
607.0842, 16591.16
607.5663, 16560.69
608.0484, 16569.41
608.5305, 16569.82
609.0126, 16535.61
609.4948, 16473.35
609.9769, 16423.84
610.4590, 16407.78
610.9411, 16389.50
611.4232, 16351.83
611.9053, 16286.38
612.3875, 16248.78
612.8696, 16247.29
613.3517, 16256.92
613.8338, 16255.75
614.3159, 16243.75
614.7980, 16218.19
615.2802, 16173.80
615.7623, 16125.24
616.2444, 16098.72
616.7265, 16088.19
617.2086, 16072.38
617.6907, 16040.67
618.1729, 15999.76
618.6550, 15949.37
619.1371, 15891.70
619.6192, 15843.87
620.1013, 15821.54
620.5834, 15804.92
621.0656, 15780.97
621.5477, 15741.59
622.0298, 15710.92
622.5119, 15692.52
622.9940, 15680.75
623.4761, 15673.10
623.9583, 15677.03
624.4404, 15656.28
624.9225, 15594.01
625.4046, 15513.17
625.8867, 15477.53
626.3688, 15485.47
626.8510, 15490.79
627.3331, 15461.26
627.8152, 15415.67
628.2973, 15391.10
628.7794, 15386.82
629.2615, 15375.93
629.7437, 15329.24
630.2258, 15273.20
630.7079, 15232.76
631.1900, 15218.68
631.6721, 15205.44
632.1542, 15198.26
632.6364, 15184.12
633.1185, 15143.50
633.6006, 15047.17
634.0826, 14972.06
634.5648, 14935.93
635.0469, 14928.11
635.5290, 14909.33
636.0111, 14877.40
636.4932, 14849.74
636.9753, 14840.74
637.4575, 14844.46
637.9396, 14834.81
638.4217, 14811.65
638.9038, 14781.90
639.3859, 14743.25
639.8680, 14703.84
640.3502, 14678.40
640.8323, 14677.18
641.3144, 14668.21
641.7965, 14621.33
642.2786, 14560.20
642.7607, 14517.61
643.2429, 14524.90
643.7250, 14522.71
644.2071, 14493.57
644.6892, 14445.83
645.1713, 14419.20
645.6534, 14423.67
646.1356, 14424.16
646.6177, 14399.76
647.0998, 14353.74
647.5819, 14334.26
648.0640, 14344.13
648.5461, 14352.04
649.0283, 14325.98
649.5104, 14278.35
649.9925, 14234.43
650.4746, 14199.62
650.9567, 14166.32
651.4388, 14126.78
651.9210, 14086.20
652.4031, 14052.28
652.8852, 14027.41
653.3673, 14009.06
653.8494, 14001.94
654.3315, 14001.78
654.8137, 13991.51
655.2958, 13966.31
655.7779, 13938.72
656.2600, 13913.86
656.7421, 13891.35
657.2242, 13862.67
657.7064, 13827.08
658.1885, 13789.06
658.6706, 13746.07
659.1527, 13703.29
659.6348, 13682.87
660.1169, 13692.69
660.5991, 13699.16
661.0812, 13667.23
661.5633, 13613.99
662.0454, 13564.06
662.5275, 13524.75
663.0096, 13491.13
663.4918, 13464.56
663.9739, 13442.57
664.4560, 13417.93
664.9381, 13386.90
665.4202, 13357.97
665.9023, 13333.44
666.3845, 13313.23
666.8666, 13298.33
667.3487, 13291.87
667.8308, 13277.73
668.3129, 13234.01
668.7950, 13171.91
669.2772, 13135.76
669.7593, 13129.70
670.2414, 13139.32
670.7235, 13170.63
671.2056, 13202.78
671.6877, 13203.59
672.1699, 13142.75
672.6520, 13083.14
673.1341, 13050.12
673.6162, 13035.01
674.0983, 13021.87
674.5804, 13003.45
675.0626, 12993.69
675.5447, 13004.91
676.0268, 13028.43
676.5089, 13012.02
676.9910, 12947.81
677.4731, 12878.21
677.9553, 12824.02
678.4374, 12783.63
678.9195, 12752.54
679.4016, 12730.80
679.8837, 12713.89
680.3658, 12704.17
680.8480, 12694.59
681.3301, 12675.18
681.8122, 12642.31
682.2943, 12605.60
682.7764, 12561.01
683.2585, 12518.46
683.7407, 12489.52
684.2228, 12488.52
684.7049, 12486.17
685.1870, 12481.25
685.6691, 12473.19
686.1512, 12459.99
686.6334, 12441.19
687.1155, 12420.14
687.5976, 12398.58
688.0797, 12375.64
688.5618, 12344.33
689.0439, 12306.07
689.5261, 12275.57
690.0082, 12274.88
690.4903, 12281.30
690.9724, 12264.42
691.4545, 12218.79
691.9366, 12182.87
692.4188, 12181.46
692.9009, 12191.90
693.3830, 12196.87
693.8651, 12205.65
694.3472, 12188.03
694.8293, 12129.93
695.3115, 12057.37
695.7936, 12005.53
696.2757, 11976.30
696.7578, 11954.67
697.2399, 11938.20
697.7220, 11926.62
698.2042, 11923.87
698.6863, 11927.17
699.1684, 11923.41
699.6505, 11900.60
700.1326, 11871.72
700.6147, 11844.95
701.0968, 11821.39
701.5789, 11805.28
702.0610, 11808.79
702.5432, 11811.53
703.0253, 11801.40
703.5074, 11775.38
703.9895, 11751.77
704.4716, 11727.99
704.9537, 11710.65
705.4359, 11713.50
705.9180, 11737.67
706.4001, 11725.36
706.8822, 11663.55
707.3643, 11592.26
707.8464, 11557.79
708.3286, 11550.39
708.8107, 11549.44
709.2928, 11559.44
709.7749, 11556.68
710.2570, 11512.63
710.7391, 11444.78
711.2213, 11391.15
711.7034, 11367.34
712.1855, 11352.39
712.6676, 11343.20
713.1497, 11338.83
713.6318, 11333.79
714.1140, 11330.17
714.5961, 11320.74
715.0782, 11301.77
715.5603, 11274.29
716.0424, 11239.20
716.5245, 11196.74
717.0067, 11158.97
717.4888, 11138.54
717.9709, 11127.88
718.4530, 11117.49
718.9351, 11105.70
719.4172, 11095.38
719.8994, 11092.67
720.3815, 11089.31
720.8636, 11077.27
721.3457, 11044.31
721.8278, 11018.04
722.3099, 10998.91
722.7921, 10986.47
723.2742, 10983.51
723.7563, 10991.73
724.2384, 10988.84
724.7205, 10962.33
725.2026, 10931.09
725.6848, 10940.18
726.1669, 10978.60
726.6490, 11000.95
727.1311, 10982.67
727.6132, 10941.32
728.0953, 10873.45
728.5775, 10786.04
729.0596, 10728.91
729.5417, 10746.64
730.0238, 10769.57
730.5059, 10763.16
730.9880, 10722.26
731.4702, 10713.95
731.9523, 10750.90
732.4344, 10787.58
732.9165, 10785.67
733.3986, 10750.01
733.8807, 10711.96
734.3629, 10672.54
734.8450, 10641.69
735.3271, 10633.90
735.8092, 10639.24
736.2913, 10644.71
736.7734, 10651.76
737.2556, 10648.94
737.7377, 10625.77
738.2198, 10591.92
738.7019, 10560.93
739.1840, 10529.56
739.6661, 10508.51
740.1483, 10501.68
740.6304, 10504.52
741.1125, 10508.92
741.5946, 10515.23
742.0767, 10513.45
742.5588, 10499.58
743.0410, 10475.59
743.5231, 10435.67
744.0052, 10385.69
744.4873, 10350.58
744.9694, 10353.94
745.4515, 10368.59
745.9337, 10382.37
746.4158, 10394.52
746.8979, 10391.98
747.3800, 10364.20
747.8621, 10330.77
748.3442, 10296.79
748.8264, 10259.33
749.3085, 10253.89
749.7906, 10290.37
750.2727, 10318.31
750.7548, 10270.96
751.2369, 10177.88
751.7191, 10128.63
752.2012, 10142.09
752.6833, 10164.71
753.1654, 10151.83
753.6475, 10124.41
754.1296, 10107.19
754.6118, 10120.65
755.0939, 10124.23
755.5760, 10104.52
756.0581, 10074.60
756.5402, 10053.03
757.0223, 10043.68
757.5045, 10025.83
757.9866, 9987.301
758.4687, 9948.499
758.9508, 9969.829
759.4329, 10037.87
759.9150, 10080.11
760.3972, 10041.11
760.8793, 9978.968
761.3614, 9939.253
761.8435, 9920.851
762.3256, 9918.809
762.8077, 9956.902
763.2899, 9986.180
763.7720, 9979.033
764.2541, 9938.934
764.7362, 9917.392
765.2183, 9920.972
765.7004, 9927.825
766.1825, 9929.242
766.6646, 9924.817
767.1467, 9906.018
767.6288, 9872.674
768.1110, 9844.126
768.5931, 9841.284
769.0752, 9849.598
769.5573, 9852.197
770.0394, 9845.991
770.5215, 9839.174
771.0037, 9833.162
771.4858, 9828.751
771.9679, 9826.677
772.4500, 9828.143
772.9321, 9828.619
773.4142, 9827.002
773.8964, 9825.968
774.3785, 9832.614
774.8606, 9845.095
775.3427, 9844.134
775.8248, 9822.977
776.3069, 9796.233
776.7891, 9774.913
777.2712, 9760.003
777.7533, 9753.228
778.2354, 9765.879
778.7175, 9774.823
779.1996, 9767.298
779.6818, 9751.776
780.1639, 9749.159
780.6460, 9774.252
781.1281, 9778.548
781.6102, 9741.095
782.0923, 9683.551
782.5745, 9672.178
783.0566, 9703.875
783.5387, 9741.318
784.0208, 9773.521
784.5029, 9795.799
784.9850, 9794.040
785.4672, 9774.393
785.9493, 9763.757
786.4314, 9777.898
786.9135, 9799.643
787.3956, 9825.162
787.8777, 9853.415
788.3599, 9871.606
788.8420, 9875.256
789.3241, 9878.470
789.8062, 9890.755
790.2883, 9910.238
790.7704, 9918.774
791.2526, 9916.369
791.7347, 9915.255
792.2168, 9922.576
792.6989, 9937.625
793.1810, 9961.544
793.6631, 9995.587
794.1453, 10027.94
794.6274, 10058.54
795.1095, 10082.45
795.5916, 10093.46
796.0737, 10082.44
796.5558, 10091.28
797.0380, 10127.78
797.5201, 10166.66
798.0022, 10175.04
798.4843, 10161.12
798.9664, 10172.89
799.4485, 10222.38
799.9307, 10269.39
800.4128, 10268.08
800.8949, 10246.56
801.3770, 10242.20
801.8591, 10281.22
802.3412, 10310.16
802.8234, 10302.62
803.3055, 10286.97
803.7876, 10295.86
804.2697, 10334.76
804.7518, 10379.76
805.2339, 10429.99
805.7161, 10480.29
806.1982, 10523.73
806.6803, 10559.91
807.1624, 10588.04
807.6445, 10601.87
808.1266, 10616.36
808.6088, 10631.95
809.0909, 10657.80
809.5730, 10712.15
810.0551, 10827.71
810.5372, 10939.62
811.0193, 11034.85
811.5015, 11117.51
811.9836, 11189.36
812.4657, 11245.85
812.9478, 11327.36
813.4299, 11453.64
813.9120, 11608.80
814.3942, 11755.22
814.8763, 11899.59
815.3584, 12061.96
815.8405, 12259.36
816.3226, 12471.19
816.8047, 12675.23
817.2869, 12878.99
817.7690, 13139.49
818.2511, 13477.02
818.7332, 13835.30
819.2153, 14184.67
819.6974, 14539.31
820.1796, 15003.95
820.6617, 15581.73
821.1438, 16217.06
821.6259, 16887.79
822.1080, 17594.87
822.5901, 18352.33
823.0723, 19166.04
823.5544, 20046.20
824.0365, 21051.30
824.5186, 22085.87
825.0007, 23100.02
825.4828, 24085.69
825.9650, 25150.48
826.4471, 26297.75
826.9292, 27507.36
827.4113, 28756.38
827.8934, 30042.25
828.3755, 31381.38
828.8577, 32763.71
829.3398, 34239.91
829.8219, 35868.99
830.3040, 37553.00
830.7861, 39196.30
831.2682, 40767.24
831.7503, 42430.33
832.2324, 44368.79
832.7145, 46303.68
833.1967, 48129.45
833.6788, 49866.92
834.1609, 51389.15
834.6430, 52736.64
835.1251, 53659.22
835.6072, 54089.85
836.0894, 53902.31
836.5715, 52750.44
837.0536, 50562.51
837.5357, 47809.21
838.0178, 44437.27
838.4999, 40831.55
838.9821, 37206.87
839.4642, 33465.53
839.9463, 30119.79
840.4284, 27198.74
840.9105, 24620.53
841.3926, 22358.05
841.8748, 20398.49
842.3569, 18732.84
842.8390, 17370.15
843.3211, 16212.94
843.8032, 15201.20
844.2853, 14323.06
844.7675, 13585.67
845.2496, 13008.04
845.7317, 12491.82
846.2138, 12017.61
846.6959, 11591.07
847.1780, 11217.05
847.6602, 10902.65
848.1423, 10626.70
848.6244, 10390.66
849.1065, 10183.05
849.5886, 9988.551
850.0707, 9808.910
850.5529, 9652.584
851.0350, 9520.998
851.5171, 9407.144
851.9992, 9318.141
852.4813, 9238.707
852.9634, 9151.090
853.4456, 9046.637
853.9277, 8942.728
854.4098, 8835.206
854.8919, 8735.479
855.3740, 8660.482
855.8561, 8608.921
856.3383, 8554.106
856.8204, 8492.363
857.3025, 8429.935
857.7846, 8368.122
858.2667, 8311.134
858.7488, 8265.130
859.2310, 8241.979
859.7131, 8209.120
860.1952, 8149.432
860.6773, 8083.682
861.1594, 8029.146
861.6415, 7986.265
862.1237, 7954.580
862.6058, 7934.914
863.0879, 7922.207
863.5700, 7916.875
864.0521, 7912.491
864.5342, 7892.647
865.0164, 7848.603
865.4985, 7805.269
865.9806, 7771.463
866.4627, 7747.311
866.9448, 7734.592
867.4269, 7748.023
867.9091, 7740.247
868.3912, 7702.679
868.8733, 7657.985
869.3554, 7633.234
869.8375, 7626.188
870.3196, 7626.684
870.8018, 7635.242
871.2839, 7640.855
871.7660, 7630.345
872.2481, 7613.076
872.7302, 7599.914
873.2123, 7594.862
873.6945, 7590.532
874.1766, 7587.830
874.6587, 7583.716
875.1408, 7573.255
875.6229, 7555.937
876.1050, 7547.509
876.5872, 7551.878
877.0693, 7552.770
877.5514, 7525.541
878.0335, 7485.779
878.5156, 7458.347
878.9977, 7453.735
879.4799, 7446.431
879.9620, 7415.748
880.4441, 7387.336
880.9262, 7386.496
881.4083, 7426.906
881.8904, 7443.865
882.3726, 7431.280
882.8547, 7408.782
883.3368, 7394.998
883.8189, 7388.142
884.3010, 7384.790
884.7831, 7384.607
885.2653, 7385.736
885.7474, 7388.380
886.2295, 7390.665
886.7116, 7390.716
887.1937, 7387.581
887.6758, 7383.291
888.1580, 7375.957
888.6401, 7370.956
889.1222, 7380.191
889.6043, 7397.862
890.0864, 7385.873
890.5685, 7339.074
891.0507, 7304.502
891.5328, 7341.758
892.0149, 7394.683
892.4970, 7407.418
892.9791, 7356.964
893.4612, 7329.499
893.9434, 7342.771
894.4255, 7364.249
894.9076, 7371.926
895.3897, 7366.214
895.8718, 7368.890
896.3539, 7380.239
896.8361, 7397.496
897.3181, 7422.499
897.8002, 7449.473
898.2823, 7470.667
898.7645, 7484.989
899.2466, 7502.990
899.7287, 7533.590
900.2108, 7562.609
900.6929, 7582.301
901.1750, 7592.612
901.6572, 7606.182
902.1393, 7622.754
902.6214, 7643.157
903.1035, 7665.299
903.5856, 7692.606
904.0677, 7736.297
904.5499, 7794.229
905.0320, 7842.168
905.5141, 7875.692
905.9962, 7889.054
906.4783, 7865.849
906.9604, 7812.451
907.4426, 7811.309
907.9247, 7870.181
908.4068, 7937.172
908.8889, 7994.826
909.3710, 8036.854
909.8531, 8043.981
910.3353, 8022.623
910.8174, 8001.266
911.2995, 7987.891
911.7816, 7984.090
912.2637, 8002.902
912.7458, 8034.858
913.2280, 8032.163
913.7101, 7984.291
914.1922, 7938.295
914.6743, 7910.823
915.1564, 7893.700
915.6385, 7877.581
916.1207, 7857.569
916.6028, 7817.498
917.0849, 7719.334
917.5670, 7630.543
918.0491, 7597.446
918.5313, 7597.265
919.0134, 7568.352
919.4955, 7489.749
919.9776, 7431.851
920.4597, 7413.211
920.9418, 7413.616
921.4240, 7402.312
921.9061, 7379.143
922.3882, 7340.667
922.8703, 7272.816
923.3524, 7214.477
923.8345, 7204.769
924.3167, 7215.609
924.7988, 7202.308
925.2809, 7141.973
925.7630, 7098.028
926.2451, 7077.060
926.7272, 7069.633
927.2094, 7069.304
927.6915, 7072.845
928.1736, 7064.443
928.6557, 7038.545
929.1378, 7013.718
929.6199, 7003.322
930.1021, 7001.330
930.5842, 7002.793
931.0663, 7011.641
931.5484, 7011.684
932.0305, 6999.000
932.5126, 6984.484
932.9948, 6980.131
933.4769, 6982.997
933.9590, 6973.805
934.4411, 6951.079
934.9232, 6934.861
935.4053, 6947.697
935.8875, 6968.681
936.3696, 6983.279
936.8517, 6990.214
937.3338, 6984.648
937.8159, 6959.776
938.2980, 6935.464
938.7802, 6921.755
939.2623, 6917.514
939.7444, 6919.221
940.2265, 6925.835
940.7086, 6926.510
941.1907, 6903.121
941.6729, 6880.703
942.1550, 6882.831
942.6371, 6906.065
943.1192, 6915.177
943.6013, 6899.809
944.0834, 6886.263
944.5656, 6883.464
945.0477, 6887.021
945.5298, 6882.917
946.0119, 6872.828
946.4940, 6866.376
946.9761, 6872.063
947.4583, 6878.635
947.9404, 6876.298
948.4225, 6869.416
948.9046, 6868.115
949.3867, 6878.943
949.8688, 6884.361
950.3510, 6880.784
950.8331, 6872.553
951.3152, 6865.128
951.7973, 6858.912
952.2794, 6855.771
952.7615, 6855.750
953.2437, 6859.854
953.7258, 6874.260
954.2079, 6890.387
954.6900, 6897.512
955.1721, 6881.743
955.6542, 6888.201
956.1364, 6930.067
956.6185, 6967.015
957.1006, 6948.147
957.5827, 6891.625
958.0648, 6867.409
958.5469, 6882.172
959.0291, 6902.571
959.5112, 6905.834
959.9933, 6906.995
960.4754, 6919.146
960.9575, 6944.907
961.4396, 6962.415
961.9218, 6970.169
962.4039, 6973.058
962.8860, 6970.160
963.3680, 6965.167
963.8502, 6966.932
964.3323, 6975.963
964.8144, 6995.490
965.2965, 7034.030
965.7786, 7076.512
966.2607, 7122.756
966.7429, 7167.072
967.2250, 7185.557
967.7071, 7165.456
968.1892, 7166.494
968.6713, 7210.834
969.1534, 7276.662
969.6356, 7327.685
970.1177, 7367.969
970.5998, 7407.367
971.0819, 7435.338
971.5640, 7482.735
972.0461, 7571.534
972.5283, 7681.933
973.0104, 7789.362
973.4925, 7893.597
973.9746, 7993.592
974.4567, 8086.583
974.9388, 8184.810
975.4210, 8302.098
975.9031, 8432.564
976.3852, 8564.384
976.8673, 8692.745
977.3494, 8839.620
977.8315, 9024.540
978.3137, 9220.306
978.7958, 9411.468
979.2779, 9597.077
979.7600, 9782.238
980.2421, 9965.058
980.7242, 10181.33
981.2064, 10489.53
981.6885, 10825.02
982.1706, 11111.65
982.6527, 11353.76
983.1348, 11596.69
983.6169, 11840.72
984.0991, 12105.78
984.5812, 12406.44
985.0633, 12723.65
985.5454, 12991.69
986.0275, 13214.23
986.5096, 13437.12
986.9918, 13694.29
987.4739, 13931.27
987.9560, 14103.48
988.4381, 14218.99
988.9202, 14288.49
989.4023, 14320.68
989.8845, 14292.16
990.3666, 14193.57
990.8487, 14048.67
991.3308, 13887.34
991.8129, 13703.98
992.2950, 13474.79
992.7772, 13190.39
993.2593, 12905.05
993.7414, 12666.15
994.2235, 12434.57
994.7056, 12167.71
995.1877, 11851.59
995.6699, 11586.54
996.1520, 11383.50
996.6341, 11181.51
997.1162, 10935.96
997.5983, 10668.17
998.0804, 10429.30
998.5626, 10216.17
999.0447, 10007.21
999.5268, 9792.043
1000.009, 9580.115
1000.491, 9369.686
1000.973, 9167.101
1001.455, 8985.033
1001.937, 8825.990
1002.419, 8676.003
1002.902, 8530.006
1003.384, 8397.556
1003.866, 8298.578
1004.348, 8219.569
1004.830, 8137.799
1005.312, 8045.354
1005.794, 7953.330
1006.276, 7852.090
1006.759, 7764.873
1007.241, 7721.741
1007.723, 7718.629
1008.205, 7678.756
1008.687, 7596.208
1009.169, 7517.794
1009.651, 7488.911
1010.133, 7473.959
1010.615, 7441.405
1011.098, 7387.895
1011.580, 7347.237
1012.062, 7324.744
1012.544, 7305.320
1013.026, 7283.771
1013.508, 7260.785
1013.990, 7238.602
1014.472, 7216.861
1014.955, 7193.426
1015.437, 7157.729
1015.919, 7130.782
1016.401, 7127.032
1016.883, 7136.225
1017.365, 7142.778
1017.847, 7148.405
1018.329, 7140.620
1018.811, 7114.779
1019.294, 7088.069
1019.776, 7081.253
1020.258, 7086.075
1020.740, 7091.565
1021.222, 7096.426
1021.704, 7098.123
1022.186, 7093.705
1022.668, 7088.124
1023.151, 7082.452
1023.633, 7077.108
1024.115, 7081.801
1024.597, 7095.641
1025.079, 7103.514
1025.561, 7093.772
1026.043, 7076.700
1026.525, 7053.057
1027.007, 7028.210
1027.490, 7022.475
1027.972, 7049.282
1028.454, 7065.352
1028.936, 7061.496
1029.418, 7045.905
1029.900, 7025.081
1030.382, 7004.139
1030.864, 6997.565
1031.346, 7015.639
1031.829, 7028.467
1032.311, 7006.781
1032.793, 6987.142
1033.275, 7004.011
1033.757, 7066.863
1034.239, 7085.086
1034.721, 7054.752
1035.203, 7026.301
1035.686, 7046.621
1036.168, 7082.991
1036.650, 7095.201
1037.132, 7086.226
1037.614, 7089.465
1038.096, 7125.972
1038.578, 7152.550
1039.060, 7155.693
1039.542, 7146.232
1040.025, 7149.853
1040.507, 7163.607
1040.989, 7175.197
1041.471, 7179.555
1041.953, 7183.627
1042.435, 7193.512
1042.917, 7204.092
1043.399, 7210.712
1043.881, 7215.579
1044.364, 7203.667
1044.846, 7170.575
1045.328, 7143.870
1045.810, 7155.983
1046.292, 7185.087
1046.774, 7199.236
1047.256, 7197.825
1047.738, 7196.428
1048.221, 7199.641
1048.703, 7203.926
1049.185, 7206.928
1049.667, 7211.336
1050.149, 7230.315
1050.631, 7260.552
1051.113, 7277.764
1051.595, 7269.313
1052.078, 7255.129
1052.560, 7243.997
1053.042, 7238.050
1053.524, 7240.375
1054.006, 7251.628
1054.488, 7269.099
1054.970, 7294.383
1055.452, 7319.640
1055.934, 7340.092
1056.417, 7355.006
1056.899, 7363.650
1057.381, 7365.972
1057.863, 7361.995
1058.345, 7336.878
1058.827, 7323.484
1059.309, 7334.279
1059.791, 7363.114
1060.273, 7395.138
1060.756, 7428.556
1061.238, 7445.614
1061.720, 7430.671
1062.202, 7416.692
1062.684, 7442.007
1063.166, 7477.074
1063.648, 7480.258
1064.130, 7428.602
1064.612, 7407.531
1065.095, 7422.837
1065.577, 7447.817
1066.059, 7457.776
1066.541, 7461.551
1067.023, 7476.768
1067.505, 7502.673
1067.987, 7521.971
1068.469, 7513.562
1068.952, 7516.504
1069.434, 7548.406
1069.916, 7595.500
1070.398, 7617.824
1070.880, 7618.488
1071.362, 7615.781
1071.844, 7612.302
1072.326, 7614.275
1072.808, 7629.322
1073.291, 7650.430
1073.773, 7670.551
1074.255, 7691.792
1074.737, 7700.829
1075.219, 7695.121
1075.701, 7689.159
1076.183, 7695.052
1076.665, 7707.633
1077.147, 7722.421
1077.630, 7738.034
1078.112, 7746.250
1078.594, 7726.206
1079.076, 7724.270
1079.558, 7756.380
1080.040, 7806.163
1080.522, 7836.402
1081.004, 7852.428
1081.487, 7881.808
1081.969, 7941.328
1082.451, 7983.236
1082.933, 7959.016
1083.415, 7917.521
1083.897, 7900.564
1084.379, 7909.998
1084.861, 7936.104
1085.344, 7980.996
1085.826, 8017.398
1086.308, 8011.149
1086.790, 7997.989
1087.272, 8026.562
1087.754, 8084.791
1088.236, 8124.133
1088.718, 8128.377
1089.200, 8127.732
1089.682, 8124.212
1090.165, 8122.284
1090.647, 8127.066
1091.129, 8139.253
1091.611, 8166.952
1092.093, 8217.412
1092.575, 8245.397
1093.057, 8204.481
1093.539, 8160.495
1094.022, 8149.940
1094.504, 8170.461
1094.986, 8194.864
1095.468, 8222.879
1095.950, 8252.501
1096.432, 8285.335
1096.914, 8316.775
1097.396, 8344.521
1097.879, 8367.548
1098.361, 8383.419
1098.843, 8390.502
1099.325, 8393.789
1099.807, 8391.085
1100.289, 8394.585
1100.771, 8424.441
1101.253, 8465.879
1101.735, 8499.004
1102.218, 8522.051
1102.700, 8531.094
1103.182, 8508.164
1103.664, 8495.937
1104.146, 8510.308
1104.628, 8543.420
1105.110, 8578.209
1105.592, 8612.584
1106.074, 8636.957
1106.557, 8645.964
1107.039, 8648.412
1107.521, 8636.774
1108.003, 8629.069
1108.485, 8645.688
1108.967, 8690.845
1109.449, 8715.021
1109.931, 8716.859
1110.414, 8725.009
1110.896, 8774.943
1111.378, 8828.604
1111.860, 8852.511
1112.342, 8850.001
1112.824, 8842.010
1113.306, 8820.266
1113.788, 8825.070
1114.271, 8870.682
1114.753, 8928.344
1115.235, 8964.849
1115.717, 8981.937
1116.199, 8975.215
1116.681, 8932.962
1117.163, 8920.549
1117.645, 8967.175
1118.127, 9019.588
1118.609, 9051.085
1119.092, 9067.323
1119.574, 9090.477
1120.056, 9118.893
1120.538, 9145.397
1121.020, 9158.370
1121.502, 9178.419
1121.984, 9228.275
1122.466, 9280.728
1122.949, 9300.144
1123.431, 9285.637
1123.913, 9273.474
1124.395, 9265.534
1124.877, 9276.478
1125.359, 9340.960
1125.841, 9410.306
1126.323, 9441.205
1126.806, 9435.536
1127.288, 9445.110
1127.770, 9473.914
1128.252, 9501.268
1128.734, 9522.218
1129.216, 9537.628
1129.698, 9545.673
1130.180, 9550.639
1130.662, 9557.284
1131.145, 9560.944
1131.627, 9586.567
1132.109, 9646.387
1132.591, 9704.650
1133.073, 9739.963
1133.555, 9756.317
1134.037, 9757.023
1134.519, 9747.125
1135.001, 9747.228
1135.484, 9765.035
1135.966, 9797.169
1136.448, 9850.765
1136.930, 9907.660
1137.412, 9936.302
1137.894, 9942.961
1138.376, 9977.893
1138.858, 10048.54
1139.340, 10106.50
1139.823, 10109.48
1140.305, 10097.08
1140.787, 10087.15
1141.269, 10082.56
1141.751, 10099.75
1142.233, 10139.31
1142.715, 10179.11
1143.197, 10213.66
1143.680, 10241.46
1144.162, 10253.38
1144.644, 10261.66
1145.126, 10284.06
1145.608, 10328.38
1146.090, 10356.15
1146.572, 10363.33
1147.054, 10376.07
1147.536, 10423.15
1148.019, 10479.19
1148.501, 10509.80
1148.983, 10519.54
1149.465, 10524.17
1149.947, 10518.68
1150.429, 10522.90
1150.911, 10539.54
1151.393, 10564.84
1151.875, 10600.66
1152.358, 10639.60
1152.840, 10664.66
1153.322, 10673.57
1153.804, 10685.14
1154.286, 10709.54
1154.768, 10733.52
1155.250, 10752.65
1155.732, 10769.68
1156.215, 10792.33
1156.697, 10819.48
1157.179, 10846.68
1157.661, 10874.62
1158.143, 10898.45
1158.625, 10910.59
1159.107, 10923.35
1159.589, 10945.43
1160.072, 10976.54
1160.554, 11009.07
1161.036, 11042.53
1161.518, 11073.50
1162.000, 11096.04
1162.482, 11118.36
1162.964, 11139.77
1163.446, 11165.56
1163.928, 11207.88
1164.411, 11269.86
1164.893, 11313.67
1165.375, 11334.36
1165.857, 11347.93
1166.339, 11368.19
1166.821, 11387.77
1167.303, 11402.27
1167.785, 11410.87
1168.267, 11408.79
1168.750, 11391.98
1169.232, 11389.10
1169.714, 11412.37
1170.196, 11441.39
1170.678, 11450.01
1171.160, 11449.76
1171.642, 11454.49
1172.124, 11466.45
1172.607, 11488.37
1173.089, 11525.54
1173.571, 11553.38
1174.053, 11550.30
1174.535, 11535.76
1175.017, 11540.14
1175.499, 11560.99
1175.981, 11593.20
1176.464, 11644.63
1176.946, 11692.95
1177.428, 11738.08
1177.910, 11776.59
1178.392, 11805.47
1178.874, 11824.64
1179.356, 11831.94
1179.838, 11828.59
1180.320, 11823.38
1180.802, 11809.98
1181.285, 11810.33
1181.767, 11835.72
1182.249, 11868.01
1182.731, 11872.67
1183.213, 11859.24
1183.695, 11862.34
1184.177, 11889.62
1184.659, 11905.84
1185.142, 11875.75
1185.624, 11853.11
1186.106, 11863.67
1186.588, 11897.94
1187.070, 11927.05
1187.552, 11949.93
1188.034, 11961.88
1188.516, 11957.02
1188.999, 11950.93
1189.481, 11944.93
1189.963, 11946.62
1190.445, 11964.41
1190.927, 11997.54
1191.409, 12025.34
1191.891, 12046.97
1192.373, 12052.92
1192.855, 12018.44
1193.338, 11988.18
1193.820, 11981.13
1194.302, 11995.82
1194.784, 12037.03
1195.266, 12106.51
1195.748, 12154.49
1196.230, 12178.19
1196.712, 12180.35
1197.194, 12144.76
1197.677, 12105.51
1198.159, 12083.04
1198.641, 12077.53
1199.123, 12091.54
1199.605, 12127.13
1200.087, 12153.00
1200.569, 12162.47
1201.051, 12165.67
1201.533, 12165.88
1202.016, 12168.18
1202.498, 12176.47
1202.980, 12190.49
1203.462, 12215.14
1203.944, 12252.12
1204.426, 12276.96
1204.908, 12277.91
1205.390, 12268.38
1205.873, 12252.47
1206.355, 12239.31
1206.837, 12246.21
1207.319, 12283.31
1207.801, 12279.74
1208.283, 12229.24
1208.765, 12192.13
1209.247, 12229.10
1209.729, 12280.18
1210.212, 12284.63
1210.694, 12256.64
1211.176, 12221.57
1211.658, 12171.33
1212.140, 12151.69
1212.622, 12167.88
1213.104, 12199.03
1213.586, 12246.04
1214.068, 12283.47
1214.551, 12270.67
1215.033, 12219.25
1215.515, 12194.26
1215.997, 12211.02
1216.479, 12212.05
1216.961, 12183.04
1217.443, 12156.43
1217.925, 12186.97
1218.408, 12230.88
1218.890, 12231.36
1219.372, 12181.99
1219.854, 12142.35
1220.336, 12112.30
1220.818, 12104.16
1221.300, 12128.86
1221.782, 12161.12
1222.265, 12167.09
1222.747, 12157.69
1223.229, 12144.55
1223.711, 12124.74
1224.193, 12130.83
1224.675, 12172.18
1225.157, 12205.54
1225.639, 12210.86
1226.121, 12194.40
1226.604, 12146.25
1227.086, 12087.99
1227.568, 12063.75
1228.050, 12113.79
1228.532, 12118.37
1229.014, 12062.68
1229.496, 12017.98
1229.978, 12060.34
1230.460, 12130.91
1230.943, 12141.38
1231.425, 12108.91
1231.907, 12087.14
1232.389, 12089.71
1232.871, 12090.42
1233.353, 12086.80
1233.835, 12082.75
1234.317, 12083.93
1234.800, 12085.88
1235.282, 12087.38
1235.764, 12085.81
1236.246, 12062.29
1236.728, 12001.39
1237.210, 11962.68
1237.692, 11959.55
1238.174, 11971.63
1238.656, 11980.83
1239.139, 11985.77
1239.621, 11980.70
1240.103, 11965.11
1240.585, 11966.78
1241.067, 11996.42
1241.549, 12006.64
1242.031, 11976.97
1242.513, 11936.92
1242.995, 11921.74
1243.478, 11921.29
1243.960, 11925.03
1244.442, 11934.33
1244.924, 11926.35
1245.406, 11896.19
1245.888, 11870.80
1246.370, 11863.24
1246.852, 11864.83
1247.335, 11878.52
1247.817, 11888.42
1248.299, 11863.29
1248.781, 11775.38
1249.263, 11746.78
1249.745, 11787.56
1250.227, 11821.40
1250.709, 11783.24
1251.192, 11726.65
1251.674, 11713.65
1252.156, 11723.47
1252.638, 11711.03
1253.120, 11665.25
1253.602, 11632.37
1254.084, 11614.69
1254.566, 11607.30
1255.048, 11614.12
1255.531, 11622.52
1256.013, 11626.26
1256.495, 11620.77
1256.977, 11592.74
1257.459, 11535.08
1257.941, 11500.38
1258.423, 11494.93
1258.905, 11507.09
1259.387, 11558.68
1259.870, 11595.98
1260.352, 11548.59
1260.834, 11447.80
1261.316, 11419.41
1261.798, 11467.53
1262.280, 11505.85
1262.762, 11518.03
1263.244, 11518.77
1263.726, 11528.63
1264.209, 11524.21
1264.691, 11472.32
1265.173, 11389.86
1265.655, 11356.02
1266.137, 11368.69
1266.619, 11386.75
1267.101, 11402.47
1267.583, 11407.50
1268.066, 11395.89
1268.548, 11369.98
1269.030, 11325.48
1269.512, 11268.89
1269.994, 11248.41
1270.476, 11258.67
1270.958, 11259.58
1271.440, 11226.67
1271.922, 11203.34
1272.405, 11224.57
1272.887, 11250.91
1273.369, 11256.71
1273.851, 11243.69
1274.333, 11222.23
1274.815, 11193.51
1275.297, 11163.07
1275.779, 11129.80
1276.261, 11100.81
1276.744, 11080.00
1277.226, 11062.13
1277.708, 11041.14
1278.190, 11019.98
1278.672, 11013.97
1279.154, 11019.85
1279.636, 11022.60
1280.118, 11010.75
1280.601, 11004.69
1281.083, 11017.10
1281.565, 11018.26
1282.047, 10952.32
1282.529, 10860.71
1283.011, 10850.92
1283.493, 10909.59
1283.975, 10941.74
1284.458, 10889.92
1284.940, 10860.62
1285.422, 10875.64
1285.904, 10890.14
1286.386, 10837.04
1286.868, 10758.04
1287.350, 10713.75
1287.832, 10706.08
1288.314, 10713.29
1288.797, 10747.98
1289.279, 10742.91
1289.761, 10675.64
1290.243, 10606.45
1290.725, 10615.68
1291.207, 10653.07
1291.689, 10664.03
1292.171, 10643.32
1292.653, 10626.79
1293.136, 10618.01
##END=



