##NAMES=Salesite
##RRUFFID=R050170
##IDEAL CHEMISTRY=Cu^2+^(I^5+^O_3_)(OH)
##LOCALITY=Chuquicamata, Chile
##OWNER=RRUFF
##SOURCE=Marcus Origlieri
##DESCRIPTION=Green crystalline crust
##STATUS=The identification of this mineral has been confirmed by single-crystal X-ray diffraction.
##URL=rruff.info/R050170
93.26398, 0.0000000E+00
93.74609, 40.67416
94.22821, 34.39790
94.71033, 39.46581
95.19244, 52.97334
95.67456, 64.42371
96.15668, 69.13733
96.63879, 68.60928
97.12091, 66.43742
97.60303, 61.64279
98.08514, 58.86080
98.56726, 65.86452
99.04938, 82.88145
99.53149, 101.6337
100.0136, 117.9026
100.4957, 131.5598
100.9778, 147.3438
101.4600, 166.6088
101.9421, 186.8178
102.4242, 199.5674
102.9063, 201.3108
103.3884, 205.4676
103.8705, 219.9755
104.3527, 246.8999
104.8348, 278.1315
105.3169, 311.1303
105.7990, 347.1811
106.2811, 398.4547
106.7632, 467.1354
107.2454, 548.3847
107.7275, 637.2698
108.2096, 732.7141
108.6917, 839.5761
109.1738, 967.2399
109.6559, 1121.914
110.1381, 1249.618
110.6202, 1352.254
111.1023, 1427.719
111.5844, 1474.462
112.0665, 1454.080
112.5486, 1441.759
113.0308, 1457.115
113.5129, 1508.778
113.9950, 1558.895
114.4771, 1592.082
114.9592, 1622.443
115.4413, 1670.986
115.9235, 1754.992
116.4056, 1848.989
116.8877, 1941.097
117.3698, 2031.499
117.8519, 2119.552
118.3340, 2202.098
118.8162, 2281.910
119.2983, 2365.237
119.7804, 2460.853
120.2625, 2559.070
120.7446, 2648.529
121.2267, 2708.728
121.7089, 2786.083
122.1910, 2912.027
122.6731, 3081.447
123.1552, 3270.451
123.6373, 3438.971
124.1194, 3624.407
124.6016, 3876.660
125.0837, 4198.544
125.5658, 4599.225
126.0479, 5063.667
126.5300, 5594.923
127.0121, 6261.237
127.4943, 7177.376
127.9764, 8272.959
128.4585, 9411.081
128.9406, 10755.62
129.4227, 12049.94
129.9048, 12829.31
130.3869, 13087.13
130.8691, 12882.15
131.3512, 12092.15
131.8333, 10765.28
132.3154, 9391.850
132.7975, 8216.165
133.2796, 7236.001
133.7618, 6456.958
134.2439, 5879.600
134.7260, 5459.554
135.2081, 5152.488
135.6902, 4955.194
136.1723, 4833.346
136.6545, 4780.721
137.1366, 4796.744
137.6187, 4836.402
138.1008, 4896.990
138.5829, 4978.846
139.0650, 5086.443
139.5472, 5222.066
140.0293, 5374.665
140.5114, 5534.553
140.9935, 5696.905
141.4756, 5891.021
141.9577, 6114.288
142.4399, 6373.158
142.9220, 6688.675
143.4041, 7054.627
143.8862, 7488.295
144.3683, 8005.945
144.8504, 8597.265
145.3326, 9288.088
145.8147, 10090.63
146.2968, 11008.73
146.7789, 11925.47
147.2610, 12975.43
147.7431, 13916.11
148.2253, 14568.44
148.7074, 15007.88
149.1895, 15055.55
149.6716, 14631.85
150.1537, 13707.21
150.6358, 12640.22
151.1180, 11300.35
151.6001, 9878.352
152.0822, 8592.626
152.5643, 7432.345
153.0464, 6409.804
153.5285, 5541.270
154.0107, 4850.978
154.4928, 4248.967
154.9749, 3738.099
155.4570, 3305.114
155.9391, 2931.404
156.4212, 2629.294
156.9034, 2367.659
157.3855, 2135.596
157.8676, 1934.102
158.3497, 1763.360
158.8318, 1631.730
159.3139, 1528.733
159.7961, 1435.348
160.2782, 1345.781
160.7603, 1265.177
161.2424, 1196.326
161.7245, 1141.271
162.2066, 1093.956
162.6888, 1056.667
163.1709, 1025.798
163.6530, 993.4136
164.1351, 950.5408
164.6172, 908.7155
165.0993, 875.7680
165.5815, 855.5657
166.0636, 840.1443
166.5457, 827.0959
167.0278, 815.8636
167.5099, 804.7617
167.9920, 791.1758
168.4742, 778.1453
168.9563, 768.3708
169.4384, 762.7582
169.9205, 760.2264
170.4026, 763.3275
170.8847, 770.1807
171.3669, 772.6500
171.8490, 759.6610
172.3311, 741.5433
172.8132, 731.3500
173.2953, 740.4224
173.7774, 750.9180
174.2596, 742.8611
174.7417, 718.7765
175.2238, 696.8187
175.7059, 692.6136
176.1880, 698.9511
176.6701, 704.4107
177.1523, 704.6312
177.6344, 702.6268
178.1165, 702.3094
178.5986, 703.5670
179.0807, 704.2945
179.5628, 701.5975
180.0450, 696.9744
180.5271, 693.8608
181.0092, 691.8661
181.4913, 692.7678
181.9734, 700.3911
182.4555, 714.8337
182.9377, 732.2458
183.4198, 749.3998
183.9019, 766.7219
184.3840, 785.1129
184.8661, 799.5486
185.3482, 816.2737
185.8304, 854.2584
186.3125, 915.1513
186.7946, 982.0853
187.2767, 1037.029
187.7588, 1081.925
188.2409, 1125.107
188.7231, 1182.173
189.2052, 1241.830
189.6873, 1259.278
190.1694, 1230.479
190.6515, 1180.302
191.1336, 1134.766
191.6158, 1093.878
192.0979, 1058.028
192.5800, 1024.045
193.0621, 993.7516
193.5442, 980.2533
194.0263, 985.8893
194.5085, 1000.654
194.9906, 1011.566
195.4727, 1018.652
195.9548, 1023.735
196.4369, 1025.665
196.9190, 1024.877
197.4012, 1029.807
197.8833, 1041.794
198.3654, 1056.444
198.8475, 1063.063
199.3296, 1060.097
199.8117, 1065.964
200.2939, 1091.757
200.7760, 1137.584
201.2581, 1181.969
201.7402, 1224.118
202.2223, 1265.351
202.7044, 1304.950
203.1866, 1340.232
203.6687, 1386.645
204.1508, 1451.650
204.6329, 1536.017
205.1150, 1631.371
205.5971, 1739.918
206.0793, 1856.610
206.5614, 1971.624
207.0435, 2082.436
207.5256, 2197.200
208.0077, 2331.006
208.4898, 2495.269
208.9720, 2608.293
209.4541, 2671.422
209.9362, 2681.043
210.4183, 2622.016
210.9004, 2481.345
211.3825, 2310.842
211.8647, 2124.521
212.3468, 1914.416
212.8289, 1725.114
213.3110, 1559.278
213.7931, 1412.301
214.2752, 1275.584
214.7574, 1145.220
215.2395, 1031.682
215.7216, 940.3448
216.2037, 876.7433
216.6858, 818.1497
217.1679, 764.8514
217.6500, 716.0536
218.1322, 670.0577
218.6143, 624.4568
219.0964, 585.6750
219.5785, 558.1441
220.0606, 544.4237
220.5427, 532.4708
221.0249, 521.8430
221.5070, 513.1804
221.9891, 509.5966
222.4712, 515.8806
222.9533, 518.2222
223.4354, 508.8076
223.9176, 480.3499
224.3997, 461.3220
224.8818, 455.9538
225.3639, 457.9841
225.8460, 451.7051
226.3281, 430.9118
226.8103, 412.5309
227.2924, 405.1657
227.7745, 414.4355
228.2566, 418.9380
228.7387, 416.5132
229.2208, 410.2341
229.7030, 407.3008
230.1851, 408.8031
230.6672, 411.8609
231.1493, 415.8864
231.6314, 422.5952
232.1135, 425.2353
232.5957, 421.2403
233.0778, 414.2933
233.5599, 413.0888
234.0420, 421.8344
234.5241, 429.4852
235.0062, 430.6284
235.4884, 420.7917
235.9705, 417.6443
236.4526, 423.8593
236.9347, 435.5769
237.4168, 444.9620
237.8989, 451.2935
238.3811, 456.3917
238.8632, 460.3690
239.3453, 461.8998
239.8274, 466.6943
240.3095, 477.0670
240.7916, 489.5331
241.2738, 497.5779
241.7559, 500.2711
242.2380, 499.9652
242.7201, 495.5194
243.2022, 482.2802
243.6843, 481.6280
244.1665, 499.9840
244.6486, 527.1232
245.1307, 544.9838
245.6128, 548.4088
246.0949, 551.2211
246.5770, 558.1198
247.0592, 570.6052
247.5413, 581.0038
248.0234, 587.6219
248.5055, 593.2353
248.9876, 602.4953
249.4697, 618.5813
249.9519, 632.4803
250.4340, 639.9874
250.9161, 638.4607
251.3982, 645.2369
251.8803, 665.2207
252.3624, 689.4839
252.8446, 704.8423
253.3267, 707.0357
253.8088, 708.7448
254.2909, 711.0549
254.7730, 712.4184
255.2551, 728.2449
255.7373, 763.2825
256.2194, 807.9409
256.7015, 849.6150
257.1836, 885.2427
257.6657, 925.1185
258.1478, 971.7435
258.6299, 1024.768
259.1121, 1082.950
259.5942, 1146.713
260.0763, 1215.208
260.5584, 1290.779
261.0405, 1376.121
261.5226, 1459.610
262.0048, 1538.798
262.4869, 1613.083
262.9690, 1687.278
263.4511, 1762.553
263.9332, 1835.249
264.4153, 1900.475
264.8975, 1955.585
265.3796, 2012.894
265.8617, 2074.720
266.3438, 2140.604
266.8259, 2211.397
267.3080, 2285.741
267.7902, 2366.843
268.2723, 2457.489
268.7544, 2562.978
269.2365, 2662.050
269.7186, 2747.000
270.2007, 2823.117
270.6829, 2914.234
271.1650, 3019.423
271.6471, 3141.641
272.1292, 3280.376
272.6113, 3435.433
273.0934, 3607.703
273.5756, 3795.629
274.0577, 3999.393
274.5398, 4224.799
275.0219, 4471.202
275.5040, 4737.357
275.9861, 5025.240
276.4683, 5336.453
276.9504, 5660.721
277.4325, 6012.063
277.9146, 6362.389
278.3967, 6649.466
278.8788, 6875.331
279.3610, 7025.661
279.8431, 7103.155
280.3252, 7109.626
280.8073, 6977.882
281.2894, 6688.497
281.7715, 6284.535
282.2537, 5827.833
282.7358, 5313.520
283.2179, 4795.545
283.7000, 4285.105
284.1821, 3782.261
284.6642, 3338.595
285.1464, 2953.414
285.6285, 2624.142
286.1106, 2356.856
286.5927, 2151.680
287.0748, 1971.853
287.5569, 1802.956
288.0391, 1645.316
288.5212, 1506.777
289.0033, 1386.923
289.4854, 1284.351
289.9675, 1201.058
290.4496, 1135.743
290.9318, 1076.943
291.4139, 1017.715
291.8960, 961.3213
292.3781, 922.4456
292.8602, 901.9730
293.3423, 886.9946
293.8245, 864.5350
294.3066, 835.9813
294.7887, 807.5870
295.2708, 780.9139
295.7529, 756.1324
296.2350, 734.0627
296.7172, 714.7939
297.1993, 697.2253
297.6814, 676.9850
298.1635, 657.1697
298.6456, 647.5825
299.1277, 653.4015
299.6099, 667.0454
300.0920, 677.8087
300.5741, 686.0826
301.0562, 693.4664
301.5383, 696.1658
302.0204, 699.5807
302.5026, 714.3097
302.9847, 744.2682
303.4668, 782.2861
303.9489, 823.6019
304.4310, 866.8130
304.9131, 909.7968
305.3953, 955.3367
305.8774, 997.9788
306.3595, 1028.557
306.8416, 1043.930
307.3237, 1054.527
307.8058, 1066.468
308.2880, 1080.220
308.7701, 1096.780
309.2522, 1118.613
309.7343, 1142.524
310.2164, 1163.485
310.6985, 1180.334
311.1807, 1203.623
311.6628, 1245.240
312.1449, 1297.509
312.6270, 1347.416
313.1091, 1387.074
313.5912, 1425.158
314.0734, 1463.490
314.5555, 1502.252
315.0376, 1553.826
315.5197, 1625.604
316.0018, 1713.628
316.4839, 1811.843
316.9661, 1908.078
317.4482, 2024.580
317.9303, 2171.179
318.4124, 2346.012
318.8945, 2542.995
319.3766, 2765.431
319.8588, 3005.322
320.3409, 3255.957
320.8230, 3544.404
321.3051, 3808.846
321.7872, 4066.267
322.2693, 4292.831
322.7515, 4415.717
323.2336, 4439.563
323.7157, 4339.204
324.1978, 4086.651
324.6799, 3600.914
325.1620, 3122.570
325.6442, 2653.109
326.1263, 2215.090
326.6084, 1848.498
327.0905, 1573.578
327.5726, 1355.593
328.0547, 1190.264
328.5369, 1091.083
329.0190, 1005.053
329.5011, 934.7474
329.9832, 876.2056
330.4653, 825.3348
330.9474, 780.8518
331.4296, 745.7546
331.9117, 723.5673
332.3938, 715.2173
332.8759, 702.1919
333.3580, 680.2065
333.8401, 657.4237
334.3223, 640.2891
334.8044, 628.9415
335.2865, 622.8547
335.7686, 623.3464
336.2507, 629.3226
336.7328, 634.7453
337.2150, 639.2530
337.6971, 643.9081
338.1792, 650.6273
338.6613, 661.5877
339.1434, 664.3109
339.6255, 653.6436
340.1077, 637.8962
340.5898, 637.9573
341.0719, 657.6107
341.5540, 677.2371
342.0361, 685.3198
342.5182, 681.1763
343.0003, 685.8873
343.4825, 700.9171
343.9646, 721.3075
344.4467, 741.2974
344.9288, 760.6782
345.4109, 777.4867
345.8930, 789.0538
346.3752, 797.4199
346.8573, 810.4168
347.3394, 828.3118
347.8215, 849.5533
348.3036, 871.5496
348.7857, 895.1800
349.2679, 925.5240
349.7500, 966.6578
350.2321, 1012.219
350.7142, 1049.412
351.1963, 1078.746
351.6784, 1106.900
352.1606, 1137.930
352.6427, 1170.891
353.1248, 1203.687
353.6069, 1235.118
354.0890, 1269.715
354.5711, 1312.741
355.0533, 1362.905
355.5354, 1417.526
356.0175, 1479.505
356.4996, 1542.354
356.9817, 1599.207
357.4638, 1648.973
357.9460, 1697.902
358.4281, 1746.120
358.9102, 1797.340
359.3923, 1856.194
359.8744, 1926.857
360.3565, 2004.228
360.8387, 2087.638
361.3208, 2176.605
361.8029, 2261.834
362.2850, 2334.732
362.7671, 2404.287
363.2492, 2477.684
363.7314, 2552.685
364.2135, 2636.971
364.6956, 2743.749
365.1777, 2863.394
365.6598, 2964.576
366.1419, 3017.993
366.6241, 3068.147
367.1062, 3138.065
367.5883, 3245.415
368.0704, 3338.906
368.5525, 3407.258
369.0346, 3459.611
369.5168, 3511.328
369.9989, 3568.511
370.4810, 3619.358
370.9631, 3662.292
371.4452, 3697.502
371.9273, 3723.381
372.4095, 3743.440
372.8916, 3750.875
373.3737, 3739.135
373.8558, 3702.339
374.3379, 3658.082
374.8200, 3609.685
375.3022, 3555.461
375.7843, 3487.661
376.2664, 3404.526
376.7485, 3310.189
377.2306, 3207.181
377.7127, 3095.184
378.1949, 2971.874
378.6770, 2834.221
379.1591, 2690.659
379.6412, 2562.115
380.1233, 2449.124
380.6054, 2335.288
381.0876, 2211.383
381.5697, 2080.009
382.0518, 1953.628
382.5339, 1833.160
383.0160, 1718.224
383.4981, 1607.156
383.9803, 1500.860
384.4624, 1411.036
384.9445, 1346.663
385.4266, 1295.356
385.9087, 1230.090
386.3908, 1153.270
386.8730, 1086.798
387.3551, 1050.463
387.8372, 1033.619
388.3193, 1018.712
388.8014, 1003.860
389.2835, 987.0633
389.7657, 962.4327
390.2478, 934.0779
390.7299, 912.1653
391.2120, 908.6779
391.6941, 909.0692
392.1762, 901.2283
392.6584, 884.0813
393.1405, 865.3350
393.6226, 849.2651
394.1047, 833.6670
394.5868, 816.3953
395.0689, 796.3006
395.5511, 774.8820
396.0332, 752.8479
396.5153, 730.0352
396.9974, 705.5387
397.4795, 675.7394
397.9616, 646.6433
398.4438, 621.5906
398.9259, 602.7516
399.4080, 584.7449
399.8901, 567.6685
400.3722, 550.9918
400.8543, 533.8770
401.3365, 513.3830
401.8186, 495.8166
402.3007, 483.9507
402.7828, 478.8222
403.2649, 469.8015
403.7470, 453.5502
404.2292, 436.9361
404.7113, 426.5662
405.1934, 424.1996
405.6755, 422.7079
406.1576, 421.1089
406.6397, 419.6871
407.1219, 420.5804
407.6040, 425.1340
408.0861, 426.7482
408.5682, 419.4375
409.0503, 403.5228
409.5324, 391.9883
410.0146, 385.5331
410.4967, 383.0292
410.9788, 384.9615
411.4609, 390.6599
411.9430, 393.6612
412.4251, 389.1416
412.9073, 381.1561
413.3894, 379.0342
413.8715, 382.6809
414.3536, 387.5873
414.8357, 392.0405
415.3178, 394.9160
415.8000, 393.5400
416.2821, 385.7237
416.7642, 376.6485
417.2463, 370.4942
417.7284, 366.9039
418.2105, 365.1110
418.6927, 366.4810
419.1748, 368.2696
419.6569, 367.7958
420.1390, 364.4242
420.6211, 362.3949
421.1032, 366.4078
421.5854, 371.7094
422.0675, 373.1716
422.5496, 360.9473
423.0317, 353.5140
423.5138, 360.0730
423.9959, 377.9201
424.4781, 390.0219
424.9602, 389.4315
425.4423, 385.4736
425.9244, 382.1308
426.4065, 377.6101
426.8886, 377.4504
427.3708, 384.3197
427.8529, 394.4254
428.3350, 401.9017
428.8171, 405.7590
429.2992, 408.6196
429.7813, 410.0034
430.2635, 410.0694
430.7456, 416.5955
431.2277, 432.9740
431.7098, 448.3099
432.1919, 451.0722
432.6740, 439.6979
433.1562, 436.2932
433.6383, 445.7040
434.1204, 461.2682
434.6025, 468.5337
435.0846, 467.7250
435.5667, 468.4269
436.0489, 477.8748
436.5310, 492.7874
437.0131, 501.6747
437.4952, 503.9331
437.9773, 506.5446
438.4594, 516.8777
438.9415, 532.5312
439.4236, 548.3663
439.9058, 562.1560
440.3879, 576.3467
440.8700, 596.5381
441.3521, 620.1343
441.8342, 637.9536
442.3163, 638.2061
442.7985, 635.0391
443.2806, 638.9366
443.7627, 651.6331
444.2448, 669.8620
444.7269, 694.0331
445.2090, 722.2407
445.6912, 752.1364
446.1733, 787.2746
446.6554, 819.8857
447.1375, 843.6993
447.6196, 860.2366
448.1017, 886.3422
448.5839, 926.8796
449.0660, 974.0093
449.5481, 1024.786
450.0302, 1086.408
450.5123, 1136.233
450.9944, 1163.788
451.4766, 1186.173
451.9587, 1232.933
452.4408, 1313.237
452.9229, 1393.541
453.4050, 1465.646
453.8871, 1530.091
454.3693, 1596.253
454.8514, 1664.627
455.3335, 1733.594
455.8156, 1800.943
456.2977, 1867.268
456.7798, 1941.620
457.2620, 2027.761
457.7441, 2117.337
458.2262, 2196.817
458.7083, 2268.495
459.1904, 2346.605
459.6725, 2438.131
460.1547, 2539.460
460.6368, 2643.479
461.1189, 2751.248
461.6010, 2869.923
462.0831, 3007.367
462.5652, 3157.973
463.0474, 3313.713
463.5295, 3477.510
464.0116, 3641.558
464.4937, 3796.675
464.9758, 3949.261
465.4579, 4107.854
465.9401, 4280.265
466.4222, 4455.148
466.9043, 4630.739
467.3864, 4809.274
467.8685, 4970.398
468.3506, 5113.641
468.8328, 5237.335
469.3149, 5341.488
469.7970, 5439.821
470.2791, 5495.936
470.7612, 5505.675
471.2433, 5471.587
471.7255, 5396.687
472.2076, 5270.789
472.6897, 5129.014
473.1718, 4981.155
473.6539, 4827.793
474.1360, 4662.224
474.6182, 4479.099
475.1003, 4303.362
475.5824, 4162.269
476.0645, 4052.979
476.5466, 3954.110
477.0287, 3858.527
477.5109, 3774.677
477.9930, 3719.602
478.4751, 3689.936
478.9572, 3669.659
479.4393, 3654.961
479.9214, 3641.940
480.4036, 3626.064
480.8857, 3606.983
481.3678, 3585.817
481.8499, 3572.890
482.3320, 3554.310
482.8141, 3514.687
483.2963, 3444.070
483.7784, 3358.554
484.2605, 3260.950
484.7426, 3153.407
485.2247, 3041.660
485.7068, 2931.011
486.1890, 2814.272
486.6711, 2687.039
487.1532, 2546.176
487.6353, 2408.318
488.1174, 2273.193
488.5995, 2144.465
489.0817, 2025.752
489.5638, 1919.820
490.0459, 1819.996
490.5280, 1725.686
491.0101, 1637.284
491.4922, 1552.735
491.9744, 1470.643
492.4565, 1397.079
492.9386, 1335.512
493.4207, 1284.053
493.9028, 1231.648
494.3849, 1177.519
494.8671, 1125.858
495.3492, 1079.215
495.8313, 1037.626
496.3134, 1001.006
496.7955, 970.3542
497.2776, 942.4493
497.7598, 914.0309
498.2419, 885.7996
498.7240, 860.3244
499.2061, 842.3466
499.6882, 824.5965
500.1703, 800.1888
500.6525, 769.0884
501.1346, 740.8227
501.6167, 716.3829
502.0988, 697.6680
502.5809, 686.4482
503.0630, 688.9622
503.5452, 689.5369
504.0273, 686.5203
504.5094, 680.2864
504.9915, 671.2119
505.4736, 655.6641
505.9557, 642.8250
506.4379, 636.3677
506.9200, 635.7348
507.4021, 630.8059
507.8842, 620.9843
508.3663, 608.0234
508.8484, 590.5498
509.3306, 568.3141
509.8127, 554.5045
510.2948, 551.0919
510.7769, 553.1583
511.2590, 556.0135
511.7411, 559.0030
512.2233, 558.1263
512.7054, 548.7698
513.1875, 537.4083
513.6696, 534.7000
514.1517, 539.2789
514.6339, 543.5991
515.1160, 543.2473
515.5981, 540.1780
516.0802, 536.2762
516.5623, 531.9435
517.0444, 525.9894
517.5266, 512.8854
518.0087, 499.8789
518.4908, 494.8752
518.9729, 511.8721
519.4550, 523.4622
519.9371, 520.4207
520.4193, 506.4471
520.9014, 497.9555
521.3835, 497.4536
521.8656, 499.2088
522.3477, 502.5036
522.8298, 508.3103
523.3120, 506.6011
523.7941, 494.4345
524.2762, 480.8501
524.7583, 475.0259
525.2404, 477.2266
525.7225, 479.9481
526.2047, 483.1410
526.6868, 484.3536
527.1689, 475.6346
527.6510, 459.1140
528.1331, 448.0322
528.6152, 453.3383
529.0974, 465.6404
529.5795, 471.6642
530.0616, 471.7338
530.5437, 470.5480
531.0258, 473.3459
531.5079, 475.2602
531.9901, 470.5666
532.4722, 454.8396
532.9543, 441.8175
533.4364, 436.1719
533.9185, 436.4847
534.4006, 440.7280
534.8828, 455.6300
535.3649, 466.5616
535.8470, 467.7337
536.3291, 461.4579
536.8112, 460.9142
537.2933, 470.1242
537.7755, 478.7350
538.2576, 481.0110
538.7397, 475.6360
539.2218, 475.4759
539.7039, 481.9893
540.1860, 489.6957
540.6682, 492.1356
541.1503, 489.7661
541.6324, 487.6237
542.1145, 486.6618
542.5966, 486.5047
543.0787, 486.6237
543.5609, 487.0567
544.0430, 487.9380
544.5251, 490.2946
545.0072, 492.5324
545.4893, 492.2957
545.9714, 489.8038
546.4536, 488.4189
546.9357, 490.5934
547.4178, 494.1674
547.8999, 497.9973
548.3820, 503.4978
548.8641, 505.4664
549.3463, 499.2207
549.8284, 490.1602
550.3105, 485.2878
550.7926, 485.2963
551.2747, 488.8008
551.7568, 497.4971
552.2390, 509.5585
552.7211, 517.1571
553.2032, 519.4131
553.6853, 519.9176
554.1674, 519.1475
554.6495, 517.4277
555.1317, 520.9041
555.6138, 530.1501
556.0959, 539.6889
556.5780, 544.3344
557.0601, 545.1301
557.5422, 544.0168
558.0244, 539.9492
558.5065, 538.0845
558.9886, 547.3378
559.4707, 562.4244
559.9528, 572.5608
560.4349, 568.8309
560.9171, 563.0134
561.3992, 560.2813
561.8813, 560.7014
562.3634, 563.6140
562.8455, 571.1330
563.3276, 579.2123
563.8098, 586.7817
564.2919, 595.4593
564.7740, 597.5235
565.2561, 589.5370
565.7382, 578.3405
566.2203, 569.2340
566.7025, 561.0514
567.1846, 560.8237
567.6667, 572.0295
568.1488, 588.0898
568.6309, 595.5240
569.1130, 594.6194
569.5952, 590.2021
570.0773, 580.3817
570.5594, 570.4037
571.0415, 572.0411
571.5236, 584.1718
572.0057, 596.2172
572.4879, 602.4906
572.9700, 604.3007
573.4521, 602.1257
573.9342, 595.2552
574.4163, 588.7701
574.8984, 584.2765
575.3806, 581.6711
575.8627, 580.8104
576.3448, 581.9333
576.8269, 584.5438
577.3090, 590.0754
577.7911, 596.8245
578.2733, 600.9164
578.7554, 601.2378
579.2375, 600.9033
579.7196, 600.4817
580.2017, 600.0927
580.6838, 600.5970
581.1660, 601.8123
581.6481, 604.9428
582.1302, 612.8849
582.6123, 623.8704
583.0944, 629.7665
583.5765, 629.6702
584.0587, 627.8343
584.5408, 627.7100
585.0229, 628.9257
585.5050, 630.9208
585.9871, 633.9747
586.4692, 637.0748
586.9513, 638.6704
587.4334, 639.9528
587.9155, 643.3630
588.3976, 653.3997
588.8798, 661.9753
589.3619, 665.2411
589.8440, 663.2008
590.3261, 663.5084
590.8082, 665.7047
591.2903, 670.8304
591.7725, 680.2972
592.2546, 695.3220
592.7367, 707.6867
593.2188, 717.4515
593.7009, 724.3901
594.1830, 726.5386
594.6652, 724.7166
595.1473, 725.4896
595.6294, 730.0248
596.1115, 737.7993
596.5936, 751.1068
597.0757, 767.3423
597.5579, 779.6837
598.0400, 780.0566
598.5221, 779.1604
599.0042, 786.0322
599.4863, 798.9168
599.9684, 808.8699
600.4506, 808.3785
600.9327, 807.5093
601.4148, 811.3204
601.8969, 821.1861
602.3790, 831.6113
602.8611, 841.7362
603.3433, 853.3037
603.8254, 868.7708
604.3075, 891.0644
604.7896, 905.2905
605.2717, 908.2051
605.7538, 907.1548
606.2360, 915.4465
606.7181, 932.0607
607.2002, 943.8969
607.6823, 943.9868
608.1644, 940.9410
608.6465, 950.1031
609.1287, 968.6010
609.6108, 985.2074
610.0929, 992.6440
610.5750, 996.5128
611.0571, 1000.278
611.5392, 1004.178
612.0214, 1009.168
612.5035, 1014.111
612.9856, 1021.329
613.4677, 1033.339
613.9498, 1055.174
614.4319, 1069.457
614.9141, 1072.369
615.3962, 1071.359
615.8783, 1074.156
616.3604, 1081.421
616.8425, 1089.560
617.3246, 1097.841
617.8068, 1107.126
618.2889, 1119.426
618.7710, 1134.429
619.2531, 1149.232
619.7352, 1165.181
620.2173, 1178.545
620.6995, 1180.442
621.1816, 1173.461
621.6637, 1170.283
622.1458, 1185.529
622.6279, 1201.662
623.1100, 1202.935
623.5922, 1186.359
624.0743, 1177.321
624.5564, 1185.321
625.0385, 1201.345
625.5206, 1219.674
626.0027, 1243.269
626.4849, 1262.086
626.9670, 1273.156
627.4491, 1282.898
627.9312, 1302.952
628.4133, 1335.776
628.8954, 1354.020
629.3776, 1346.134
629.8597, 1330.372
630.3418, 1344.485
630.8239, 1382.618
631.3060, 1416.886
631.7881, 1428.250
632.2703, 1432.749
632.7524, 1447.884
633.2345, 1471.906
633.7166, 1496.285
634.1987, 1513.515
634.6808, 1532.221
635.1630, 1559.218
635.6451, 1597.199
636.1272, 1629.526
636.6093, 1649.004
637.0914, 1666.828
637.5735, 1688.592
638.0557, 1712.462
638.5378, 1747.409
639.0199, 1796.012
639.5020, 1851.590
639.9841, 1906.408
640.4662, 1960.084
640.9484, 2014.059
641.4305, 2068.021
641.9126, 2122.520
642.3947, 2177.772
642.8768, 2234.306
643.3589, 2295.078
643.8411, 2360.183
644.3232, 2430.916
644.8053, 2510.817
645.2874, 2597.551
645.7695, 2686.994
646.2516, 2773.730
646.7338, 2865.651
647.2159, 2964.018
647.6980, 3068.876
648.1801, 3187.394
648.6622, 3329.837
649.1443, 3472.373
649.6265, 3594.843
650.1086, 3695.550
650.5907, 3820.860
651.0728, 3975.493
651.5549, 4147.223
652.0370, 4324.706
652.5192, 4510.163
653.0013, 4700.745
653.4834, 4895.186
653.9655, 5099.319
654.4476, 5324.284
654.9297, 5558.413
655.4119, 5785.481
655.8940, 5981.969
656.3761, 6187.172
656.8582, 6413.688
657.3403, 6657.805
657.8224, 6908.098
658.3046, 7158.328
658.7867, 7419.399
659.2688, 7694.657
659.7509, 7983.456
660.2330, 8282.214
660.7151, 8591.971
661.1973, 8904.961
661.6794, 9220.861
662.1615, 9536.190
662.6436, 9833.197
663.1257, 10110.95
663.6078, 10392.85
664.0900, 10698.70
664.5721, 11019.28
665.0542, 11353.52
665.5363, 11709.91
666.0184, 12046.65
666.5005, 12349.58
666.9827, 12622.41
667.4648, 12868.97
667.9469, 13093.87
668.4290, 13287.26
668.9111, 13457.35
669.3932, 13592.55
669.8754, 13667.48
670.3575, 13677.16
670.8396, 13654.97
671.3217, 13608.97
671.8038, 13536.21
672.2859, 13414.31
672.7681, 13252.71
673.2502, 13100.30
673.7323, 12987.26
674.2144, 12893.71
674.6965, 12791.76
675.1786, 12686.42
675.6608, 12609.85
676.1429, 12577.94
676.6250, 12579.90
677.1071, 12617.99
677.5892, 12699.37
678.0714, 12768.28
678.5535, 12798.16
679.0356, 12842.82
679.5177, 12937.06
679.9998, 13091.04
680.4819, 13251.06
680.9641, 13420.35
681.4462, 13590.88
681.9283, 13746.55
682.4104, 13896.93
682.8925, 14083.67
683.3746, 14328.15
683.8568, 14570.00
684.3389, 14748.77
684.8210, 14891.19
685.3031, 15042.65
685.7852, 15220.45
686.2673, 15405.36
686.7495, 15603.14
687.2316, 15803.35
687.7137, 15983.08
688.1958, 16123.11
688.6779, 16273.16
689.1600, 16464.46
689.6422, 16670.20
690.1243, 16773.83
690.6064, 16763.90
691.0885, 16747.24
691.5706, 16790.32
692.0527, 16857.55
692.5349, 16868.19
693.0170, 16822.51
693.4991, 16724.59
693.9812, 16555.42
694.4633, 16349.96
694.9454, 16147.83
695.4276, 15955.19
695.9097, 15718.84
696.3918, 15408.44
696.8739, 15059.75
697.3560, 14687.43
697.8381, 14288.45
698.3203, 13887.87
698.8024, 13493.40
699.2845, 13083.03
699.7666, 12634.32
700.2487, 12145.79
700.7308, 11662.11
701.2130, 11187.47
701.6951, 10721.12
702.1772, 10249.04
702.6593, 9784.193
703.1414, 9366.813
703.6235, 9025.445
704.1057, 8692.752
704.5878, 8311.355
705.0699, 7913.762
705.5520, 7552.323
706.0341, 7263.174
706.5162, 6984.212
706.9984, 6703.095
707.4805, 6423.191
707.9626, 6142.593
708.4447, 5854.763
708.9268, 5588.094
709.4089, 5358.578
709.8911, 5154.624
710.3732, 4945.780
710.8553, 4731.970
711.3374, 4522.248
711.8195, 4316.171
712.3016, 4120.351
712.7838, 3942.874
713.2659, 3784.719
713.7480, 3640.266
714.2301, 3515.790
714.7122, 3397.469
715.1943, 3273.653
715.6765, 3141.130
716.1586, 3022.240
716.6407, 2920.265
717.1228, 2826.192
717.6049, 2733.705
718.0870, 2642.022
718.5692, 2556.809
719.0513, 2478.082
719.5334, 2405.934
720.0155, 2342.343
720.4976, 2284.724
720.9797, 2225.293
721.4619, 2163.067
721.9440, 2101.761
722.4261, 2044.144
722.9082, 1990.466
723.3903, 1940.738
723.8724, 1897.047
724.3546, 1854.668
724.8367, 1812.326
725.3188, 1771.797
725.8009, 1735.115
726.2830, 1703.845
726.7651, 1671.170
727.2473, 1634.803
727.7294, 1598.090
728.2115, 1566.784
728.6936, 1540.033
729.1757, 1514.316
729.6578, 1486.550
730.1400, 1462.360
730.6221, 1451.401
731.1042, 1447.812
731.5863, 1439.621
732.0684, 1420.000
732.5505, 1397.385
733.0327, 1368.468
733.5148, 1338.065
733.9969, 1325.398
734.4790, 1343.158
734.9611, 1353.601
735.4432, 1342.469
735.9254, 1316.658
736.4075, 1305.992
736.8896, 1310.435
737.3717, 1316.930
737.8538, 1316.046
738.3359, 1313.683
738.8181, 1321.295
739.3002, 1337.015
739.7823, 1349.475
740.2644, 1347.018
740.7465, 1343.978
741.2286, 1350.625
741.7108, 1368.236
742.1929, 1380.147
742.6750, 1379.875
743.1571, 1381.046
743.6392, 1390.913
744.1213, 1409.832
744.6035, 1425.239
745.0856, 1435.706
745.5677, 1452.297
746.0498, 1487.140
746.5319, 1533.741
747.0140, 1578.532
747.4962, 1620.594
747.9783, 1660.501
748.4604, 1696.725
748.9425, 1732.867
749.4246, 1769.850
749.9067, 1802.948
750.3889, 1852.014
750.8710, 1921.609
751.3531, 2005.718
751.8352, 2101.066
752.3173, 2208.036
752.7994, 2322.363
753.2816, 2440.250
753.7637, 2580.786
754.2458, 2759.212
754.7279, 2980.044
755.2100, 3259.236
755.6921, 3592.526
756.1743, 4004.995
756.6564, 4521.014
757.1385, 5122.495
757.6206, 5788.427
758.1027, 6583.078
758.5848, 7345.499
759.0670, 8076.109
759.5491, 8753.604
760.0312, 9351.601
760.5133, 9840.781
760.9954, 10342.20
761.4775, 10863.83
761.9597, 11420.64
762.4418, 12016.77
762.9239, 12667.57
763.4060, 13408.80
763.8881, 14231.29
764.3702, 15188.71
764.8524, 16253.52
765.3345, 17484.31
765.8166, 18971.17
766.2987, 20697.60
766.7808, 22759.47
767.2629, 25217.53
767.7451, 28003.40
768.2272, 31119.96
768.7093, 34633.10
769.1914, 38102.69
769.6735, 41415.96
770.1556, 44631.55
770.6378, 47965.73
771.1199, 51352.54
771.6020, 54495.61
772.0841, 57956.43
772.5662, 60401.01
773.0483, 60822.00
773.5305, 59276.93
774.0126, 55912.37
774.4947, 49483.77
774.9768, 42634.37
775.4589, 35664.08
775.9410, 28829.41
776.4232, 23184.35
776.9053, 18782.77
777.3874, 15247.13
777.8695, 12519.42
778.3516, 10472.00
778.8337, 8848.421
779.3159, 7620.932
779.7980, 6620.831
780.2801, 5827.431
780.7622, 5174.997
781.2443, 4644.930
781.7264, 4221.159
782.2086, 3853.166
782.6907, 3544.585
783.1728, 3270.752
783.6549, 3025.356
784.1370, 2808.469
784.6191, 2614.414
785.1012, 2445.250
785.5833, 2297.803
786.0654, 2176.221
786.5475, 2073.153
787.0297, 1967.848
787.5118, 1860.857
787.9939, 1765.570
788.4760, 1692.620
788.9581, 1629.287
789.4402, 1565.734
789.9224, 1502.186
790.4045, 1448.035
790.8866, 1412.102
791.3687, 1378.286
791.8508, 1343.531
792.3329, 1307.036
792.8151, 1261.760
793.2972, 1204.483
793.7793, 1155.766
794.2614, 1130.675
794.7435, 1120.928
795.2256, 1105.354
795.7078, 1085.282
796.1899, 1070.174
796.6720, 1064.302
797.1541, 1066.228
797.6362, 1077.472
798.1183, 1097.603
798.6005, 1116.103
799.0826, 1133.651
799.5647, 1146.901
800.0468, 1152.855
800.5289, 1152.582
801.0110, 1159.134
801.4932, 1173.084
801.9753, 1185.405
802.4574, 1185.616
802.9395, 1182.674
803.4216, 1191.104
803.9037, 1210.543
804.3859, 1236.627
804.8680, 1268.590
805.3501, 1305.025
805.8322, 1344.759
806.3143, 1387.857
806.7964, 1437.066
807.2786, 1483.110
807.7607, 1552.017
808.2428, 1659.315
808.7249, 1799.723
809.2070, 1943.284
809.6891, 2089.929
810.1713, 2238.735
810.6534, 2389.532
811.1355, 2540.113
811.6176, 2695.088
812.0997, 2850.770
812.5818, 2982.095
813.0640, 3124.015
813.5461, 3195.225
814.0282, 3161.146
814.5103, 3025.135
814.9924, 2793.679
815.4745, 2436.619
815.9567, 2078.083
816.4388, 1764.630
816.9209, 1495.630
817.4030, 1271.726
817.8851, 1091.143
818.3672, 946.9551
818.8494, 846.0300
819.3315, 770.1779
819.8136, 710.1795
820.2957, 664.4426
820.7778, 627.6331
821.2599, 604.4000
821.7421, 582.7756
822.2242, 558.6026
822.7063, 533.2825
823.1884, 517.9657
823.6705, 513.5765
824.1526, 508.2422
824.6348, 493.4898
825.1169, 475.7294
825.5990, 466.2485
826.0811, 463.6436
826.5632, 461.8236
827.0453, 461.2744
827.5275, 457.4662
828.0096, 444.2100
828.4917, 424.4696
828.9738, 415.3424
829.4559, 423.4597
829.9380, 427.8914
830.4202, 420.4290
830.9023, 406.2962
831.3844, 402.3307
831.8665, 407.1328
832.3486, 409.8342
832.8307, 403.0168
833.3129, 393.8444
833.7950, 389.8053
834.2771, 388.8195
834.7592, 385.5357
835.2413, 374.0818
835.7234, 365.2043
836.2056, 361.1087
836.6877, 361.1167
837.1698, 365.0305
837.6519, 373.8938
838.1340, 377.8691
838.6161, 371.9017
839.0983, 363.2470
839.5804, 366.4081
840.0625, 377.0713
840.5446, 383.9160
841.0267, 380.0098
841.5089, 374.0239
841.9910, 368.2456
842.4731, 363.5718
842.9552, 362.0881
843.4373, 367.2000
843.9194, 368.1477
844.4016, 361.9104
844.8837, 353.1768
845.3658, 350.5834
845.8479, 353.2483
846.3300, 356.1320
846.8121, 358.4410
847.2943, 359.3081
847.7764, 356.3401
848.2585, 351.9437
848.7406, 349.6042
849.2227, 353.0313
849.7048, 354.1022
850.1870, 349.2703
850.6691, 343.7112
851.1512, 343.3639
851.6333, 348.8773
852.1154, 355.2506
852.5975, 362.8065
853.0797, 367.3602
853.5618, 361.2044
854.0439, 349.4733
854.5260, 341.6251
855.0081, 340.2791
855.4902, 339.7225
855.9724, 336.4969
856.4545, 333.3998
856.9366, 333.6641
857.4187, 340.5051
857.9008, 339.4823
858.3829, 328.1119
858.8651, 315.2177
859.3472, 307.4596
859.8293, 304.6235
860.3114, 307.3963
860.7935, 315.8316
861.2756, 322.6522
861.7578, 319.6253
862.2399, 314.8786
862.7220, 316.7439
863.2041, 327.5021
863.6862, 330.7665
864.1683, 321.6856
864.6505, 310.4359
865.1326, 300.4861
865.6147, 292.1920
866.0968, 293.3820
866.5789, 304.0508
867.0610, 312.8712
867.5432, 308.3551
868.0253, 300.5866
868.5074, 303.5022
868.9895, 315.1018
869.4716, 321.9661
869.9537, 315.8468
870.4359, 307.9191
870.9180, 301.1564
871.4001, 295.8268
871.8822, 293.5768
872.3643, 294.7435
872.8464, 296.5661
873.3286, 298.4944
873.8107, 299.9201
874.2928, 299.4484
874.7749, 297.5459
875.2570, 295.5631
875.7391, 295.6565
876.2213, 294.0148
876.7034, 285.9911
877.1855, 275.7916
877.6676, 272.5066
878.1497, 278.3896
878.6318, 285.3954
879.1140, 293.4669
879.5961, 299.6744
880.0782, 296.2983
880.5603, 286.8299
881.0424, 283.9567
881.5245, 294.3605
882.0067, 302.6472
882.4888, 294.4702
882.9709, 280.0396
883.4530, 271.0354
883.9351, 271.7948
884.4172, 273.3003
884.8994, 275.3823
885.3815, 278.5012
885.8636, 284.2860
886.3457, 292.0006
886.8278, 296.3864
887.3099, 296.9807
887.7921, 294.1469
888.2742, 282.5517
888.7563, 271.2150
889.2384, 270.8380
889.7205, 284.4417
890.2026, 293.4911
890.6848, 294.5574
891.1669, 291.6059
891.6490, 284.5319
892.1311, 274.0565
892.6132, 272.9015
893.0953, 281.0677
893.5775, 287.9771
894.0596, 285.8261
894.5417, 279.3802
895.0238, 270.9946
895.5059, 262.2486
895.9880, 260.0198
896.4702, 274.6147
896.9523, 286.6724
897.4344, 290.2483
897.9165, 287.5051
898.3986, 284.8871
898.8807, 282.2233
899.3629, 282.6643
899.8450, 289.8951
900.3271, 296.1624
900.8092, 286.6513
901.2913, 268.5402
901.7734, 256.3997
902.2556, 257.7858
902.7377, 262.6351
903.2198, 271.8082
903.7019, 281.2018
904.1840, 285.6187
904.6661, 283.8821
905.1483, 283.8757
905.6304, 287.1650
906.1125, 289.1581
906.5946, 282.2854
907.0767, 271.0803
907.5588, 264.0700
908.0410, 263.1301
908.5231, 262.9825
909.0052, 260.9563
909.4873, 259.1708
909.9694, 259.8149
910.4515, 263.6945
910.9337, 261.5626
911.4158, 251.4360
911.8979, 244.1431
912.3800, 252.1259
912.8621, 266.6398
913.3442, 264.7293
913.8264, 249.4066
914.3085, 240.0659
914.7906, 255.8923
915.2727, 271.2136
915.7548, 272.4760
916.2369, 262.2613
916.7191, 251.1030
917.2012, 236.8730
917.6833, 230.9074
918.1654, 239.7065
918.6475, 253.9083
919.1296, 253.8755
919.6118, 244.4461
920.0939, 239.2129
920.5760, 247.2350
921.0581, 254.1025
921.5402, 251.6413
922.0223, 244.6531
922.5045, 239.7214
922.9866, 237.3843
923.4687, 235.9687
923.9508, 235.5085
924.4329, 235.5902
924.9150, 235.9199
925.3972, 236.3969
925.8793, 236.6525
926.3614, 236.6107
926.8435, 236.9938
927.3256, 238.1593
927.8077, 239.9558
928.2899, 243.0910
928.7720, 247.7982
929.2541, 248.5909
929.7362, 244.6085
930.2183, 239.5083
930.7004, 233.7081
931.1826, 228.8230
931.6647, 230.5437
932.1468, 237.4603
932.6289, 243.5261
933.1110, 246.9172
933.5931, 247.5008
934.0753, 243.3981
934.5574, 236.5325
935.0395, 231.9878
935.5216, 229.4476
936.0037, 230.8490
936.4858, 237.9803
936.9680, 245.9533
937.4501, 246.2755
937.9322, 241.6270
938.4143, 237.9191
938.8964, 236.0215
939.3785, 237.0621
939.8607, 247.3781
940.3428, 256.8864
940.8249, 255.3985
941.3070, 238.6382
941.7891, 229.3806
942.2712, 228.6751
942.7534, 231.4657
943.2355, 235.1566
943.7176, 239.0096
944.1997, 241.8466
944.6818, 243.5637
945.1639, 243.8634
945.6461, 240.2561
946.1282, 237.5215
946.6103, 238.9285
947.0924, 243.1495
947.5745, 244.9148
948.0566, 243.7088
948.5388, 243.3523
949.0209, 245.8586
949.5030, 248.4196
949.9851, 245.0611
950.4672, 238.5488
950.9493, 234.7159
951.4315, 235.5338
951.9136, 239.0488
952.3957, 246.7931
952.8778, 255.6308
953.3599, 263.4861
953.8420, 271.0153
954.3242, 271.6543
954.8063, 264.2855
955.2884, 256.0982
955.7705, 253.9801
956.2526, 254.9365
956.7347, 254.8649
957.2169, 253.4478
957.6990, 252.9244
958.1811, 255.7534
958.6632, 257.6761
959.1453, 256.5426
959.6274, 253.2087
960.1096, 252.3041
960.5917, 253.8258
961.0738, 256.0390
961.5559, 258.7096
962.0380, 261.0902
962.5201, 262.7345
963.0023, 263.4334
963.4844, 262.8411
963.9665, 259.5048
964.4486, 256.5400
964.9307, 252.9853
965.4128, 251.2983
965.8950, 256.1937
966.3771, 266.6393
966.8592, 272.0700
967.3413, 271.2536
967.8234, 268.5294
968.3055, 266.7255
968.7877, 265.1917
969.2698, 262.7564
969.7519, 259.1624
970.2340, 258.8046
970.7161, 263.0810
971.1982, 268.0606
971.6804, 272.4907
972.1625, 276.2774
972.6446, 279.1854
973.1267, 281.2657
973.6088, 282.8221
974.0909, 284.1650
974.5731, 284.8119
975.0552, 284.8966
975.5373, 283.9504
976.0194, 280.6062
976.5015, 271.7636
976.9836, 270.1598
977.4658, 278.6088
977.9479, 288.5921
978.4300, 287.8710
978.9121, 281.9619
979.3942, 284.2965
979.8763, 296.7216
980.3585, 306.0415
980.8406, 301.3374
981.3227, 295.7552
981.8048, 297.5753
982.2869, 305.6616
982.7690, 305.5362
983.2511, 295.9240
983.7332, 291.5619
984.2153, 303.5486
984.6974, 318.5152
985.1796, 315.7964
985.6617, 302.2996
986.1438, 292.1095
986.6259, 294.1500
987.1080, 294.1101
987.5901, 289.0910
988.0723, 282.2068
988.5544, 276.4426
989.0365, 271.8128
989.5186, 270.2506
990.0007, 272.1515
990.4828, 272.9145
990.9650, 267.4557
991.4471, 260.0220
991.9292, 252.9645
992.4113, 246.6957
992.8934, 246.9582
993.3755, 258.8808
993.8577, 266.7446
994.3398, 263.2917
994.8219, 253.6410
995.3040, 251.1304
995.7861, 254.1664
996.2682, 256.8420
996.7504, 256.4990
997.2325, 255.9380
997.7146, 257.3701
998.1967, 258.9729
998.6788, 258.6845
999.1609, 256.5050
999.6431, 251.3699
1000.125, 242.3009
1000.607, 235.2654
1001.089, 239.2567
1001.572, 247.2498
1002.054, 246.5238
1002.536, 237.3740
1003.018, 230.0992
1003.500, 229.4633
1003.982, 230.9603
1004.464, 234.3721
1004.946, 238.2589
1005.428, 237.1237
1005.911, 231.2292
1006.393, 227.5918
1006.875, 229.3217
1007.357, 231.0631
1007.839, 225.9629
1008.321, 218.6560
1008.803, 214.8436
1009.285, 217.2677
1009.768, 219.6324
1010.250, 222.2124
1010.732, 224.0772
1011.214, 224.0411
1011.696, 222.7474
1012.178, 222.4243
1012.660, 223.0445
1013.142, 224.3141
1013.624, 228.4198
1014.107, 230.6798
1014.589, 226.9271
1015.071, 219.9700
1015.553, 216.7625
1016.035, 218.4334
1016.517, 216.2286
1016.999, 207.4295
1017.481, 198.8418
1017.964, 200.1383
1018.446, 206.5217
1018.928, 211.5159
1019.410, 214.0499
1019.892, 214.9559
1020.374, 212.1610
1020.856, 210.8571
1021.338, 214.7443
1021.820, 222.1850
1022.303, 223.5886
1022.785, 219.5291
1023.267, 213.8820
1023.749, 205.9952
1024.231, 200.1114
1024.713, 200.7735
1025.195, 204.8289
1025.677, 206.5462
1026.160, 204.2276
1026.642, 203.9759
1027.124, 206.8463
1027.606, 209.4671
1028.088, 208.0501
1028.570, 203.9949
1029.052, 199.0940
1029.534, 193.7009
1030.016, 190.0396
1030.499, 189.3367
1030.981, 190.4642
1031.463, 194.3138
1031.945, 199.1192
1032.427, 196.7813
1032.909, 187.9719
1033.391, 185.0482
1033.873, 193.7648
1034.355, 204.4059
1034.838, 210.6315
1035.320, 212.6193
1035.802, 209.6615
1036.284, 198.3029
1036.766, 192.1742
1037.248, 191.9012
1037.730, 195.0801
1038.212, 203.9386
1038.695, 213.9057
1039.177, 209.8824
1039.659, 195.3174
1040.141, 184.8708
1040.623, 189.5378
1041.105, 194.3842
1041.587, 195.3118
1042.069, 193.2684
1042.552, 188.3927
1043.034, 180.6302
1043.516, 176.7946
1043.998, 178.0029
1044.480, 180.9829
1044.962, 184.5965
1045.444, 187.3067
1045.926, 186.6922
1046.408, 182.3464
1046.891, 181.6574
1047.373, 187.0296
1047.855, 190.3769
1048.337, 187.9130
1048.819, 182.6294
1049.301, 181.2500
1049.783, 182.1572
1050.265, 180.9345
1050.747, 173.2260
1051.230, 168.9135
1051.712, 174.5700
1052.194, 182.4925
1052.676, 187.6091
1053.158, 189.9686
1053.640, 188.1706
1054.122, 182.2526
1054.604, 176.6959
1055.087, 173.9076
1055.569, 173.3484
1056.051, 175.7784
1056.533, 180.0940
1057.015, 182.8630
1057.497, 184.0509
1057.979, 182.9890
1058.461, 178.8027
1058.943, 174.4799
1059.426, 173.8793
1059.908, 175.9870
1060.390, 180.2160
1060.872, 186.7935
1061.354, 188.8999
1061.836, 176.5647
1062.318, 167.5431
1062.800, 170.6888
1063.282, 182.1781
1063.765, 186.4777
1064.247, 184.1240
1064.729, 179.3846
1065.211, 171.6548
1065.693, 166.5545
1066.175, 170.4509
1066.657, 178.1946
1067.139, 184.0119
1067.622, 187.7601
1068.104, 188.4964
1068.586, 185.5021
1069.068, 183.1698
1069.550, 186.9054
1070.032, 191.9015
1070.514, 189.6775
1070.996, 182.1452
1071.479, 175.7203
1071.961, 171.4344
1072.443, 170.2333
1072.925, 173.5641
1073.407, 178.0181
1073.889, 177.9955
1074.371, 175.0191
1074.853, 176.4795
1075.335, 183.2113
1075.818, 188.1915
1076.300, 185.2097
1076.782, 180.9230
1077.264, 178.7554
1077.746, 178.5488
1078.228, 180.0888
1078.710, 183.4773
1079.192, 186.2935
1079.674, 188.1210
1080.157, 188.2154
1080.639, 182.9248
1081.121, 176.8778
1081.603, 176.8572
1082.085, 187.5471
1082.567, 190.1194
1083.049, 181.1852
1083.531, 173.3106
1084.013, 175.0424
1084.496, 181.9269
1084.978, 183.3923
1085.460, 181.1841
1085.942, 180.2864
1086.424, 185.0870
1086.906, 188.0599
1087.388, 187.2618
1087.870, 184.6943
1088.353, 181.9691
1088.835, 179.1589
1089.317, 177.0838
1089.799, 175.7690
1090.281, 175.1406
1090.763, 176.8804
1091.245, 177.5963
1091.727, 173.0329
1092.209, 166.0275
1092.692, 165.7467
1093.174, 173.5418
1093.656, 176.9388
1094.138, 172.8505
1094.620, 167.8103
1095.102, 169.0946
1095.584, 173.2619
1096.066, 177.4113
1096.548, 181.2980
1097.031, 180.4331
1097.513, 172.0800
1097.995, 165.7894
1098.477, 166.1926
1098.959, 169.3961
1099.441, 167.4427
1099.923, 161.9758
1100.405, 156.3295
1100.888, 150.3644
1101.370, 147.0677
1101.852, 147.6633
1102.334, 150.7110
1102.816, 156.6962
1103.298, 164.7790
1103.780, 167.2799
1104.262, 165.0492
1104.745, 164.2178
1105.227, 172.1408
1105.709, 177.7713
1106.191, 172.9660
1106.673, 163.6782
1107.155, 158.6414
1107.637, 158.4400
1108.119, 157.4488
1108.601, 155.2228
1109.083, 154.2032
1109.566, 157.6461
1110.048, 162.1876
1110.530, 165.5033
1111.012, 167.2079
1111.494, 166.1982
1111.976, 161.0046
1112.458, 157.8941
1112.940, 158.4332
1113.423, 159.8767
1113.905, 157.7138
1114.387, 154.4436
1114.869, 155.2167
1115.351, 161.0444
1115.833, 162.7192
1116.315, 154.5811
1116.797, 148.2242
1117.280, 147.8476
1117.762, 151.2023
1118.244, 153.3155
1118.726, 154.4908
1119.208, 155.6888
1119.690, 157.1857
1120.172, 158.6752
1120.654, 160.8539
1121.136, 162.1181
1121.619, 161.0675
1122.101, 158.0595
1122.583, 156.9036
1123.065, 157.4019
1123.547, 157.8421
1124.029, 157.7158
1124.511, 156.8317
1124.993, 153.1400
1125.475, 149.7480
1125.958, 151.2785
1126.440, 159.5088
1126.922, 162.0136
1127.404, 158.3715
1127.886, 153.4791
1128.368, 148.1763
1128.850, 145.6359
1129.332, 152.2529
1129.815, 163.9449
1130.297, 168.4991
1130.779, 162.3850
1131.261, 157.7171
1131.743, 155.6233
1132.225, 155.4580
1132.707, 159.4194
1133.189, 163.2294
1133.672, 158.0112
1134.154, 144.7913
1134.636, 139.5596
1135.118, 152.0688
1135.600, 160.2947
1136.082, 158.2114
1136.564, 152.2837
1137.046, 154.1388
1137.528, 160.1017
1138.010, 160.9820
1138.493, 154.7149
1138.975, 150.4345
1139.457, 154.0105
1139.939, 157.3625
1140.421, 157.6419
1140.903, 155.5963
1141.385, 152.6747
1141.867, 149.3130
1142.350, 147.2245
1142.832, 147.2264
1143.314, 147.6658
1143.796, 148.0936
1144.278, 148.2977
1144.760, 147.7924
1145.242, 146.7840
1145.724, 148.0616
1146.207, 151.4055
1146.689, 154.8423
1147.171, 157.5711
1147.653, 159.9046
1148.135, 162.1476
1148.617, 163.9451
1149.099, 165.2724
1149.581, 166.5129
1150.063, 163.6223
1150.546, 156.4683
1151.028, 150.8588
1151.510, 152.2567
1151.992, 155.5081
1152.474, 156.8985
1152.956, 156.8648
1153.438, 156.3746
1153.920, 155.4395
1154.402, 154.1388
1154.885, 152.3512
1155.367, 151.0453
1155.849, 151.5717
1156.331, 152.7205
1156.813, 153.1172
1157.295, 152.8907
1157.777, 152.8876
1158.259, 153.1196
1158.742, 153.7408
1159.224, 154.8054
1159.706, 156.1254
1160.188, 157.3906
1160.670, 158.8148
1161.152, 161.2658
1161.634, 164.6312
1162.116, 166.1522
1162.599, 165.7351
1163.081, 162.0337
1163.563, 152.5427
1164.045, 144.0222
1164.527, 151.6816
1165.009, 166.8902
1165.491, 171.3257
1165.973, 160.9573
1166.455, 154.8177
1166.938, 161.8983
1167.420, 167.4407
1167.902, 165.9074
1168.384, 160.5794
1168.866, 158.5749
1169.348, 159.0601
1169.830, 159.9244
1170.312, 160.8284
1170.794, 161.3290
1171.277, 160.0970
1171.759, 159.9543
1172.241, 163.2164
1172.723, 168.1686
1173.205, 166.5547
1173.687, 160.7315
1174.169, 159.9112
1174.651, 171.2611
1175.134, 179.3330
1175.616, 176.0320
1176.098, 169.0357
1176.580, 161.5633
1177.062, 154.2905
1177.544, 153.4182
1178.026, 157.9497
1178.508, 162.3849
1178.990, 162.7775
1179.473, 164.2200
1179.955, 171.9856
1180.437, 179.3969
1180.919, 179.3603
1181.401, 172.0292
1181.883, 169.4797
1182.365, 171.2935
1182.847, 172.6580
1183.329, 169.5608
1183.812, 166.6272
1184.294, 166.9270
1184.776, 168.3676
1185.258, 168.2936
1185.740, 166.6637
1186.222, 165.5096
1186.704, 164.8996
1187.186, 164.0744
1187.669, 161.1612
1188.151, 159.2575
1188.633, 161.2950
1189.115, 165.2812
1189.597, 167.9905
1190.079, 169.4344
1190.561, 168.5425
1191.043, 165.1113
1191.526, 162.8127
1192.008, 166.6797
1192.490, 170.6447
1192.972, 169.6460
1193.454, 165.5357
1193.936, 163.3298
1194.418, 163.1138
1194.900, 163.5697
1195.382, 164.5333
1195.865, 165.8562
1196.347, 169.7625
1196.829, 171.9106
1197.311, 165.7849
1197.793, 154.8396
1198.275, 154.3271
1198.757, 165.2962
1199.239, 172.3769
1199.721, 172.3428
1200.204, 168.8335
1200.686, 160.9621
1201.168, 154.4019
1201.650, 155.4161
1202.132, 162.8581
1202.614, 168.8413
1203.096, 173.6301
1203.578, 171.7290
1204.061, 159.8417
1204.543, 148.8453
1205.025, 152.1059
1205.507, 159.0119
1205.989, 158.3820
1206.471, 150.4823
1206.953, 147.3087
1207.435, 149.1257
1207.917, 150.5624
1208.400, 149.7026
1208.882, 148.4721
1209.364, 148.6914
1209.846, 149.5202
1210.328, 149.8611
1210.810, 149.7039
1211.292, 151.0170
1211.774, 153.8275
1212.256, 158.5251
1212.739, 167.6345
1213.221, 173.2932
1213.703, 163.8205
1214.185, 149.6894
1214.667, 142.5100
1215.149, 142.6773
1215.631, 144.7171
1216.113, 148.7488
1216.596, 150.6461
1217.078, 147.1522
1217.560, 143.4149
1218.042, 144.7058
1218.524, 147.7205
1219.006, 148.2640
1219.488, 145.8786
1219.970, 145.8688
1220.453, 148.2618
1220.935, 152.4050
1221.417, 160.5476
1221.899, 166.3634
1222.381, 163.0391
1222.863, 155.5172
1223.345, 150.0386
1223.827, 147.1170
1224.309, 140.8995
1224.792, 131.4110
1225.274, 127.7961
1225.756, 141.2708
1226.238, 154.5323
1226.720, 153.9279
1227.202, 146.8130
1227.684, 142.2804
1228.166, 140.3941
1228.648, 141.6198
1229.131, 145.8215
1229.613, 149.9222
1230.095, 153.4823
1230.577, 154.8123
1231.059, 150.8397
1231.541, 145.2792
1232.023, 142.6895
1232.505, 143.2254
1232.988, 144.4484
1233.470, 146.1946
1233.952, 146.5087
1234.434, 139.4804
1234.916, 136.0955
1235.398, 148.0633
1235.880, 162.9356
1236.362, 165.7720
1236.844, 156.9524
1237.327, 153.5791
1237.809, 155.3926
1238.291, 155.5777
1238.773, 147.0426
1239.255, 139.6572
1239.737, 138.8551
1240.219, 140.6536
1240.701, 140.4140
1241.183, 138.7753
1241.666, 143.2005
1242.148, 152.9027
1242.630, 159.1592
1243.112, 153.8647
1243.594, 148.5063
1244.076, 145.8932
1244.558, 145.7810
1245.040, 150.1284
1245.523, 156.9582
1246.005, 154.2294
1246.487, 143.4783
1246.969, 138.3880
1247.451, 154.8224
1247.933, 164.1245
1248.415, 157.1414
1248.897, 145.7148
1249.380, 144.3664
1249.862, 149.3983
1250.344, 148.5827
1250.826, 142.7275
1251.308, 139.6054
1251.790, 146.8864
1252.272, 150.2427
1252.754, 146.4806
1253.236, 140.6164
1253.719, 138.1216
1254.201, 137.7835
1254.683, 137.0829
1255.165, 136.1016
1255.647, 135.9520
1256.129, 138.3863
1256.611, 138.9281
1257.093, 136.6015
1257.575, 133.8224
1258.058, 133.9260
1258.540, 134.7614
1259.022, 132.0027
1259.504, 126.7687
1259.986, 125.2195
1260.468, 129.2515
1260.950, 133.5467
1261.432, 137.6559
1261.915, 141.2492
1262.397, 145.0858
1262.879, 147.3761
1263.361, 145.3901
1263.843, 139.9945
1264.325, 134.0209
1264.807, 125.7236
1265.289, 126.8976
1265.771, 139.6679
1266.254, 152.6407
1266.736, 155.5170
1267.218, 154.4192
1267.700, 154.2929
1268.182, 154.0792
1268.664, 149.8464
1269.146, 141.0818
1269.628, 136.6496
1270.110, 137.4404
1270.593, 139.3699
1271.075, 139.6579
1271.557, 139.8732
1272.039, 141.6178
1272.521, 143.5961
1273.003, 143.5390
1273.485, 141.6142
1273.967, 139.5554
1274.450, 137.5710
1274.932, 136.8083
1275.414, 139.2993
1275.896, 141.4881
1276.378, 142.3098
1276.860, 141.9519
1277.342, 140.0202
1277.824, 137.1227
1278.306, 136.2963
1278.789, 137.3323
1279.271, 136.6253
1279.753, 127.6538
1280.235, 124.4750
1280.717, 131.8978
1281.199, 141.6514
1281.681, 143.0423
1282.163, 139.9183
1282.646, 141.0036
1283.128, 145.7865
1283.610, 148.6563
1284.092, 147.7007
1284.574, 145.4925
1285.056, 141.9575
1285.538, 138.3484
1286.020, 134.7137
1286.502, 132.5827
1286.984, 135.7495
1287.467, 142.2236
1287.949, 144.6492
1288.431, 142.0312
1288.913, 136.5079
1289.395, 127.5769
1289.877, 121.6771
1290.359, 126.8880
1290.841, 135.1014
1291.324, 139.8344
1291.806, 142.2833
1292.288, 146.8585
1292.770, 154.3576
1293.252, 151.2415
1293.734, 137.0127
1294.216, 125.0273
1294.698, 125.6592
1295.181, 129.4604
1295.663, 132.6325
1296.145, 135.2884
1296.627, 137.8473
1297.109, 140.1321
1297.591, 139.8159
1298.073, 137.3367
1298.555, 136.1241
1299.037, 138.6138
1299.520, 141.8078
1300.002, 145.8655
1300.484, 148.9980
1300.966, 149.1250
1301.448, 146.9681
1301.930, 143.8514
1302.412, 140.2041
1302.894, 137.3900
1303.376, 136.1461
1303.859, 135.3414
1304.341, 134.9191
1304.823, 134.8171
1305.305, 134.7782
1305.787, 134.8358
##END=



