##NAMES=Sampleite
##RRUFFID=R070018
##IDEAL CHEMISTRY=NaCaCu^2+^_5_(P^5+^O_4_)_4_Cl&#183;5H_2_O
##LOCALITY=Endeavour 26 Open Cut, Northparkes mine, Goonumbla, NSW, Australia
##OWNER=RRUFF
##SOURCE=Mark Mauthner
##DESCRIPTION=Electric-blue platy crystals on limonitic matrix
##STATUS=The identification of this mineral has been confirmed by single-crystal X-ray diffraction.
##URL=rruff.info/R070018
126.1309, 1359.183
126.6130, 1458.763
127.0951, 1560.299
127.5772, 1661.170
128.0593, 1756.688
128.5415, 1846.347
129.0236, 1941.739
129.5057, 2051.705
129.9878, 2170.490
130.4699, 2291.274
130.9520, 2412.342
131.4342, 2535.084
131.9163, 2664.606
132.3984, 2805.153
132.8805, 2935.527
133.3626, 3046.911
133.8447, 3142.395
134.3269, 3221.886
134.8090, 3283.256
135.2911, 3331.236
135.7732, 3371.733
136.2553, 3400.124
136.7374, 3432.869
137.2196, 3469.624
137.7017, 3515.490
138.1838, 3578.656
138.6659, 3664.681
139.1480, 3767.957
139.6301, 3873.186
140.1123, 3971.512
140.5944, 4087.917
141.0765, 4229.799
141.5586, 4391.187
142.0407, 4565.514
142.5228, 4751.292
143.0050, 4946.770
143.4871, 5145.409
143.9692, 5346.478
144.4513, 5554.061
144.9334, 5766.668
145.4155, 5986.160
145.8977, 6217.915
146.3798, 6467.732
146.8619, 6731.415
147.3440, 6970.669
147.8261, 7168.466
148.3082, 7356.650
148.7904, 7540.858
149.2725, 7720.939
149.7546, 7895.523
150.2367, 8066.993
150.7188, 8233.326
151.2010, 8361.561
151.6831, 8425.149
152.1652, 8476.960
152.6473, 8521.561
153.1294, 8562.842
153.6115, 8606.280
154.0937, 8657.062
154.5758, 8714.337
155.0579, 8750.669
155.5400, 8746.808
156.0221, 8743.436
156.5042, 8749.498
156.9864, 8765.117
157.4685, 8786.379
157.9506, 8809.219
158.4327, 8834.008
158.9148, 8887.052
159.3969, 8992.595
159.8791, 9096.273
160.3612, 9172.313
160.8433, 9229.353
161.3254, 9294.657
161.8075, 9388.475
162.2896, 9509.855
162.7718, 9630.156
163.2539, 9754.943
163.7360, 9874.246
164.2181, 9979.816
164.7002, 10075.52
165.1823, 10173.94
165.6645, 10283.93
166.1466, 10405.71
166.6287, 10531.38
167.1108, 10673.74
167.5929, 10808.24
168.0750, 10923.41
168.5572, 11020.14
169.0393, 11104.11
169.5214, 11176.20
170.0035, 11237.62
170.4856, 11303.59
170.9677, 11387.75
171.4499, 11463.90
171.9320, 11511.12
172.4141, 11534.33
172.8962, 11558.96
173.3783, 11602.21
173.8604, 11661.30
174.3426, 11714.27
174.8247, 11758.02
175.3068, 11798.86
175.7889, 11839.39
176.2710, 11879.89
176.7531, 11920.36
177.2353, 11960.60
177.7174, 12001.19
178.1995, 12043.67
178.6816, 12090.92
179.1637, 12137.36
179.6458, 12174.25
180.1280, 12203.94
180.6101, 12246.40
181.0922, 12322.63
181.5743, 12416.13
182.0564, 12476.51
182.5385, 12480.33
183.0207, 12477.27
183.5028, 12497.28
183.9849, 12539.32
184.4670, 12596.54
184.9491, 12673.55
185.4312, 12760.19
185.9134, 12833.17
186.3955, 12892.66
186.8776, 12937.91
187.3597, 12958.45
187.8418, 12957.95
188.3239, 12970.54
188.8061, 13017.53
189.2882, 13084.35
189.7703, 13143.12
190.2524, 13197.79
190.7345, 13236.92
191.2166, 13238.24
191.6988, 13207.50
192.1809, 13198.98
192.6630, 13246.00
193.1451, 13318.86
193.6272, 13367.48
194.1093, 13382.88
194.5915, 13396.33
195.0736, 13436.51
195.5557, 13498.68
196.0378, 13544.09
196.5199, 13547.56
197.0020, 13538.38
197.4842, 13556.41
197.9663, 13606.67
198.4484, 13662.40
198.9305, 13711.06
199.4126, 13751.71
199.8947, 13772.89
200.3769, 13753.39
200.8590, 13732.83
201.3411, 13761.58
201.8232, 13844.94
202.3053, 13922.29
202.7874, 13949.33
203.2696, 13934.45
203.7517, 13919.14
204.2338, 13904.54
204.7159, 13902.69
205.1980, 13930.07
205.6801, 13985.88
206.1623, 14034.60
206.6444, 14049.62
207.1265, 14038.86
207.6086, 14036.03
208.0907, 14049.84
208.5728, 14067.83
209.0550, 14077.96
209.5371, 14081.54
210.0192, 14086.51
210.5013, 14099.74
210.9834, 14117.89
211.4656, 14129.83
211.9477, 14131.47
212.4298, 14132.10
212.9119, 14139.00
213.3940, 14150.91
213.8761, 14163.91
214.3583, 14172.79
214.8404, 14181.74
215.3225, 14203.95
215.8046, 14247.15
216.2867, 14287.34
216.7688, 14304.14
217.2510, 14305.56
217.7331, 14308.21
218.2152, 14318.60
218.6973, 14334.35
219.1794, 14350.94
219.6615, 14367.90
220.1437, 14387.22
220.6258, 14411.56
221.1079, 14439.03
221.5900, 14467.48
222.0721, 14501.66
222.5542, 14532.67
223.0364, 14544.54
223.5185, 14533.63
224.0006, 14522.87
224.4827, 14526.12
224.9648, 14536.58
225.4469, 14545.02
225.9291, 14546.68
226.4112, 14549.79
226.8933, 14569.87
227.3754, 14609.04
227.8575, 14632.84
228.3396, 14610.66
228.8218, 14572.72
229.3039, 14560.05
229.7860, 14585.32
230.2681, 14615.65
230.7502, 14618.39
231.2323, 14595.32
231.7145, 14579.63
232.1966, 14580.78
232.6787, 14597.14
233.1608, 14629.79
233.6429, 14683.47
234.1250, 14727.87
234.6072, 14735.46
235.0893, 14712.94
235.5714, 14695.03
236.0535, 14691.56
236.5356, 14694.32
237.0177, 14693.19
237.4999, 14688.05
237.9820, 14685.07
238.4641, 14682.36
238.9462, 14684.01
239.4283, 14706.36
239.9104, 14762.86
240.3926, 14817.92
240.8747, 14826.24
241.3568, 14796.26
241.8389, 14780.03
242.3210, 14814.05
242.8031, 14868.59
243.2853, 14887.19
243.7674, 14856.95
244.2495, 14823.79
244.7316, 14835.82
245.2137, 14879.01
245.6958, 14906.47
246.1780, 14898.65
246.6601, 14875.40
247.1422, 14856.37
247.6243, 14842.09
248.1064, 14832.74
248.5885, 14828.00
249.0707, 14828.92
249.5528, 14837.24
250.0349, 14856.88
250.5170, 14880.75
250.9991, 14906.28
251.4812, 14932.65
251.9634, 14953.97
252.4455, 14966.46
252.9276, 14971.79
253.4097, 14975.35
253.8918, 14974.26
254.3739, 14976.02
254.8561, 14986.03
255.3382, 15001.95
255.8203, 15016.73
256.3024, 15026.64
256.7845, 15035.93
257.2667, 15056.61
257.7488, 15096.53
258.2309, 15121.87
258.7130, 15110.88
259.1951, 15082.09
259.6772, 15064.92
260.1594, 15067.38
260.6415, 15079.35
261.1236, 15087.32
261.6057, 15089.63
262.0878, 15096.60
262.5699, 15120.54
263.0521, 15143.35
263.5342, 15139.52
264.0163, 15107.43
264.4984, 15079.90
264.9805, 15092.71
265.4626, 15153.14
265.9448, 15185.44
266.4269, 15163.08
266.9090, 15136.46
267.3911, 15136.71
267.8732, 15161.74
268.3553, 15195.05
268.8375, 15227.97
269.3196, 15259.29
269.8017, 15267.16
270.2838, 15223.98
270.7659, 15192.79
271.2480, 15200.38
271.7302, 15233.77
272.2123, 15269.37
272.6944, 15296.24
273.1765, 15314.43
273.6586, 15324.18
274.1407, 15321.53
274.6229, 15314.82
275.1050, 15295.42
275.5871, 15276.18
276.0692, 15276.27
276.5513, 15300.56
277.0334, 15329.79
277.5156, 15330.28
277.9977, 15275.42
278.4798, 15245.22
278.9619, 15243.53
279.4440, 15260.22
279.9261, 15300.69
280.4083, 15358.25
280.8904, 15407.31
281.3725, 15417.53
281.8546, 15380.00
282.3367, 15361.00
282.8188, 15363.92
283.3010, 15380.87
283.7831, 15418.31
284.2652, 15468.10
284.7473, 15514.86
285.2294, 15549.32
285.7115, 15571.11
286.1937, 15576.88
286.6758, 15556.03
287.1579, 15531.21
287.6400, 15495.79
288.1221, 15463.09
288.6042, 15452.53
289.0864, 15473.89
289.5685, 15512.08
290.0506, 15532.88
290.5327, 15523.44
291.0148, 15528.73
291.4969, 15574.19
291.9791, 15625.10
292.4612, 15659.10
292.9433, 15670.98
293.4254, 15663.99
293.9075, 15632.47
294.3896, 15572.80
294.8718, 15534.79
295.3539, 15540.73
295.8360, 15554.34
296.3181, 15555.95
296.8002, 15546.43
297.2823, 15534.53
297.7645, 15525.37
298.2466, 15518.44
298.7287, 15510.91
299.2108, 15501.36
299.6929, 15494.29
300.1750, 15493.03
300.6572, 15495.77
301.1393, 15499.67
301.6214, 15502.97
302.1035, 15507.69
302.5856, 15515.43
303.0677, 15525.95
303.5499, 15543.46
304.0320, 15577.21
304.5141, 15615.40
304.9962, 15638.81
305.4783, 15642.10
305.9604, 15641.94
306.4426, 15650.23
306.9247, 15664.11
307.4068, 15673.44
307.8889, 15674.72
308.3710, 15671.56
308.8531, 15669.05
309.3353, 15667.52
309.8174, 15663.43
310.2995, 15651.20
310.7816, 15638.04
311.2637, 15633.39
311.7458, 15638.59
312.2280, 15648.60
312.7101, 15661.24
313.1922, 15676.25
313.6743, 15681.08
314.1564, 15666.06
314.6385, 15649.88
315.1207, 15644.88
315.6028, 15648.17
316.0849, 15648.38
316.5670, 15638.02
317.0491, 15621.09
317.5313, 15614.84
318.0134, 15636.15
318.4955, 15646.50
318.9776, 15629.15
319.4597, 15602.54
319.9418, 15586.48
320.4240, 15587.82
320.9061, 15603.55
321.3882, 15631.50
321.8703, 15687.82
322.3524, 15717.40
322.8345, 15690.68
323.3167, 15665.74
323.7988, 15691.48
324.2809, 15757.67
324.7630, 15809.57
325.2451, 15793.75
325.7272, 15711.19
326.2094, 15664.48
326.6915, 15686.01
327.1736, 15709.75
327.6557, 15718.34
328.1378, 15719.21
328.6199, 15725.85
329.1021, 15745.86
329.5842, 15770.34
330.0663, 15775.92
330.5484, 15750.66
331.0305, 15740.65
331.5126, 15773.61
331.9948, 15814.37
332.4769, 15837.39
332.9590, 15838.69
333.4411, 15832.04
333.9232, 15830.08
334.4053, 15832.10
334.8875, 15828.03
335.3696, 15809.38
335.8517, 15795.59
336.3338, 15808.11
336.8159, 15837.98
337.2980, 15855.29
337.7802, 15839.09
338.2623, 15806.53
338.7444, 15779.69
339.2265, 15757.93
339.7086, 15750.52
340.1907, 15770.08
340.6729, 15805.88
341.1550, 15831.70
341.6371, 15846.71
342.1192, 15851.98
342.6013, 15840.00
343.0834, 15818.52
343.5656, 15809.70
344.0477, 15822.95
344.5298, 15843.66
345.0119, 15849.20
345.4940, 15837.48
345.9761, 15820.34
346.4583, 15784.92
346.9404, 15753.78
347.4225, 15749.18
347.9046, 15771.24
348.3867, 15803.94
348.8688, 15836.47
349.3510, 15868.91
349.8331, 15884.37
350.3152, 15869.04
350.7973, 15854.78
351.2794, 15845.32
351.7615, 15844.09
352.2437, 15858.17
352.7258, 15890.82
353.2079, 15932.93
353.6900, 15965.62
354.1721, 15993.40
354.6542, 16001.19
355.1364, 15972.90
355.6185, 15939.70
356.1006, 15923.68
356.5827, 15925.62
357.0648, 15930.24
357.5469, 15920.65
358.0291, 15897.36
358.5112, 15888.55
358.9933, 15905.27
359.4754, 15922.07
359.9575, 15926.51
360.4396, 15924.74
360.9218, 15928.04
361.4039, 15943.81
361.8860, 15961.53
362.3681, 15962.82
362.8502, 15945.97
363.3323, 15930.86
363.8145, 15918.58
364.2966, 15915.89
364.7787, 15935.41
365.2608, 15980.52
365.7430, 16014.28
366.2251, 16006.55
366.7072, 15975.38
367.1893, 15959.68
367.6714, 15966.86
368.1535, 15977.45
368.6357, 15973.15
369.1178, 15955.42
369.5999, 15944.13
370.0820, 15936.96
370.5641, 15939.46
371.0462, 15964.33
371.5284, 16002.80
372.0105, 16028.80
372.4926, 16028.59
372.9747, 16012.21
373.4568, 16005.00
373.9389, 16018.70
374.4211, 16024.05
374.9032, 16010.32
375.3853, 15994.02
375.8674, 15993.96
376.3495, 16009.79
376.8316, 16020.89
377.3138, 16003.24
377.7959, 15953.28
378.2780, 15926.60
378.7601, 15935.22
379.2422, 15956.23
379.7243, 15998.52
380.2065, 16046.27
380.6886, 16077.21
381.1707, 16081.10
381.6528, 16065.58
382.1349, 16040.01
382.6170, 15997.30
383.0992, 15972.34
383.5813, 15984.28
384.0634, 16008.17
384.5455, 16031.67
385.0276, 16053.07
385.5097, 16069.96
385.9919, 16085.44
386.4740, 16095.02
386.9561, 16080.15
387.4382, 16031.82
387.9203, 15989.54
388.4024, 15983.26
388.8846, 16001.93
389.3667, 16018.96
389.8488, 16032.28
390.3309, 16042.18
390.8130, 16049.00
391.2951, 16052.51
391.7773, 16048.90
392.2594, 16034.52
392.7415, 16022.27
393.2236, 16035.58
393.7057, 16090.15
394.1878, 16120.73
394.6700, 16102.95
395.1521, 16077.47
395.6342, 16076.34
396.1163, 16096.41
396.5984, 16113.74
397.0805, 16110.64
397.5627, 16090.54
398.0448, 16077.18
398.5269, 16080.30
399.0090, 16077.86
399.4911, 16055.68
399.9732, 16033.10
400.4554, 16030.63
400.9375, 16052.89
401.4196, 16086.26
401.9017, 16119.82
402.3838, 16155.40
402.8659, 16169.21
403.3481, 16140.94
403.8302, 16113.68
404.3123, 16114.03
404.7944, 16131.21
405.2765, 16140.44
405.7586, 16126.61
406.2408, 16104.58
406.7229, 16093.15
407.2050, 16092.32
407.6871, 16103.78
408.1692, 16139.81
408.6513, 16177.21
409.1335, 16176.54
409.6156, 16130.56
410.0977, 16094.73
410.5798, 16097.91
411.0619, 16116.86
411.5440, 16121.91
412.0262, 16110.07
412.5083, 16095.96
412.9904, 16090.85
413.4725, 16094.19
413.9546, 16096.15
414.4367, 16095.90
414.9189, 16095.51
415.4010, 16088.01
415.8831, 16083.49
416.3652, 16100.12
416.8473, 16142.32
417.3294, 16189.74
417.8116, 16212.43
418.2937, 16204.93
418.7758, 16192.75
419.2579, 16155.83
419.7400, 16133.64
420.2221, 16154.74
420.7043, 16202.08
421.1864, 16237.63
421.6685, 16238.43
422.1506, 16219.66
422.6327, 16213.43
423.1148, 16223.16
423.5970, 16223.62
424.0791, 16191.17
424.5612, 16159.06
425.0433, 16169.73
425.5254, 16226.32
426.0075, 16267.63
426.4897, 16249.87
426.9718, 16203.67
427.4539, 16175.80
427.9360, 16170.84
428.4181, 16176.97
428.9002, 16189.13
429.3824, 16205.62
429.8645, 16216.54
430.3466, 16216.85
430.8287, 16218.35
431.3108, 16225.17
431.7929, 16234.65
432.2751, 16244.69
432.7572, 16254.29
433.2393, 16260.55
433.7214, 16258.66
434.2035, 16245.86
434.6856, 16240.77
435.1678, 16246.97
435.6499, 16257.20
436.1320, 16274.67
436.6141, 16293.52
437.0962, 16305.38
437.5783, 16306.74
438.0605, 16298.28
438.5426, 16273.54
439.0247, 16227.49
439.5068, 16208.93
439.9889, 16254.44
440.4710, 16302.25
440.9532, 16291.18
441.4353, 16232.06
441.9174, 16195.87
442.3995, 16235.57
442.8816, 16301.59
443.3637, 16326.63
443.8459, 16312.44
444.3280, 16304.24
444.8101, 16327.74
445.2922, 16368.73
445.7743, 16388.63
446.2564, 16378.76
446.7386, 16370.87
447.2207, 16376.40
447.7028, 16381.97
448.1849, 16372.70
448.6670, 16348.98
449.1491, 16322.21
449.6313, 16300.22
450.1134, 16283.87
450.5955, 16285.04
451.0776, 16330.63
451.5597, 16356.92
452.0418, 16335.71
452.5240, 16301.21
453.0061, 16289.30
453.4882, 16307.71
453.9703, 16333.97
454.4524, 16347.54
454.9345, 16349.03
455.4167, 16341.27
455.8988, 16316.25
456.3809, 16298.83
456.8630, 16325.15
457.3451, 16367.62
457.8272, 16370.95
458.3094, 16297.22
458.7915, 16224.33
459.2736, 16211.98
459.7557, 16240.66
460.2378, 16262.27
460.7199, 16263.17
461.2021, 16257.93
461.6842, 16264.19
462.1663, 16284.83
462.6484, 16300.08
463.1305, 16307.98
463.6126, 16312.95
464.0948, 16314.98
464.5769, 16315.82
465.0590, 16318.12
465.5411, 16323.05
466.0232, 16329.87
466.5053, 16337.72
466.9875, 16347.51
467.4696, 16355.18
467.9517, 16366.51
468.4338, 16369.54
468.9159, 16349.91
469.3980, 16316.65
469.8802, 16294.85
470.3623, 16300.74
470.8444, 16319.12
471.3265, 16329.96
471.8086, 16333.35
472.2907, 16331.03
472.7729, 16323.61
473.2550, 16310.66
473.7371, 16285.87
474.2192, 16246.21
474.7013, 16224.82
475.1834, 16243.67
475.6656, 16270.35
476.1477, 16273.24
476.6298, 16259.48
477.1119, 16262.96
477.5940, 16305.33
478.0761, 16366.71
478.5583, 16389.77
479.0404, 16347.05
479.5225, 16313.11
480.0046, 16293.65
480.4867, 16280.19
480.9688, 16266.35
481.4510, 16253.10
481.9331, 16246.46
482.4152, 16252.30
482.8973, 16266.04
483.3794, 16277.22
483.8615, 16286.57
484.3437, 16288.15
484.8258, 16269.07
485.3079, 16250.04
485.7900, 16259.59
486.2721, 16300.77
486.7542, 16337.79
487.2364, 16361.14
487.7185, 16371.21
488.2006, 16360.67
488.6827, 16333.48
489.1649, 16313.86
489.6470, 16316.99
490.1291, 16337.14
490.6112, 16355.44
491.0933, 16384.46
491.5754, 16393.13
492.0576, 16364.08
492.5397, 16327.69
493.0218, 16303.34
493.5039, 16293.10
493.9860, 16291.56
494.4681, 16296.97
494.9503, 16306.36
495.4324, 16305.97
495.9145, 16288.71
496.3966, 16286.02
496.8787, 16325.98
497.3608, 16372.22
497.8430, 16388.36
498.3251, 16371.99
498.8072, 16351.12
499.2893, 16332.21
499.7714, 16319.39
500.2535, 16322.07
500.7357, 16338.75
501.2178, 16354.18
501.6999, 16360.98
502.1820, 16359.13
502.6641, 16348.29
503.1462, 16317.95
503.6284, 16294.72
504.1105, 16276.65
504.5926, 16267.69
505.0747, 16276.37
505.5568, 16297.70
506.0389, 16315.01
506.5211, 16315.14
507.0032, 16305.69
507.4853, 16313.71
507.9674, 16347.93
508.4495, 16368.63
508.9316, 16351.30
509.4138, 16328.29
509.8959, 16329.47
510.3780, 16353.57
510.8601, 16371.58
511.3422, 16366.59
511.8243, 16351.65
512.3065, 16343.86
512.7886, 16341.62
513.2707, 16326.35
513.7528, 16283.09
514.2349, 16239.22
514.7170, 16253.69
515.1992, 16377.87
515.6813, 16449.81
516.1634, 16430.86
516.6455, 16395.74
517.1276, 16385.18
517.6097, 16394.44
518.0919, 16403.01
518.5740, 16400.15
519.0561, 16388.42
519.5382, 16370.21
520.0203, 16343.18
520.5024, 16325.37
520.9846, 16330.01
521.4667, 16332.86
521.9488, 16306.89
522.4309, 16261.84
522.9130, 16236.69
523.3951, 16247.38
523.8773, 16279.29
524.3594, 16339.24
524.8415, 16411.25
525.3236, 16446.98
525.8057, 16428.83
526.2878, 16385.90
526.7700, 16355.18
527.2521, 16337.99
527.7342, 16326.37
528.2163, 16316.44
528.6984, 16315.64
529.1805, 16335.87
529.6627, 16363.40
530.1448, 16379.13
530.6269, 16376.32
531.1090, 16365.23
531.5911, 16353.52
532.0732, 16342.03
532.5554, 16348.13
533.0375, 16381.11
533.5196, 16413.44
534.0017, 16432.27
534.4838, 16437.04
534.9659, 16423.06
535.4481, 16373.49
535.9302, 16336.19
536.4123, 16337.51
536.8944, 16362.51
537.3765, 16403.44
537.8586, 16453.10
538.3408, 16477.02
538.8229, 16439.52
539.3050, 16352.32
539.7871, 16310.96
540.2692, 16343.09
540.7513, 16381.55
541.2335, 16430.99
541.7156, 16472.93
542.1977, 16489.92
542.6798, 16482.73
543.1619, 16467.87
543.6440, 16454.28
544.1262, 16441.86
544.6083, 16427.12
545.0904, 16409.77
545.5725, 16407.49
546.0546, 16434.64
546.5367, 16470.79
547.0189, 16480.37
547.5010, 16458.73
547.9831, 16439.26
548.4652, 16425.26
548.9473, 16414.45
549.4294, 16407.96
549.9116, 16403.24
550.3937, 16394.10
550.8758, 16377.65
551.3579, 16360.09
551.8400, 16352.52
552.3221, 16356.16
552.8043, 16363.09
553.2864, 16375.42
553.7685, 16388.02
554.2506, 16396.80
554.7327, 16404.31
555.2148, 16415.87
555.6970, 16435.13
556.1791, 16453.41
556.6612, 16462.35
557.1433, 16466.15
557.6254, 16478.32
558.1075, 16500.58
558.5897, 16508.86
559.0718, 16476.86
559.5539, 16412.23
560.0360, 16387.49
560.5181, 16445.40
561.0002, 16489.95
561.4824, 16519.91
561.9645, 16528.15
562.4466, 16493.56
562.9287, 16426.00
563.4108, 16371.83
563.8929, 16367.42
564.3751, 16397.67
564.8572, 16433.62
565.3393, 16476.66
565.8214, 16502.71
566.3035, 16501.37
566.7856, 16483.21
567.2678, 16455.86
567.7499, 16418.37
568.2320, 16395.24
568.7141, 16400.00
569.1962, 16409.51
569.6783, 16403.55
570.1605, 16393.91
570.6426, 16408.61
571.1247, 16456.22
571.6068, 16510.64
572.0889, 16533.83
572.5710, 16523.01
573.0532, 16517.99
573.5353, 16525.28
574.0174, 16527.90
574.4995, 16514.88
574.9816, 16495.16
575.4637, 16479.82
575.9459, 16470.93
576.4280, 16464.03
576.9101, 16460.76
577.3922, 16455.94
577.8743, 16432.34
578.3564, 16394.15
578.8386, 16382.12
579.3207, 16425.09
579.8028, 16497.82
580.2849, 16529.82
580.7670, 16493.36
581.2491, 16466.27
581.7313, 16438.46
582.2134, 16428.63
582.6955, 16461.92
583.1776, 16519.26
583.6597, 16557.19
584.1418, 16551.81
584.6240, 16536.23
585.1061, 16562.49
585.5882, 16617.38
586.0703, 16628.85
586.5524, 16579.09
587.0345, 16514.92
587.5167, 16468.98
587.9988, 16441.69
588.4809, 16435.75
588.9630, 16472.02
589.4451, 16499.38
589.9272, 16509.31
590.4094, 16506.04
590.8915, 16490.77
591.3736, 16465.75
591.8557, 16432.40
592.3378, 16383.20
592.8199, 16338.94
593.3021, 16369.76
593.7842, 16489.36
594.2663, 16565.63
594.7484, 16550.45
595.2305, 16504.19
595.7126, 16483.97
596.1948, 16486.23
596.6769, 16490.41
597.1590, 16494.72
597.6411, 16499.07
598.1232, 16504.34
598.6053, 16509.26
599.0875, 16514.14
599.5696, 16517.99
600.0517, 16513.48
600.5338, 16489.36
601.0159, 16449.69
601.4980, 16435.21
601.9802, 16457.07
602.4623, 16478.43
602.9444, 16490.24
603.4265, 16495.66
603.9086, 16494.54
604.3907, 16487.49
604.8729, 16484.77
605.3550, 16503.97
605.8371, 16517.60
606.3192, 16489.30
606.8013, 16435.59
607.2834, 16400.51
607.7656, 16399.37
608.2477, 16419.18
608.7298, 16446.83
609.2119, 16484.41
609.6940, 16501.58
610.1761, 16483.81
610.6583, 16465.05
611.1404, 16459.25
611.6225, 16454.17
612.1046, 16425.81
612.5867, 16372.74
613.0688, 16349.65
613.5510, 16430.50
614.0331, 16535.15
614.5152, 16536.47
614.9973, 16451.99
615.4794, 16399.42
615.9615, 16430.89
616.4437, 16495.91
616.9258, 16514.59
617.4079, 16473.71
617.8900, 16446.07
618.3721, 16439.94
618.8542, 16437.49
619.3364, 16438.20
619.8185, 16437.66
620.3006, 16426.58
620.7827, 16403.36
621.2648, 16388.84
621.7469, 16405.67
622.2291, 16439.63
622.7112, 16468.74
623.1933, 16490.97
623.6754, 16488.08
624.1575, 16443.73
624.6396, 16392.45
625.1218, 16399.88
625.6039, 16498.27
626.0860, 16550.88
626.5681, 16533.30
627.0502, 16501.93
627.5323, 16462.52
628.0145, 16428.68
628.4966, 16418.55
628.9787, 16437.06
629.4608, 16467.41
629.9429, 16502.77
630.4250, 16537.46
630.9072, 16559.37
631.3893, 16568.02
631.8714, 16552.62
632.3535, 16498.18
632.8356, 16435.49
633.3177, 16423.23
633.7999, 16481.21
634.2820, 16532.29
634.7641, 16594.41
635.2462, 16630.70
635.7283, 16603.24
636.2104, 16548.32
636.6926, 16524.07
637.1747, 16546.29
637.6568, 16569.22
638.1389, 16529.73
638.6210, 16458.44
639.1031, 16459.26
639.5853, 16538.15
640.0674, 16602.12
640.5495, 16608.94
641.0316, 16578.78
641.5137, 16544.12
641.9958, 16498.83
642.4780, 16469.88
642.9601, 16465.10
643.4422, 16467.30
643.9243, 16472.84
644.4064, 16479.39
644.8885, 16485.92
645.3707, 16491.83
645.8528, 16493.06
646.3349, 16485.19
646.8170, 16469.91
647.2991, 16448.06
647.7813, 16419.69
648.2634, 16402.42
648.7455, 16406.14
649.2276, 16419.87
649.7097, 16426.15
650.1918, 16421.44
650.6740, 16424.53
651.1561, 16450.82
651.6382, 16466.85
652.1203, 16445.74
652.6024, 16415.00
653.0845, 16414.68
653.5667, 16450.82
654.0488, 16484.38
654.5309, 16476.98
655.0130, 16445.90
655.4951, 16428.47
655.9772, 16424.39
656.4594, 16423.92
656.9415, 16424.74
657.4236, 16424.08
657.9057, 16418.80
658.3878, 16409.27
658.8699, 16391.86
659.3521, 16348.92
659.8342, 16320.43
660.3163, 16324.29
660.7984, 16342.56
661.2805, 16361.63
661.7626, 16377.05
662.2448, 16381.84
662.7269, 16367.29
663.2090, 16342.17
663.6911, 16314.03
664.1732, 16285.88
664.6553, 16277.56
665.1375, 16296.29
665.6196, 16324.89
666.1017, 16346.72
666.5838, 16361.75
667.0659, 16366.62
667.5480, 16346.99
668.0302, 16336.46
668.5123, 16350.12
668.9944, 16366.05
669.4765, 16367.42
669.9586, 16354.38
670.4407, 16335.88
670.9229, 16314.18
671.4050, 16291.68
671.8871, 16265.74
672.3692, 16241.48
672.8513, 16238.66
673.3335, 16260.31
673.8156, 16277.77
674.2977, 16265.07
674.7798, 16230.06
675.2620, 16213.40
675.7441, 16222.93
676.2262, 16234.99
676.7083, 16253.33
677.1904, 16267.99
677.6725, 16273.36
678.1547, 16270.71
678.6368, 16263.43
679.1189, 16251.30
679.6010, 16237.57
680.0831, 16219.79
680.5652, 16203.94
681.0474, 16198.20
681.5295, 16203.59
682.0116, 16221.31
682.4937, 16253.61
682.9758, 16289.85
683.4579, 16304.72
683.9401, 16293.59
684.4222, 16282.23
684.9043, 16267.07
685.3864, 16258.88
685.8685, 16276.31
686.3506, 16299.59
686.8328, 16294.51
687.3149, 16249.21
687.7970, 16213.41
688.2791, 16215.79
688.7612, 16224.03
689.2433, 16212.55
689.7255, 16184.56
690.2076, 16146.12
690.6897, 16100.79
691.1718, 16066.00
691.6539, 16072.73
692.1360, 16115.42
692.6182, 16128.11
693.1003, 16100.54
693.5824, 16091.16
694.0645, 16131.57
694.5466, 16190.85
695.0287, 16226.79
695.5109, 16238.02
695.9930, 16244.89
696.4751, 16244.56
696.9572, 16244.50
697.4393, 16252.65
697.9214, 16259.74
698.4036, 16251.41
698.8857, 16228.23
699.3678, 16208.79
699.8499, 16215.27
700.3320, 16224.14
700.8141, 16174.83
701.2963, 16079.06
701.7784, 16034.11
702.2605, 16067.16
702.7426, 16123.08
703.2247, 16157.56
703.7068, 16171.92
704.1890, 16176.64
704.6711, 16155.50
705.1532, 16149.87
705.6353, 16182.89
706.1174, 16212.15
706.5995, 16211.27
707.0817, 16185.61
707.5638, 16148.90
708.0459, 16098.67
708.5280, 16060.27
709.0101, 16058.78
709.4922, 16078.98
709.9744, 16105.71
710.4565, 16132.42
710.9386, 16133.76
711.4207, 16093.63
711.9028, 16042.93
712.3849, 16045.19
712.8671, 16114.11
713.3492, 16145.19
713.8313, 16121.82
714.3134, 16090.32
714.7955, 16064.69
715.2776, 16044.70
715.7598, 16029.09
716.2419, 16017.38
716.7240, 16015.60
717.2061, 16033.75
717.6882, 16053.35
718.1703, 16067.29
718.6525, 16073.82
719.1346, 16064.27
719.6167, 16041.08
720.0988, 16030.59
720.5809, 16066.95
721.0630, 16121.50
721.5452, 16105.50
722.0273, 16021.14
722.5094, 15972.75
722.9915, 15991.90
723.4736, 16023.42
723.9557, 16016.30
724.4379, 15977.74
724.9200, 15960.57
725.4021, 15989.63
725.8842, 16005.74
726.3663, 15990.39
726.8484, 15976.60
727.3306, 15995.02
727.8127, 16029.23
728.2948, 16040.14
728.7769, 16010.95
729.2590, 15972.76
729.7411, 15938.36
730.2233, 15915.48
730.7054, 15925.36
731.1875, 15961.29
731.6696, 15986.76
732.1517, 15984.73
732.6339, 15971.66
733.1160, 15975.14
733.5981, 15996.88
734.0802, 15991.56
734.5623, 15940.44
735.0444, 15908.73
735.5266, 15933.49
736.0087, 15975.72
736.4908, 15989.13
736.9729, 15974.56
737.4550, 15962.05
737.9371, 15960.84
738.4193, 15956.32
738.9014, 15937.50
739.3835, 15915.77
739.8656, 15901.77
740.3477, 15897.38
740.8298, 15901.82
741.3120, 15916.38
741.7941, 15935.14
742.2762, 15955.77
742.7583, 15973.89
743.2404, 15965.16
743.7225, 15925.75
744.2047, 15888.19
744.6868, 15871.87
745.1689, 15873.00
745.6510, 15884.38
746.1331, 15915.41
746.6152, 15929.58
747.0974, 15916.04
747.5795, 15898.60
748.0616, 15879.50
748.5437, 15864.60
749.0258, 15864.05
749.5079, 15879.53
749.9901, 15891.00
750.4722, 15894.65
750.9543, 15888.30
751.4364, 15862.87
751.9185, 15829.32
752.4006, 15798.72
752.8828, 15777.17
753.3649, 15782.15
753.8470, 15837.48
754.3291, 15913.73
754.8112, 15935.94
755.2933, 15906.15
755.7755, 15875.44
756.2576, 15852.12
756.7397, 15831.66
757.2218, 15810.16
757.7039, 15789.27
758.1860, 15774.73
758.6682, 15767.16
759.1503, 15765.14
759.6324, 15776.04
760.1145, 15784.06
760.5966, 15786.53
761.0787, 15780.13
761.5609, 15750.95
762.0430, 15694.61
762.5251, 15666.17
763.0072, 15724.28
763.4893, 15795.44
763.9714, 15812.39
764.4536, 15789.33
764.9357, 15748.38
765.4178, 15701.23
765.8999, 15679.86
766.3820, 15723.24
766.8641, 15801.40
767.3463, 15818.09
767.8284, 15771.35
768.3105, 15730.82
768.7926, 15707.57
769.2747, 15698.97
769.7568, 15707.92
770.2390, 15728.09
770.7211, 15736.75
771.2032, 15731.77
771.6853, 15718.50
772.1674, 15678.35
772.6495, 15650.45
773.1317, 15660.37
773.6138, 15689.71
774.0959, 15713.53
774.5780, 15726.97
775.0601, 15732.14
775.5422, 15729.89
776.0244, 15720.06
776.5065, 15697.21
776.9886, 15668.17
777.4707, 15646.88
777.9528, 15635.87
778.4349, 15626.00
778.9171, 15609.04
779.3992, 15589.46
779.8813, 15578.08
780.3634, 15574.85
780.8455, 15580.35
781.3276, 15595.29
781.8098, 15618.27
782.2919, 15656.05
782.7740, 15693.93
783.2561, 15687.36
783.7382, 15593.92
784.2203, 15558.60
784.7025, 15643.40
785.1846, 15712.38
785.6667, 15705.29
786.1488, 15665.33
786.6309, 15644.99
787.1130, 15650.43
787.5952, 15656.27
788.0773, 15656.13
788.5594, 15649.06
789.0415, 15629.23
789.5236, 15604.61
790.0057, 15589.92
790.4879, 15584.16
790.9700, 15567.88
791.4521, 15523.02
791.9342, 15480.87
792.4163, 15506.74
792.8984, 15586.78
793.3806, 15649.13
793.8627, 15687.01
794.3448, 15683.82
794.8269, 15621.64
795.3090, 15539.21
795.7911, 15509.45
796.2733, 15543.77
796.7554, 15555.64
797.2375, 15524.80
797.7196, 15504.35
798.2017, 15518.80
798.6838, 15542.84
799.1660, 15556.36
799.6481, 15559.97
800.1302, 15563.05
800.6123, 15569.24
801.0944, 15572.67
801.5765, 15570.84
802.0587, 15565.69
802.5408, 15558.71
803.0229, 15549.93
803.5050, 15539.87
803.9871, 15529.00
804.4692, 15512.35
804.9514, 15467.20
805.4335, 15420.50
805.9156, 15435.86
806.3977, 15502.80
806.8798, 15564.72
807.3619, 15602.02
807.8441, 15609.13
808.3262, 15573.50
808.8083, 15505.00
809.2904, 15464.74
809.7725, 15457.15
810.2546, 15456.46
810.7368, 15465.09
811.2189, 15464.23
811.7010, 15425.45
812.1831, 15370.38
812.6652, 15375.16
813.1473, 15497.74
813.6295, 15556.27
814.1116, 15480.33
814.5937, 15414.46
815.0758, 15433.39
815.5579, 15490.02
816.0400, 15525.54
816.5222, 15530.68
817.0043, 15521.36
817.4864, 15493.52
817.9685, 15465.83
818.4506, 15458.76
818.9327, 15457.24
819.4149, 15432.39
819.8970, 15387.99
820.3791, 15356.47
820.8612, 15357.30
821.3433, 15377.26
821.8254, 15399.57
822.3076, 15424.50
822.7897, 15460.41
823.2718, 15506.38
823.7539, 15525.54
824.2360, 15500.40
824.7181, 15452.17
825.2003, 15403.98
825.6824, 15356.66
826.1645, 15342.51
826.6466, 15379.92
827.1287, 15400.71
827.6108, 15383.59
828.0930, 15356.06
828.5751, 15329.90
829.0572, 15310.36
829.5393, 15318.05
830.0214, 15380.01
830.5035, 15413.25
830.9857, 15382.27
831.4678, 15347.08
831.9499, 15340.98
832.4320, 15349.63
832.9141, 15347.63
833.3962, 15331.86
833.8784, 15327.20
834.3605, 15356.11
834.8426, 15392.43
835.3247, 15422.25
835.8068, 15441.15
836.2889, 15439.18
836.7711, 15418.15
837.2532, 15388.25
837.7353, 15353.96
838.2174, 15324.44
838.6995, 15317.39
839.1816, 15326.52
839.6638, 15322.71
840.1459, 15305.56
840.6280, 15305.07
841.1101, 15334.75
841.5922, 15370.52
842.0743, 15384.53
842.5565, 15377.94
843.0386, 15361.71
843.5207, 15327.70
844.0028, 15313.19
844.4849, 15338.37
844.9670, 15360.61
845.4492, 15342.23
845.9313, 15301.04
846.4134, 15290.10
846.8955, 15325.29
847.3776, 15346.54
847.8597, 15341.04
848.3419, 15333.36
848.8240, 15329.95
849.3061, 15331.17
849.7882, 15342.61
850.2703, 15361.26
850.7524, 15365.18
851.2346, 15336.50
851.7167, 15304.02
852.1988, 15279.14
852.6809, 15262.97
853.1630, 15260.90
853.6451, 15268.45
854.1273, 15272.61
854.6094, 15267.99
855.0915, 15267.02
855.5736, 15290.20
856.0557, 15321.50
856.5378, 15328.04
857.0200, 15314.80
857.5021, 15302.20
857.9842, 15295.69
858.4663, 15293.03
858.9484, 15292.88
859.4305, 15293.83
859.9127, 15293.03
860.3948, 15290.57
860.8769, 15278.74
861.3590, 15253.45
861.8411, 15239.72
862.3232, 15256.04
862.8054, 15276.58
863.2875, 15255.98
863.7696, 15188.53
864.2517, 15167.89
864.7338, 15229.01
865.2159, 15273.36
865.6981, 15268.30
866.1802, 15255.33
866.6623, 15269.82
867.1444, 15299.46
867.6265, 15309.07
868.1086, 15291.16
868.5908, 15266.44
869.0729, 15211.44
869.5550, 15180.00
870.0371, 15238.53
870.5192, 15313.84
871.0013, 15293.84
871.4835, 15179.71
871.9656, 15103.55
872.4477, 15153.93
872.9298, 15220.38
873.4119, 15232.14
873.8940, 15215.66
874.3762, 15196.28
874.8583, 15178.49
875.3404, 15159.71
875.8225, 15139.15
876.3046, 15128.52
876.7867, 15150.84
877.2689, 15185.15
877.7510, 15188.14
878.2331, 15168.41
878.7152, 15156.80
879.1973, 15160.13
879.6794, 15172.22
880.1616, 15189.84
880.6437, 15207.60
881.1258, 15213.82
881.6079, 15208.82
882.0900, 15197.34
882.5721, 15179.00
883.0543, 15159.73
883.5364, 15139.76
884.0185, 15128.26
884.5006, 15139.98
884.9827, 15172.01
885.4648, 15182.33
885.9470, 15160.26
886.4291, 15148.08
886.9112, 15158.53
887.3933, 15167.79
887.8754, 15157.46
888.3575, 15138.07
888.8397, 15133.10
889.3218, 15147.69
889.8039, 15157.96
890.2860, 15162.65
890.7681, 15164.68
891.2502, 15170.13
891.7324, 15168.84
892.2145, 15144.88
892.6966, 15105.97
893.1787, 15082.03
893.6608, 15086.65
894.1429, 15089.25
894.6251, 15069.50
895.1072, 15054.85
895.5893, 15071.92
896.0714, 15102.32
896.5535, 15116.57
897.0356, 15110.80
897.5178, 15104.27
897.9999, 15104.90
898.4820, 15111.86
898.9641, 15134.14
899.4462, 15156.30
899.9283, 15155.91
900.4105, 15135.84
900.8926, 15105.57
901.3747, 15069.71
901.8568, 15048.99
902.3389, 15077.67
902.8210, 15127.73
903.3032, 15150.45
903.7853, 15150.02
904.2674, 15132.54
904.7495, 15103.15
905.2316, 15087.96
905.7137, 15104.46
906.1959, 15138.59
906.6780, 15171.55
907.1601, 15201.35
907.6422, 15215.36
908.1243, 15213.17
908.6064, 15179.91
909.0886, 15106.37
909.5707, 15040.89
910.0528, 15030.99
910.5349, 15064.84
911.0170, 15103.25
911.4991, 15153.20
911.9813, 15150.55
912.4634, 15066.17
912.9455, 15015.67
913.4276, 15071.21
913.9097, 15155.13
914.3918, 15153.69
914.8740, 15066.24
915.3561, 15026.90
915.8382, 15063.97
916.3203, 15091.87
916.8024, 15103.60
917.2845, 15097.96
917.7667, 15049.64
918.2488, 14992.09
918.7309, 15005.19
919.2130, 15114.45
919.6951, 15173.76
920.1772, 15134.98
920.6594, 15102.97
921.1415, 15118.83
921.6237, 15139.43
922.1058, 15122.75
922.5879, 15082.01
923.0700, 15063.65
923.5521, 15086.56
924.0342, 15096.81
924.5164, 15060.71
924.9985, 15029.62
925.4806, 15036.10
925.9627, 15060.17
926.4448, 15081.07
926.9269, 15094.74
927.4091, 15100.86
927.8912, 15097.90
928.3733, 15090.43
928.8554, 15075.82
929.3375, 15062.45
929.8196, 15063.16
930.3018, 15068.92
930.7839, 15058.48
931.2660, 15030.09
931.7481, 15010.29
932.2302, 15023.94
932.7123, 15040.38
933.1945, 15022.82
933.6766, 14993.19
934.1587, 14985.04
934.6408, 14995.23
935.1229, 15006.51
935.6050, 15011.84
936.0872, 15007.23
936.5693, 14981.43
937.0514, 14949.84
937.5335, 14937.99
938.0156, 14940.78
938.4977, 14942.81
938.9799, 14944.49
939.4620, 14966.28
939.9441, 15019.63
940.4262, 15069.78
940.9083, 15068.31
941.3904, 15028.11
941.8726, 14977.59
942.3547, 14922.65
942.8368, 14899.19
943.3189, 14913.95
943.8010, 14951.05
944.2831, 15003.99
944.7653, 15049.41
945.2474, 15028.91
945.7295, 14953.12
946.2116, 14934.76
946.6937, 14975.47
947.1758, 15008.44
947.6580, 15014.94
948.1401, 15011.84
948.6222, 15013.19
949.1043, 15015.00
949.5864, 15000.11
950.0685, 14965.21
950.5507, 14973.08
951.0328, 15037.93
951.5149, 15064.94
951.9970, 15010.84
952.4791, 14941.13
952.9612, 14919.64
953.4434, 14940.09
953.9255, 14978.37
954.4076, 15044.93
954.8897, 15080.75
955.3718, 15073.83
955.8539, 15061.67
956.3361, 15062.94
956.8182, 15059.24
957.3003, 15020.82
957.7824, 14953.80
958.2645, 14934.03
958.7466, 14986.87
959.2288, 15022.52
959.7109, 15026.31
960.1930, 15025.63
960.6751, 15032.64
961.1572, 15042.99
961.6393, 15050.75
962.1215, 15055.86
962.6036, 15061.09
963.0857, 15077.33
963.5678, 15073.86
964.0499, 15022.96
964.5320, 14981.80
965.0142, 14985.42
965.4963, 15014.81
965.9784, 15044.76
966.4605, 15077.48
966.9426, 15089.18
967.4247, 15059.30
967.9069, 15037.64
968.3890, 15042.42
968.8711, 15045.37
969.3532, 15028.67
969.8353, 14999.07
970.3174, 14963.91
970.7996, 14918.57
971.2817, 14902.71
971.7638, 14946.79
972.2459, 14983.86
972.7280, 14996.44
973.2101, 14998.40
973.6923, 14995.71
974.1744, 14990.84
974.6565, 14988.60
975.1386, 14990.69
975.6207, 14987.75
976.1028, 14972.83
976.5850, 14959.54
977.0671, 14947.90
977.5492, 14943.63
978.0313, 14964.27
978.5134, 14993.27
978.9955, 14986.17
979.4777, 14926.18
979.9598, 14883.36
980.4419, 14883.66
980.9240, 14894.76
981.4061, 14916.33
981.8882, 14931.66
982.3704, 14915.64
982.8525, 14882.51
983.3346, 14874.10
983.8167, 14903.87
984.2988, 14933.81
984.7809, 14972.12
985.2631, 14982.95
985.7452, 14919.28
986.2273, 14842.47
986.7094, 14811.32
987.1915, 14821.55
987.6736, 14848.72
988.1558, 14895.15
988.6379, 14917.06
989.1200, 14859.84
989.6021, 14818.24
990.0842, 14879.01
990.5663, 14956.76
991.0485, 14952.85
991.5306, 14882.20
992.0127, 14816.04
992.4948, 14768.69
992.9769, 14754.00
993.4590, 14808.71
993.9412, 14861.96
994.4233, 14872.33
994.9054, 14857.98
995.3875, 14827.00
995.8696, 14792.34
996.3517, 14788.92
996.8339, 14836.67
997.3160, 14869.89
997.7981, 14843.87
998.2802, 14811.32
998.7623, 14801.98
999.2444, 14806.01
999.7266, 14817.17
1000.209, 14829.48
1000.691, 14831.30
1001.173, 14819.49
1001.655, 14795.11
1002.137, 14728.01
1002.619, 14683.42
1003.101, 14741.02
1003.583, 14815.35
1004.066, 14793.58
1004.548, 14698.08
1005.030, 14633.46
1005.512, 14632.38
1005.994, 14654.33
1006.476, 14716.10
1006.958, 14755.27
1007.440, 14699.29
1007.923, 14625.84
1008.405, 14635.36
1008.887, 14705.53
1009.369, 14740.66
1009.851, 14708.76
1010.333, 14670.13
1010.815, 14633.94
1011.297, 14618.03
1011.779, 14658.64
1012.262, 14704.93
1012.744, 14693.50
1013.226, 14641.85
1013.708, 14611.54
1014.190, 14620.92
1014.672, 14636.86
1015.154, 14662.78
1015.636, 14671.84
1016.119, 14634.35
1016.601, 14586.23
1017.083, 14555.05
1017.565, 14544.72
1018.047, 14561.50
1018.529, 14612.03
1019.011, 14645.11
1019.493, 14635.71
1019.975, 14614.32
1020.458, 14584.12
1020.940, 14557.05
1021.422, 14545.03
1021.904, 14543.76
1022.386, 14539.38
1022.868, 14527.57
1023.350, 14534.16
1023.832, 14599.50
1024.314, 14640.67
1024.797, 14607.56
1025.279, 14558.03
1025.761, 14529.20
1026.243, 14519.79
1026.725, 14522.19
1027.207, 14535.75
1027.689, 14553.79
1028.171, 14588.55
1028.654, 14608.62
1029.136, 14591.67
1029.618, 14571.65
1030.100, 14576.82
1030.582, 14591.29
1031.064, 14582.46
1031.546, 14546.86
1032.028, 14530.05
1032.510, 14554.29
1032.993, 14573.42
1033.475, 14579.75
1033.957, 14578.71
1034.439, 14573.06
1034.921, 14561.93
1035.403, 14536.09
1035.885, 14496.21
1036.367, 14487.18
1036.849, 14545.89
1037.332, 14581.03
1037.814, 14573.51
1038.296, 14557.40
1038.778, 14543.17
1039.260, 14530.02
1039.742, 14518.33
1040.224, 14507.46
1040.706, 14490.93
1041.189, 14458.26
1041.671, 14440.87
1042.153, 14447.04
1042.635, 14455.29
1043.117, 14457.00
1043.599, 14459.59
1044.081, 14473.80
1044.563, 14494.61
1045.046, 14497.70
1045.528, 14473.49
1046.010, 14461.47
1046.492, 14467.47
1046.974, 14469.68
1047.456, 14455.35
1047.938, 14450.15
1048.420, 14482.59
1048.902, 14532.30
1049.385, 14539.98
1049.867, 14497.06
1050.349, 14478.51
1050.831, 14492.83
1051.313, 14489.84
1051.795, 14452.06
1052.277, 14419.25
1052.759, 14419.99
1053.242, 14437.85
1053.724, 14440.93
1054.206, 14430.33
1054.688, 14434.22
1055.170, 14453.67
1055.652, 14471.62
1056.134, 14485.95
1056.616, 14486.29
1057.099, 14465.96
1057.581, 14435.63
1058.063, 14408.60
1058.545, 14384.95
1059.027, 14362.45
1059.509, 14342.64
1059.991, 14342.02
1060.473, 14361.25
1060.955, 14383.83
1061.438, 14402.96
1061.920, 14419.04
1062.402, 14432.71
1062.884, 14443.22
1063.366, 14448.64
1063.848, 14449.58
1064.330, 14442.89
1064.812, 14432.92
1065.294, 14443.36
1065.777, 14477.69
1066.259, 14502.81
1066.741, 14491.19
1067.223, 14470.77
1067.705, 14488.05
1068.187, 14515.59
1068.669, 14496.01
1069.151, 14450.28
1069.634, 14437.96
1070.116, 14461.39
1070.598, 14471.00
1071.080, 14439.38
1071.562, 14403.47
1072.044, 14392.58
1072.526, 14395.31
1073.008, 14402.84
1073.490, 14414.61
1073.973, 14439.59
1074.455, 14467.66
1074.937, 14464.75
1075.419, 14418.46
1075.901, 14384.67
1076.383, 14410.63
1076.865, 14436.53
1077.347, 14417.31
1077.829, 14391.73
1078.312, 14399.12
1078.794, 14425.63
1079.276, 14440.67
1079.758, 14439.87
1080.240, 14441.02
1080.722, 14458.45
1081.204, 14464.67
1081.686, 14451.11
1082.169, 14426.46
1082.651, 14386.71
1083.133, 14344.39
1083.615, 14308.24
1084.097, 14281.41
1084.579, 14282.43
1085.061, 14334.75
1085.543, 14370.66
1086.026, 14383.88
1086.508, 14389.70
1086.990, 14395.73
1087.472, 14390.61
1087.954, 14356.08
1088.436, 14309.08
1088.918, 14297.07
1089.400, 14326.93
1089.882, 14343.99
1090.365, 14348.16
1090.847, 14334.95
1091.329, 14293.25
1091.811, 14273.43
1092.293, 14311.25
1092.775, 14367.83
1093.257, 14385.22
1093.739, 14369.49
1094.221, 14361.73
1094.704, 14361.79
1095.186, 14340.56
1095.668, 14295.55
1096.150, 14274.92
1096.632, 14297.27
1097.114, 14319.98
1097.596, 14300.02
1098.078, 14263.45
1098.561, 14266.43
1099.043, 14295.63
1099.525, 14312.26
1100.007, 14316.09
1100.489, 14314.89
1100.971, 14310.35
1101.453, 14300.39
1101.935, 14283.73
1102.417, 14261.77
1102.900, 14227.23
1103.382, 14196.02
1103.864, 14190.68
1104.346, 14201.67
1104.828, 14215.72
1105.310, 14230.59
1105.792, 14252.00
1106.274, 14280.61
1106.756, 14289.21
1107.239, 14245.69
1107.721, 14199.37
1108.203, 14161.38
1108.685, 14147.90
1109.167, 14194.79
1109.649, 14262.22
1110.131, 14287.15
1110.613, 14269.14
1111.096, 14262.42
1111.578, 14297.07
1112.060, 14303.64
1112.542, 14240.64
1113.024, 14186.42
1113.506, 14174.72
1113.988, 14179.30
1114.470, 14177.30
1114.953, 14174.93
1115.435, 14190.20
1115.917, 14227.83
1116.399, 14251.38
1116.881, 14260.29
1117.363, 14255.38
1117.845, 14233.44
1118.327, 14205.16
1118.809, 14171.21
1119.292, 14148.86
1119.774, 14167.42
1120.256, 14210.72
1120.738, 14190.43
1121.220, 14109.88
1121.702, 14083.11
1122.184, 14115.46
1122.666, 14153.58
1123.148, 14180.45
1123.631, 14185.59
1124.113, 14158.73
1124.595, 14122.17
1125.077, 14118.45
1125.559, 14126.08
1126.041, 14083.19
1126.523, 14017.57
1127.005, 14001.01
1127.488, 14035.37
1127.970, 14089.36
1128.452, 14149.37
1128.934, 14190.75
1129.416, 14191.88
1129.898, 14171.32
1130.380, 14122.25
1130.862, 14078.76
1131.344, 14077.18
1131.827, 14103.81
1132.309, 14147.15
1132.791, 14195.51
1133.273, 14200.79
1133.755, 14127.50
1134.237, 14067.97
1134.719, 14038.47
1135.201, 14035.05
1135.683, 14089.47
1136.166, 14138.07
1136.648, 14107.04
1137.130, 14041.99
1137.612, 14044.96
1138.094, 14125.06
1138.576, 14147.55
1139.058, 14086.53
1139.540, 14047.49
1140.023, 14049.90
1140.505, 14047.40
1140.987, 14019.35
1141.469, 13980.53
1141.951, 13941.93
1142.433, 13913.62
1142.915, 13933.16
1143.397, 13993.86
1143.880, 14039.46
1144.362, 14066.92
1144.844, 14058.63
1145.326, 14016.95
1145.808, 13993.16
1146.290, 14015.46
1146.772, 14046.02
1147.254, 14041.56
1147.736, 14023.17
1148.219, 14019.97
1148.701, 14023.27
1149.183, 14020.25
1149.665, 14012.06
1150.147, 14008.10
1150.629, 14007.55
1151.111, 13988.71
1151.593, 13923.36
1152.075, 13887.19
1152.558, 13942.47
1153.040, 14003.22
1153.522, 14019.28
1154.004, 14019.44
1154.486, 14042.21
1154.968, 14070.74
1155.450, 14051.63
1155.932, 13971.78
1156.415, 13920.13
1156.897, 13907.36
1157.379, 13899.64
1157.861, 13890.86
1158.343, 13897.51
1158.825, 13939.68
1159.307, 13963.49
1159.789, 13902.53
1160.271, 13797.89
1160.754, 13782.54
1161.236, 13849.82
1161.718, 13870.86
1162.200, 13848.82
1162.682, 13850.93
1163.164, 13886.49
1163.646, 13908.90
1164.128, 13894.90
1164.610, 13869.07
1165.093, 13854.94
1165.575, 13845.84
1166.057, 13829.64
1166.539, 13814.33
1167.021, 13811.99
1167.503, 13820.00
1167.985, 13837.09
1168.467, 13857.98
1168.950, 13861.86
1169.432, 13836.20
1169.914, 13812.28
1170.396, 13796.98
1170.878, 13793.67
1171.360, 13815.28
1171.842, 13838.29
1172.324, 13842.80
1172.807, 13837.05
1173.289, 13838.16
1173.771, 13845.54
1174.253, 13842.01
1174.735, 13823.47
1175.217, 13806.81
1175.699, 13793.31
1176.181, 13777.39
1176.663, 13754.93
1177.146, 13743.91
1177.628, 13759.59
1178.110, 13785.63
1178.592, 13795.66
1179.074, 13791.02
1179.556, 13766.89
1180.038, 13733.75
1180.520, 13731.43
1181.002, 13758.84
1181.485, 13801.84
1181.967, 13849.86
1182.449, 13862.46
1182.931, 13802.48
1183.413, 13735.25
1183.895, 13705.71
1184.377, 13701.43
1184.859, 13727.96
1185.342, 13761.12
1185.824, 13778.50
1186.306, 13778.67
1186.788, 13762.62
1187.270, 13729.53
1187.752, 13697.45
1188.234, 13652.98
1188.716, 13636.94
1189.198, 13669.06
1189.681, 13700.49
1190.163, 13720.25
1190.645, 13718.11
1191.127, 13675.40
1191.609, 13621.51
1192.091, 13632.84
1192.573, 13702.16
1193.055, 13719.11
1193.537, 13689.07
1194.020, 13667.36
1194.502, 13660.59
1194.984, 13655.74
1195.466, 13647.94
1195.948, 13640.55
1196.430, 13635.53
1196.912, 13634.05
1197.394, 13643.74
1197.877, 13651.55
1198.359, 13631.53
1198.841, 13607.89
1199.323, 13628.26
1199.805, 13672.36
1200.287, 13669.63
1200.769, 13604.05
1201.251, 13568.20
1201.734, 13603.82
1202.216, 13640.18
1202.698, 13686.30
1203.180, 13702.35
1203.662, 13655.02
1204.144, 13601.56
1204.626, 13590.07
1205.108, 13607.47
1205.590, 13627.42
1206.073, 13649.09
1206.555, 13651.11
1207.037, 13634.51
1207.519, 13622.39
1208.001, 13616.59
1208.483, 13603.85
1208.965, 13580.52
1209.447, 13560.89
1209.929, 13555.25
1210.412, 13558.39
1210.894, 13574.28
1211.376, 13586.16
1211.858, 13573.43
1212.340, 13546.24
1212.822, 13504.03
1213.304, 13464.31
1213.786, 13466.63
1214.269, 13515.43
1214.751, 13556.34
1215.233, 13583.41
1215.715, 13591.39
1216.197, 13566.27
1216.679, 13543.66
1217.161, 13534.13
1217.643, 13527.28
1218.125, 13513.80
1218.608, 13503.22
1219.090, 13515.82
1219.572, 13543.94
1220.054, 13535.63
1220.536, 13497.77
1221.018, 13483.66
1221.500, 13494.93
1221.982, 13523.27
1222.464, 13560.06
1222.947, 13565.38
1223.429, 13514.09
1223.911, 13464.68
1224.393, 13475.60
1224.875, 13500.41
1225.357, 13513.89
1225.839, 13510.92
1226.321, 13469.23
1226.804, 13418.72
1227.286, 13413.33
1227.768, 13447.34
1228.250, 13451.88
1228.732, 13404.08
1229.214, 13385.54
1229.696, 13416.07
1230.178, 13419.33
1230.661, 13371.28
1231.143, 13337.56
1231.625, 13351.81
1232.107, 13383.25
1232.589, 13400.85
1233.071, 13406.98
1233.553, 13403.75
1234.035, 13394.50
1234.517, 13393.07
1235.000, 13391.72
1235.482, 13357.62
1235.964, 13304.22
1236.446, 13290.91
1236.928, 13333.59
1237.410, 13380.81
1237.892, 13419.49
1238.374, 13436.80
1238.856, 13413.30
1239.339, 13385.47
1239.821, 13361.28
1240.303, 13351.48
1240.785, 13377.21
1241.267, 13411.49
1241.749, 13399.67
1242.231, 13347.22
1242.713, 13332.81
1243.196, 13359.43
1243.678, 13362.43
1244.160, 13338.70
1244.642, 13317.50
1245.124, 13307.09
##END=



