##NAMES=Sampleite
##RRUFFID=R090072
##IDEAL CHEMISTRY=NaCaCu^2+^_5_(P^5+^O_4_)_4_Cl&#183;5H_2_O
##LOCALITY=Engaño Feliz mine, Las Pintadas dist., Tierra Amarilla, Copiapó Province, Chile
##OWNER=RRUFF
##SOURCE=Bob Jenkins
##DESCRIPTION=Blue bladed crystals in radial aggregates associated with elongated, forest-green libethenite and dark-green atacamite. This is the polymorph or polytype described in Giester et al (2007)
##STATUS=The identification of this mineral has been confirmed by single-crystal X-ray diffraction.
##URL=rruff.info/R090072
92.07813, 8.147788
92.56024, 8.339044
93.04236, 8.208564
93.52448, 7.834851
94.00659, 7.508246
94.48871, 7.585143
94.97083, 7.843100
95.45294, 7.577834
95.93506, 6.537968
96.41718, 5.297044
96.89929, 4.915848
97.38141, 5.406670
97.86353, 6.106654
98.34564, 6.537426
98.82776, 6.708161
99.30988, 7.084033
99.79199, 7.990986
100.2741, 9.070992
100.7562, 8.606917
101.2383, 6.017687
101.7205, 3.496028
102.2026, 3.327858
102.6847, 6.263150
103.1668, 8.653440
103.6489, 9.612030
104.1310, 9.094399
104.6132, 8.870052
105.0953, 9.175963
105.5774, 9.553033
106.0595, 9.492054
106.5416, 9.196662
107.0237, 8.107950
107.5059, 5.517572
107.9880, -1.7810090E-02
108.4701, -2.444139
108.9522, 0.1454096
109.4343, 5.465938
109.9164, 9.429203
110.3986, 13.09232
110.8807, 14.42583
111.3628, 12.29435
111.8449, 1.706866
112.3270, -4.217868
112.8091, -1.584063
113.2913, 6.709456
113.7734, 12.49215
114.2555, 12.58121
114.7376, 11.12477
115.2197, 10.31541
115.7018, 10.90344
116.1840, 11.75877
116.6661, 12.58596
117.1482, 13.42816
117.6303, 14.50462
118.1124, 16.12207
118.5945, 17.92630
119.0767, 19.59854
119.5588, 21.35929
120.0409, 22.72268
120.5230, 22.59570
121.0051, 21.12386
121.4872, 21.21875
121.9694, 25.89325
122.4515, 32.97891
122.9336, 39.49790
123.4157, 43.51421
123.8978, 46.74851
124.3799, 50.18536
124.8621, 53.75595
125.3442, 58.91317
125.8263, 67.89671
126.3084, 79.56416
126.7905, 91.16973
127.2726, 101.5500
127.7548, 110.8604
128.2369, 118.9162
128.7190, 125.4207
129.2011, 131.7893
129.6832, 140.1936
130.1653, 150.2372
130.6474, 160.0139
131.1296, 168.1429
131.6117, 174.9855
132.0938, 181.9786
132.5759, 189.1233
133.0580, 196.7856
133.5401, 205.4367
134.0223, 215.1070
134.5044, 225.8269
134.9865, 237.5359
135.4686, 250.3613
135.9507, 264.1657
136.4328, 278.4709
136.9150, 294.2758
137.3971, 314.9938
137.8792, 341.3967
138.3613, 370.1086
138.8434, 400.4138
139.3255, 433.5688
139.8077, 460.2381
140.2898, 480.6602
140.7719, 493.8855
141.2540, 491.1634
141.7361, 468.8142
142.2182, 436.6989
142.7004, 402.3293
143.1825, 362.6043
143.6646, 328.9522
144.1467, 305.2213
144.6288, 291.5931
145.1109, 279.7636
145.5931, 269.3542
146.0752, 260.9531
146.5573, 255.3154
147.0394, 254.3143
147.5215, 253.4398
148.0036, 251.5063
148.4858, 247.9775
148.9679, 245.3794
149.4500, 243.3908
149.9321, 242.4312
150.4142, 243.1652
150.8963, 247.7298
151.3785, 252.0196
151.8606, 254.6904
152.3427, 254.6757
152.8248, 255.6670
153.3069, 257.7206
153.7890, 260.8319
154.2712, 264.2603
154.7533, 268.0591
155.2354, 271.7844
155.7175, 275.0109
156.1996, 278.2124
156.6817, 279.8474
157.1639, 278.3314
157.6460, 275.1317
158.1281, 273.4373
158.6102, 275.2137
159.0923, 277.6728
159.5744, 279.4382
160.0566, 279.8779
160.5387, 280.2555
161.0208, 280.9696
161.5029, 281.8968
161.9850, 282.6702
162.4671, 283.3868
162.9493, 283.7920
163.4314, 283.7095
163.9135, 282.9811
164.3956, 281.9299
164.8777, 280.7004
165.3598, 279.2682
165.8420, 277.5250
166.3241, 274.2206
166.8062, 271.1112
167.2883, 269.8517
167.7704, 272.7677
168.2525, 275.7278
168.7346, 276.1411
169.2168, 274.2807
169.6989, 271.8547
170.1810, 269.7401
170.6631, 267.6800
171.1452, 265.3656
171.6273, 262.8600
172.1095, 259.9678
172.5916, 256.2781
173.0737, 251.8603
173.5558, 247.5011
174.0379, 243.4181
174.5201, 239.8282
175.0022, 236.9947
175.4843, 234.3959
175.9664, 232.9254
176.4485, 233.9317
176.9306, 237.3640
177.4128, 241.8940
177.8949, 246.7218
178.3770, 251.7826
178.8591, 257.0439
179.3412, 261.4630
179.8233, 266.4090
180.3055, 274.6391
180.7876, 286.3693
181.2697, 298.7784
181.7518, 309.0258
182.2339, 317.6683
182.7160, 326.8732
183.1982, 337.8511
183.6803, 349.9156
184.1624, 361.5320
184.6445, 372.6170
185.1266, 383.4241
185.6087, 394.4400
186.0909, 405.6043
186.5730, 415.9727
187.0551, 424.3816
187.5372, 431.6141
188.0193, 440.6748
188.5014, 451.7184
188.9836, 463.9499
189.4657, 476.3285
189.9478, 488.8784
190.4299, 503.3365
190.9120, 520.8965
191.3941, 541.0313
191.8763, 562.1526
192.3584, 584.7982
192.8405, 606.4675
193.3226, 625.4388
193.8047, 641.6391
194.2868, 652.2548
194.7690, 657.0334
195.2511, 655.7460
195.7332, 645.0445
196.2153, 624.2437
196.6974, 595.5959
197.1795, 562.1116
197.6617, 523.3371
198.1438, 483.9213
198.6259, 444.5813
199.1080, 405.4572
199.5901, 371.4997
200.0722, 343.2732
200.5544, 319.7773
201.0365, 300.2981
201.5186, 285.1061
202.0007, 271.3925
202.4828, 257.6759
202.9649, 243.8118
203.4471, 232.1115
203.9292, 223.0177
204.4113, 215.4268
204.8934, 206.8596
205.3755, 196.9815
205.8576, 187.7893
206.3398, 180.4198
206.8219, 175.1426
207.3040, 169.8045
207.7861, 164.3021
208.2682, 158.8617
208.7503, 153.8206
209.2325, 149.0163
209.7146, 145.2661
210.1967, 143.3053
210.6788, 143.6628
211.1609, 143.1775
211.6430, 141.4970
212.1252, 139.1930
212.6073, 137.5287
213.0894, 136.5626
213.5715, 136.0816
214.0536, 135.9853
214.5357, 136.2430
215.0179, 136.9865
215.5000, 138.1604
215.9821, 139.8532
216.4642, 142.4909
216.9463, 146.6694
217.4284, 150.4672
217.9105, 152.8921
218.3927, 153.2760
218.8748, 154.4313
219.3569, 156.5065
219.8390, 159.2650
220.3211, 162.1829
220.8032, 165.0403
221.2854, 168.5011
221.7675, 173.0548
222.2496, 179.1292
222.7317, 184.8946
223.2138, 190.6307
223.6959, 195.9082
224.1781, 199.7607
224.6602, 201.3747
225.1423, 202.9533
225.6244, 205.6637
226.1065, 210.7370
226.5886, 213.2937
227.0708, 212.5464
227.5529, 209.6929
228.0350, 207.2813
228.5171, 205.9524
228.9992, 203.9520
229.4813, 200.5914
229.9635, 195.6556
230.4456, 190.0492
230.9277, 183.5867
231.4098, 176.6161
231.8919, 169.6361
232.3740, 162.5333
232.8562, 155.6753
233.3383, 149.0221
233.8204, 142.1525
234.3025, 136.9588
234.7846, 134.2114
235.2667, 132.7085
235.7489, 130.2988
236.2310, 126.4262
236.7131, 122.5615
237.1952, 119.0770
237.6773, 115.9731
238.1594, 113.4561
238.6416, 111.6502
239.1237, 110.3538
239.6058, 109.2610
240.0879, 108.3817
240.5700, 107.6821
241.0521, 107.2875
241.5343, 107.4395
242.0164, 106.7791
242.4985, 104.8158
242.9806, 102.3731
243.4627, 100.6804
243.9448, 100.1285
244.4270, 99.66098
244.9091, 99.02391
245.3912, 98.21439
245.8733, 97.23660
246.3554, 96.16685
246.8375, 94.86080
247.3197, 93.00668
247.8018, 89.96146
248.2839, 87.52384
248.7660, 86.18059
249.2481, 86.01499
249.7302, 86.36005
250.2124, 87.58187
250.6945, 88.98124
251.1766, 89.83781
251.6587, 90.28149
252.1408, 89.90019
252.6229, 88.29262
253.1051, 85.30956
253.5872, 83.23986
254.0693, 82.34392
254.5514, 82.02216
255.0335, 81.70479
255.5156, 81.44594
255.9978, 81.04677
256.4799, 80.24401
256.9620, 79.04700
257.4441, 79.00332
257.9262, 80.78479
258.4083, 82.84274
258.8904, 83.55237
259.3726, 81.95432
259.8547, 81.50467
260.3368, 83.44289
260.8189, 87.40959
261.3010, 88.82529
261.7831, 86.36372
262.2653, 83.44353
262.7474, 82.89796
263.2295, 85.56345
263.7116, 88.17232
264.1937, 90.30967
264.6758, 92.04214
265.1580, 93.83527
265.6401, 95.64097
266.1222, 97.57872
266.6043, 99.56112
267.0864, 101.3161
267.5685, 104.2418
268.0507, 108.8914
268.5328, 114.7362
269.0149, 119.6818
269.4970, 123.3241
269.9791, 127.1614
270.4612, 132.2413
270.9434, 138.7622
271.4255, 145.5303
271.9076, 152.7505
272.3897, 160.0517
272.8718, 166.3230
273.3539, 171.1596
273.8361, 176.2818
274.3182, 182.6717
274.8003, 190.4431
275.2824, 198.3717
275.7645, 206.3969
276.2466, 214.5027
276.7288, 222.4913
277.2109, 230.1655
277.6930, 238.5638
278.1751, 247.7589
278.6572, 257.7328
279.1393, 269.6757
279.6215, 283.9019
280.1036, 299.4879
280.5857, 315.1541
281.0678, 330.8296
281.5499, 346.7942
282.0320, 362.9761
282.5142, 379.4113
282.9963, 395.9679
283.4784, 413.0347
283.9605, 429.0601
284.4426, 442.3136
284.9247, 452.7962
285.4069, 460.7397
285.8890, 466.4032
286.3711, 469.5830
286.8532, 469.4457
287.3353, 465.9273
287.8174, 459.4207
288.2996, 449.4864
288.7817, 436.3654
289.2638, 423.2102
289.7459, 410.7770
290.2280, 398.9492
290.7101, 386.9625
291.1923, 374.7373
291.6744, 362.8992
292.1565, 351.7794
292.6386, 341.3601
293.1207, 331.6203
293.6028, 322.6475
294.0850, 314.2231
294.5671, 305.6947
295.0492, 297.0526
295.5313, 288.1462
296.0134, 278.6382
296.4955, 268.8081
296.9777, 259.5595
297.4598, 251.1529
297.9419, 243.3001
298.4240, 235.9155
298.9061, 228.9618
299.3882, 222.0457
299.8704, 215.0640
300.3525, 207.9801
300.8346, 200.3861
301.3167, 192.1404
301.7988, 184.0588
302.2809, 177.0880
302.7631, 171.0067
303.2452, 164.9224
303.7273, 158.2503
304.2094, 151.4093
304.6915, 144.9393
305.1736, 138.7785
305.6558, 133.3445
306.1379, 129.4001
306.6200, 126.3982
307.1021, 123.3237
307.5842, 119.5674
308.0663, 115.6355
308.5485, 111.8561
309.0306, 108.2549
309.5127, 104.9337
309.9948, 102.2029
310.4769, 99.72241
310.9590, 97.04659
311.4412, 93.44576
311.9233, 90.13330
312.4054, 88.13223
312.8875, 87.23577
313.3696, 86.46352
313.8517, 85.38044
314.3339, 84.13749
314.8160, 82.83750
315.2981, 81.43255
315.7802, 80.11202
316.2623, 78.84401
316.7444, 77.72208
317.2266, 76.97660
317.7087, 77.22206
318.1908, 77.53551
318.6729, 77.17855
319.1550, 75.55803
319.6371, 74.57174
320.1193, 75.91747
320.6014, 78.15218
321.0835, 78.92785
321.5656, 75.68430
322.0477, 72.43345
322.5298, 71.05220
323.0120, 72.12388
323.4941, 72.71518
323.9762, 71.85878
324.4583, 70.35963
324.9404, 69.08833
325.4225, 67.91225
325.9047, 67.24240
326.3868, 67.40367
326.8689, 68.42349
327.3510, 69.21375
327.8331, 69.41724
328.3152, 69.53762
328.7974, 69.92449
329.2795, 71.14471
329.7616, 71.96947
330.2437, 72.21156
330.7258, 71.94839
331.2079, 71.57838
331.6901, 70.78661
332.1722, 70.19890
332.6543, 70.12547
333.1364, 70.74303
333.6185, 71.59792
334.1006, 73.02213
334.5828, 74.57808
335.0649, 75.07899
335.5470, 73.77779
336.0291, 72.74184
336.5112, 72.85319
336.9933, 74.39024
337.4755, 75.64148
337.9576, 76.54722
338.4397, 77.22139
338.9218, 77.81857
339.4039, 78.33711
339.8860, 78.76915
340.3681, 79.11227
340.8503, 79.36808
341.3324, 79.60070
341.8145, 79.93187
342.2966, 79.90163
342.7787, 78.77379
343.2608, 76.47606
343.7430, 74.76450
344.2251, 73.93122
344.7072, 73.95161
345.1893, 75.22683
345.6714, 77.90261
346.1535, 80.14650
346.6357, 80.30949
347.1178, 78.74619
347.5999, 77.63205
348.0820, 77.27906
348.5641, 77.26430
349.0462, 76.82192
349.5284, 76.03616
350.0105, 75.52493
350.4926, 75.95197
350.9747, 76.84028
351.4568, 77.10207
351.9389, 76.66348
352.4211, 75.89983
352.9032, 74.80228
353.3853, 73.65791
353.8674, 73.17899
354.3495, 74.42705
354.8316, 75.99507
355.3138, 76.00209
355.7959, 74.58599
356.2780, 73.19618
356.7601, 72.71651
357.2422, 72.88762
357.7243, 73.50052
358.2065, 75.12438
358.6886, 76.20602
359.1707, 75.07334
359.6528, 72.40528
360.1349, 70.24987
360.6170, 69.87840
361.0992, 70.21003
361.5813, 70.68262
362.0634, 71.46280
362.5455, 71.49987
363.0276, 69.59717
363.5097, 66.84251
363.9919, 64.85494
364.4740, 65.68001
364.9561, 65.94349
365.4382, 63.78040
365.9203, 58.81738
366.4024, 55.07993
366.8846, 54.46619
367.3667, 54.77425
367.8488, 54.22141
368.3309, 51.76022
368.8130, 49.37730
369.2951, 46.94735
369.7773, 44.62748
370.2594, 43.47888
370.7415, 44.59967
371.2236, 45.86809
371.7057, 46.32444
372.1878, 45.52605
372.6700, 44.75565
373.1521, 44.02898
373.6342, 43.32933
374.1163, 42.56494
374.5984, 41.47944
375.0805, 40.86635
375.5627, 41.22080
376.0448, 42.69934
376.5269, 43.08885
377.0090, 41.97471
377.4911, 40.50050
377.9732, 39.99648
378.4554, 40.65009
378.9375, 41.00929
379.4196, 40.49958
379.9017, 39.58044
380.3838, 40.10066
380.8659, 42.19342
381.3481, 44.64216
381.8302, 46.84406
382.3123, 48.73003
382.7944, 49.72771
383.2765, 49.70176
383.7586, 48.99073
384.2408, 47.55251
384.7229, 45.62562
385.2050, 44.60372
385.6871, 46.05160
386.1692, 48.67946
386.6513, 50.02021
387.1335, 49.96666
387.6156, 49.42115
388.0977, 48.96672
388.5798, 48.62331
389.0619, 48.43559
389.5440, 48.56122
390.0262, 48.70700
390.5083, 48.52557
390.9904, 48.09303
391.4725, 47.77575
391.9546, 47.85583
392.4367, 48.10536
392.9189, 48.39618
393.4010, 48.84381
393.8831, 48.95771
394.3652, 48.39693
394.8473, 47.36414
395.3294, 46.18150
395.8116, 44.12695
396.2937, 42.68089
396.7758, 42.74831
397.2579, 44.55354
397.7400, 46.04668
398.2221, 46.89234
398.7043, 47.21070
399.1864, 47.09322
399.6685, 46.14585
400.1506, 45.22738
400.6327, 44.32395
401.1148, 43.48553
401.5970, 42.97704
402.0791, 43.16863
402.5612, 43.26772
403.0433, 42.87815
403.5254, 41.72349
404.0075, 40.83229
404.4897, 40.15462
404.9718, 39.78356
405.4539, 39.96407
405.9360, 40.92242
406.4181, 41.76905
406.9002, 42.49820
407.3824, 42.99333
407.8645, 41.77700
408.3466, 38.39937
408.8287, 35.02331
409.3108, 33.68699
409.7929, 34.31596
410.2751, 35.16072
410.7572, 36.14853
411.2393, 36.90772
411.7214, 36.32965
412.2035, 34.58535
412.6856, 33.29981
413.1678, 33.87089
413.6499, 35.48794
414.1320, 36.51267
414.6141, 36.88477
415.0962, 36.57761
415.5783, 34.86963
416.0605, 32.54221
416.5426, 31.07134
417.0247, 31.84620
417.5068, 32.90873
417.9889, 32.13131
418.4710, 29.96393
418.9532, 28.47100
419.4353, 29.25861
419.9174, 30.91404
420.3995, 32.38396
420.8816, 33.56217
421.3637, 34.36444
421.8459, 34.48207
422.3280, 34.26148
422.8101, 34.23139
423.2922, 34.74475
423.7743, 35.25607
424.2564, 35.55700
424.7386, 35.62017
425.2207, 35.77645
425.7028, 36.24674
426.1849, 36.69021
426.6670, 36.89287
427.1491, 36.86724
427.6313, 36.55464
428.1134, 35.66042
428.5955, 34.53573
429.0776, 34.19619
429.5597, 34.99994
430.0418, 35.88009
430.5240, 36.47723
431.0061, 36.78827
431.4882, 36.77693
431.9703, 36.29720
432.4524, 35.81623
432.9345, 35.81026
433.4167, 36.27750
433.8988, 37.22453
434.3809, 38.83838
434.8630, 40.75144
435.3451, 41.92634
435.8272, 42.38867
436.3094, 42.90018
436.7915, 44.07867
437.2736, 45.68249
437.7557, 46.95464
438.2378, 47.73028
438.7199, 48.82273
439.2020, 51.59418
439.6841, 55.26949
440.1663, 58.25977
440.6484, 58.93495
441.1305, 59.37154
441.6126, 61.31480
442.0947, 64.60044
442.5768, 68.19893
443.0590, 71.88379
443.5411, 75.47702
444.0232, 78.78564
444.5053, 81.55775
444.9874, 84.53543
445.4695, 88.04208
445.9517, 91.85728
446.4338, 95.66386
446.9159, 98.74564
447.3980, 102.4770
447.8801, 107.3524
448.3622, 113.4688
448.8444, 119.6112
449.3265, 125.1822
449.8086, 131.3315
450.2907, 138.9798
450.7728, 149.3807
451.2549, 158.5606
451.7371, 165.8666
452.2192, 172.0409
452.7013, 178.5990
453.1834, 185.5161
453.6655, 192.7868
454.1476, 201.1500
454.6298, 210.2153
455.1119, 215.5866
455.5940, 216.9149
456.0761, 216.1698
456.5582, 215.5387
457.0403, 214.6380
457.5225, 211.3408
458.0046, 205.2552
458.4867, 196.6394
458.9688, 185.1777
459.4509, 171.2841
459.9330, 157.1646
460.4152, 143.1536
460.8973, 129.8049
461.3794, 117.8286
461.8615, 107.0950
462.3436, 97.81409
462.8257, 90.90152
463.3079, 85.08813
463.7900, 78.87114
464.2721, 70.20867
464.7542, 62.92600
465.2363, 59.25099
465.7184, 58.20350
466.2006, 57.00193
466.6827, 54.78119
467.1648, 52.42698
467.6469, 50.22355
468.1290, 48.11874
468.6111, 46.47340
469.0933, 45.57963
469.5754, 44.93705
470.0575, 44.06654
470.5396, 42.72007
471.0217, 41.66618
471.5038, 41.09635
471.9860, 40.84873
472.4681, 40.26918
472.9502, 39.17089
473.4323, 38.36775
473.9144, 38.44318
474.3965, 39.35457
474.8787, 39.81719
475.3608, 39.80894
475.8429, 39.45763
476.3250, 38.79749
476.8071, 37.88020
477.2892, 36.89154
477.7714, 35.67064
478.2535, 34.72676
478.7356, 35.26342
479.2177, 36.90938
479.6998, 38.05021
480.1819, 37.29420
480.6641, 35.82410
481.1462, 34.76783
481.6283, 34.21189
482.1104, 34.06922
482.5925, 34.63166
483.0746, 35.43697
483.5568, 36.01078
484.0389, 36.14171
484.5210, 36.09975
485.0031, 36.05410
485.4852, 35.90609
485.9673, 35.34709
486.4495, 33.41490
486.9316, 31.93735
487.4137, 31.67292
487.8958, 32.95081
488.3779, 33.76949
488.8600, 33.79808
489.3422, 33.71799
489.8243, 34.35598
490.3064, 36.24833
490.7885, 36.83475
491.2706, 35.29543
491.7527, 32.66454
492.2349, 31.59649
492.7170, 32.21450
493.1991, 33.05860
493.6812, 33.31267
494.1633, 33.18926
494.6454, 33.84529
495.1276, 35.33624
495.6097, 36.43382
496.0918, 35.30535
496.5739, 33.00880
497.0560, 31.94776
497.5381, 33.11717
498.0203, 34.61667
498.5024, 34.78254
498.9845, 33.98815
499.4666, 33.06355
499.9487, 32.28606
500.4308, 31.58106
500.9130, 30.68032
501.3951, 29.59094
501.8772, 29.28442
502.3593, 31.18546
502.8414, 33.23502
503.3235, 34.07968
503.8057, 32.56952
504.2878, 31.25692
504.7699, 29.97263
505.2520, 29.01202
505.7341, 28.95252
506.2162, 30.28535
506.6984, 31.55996
507.1805, 32.49409
507.6626, 33.06990
508.1447, 32.99588
508.6268, 32.11214
509.1089, 31.17266
509.5911, 30.72549
510.0732, 30.73193
510.5553, 30.72346
511.0374, 30.62658
511.5195, 30.65625
512.0016, 31.47228
512.4838, 32.71824
512.9659, 33.13920
513.4480, 31.61388
513.9301, 29.71992
514.4122, 29.40472
514.8943, 30.36071
515.3765, 31.28707
515.8586, 31.67916
516.3407, 31.60317
516.8228, 30.73647
517.3049, 28.69781
517.7870, 27.82342
518.2692, 30.37984
518.7513, 33.79932
519.2334, 35.60699
519.7155, 33.86032
520.1976, 32.36752
520.6797, 31.49259
521.1619, 31.13990
521.6440, 31.11436
522.1261, 31.69507
522.6082, 32.10182
523.0903, 31.99038
523.5724, 31.34779
524.0546, 30.89635
524.5367, 30.63883
525.0188, 30.57531
525.5009, 30.80232
525.9830, 31.28660
526.4651, 31.67548
526.9473, 31.98675
527.4294, 32.00840
527.9115, 31.01315
528.3936, 29.38194
528.8757, 28.36527
529.3578, 28.94561
529.8400, 30.16583
530.3221, 31.36669
530.8042, 32.44936
531.2863, 32.87782
531.7684, 31.71912
532.2505, 30.19020
532.7327, 29.17864
533.2148, 28.86649
533.6969, 28.91156
534.1790, 29.17657
534.6611, 29.77598
535.1432, 30.84228
535.6254, 33.27113
536.1075, 35.05220
536.5896, 35.77037
537.0717, 35.70288
537.5538, 35.78652
538.0359, 36.16240
538.5181, 36.35174
539.0002, 35.97842
539.4823, 35.06939
539.9644, 34.91087
540.4465, 35.56041
540.9286, 36.66908
541.4108, 38.28770
541.8929, 40.19048
542.3750, 41.20214
542.8571, 40.92689
543.3392, 40.28944
543.8214, 40.42854
544.3035, 41.07311
544.7856, 41.56358
545.2677, 41.20866
545.7498, 40.90812
546.2319, 41.31157
546.7141, 42.36600
547.1962, 43.71018
547.6783, 45.73419
548.1604, 47.58636
548.6425, 48.82276
549.1246, 49.29914
549.6068, 49.40366
550.0889, 48.78540
550.5710, 48.04675
551.0531, 47.69689
551.5352, 47.64258
552.0173, 48.25589
552.4995, 49.89678
552.9816, 52.01897
553.4637, 53.09130
553.9458, 52.93560
554.4279, 52.98913
554.9100, 54.08453
555.3922, 55.85952
555.8743, 56.89147
556.3564, 57.17263
556.8385, 57.03915
557.3206, 56.36037
557.8027, 55.55308
558.2849, 55.46721
558.7670, 56.39568
559.2491, 57.23963
559.7312, 57.03225
560.2133, 56.25421
560.6954, 55.55650
561.1776, 55.68946
561.6597, 55.39276
562.1418, 53.89330
562.6239, 51.54267
563.1060, 49.65927
563.5881, 48.61491
564.0703, 47.86831
564.5524, 47.41887
565.0345, 47.34315
565.5166, 46.51128
565.9987, 44.44267
566.4808, 42.43386
566.9630, 41.60345
567.4451, 42.06281
567.9272, 42.24675
568.4093, 41.99002
568.8914, 41.54293
569.3735, 41.35877
569.8557, 41.33608
570.3378, 40.92149
570.8199, 39.55296
571.3020, 38.10324
571.7841, 38.04624
572.2662, 38.99042
572.7484, 39.49006
573.2305, 38.19701
573.7126, 36.60892
574.1947, 35.71855
574.6768, 35.63479
575.1589, 35.88630
575.6411, 36.54576
576.1232, 37.34692
576.6053, 38.11103
577.0874, 39.01219
577.5695, 39.56007
578.0516, 39.63887
578.5338, 39.43528
579.0159, 39.14990
579.4980, 38.68646
579.9801, 38.49427
580.4622, 38.66111
580.9443, 39.17459
581.4265, 40.13477
581.9086, 41.54032
582.3907, 42.82747
582.8728, 43.56676
583.3549, 43.99355
583.8370, 44.63161
584.3192, 45.48875
584.8013, 46.40632
585.2834, 47.29335
585.7655, 48.17390
586.2476, 49.06665
586.7297, 49.95346
587.2118, 50.92385
587.6939, 52.38850
588.1760, 53.83882
588.6581, 54.62673
589.1403, 53.68012
589.6224, 53.19938
590.1045, 53.54237
590.5866, 54.56911
591.0687, 55.96991
591.5508, 58.19193
592.0330, 59.70272
592.5151, 59.51670
592.9972, 57.87825
593.4793, 58.05786
593.9614, 60.33051
594.4435, 62.34410
594.9257, 61.71459
595.4078, 59.30923
595.8899, 57.79075
596.3720, 57.54493
596.8541, 57.62724
597.3362, 57.06224
597.8184, 56.27752
598.3005, 55.92344
598.7826, 56.34904
599.2647, 57.07159
599.7468, 57.98398
600.2289, 59.02813
600.7111, 60.07979
601.1932, 61.88104
601.6753, 62.84341
602.1574, 62.05404
602.6395, 59.70263
603.1216, 58.49632
603.6038, 58.89933
604.0859, 59.57995
604.5680, 59.76672
605.0501, 59.39946
605.5322, 59.58807
606.0143, 60.42299
606.4965, 61.41494
606.9786, 62.04705
607.4607, 62.41455
607.9428, 62.83410
608.4249, 63.36768
608.9070, 63.97105
609.3892, 64.88319
609.8713, 65.80303
610.3534, 66.18694
610.8355, 65.14271
611.3176, 64.15845
611.7997, 64.07294
612.2819, 64.64970
612.7640, 64.97372
613.2461, 64.09661
613.7282, 63.70510
614.2103, 64.48505
614.6924, 66.48484
615.1746, 68.37299
615.6567, 70.25826
616.1388, 71.79529
616.6209, 72.52991
617.1030, 72.41640
617.5851, 73.11986
618.0673, 74.86926
618.5494, 76.75929
619.0315, 77.26580
619.5136, 76.99038
619.9957, 77.77591
620.4778, 80.53976
620.9600, 83.59179
621.4421, 85.19267
621.9242, 85.92406
622.4063, 86.94736
622.8884, 88.82533
623.3705, 90.98608
623.8527, 92.99821
624.3348, 94.98722
624.8169, 97.92033
625.2990, 103.0420
625.7811, 107.8910
626.2632, 111.3680
626.7454, 113.3434
627.2275, 116.2117
627.7096, 120.2067
628.1917, 124.4833
628.6738, 128.2098
629.1559, 131.4874
629.6381, 135.5353
630.1202, 140.5433
630.6023, 145.9863
631.0844, 151.7437
631.5665, 157.5079
632.0486, 162.5455
632.5308, 166.0600
633.0129, 169.7144
633.4950, 174.4953
633.9771, 180.2353
634.4592, 186.7009
634.9413, 194.5231
635.4235, 202.3213
635.9056, 209.8733
636.3877, 217.1341
636.8698, 223.8049
637.3519, 229.2222
637.8340, 235.0508
638.3162, 242.1581
638.7983, 250.5551
639.2804, 257.8008
639.7625, 263.8529
640.2446, 269.2224
640.7267, 274.3813
641.2089, 279.1867
641.6910, 282.9142
642.1731, 285.4336
642.6552, 287.3597
643.1373, 289.5680
643.6194, 291.3923
644.1016, 291.9085
644.5837, 290.7022
645.0658, 288.4184
645.5479, 285.3509
646.0300, 281.3936
646.5121, 276.4472
646.9943, 269.1142
647.4764, 262.4498
647.9585, 257.3349
648.4406, 253.1537
648.9227, 247.3575
649.4048, 239.5704
649.8870, 231.5049
650.3691, 223.5780
650.8512, 215.8715
651.3333, 208.5259
651.8154, 201.5610
652.2975, 194.5495
652.7797, 186.6508
653.2618, 178.6817
653.7439, 171.7739
654.2260, 166.0737
654.7081, 160.5937
655.1902, 154.6346
655.6724, 148.7932
656.1545, 143.5202
656.6366, 139.0598
657.1187, 134.9360
657.6008, 131.6261
658.0829, 128.3625
658.5651, 124.1853
659.0472, 118.5320
659.5293, 113.5973
660.0114, 109.8954
660.4935, 106.7703
660.9756, 102.5806
661.4578, 97.45035
661.9399, 93.21874
662.4220, 90.99136
662.9041, 89.61669
663.3862, 87.22018
663.8683, 84.04894
664.3505, 81.03531
664.8326, 78.46477
665.3147, 76.45415
665.7968, 75.40140
666.2789, 75.24608
666.7610, 74.67251
667.2432, 72.91697
667.7253, 71.03849
668.2074, 69.58231
668.6895, 68.67483
669.1716, 67.52408
669.6537, 66.02351
670.1359, 64.47160
670.6180, 63.09264
671.1001, 61.89598
671.5822, 60.98223
672.0643, 60.48774
672.5464, 59.67696
673.0286, 56.83915
673.5107, 53.15303
673.9928, 51.17537
674.4749, 52.28794
674.9570, 53.92976
675.4391, 54.65857
675.9213, 54.67550
676.4034, 54.29747
676.8855, 53.11253
677.3676, 52.12130
677.8497, 51.71069
678.3318, 51.65205
678.8140, 51.25375
679.2961, 50.31872
679.7782, 49.50921
680.2603, 49.05964
680.7424, 48.90433
681.2245, 48.72384
681.7067, 48.51735
682.1888, 48.32245
682.6709, 48.31553
683.1530, 48.27553
683.6351, 47.65544
684.1172, 46.49082
684.5994, 45.54267
685.0815, 45.47529
685.5636, 45.69676
686.0457, 45.72738
686.5278, 45.40434
687.0099, 45.29772
687.4921, 46.20161
687.9742, 46.85064
688.4563, 46.15258
688.9384, 43.29140
689.4205, 41.67684
689.9026, 41.69675
690.3848, 42.45792
690.8669, 42.99865
691.3490, 43.29125
691.8311, 43.01105
692.3132, 41.96914
692.7953, 40.64173
693.2775, 39.21685
693.7596, 37.95696
694.2417, 37.37779
694.7238, 38.56804
695.2059, 39.57655
695.6880, 39.30828
696.1702, 38.18142
696.6523, 37.36668
697.1344, 37.07966
697.6165, 37.09708
698.0986, 37.70534
698.5807, 38.63002
699.0629, 38.02365
699.5450, 35.43599
700.0271, 33.39511
700.5092, 33.53850
700.9913, 35.12992
701.4734, 35.67605
701.9556, 35.22363
702.4377, 34.41698
702.9198, 33.13312
703.4019, 32.07450
703.8840, 32.36852
704.3661, 34.17467
704.8483, 35.14172
705.3304, 33.52194
705.8125, 31.36241
706.2946, 30.03776
706.7767, 29.85343
707.2589, 29.81811
707.7410, 30.18411
708.2231, 30.33902
708.7052, 29.48442
709.1873, 27.58310
709.6694, 26.31685
710.1516, 25.87670
710.6337, 25.99683
711.1158, 26.70341
711.5979, 27.68249
712.0800, 28.16736
712.5621, 27.72021
713.0443, 27.26876
713.5264, 27.79717
714.0085, 28.61193
714.4906, 28.68425
714.9727, 26.65882
715.4548, 25.21799
715.9370, 24.82581
716.4191, 25.22629
716.9012, 26.03882
717.3833, 27.53773
717.8654, 28.42024
718.3475, 28.31487
718.8297, 27.36293
719.3118, 25.48613
719.7939, 22.89144
720.2760, 20.93369
720.7581, 20.59462
721.2402, 21.09080
721.7224, 21.94623
722.2045, 23.00783
722.6866, 23.61783
723.1687, 23.21928
723.6508, 22.56199
724.1329, 21.83039
724.6151, 21.04362
725.0972, 20.76584
725.5793, 21.21831
726.0614, 21.80911
726.5435, 22.19150
727.0256, 22.38364
727.5078, 23.15772
727.9899, 24.59948
728.4720, 25.59672
728.9541, 24.76614
729.4362, 23.04115
729.9183, 22.11794
730.4005, 22.18135
730.8826, 22.50009
731.3647, 22.94569
731.8468, 23.25637
732.3289, 23.15454
732.8110, 22.33977
733.2932, 21.79714
733.7753, 21.51990
734.2574, 21.59251
734.7395, 22.28384
735.2216, 23.84739
735.7037, 24.41979
736.1859, 23.69148
736.6680, 22.55023
737.1501, 22.09588
737.6322, 22.15074
738.1143, 22.12759
738.5964, 21.82629
739.0786, 21.63849
739.5607, 22.34994
740.0428, 23.22912
740.5249, 23.26023
741.0070, 20.88605
741.4891, 19.20519
741.9713, 19.16736
742.4534, 19.96838
742.9355, 20.50924
743.4176, 20.73164
743.8997, 20.88946
744.3818, 21.06927
744.8640, 21.15158
745.3461, 20.73826
745.8282, 19.92682
746.3103, 19.35258
746.7924, 19.30656
747.2745, 19.54570
747.7567, 19.87957
748.2388, 20.30416
748.7209, 20.80203
749.2030, 21.90505
749.6851, 22.51885
750.1672, 21.89713
750.6494, 20.41935
751.1315, 19.57894
751.6136, 19.78662
752.0957, 19.67924
752.5778, 18.58842
753.0599, 16.93089
753.5421, 16.35114
754.0242, 16.81421
754.5063, 17.56158
754.9884, 18.42049
755.4705, 19.16893
755.9526, 19.49955
756.4348, 19.44650
756.9169, 19.18620
757.3990, 18.39166
757.8811, 17.78526
758.3632, 18.03657
758.8453, 19.15713
759.3275, 19.06044
759.8096, 16.73078
760.2917, 15.02685
760.7738, 15.63980
761.2559, 18.26068
761.7380, 19.86214
762.2202, 20.41634
762.7023, 20.59149
763.1844, 20.90354
763.6665, 21.12614
764.1486, 20.75609
764.6307, 19.79658
765.1129, 19.11415
765.5950, 19.44039
766.0771, 19.96120
766.5592, 20.09883
767.0413, 19.65909
767.5234, 19.64159
768.0056, 20.20405
768.4877, 20.94517
768.9698, 21.78690
769.4519, 22.72004
769.9340, 22.73309
770.4161, 21.75560
770.8983, 20.42977
771.3804, 18.87728
771.8625, 17.52259
772.3446, 17.06512
772.8267, 17.63443
773.3088, 18.67822
773.7910, 20.73290
774.2731, 22.60868
774.7552, 23.28943
775.2373, 22.17227
775.7194, 21.32004
776.2015, 20.84116
776.6837, 20.46437
777.1658, 19.72390
777.6479, 18.65445
778.1300, 18.90564
778.6121, 20.79058
779.0942, 22.60292
779.5764, 22.16769
780.0585, 20.72354
780.5406, 20.31757
781.0227, 21.68172
781.5048, 22.60072
781.9869, 21.43682
782.4691, 19.72018
782.9512, 18.87148
783.4332, 19.40612
783.9153, 19.90390
784.3975, 20.49207
784.8796, 20.82465
785.3617, 20.18111
785.8438, 18.70611
786.3259, 18.33861
786.8080, 19.50365
787.2902, 20.79254
787.7723, 20.44778
788.2544, 19.38500
788.7365, 19.00975
789.2186, 20.03037
789.7007, 20.72067
790.1829, 20.26522
790.6650, 19.28130
791.1471, 18.39034
791.6292, 17.46623
792.1113, 16.91832
792.5934, 16.71022
793.0756, 16.95775
793.5577, 18.16562
794.0398, 20.09725
794.5219, 21.25437
795.0040, 21.30120
795.4861, 20.91852
795.9683, 20.54553
796.4504, 20.23336
796.9325, 20.07049
797.4146, 20.26636
797.8967, 20.25164
798.3788, 19.70685
798.8610, 18.98588
799.3431, 18.37727
799.8252, 17.72276
800.3073, 17.83277
800.7894, 19.00871
801.2715, 20.36165
801.7537, 20.66093
802.2358, 20.14855
802.7179, 19.62868
803.2000, 19.22256
803.6821, 19.04016
804.1642, 19.47042
804.6464, 20.04194
805.1285, 20.16650
805.6106, 19.18894
806.0927, 18.65576
806.5748, 19.00029
807.0569, 19.56470
807.5391, 19.64816
808.0212, 19.18813
808.5033, 18.65805
808.9854, 18.03658
809.4675, 17.61580
809.9496, 17.99662
810.4318, 18.81713
810.9139, 19.27372
811.3960, 19.13462
811.8781, 18.81305
812.3602, 18.39338
812.8423, 17.98782
813.3245, 17.72138
813.8066, 17.62037
814.2887, 17.66344
814.7708, 17.98120
815.2529, 18.26050
815.7350, 18.02884
816.2172, 17.32733
816.6993, 17.02163
817.1814, 17.26535
817.6635, 17.64319
818.1456, 17.71667
818.6277, 17.65439
819.1099, 17.75978
819.5920, 18.27735
820.0741, 18.38614
820.5562, 17.20296
821.0383, 15.89072
821.5204, 15.50522
822.0026, 16.56421
822.4847, 16.96334
822.9668, 16.43572
823.4489, 15.91168
823.9310, 16.75590
824.4131, 18.44584
824.8953, 18.91904
825.3774, 17.78794
825.8595, 16.81973
826.3416, 17.94535
826.8237, 19.55599
827.3058, 19.98442
827.7880, 18.34469
828.2701, 17.48938
828.7522, 18.06166
829.2343, 19.05839
829.7164, 19.92127
830.1985, 20.68157
830.6807, 20.60682
831.1628, 19.58124
831.6449, 18.56165
832.1270, 18.55342
832.6091, 19.08874
833.0912, 19.43960
833.5734, 19.51812
834.0555, 19.53046
834.5376, 19.50716
835.0197, 19.50253
835.5018, 19.57537
835.9839, 19.74972
836.4661, 19.83193
836.9482, 19.82176
837.4303, 19.71901
837.9124, 19.41497
838.3945, 18.99751
838.8766, 19.03234
839.3588, 19.50020
839.8409, 19.79237
840.3230, 19.07168
840.8051, 18.26675
841.2872, 18.35928
841.7693, 19.39588
842.2515, 20.04604
842.7336, 19.68701
843.2157, 19.31867
843.6978, 19.32342
844.1799, 19.66933
844.6620, 19.96012
845.1442, 20.19551
845.6263, 20.34241
846.1084, 20.44332
846.5905, 20.41069
847.0726, 19.79289
847.5547, 18.80901
848.0369, 18.48094
848.5190, 20.31470
849.0011, 21.90625
849.4832, 22.04214
849.9653, 20.93702
850.4474, 19.78176
850.9296, 18.45948
851.4117, 17.40696
851.8938, 16.73658
852.3759, 16.46346
852.8580, 16.81388
853.3401, 17.66002
853.8223, 18.40994
854.3044, 18.71495
854.7865, 18.89303
855.2686, 19.07815
855.7507, 19.30505
856.2328, 19.67299
856.7150, 20.64758
857.1971, 21.08217
857.6792, 20.56707
858.1613, 19.61460
858.6434, 19.44555
859.1255, 20.02152
859.6077, 20.11086
860.0898, 19.13688
860.5719, 18.11165
861.0540, 18.57276
861.5361, 19.71088
862.0182, 20.15238
862.5004, 18.65409
862.9825, 17.60465
863.4646, 17.97425
863.9467, 18.84383
864.4288, 19.23643
864.9109, 19.01888
865.3931, 19.04161
865.8752, 19.42421
866.3573, 19.92324
866.8394, 20.40120
867.3215, 20.74940
867.8036, 20.68518
868.2858, 20.08908
868.7679, 19.45202
869.2500, 18.90344
869.7321, 18.50768
870.2142, 18.38517
870.6964, 18.70705
871.1785, 18.60894
871.6606, 17.87992
872.1427, 17.24508
872.6248, 17.26030
873.1069, 17.87226
873.5891, 19.19115
874.0712, 21.19617
874.5533, 22.56046
875.0354, 21.64501
875.5175, 20.20616
875.9996, 19.66958
876.4818, 20.18362
876.9639, 20.54603
877.4460, 20.75243
877.9281, 20.63226
878.4102, 19.94975
878.8923, 18.85696
879.3745, 18.48642
879.8566, 18.79049
880.3387, 18.96668
880.8208, 18.22979
881.3029, 17.38220
881.7850, 17.52657
882.2672, 18.30767
882.7493, 18.50392
883.2314, 16.29814
883.7135, 15.29639
884.1956, 16.95241
884.6777, 20.07866
885.1599, 21.39872
885.6420, 20.80613
886.1241, 20.16675
886.6062, 20.09838
887.0883, 20.07264
887.5704, 18.91320
888.0526, 17.34171
888.5347, 16.75703
889.0168, 18.46719
889.4989, 19.97116
889.9810, 20.47558
890.4631, 20.39428
890.9453, 20.10578
891.4274, 19.50615
891.9095, 19.15454
892.3916, 19.10163
892.8737, 19.27024
893.3558, 19.85938
893.8380, 20.53654
894.3201, 20.38299
894.8022, 19.08792
895.2843, 18.38074
895.7664, 19.76919
896.2485, 21.61708
896.7307, 22.74858
897.2128, 23.08926
897.6949, 22.94598
898.1770, 22.08235
898.6591, 21.49809
899.1412, 22.30802
899.6234, 23.85950
900.1055, 23.92733
900.5876, 22.70288
901.0697, 21.91426
901.5518, 23.20333
902.0339, 24.71117
902.5161, 25.39897
902.9982, 25.26737
903.4803, 24.89401
903.9624, 24.03960
904.4445, 23.56219
904.9266, 23.84852
905.4088, 24.56526
905.8909, 24.81847
906.3730, 24.74357
906.8551, 24.91915
907.3372, 25.76386
907.8193, 26.67554
908.3015, 27.13749
908.7836, 27.42764
909.2657, 28.05335
909.7478, 29.63374
910.2299, 30.42128
910.7120, 29.97338
911.1942, 29.23981
911.6763, 29.51800
912.1584, 30.63439
912.6405, 31.73522
913.1226, 32.70451
913.6047, 33.47977
914.0869, 33.90051
914.5690, 34.17048
915.0511, 34.56159
915.5332, 35.28540
916.0153, 35.17895
916.4974, 33.22387
916.9796, 32.13756
917.4617, 34.15678
917.9438, 38.69560
918.4259, 41.59587
918.9080, 42.91515
919.3901, 43.39105
919.8723, 41.97394
920.3544, 41.19218
920.8365, 43.81121
921.3186, 49.16055
921.8007, 53.20250
922.2828, 54.87598
922.7650, 56.08990
923.2471, 57.19231
923.7292, 58.17945
924.2113, 59.00515
924.6934, 59.67907
925.1755, 60.28533
925.6577, 60.72876
926.1398, 61.35361
926.6219, 62.81138
927.1040, 64.51373
927.5861, 65.62026
928.0682, 64.92827
928.5504, 65.26492
929.0325, 67.20751
929.5146, 69.36530
929.9967, 69.89243
930.4788, 69.12254
930.9609, 70.08974
931.4431, 73.13548
931.9252, 75.86429
932.4073, 75.50466
932.8894, 74.66766
933.3715, 75.78780
933.8536, 79.22747
934.3358, 82.45700
934.8179, 84.97303
935.3000, 87.82266
935.7821, 91.75220
936.2642, 96.29153
936.7463, 99.01739
937.2285, 100.2703
937.7106, 102.2769
938.1927, 106.7158
938.6748, 111.8863
939.1569, 117.0099
939.6390, 121.8759
940.1212, 125.9336
940.6033, 128.4531
941.0854, 131.4581
941.5675, 135.2500
942.0496, 139.4704
942.5317, 143.8529
943.0139, 148.2205
943.4960, 151.4712
943.9781, 153.3244
944.4602, 154.9512
944.9423, 157.7026
945.4244, 160.3492
945.9066, 161.7292
946.3887, 161.3315
946.8708, 160.9760
947.3529, 160.8159
947.8350, 160.3489
948.3171, 159.2047
948.7993, 157.5109
949.2814, 155.5614
949.7635, 153.4235
950.2456, 151.4981
950.7277, 149.9686
951.2098, 148.7998
951.6920, 147.7136
952.1741, 146.9873
952.6562, 147.6355
953.1383, 150.4794
953.6204, 152.3324
954.1025, 152.1986
954.5847, 151.4539
955.0668, 152.2844
955.5489, 154.3854
956.0310, 157.0602
956.5131, 160.2823
956.9952, 163.4829
957.4774, 166.2957
957.9595, 168.9892
958.4416, 171.8181
958.9237, 174.7627
959.4058, 177.9022
959.8879, 181.1570
960.3701, 184.8418
960.8522, 190.1891
961.3343, 195.7858
961.8164, 198.3682
962.2985, 198.2526
962.7806, 197.6885
963.2628, 198.0415
963.7449, 197.7735
964.2270, 196.0428
964.7091, 193.2712
965.1912, 190.8133
965.6733, 188.7820
966.1555, 185.9798
966.6376, 182.1554
967.1197, 177.2160
967.6018, 170.3307
968.0839, 162.4975
968.5660, 155.5075
969.0482, 150.0744
969.5303, 144.7624
970.0124, 139.2941
970.4945, 133.7108
970.9766, 127.7808
971.4587, 121.5190
971.9409, 116.2735
972.4230, 112.1067
972.9051, 107.9585
973.3872, 102.6688
973.8693, 97.27218
974.3514, 92.67425
974.8336, 88.94185
975.3157, 86.09396
975.7978, 85.07228
976.2799, 83.43057
976.7620, 80.19353
977.2441, 76.38521
977.7263, 74.65328
978.2084, 74.62838
978.6905, 74.45200
979.1726, 73.63741
979.6547, 72.37926
980.1368, 70.28396
980.6190, 68.11016
981.1010, 66.83445
981.5831, 67.18257
982.0652, 66.40135
982.5474, 64.03560
983.0295, 61.80213
983.5116, 61.10476
983.9937, 61.60775
984.4758, 62.68549
984.9579, 64.19535
985.4401, 65.29979
985.9222, 64.54192
986.4043, 64.29304
986.8864, 65.93491
987.3685, 68.96492
987.8506, 72.22958
988.3328, 75.83241
988.8149, 78.78799
989.2970, 80.77982
989.7791, 82.23878
990.2612, 82.87596
990.7433, 83.67015
991.2255, 86.44003
991.7076, 92.32935
992.1897, 97.98164
992.6718, 102.4579
993.1539, 106.5415
993.6360, 110.4463
994.1182, 114.1930
994.6003, 119.2415
995.0824, 125.6183
995.5645, 132.0031
996.0466, 137.5524
996.5287, 142.8849
997.0109, 148.6021
997.4930, 154.5454
997.9751, 160.3574
998.4572, 167.0770
998.9393, 171.6884
999.4214, 173.5102
999.9036, 173.3820
1000.386, 173.2933
1000.868, 172.4218
1001.350, 167.6616
1001.832, 158.0655
1002.314, 146.8628
1002.796, 135.3403
1003.278, 123.7497
1003.760, 112.3319
1004.243, 100.9527
1004.725, 90.26698
1005.207, 80.00527
1005.689, 71.51878
1006.171, 65.93930
1006.653, 62.20039
1007.135, 58.59803
1007.617, 55.23317
1008.100, 52.27442
1008.582, 49.96812
1009.064, 47.92018
1009.546, 46.23769
1010.028, 44.60196
1010.510, 42.32899
1010.992, 39.49507
1011.474, 37.86779
1011.956, 37.69094
1012.439, 37.83773
1012.921, 37.43528
1013.403, 36.84468
1013.885, 36.29729
1014.367, 35.82291
1014.849, 35.73698
1015.331, 36.24821
1015.813, 36.64390
1016.296, 36.63516
1016.778, 36.35705
1017.260, 35.90928
1017.742, 35.45431
1018.224, 35.51796
1018.706, 36.87371
1019.188, 37.77031
1019.670, 36.82084
1020.152, 35.48236
1020.635, 35.40420
1021.117, 36.99516
1021.599, 37.11567
1022.081, 35.61596
1022.563, 33.75257
1023.045, 32.26704
1023.527, 31.15564
1024.009, 30.64794
1024.492, 30.60372
1024.974, 30.16802
1025.456, 28.54943
1025.938, 27.47195
1026.420, 27.49885
1026.902, 27.99684
1027.384, 27.55483
1027.866, 26.47155
1028.349, 26.06383
1028.831, 26.76945
1029.313, 27.57948
1029.795, 27.95954
1030.277, 28.10175
1030.759, 28.13477
1031.241, 28.06198
1031.723, 27.98864
1032.205, 27.91787
1032.688, 27.81437
1033.170, 27.46977
1033.652, 27.23272
1034.134, 27.79445
1034.616, 28.88238
1035.098, 29.82897
1035.580, 30.37665
1036.062, 30.81453
1036.544, 31.24804
1037.027, 31.52255
1037.509, 31.37833
1037.991, 30.87181
1038.473, 30.39821
1038.955, 29.98816
1039.437, 29.62303
1039.919, 29.09976
1040.401, 28.78106
1040.884, 29.06861
1041.366, 29.86765
1041.848, 30.46021
1042.330, 30.96590
1042.812, 30.58366
1043.294, 28.70341
1043.776, 26.59995
1044.258, 26.20196
1044.740, 26.85299
1045.223, 27.37842
1045.705, 27.28998
1046.187, 27.70349
1046.669, 29.42097
1047.151, 30.91775
1047.633, 30.95394
1048.115, 29.79538
1048.597, 29.66022
1049.079, 30.44182
1049.562, 31.25241
1050.044, 31.34556
1050.526, 31.54177
1051.008, 32.60674
1051.490, 34.06075
1051.972, 34.84930
1052.454, 34.78807
1052.936, 34.73626
1053.419, 34.78517
1053.901, 34.83702
1054.383, 34.50603
1054.865, 34.25930
1055.347, 35.17122
1055.829, 37.29168
1056.311, 38.19279
1056.793, 36.17373
1057.276, 34.24076
1057.758, 33.26278
1058.240, 32.96076
1058.722, 32.53336
1059.204, 32.09027
1059.686, 32.17559
1060.168, 33.17073
1060.650, 34.12544
1061.132, 34.54266
1061.615, 34.58581
1062.097, 34.31053
1062.579, 33.63350
1063.061, 33.54906
1063.543, 34.10546
1064.025, 34.76187
1064.507, 35.06236
1064.989, 35.35912
1065.471, 36.41253
1065.954, 37.78780
1066.436, 38.40155
1066.918, 37.26069
1067.400, 36.38908
1067.882, 35.83504
1068.364, 35.75425
1068.846, 36.63287
1069.328, 38.11064
1069.811, 39.13083
1070.293, 39.60102
1070.775, 39.65817
1071.257, 38.95970
1071.739, 38.28667
1072.221, 37.83639
1072.703, 37.71248
1073.185, 38.58304
1073.667, 40.41092
1074.150, 41.25962
1074.632, 40.32740
1075.114, 39.28056
1075.596, 39.79916
1076.078, 40.99646
1076.560, 42.05778
1077.042, 42.96198
1077.524, 43.04924
1078.006, 42.01239
1078.489, 41.24398
1078.971, 41.52987
1079.453, 42.51793
1079.935, 44.04680
1080.417, 45.68779
1080.899, 46.39645
1081.381, 44.26493
1081.863, 43.38272
1082.345, 44.64903
1082.828, 46.72516
1083.310, 48.37257
1083.792, 49.67083
1084.274, 51.33826
1084.756, 53.34201
1085.238, 54.87591
1085.720, 55.30899
1086.202, 55.25714
1086.685, 54.43980
1087.167, 53.52913
1087.649, 54.35180
1088.131, 57.17599
1088.613, 59.23473
1089.095, 60.07069
1089.577, 60.05658
1090.059, 58.68900
1090.542, 57.24993
1091.024, 57.47865
1091.506, 59.68227
1091.988, 60.51439
1092.470, 59.24065
1092.952, 58.19952
1093.434, 58.35351
1093.916, 59.04000
1094.398, 58.94568
1094.880, 58.38641
1095.363, 58.09895
1095.845, 58.44736
1096.327, 58.62541
1096.809, 58.48419
1097.291, 58.06159
1097.773, 57.23923
1098.255, 56.11208
1098.737, 55.40786
1099.220, 55.10040
1099.702, 55.01337
1100.184, 55.25568
1100.666, 55.46908
1101.148, 55.54698
1101.630, 55.44427
1102.112, 54.97557
1102.594, 53.98516
1103.077, 53.94483
1103.559, 54.98359
1104.041, 56.18574
1104.523, 56.89820
1105.005, 57.35784
1105.487, 57.74677
1105.969, 58.08200
1106.451, 58.30620
1106.933, 58.06147
1107.416, 58.88617
1107.898, 61.42562
1108.380, 64.04070
1108.862, 64.22682
1109.344, 63.19514
1109.826, 63.05318
1110.308, 64.16926
1110.790, 64.78493
1111.272, 64.15888
1111.755, 63.43965
1112.237, 62.96492
1112.719, 62.67321
1113.201, 62.46456
1113.683, 62.29614
1114.165, 62.08815
1114.647, 62.00347
1115.129, 61.31294
1115.612, 58.89815
1116.094, 56.48846
1116.576, 55.53557
1117.058, 53.37624
1117.540, 51.34521
1118.022, 50.66701
1118.504, 47.73252
1118.986, 47.25869
1119.469, 46.97086
1119.951, 45.13768
1120.433, 42.63153
1120.915, 40.66241
1121.397, 39.21091
1121.879, 38.85893
1122.361, 39.77828
1122.843, 40.24545
1123.325, 38.36611
1123.807, 35.79641
1124.290, 34.05505
1124.772, 33.11503
1125.254, 32.81154
1125.736, 33.40429
1126.218, 33.81902
1126.700, 33.94765
1127.182, 33.83628
1127.664, 33.43776
1128.147, 32.87829
1128.629, 32.39215
1129.111, 31.98626
1129.593, 31.47995
1130.075, 30.26558
1130.557, 29.82675
1131.039, 30.80526
1131.521, 32.35546
1132.004, 32.65043
1132.486, 32.21457
1132.968, 32.74602
1133.450, 34.76277
1133.932, 36.28543
1134.414, 35.62140
1134.896, 35.16337
1135.378, 36.19600
1135.860, 38.28742
1136.343, 39.46846
1136.825, 39.93958
1137.307, 40.93457
1137.789, 43.17836
1138.271, 45.25051
1138.753, 45.73068
1139.235, 46.06167
1139.717, 47.44549
1140.199, 49.89660
1140.682, 52.68390
1141.164, 55.78621
1141.646, 59.36160
1142.128, 64.01859
1142.610, 68.48629
1143.092, 71.04794
1143.574, 73.00028
1144.056, 76.33630
1144.539, 81.54261
1145.021, 86.81272
1145.503, 92.19531
1145.985, 96.97512
1146.467, 99.91102
1146.949, 102.4455
1147.431, 106.2379
1147.913, 110.9210
1148.396, 115.4773
1148.878, 119.8569
1149.360, 123.9176
1149.842, 127.7460
1150.324, 131.0380
1150.806, 133.6433
1151.288, 135.3920
1151.770, 135.8678
1152.252, 135.1514
1152.734, 134.0162
1153.217, 132.9609
1153.699, 130.8198
1154.181, 127.0178
1154.663, 122.7805
1155.145, 119.9918
1155.627, 118.0126
1156.109, 115.6129
1156.591, 112.6331
1157.074, 109.1435
1157.556, 104.3548
1158.038, 100.0450
1158.520, 96.79330
1159.002, 94.16790
1159.484, 90.81783
1159.966, 87.29660
1160.448, 85.48434
1160.931, 86.04267
1161.413, 86.88687
1161.895, 87.86926
1162.377, 87.96441
1162.859, 86.35825
1163.341, 83.63676
1163.823, 82.20725
1164.305, 81.81261
1164.787, 81.25593
1165.270, 80.21210
1165.752, 78.76381
1166.234, 76.19226
1166.716, 73.96994
1167.198, 73.46610
1167.680, 74.45309
1168.162, 73.65974
1168.644, 71.23970
1169.126, 68.64786
1169.609, 66.31816
1170.091, 64.32944
1170.573, 62.89617
1171.055, 61.69757
1171.537, 60.49164
1172.019, 59.32860
1172.501, 57.27971
1172.983, 54.39975
1173.466, 51.70319
1173.948, 49.92751
1174.430, 48.49836
1174.912, 47.22560
1175.394, 45.96638
1175.876, 44.47763
1176.358, 42.77573
1176.840, 40.74500
1177.323, 38.36435
1177.805, 36.38191
1178.287, 35.98035
1178.769, 35.68098
1179.251, 34.07060
1179.733, 31.61818
1180.215, 29.66447
1180.697, 28.36135
1181.179, 26.79957
1181.661, 24.79846
1182.144, 23.42566
1182.626, 24.43651
1183.108, 25.89076
1183.590, 25.68318
1184.072, 24.13680
1184.554, 23.20993
1185.036, 23.11289
1185.518, 23.12682
1186.001, 23.22280
1186.483, 23.01547
1186.965, 21.50303
1187.447, 19.88618
1187.929, 19.71254
1188.411, 20.92894
1188.893, 21.57422
1189.375, 21.57951
1189.858, 20.84039
1190.340, 19.09485
1190.822, 17.40751
1191.304, 17.32935
1191.786, 17.89838
1192.268, 17.93678
1192.750, 17.29258
1193.232, 16.81385
1193.714, 16.68929
1194.197, 16.13933
1194.679, 14.68226
1195.161, 13.35813
1195.643, 14.02187
1196.125, 15.53690
1196.607, 16.29288
1197.089, 15.91369
1197.571, 15.86859
1198.053, 16.41292
1198.536, 16.72395
1199.018, 16.44881
1199.500, 15.90094
1199.982, 15.80945
1200.464, 15.67194
1200.946, 14.42258
1201.428, 11.22059
1201.910, 10.09940
1202.393, 11.94743
1202.875, 13.41962
1203.357, 12.51723
1203.839, 10.98437
1204.321, 12.58145
1204.803, 15.32701
1205.285, 15.48118
1205.767, 10.31977
1206.250, 8.530123
1206.732, 11.41525
1207.214, 14.30941
1207.696, 14.34133
1208.178, 13.03427
1208.660, 12.96429
1209.142, 13.56282
1209.624, 13.73151
1210.106, 12.81429
1210.589, 12.35891
1211.071, 12.60860
1211.553, 12.60329
1212.035, 11.18857
1212.517, 9.538484
1212.999, 9.761408
1213.481, 11.24005
1213.963, 12.65310
1214.445, 14.07595
1214.928, 14.59041
1215.410, 13.95013
1215.892, 13.19884
1216.374, 13.36179
1216.856, 13.75359
1217.338, 12.94888
1217.820, 11.51174
1218.302, 10.85600
1218.785, 11.84675
1219.267, 12.54442
1219.749, 12.85499
1220.231, 13.01775
1220.713, 13.31971
1221.195, 13.53933
1221.677, 13.15591
1222.159, 12.42434
1222.641, 12.14033
1223.124, 12.93985
1223.606, 12.84066
1224.088, 11.47424
1224.570, 10.32985
1225.052, 11.16730
1225.534, 12.68224
1226.016, 13.41313
1226.498, 13.35361
1226.980, 12.54143
1227.463, 10.51996
1227.945, 9.211804
1228.427, 8.783667
1228.909, 9.012174
1229.391, 10.44930
1229.873, 11.86192
1230.355, 11.25856
1230.837, 9.328818
1231.320, 8.834872
1231.802, 10.33754
1232.284, 11.82445
1232.766, 13.17029
1233.248, 13.98629
1233.730, 13.45766
1234.212, 12.56477
1234.694, 12.34568
1235.177, 12.65191
1235.659, 12.62798
1236.141, 12.08952
1236.623, 12.14338
1237.105, 13.01271
1237.587, 13.79745
1238.069, 13.73011
1238.551, 13.16013
1239.033, 12.10628
1239.516, 10.80946
1239.998, 10.05586
1240.480, 9.865449
1240.962, 10.27156
1241.444, 11.36962
1241.926, 12.20381
1242.408, 11.81871
1242.890, 10.99473
1243.372, 10.13844
1243.855, 9.362323
1244.337, 8.793421
1244.819, 8.420392
1245.301, 8.955102
1245.783, 10.56611
1246.265, 11.97222
1246.747, 12.08002
1247.229, 11.71203
1247.712, 11.28772
1248.194, 10.83147
1248.676, 10.25406
1249.158, 9.586951
1249.640, 9.365335
1250.122, 9.685233
1250.604, 10.04821
1251.086, 10.04070
1251.568, 10.07645
1252.051, 10.41149
1252.533, 10.90495
1253.015, 11.37081
1253.497, 11.73811
1253.979, 11.29639
1254.461, 9.881209
1254.943, 9.321291
1255.425, 12.07606
1255.907, 14.07727
1256.390, 13.43973
1256.872, 11.51346
1257.354, 11.10683
1257.836, 11.69963
1258.318, 11.36814
1258.800, 9.803859
1259.282, 8.653293
1259.764, 8.957331
1260.247, 9.378529
1260.729, 9.626589
1261.211, 9.708765
1261.693, 9.488203
1262.175, 9.155521
1262.657, 9.131963
1263.139, 9.476915
1263.621, 9.972490
1264.104, 10.72351
1264.586, 11.32629
1265.068, 11.69409
1265.550, 11.85742
1266.032, 11.67548
1266.514, 11.41147
1266.996, 11.64719
1267.478, 12.41370
1267.960, 12.47476
1268.443, 11.44630
1268.925, 10.69654
1269.407, 10.58455
1269.889, 10.72405
1270.371, 10.62864
1270.853, 10.52841
1271.335, 10.98351
1271.817, 11.87831
1272.299, 11.23170
1272.782, 8.577024
1273.264, 7.445472
1273.746, 8.871847
1274.228, 10.63848
1274.710, 10.51833
1275.192, 9.866425
1275.674, 9.809678
1276.156, 10.28110
1276.639, 10.95799
1277.121, 11.84131
1277.603, 11.82003
1278.085, 10.57753
1278.567, 9.362575
1279.049, 9.052084
1279.531, 9.166765
1280.013, 9.530324
1280.495, 10.02466
1280.978, 10.35830
1281.460, 10.56079
1281.942, 10.76326
1282.424, 10.97680
1282.906, 11.45052
1283.388, 13.11470
1283.870, 14.01887
1284.352, 13.25992
1284.834, 11.63032
1285.317, 10.62822
1285.799, 10.05720
1286.281, 9.228501
1286.763, 8.058567
1287.245, 7.698893
1287.727, 9.504659
1288.209, 10.63886
1288.691, 10.43451
1289.173, 9.406011
1289.656, 7.484535
1290.138, 5.625455
1290.620, 5.838889
1291.102, 8.115301
1291.584, 9.193110
1292.066, 8.317638
1292.548, 7.666419
1293.030, 7.626899
1293.513, 7.954837
1293.995, 8.733966
1294.477, 9.468449
1294.959, 9.350904
1295.441, 8.629056
1295.923, 9.100168
1296.405, 11.02031
1296.887, 11.59811
1297.370, 10.29070
1297.852, 9.123187
1298.334, 10.11706
1298.816, 11.54462
1299.298, 12.41138
1299.780, 12.73872
1300.262, 12.44997
1300.744, 11.60050
1301.226, 10.88126
1301.708, 10.35972
1302.191, 9.776440
1302.673, 8.741244
1303.155, 7.915761
1303.637, 7.439206
1304.119, 7.308606
##END=



