##NAMES=Samsonite
##RRUFFID=R060998
##IDEAL CHEMISTRY=Ag^1+^_4_Mn^2+^Sb^3+^_2_S^2-^_6_
##LOCALITY=Samson Vein, St. Andreasberg, Harz, Germany
##OWNER=RRUFF
##SOURCE=Michael Scott
##DESCRIPTION=Deep red to black metallic elongated and striated prismatic crystals associated with quartz
##STATUS=The identification of this mineral is confirmed by single-crystal X-ray diffraction and chemical analysis.
##URL=rruff.info/R060998
##MEASURED CHEMISTRY=Ag_4.00_Mn_1.00_Sb_2.00_S_6.00_; trace amounts of Fe
142.2531, 690.5754
142.7353, 702.1948
143.2174, 698.0601
143.6995, 696.9314
144.1816, 699.1111
144.6637, 704.7101
145.1458, 715.0831
145.6280, 737.4169
146.1101, 757.0968
146.5922, 763.9969
147.0743, 746.4846
147.5564, 733.4918
148.0385, 729.1357
148.5207, 733.7349
149.0028, 738.9515
149.4849, 746.2996
149.9670, 753.5733
150.4491, 758.5224
150.9312, 759.0549
151.4134, 759.4670
151.8955, 760.3987
152.3776, 761.7971
152.8597, 764.1043
153.3418, 768.6222
153.8239, 773.8895
154.3060, 777.6964
154.7882, 779.1776
155.2703, 779.6883
155.7524, 779.3482
156.2345, 776.1829
156.7166, 775.6502
157.1987, 779.2928
157.6809, 786.3679
158.1630, 794.8615
158.6451, 806.0322
159.1272, 817.1663
159.6093, 826.7983
160.0914, 835.7272
160.5736, 841.6658
161.0557, 841.4928
161.5378, 836.2052
162.0199, 833.5665
162.5020, 840.5114
162.9841, 849.9637
163.4663, 855.4440
163.9484, 849.3524
164.4305, 843.2147
164.9126, 842.8538
165.3947, 848.6121
165.8768, 856.7252
166.3590, 869.2583
166.8411, 882.2186
167.3232, 890.0929
167.8053, 884.2198
168.2874, 876.2856
168.7695, 876.7717
169.2517, 888.8633
169.7338, 899.5765
170.2159, 896.8113
170.6980, 885.2850
171.1801, 875.9613
171.6622, 878.1932
172.1444, 884.2072
172.6265, 884.4966
173.1086, 874.5156
173.5907, 864.5001
174.0728, 864.8282
174.5549, 873.8990
175.0371, 884.4556
175.5192, 893.4331
176.0013, 900.4592
176.4834, 904.6868
176.9655, 904.8676
177.4476, 903.1674
177.9298, 902.6530
178.4119, 903.1818
178.8940, 902.4800
179.3761, 896.6196
179.8582, 887.9413
180.3403, 882.2319
180.8224, 884.5350
181.3046, 889.8700
181.7867, 886.6111
182.2688, 873.9307
182.7509, 863.1714
183.2330, 870.8627
183.7151, 892.5817
184.1973, 909.6555
184.6794, 912.4793
185.1615, 904.3829
185.6436, 892.8611
186.1257, 876.5358
186.6078, 862.2092
187.0900, 861.3997
187.5721, 872.9539
188.0542, 884.5175
188.5363, 890.0273
189.0184, 890.2025
189.5005, 888.6784
189.9827, 885.5944
190.4648, 881.1913
190.9469, 874.7495
191.4290, 866.2668
191.9111, 859.2921
192.3932, 855.8139
192.8754, 855.8049
193.3575, 859.1132
193.8396, 867.0906
194.3217, 877.1616
194.8038, 882.8739
195.2859, 884.1984
195.7681, 881.4941
196.2502, 871.8136
196.7323, 854.9673
197.2144, 845.4882
197.6965, 848.1630
198.1786, 859.8205
198.6608, 867.0417
199.1429, 868.7466
199.6250, 869.4729
200.1071, 875.0877
200.5892, 886.5750
201.0714, 893.3969
201.5535, 891.6589
202.0356, 882.1827
202.5177, 872.7614
202.9998, 861.3751
203.4819, 854.3543
203.9641, 864.8557
204.4462, 898.8282
204.9283, 920.5916
205.4104, 913.1598
205.8925, 874.4176
206.3746, 853.3999
206.8568, 853.5843
207.3389, 866.2797
207.8210, 881.3768
208.3031, 902.5374
208.7852, 913.9462
209.2673, 904.0334
209.7494, 865.6445
210.2316, 849.4199
210.7137, 864.2424
211.1958, 893.8072
211.6779, 904.1405
212.1600, 888.5838
212.6421, 871.1307
213.1243, 863.0632
213.6064, 867.2893
214.0885, 869.8488
214.5706, 868.6870
215.0527, 866.3105
215.5348, 870.7700
216.0170, 885.3009
216.4991, 900.0291
216.9812, 909.9264
217.4633, 914.5891
217.9454, 914.9433
218.4275, 909.6280
218.9097, 900.0654
219.3918, 891.9020
219.8739, 885.1879
220.3560, 879.9594
220.8381, 875.9075
221.3202, 872.1776
221.8024, 872.2540
222.2845, 878.2067
222.7666, 888.9360
223.2487, 895.5383
223.7308, 896.0985
224.2129, 894.9832
224.6951, 895.8616
225.1772, 900.8333
225.6593, 903.1354
226.1414, 901.0576
226.6235, 894.7751
227.1056, 888.9956
227.5878, 881.7573
228.0699, 877.0776
228.5520, 879.4522
229.0341, 894.3083
229.5162, 905.2151
229.9983, 907.2059
230.4805, 899.5364
230.9626, 899.2641
231.4447, 912.2353
231.9268, 927.3508
232.4089, 932.1750
232.8910, 922.0217
233.3732, 910.2556
233.8553, 899.0405
234.3374, 887.9473
234.8195, 880.0799
235.3016, 875.4911
235.7837, 874.1003
236.2658, 876.0615
236.7480, 882.6973
237.2301, 890.5522
237.7122, 899.8714
238.1943, 912.0462
238.6764, 918.1600
239.1585, 916.6171
239.6407, 910.0438
240.1228, 901.6794
240.6049, 888.1767
241.0870, 878.3376
241.5691, 875.4398
242.0512, 881.4333
242.5334, 887.1863
243.0155, 893.5348
243.4976, 899.1346
243.9797, 900.9464
244.4618, 894.7562
244.9439, 891.5751
245.4261, 897.0454
245.9082, 917.5062
246.3903, 925.9106
246.8724, 914.7868
247.3545, 894.9390
247.8366, 888.9259
248.3188, 904.5087
248.8009, 921.5325
249.2830, 933.0795
249.7651, 939.4490
250.2472, 938.6209
250.7293, 925.9780
251.2115, 908.0448
251.6936, 900.0642
252.1757, 906.5673
252.6578, 915.8840
253.1399, 924.1132
253.6220, 933.0967
254.1042, 935.9099
254.5863, 929.5103
255.0684, 917.9962
255.5505, 912.0206
256.0326, 913.7381
256.5147, 917.3999
256.9969, 920.7787
257.4790, 924.3857
257.9611, 925.8826
258.4432, 923.4451
258.9253, 919.3286
259.4074, 920.5981
259.8896, 929.4178
260.3717, 939.7336
260.8538, 950.4551
261.3359, 965.6428
261.8180, 967.5641
262.3001, 948.9750
262.7823, 918.6763
263.2644, 904.0914
263.7465, 910.6571
264.2286, 922.3878
264.7107, 930.7006
265.1928, 934.8826
265.6750, 938.9365
266.1571, 944.1063
266.6392, 948.9796
267.1213, 948.2309
267.6034, 939.1585
268.0855, 930.6976
268.5677, 928.8278
269.0498, 935.4892
269.5319, 939.9487
270.0140, 940.8331
270.4961, 939.3300
270.9782, 938.8902
271.4604, 939.3188
271.9425, 941.3817
272.4246, 946.3709
272.9067, 955.1342
273.3888, 961.3203
273.8709, 963.0198
274.3531, 962.5479
274.8352, 968.1273
275.3173, 981.7852
275.7994, 994.4319
276.2815, 999.2575
276.7636, 995.3485
277.2457, 993.0424
277.7278, 993.8824
278.2100, 996.5784
278.6921, 996.2649
279.1742, 991.6455
279.6563, 990.2928
280.1384, 999.1100
280.6205, 1018.229
281.1027, 1035.617
281.5848, 1051.439
282.0669, 1063.129
282.5490, 1060.333
283.0311, 1040.840
283.5132, 1024.099
283.9954, 1025.678
284.4775, 1044.840
284.9596, 1060.105
285.4417, 1068.180
285.9238, 1072.345
286.4059, 1078.622
286.8881, 1086.878
287.3702, 1098.867
287.8523, 1119.464
288.3344, 1146.872
288.8165, 1165.559
289.2986, 1171.635
289.7808, 1171.886
290.2629, 1178.870
290.7450, 1192.385
291.2271, 1207.790
291.7092, 1222.434
292.1913, 1236.521
292.6735, 1251.192
293.1556, 1266.589
293.6377, 1281.994
294.1198, 1297.454
294.6019, 1312.692
295.0840, 1324.022
295.5662, 1324.494
296.0483, 1319.255
296.5304, 1322.661
297.0125, 1337.247
297.4946, 1358.761
297.9767, 1383.754
298.4589, 1411.537
298.9410, 1438.145
299.4231, 1460.059
299.9052, 1479.161
300.3873, 1498.261
300.8694, 1517.408
301.3516, 1537.284
301.8337, 1559.397
302.3158, 1583.251
302.7979, 1606.693
303.2800, 1626.784
303.7621, 1646.392
304.2443, 1670.770
304.7264, 1701.138
305.2085, 1732.145
305.6906, 1760.362
306.1727, 1785.602
306.6548, 1808.234
307.1370, 1826.670
307.6191, 1843.315
308.1012, 1860.109
308.5833, 1876.911
309.0654, 1894.817
309.5475, 1915.947
310.0297, 1938.445
310.5118, 1959.164
310.9939, 1972.569
311.4760, 1985.940
311.9581, 2006.601
312.4402, 2036.668
312.9224, 2064.536
313.4045, 2084.695
313.8866, 2098.625
314.3687, 2108.147
314.8508, 2109.340
315.3329, 2109.976
315.8151, 2113.551
316.2972, 2120.272
316.7793, 2131.273
317.2614, 2148.380
317.7435, 2169.703
318.2256, 2192.994
318.7078, 2217.600
319.1899, 2244.059
319.6720, 2273.938
320.1541, 2307.486
320.6362, 2338.648
321.1183, 2367.601
321.6005, 2391.960
322.0826, 2409.293
322.5647, 2425.708
323.0468, 2428.406
323.5289, 2414.662
324.0110, 2384.322
324.4932, 2337.205
324.9753, 2268.047
325.4574, 2185.656
325.9395, 2097.027
326.4216, 1984.822
326.9037, 1885.938
327.3859, 1810.948
327.8680, 1759.043
328.3501, 1700.544
328.8322, 1619.229
329.3143, 1543.514
329.7964, 1491.113
330.2786, 1482.247
330.7607, 1468.239
331.2428, 1445.448
331.7249, 1414.748
332.2070, 1379.114
332.6891, 1331.421
333.1712, 1286.784
333.6534, 1254.441
334.1355, 1240.099
334.6176, 1225.104
335.0997, 1209.165
335.5818, 1191.790
336.0639, 1169.501
336.5461, 1137.673
337.0282, 1109.642
337.5103, 1093.105
337.9924, 1091.540
338.4745, 1086.694
338.9566, 1077.242
339.4388, 1064.757
339.9209, 1052.894
340.4030, 1042.568
340.8851, 1029.351
341.3672, 1009.503
341.8493, 982.4589
342.3315, 961.0483
342.8136, 946.0221
343.2957, 935.1198
343.7778, 924.6246
344.2599, 914.6112
344.7420, 906.3270
345.2242, 902.1963
345.7063, 900.9473
346.1884, 895.8491
346.6705, 886.7776
347.1526, 874.5511
347.6347, 856.8948
348.1169, 835.5760
348.5990, 820.0408
349.0811, 817.9245
349.5632, 823.0863
350.0453, 822.6842
350.5274, 816.5629
351.0096, 808.9401
351.4917, 801.7742
351.9738, 795.9202
352.4559, 793.6797
352.9380, 799.7948
353.4201, 806.5416
353.9023, 803.2264
354.3844, 790.8400
354.8665, 777.8180
355.3486, 768.6969
355.8307, 762.9326
356.3128, 760.0403
356.7950, 761.7317
357.2771, 763.8418
357.7592, 763.3913
358.2413, 760.8024
358.7234, 757.6214
359.2055, 753.4423
359.6877, 749.6725
360.1698, 747.6830
360.6519, 748.8216
361.1340, 749.5056
361.6161, 747.4287
362.0982, 743.7576
362.5804, 741.0189
363.0625, 741.8883
363.5446, 742.4677
364.0267, 740.3927
364.5088, 734.0612
364.9909, 729.1159
365.4731, 727.0569
365.9552, 726.9788
366.4373, 727.5889
366.9194, 732.7540
367.4015, 734.7576
367.8836, 730.2808
368.3658, 717.3309
368.8479, 707.0061
369.3300, 698.9597
369.8121, 693.9392
370.2942, 693.0389
370.7763, 700.7498
371.2585, 706.1431
371.7406, 706.5226
372.2227, 702.0657
372.7048, 699.8896
373.1869, 702.1964
373.6690, 703.9998
374.1512, 700.4253
374.6333, 687.5927
375.1154, 681.0132
375.5975, 684.5923
376.0796, 695.2274
376.5617, 700.6214
377.0439, 699.8268
377.5260, 696.9556
378.0081, 694.9399
378.4902, 693.9731
378.9723, 689.1836
379.4544, 678.3759
379.9366, 666.5392
380.4187, 664.7600
380.9008, 673.2740
381.3829, 680.4609
381.8650, 677.7946
382.3471, 668.2579
382.8293, 665.4569
383.3114, 670.6784
383.7935, 678.3362
384.2756, 681.8717
384.7577, 682.1493
385.2398, 682.6976
385.7219, 686.0068
386.2040, 690.0429
386.6862, 691.8690
387.1683, 691.4847
387.6504, 689.3047
388.1325, 684.4550
388.6146, 678.2236
389.0967, 672.7615
389.5789, 668.2556
390.0610, 665.2120
390.5431, 664.2646
391.0252, 665.2738
391.5073, 667.5061
391.9894, 675.4022
392.4716, 681.8032
392.9537, 679.7311
393.4358, 662.2516
393.9179, 646.5624
394.4000, 638.6787
394.8821, 637.2796
395.3643, 639.2134
395.8464, 648.7148
396.3285, 657.1835
396.8106, 659.4851
397.2927, 651.6260
397.7748, 648.5928
398.2570, 658.3553
398.7391, 672.0092
399.2212, 677.8096
399.7033, 667.0781
400.1854, 657.8127
400.6675, 653.7158
401.1497, 655.1140
401.6318, 656.7329
402.1139, 659.1767
402.5960, 661.2482
403.0781, 661.5016
403.5602, 658.1398
404.0424, 657.9215
404.5245, 664.1252
405.0066, 673.9312
405.4887, 673.8333
405.9708, 660.5181
406.4529, 647.1255
406.9351, 642.0646
407.4172, 645.6722
407.8993, 650.0050
408.3814, 654.3380
408.8635, 659.4700
409.3456, 669.1223
409.8278, 683.0195
410.3099, 692.0579
410.7920, 690.1117
411.2741, 679.7328
411.7562, 666.4210
412.2383, 649.2953
412.7205, 636.3406
413.2026, 637.7477
413.6847, 649.6362
414.1668, 662.1519
414.6489, 676.2516
415.1310, 685.9221
415.6132, 680.9382
416.0953, 662.8700
416.5774, 646.2502
417.0595, 639.1127
417.5416, 638.5557
418.0237, 642.0145
418.5059, 651.4191
418.9880, 660.3674
419.4701, 667.3212
419.9522, 671.4072
420.4343, 670.2061
420.9164, 655.2300
421.3986, 640.8277
421.8807, 634.8298
422.3628, 640.8472
422.8449, 646.2083
423.3270, 649.1065
423.8091, 649.9197
424.2913, 649.1369
424.7734, 642.2427
425.2555, 638.6929
425.7376, 642.1318
426.2197, 652.7984
426.7018, 658.2039
427.1840, 654.8849
427.6661, 649.9573
428.1482, 649.1294
428.6303, 655.3252
429.1124, 657.5815
429.5945, 653.0478
430.0767, 644.7370
430.5588, 641.6862
431.0409, 644.6620
431.5230, 650.0972
432.0051, 657.5536
432.4872, 666.9534
432.9694, 672.4857
433.4515, 673.8522
433.9336, 672.0876
434.4157, 666.3458
434.8978, 657.5423
435.3799, 652.5944
435.8621, 657.6298
436.3442, 667.0388
436.8263, 669.0352
437.3084, 663.8359
437.7905, 656.3842
438.2726, 646.8123
438.7548, 638.4509
439.2369, 637.6501
439.7190, 651.3122
440.2011, 664.6358
440.6832, 661.2283
441.1653, 647.1280
441.6474, 639.5109
442.1295, 656.1935
442.6117, 675.5107
443.0938, 681.5156
443.5759, 667.8956
444.0580, 657.2818
444.5401, 661.7272
445.0222, 671.9610
445.5044, 676.6502
445.9865, 666.5635
446.4686, 658.1224
446.9507, 655.8555
447.4328, 659.9402
447.9149, 663.5367
448.3971, 668.2683
448.8792, 671.0549
449.3613, 669.2861
449.8434, 658.3405
450.3255, 653.6231
450.8076, 659.9524
451.2898, 671.1742
451.7719, 669.7032
452.2540, 651.4617
452.7361, 634.2963
453.2182, 626.2482
453.7003, 627.2415
454.1825, 629.5781
454.6646, 633.5436
455.1467, 637.7267
455.6288, 638.2211
456.1109, 636.2638
456.5930, 640.8821
457.0752, 658.8214
457.5573, 681.3892
458.0394, 694.9319
458.5215, 699.5892
459.0036, 695.4111
459.4857, 673.4028
459.9679, 645.6615
460.4500, 629.9973
460.9321, 631.2159
461.4142, 638.1000
461.8963, 646.6225
462.3784, 654.8768
462.8606, 659.3595
463.3427, 653.7622
463.8248, 648.1920
464.3069, 649.2034
464.7890, 657.5580
465.2711, 662.9033
465.7533, 656.3212
466.2354, 649.2144
466.7175, 650.3949
467.1996, 675.8212
467.6817, 691.3730
468.1638, 691.3958
468.6460, 679.6492
469.1281, 668.4921
469.6102, 656.1301
470.0923, 647.0992
470.5744, 643.7258
471.0565, 647.1099
471.5387, 650.7457
472.0208, 655.0282
472.5029, 658.8919
472.9850, 661.4227
473.4671, 662.6895
473.9492, 661.2650
474.4314, 655.3448
474.9135, 647.2985
475.3956, 644.1935
475.8777, 645.9753
476.3598, 648.9947
476.8419, 650.8817
477.3241, 651.9738
477.8062, 652.8066
478.2883, 653.2952
478.7704, 654.1301
479.2525, 656.6743
479.7346, 660.0587
480.2168, 662.3948
480.6989, 662.8291
481.1810, 661.9257
481.6631, 659.5362
482.1452, 655.6890
482.6273, 652.1101
483.1095, 648.7768
483.5916, 646.3934
484.0737, 645.5356
484.5558, 646.1327
485.0379, 648.4238
485.5201, 654.2876
486.0022, 661.9288
486.4843, 666.4383
486.9664, 664.7312
487.4485, 663.7712
487.9306, 666.9858
488.4128, 675.8243
488.8949, 677.0608
489.3770, 667.0178
489.8591, 655.3652
490.3412, 653.1983
490.8233, 661.9211
491.3055, 668.2992
491.7876, 669.9944
492.2697, 667.7462
492.7518, 660.5604
493.2339, 648.6916
493.7160, 641.4297
494.1982, 650.5670
494.6803, 667.9495
495.1624, 672.2299
495.6445, 660.6642
496.1266, 647.1812
496.6087, 645.8732
497.0908, 651.1745
497.5729, 653.4460
498.0551, 644.8983
498.5372, 635.9412
499.0193, 633.6019
499.5014, 636.8679
499.9835, 640.9833
500.4656, 645.6060
500.9478, 649.3788
501.4299, 651.5200
501.9120, 651.5603
502.3941, 650.7822
502.8762, 644.4756
503.3583, 639.2029
503.8405, 644.2379
504.3226, 672.3395
504.8047, 691.1743
505.2868, 692.8376
505.7689, 679.2801
506.2510, 665.7222
506.7332, 651.1279
507.2153, 639.2325
507.6974, 632.4123
508.1795, 630.7534
508.6616, 633.5309
509.1437, 641.7300
509.6259, 651.6877
510.1080, 658.7201
510.5901, 662.9492
511.0722, 665.0296
511.5543, 664.7993
512.0364, 662.8234
512.5186, 659.4224
513.0007, 654.7169
513.4828, 650.0398
513.9649, 643.8810
514.4470, 639.3495
514.9291, 640.5652
515.4113, 650.7401
515.8934, 660.3776
516.3755, 664.1862
516.8576, 664.7361
517.3397, 666.1943
517.8218, 671.0997
518.3040, 675.5483
518.7861, 679.1887
519.2682, 681.9858
519.7503, 681.0054
520.2324, 672.9539
520.7145, 664.4764
521.1967, 659.7071
521.6788, 660.2625
522.1609, 659.6381
522.6430, 656.9688
523.1251, 653.8009
523.6072, 653.1194
524.0894, 655.1089
524.5715, 657.1042
525.0536, 656.6928
525.5357, 656.0012
526.0178, 664.8499
526.4999, 683.1893
526.9821, 697.9996
527.4642, 696.2444
527.9463, 684.6371
528.4284, 674.7164
528.9105, 668.1328
529.3926, 664.0994
529.8748, 662.6708
530.3569, 663.2866
530.8390, 665.0206
531.3211, 671.9282
531.8032, 675.7792
532.2853, 668.7756
532.7675, 652.1656
533.2496, 644.5010
533.7317, 658.6693
534.2138, 675.9820
534.6959, 686.3026
535.1780, 686.0723
535.6602, 685.6295
536.1423, 686.3599
536.6244, 685.8932
537.1065, 679.3771
537.5886, 663.9636
538.0707, 652.7081
538.5529, 650.1434
539.0350, 654.0397
539.5171, 653.5152
539.9992, 648.0954
540.4813, 644.8882
540.9634, 651.9341
541.4456, 665.1940
541.9277, 671.8911
542.4098, 669.9214
542.8919, 666.3489
543.3740, 668.8986
543.8561, 674.7714
544.3383, 679.0180
544.8204, 678.9736
545.3025, 677.4421
545.7846, 674.8267
546.2667, 671.7386
546.7488, 670.7287
547.2310, 675.6597
547.7131, 680.4770
548.1952, 682.6116
548.6773, 682.0174
549.1594, 677.7920
549.6415, 666.1971
550.1237, 653.6876
550.6058, 646.7488
551.0879, 647.1633
551.5700, 648.4609
552.0521, 648.9393
552.5342, 650.1495
553.0164, 658.7166
553.4985, 675.7471
553.9806, 689.4756
554.4627, 692.2278
554.9448, 686.4681
555.4269, 680.9203
555.9091, 675.5751
556.3912, 671.7831
556.8733, 672.4838
557.3554, 675.2292
557.8375, 675.8185
558.3196, 672.2456
558.8018, 668.0300
559.2839, 664.3958
559.7660, 661.9164
560.2481, 661.7026
560.7302, 666.3956
561.2123, 671.3392
561.6945, 673.5712
562.1766, 672.6385
562.6587, 676.2888
563.1408, 694.0989
563.6229, 708.2587
564.1050, 707.1381
564.5872, 681.1072
565.0693, 665.1967
565.5514, 662.5729
566.0335, 667.2689
566.5156, 669.9597
566.9977, 670.4874
567.4799, 671.8598
567.9620, 675.6928
568.4441, 680.5493
568.9262, 682.4550
569.4083, 681.6528
569.8904, 680.5815
570.3726, 681.3641
570.8547, 682.6558
571.3368, 681.5411
571.8189, 677.0541
572.3010, 675.7926
572.7831, 689.1865
573.2653, 705.2272
573.7474, 710.3440
574.2295, 685.6132
574.7116, 666.6515
575.1937, 664.8745
575.6758, 675.5331
576.1580, 683.2317
576.6401, 689.0804
577.1222, 689.9346
577.6042, 682.9813
578.0864, 667.5054
578.5685, 658.0115
579.0506, 654.9332
579.5327, 656.4373
580.0148, 663.6540
580.4969, 675.9656
580.9791, 682.4084
581.4612, 681.1921
581.9433, 675.1904
582.4254, 663.0968
582.9075, 648.7624
583.3896, 644.0401
583.8718, 663.6505
584.3539, 687.4830
584.8360, 698.6296
585.3181, 698.3759
585.8002, 693.7324
586.2823, 681.8456
586.7645, 671.2722
587.2466, 667.3313
587.7287, 671.8242
588.2108, 678.6337
588.6929, 691.6880
589.1750, 703.9429
589.6572, 708.9676
590.1393, 703.1653
590.6214, 698.1832
591.1035, 695.9394
591.5856, 694.6286
592.0677, 689.0948
592.5499, 678.8483
593.0320, 669.4509
593.5141, 661.9257
593.9962, 657.2781
594.4783, 660.0157
594.9604, 669.9676
595.4426, 681.4299
595.9247, 693.4752
596.4068, 703.1572
596.8889, 704.8145
597.3710, 695.0045
597.8531, 687.3704
598.3353, 693.0149
598.8174, 703.9484
599.2995, 710.2859
599.7816, 707.0663
600.2637, 701.6666
600.7458, 695.2010
601.2280, 687.6068
601.7101, 677.7001
602.1922, 658.9214
602.6743, 649.1373
603.1564, 658.8740
603.6385, 688.1691
604.1207, 704.5796
604.6028, 706.5453
605.0849, 702.7858
605.5670, 698.9370
606.0491, 695.5305
606.5313, 695.6374
607.0134, 700.4980
607.4955, 705.7635
607.9776, 706.0001
608.4597, 703.2397
608.9418, 701.4685
609.4240, 701.5388
609.9061, 703.7894
610.3882, 710.9324
610.8703, 721.0974
611.3524, 726.8512
611.8345, 721.9789
612.3167, 716.1714
612.7988, 713.6893
613.2809, 715.1757
613.7630, 715.8503
614.2451, 715.5665
614.7272, 714.7202
615.2094, 713.5679
615.6915, 712.1005
616.1736, 710.4177
616.6557, 708.3999
617.1378, 706.4897
617.6199, 704.0503
618.1021, 701.8421
618.5842, 704.0902
619.0663, 717.0732
619.5484, 730.4869
620.0305, 729.1115
620.5126, 716.6795
620.9948, 707.9707
621.4769, 716.9814
621.9590, 727.2906
622.4411, 727.7363
622.9232, 716.1606
623.4053, 706.7094
623.8875, 700.1909
624.3696, 698.1600
624.8517, 702.7827
625.3338, 721.8530
625.8159, 728.9931
626.2980, 719.4351
626.7802, 703.0034
627.2623, 693.6221
627.7444, 691.4237
628.2265, 694.3790
628.7086, 705.3141
629.1907, 717.4205
629.6729, 714.1220
630.1550, 698.2388
630.6371, 683.7612
631.1192, 678.4261
631.6013, 678.7051
632.0834, 683.8248
632.5656, 693.5058
633.0477, 699.0862
633.5298, 691.6258
634.0119, 682.1129
634.4940, 678.5034
634.9761, 685.6155
635.4583, 690.8984
635.9404, 693.1918
636.4225, 693.9921
636.9046, 695.3953
637.3867, 698.3052
637.8688, 698.0891
638.3510, 692.7780
638.8331, 685.2221
639.3152, 682.3903
639.7973, 684.0269
640.2794, 686.0197
640.7615, 686.0613
641.2437, 685.3918
641.7258, 685.4138
642.2079, 686.2548
642.6900, 688.8392
643.1721, 696.3701
643.6542, 704.1442
644.1364, 708.4603
644.6185, 708.1777
645.1006, 706.8318
645.5827, 703.3423
646.0648, 700.2129
646.5469, 700.0090
647.0291, 706.7205
647.5112, 707.9611
647.9933, 701.0292
648.4754, 690.0569
648.9575, 681.7196
649.4396, 675.7435
649.9218, 675.6213
650.4039, 684.9456
650.8860, 698.6024
651.3681, 705.5933
651.8502, 706.7880
652.3323, 707.0725
652.8145, 710.6004
653.2966, 713.7748
653.7787, 713.7342
654.2608, 710.2682
654.7429, 703.5513
655.2250, 687.7499
655.7072, 672.7597
656.1893, 665.6190
656.6714, 670.3806
657.1535, 676.7513
657.6356, 688.3476
658.1177, 698.1450
658.5999, 694.9285
659.0820, 674.7158
659.5641, 666.0143
660.0462, 677.0375
660.5283, 696.3715
661.0104, 703.0867
661.4926, 698.8598
661.9747, 692.4887
662.4568, 688.1888
662.9389, 683.6589
663.4210, 673.2551
663.9031, 659.2306
664.3853, 651.9760
664.8674, 663.7952
665.3495, 677.9816
665.8316, 684.8774
666.3137, 682.2486
666.7958, 681.0428
667.2780, 682.4996
667.7601, 684.9401
668.2422, 687.5654
668.7243, 690.8442
669.2064, 691.8487
669.6885, 689.6701
670.1707, 687.0092
670.6528, 689.9825
671.1349, 696.7213
671.6170, 694.7632
672.0991, 676.7844
672.5812, 657.0978
673.0634, 654.5134
673.5455, 663.0560
674.0276, 668.8339
674.5097, 658.9843
674.9918, 651.1928
675.4739, 656.0464
675.9561, 671.8294
676.4382, 685.3726
676.9203, 699.2023
677.4024, 705.7292
677.8845, 699.4393
678.3666, 678.9992
678.8488, 670.6845
679.3309, 679.0314
679.8130, 685.3820
680.2951, 667.1968
680.7772, 631.6877
681.2593, 621.7188
681.7415, 644.0579
682.2236, 671.6948
682.7057, 677.4617
683.1878, 670.7141
683.6699, 666.0848
684.1520, 667.5597
684.6342, 671.7195
685.1163, 682.4443
685.5984, 693.7366
686.0805, 695.5806
686.5626, 669.4598
687.0447, 654.8799
687.5268, 664.8763
688.0089, 689.6794
688.4910, 690.5948
688.9731, 661.0704
689.4553, 637.0074
689.9374, 636.7984
690.4195, 653.3997
690.9016, 663.2070
691.3837, 666.2667
691.8658, 664.9172
692.3480, 656.8088
692.8301, 647.2613
693.3122, 642.6861
693.7943, 643.9685
694.2764, 646.2274
694.7585, 648.6284
695.2407, 650.3210
695.7228, 650.5398
696.2049, 647.5319
696.6870, 646.2441
697.1691, 647.5054
697.6512, 649.7134
698.1334, 651.9287
698.6155, 654.7248
699.0976, 651.3721
699.5797, 637.9113
700.0618, 623.4237
700.5439, 628.3204
701.0261, 646.5557
701.5082, 655.7300
701.9903, 635.7980
702.4724, 612.7994
702.9545, 611.9793
703.4366, 626.7167
703.9188, 636.2846
704.4009, 626.3389
704.8830, 616.6387
705.3651, 614.6432
705.8472, 620.2605
706.3293, 630.7894
706.8115, 651.6478
707.2936, 666.5858
707.7757, 663.8839
708.2578, 644.0689
708.7399, 631.5409
709.2220, 627.0786
709.7042, 623.4460
710.1863, 609.3939
710.6684, 592.8824
711.1505, 590.4179
711.6326, 606.5098
712.1147, 624.9855
712.5969, 637.4406
713.0790, 645.7928
713.5611, 651.9802
714.0432, 655.3970
714.5253, 657.8282
715.0074, 659.1171
715.4896, 659.7231
715.9717, 660.6721
716.4538, 662.5973
716.9359, 661.7703
717.4180, 655.7144
717.9001, 648.4808
718.3823, 651.6934
718.8644, 663.2116
719.3465, 670.5004
719.8286, 662.1183
720.3107, 650.5547
720.7928, 650.1790
721.2750, 658.4827
721.7571, 665.5881
722.2392, 670.7106
722.7213, 670.3977
723.2034, 659.4203
723.6855, 637.0773
724.1677, 623.9388
724.6498, 621.4542
725.1319, 626.0861
725.6140, 640.3276
726.0961, 664.3184
726.5782, 670.6758
727.0604, 657.6506
727.5425, 641.5995
728.0246, 638.6617
728.5067, 642.9683
728.9888, 641.9762
729.4709, 632.2493
729.9531, 626.7070
730.4352, 641.9152
730.9173, 661.3760
731.3994, 668.3098
731.8815, 644.9180
732.3636, 629.6950
732.8458, 627.3276
733.3279, 632.7468
733.8100, 640.5499
734.2921, 652.0463
734.7742, 659.5760
735.2563, 661.5369
735.7385, 659.3294
736.2206, 652.4301
736.7027, 642.6688
737.1848, 638.6636
737.6669, 648.9202
738.1490, 661.1622
738.6312, 662.8933
739.1133, 657.5698
739.5954, 654.8046
740.0775, 663.2176
740.5596, 669.3960
741.0417, 667.5997
741.5239, 658.9868
742.0060, 649.7089
742.4881, 637.5460
742.9702, 629.9948
743.4523, 631.5309
743.9344, 640.8422
744.4166, 651.9213
744.8987, 664.7563
745.3808, 673.5352
745.8629, 670.2729
746.3450, 662.4412
746.8271, 659.4040
747.3093, 662.0449
747.7914, 665.8918
748.2735, 671.6182
748.7556, 675.9211
749.2377, 676.4228
749.7198, 661.8887
750.2020, 674.0237
750.6841, 680.6225
751.1662, 681.9823
751.6483, 662.4119
752.1304, 669.8685
752.6125, 666.4940
753.0947, 662.6751
753.5768, 673.9357
754.0589, 657.4095
754.5410, 668.4310
755.0231, 668.4560
755.5052, 673.5137
755.9874, 667.6733
756.4695, 665.1991
756.9516, 673.6264
757.4337, 676.0175
757.9158, 668.9227
758.3979, 674.3003
758.8801, 652.0508
759.3622, 634.1746
759.8443, 632.8095
760.3264, 649.7630
760.8085, 660.6442
761.2906, 655.1558
761.7728, 644.8214
762.2549, 653.7582
762.7370, 675.3671
763.2191, 688.2880
763.7012, 669.4435
764.1833, 650.6017
764.6655, 655.8557
765.1476, 678.4630
765.6297, 689.5841
766.1118, 670.4784
766.5939, 655.7015
767.0760, 655.9704
767.5582, 668.6482
768.0403, 674.1265
768.5224, 671.2817
769.0045, 669.1542
769.4866, 676.3922
769.9688, 687.1483
770.4509, 684.9362
770.9330, 671.1896
771.4151, 658.3907
771.8972, 653.3209
772.3793, 653.2145
772.8615, 657.4665
773.3436, 666.3615
773.8257, 673.9733
774.3078, 682.3057
774.7899, 686.1725
775.2720, 681.4368
775.7542, 666.9371
776.2363, 656.0739
776.7184, 648.1801
777.2005, 647.2764
777.6826, 663.8015
778.1647, 688.8975
778.6469, 700.2199
779.1290, 694.9055
779.6111, 686.1832
780.0932, 681.7199
780.5753, 678.9766
781.0574, 675.4788
781.5396, 669.5372
782.0217, 666.0096
782.5038, 664.0826
782.9859, 665.6728
783.4680, 673.8489
783.9501, 690.1135
784.4323, 702.7412
784.9144, 711.2919
785.3965, 714.2125
785.8786, 705.2063
786.3607, 689.4831
786.8428, 679.1570
787.3250, 677.7803
787.8071, 680.1350
788.2892, 684.3337
788.7713, 689.7248
789.2534, 695.5909
789.7355, 705.1893
790.2177, 710.3115
790.6998, 709.2988
791.1819, 704.7180
791.6640, 699.4109
792.1461, 693.1819
792.6282, 689.1219
793.1104, 687.9619
793.5925, 688.7993
794.0746, 691.4451
794.5567, 694.9796
795.0388, 696.9672
795.5209, 689.8619
796.0031, 672.8145
796.4852, 683.9706
796.9672, 689.5908
797.4493, 689.9717
797.9315, 669.4219
798.4136, 675.8997
798.8957, 671.5461
799.3778, 666.7484
799.8599, 677.0299
800.3420, 659.5250
800.8242, 669.5670
801.3063, 668.2469
801.7884, 666.7428
802.2705, 668.1267
802.7526, 672.0389
803.2347, 677.6962
803.7169, 688.4973
804.1990, 697.0145
804.6811, 699.3681
805.1632, 696.8363
805.6453, 694.3998
806.1274, 691.8048
806.6096, 689.6232
807.0917, 686.7479
807.5738, 685.1580
808.0559, 694.8251
808.5380, 714.0743
809.0201, 725.7303
809.5023, 712.8953
809.9844, 695.0734
810.4665, 694.8734
810.9486, 707.5002
811.4307, 716.9875
811.9128, 715.2078
812.3950, 711.5693
812.8771, 707.3319
813.3592, 703.6293
813.8413, 707.0569
814.3234, 720.3105
814.8055, 730.6011
815.2877, 731.5894
815.7698, 726.6970
816.2519, 726.3444
816.7340, 729.4902
817.2161, 730.3953
817.6982, 723.0487
818.1804, 714.4868
818.6625, 709.3367
819.1446, 707.5609
819.6267, 708.1765
820.1088, 716.1185
820.5909, 720.3915
821.0731, 716.1932
821.5552, 705.4057
822.0373, 697.8617
822.5194, 693.1235
823.0015, 688.2522
823.4836, 700.9845
823.9658, 708.1804
824.4479, 710.1372
824.9300, 691.1640
825.4121, 699.2177
825.8942, 696.4402
826.3763, 693.2187
826.8585, 705.0764
827.3406, 689.1474
827.8227, 700.7660
828.3048, 702.0068
828.7869, 709.4078
829.2690, 715.8990
829.7512, 721.2090
830.2333, 722.3260
830.7154, 719.6241
831.1975, 718.4142
831.6796, 726.1146
832.1617, 734.0181
832.6439, 730.0881
833.1260, 716.5427
833.6081, 708.1537
834.0902, 716.2876
834.5723, 723.8737
835.0544, 724.5878
835.5366, 719.0627
836.0187, 711.6648
836.5008, 700.8852
836.9829, 695.3048
837.4650, 702.9358
837.9471, 716.9058
838.4293, 721.1114
838.9114, 716.6172
839.3935, 709.5579
839.8756, 698.7327
840.3577, 690.6508
840.8398, 690.0071
841.3220, 696.3039
841.8041, 703.8547
842.2862, 716.0057
842.7683, 722.7777
843.2504, 718.7758
843.7325, 706.9683
844.2147, 702.0072
844.6968, 703.6229
845.1789, 704.9783
845.6610, 700.0546
846.1431, 694.4266
846.6252, 695.9238
847.1074, 702.6897
847.5895, 707.1343
848.0716, 703.7811
848.5537, 700.4256
849.0358, 700.5613
849.5179, 703.0067
850.0001, 700.8564
850.4822, 692.1027
850.9643, 689.3486
851.4464, 702.1117
851.9285, 720.4795
852.4106, 718.5213
852.8928, 701.6105
853.3749, 689.0340
853.8570, 693.7747
854.3391, 702.5643
854.8212, 709.7179
855.3033, 715.0487
855.7855, 718.2374
856.2676, 719.1271
856.7497, 718.4003
857.2318, 716.2735
857.7139, 712.5604
858.1960, 703.9658
858.6782, 691.5046
859.1603, 686.1783
859.6424, 694.7133
860.1245, 714.8734
860.6066, 728.0629
861.0887, 735.7160
861.5709, 738.1304
862.0530, 719.6143
862.5351, 728.1253
863.0172, 725.8051
863.4993, 692.1981
863.9814, 687.2503
864.4636, 699.4708
864.9457, 709.6188
865.4278, 712.5407
865.9099, 711.4608
866.3920, 712.1709
866.8741, 712.5128
867.3563, 707.4941
867.8384, 687.9064
868.3205, 672.5704
868.8026, 670.7277
869.2847, 677.2953
869.7668, 683.7069
870.2490, 689.5287
870.7311, 696.7336
871.2132, 706.6129
871.6953, 715.6147
872.1774, 716.7997
872.6595, 712.2056
873.1417, 709.0297
873.6238, 709.5200
874.1059, 710.1071
874.5880, 707.9452
875.0701, 704.4733
875.5522, 701.3327
876.0344, 698.4667
876.5165, 696.4293
876.9986, 695.1702
877.4807, 694.8141
877.9628, 695.7349
878.4449, 697.8353
878.9271, 699.7144
879.4092, 701.0674
879.8913, 703.4816
880.3734, 711.1385
880.8555, 719.3092
881.3376, 721.8806
881.8198, 715.9945
882.3019, 711.4643
882.7840, 712.0585
883.2661, 712.7991
883.7482, 708.9354
884.2303, 698.8781
884.7125, 701.2959
885.1946, 717.8660
885.6767, 733.2444
886.1588, 731.1881
886.6409, 720.9225
887.1230, 716.2188
887.6052, 718.1448
888.0873, 719.2383
888.5694, 713.1403
889.0515, 708.2446
889.5336, 709.3029
890.0157, 716.3287
890.4979, 724.6285
890.9800, 734.9070
891.4621, 742.7876
891.9442, 744.0844
892.4263, 741.5338
892.9084, 742.2648
893.3906, 745.4788
893.8727, 746.6965
894.3548, 743.5490
894.8369, 737.7341
895.3190, 727.5811
895.8011, 714.6213
896.2833, 709.0989
896.7654, 714.5434
897.2475, 717.5981
897.7296, 712.0788
898.2117, 703.1929
898.6938, 707.0594
899.1760, 720.0764
899.6581, 727.1201
900.1402, 714.7410
900.6223, 701.5130
901.1044, 700.0064
901.5865, 705.9214
902.0687, 709.9725
902.5508, 707.9329
903.0329, 711.2772
903.5150, 725.0056
903.9971, 739.8911
904.4792, 735.9169
904.9614, 717.0619
905.4435, 706.0652
905.9256, 710.2550
906.4077, 717.6273
906.8898, 718.2526
907.3719, 716.2241
907.8540, 716.4600
908.3361, 720.3098
908.8182, 726.4854
909.3004, 737.6376
909.7825, 747.3746
910.2646, 747.7398
910.7467, 739.7664
911.2288, 738.0344
911.7109, 744.4803
912.1931, 746.5015
912.6752, 723.4936
913.1573, 696.5902
913.6394, 690.0013
914.1215, 710.2152
914.6036, 723.6359
915.0858, 723.9063
915.5679, 717.9307
916.0500, 705.1933
916.5321, 687.2447
917.0142, 688.6755
917.4963, 709.3054
917.9785, 727.1581
918.4606, 722.3787
918.9427, 711.2119
919.4248, 712.5841
919.9069, 724.2521
920.3890, 731.3306
920.8712, 721.5151
921.3533, 716.4308
921.8354, 725.1543
922.3175, 741.5571
922.7996, 743.7361
923.2817, 731.6221
923.7639, 720.7239
924.2460, 715.7574
924.7281, 715.8710
925.2102, 723.4295
925.6923, 734.6514
926.1744, 742.4886
926.6566, 746.4876
927.1387, 743.6541
927.6208, 727.0276
928.1029, 709.2132
928.5850, 709.5286
929.0671, 728.9557
929.5493, 739.6365
930.0314, 736.7755
930.5135, 730.8522
930.9956, 735.5024
931.4777, 743.0148
931.9598, 741.6302
932.4420, 725.5617
932.9241, 715.8786
933.4062, 723.2709
933.8883, 732.9014
934.3704, 737.3625
934.8525, 736.6811
935.3347, 725.7236
935.8168, 703.8409
936.2989, 687.0693
936.7810, 690.5703
937.2631, 703.9647
937.7452, 718.2016
938.2274, 731.9742
938.7095, 739.6879
939.1916, 736.1586
939.6737, 729.7632
940.1558, 721.3035
940.6379, 712.3433
941.1201, 709.9091
941.6022, 714.0283
942.0843, 718.4113
942.5664, 720.1422
943.0485, 721.5881
943.5306, 728.8032
944.0128, 737.1531
944.4949, 737.7051
944.9770, 718.7847
945.4591, 703.6161
945.9412, 693.4424
946.4233, 689.6813
946.9055, 697.2604
947.3876, 715.7601
947.8697, 726.6467
948.3518, 726.6928
948.8339, 723.9949
949.3160, 724.9108
949.7982, 728.3820
950.2803, 734.0299
950.7624, 742.9891
951.2445, 748.5095
951.7266, 749.4181
952.2087, 747.3081
952.6909, 741.8604
953.1730, 733.5277
953.6551, 729.1161
954.1372, 728.5204
954.6193, 728.2251
955.1014, 723.8591
955.5836, 720.4661
956.0657, 723.3425
956.5478, 731.4807
957.0299, 739.2288
957.5120, 747.6270
957.9941, 752.3161
958.4763, 751.9088
958.9584, 747.5522
959.4405, 739.1296
959.9226, 728.1398
960.4047, 724.5768
960.8868, 735.9075
961.3690, 746.2036
961.8511, 737.9636
962.3332, 723.5616
962.8153, 719.0984
963.2974, 732.1356
963.7795, 746.8256
964.2617, 766.2666
964.7438, 781.3760
965.2259, 780.2307
965.7080, 767.0670
966.1901, 755.9523
966.6722, 748.0463
967.1544, 742.9855
967.6365, 745.8810
968.1186, 747.2225
968.6007, 737.7482
969.0828, 717.5522
969.5649, 705.7249
970.0471, 703.6513
970.5292, 705.2054
971.0113, 707.7377
971.4934, 712.2878
971.9755, 725.0294
972.4576, 742.2351
972.9398, 752.5322
973.4219, 743.7470
973.9040, 735.3811
974.3861, 735.0189
974.8682, 739.5983
975.3503, 744.7120
975.8325, 751.0145
976.3146, 755.2517
976.7967, 757.3812
977.2788, 756.1719
977.7609, 744.3127
978.2430, 730.3521
978.7252, 731.3328
979.2073, 752.8186
979.6894, 766.7807
980.1715, 754.4012
980.6536, 740.0824
981.1357, 736.8021
981.6179, 743.9521
982.1000, 748.1185
982.5821, 749.3727
983.0642, 745.9922
983.5463, 728.9069
984.0284, 712.9336
984.5106, 719.2081
984.9927, 740.1125
985.4748, 753.1166
985.9569, 743.9673
986.4390, 737.4431
986.9211, 737.7384
987.4033, 741.3994
987.8854, 741.8380
988.3675, 739.8975
988.8496, 742.0022
989.3317, 750.5161
989.8138, 758.1395
990.2960, 757.4246
990.7781, 753.7946
991.2602, 752.8066
991.7423, 755.9527
992.2244, 758.4229
992.7065, 760.8157
993.1887, 761.0291
993.6708, 757.5983
994.1529, 750.9002
994.6350, 738.0856
995.1171, 721.5488
995.5992, 714.1896
996.0814, 728.8567
996.5635, 748.1028
997.0456, 769.6866
997.5277, 788.9205
998.0098, 792.2059
998.4919, 775.8123
998.9741, 764.8910
999.4562, 765.5630
999.9383, 770.6251
1000.420, 771.2780
1000.903, 769.6761
1001.385, 769.7922
1001.867, 773.9733
1002.349, 774.9531
1002.831, 768.2801
1003.313, 760.8110
1003.795, 757.7147
1004.277, 758.7069
1004.759, 751.6163
1005.242, 736.6266
1005.724, 725.9320
1006.206, 731.7068
1006.688, 741.3493
1007.170, 744.3246
1007.652, 741.8941
1008.134, 740.7896
1008.616, 743.9310
1009.099, 743.4203
1009.581, 735.6802
1010.063, 727.0199
1010.545, 730.4389
1011.027, 741.9450
1011.509, 748.7514
1011.991, 746.9150
1012.473, 744.2551
1012.955, 745.5380
1013.438, 747.4443
1013.920, 747.1586
1014.402, 744.3857
1014.884, 741.5825
1015.366, 738.5762
1015.848, 736.6270
1016.330, 736.5707
1016.812, 738.0831
1017.294, 741.4544
1017.777, 746.0891
1018.259, 749.8607
1018.741, 752.9216
1019.223, 753.7880
1019.705, 751.5314
1020.187, 747.6673
1020.669, 744.3655
1021.151, 741.7490
1021.633, 740.4050
1022.116, 740.1568
1022.598, 742.8212
1023.080, 754.3643
1023.562, 766.6110
1024.044, 771.3629
1024.526, 766.2193
1025.008, 760.6192
1025.490, 753.0859
1025.973, 749.5358
1026.455, 756.0334
1026.937, 767.3345
1027.419, 770.8432
1027.901, 768.1465
1028.383, 764.8539
1028.865, 762.4747
1029.347, 761.0807
1029.829, 762.7178
1030.312, 764.1573
1030.794, 760.6907
1031.276, 752.1618
1031.758, 740.4071
1032.240, 724.5693
1032.722, 715.4174
1033.204, 732.3633
1033.686, 755.4374
1034.169, 761.6489
1034.651, 746.5024
1035.133, 742.1639
1035.615, 758.8597
1036.097, 769.2886
1036.579, 758.3792
1037.061, 736.6625
1037.543, 734.7203
1038.026, 748.1907
1038.508, 762.2632
1038.990, 776.5193
1039.472, 782.1219
1039.954, 766.4501
1040.436, 745.6364
1040.918, 738.8257
1041.400, 748.7482
1041.882, 755.2528
1042.365, 757.3035
1042.847, 757.8636
1043.329, 761.5309
1043.811, 763.8499
1044.293, 757.7361
1044.775, 743.8237
1045.257, 733.9708
1045.739, 729.8445
1046.221, 731.0791
1046.704, 740.8078
1047.186, 752.3021
1047.668, 746.5786
1048.150, 729.4329
1048.632, 721.9088
1049.114, 732.3625
1049.596, 746.6555
1050.078, 763.1046
1050.561, 775.4304
1051.043, 777.4042
1051.525, 767.1642
1052.007, 761.6121
1052.489, 761.0361
1052.971, 761.8575
1053.453, 760.7941
1053.935, 760.3988
1054.417, 767.3724
1054.900, 777.8331
1055.382, 779.3779
1055.864, 758.6101
1056.346, 744.5317
1056.828, 741.8044
1057.310, 745.5925
1057.792, 750.3746
1058.274, 755.6326
1058.756, 759.5859
1059.239, 761.8685
1059.721, 764.2584
1060.203, 769.8057
1060.685, 773.8376
1061.167, 772.1778
1061.649, 765.7044
1062.131, 765.6482
1062.613, 772.3217
1063.096, 775.9798
1063.578, 769.5828
1064.060, 762.5647
1064.542, 767.6403
1065.024, 778.7727
1065.506, 786.1693
1065.988, 784.2427
1066.470, 784.3682
1066.953, 787.3972
1067.435, 790.6005
1067.917, 794.3034
1068.399, 795.7061
1068.881, 780.2315
1069.363, 751.0028
1069.845, 735.4499
1070.327, 760.8781
1070.809, 787.6688
1071.292, 803.3143
1071.774, 808.8180
1072.256, 803.3053
1072.738, 787.0940
1073.220, 777.1232
1073.702, 777.9393
1074.184, 781.0079
1074.666, 778.3926
1075.148, 774.2971
1075.630, 773.5724
1076.113, 777.8041
1076.595, 777.7736
1077.077, 773.1526
1077.559, 765.2505
1078.041, 750.3033
1078.523, 736.6867
1079.005, 744.2932
1079.487, 765.4524
1079.970, 781.5818
1080.452, 781.0611
1080.934, 782.0538
1081.416, 790.3423
1081.898, 797.0195
1082.380, 789.7178
1082.862, 771.2167
1083.344, 763.7104
1083.827, 767.7938
1084.309, 770.8199
1084.791, 758.3369
1085.273, 748.2559
1085.755, 755.4268
1086.237, 773.5770
1086.719, 783.4095
1087.201, 784.6390
1087.683, 778.1417
1088.166, 761.5559
1088.648, 746.9252
1089.130, 752.1331
1089.612, 765.0410
1090.094, 770.1122
1090.576, 762.5226
1091.058, 761.8484
1091.540, 773.0999
1092.022, 781.4860
1092.505, 777.2631
1092.987, 767.1292
1093.469, 769.3982
1093.951, 779.8792
1094.433, 786.7802
1094.915, 781.8269
1095.397, 777.8128
1095.879, 779.3837
1096.362, 781.5762
1096.844, 779.3978
1097.326, 773.1978
1097.808, 768.3981
1098.290, 765.1803
1098.772, 763.2629
1099.254, 759.7474
1099.736, 760.0583
1100.219, 773.0237
1100.701, 792.3125
1101.183, 796.2672
1101.665, 780.8088
1102.147, 775.7366
1102.629, 788.1625
1103.111, 803.9068
1103.593, 808.4215
1104.075, 806.4885
1104.557, 803.1884
1105.040, 799.0884
1105.522, 794.9664
1106.004, 791.2339
1106.486, 786.6998
1106.968, 780.8762
1107.450, 773.9078
1107.932, 760.3941
1108.414, 746.5073
1108.897, 748.4478
1109.379, 783.9773
1109.861, 809.0645
1110.343, 804.9532
1110.825, 795.6346
1111.307, 798.7328
1111.789, 812.5106
1112.271, 819.4686
1112.754, 819.5854
1113.236, 813.3419
1113.718, 792.8771
1114.200, 774.8455
1114.682, 772.1210
1115.164, 775.8645
1115.646, 769.2316
1116.128, 749.7827
1116.610, 745.1921
1117.093, 759.4930
1117.575, 774.8868
1118.057, 774.8870
1118.539, 769.0756
1119.021, 765.7749
1119.503, 765.3305
1119.985, 763.4445
1120.467, 757.7393
1120.949, 759.0306
1121.432, 772.7303
1121.914, 787.7498
1122.396, 786.1022
1122.878, 775.6899
1123.360, 768.1221
1123.842, 765.1066
1124.324, 768.1819
1124.806, 780.3987
1125.289, 792.7661
1125.771, 802.2122
1126.253, 808.0015
1126.735, 805.7490
1127.217, 797.8497
1127.699, 791.8436
1128.181, 791.5926
1128.663, 792.1422
1129.146, 795.3403
1129.628, 795.5384
1130.110, 784.4688
1130.592, 763.4938
1131.074, 759.9753
1131.556, 772.8492
1132.038, 786.2333
1132.520, 791.0808
1133.002, 793.0506
1133.484, 791.9874
1133.967, 791.5900
1134.449, 801.1633
1134.931, 823.0048
1135.413, 828.3073
1135.895, 812.8636
1136.377, 793.2559
1136.859, 778.6532
1137.341, 770.4321
1137.824, 773.8121
1138.306, 786.8323
1138.788, 789.8859
1139.270, 779.1962
1139.752, 773.7333
1140.234, 778.8764
1140.716, 788.4290
1141.198, 798.3837
1141.681, 805.6362
1142.163, 803.1631
1142.645, 786.9435
1143.127, 783.3963
1143.609, 799.1577
1144.091, 815.3947
1144.573, 826.2562
1145.055, 830.1756
1145.537, 819.2018
1146.020, 799.1755
1146.502, 783.5994
1146.984, 778.1031
1147.466, 773.0705
1147.948, 762.8359
1148.430, 758.8862
1148.912, 775.3514
1149.394, 804.5107
1149.876, 806.9268
1150.359, 789.5212
1150.841, 781.8312
1151.323, 816.2722
1151.805, 838.9896
1152.287, 825.8040
1152.769, 801.0850
1153.251, 789.0388
1153.733, 788.9623
1154.216, 794.7342
1154.698, 805.3776
1155.180, 810.6113
1155.662, 793.2235
1156.144, 779.8878
1156.626, 791.8096
1157.108, 815.1212
1157.590, 824.9317
1158.073, 821.2003
1158.555, 812.8659
1159.037, 800.5054
1159.519, 791.1551
1160.001, 790.8058
1160.483, 795.6434
1160.965, 807.2490
1161.447, 822.3613
1161.929, 821.8710
1162.411, 803.8445
1162.894, 790.6108
1163.376, 788.3127
1163.858, 792.1862
1164.340, 801.7975
1164.822, 811.9791
1165.304, 817.0624
1165.786, 816.0554
1166.268, 814.8625
1166.751, 813.6486
1167.233, 811.2222
1167.715, 805.8414
1168.197, 800.9459
1168.679, 803.1385
1169.161, 808.2032
1169.643, 809.1461
1170.125, 800.0308
1170.608, 799.9606
1171.090, 811.4752
1171.572, 823.5859
1172.054, 829.9220
1172.536, 831.6830
1173.018, 827.9168
1173.500, 821.5755
1173.982, 819.5338
1174.464, 831.1732
1174.947, 834.9656
1175.429, 827.1784
1175.911, 818.5593
1176.393, 819.9070
1176.875, 826.7807
1177.357, 829.9484
1177.839, 829.8655
1178.321, 829.8927
1178.803, 833.7382
1179.286, 833.6167
1179.768, 827.0060
1180.250, 818.8573
1180.732, 815.0112
1181.214, 814.3742
1181.696, 815.1109
1182.178, 816.7584
1182.660, 816.1339
1183.142, 808.6405
1183.625, 802.8098
1184.107, 800.0614
1184.589, 800.9137
1185.071, 810.0553
1185.553, 823.3873
1186.035, 825.7367
1186.517, 814.0736
1186.999, 805.7084
1187.482, 811.0576
1187.964, 818.4911
1188.446, 825.5643
1188.928, 830.1412
1189.410, 822.8595
1189.892, 807.6548
1190.374, 800.7470
1190.856, 807.3137
1191.339, 815.3357
1191.821, 823.3266
1192.303, 826.2114
1192.785, 818.8102
1193.267, 805.0982
1193.749, 804.8829
1194.231, 814.9920
1194.713, 819.4888
1195.195, 809.0206
1195.677, 802.0579
1196.160, 810.9777
1196.642, 823.8221
1197.124, 832.6462
1197.606, 837.9186
1198.088, 846.9926
1198.570, 858.1010
1199.052, 859.4375
1199.534, 835.8194
1200.017, 816.4833
1200.499, 820.2715
1200.981, 830.8287
1201.463, 832.6439
1201.945, 826.0032
1202.427, 832.6038
1202.909, 850.5067
1203.391, 862.1230
1203.874, 854.1447
1204.356, 841.0128
1204.838, 820.6341
1205.320, 805.1443
1205.802, 812.6293
1206.284, 842.3297
1206.766, 852.0430
1207.248, 841.5018
1207.730, 831.7844
1208.213, 835.9810
1208.695, 844.8135
1209.177, 861.5770
1209.659, 875.3508
1210.141, 865.3341
1210.623, 832.7562
1211.105, 818.7661
1211.587, 826.4954
1212.069, 840.0128
1212.552, 856.9422
1213.034, 867.1091
1213.516, 861.1668
1213.998, 846.2292
1214.480, 832.3250
1214.962, 819.6278
1215.444, 814.3383
1215.926, 817.3757
1216.409, 823.8497
1216.891, 837.2830
1217.373, 845.8366
1217.855, 838.2256
1218.337, 822.5942
1218.819, 820.5956
1219.301, 830.7732
1219.783, 831.7898
1220.266, 818.6522
1220.748, 810.2653
1221.230, 828.6510
1221.712, 846.5897
1222.194, 845.1737
1222.676, 831.4034
1223.158, 830.1558
1223.640, 839.5173
1224.122, 841.4385
1224.604, 830.1709
1225.087, 819.8257
1225.569, 820.7104
1226.051, 824.4655
1226.533, 825.5119
1227.015, 824.9564
1227.497, 827.8309
1227.979, 833.7709
1228.461, 840.9633
1228.944, 849.9940
1229.426, 856.0643
1229.908, 854.8179
1230.390, 851.1808
1230.872, 847.8491
1231.354, 844.9498
1231.836, 843.0522
1232.318, 842.1890
1232.801, 842.8248
1233.283, 846.0443
1233.765, 848.1896
1234.247, 845.2925
1234.729, 843.0038
1235.211, 846.3032
1235.693, 852.9514
1236.175, 850.8265
1236.657, 841.1564
1237.140, 828.3570
1237.622, 809.7264
1238.104, 797.7113
1238.586, 797.9889
1239.068, 805.5295
1239.550, 819.9292
1240.032, 839.0490
1240.514, 853.8434
1240.996, 864.0834
1241.479, 868.1042
1241.961, 861.1853
1242.443, 854.8030
1242.925, 849.1116
1243.407, 848.4228
1243.889, 862.2235
1244.371, 882.7585
1244.853, 871.3369
1245.336, 838.8788
1245.818, 820.2130
1246.300, 847.1786
1246.782, 861.1392
1247.264, 848.5043
1247.746, 833.8405
1248.228, 841.0487
1248.710, 860.0993
1249.193, 862.1874
1249.675, 851.6732
1250.157, 841.9907
1250.639, 833.7286
1251.121, 834.6280
1251.603, 848.7354
1252.085, 863.2430
1252.567, 866.7291
1253.049, 863.2477
1253.531, 859.9296
1254.014, 856.0955
1254.496, 848.8308
1254.978, 826.0541
1255.460, 823.0894
1255.942, 846.0918
1256.424, 872.9883
1256.906, 888.8210
1257.388, 893.3061
1257.871, 877.4930
1258.353, 849.9538
1258.835, 839.0236
1259.317, 858.1438
1259.799, 862.4525
1260.281, 846.2734
1260.763, 831.8728
1261.245, 845.6414
1261.728, 865.6157
1262.210, 866.7175
1262.692, 854.5177
1263.174, 848.7710
1263.656, 852.4022
##END=



