##NAMES=Samuelsonite
##RRUFFID=R080081
##IDEAL CHEMISTRY=Ca_9_Mn^2+^_4_Al_2_(PO_4_)_10_(OH)_2_
##LOCALITY=Buranga pegmatite,  Gatumba District,  Gisenyi Province,  Rwanda
##OWNER=RRUFF
##SOURCE=Michael Scott
##DESCRIPTION=Golden brown, flattened, striated crystals associated with blue trolleite
##STATUS=The identification of this mineral has been confirmed only by single crystal X-ray diffraction.
##URL=rruff.info/R080081
92.52344, 131.6416
93.00555, 130.6897
93.48767, 130.9228
93.96979, 135.3797
94.45190, 139.5247
94.93402, 142.6360
95.41614, 143.2932
95.89825, 142.4816
96.38037, 141.5183
96.86249, 140.4272
97.34460, 139.3852
97.82672, 138.8669
98.30884, 138.1189
98.79095, 137.0439
99.27307, 135.5065
99.75519, 133.4863
100.2373, 131.3394
100.7194, 129.2180
101.2015, 127.3467
101.6837, 125.5801
102.1658, 124.0544
102.6479, 122.9557
103.1300, 122.3027
103.6121, 121.7093
104.0942, 120.7753
104.5764, 119.6839
105.0585, 118.7645
105.5406, 118.3858
106.0227, 118.2742
106.5048, 117.5684
106.9869, 115.9409
107.4691, 114.0546
107.9512, 112.1034
108.4333, 110.1544
108.9154, 108.3615
109.3975, 106.8307
109.8796, 105.5559
110.3618, 104.5555
110.8439, 104.0075
111.3260, 103.5684
111.8081, 103.0688
112.2902, 102.5048
112.7723, 102.0017
113.2544, 101.7467
113.7366, 101.9080
114.2187, 102.0332
114.7008, 102.2018
115.1829, 102.3008
115.6650, 102.1793
116.1471, 101.7802
116.6293, 101.2486
117.1114, 100.9237
117.5935, 100.8051
118.0756, 100.8372
118.5577, 101.0766
119.0398, 101.4633
119.5220, 101.8628
120.0041, 102.2208
120.4862, 102.5443
120.9683, 102.8454
121.4504, 103.0818
121.9325, 103.3616
122.4147, 103.8358
122.8968, 104.5289
123.3789, 105.1097
123.8610, 105.3212
124.3431, 105.3559
124.8252, 105.3559
125.3074, 105.3273
125.7895, 105.3320
126.2716, 105.5247
126.7537, 106.0339
127.2358, 106.5044
127.7179, 106.8948
128.2001, 107.1736
128.6822, 107.2791
129.1643, 107.1365
129.6464, 106.7777
130.1285, 106.6195
130.6107, 107.1068
131.0928, 107.3767
131.5749, 107.0922
132.0570, 106.4009
132.5391, 105.6583
133.0212, 105.1791
133.5034, 105.0067
133.9855, 104.8260
134.4676, 104.6220
134.9497, 104.4247
135.4318, 104.1921
135.9139, 103.9436
136.3960, 103.8237
136.8782, 104.0719
137.3603, 104.8135
137.8424, 105.1891
138.3245, 104.9144
138.8066, 104.3390
139.2887, 103.8568
139.7709, 103.5571
140.2530, 103.3392
140.7351, 103.0719
141.2172, 102.7604
141.6993, 102.4922
142.1814, 102.3002
142.6636, 102.1816
143.1457, 102.1091
143.6278, 101.9956
144.1099, 102.0460
144.5920, 102.5345
145.0741, 103.4448
145.5563, 104.2596
146.0384, 104.4710
146.5205, 104.0109
147.0026, 103.5332
147.4847, 102.9676
147.9668, 102.5369
148.4490, 102.4732
148.9311, 102.7976
149.4132, 103.2168
149.8953, 103.2688
150.3774, 102.7426
150.8595, 102.2561
151.3417, 101.7280
151.8238, 101.3198
152.3059, 101.1963
152.7880, 101.4121
153.2701, 101.8551
153.7522, 102.2418
154.2344, 102.5741
154.7165, 102.8303
155.1986, 102.9729
155.6807, 103.0493
156.1628, 103.0903
156.6449, 103.1001
157.1271, 103.1220
157.6092, 103.3507
158.0913, 103.9769
158.5734, 104.5562
159.0555, 104.9709
159.5376, 105.2439
160.0198, 105.4104
160.5019, 105.4332
160.9840, 105.4000
161.4661, 105.6014
161.9482, 106.1987
162.4303, 106.8490
162.9125, 107.3010
163.3946, 107.5635
163.8767, 107.8521
164.3588, 108.3764
164.8409, 108.9785
165.3230, 109.4042
165.8052, 109.6167
166.2873, 109.6277
166.7694, 109.3374
167.2515, 108.5945
167.7336, 108.0752
168.2157, 108.2500
168.6979, 108.7848
169.1800, 109.3382
169.6621, 109.8114
170.1442, 110.1784
170.6263, 110.3461
171.1084, 110.1779
171.5906, 110.0181
172.0727, 110.0119
172.5548, 110.0767
173.0369, 110.0779
173.5190, 109.9045
174.0011, 109.5988
174.4833, 109.5236
174.9654, 110.0647
175.4475, 110.4614
175.9296, 110.5593
176.4117, 110.3932
176.8938, 110.0176
177.3760, 109.4311
177.8581, 108.6183
178.3402, 108.2145
178.8223, 108.6872
179.3044, 109.0656
179.7865, 108.9564
180.2687, 108.4371
180.7508, 107.8094
181.2329, 107.3149
181.7150, 106.9633
182.1971, 106.7078
182.6792, 106.6700
183.1614, 106.6149
183.6435, 106.3857
184.1256, 105.9860
184.6077, 105.5514
185.0898, 105.2123
185.5719, 104.9737
186.0541, 104.6451
186.5362, 104.0520
187.0183, 103.4655
187.5004, 103.1926
187.9825, 103.2787
188.4646, 103.4102
188.9468, 103.2401
189.4289, 102.8542
189.9110, 102.6077
190.3931, 102.7987
190.8752, 103.1105
191.3573, 102.9521
191.8395, 102.0936
192.3216, 101.3003
192.8037, 101.2354
193.2858, 101.6801
193.7679, 102.1915
194.2500, 102.6527
194.7322, 103.0372
195.2143, 103.2381
195.6964, 103.1302
196.1785, 103.0250
196.6606, 103.0295
197.1427, 103.1574
197.6249, 103.4478
198.1070, 104.0094
198.5891, 104.8012
199.0712, 105.4079
199.5533, 105.7370
200.0354, 105.9573
200.5176, 106.0022
200.9997, 105.9816
201.4818, 106.1182
201.9639, 106.6143
202.4460, 107.4785
202.9281, 108.3155
203.4103, 109.0497
203.8924, 109.8197
204.3745, 110.6952
204.8566, 111.6494
205.3387, 112.5810
205.8208, 113.3816
206.3030, 114.0186
206.7851, 114.8774
207.2672, 116.1968
207.7493, 117.4925
208.2314, 118.5313
208.7135, 119.3527
209.1957, 120.1459
209.6778, 121.0833
210.1599, 122.1855
210.6420, 123.2645
211.1241, 124.2417
211.6062, 125.2613
212.0884, 126.4383
212.5705, 127.7451
213.0526, 129.0518
213.5347, 130.2511
214.0168, 131.3273
214.4989, 132.3597
214.9811, 133.3102
215.4632, 134.2529
215.9453, 135.2673
216.4274, 136.3489
216.9095, 137.3808
217.3916, 138.2469
217.8737, 138.9446
218.3559, 139.6773
218.8380, 140.4464
219.3201, 141.2612
219.8022, 142.2559
220.2843, 143.4400
220.7664, 144.3767
221.2486, 144.5068
221.7307, 144.0457
222.2128, 143.9261
222.6949, 144.5802
223.1770, 145.4815
223.6591, 146.0621
224.1413, 146.2898
224.6234, 146.3148
225.1055, 146.1110
225.5876, 145.7819
226.0697, 145.5183
226.5518, 145.4757
227.0340, 145.4705
227.5161, 145.2334
227.9982, 144.7393
228.4803, 144.0911
228.9624, 143.2528
229.4445, 142.3254
229.9267, 141.4187
230.4088, 140.5649
230.8909, 139.7692
231.3730, 139.1387
231.8551, 138.8731
232.3372, 138.2490
232.8194, 136.6053
233.3015, 134.5756
233.7836, 132.9242
234.2657, 132.0537
234.7478, 131.5991
235.2299, 130.7133
235.7121, 129.1651
236.1942, 127.6283
236.6763, 126.1483
237.1584, 124.8367
237.6405, 123.8757
238.1227, 123.3817
238.6048, 123.1218
239.0869, 122.4816
239.5690, 121.1931
240.0511, 119.9745
240.5332, 119.0890
241.0154, 118.2777
241.4975, 117.2139
241.9796, 115.7511
242.4617, 114.1595
242.9438, 113.1721
243.4259, 113.3266
243.9081, 113.2569
244.3902, 112.6600
244.8723, 111.8665
245.3544, 111.2084
245.8365, 110.8093
246.3186, 110.5345
246.8008, 110.0612
247.2829, 109.1704
247.7650, 108.3928
248.2471, 107.6900
248.7292, 107.1306
249.2113, 106.8457
249.6935, 106.8634
250.1756, 107.0016
250.6577, 106.8990
251.1398, 106.3057
251.6219, 105.8187
252.1040, 105.4645
252.5862, 105.1991
253.0683, 104.9829
253.5504, 104.8056
254.0325, 104.6859
254.5146, 104.6583
254.9967, 104.7783
255.4789, 104.9017
255.9610, 104.9314
256.4431, 105.0184
256.9252, 105.3556
257.4073, 105.9739
257.8894, 106.6578
258.3716, 107.1208
258.8537, 107.2736
259.3358, 107.3937
259.8179, 107.4113
260.3000, 107.4387
260.7821, 107.5922
261.2643, 107.8877
261.7464, 108.2262
262.2285, 108.5050
262.7106, 108.7117
263.1927, 108.8988
263.6748, 109.0749
264.1570, 109.2251
264.6391, 109.2890
265.1212, 109.2707
265.6033, 109.3228
266.0854, 109.6338
266.5675, 110.2142
267.0497, 110.6031
267.5318, 110.5730
268.0139, 110.4968
268.4960, 110.7053
268.9781, 111.2052
269.4602, 111.7344
269.9424, 112.1127
270.4245, 112.3411
270.9066, 112.5308
271.3887, 112.6302
271.8708, 112.7337
272.3529, 112.9122
272.8351, 113.1642
273.3172, 113.4609
273.7993, 113.8386
274.2814, 114.2315
274.7635, 114.4586
275.2456, 114.4060
275.7278, 114.3099
276.2099, 114.3919
276.6920, 114.6182
277.1741, 114.6866
277.6562, 114.3451
278.1383, 113.8275
278.6205, 113.6410
279.1026, 113.9375
279.5847, 114.2318
280.0668, 114.1523
280.5489, 113.7601
281.0310, 113.4341
281.5132, 113.3637
281.9953, 113.3590
282.4774, 113.1391
282.9595, 112.6712
283.4416, 112.1889
283.9237, 111.8328
284.4059, 111.5798
284.8880, 111.3283
285.3701, 111.0433
285.8522, 110.7713
286.3343, 110.5701
286.8164, 110.4358
287.2986, 110.2925
287.7807, 110.1107
288.2628, 109.8892
288.7449, 109.6154
289.2270, 109.2574
289.7091, 108.9007
290.1913, 108.5459
290.6734, 108.2255
291.1555, 108.0772
291.6376, 108.3948
292.1197, 108.9107
292.6018, 108.9170
293.0840, 108.1837
293.5661, 107.4093
294.0482, 107.0793
294.5303, 107.0320
295.0124, 106.9976
295.4945, 106.9557
295.9767, 106.8238
296.4588, 106.3722
296.9409, 105.4719
297.4230, 104.6951
297.9051, 104.5944
298.3872, 104.7084
298.8694, 104.4458
299.3515, 103.4995
299.8336, 102.3555
300.3157, 101.6837
300.7978, 101.5578
301.2799, 101.4411
301.7621, 101.1853
302.2442, 100.8103
302.7263, 100.2944
303.2084, 99.61440
303.6905, 98.90134
304.1726, 98.27430
304.6548, 97.73637
305.1369, 97.24915
305.6190, 96.86794
306.1011, 96.47940
306.5832, 95.98117
307.0653, 95.37053
307.5475, 94.75716
308.0296, 94.28325
308.5117, 93.92703
308.9938, 93.40224
309.4759, 92.63303
309.9580, 91.71761
310.4402, 90.65892
310.9223, 89.50887
311.4044, 88.44992
311.8865, 87.62817
312.3686, 87.00498
312.8507, 86.38779
313.3329, 85.72850
313.8150, 85.16230
314.2971, 84.91018
314.7792, 84.77501
315.2613, 84.36424
315.7434, 83.35484
316.2256, 82.05177
316.7077, 81.13496
317.1898, 80.71244
317.6719, 80.35896
318.1540, 79.86124
318.6361, 79.33749
319.1183, 78.95094
319.6004, 78.79586
320.0825, 78.65791
320.5646, 78.16845
321.0467, 77.24381
321.5288, 76.50352
322.0110, 76.27550
322.4931, 76.23990
322.9752, 76.18371
323.4573, 76.07565
323.9394, 75.93559
324.4215, 75.76908
324.9037, 75.57790
325.3858, 75.41441
325.8679, 75.39441
326.3500, 75.28542
326.8321, 74.85643
327.3142, 74.15768
327.7964, 73.50952
328.2785, 73.18441
328.7606, 73.10831
329.2427, 72.90452
329.7248, 72.48539
330.2069, 72.05645
330.6891, 71.73143
331.1712, 71.48840
331.6533, 71.28932
332.1354, 71.17056
332.6175, 71.05811
333.0996, 70.76297
333.5818, 70.20895
334.0639, 69.71435
334.5460, 69.53597
335.0281, 69.47449
335.5102, 69.29358
335.9923, 68.88582
336.4745, 68.44797
336.9566, 68.22733
337.4387, 68.23778
337.9208, 68.24067
338.4029, 68.12875
338.8850, 67.99881
339.3671, 67.98931
339.8492, 68.12546
340.3314, 68.17150
340.8135, 67.90682
341.2956, 67.37470
341.7777, 66.84977
342.2598, 66.35353
342.7419, 65.91751
343.2241, 65.53770
343.7062, 65.21934
344.1883, 65.01582
344.6704, 65.04478
345.1525, 65.19131
345.6346, 65.20653
346.1168, 65.06414
346.5989, 64.83504
347.0810, 64.49696
347.5631, 64.11289
348.0452, 63.79737
348.5273, 63.62268
349.0095, 63.49012
349.4916, 63.28569
349.9737, 63.00886
350.4558, 62.72710
350.9379, 62.47732
351.4200, 62.23852
351.9022, 61.96181
352.3843, 61.61159
352.8664, 61.32055
353.3485, 61.24241
353.8306, 61.31474
354.3127, 61.28402
354.7949, 61.05886
355.2770, 60.74043
355.7591, 60.41793
356.2412, 60.08754
356.7233, 59.85573
357.2054, 59.82447
357.6876, 59.89507
358.1697, 59.91709
358.6518, 59.87016
359.1339, 59.78544
359.6160, 59.70037
360.0981, 59.60225
360.5803, 59.42801
361.0624, 59.10973
361.5445, 58.75821
362.0266, 58.45906
362.5087, 58.21018
362.9908, 57.99413
363.4730, 57.83319
363.9551, 57.67712
364.4372, 57.37337
364.9193, 56.84249
365.4014, 56.31297
365.8835, 55.83728
366.3657, 55.43486
366.8478, 55.18436
367.3299, 55.14234
367.8120, 55.13688
368.2941, 54.84722
368.7762, 54.16956
369.2584, 53.68580
369.7405, 53.59414
370.2226, 53.66370
370.7047, 53.68884
371.1868, 53.63939
371.6689, 53.56539
372.1511, 53.50636
372.6332, 53.46355
373.1153, 53.44059
373.5974, 53.40393
374.0795, 53.41696
374.5616, 53.63091
375.0438, 53.92690
375.5259, 53.95227
376.0080, 53.46485
376.4901, 52.68777
376.9722, 52.42589
377.4543, 53.24060
377.9365, 53.83678
378.4186, 53.92970
378.9007, 53.80914
379.3828, 53.74819
379.8649, 53.83381
380.3470, 54.06852
380.8292, 54.48810
381.3113, 55.25651
381.7934, 55.69949
382.2755, 55.61891
382.7576, 55.43217
383.2397, 55.28571
383.7219, 55.23523
384.2040, 55.35303
384.6861, 55.71021
385.1682, 56.29129
385.6503, 56.83891
386.1324, 57.40026
386.6146, 57.86865
387.0967, 58.18156
387.5788, 58.40083
388.0609, 58.56557
388.5430, 58.69361
389.0251, 58.87056
389.5073, 59.27851
389.9894, 59.99625
390.4715, 60.79803
390.9536, 61.79702
391.4357, 62.76532
391.9178, 63.47859
392.4000, 63.97060
392.8821, 64.53125
393.3642, 65.50684
393.8463, 66.91924
394.3284, 68.04025
394.8105, 68.56416
395.2927, 69.14999
395.7748, 70.02462
396.2569, 71.10749
396.7390, 72.26186
397.2211, 73.42327
397.7032, 74.61002
398.1854, 75.85088
398.6675, 77.15069
399.1496, 78.50603
399.6317, 80.07578
400.1138, 81.61278
400.5959, 82.82911
401.0781, 83.68510
401.5602, 84.60462
402.0423, 86.05025
402.5244, 87.96534
403.0065, 89.73317
403.4886, 91.14229
403.9708, 92.59531
404.4529, 94.43298
404.9350, 96.53582
405.4171, 98.58760
405.8992, 100.3698
406.3813, 102.0550
406.8635, 104.0311
407.3456, 106.3604
407.8277, 108.4181
408.3098, 109.7819
408.7919, 110.7419
409.2740, 111.8298
409.7562, 113.1749
410.2383, 114.3946
410.7204, 115.2170
411.2025, 115.7341
411.6846, 116.2912
412.1667, 117.0647
412.6489, 117.6487
413.1310, 117.4679
413.6131, 116.5597
414.0952, 115.4486
414.5773, 113.9743
415.0594, 112.5018
415.5416, 111.6773
416.0237, 111.3818
416.5058, 110.4562
416.9879, 107.9966
417.4700, 104.3181
417.9521, 101.1647
418.4343, 98.62778
418.9164, 96.40054
419.3985, 94.42578
419.8806, 92.69901
420.3627, 91.26026
420.8448, 90.11474
421.3270, 89.16123
421.8091, 88.26236
422.2912, 87.46128
422.7733, 86.59825
423.2554, 85.52907
423.7375, 84.52940
424.2197, 83.75426
424.7018, 83.20312
425.1839, 82.83373
425.6660, 82.63663
426.1481, 82.57614
426.6302, 82.39405
427.1124, 81.81284
427.5945, 81.46198
428.0766, 81.60156
428.5587, 81.91090
429.0408, 82.02601
429.5229, 81.85188
430.0051, 81.63306
430.4872, 81.72331
430.9693, 82.18555
431.4514, 82.69028
431.9335, 83.34969
432.4156, 83.94742
432.8978, 84.32761
433.3799, 84.57089
433.8620, 84.88779
434.3441, 85.40891
434.8262, 86.08972
435.3083, 86.83028
435.7905, 87.68173
436.2726, 88.44268
436.7547, 88.95309
437.2368, 89.39039
437.7189, 89.90717
438.2010, 90.53459
438.6832, 91.19628
439.1653, 91.84000
439.6474, 92.46439
440.1295, 93.09798
440.6116, 93.81255
441.0938, 94.39857
441.5759, 94.58485
442.0580, 94.48442
442.5401, 94.42390
443.0222, 94.51176
443.5043, 94.66660
443.9865, 94.83659
444.4686, 95.01386
444.9507, 95.14331
445.4328, 95.20539
445.9149, 95.19548
446.3970, 95.07543
446.8792, 94.76801
447.3613, 94.58505
447.8434, 94.67551
448.3255, 94.90701
448.8076, 95.13943
449.2897, 95.34471
449.7719, 95.51919
450.2540, 95.65995
450.7361, 95.76680
451.2182, 95.83733
451.7003, 95.83598
452.1824, 95.84351
452.6646, 95.83066
453.1467, 95.85904
453.6288, 96.03574
454.1109, 96.40845
454.5930, 96.91345
455.0751, 97.44040
455.5573, 98.06161
456.0394, 98.55446
456.5215, 98.88954
457.0036, 99.14343
457.4857, 99.33707
457.9678, 99.48808
458.4500, 99.63454
458.9321, 99.81967
459.4142, 100.0191
459.8963, 100.0986
460.3784, 100.0766
460.8605, 99.88856
461.3427, 99.48519
461.8248, 98.94864
462.3069, 98.36189
462.7890, 97.74567
463.2711, 97.04189
463.7532, 96.18159
464.2354, 95.16761
464.7175, 94.09949
465.1996, 92.96537
465.6817, 91.81357
466.1638, 90.65711
466.6459, 89.50828
467.1281, 88.39928
467.6102, 87.35836
468.0923, 86.34998
468.5744, 85.35904
469.0565, 84.37473
469.5386, 83.33250
470.0208, 82.10768
470.5029, 80.93813
470.9850, 80.33749
471.4671, 80.39700
471.9492, 80.34318
472.4313, 79.89535
472.9135, 79.28755
473.3956, 78.73499
473.8777, 78.26992
474.3598, 77.88366
474.8419, 77.58003
475.3240, 77.35208
475.8062, 77.13613
476.2883, 76.90894
476.7704, 76.72036
477.2525, 76.59820
477.7346, 76.51343
478.2167, 76.44546
478.6989, 76.38332
479.1810, 76.29108
479.6631, 76.05344
480.1452, 75.52898
480.6273, 75.60542
481.1094, 76.99110
481.5916, 78.25413
482.0737, 78.83274
482.5558, 78.98193
483.0379, 79.17374
483.5200, 79.63097
484.0021, 80.26762
484.4843, 80.93081
484.9664, 81.62170
485.4485, 82.34856
485.9306, 83.19367
486.4127, 84.00465
486.8948, 84.68010
487.3770, 85.22843
487.8591, 85.71060
488.3412, 86.07438
488.8233, 86.42033
489.3054, 87.01452
489.7875, 87.89317
490.2697, 88.64289
490.7518, 89.02079
491.2339, 89.13978
491.7160, 89.26628
492.1981, 89.40916
492.6802, 89.53199
493.1624, 89.70121
493.6445, 89.80959
494.1266, 89.63654
494.6087, 89.15196
495.0908, 88.64707
495.5729, 88.41769
496.0551, 88.45541
496.5372, 88.15085
497.0193, 87.41203
497.5014, 86.49947
497.9835, 85.32632
498.4656, 84.08228
498.9478, 83.07287
499.4299, 82.38306
499.9120, 81.75404
500.3941, 80.80254
500.8762, 79.42248
501.3583, 78.11335
501.8405, 77.02714
502.3226, 75.86032
502.8047, 74.39394
503.2868, 72.78494
503.7689, 71.37351
504.2510, 70.34341
504.7331, 69.47192
505.2152, 68.32692
505.6974, 66.85456
506.1795, 65.42075
506.6616, 64.05007
507.1437, 62.80180
507.6258, 61.78905
508.1079, 60.95601
508.5901, 60.05214
509.0722, 58.88755
509.5543, 57.61540
510.0364, 56.39129
510.5185, 55.22178
511.0006, 54.28340
511.4828, 53.75774
511.9649, 53.43160
512.4470, 52.85249
512.9291, 51.97565
513.4113, 51.05688
513.8934, 50.08565
514.3755, 49.15417
514.8576, 48.35173
515.3397, 47.68818
515.8218, 47.16927
516.3040, 46.81351
516.7861, 46.59440
517.2682, 46.32555
517.7503, 45.94668
518.2324, 45.59304
518.7145, 45.29053
519.1967, 45.00741
519.6788, 44.69853
520.1609, 44.36465
520.6430, 44.05687
521.1251, 43.81814
521.6072, 43.64812
522.0894, 43.57854
522.5715, 43.66875
523.0536, 43.76759
523.5357, 43.87159
524.0178, 43.93353
524.4999, 43.87965
524.9821, 43.68312
525.4642, 43.45699
525.9463, 43.30449
526.4284, 43.21138
526.9105, 43.09118
527.3926, 42.90401
527.8748, 42.78080
528.3569, 42.91435
528.8390, 43.20330
529.3211, 43.28941
529.8032, 42.85281
530.2853, 42.53096
530.7675, 42.78233
531.2496, 43.37537
531.7317, 43.88647
532.2138, 44.19500
532.6959, 44.33830
533.1780, 44.34289
533.6602, 44.17706
534.1423, 44.06815
534.6244, 44.00726
535.1065, 44.00148
535.5886, 44.09437
536.0707, 44.23193
536.5529, 44.32535
537.0350, 44.34033
537.5171, 44.33644
537.9992, 44.40350
538.4813, 44.54540
538.9634, 44.74129
539.4456, 45.07369
539.9277, 45.36692
540.4098, 45.45479
540.8919, 45.45550
541.3740, 45.63540
541.8561, 46.18382
542.3383, 46.76931
542.8204, 46.90377
543.3025, 46.64446
543.7846, 46.56223
544.2667, 46.84885
544.7488, 47.24844
545.2310, 47.41801
545.7131, 47.39668
546.1952, 47.62037
546.6773, 48.39703
547.1594, 49.21015
547.6415, 49.68339
548.1237, 49.92462
548.6058, 50.22432
549.0879, 50.69587
549.5700, 51.28679
550.0521, 51.91961
550.5342, 52.61657
551.0164, 53.27982
551.4985, 53.80543
551.9806, 54.40262
552.4627, 55.16232
552.9448, 56.06597
553.4269, 57.09224
553.9091, 58.23847
554.3912, 59.42498
554.8733, 60.52959
555.3554, 61.56222
555.8375, 62.44971
556.3196, 62.94407
556.8018, 63.57501
557.2839, 64.84917
557.7660, 66.52686
558.2481, 67.90373
558.7302, 68.52357
559.2123, 68.98071
559.6945, 69.95016
560.1766, 71.30480
560.6587, 72.45622
561.1408, 73.20930
561.6229, 73.76225
562.1050, 74.36165
562.5872, 75.02271
563.0693, 75.58277
563.5514, 75.86267
564.0335, 76.21795
564.5156, 76.97177
564.9977, 77.89742
565.4799, 78.58583
565.9620, 78.87202
566.4441, 78.89491
566.9262, 78.82006
567.4083, 78.55141
567.8904, 78.57475
568.3726, 79.06148
568.8547, 79.68239
569.3368, 80.41420
569.8189, 81.18508
570.3010, 81.88789
570.7831, 82.48780
571.2653, 83.02106
571.7474, 83.48888
572.2295, 83.90928
572.7116, 84.46482
573.1937, 85.22531
573.6758, 86.01484
574.1580, 86.64848
574.6401, 87.18286
575.1222, 87.84534
575.6043, 88.77670
576.0864, 89.70439
576.5685, 90.42410
577.0507, 91.06551
577.5328, 91.85444
578.0149, 92.84389
578.4970, 93.90942
578.9791, 94.89735
579.4612, 95.79456
579.9434, 96.95115
580.4255, 98.45873
580.9076, 100.1316
581.3897, 102.1234
581.8718, 104.1830
582.3539, 105.9583
582.8361, 107.4133
583.3182, 108.9243
583.8003, 111.0618
584.2824, 113.6852
584.7645, 115.7304
585.2466, 117.1702
585.7288, 118.1184
586.2108, 118.6270
586.6929, 118.6499
587.1750, 118.1361
587.6572, 117.0902
588.1393, 115.4638
588.6214, 113.0047
589.1035, 110.0672
589.5856, 107.0539
590.0677, 104.0230
590.5499, 101.0369
591.0320, 98.12658
591.5141, 95.27802
591.9962, 92.47459
592.4783, 89.48447
592.9604, 86.91451
593.4426, 84.93930
593.9247, 83.24087
594.4068, 81.60810
594.8889, 80.05148
595.3710, 78.67124
595.8531, 77.53956
596.3353, 76.63187
596.8174, 75.90653
597.2995, 75.39410
597.7816, 74.91300
598.2637, 74.44057
598.7458, 73.97059
599.2280, 73.48565
599.7101, 72.99275
600.1922, 72.52483
600.6743, 72.06409
601.1564, 71.65664
601.6385, 71.41076
602.1207, 71.25260
602.6028, 70.93105
603.0849, 70.35363
603.5670, 69.71769
604.0491, 69.30063
604.5313, 69.17168
605.0134, 68.82305
605.4955, 67.90624
605.9776, 67.19799
606.4597, 67.12582
606.9418, 67.32401
607.4240, 67.33178
607.9061, 67.01482
608.3882, 66.53927
608.8703, 66.04165
609.3524, 65.53159
609.8345, 65.10630
610.3167, 64.72358
610.7988, 64.54059
611.2809, 64.80486
611.7630, 65.24294
612.2451, 65.47740
612.7272, 65.44424
613.2094, 65.36788
613.6915, 65.21236
614.1736, 65.14629
614.6557, 65.40823
615.1378, 65.99123
615.6199, 66.73689
616.1021, 67.57142
616.5842, 68.43886
617.0663, 69.16081
617.5484, 69.57780
618.0305, 70.13062
618.5126, 70.84526
618.9948, 71.65646
619.4769, 72.54699
619.9590, 73.50098
620.4411, 74.48412
620.9232, 75.48293
621.4053, 76.51122
621.8875, 77.61933
622.3696, 78.80298
622.8517, 79.91566
623.3338, 80.89637
623.8159, 81.86849
624.2980, 82.99007
624.7802, 84.18798
625.2623, 85.20578
625.7444, 85.81039
626.2265, 86.48962
626.7086, 87.55302
627.1907, 88.79551
627.6729, 89.93155
628.1550, 90.91062
628.6371, 91.81657
629.1192, 92.69459
629.6013, 93.57929
630.0834, 94.74850
630.5656, 96.49986
631.0477, 98.04578
631.5298, 99.15170
632.0119, 100.1239
632.4940, 101.2663
632.9761, 102.5277
633.4583, 103.5717
633.9404, 104.2900
634.4225, 104.5994
634.9046, 104.3708
635.3867, 103.6070
635.8688, 102.3390
636.3510, 100.5432
636.8331, 98.31633
637.3152, 95.71349
637.7973, 92.67823
638.2794, 89.56379
638.7615, 86.32227
639.2437, 83.04777
639.7258, 79.63741
640.2079, 76.25647
640.6900, 73.15268
641.1721, 70.37055
641.6542, 67.79191
642.1364, 65.25912
642.6185, 62.79053
643.1006, 60.72066
643.5827, 59.17085
644.0648, 57.76478
644.5469, 56.40662
645.0291, 55.11944
645.5112, 53.91656
645.9933, 52.80236
646.4754, 51.78831
646.9575, 50.92091
647.4396, 50.13395
647.9218, 49.36854
648.4039, 48.61934
648.8860, 47.85912
649.3681, 47.06409
649.8502, 46.32539
650.3323, 45.78549
650.8145, 45.48822
651.2966, 45.19091
651.7787, 44.97747
652.2608, 44.66861
652.7429, 44.09734
653.2250, 43.45144
653.7072, 42.99795
654.1893, 42.79390
654.6714, 42.61687
655.1535, 42.21553
655.6356, 41.67407
656.1177, 41.29588
656.5999, 41.10987
657.0820, 40.91518
657.5641, 40.60641
658.0462, 40.24825
658.5283, 39.96868
659.0104, 39.79162
659.4926, 39.56029
659.9747, 39.22456
660.4568, 38.85685
660.9389, 38.42847
661.4210, 38.01650
661.9031, 37.80159
662.3853, 37.84621
662.8674, 37.95946
663.3495, 37.86921
663.8316, 37.56234
664.3137, 37.24545
664.7958, 36.91494
665.2780, 36.58123
665.7601, 36.12150
666.2422, 35.72085
666.7243, 35.66332
667.2064, 36.02075
667.6885, 36.33419
668.1707, 36.36737
668.6528, 36.26039
669.1349, 36.15316
669.6170, 36.05308
670.0991, 35.94946
670.5812, 35.84154
671.0634, 35.69514
671.5455, 35.42638
672.0276, 34.95638
672.5097, 34.67210
672.9918, 34.71881
673.4739, 34.79811
673.9561, 34.83735
674.4382, 34.85272
674.9203, 34.88192
675.4024, 34.93381
675.8845, 34.94952
676.3666, 34.83447
676.8488, 34.66222
677.3309, 34.62514
677.8130, 34.72808
678.2951, 34.76398
678.7772, 34.61943
679.2593, 34.38112
679.7415, 34.19691
680.2236, 34.06255
680.7057, 34.00873
681.1878, 34.11388
681.6699, 34.21311
682.1520, 34.23769
682.6342, 34.20595
683.1163, 34.14799
683.5984, 34.07397
684.0805, 33.98772
684.5626, 33.88126
685.0447, 33.76285
685.5269, 33.69465
686.0090, 33.69726
686.4911, 33.63371
686.9732, 33.40415
687.4553, 33.11359
687.9374, 32.91564
688.4196, 32.80265
688.9017, 32.79798
689.3838, 33.08216
689.8659, 33.30025
690.3480, 33.12378
690.8301, 32.76658
691.3123, 32.63945
691.7944, 32.85961
692.2765, 33.15245
692.7586, 33.17205
693.2407, 32.94889
693.7228, 32.93770
694.2050, 33.22967
694.6871, 33.48886
695.1692, 33.61297
695.6513, 33.63535
696.1334, 33.59439
696.6155, 33.49059
697.0977, 33.32408
697.5798, 32.99455
698.0619, 32.69601
698.5440, 32.61508
699.0261, 32.66286
699.5082, 32.62591
699.9904, 32.45307
700.4725, 32.32382
700.9546, 32.45946
701.4367, 32.83315
701.9188, 33.03421
702.4009, 33.01576
702.8831, 32.91565
703.3652, 32.67989
703.8473, 32.44030
704.3294, 32.28732
704.8115, 32.22154
705.2936, 32.20834
705.7758, 32.26010
706.2579, 32.33406
706.7400, 32.44161
707.2221, 32.53692
707.7042, 32.45096
708.1863, 32.16236
708.6685, 31.98186
709.1506, 32.22867
709.6327, 32.82223
710.1148, 33.15387
710.5969, 33.14681
711.0790, 33.00920
711.5612, 32.59560
712.0433, 32.21631
712.5254, 32.09009
713.0075, 32.17054
713.4896, 32.28436
713.9717, 32.37905
714.4539, 32.45919
714.9360, 32.55410
715.4181, 32.63286
715.9002, 32.59536
716.3823, 32.43365
716.8644, 32.29011
717.3466, 32.27196
717.8287, 32.34672
718.3108, 32.39762
718.7929, 32.44023
719.2750, 32.42686
719.7571, 32.28454
720.2393, 32.16105
720.7214, 32.12510
721.2035, 32.16288
721.6856, 32.25876
722.1677, 32.42522
722.6498, 32.55183
723.1320, 32.49836
723.6141, 32.35376
724.0962, 32.31364
724.5783, 32.38562
725.0604, 32.43916
725.5425, 32.39710
726.0247, 32.31685
726.5068, 32.32841
726.9889, 32.51171
727.4710, 32.54122
727.9531, 32.27835
728.4352, 32.02342
728.9174, 31.86017
729.3995, 31.76919
729.8816, 31.73461
730.3637, 31.75043
730.8458, 31.77643
731.3279, 31.80184
731.8101, 31.81072
732.2922, 31.75833
732.7743, 31.65684
733.2564, 31.58469
733.7385, 31.57077
734.2206, 31.59484
734.7028, 31.63670
735.1849, 31.69900
735.6670, 31.73735
736.1491, 31.63879
736.6312, 31.66571
737.1133, 32.04191
737.5955, 32.42813
738.0776, 32.50071
738.5597, 32.27731
739.0418, 32.01982
739.5239, 31.82261
740.0060, 31.70294
740.4882, 31.73832
740.9703, 31.86701
741.4524, 31.87759
741.9345, 31.72685
742.4166, 31.56670
742.8987, 31.52152
743.3809, 31.57334
743.8630, 31.63433
744.3451, 31.71076
744.8272, 31.78466
745.3093, 31.83457
745.7914, 31.90138
746.2736, 32.02286
746.7557, 32.17410
747.2378, 32.32947
747.7199, 32.50972
748.2020, 32.56247
748.6841, 32.23973
749.1663, 31.76898
749.6484, 31.52438
750.1305, 31.52711
750.6126, 31.71222
751.0947, 32.07141
751.5768, 32.44398
752.0590, 32.51967
752.5411, 32.21296
753.0232, 32.01497
753.5053, 31.99278
753.9874, 31.99281
754.4695, 31.94500
754.9517, 31.90818
755.4338, 32.00233
755.9159, 32.22610
756.3980, 32.30025
756.8801, 31.93909
757.3622, 31.49944
757.8444, 31.29805
758.3265, 31.29543
758.8086, 31.45829
759.2907, 31.75292
759.7728, 31.93027
760.2549, 31.71180
760.7371, 31.18687
761.2192, 30.92949
761.7013, 31.03802
762.1834, 31.14770
762.6655, 31.17660
763.1476, 31.21260
763.6298, 31.37762
764.1119, 31.59491
764.5940, 31.62788
765.0761, 31.28106
765.5582, 31.04725
766.0403, 31.33448
766.5225, 31.74685
767.0046, 31.80161
767.4867, 31.54422
767.9688, 31.30741
768.4509, 31.25889
768.9330, 31.33654
769.4152, 31.48749
769.8973, 31.72199
770.3794, 31.73808
770.8615, 31.42659
771.3436, 31.18158
771.8257, 31.22994
772.3079, 31.39936
772.7900, 31.42267
773.2721, 31.28544
773.7542, 31.20065
774.2363, 31.21579
774.7184, 31.27534
775.2006, 31.40438
775.6827, 31.53461
776.1648, 31.54888
776.6469, 31.45098
777.1290, 31.37823
777.6111, 31.43682
778.0933, 31.59283
778.5754, 31.83746
779.0575, 32.16047
779.5396, 32.19883
780.0217, 31.79608
780.5038, 31.42164
780.9860, 31.47012
781.4681, 31.83704
781.9502, 32.07024
782.4323, 32.18475
782.9144, 32.14225
783.3965, 31.70162
783.8787, 31.34056
784.3608, 31.38032
784.8429, 31.67769
785.3250, 31.99086
785.8071, 32.24472
786.2892, 32.38500
786.7714, 32.28898
787.2535, 32.08149
787.7356, 32.01485
788.2177, 32.07302
788.6998, 32.07328
789.1819, 31.94316
789.6641, 31.78484
790.1462, 31.71151
790.6283, 31.72333
791.1104, 31.87179
791.5925, 32.38714
792.0746, 32.64542
792.5568, 32.29210
793.0389, 31.86938
793.5210, 31.74286
794.0031, 31.87066
794.4852, 32.05052
794.9673, 32.24630
795.4495, 32.43525
795.9316, 32.64575
796.4137, 32.81520
796.8958, 32.84945
797.3779, 32.75823
797.8600, 32.59630
798.3422, 32.38801
798.8243, 32.20723
799.3064, 32.18596
799.7885, 32.32875
800.2706, 32.52137
800.7527, 32.83291
801.2349, 32.96590
801.7170, 32.68829
802.1991, 32.27548
802.6812, 32.07243
803.1633, 32.07165
803.6454, 32.25160
804.1276, 32.89786
804.6097, 33.37401
805.0918, 33.30976
805.5739, 33.04953
806.0560, 32.91328
806.5381, 32.94484
807.0203, 33.08927
807.5024, 33.35855
807.9845, 33.59198
808.4666, 33.48947
808.9487, 33.15243
809.4308, 32.97832
809.9130, 33.01478
810.3951, 33.15308
810.8772, 33.34883
811.3593, 33.56688
811.8414, 33.73820
812.3235, 33.85805
812.8057, 33.95120
813.2878, 34.02593
813.7699, 34.06183
814.2520, 33.99704
814.7341, 33.92843
815.2162, 33.99429
815.6984, 34.18287
816.1805, 34.28005
816.6626, 34.10640
817.1447, 33.90658
817.6268, 33.82769
818.1089, 33.85636
818.5911, 34.03063
819.0732, 34.31157
819.5553, 34.51383
820.0374, 34.51290
820.5195, 34.38309
821.0016, 34.23064
821.4838, 34.04976
821.9659, 34.09959
822.4480, 34.48645
822.9301, 34.80866
823.4122, 34.83600
823.8943, 34.70354
824.3765, 34.64610
824.8586, 34.68306
825.3407, 34.69207
825.8228, 34.63276
826.3049, 34.58913
826.7870, 34.59169
827.2692, 34.62282
827.7513, 34.66426
828.2334, 34.71420
828.7155, 34.78692
829.1976, 34.92075
829.6797, 35.02357
830.1619, 34.91967
830.6440, 34.72023
831.1261, 34.72011
831.6082, 34.93524
832.0903, 35.15205
832.5724, 35.24913
833.0546, 35.27142
833.5367, 35.29895
834.0188, 35.32759
834.5009, 35.39492
834.9830, 35.53175
835.4651, 35.64634
835.9473, 35.73185
836.4294, 35.75679
836.9115, 35.61816
837.3936, 35.33488
837.8757, 35.26833
838.3578, 35.68501
838.8400, 36.06440
839.3221, 36.23838
839.8042, 36.26514
840.2863, 36.12883
840.7684, 35.90322
841.2505, 35.77467
841.7327, 35.84172
842.2148, 35.97369
842.6969, 36.04245
843.1790, 36.04777
843.6611, 35.92867
844.1432, 35.70253
844.6254, 35.67069
845.1075, 35.98899
845.5896, 36.36666
846.0717, 36.38939
846.5538, 36.05440
847.0359, 35.94490
847.5181, 36.22337
848.0002, 36.40807
848.4823, 36.27711
848.9644, 36.14379
849.4465, 36.24243
849.9286, 36.51208
850.4108, 36.77013
850.8929, 37.01607
851.3750, 37.18267
851.8571, 37.15176
852.3392, 37.11651
852.8214, 37.28622
853.3035, 37.56417
853.7856, 37.72966
854.2677, 37.71732
854.7498, 37.65349
855.2319, 37.62837
855.7141, 37.65250
856.1962, 37.75193
856.6783, 37.92354
857.1604, 38.18797
857.6425, 38.56005
858.1246, 38.85131
858.6068, 38.88780
859.0889, 38.73858
859.5710, 38.65903
860.0531, 38.65786
860.5352, 38.70411
861.0173, 38.79869
861.4995, 38.93877
861.9816, 39.21965
862.4637, 39.49563
862.9458, 39.52917
863.4279, 39.28523
863.9100, 39.14072
864.3922, 39.19221
864.8743, 39.36351
865.3564, 39.70737
865.8385, 40.09042
866.3206, 40.34735
866.8027, 40.47943
867.2849, 40.60238
867.7670, 40.78456
868.2491, 40.97205
868.7312, 41.07717
869.2133, 41.13278
869.6954, 41.23655
870.1776, 41.39381
870.6597, 41.54539
871.1418, 41.65740
871.6239, 41.81643
872.1060, 42.17102
872.5881, 42.71818
873.0703, 43.09181
873.5524, 43.22867
874.0345, 43.34522
874.5166, 43.39484
874.9987, 43.54538
875.4808, 44.03942
875.9630, 44.74422
876.4451, 45.26604
876.9272, 45.54708
877.4093, 45.72039
877.8914, 45.61314
878.3735, 45.61004
878.8557, 46.02147
879.3378, 46.66393
879.8199, 47.24578
880.3020, 47.70467
880.7841, 48.15177
881.2662, 48.65569
881.7484, 49.19878
882.2305, 49.71838
882.7126, 50.26934
883.1947, 51.02168
883.6768, 51.97559
884.1589, 52.93409
884.6411, 53.76492
885.1232, 54.54042
885.6053, 55.42638
886.0874, 56.42958
886.5695, 57.25103
887.0516, 57.81054
887.5338, 58.48435
888.0159, 59.44999
888.4980, 60.52570
888.9801, 61.47641
889.4622, 62.30473
889.9443, 63.28578
890.4265, 64.56374
890.9086, 65.78402
891.3907, 66.92846
891.8728, 67.99477
892.3549, 68.86578
892.8370, 69.69249
893.3192, 70.77689
893.8013, 72.21355
894.2834, 73.69499
894.7655, 75.07703
895.2476, 76.43799
895.7297, 77.85857
896.2119, 79.29846
896.6940, 80.66248
897.1761, 81.95468
897.6582, 83.27364
898.1403, 84.68184
898.6224, 86.19408
899.1046, 87.86626
899.5867, 89.68149
900.0688, 91.57735
900.5509, 93.55627
901.0330, 95.67199
901.5151, 97.96175
901.9973, 100.3781
902.4794, 102.8238
902.9615, 105.2987
903.4436, 108.0461
903.9257, 111.1600
904.4078, 114.3477
904.8900, 117.6976
905.3721, 120.9181
905.8542, 123.5348
906.3363, 125.8595
906.8184, 128.8254
907.3005, 132.7240
907.7827, 136.5521
908.2648, 140.2333
908.7469, 143.7670
909.2290, 147.0995
909.7111, 150.3131
910.1932, 153.6376
910.6754, 157.0147
911.1575, 159.9991
911.6396, 162.2799
912.1217, 164.2296
912.6038, 166.2549
913.0859, 168.0770
913.5681, 169.3576
914.0502, 170.0548
914.5323, 170.2673
915.0144, 170.0336
915.4965, 169.1496
915.9786, 167.3787
916.4607, 164.7454
916.9428, 161.1848
917.4249, 156.7505
917.9070, 152.2384
918.3892, 147.8476
918.8713, 143.3678
919.3534, 138.6917
919.8355, 133.7450
920.3176, 128.2720
920.7997, 121.9162
921.2819, 116.2330
921.7640, 111.4969
922.2461, 106.9442
922.7282, 102.3037
923.2103, 97.69920
923.6924, 93.22115
924.1746, 88.87633
924.6567, 85.03673
925.1388, 81.77869
925.6209, 78.94115
926.1030, 76.58163
926.5851, 74.56235
927.0673, 72.91575
927.5494, 71.51110
928.0315, 70.05817
928.5136, 68.48594
928.9957, 67.31223
929.4778, 66.99472
929.9600, 67.00101
930.4421, 66.86974
930.9242, 66.78269
931.4063, 67.07920
931.8884, 67.74802
932.3705, 68.46307
932.8527, 69.01859
933.3348, 69.74136
933.8169, 71.10130
934.2990, 72.95515
934.7811, 74.93777
935.2632, 77.02552
935.7454, 79.17564
936.2275, 81.37350
936.7096, 83.73174
937.1917, 86.33698
937.6738, 89.22068
938.1559, 92.58834
938.6381, 96.46851
939.1202, 100.3938
939.6023, 104.1665
940.0844, 108.4397
940.5665, 113.6150
941.0486, 119.3861
941.5308, 125.2494
942.0129, 131.2113
942.4950, 137.4168
942.9771, 143.9246
943.4592, 150.6323
943.9413, 157.3428
944.4235, 164.4133
944.9056, 172.2079
945.3877, 180.5309
945.8698, 188.8836
946.3519, 197.0795
946.8340, 205.7328
947.3162, 215.1728
947.7983, 224.9030
948.2804, 234.6498
948.7625, 244.5061
949.2446, 254.5604
949.7267, 264.8911
950.2089, 275.7931
950.6910, 287.6704
951.1731, 299.3011
951.6552, 309.8240
952.1373, 319.4987
952.6194, 328.8214
953.1016, 337.5005
953.5837, 345.1456
954.0658, 351.4940
954.5479, 355.9517
955.0300, 358.1198
955.5121, 357.9749
955.9943, 355.4676
956.4764, 350.6232
956.9585, 343.2929
957.4406, 333.5118
957.9227, 322.3492
958.4048, 310.2235
958.8870, 297.3737
959.3691, 284.0670
959.8512, 270.3317
960.3333, 256.1695
960.8154, 241.4418
961.2975, 227.6783
961.7797, 215.2460
962.2618, 203.7361
962.7439, 193.0603
963.2260, 183.1157
963.7081, 173.6285
964.1902, 164.4018
964.6724, 156.5838
965.1545, 150.7051
965.6366, 145.3923
966.1187, 140.2069
966.6008, 135.6198
967.0829, 132.0262
967.5651, 129.2847
968.0472, 126.9529
968.5293, 124.9105
969.0114, 123.5099
969.4935, 122.9826
969.9756, 122.8818
970.4578, 122.8959
970.9399, 123.3078
971.4220, 124.5075
971.9041, 126.4317
972.3862, 128.6700
972.8683, 131.2543
973.3505, 133.7258
973.8326, 135.5885
974.3147, 137.4860
974.7968, 140.2491
975.2789, 143.3654
975.7610, 145.8340
976.2432, 147.4913
976.7253, 149.0090
977.2074, 150.8526
977.6895, 152.6712
978.1716, 154.0723
978.6537, 155.1863
979.1359, 156.2280
979.6180, 157.2174
980.1001, 158.1560
980.5822, 159.0373
981.0643, 159.7207
981.5464, 159.9634
982.0286, 160.0134
982.5107, 160.4831
982.9928, 161.2840
983.4749, 161.9845
983.9570, 162.5284
984.4391, 163.1074
984.9213, 163.8222
985.4034, 164.5906
985.8855, 165.2973
986.3676, 165.9483
986.8497, 166.6684
987.3318, 167.5100
987.8140, 167.7591
988.2961, 167.2167
988.7782, 166.3609
989.2603, 165.5107
989.7424, 164.5262
990.2245, 163.1097
990.7067, 161.2434
991.1888, 159.0501
991.6709, 156.4422
992.1530, 153.6682
992.6351, 150.6933
993.1172, 147.6751
993.5994, 144.5957
994.0815, 141.5846
994.5636, 139.1088
995.0457, 137.4816
995.5278, 135.5063
996.0099, 132.6473
996.4921, 130.1250
996.9742, 128.4198
997.4563, 127.0243
997.9384, 125.4638
998.4205, 123.8417
998.9026, 122.6149
999.3848, 122.0191
999.8669, 121.3644
1000.349, 120.3524
1000.831, 119.4482
1001.313, 119.0480
1001.795, 118.7524
1002.277, 118.0791
1002.760, 117.0691
1003.242, 116.1019
1003.724, 115.3201
1004.206, 114.5549
1004.688, 113.7184
1005.170, 112.8760
1005.652, 112.1383
1006.134, 111.3920
1006.617, 110.5086
1007.099, 109.4422
1007.581, 108.0888
1008.063, 106.2030
1008.545, 104.4899
1009.027, 103.7289
1009.509, 103.2825
1009.991, 102.3921
1010.473, 101.1875
1010.956, 100.0585
1011.438, 99.10451
1011.920, 98.24992
1012.402, 97.45193
1012.884, 96.69498
1013.366, 95.92054
1013.848, 95.19143
1014.330, 94.64945
1014.813, 94.26323
1015.295, 93.91809
1015.777, 93.56955
1016.259, 93.23206
1016.741, 92.98704
1017.223, 92.60405
1017.705, 91.40883
1018.187, 89.72688
1018.669, 88.85618
1019.152, 88.77335
1019.634, 88.49215
1020.116, 87.64302
1020.598, 86.37455
1021.080, 84.72712
1021.562, 82.99048
1022.044, 82.12608
1022.526, 82.04019
1023.008, 81.83971
1023.491, 81.43719
1023.973, 80.61378
1024.455, 79.23176
1024.937, 77.84264
1025.419, 77.10890
1025.901, 76.88148
1026.383, 76.47346
1026.865, 75.87302
1027.348, 75.24377
1027.830, 74.57512
1028.312, 74.04476
1028.794, 73.76537
1029.276, 73.53655
1029.758, 73.06261
1030.240, 72.41827
1030.722, 72.26344
1031.204, 72.73347
1031.687, 73.10222
1032.169, 73.32885
1032.651, 73.35275
1033.133, 73.05866
1033.615, 72.69505
1034.097, 72.57587
1034.579, 72.69266
1035.061, 72.94886
1035.544, 73.47979
1036.026, 73.78442
1036.508, 73.72341
1036.990, 73.61813
1037.472, 73.64114
1037.954, 73.66979
1038.436, 73.51501
1038.918, 73.18671
1039.401, 72.98362
1039.883, 73.05756
1040.365, 72.97422
1040.847, 72.63836
1041.329, 72.23298
1041.811, 71.74217
1042.293, 71.28681
1042.775, 71.09875
1043.257, 71.16574
1043.740, 70.97472
1044.222, 70.11222
1044.704, 69.63198
1045.186, 70.19641
1045.668, 70.44286
1046.150, 69.47478
1046.632, 68.05968
1047.114, 67.18174
1047.596, 66.81477
1048.079, 66.17440
1048.561, 64.87168
1049.043, 63.78279
1049.525, 63.14449
1050.007, 62.58848
1050.489, 61.94733
1050.971, 61.28176
1051.453, 60.67412
1051.936, 60.12233
1052.418, 59.57025
1052.900, 58.93863
1053.382, 58.42426
1053.864, 58.11818
1054.346, 57.87115
1054.828, 57.65758
1055.310, 57.42440
1055.792, 57.12514
1056.275, 56.75375
1056.757, 56.30630
1057.239, 55.71684
1057.721, 55.18747
1058.203, 54.65233
1058.685, 54.32838
1059.167, 54.49429
1059.649, 54.83097
1060.131, 55.00999
1060.614, 55.00463
1061.096, 54.86898
1061.578, 54.51127
1062.060, 54.30770
1062.542, 54.64224
1063.024, 54.87453
1063.506, 54.43742
1063.988, 53.84341
1064.471, 53.76653
1064.953, 54.10637
1065.435, 54.21863
1065.917, 53.83155
1066.399, 53.56516
1066.881, 53.92826
1067.363, 54.17672
1067.845, 53.66253
1068.328, 52.96421
1068.810, 52.83520
1069.292, 53.11355
1069.774, 53.05052
1070.256, 52.37612
1070.738, 51.73646
1071.220, 51.37918
1071.702, 51.17619
1072.184, 51.14524
1072.667, 51.16078
1073.149, 51.10594
1073.631, 50.98660
1074.113, 50.84855
1074.595, 50.70130
1075.077, 50.57009
1075.559, 50.46481
1076.041, 50.38169
1076.523, 50.31911
1077.006, 50.27692
1077.488, 50.28148
1077.970, 50.29834
1078.452, 50.25550
1078.934, 50.13590
1079.416, 49.98743
1079.898, 49.70581
1080.380, 49.55879
1080.862, 49.89142
1081.345, 50.23427
1081.827, 50.10504
1082.309, 49.68842
1082.791, 49.36498
1083.273, 49.20925
1083.755, 49.10418
1084.237, 48.99234
1084.719, 48.93090
1085.202, 49.07806
1085.684, 49.15932
1086.166, 48.84214
1086.648, 48.36543
1087.130, 48.18142
1087.612, 48.29428
1088.094, 48.18564
1088.576, 47.50502
1089.058, 46.89203
1089.541, 46.67057
1090.023, 46.56094
1090.505, 46.39953
1090.987, 46.20806
1091.469, 46.08222
1091.951, 45.98145
1092.433, 45.68264
1092.915, 45.04142
1093.397, 44.42473
1093.880, 43.95115
1094.362, 43.57447
1094.844, 43.28469
1095.326, 43.07046
1095.808, 42.99896
1096.290, 42.98829
1096.772, 42.75678
1097.254, 42.15342
1097.737, 41.76186
1098.219, 41.96011
1098.701, 42.18452
1099.183, 42.22416
1099.665, 42.13921
1100.147, 41.96177
1100.629, 41.71869
1101.111, 41.42883
1101.594, 41.08489
1102.076, 40.82643
1102.558, 40.69061
1103.040, 40.64351
1103.522, 40.76894
1104.004, 40.88315
1104.486, 40.90951
1104.968, 40.81307
1105.450, 40.45810
1105.932, 39.85348
1106.415, 39.51936
1106.897, 39.75469
1107.379, 39.96861
1107.861, 40.08522
1108.343, 40.11120
1108.825, 40.03516
1109.307, 39.88049
1109.789, 39.60712
1110.272, 39.25753
1110.754, 39.10297
1111.236, 39.30221
1111.718, 39.43626
1112.200, 39.39181
1112.682, 39.37460
1113.164, 39.26535
1113.646, 39.77887
1114.129, 40.06689
1114.611, 40.14155
1115.093, 39.36378
1115.575, 39.68675
1116.057, 39.56860
1116.539, 39.43235
1117.021, 39.91024
1117.503, 39.25646
1117.985, 39.72461
1118.468, 39.74490
1118.950, 39.97017
1119.432, 39.75159
1119.914, 39.67010
1120.396, 40.03261
1120.878, 39.22021
1121.360, 39.20074
1121.842, 39.29345
1122.324, 39.30141
1122.807, 39.04166
1123.289, 38.76787
1123.771, 38.83440
1124.253, 39.19022
1124.735, 39.40889
1125.217, 39.48421
1125.699, 39.42835
1126.181, 39.17807
1126.664, 38.99741
1127.146, 38.98655
1127.628, 39.05662
1128.110, 39.14820
1128.592, 39.23022
1129.074, 39.19214
1129.556, 39.01447
1130.038, 38.94653
1130.521, 39.01399
1131.003, 38.98487
1131.485, 38.78340
1131.967, 38.64242
1132.449, 38.72553
1132.931, 38.89497
1133.413, 38.91922
1133.895, 38.82339
1134.377, 38.76224
1134.859, 38.73825
1135.342, 38.88172
1135.824, 39.20567
1136.306, 39.44999
1136.788, 39.50072
1137.270, 39.44596
1137.752, 39.35735
1138.234, 39.27454
1138.716, 39.34896
1139.199, 39.51617
1139.681, 39.43824
1140.163, 39.15496
1140.645, 39.04005
1141.127, 39.17754
1141.609, 39.31068
1142.091, 39.26294
1142.573, 39.12715
1143.056, 38.96989
1143.538, 39.19139
1144.020, 39.25408
1144.502, 39.16864
1144.984, 38.37583
1145.466, 38.58471
1145.948, 38.44613
1146.430, 38.33026
1146.912, 38.79029
1147.395, 38.29885
1147.877, 38.82749
1148.359, 38.38101
1148.841, 38.34954
1149.323, 38.20272
1149.805, 37.97651
1150.287, 37.75261
1150.769, 37.55406
1151.251, 37.38268
1151.734, 37.27386
1152.216, 37.10596
1152.698, 36.74487
1153.180, 36.34851
1153.662, 36.03148
1154.144, 35.77395
1154.626, 35.53912
1155.108, 35.32922
1155.591, 35.18697
1156.073, 35.14547
1156.555, 35.03175
1157.037, 34.75927
1157.519, 34.43786
1158.001, 34.00816
1158.483, 33.64785
1158.965, 33.60784
1159.448, 33.67253
1159.930, 33.40638
1160.412, 32.78382
1160.894, 32.38092
1161.376, 32.47148
1161.858, 32.45200
1162.340, 32.13068
1162.822, 31.87521
1163.304, 31.86825
1163.786, 31.93995
1164.269, 31.98048
1164.751, 31.95996
1165.233, 31.76040
1165.715, 31.32957
1166.197, 30.92748
1166.679, 30.45263
1167.161, 30.35321
1167.643, 30.93464
1168.126, 31.29038
1168.608, 30.79458
1169.090, 29.97826
1169.572, 29.63013
1170.054, 29.69023
1170.536, 29.76399
1171.018, 29.86133
1171.500, 29.67727
1171.983, 29.17056
1172.465, 28.86369
1172.947, 28.94646
1173.429, 29.05932
1173.911, 28.89656
1174.393, 28.59510
1174.875, 28.39660
1175.357, 28.28227
1175.839, 28.15072
1176.322, 28.03211
1176.804, 28.10349
1177.286, 28.35354
1177.768, 28.58877
1178.250, 28.71414
1178.732, 28.58118
1179.214, 27.92852
1179.696, 27.10134
1180.178, 26.42769
1180.661, 25.97096
1181.143, 25.93198
1181.625, 26.16091
1182.107, 26.36809
1182.589, 26.47258
1183.071, 26.47789
1183.553, 26.38005
1184.035, 26.20498
1184.518, 25.82045
1185.000, 25.53547
1185.482, 25.73105
1185.964, 26.00579
1186.446, 25.85269
1186.928, 25.44584
1187.410, 25.31498
1187.892, 25.55964
1188.375, 25.58088
1188.857, 24.95517
1189.339, 24.51972
1189.821, 24.62207
1190.303, 24.74376
1190.785, 24.56829
1191.267, 24.33861
1191.749, 24.36800
1192.231, 24.56472
1192.714, 24.55633
1193.196, 24.25462
1193.678, 24.09622
1194.160, 24.14162
1194.642, 24.15853
1195.124, 24.07671
1195.606, 24.04383
1196.088, 24.17134
1196.570, 24.31924
1197.053, 24.28622
1197.535, 24.10736
1198.017, 23.93851
1198.499, 23.78106
1198.981, 23.69612
1199.463, 23.68511
1199.945, 23.68517
1200.427, 23.68009
1200.910, 23.75430
1201.392, 23.98118
1201.874, 24.18315
1202.356, 24.02813
1202.838, 23.71122
1203.320, 23.70215
1203.802, 23.84643
1204.284, 23.76142
1204.766, 23.48028
1205.249, 23.24882
1205.731, 23.15047
1206.213, 23.16496
1206.695, 23.32945
1207.177, 23.48165
1207.659, 23.47329
1208.141, 23.42264
1208.623, 23.43137
1209.105, 23.46203
1209.588, 23.46803
1210.070, 23.44525
1210.552, 23.38366
1211.034, 23.26792
1211.516, 23.24730
1211.998, 23.50596
1212.480, 23.64390
1212.962, 23.45550
1213.445, 23.25128
1213.927, 23.25197
1214.409, 23.26850
1214.891, 23.00732
1215.373, 22.59159
1215.855, 22.61027
1216.337, 23.21825
1216.819, 23.57992
1217.302, 23.66349
1217.784, 23.58387
1218.266, 23.31121
1218.748, 23.15160
1219.230, 23.30155
1219.712, 23.50334
1220.194, 23.40639
1220.676, 23.12142
1221.158, 23.00863
1221.641, 23.03556
1222.123, 23.02231
1222.605, 22.97549
1223.087, 23.00694
1223.569, 23.12988
1224.051, 23.23849
1224.533, 23.27400
1225.015, 23.27374
1225.497, 23.26414
1225.980, 23.25037
1226.462, 23.23967
1226.944, 23.22742
1227.426, 23.20428
1227.908, 23.17566
1228.390, 23.17179
1228.872, 23.18262
1229.354, 23.10287
1229.837, 22.79742
1230.319, 22.68931
1230.801, 23.19846
1231.283, 23.57354
1231.765, 23.32854
1232.247, 22.99002
1232.729, 23.03824
1233.211, 23.24420
1233.693, 23.11110
1234.176, 22.66174
1234.658, 22.60089
1235.140, 23.14469
1235.622, 23.39248
1236.104, 23.19924
1236.586, 23.12560
1237.068, 23.38137
1237.550, 23.55841
1238.032, 23.33516
1238.515, 22.98002
1238.997, 22.97501
1239.479, 23.19985
1239.961, 23.10711
1240.443, 22.79551
1240.925, 22.74177
1241.407, 22.93269
1241.889, 23.08018
1242.372, 23.10482
1242.854, 23.11510
1243.336, 23.18417
1243.818, 23.22259
1244.300, 23.11252
1244.782, 22.96768
1245.264, 22.82634
1245.746, 22.77384
1246.229, 23.01867
1246.711, 23.38459
1247.193, 23.50033
1247.675, 23.32548
1248.157, 23.14650
1248.639, 23.04114
1249.121, 22.91964
1249.603, 22.67875
1250.085, 22.54390
1250.568, 22.67242
1251.050, 22.81524
1251.532, 22.77314
1252.014, 22.68295
1252.496, 22.79173
1252.978, 23.07337
1253.460, 23.25774
1253.942, 23.35413
1254.424, 23.19627
1254.907, 22.76189
1255.389, 22.46851
1255.871, 22.43109
1256.353, 22.51822
1256.835, 22.65249
1257.317, 22.79387
1257.799, 22.92920
1258.281, 23.00085
1258.764, 22.80314
1259.246, 22.52711
1259.728, 22.56318
1260.210, 22.80119
1260.692, 22.94810
1261.174, 22.94147
1261.656, 22.81179
1262.138, 22.52524
1262.620, 22.36522
1263.103, 22.55663
1263.585, 22.77767
1264.067, 22.93726
1264.549, 23.02000
1265.031, 23.01541
1265.513, 22.92973
1265.995, 22.71013
1266.477, 22.41343
1266.959, 22.34882
1267.442, 22.59969
1267.924, 22.72305
1268.406, 22.67343
1268.888, 22.73334
1269.370, 22.98077
1269.852, 23.12829
1270.334, 23.02295
1270.816, 22.85878
1271.299, 22.84959
1271.781, 22.90163
1272.263, 22.81738
1272.745, 22.64760
1273.227, 22.45605
1273.709, 22.30597
1274.191, 22.39706
1274.673, 22.66759
1275.156, 22.81577
1275.638, 22.74799
1276.120, 22.66812
1276.602, 22.65469
1277.084, 22.71170
1277.566, 22.99124
1278.048, 23.16203
1278.530, 22.89648
1279.012, 22.53753
1279.495, 22.36427
1279.977, 22.39400
1280.459, 22.67543
1280.941, 23.21589
1281.423, 23.45599
1281.905, 23.32625
1282.387, 23.13819
1282.869, 22.88465
1283.351, 22.73179
1283.834, 22.73023
1284.316, 22.85246
1284.798, 23.09902
1285.280, 23.29377
1285.762, 23.22662
1286.244, 22.90798
##END=



