##NAMES=Sanidine
##RRUFFID=R060313
##IDEAL CHEMISTRY=KAlSi_3_O_8_
##LOCALITY=Eifel Mountains, Rhineland-Palatinate, Germany
##OWNER=RRUFF
##SOURCE=Herb Obodda
##DESCRIPTION=Pale yellow transparent cleavage fragment. Crystal structure given below.
##STATUS=The identification of this mineral has been confirmed by X-ray diffraction and chemical analysis
##URL=rruff.info/R060313
##MEASURED CHEMISTRY=(K_0.85_Na_0.14_Ba_0.01_)_Î£=1_Al_1.04_Si_2.96_O_8_
91.53320, 316.7571
92.01532, 310.4868
92.49744, 307.2124
92.97955, 312.3224
93.46167, 321.1644
93.94379, 328.8234
94.42590, 338.1009
94.90802, 346.7911
95.39014, 351.2419
95.87225, 350.4844
96.35437, 349.9115
96.83649, 352.2070
97.31860, 355.9246
97.80072, 359.6896
98.28284, 362.5528
98.76495, 364.2732
99.24707, 365.2320
99.72919, 364.4828
100.2113, 364.2503
100.6934, 365.2969
101.1755, 367.2278
101.6577, 369.1391
102.1398, 370.1109
102.6219, 369.6048
103.1040, 370.9451
103.5861, 374.7251
104.0682, 379.2211
104.5504, 383.6060
105.0325, 387.6874
105.5146, 391.7281
105.9967, 396.0976
106.4788, 401.2519
106.9609, 405.3647
107.4431, 407.5539
107.9252, 408.8524
108.4073, 410.7422
108.8894, 413.8510
109.3715, 417.3569
109.8536, 419.7817
110.3358, 421.0415
110.8179, 422.0404
111.3000, 422.9469
111.7821, 423.8272
112.2642, 425.3609
112.7463, 427.9942
113.2285, 431.3764
113.7106, 435.0466
114.1927, 438.8099
114.6748, 443.1587
115.1569, 448.8761
115.6390, 456.4988
116.1212, 464.3015
116.6033, 472.3853
117.0854, 480.1870
117.5675, 487.1607
118.0496, 493.0699
118.5317, 497.9627
119.0139, 502.0504
119.4960, 506.2844
119.9781, 508.3983
120.4602, 507.7556
120.9423, 504.7303
121.4244, 500.0240
121.9066, 494.1791
122.3887, 487.2187
122.8708, 478.2494
123.3529, 466.9106
123.8350, 454.4153
124.3171, 440.9369
124.7993, 426.6494
125.2814, 412.1647
125.7635, 397.8669
126.2456, 383.6996
126.7277, 370.6586
127.2098, 359.0397
127.6920, 348.4410
128.1741, 338.2306
128.6562, 328.2455
129.1383, 319.1072
129.6204, 311.9940
130.1025, 306.6259
130.5847, 301.6998
131.0668, 296.2412
131.5489, 290.7042
132.0310, 286.8143
132.5131, 285.6979
132.9952, 285.5916
133.4774, 284.7270
133.9595, 283.0823
134.4416, 281.6867
134.9237, 281.5639
135.4058, 282.8823
135.8879, 284.3265
136.3701, 285.8162
136.8522, 287.2611
137.3343, 288.6549
137.8164, 289.9967
138.2985, 291.1766
138.7806, 292.0662
139.2628, 292.8433
139.7449, 292.8975
140.2270, 292.0540
140.7091, 290.6645
141.1912, 288.8604
141.6733, 286.7121
142.1555, 284.4547
142.6376, 282.9400
143.1197, 283.0455
143.6018, 282.9639
144.0839, 282.0812
144.5660, 280.9334
145.0482, 280.3513
145.5303, 280.8186
146.0124, 282.2699
146.4945, 284.2367
146.9766, 286.1511
147.4587, 288.9554
147.9409, 293.2989
148.4230, 298.9929
148.9051, 305.1497
149.3872, 311.1983
149.8693, 317.2635
150.3514, 323.9401
150.8336, 331.3678
151.3157, 339.3271
151.7978, 347.9071
152.2799, 357.2776
152.7620, 366.4157
153.2441, 374.5428
153.7263, 381.9188
154.2084, 388.9643
154.6905, 396.0420
155.1726, 402.7885
155.6547, 408.4204
156.1368, 412.7367
156.6190, 416.1181
157.1011, 419.6033
157.5832, 422.5254
158.0653, 423.4971
158.5474, 421.0939
159.0295, 415.5689
159.5117, 410.2800
159.9938, 405.0528
160.4759, 400.2571
160.9580, 396.5298
161.4401, 393.4404
161.9222, 389.9645
162.4044, 385.0986
162.8865, 378.5413
163.3686, 372.1465
163.8507, 366.1209
164.3328, 360.0284
164.8149, 353.5070
165.2971, 346.6158
165.7792, 339.9291
166.2613, 334.0669
166.7434, 329.3349
167.2255, 324.7343
167.7076, 320.1504
168.1898, 315.7308
168.6719, 311.7472
169.1540, 308.1905
169.6361, 304.6574
170.1182, 300.4962
170.6003, 295.1916
171.0825, 290.6291
171.5646, 287.7022
172.0467, 285.2599
172.5288, 282.0357
173.0109, 277.6673
173.4930, 272.5076
173.9752, 266.8781
174.4573, 260.7403
174.9394, 254.6189
175.4215, 248.8366
175.9036, 243.1489
176.3857, 236.9219
176.8679, 229.5669
177.3500, 222.1541
177.8321, 216.1001
178.3142, 211.4154
178.7963, 207.1883
179.2784, 203.1266
179.7606, 199.1476
180.2427, 194.7863
180.7248, 189.3315
181.2069, 183.9841
181.6890, 179.8388
182.1711, 176.9842
182.6533, 174.7164
183.1354, 172.4266
183.6175, 170.1012
184.0996, 167.8670
184.5817, 165.6356
185.0638, 163.5855
185.5460, 161.7182
186.0281, 160.0527
186.5102, 158.8888
186.9923, 158.8262
187.4744, 160.4332
187.9565, 161.6371
188.4387, 162.0462
188.9208, 162.1016
189.4029, 161.7896
189.8850, 161.1793
190.3671, 160.8689
190.8492, 162.1493
191.3314, 166.5779
191.8135, 170.0881
192.2956, 171.9565
192.7777, 173.1445
193.2598, 174.5471
193.7419, 176.5024
194.2241, 178.6486
194.7062, 180.1155
195.1883, 181.1075
195.6704, 181.0110
196.1525, 179.3406
196.6346, 176.7261
197.1168, 173.8857
197.5989, 171.1329
198.0810, 168.3053
198.5631, 164.9021
199.0452, 160.9282
199.5273, 156.4357
200.0095, 150.8173
200.4916, 144.7689
200.9737, 139.4319
201.4558, 135.3411
201.9379, 132.1676
202.4200, 128.9037
202.9022, 125.4906
203.3843, 122.1362
203.8664, 118.6259
204.3485, 115.1836
204.8306, 112.5120
205.3127, 111.0669
205.7949, 110.4431
206.2770, 109.6806
206.7591, 108.7203
207.2412, 107.7567
207.7233, 106.9029
208.2054, 106.1429
208.6876, 105.3938
209.1697, 104.5805
209.6518, 103.8010
210.1339, 103.2265
210.6160, 102.9502
211.0981, 102.6367
211.5803, 101.9180
212.0624, 100.7941
212.5445, 99.83110
213.0266, 99.29956
213.5087, 99.00175
213.9908, 98.78033
214.4730, 98.62608
214.9551, 98.49086
215.4372, 98.34895
215.9193, 98.21357
216.4014, 97.98693
216.8836, 97.71156
217.3657, 97.28554
217.8478, 96.43575
218.3299, 95.08544
218.8120, 93.84532
219.2941, 93.71315
219.7763, 95.11872
220.2584, 96.21459
220.7405, 96.60542
221.2226, 96.63778
221.7047, 96.48459
222.1868, 96.20071
222.6690, 95.81331
223.1511, 95.33318
223.6332, 94.64538
224.1153, 94.13225
224.5974, 93.91494
225.0795, 93.80135
225.5617, 93.68057
226.0438, 93.51393
226.5259, 93.29944
227.0080, 93.01943
227.4901, 92.58627
227.9722, 92.25783
228.4544, 92.18403
228.9365, 92.11940
229.4186, 91.81329
229.9007, 91.21874
230.3828, 90.55045
230.8649, 90.19463
231.3471, 90.40652
231.8292, 90.54278
232.3113, 90.15022
232.7934, 89.94144
233.2755, 90.81223
233.7576, 92.91241
234.2398, 95.28069
234.7219, 96.26939
235.2040, 94.71777
235.6861, 93.76736
236.1682, 93.67023
236.6503, 94.01727
237.1325, 94.54913
237.6146, 95.17587
238.0967, 95.76737
238.5788, 96.08541
239.0609, 95.82285
239.5430, 96.04324
240.0252, 97.17752
240.5073, 98.61528
240.9894, 99.74568
241.4715, 100.4286
241.9536, 100.8991
242.4357, 101.4275
242.9179, 101.9790
243.4000, 102.7691
243.8821, 103.7866
244.3642, 105.0671
244.8463, 106.8127
245.3284, 109.1002
245.8106, 111.3493
246.2927, 112.7406
246.7748, 113.2332
247.2569, 114.0283
247.7390, 115.4958
248.2211, 117.2773
248.7033, 118.8955
249.1854, 120.2507
249.6675, 121.6992
250.1496, 123.7018
250.6317, 126.1883
251.1138, 128.6267
251.5960, 130.8874
252.0781, 133.0575
252.5602, 135.2719
253.0423, 137.5355
253.5244, 139.8076
254.0065, 141.8907
254.4887, 143.9061
254.9708, 146.2682
255.4529, 149.3688
255.9350, 152.7542
256.4171, 155.7746
256.8992, 158.3733
257.3813, 160.7793
257.8635, 162.8871
258.3456, 164.9324
258.8277, 167.4029
259.3098, 170.6458
259.7919, 174.2404
260.2740, 177.6113
260.7562, 180.7414
261.2383, 183.7093
261.7204, 186.3628
262.2025, 188.9346
262.6846, 191.8219
263.1667, 195.4197
263.6489, 199.0344
264.1310, 201.4566
264.6131, 202.3199
265.0952, 203.5912
265.5773, 206.4117
266.0594, 209.9851
266.5416, 213.7859
267.0237, 217.8349
267.5058, 221.6472
267.9879, 224.3433
268.4700, 225.5735
268.9521, 227.2902
269.4343, 230.4771
269.9164, 234.2758
270.3985, 238.0851
270.8806, 241.7549
271.3627, 245.5076
271.8448, 249.5706
272.3270, 253.9512
272.8091, 258.6953
273.2912, 264.3631
273.7733, 270.0629
274.2554, 275.0761
274.7375, 279.3429
275.2197, 283.6353
275.7018, 289.0265
276.1839, 295.7117
276.6660, 302.0752
277.1481, 307.7706
277.6302, 313.1330
278.1124, 318.2477
278.5945, 323.1391
279.0766, 327.7171
279.5587, 331.9718
280.0408, 335.9527
280.5229, 339.2860
281.0051, 342.0865
281.4872, 344.0099
281.9693, 344.9223
282.4514, 344.8102
282.9335, 343.6927
283.4156, 341.5440
283.8978, 338.3592
284.3799, 334.3828
284.8620, 329.4578
285.3441, 323.7746
285.8262, 317.3416
286.3083, 310.2118
286.7905, 302.4222
287.2726, 293.9261
287.7547, 284.7921
288.2368, 275.8528
288.7189, 267.3953
289.2010, 258.7726
289.6832, 249.7114
290.1653, 240.4448
290.6474, 231.2794
291.1295, 222.4643
291.6116, 213.8839
292.0938, 205.0590
292.5759, 195.3382
293.0580, 186.4216
293.5401, 178.6396
294.0222, 171.7367
294.5043, 165.6297
294.9865, 160.3007
295.4686, 155.3970
295.9507, 149.9494
296.4328, 143.0636
296.9149, 137.3159
297.3970, 133.6553
297.8792, 130.7299
298.3613, 127.3729
298.8434, 123.2267
299.3255, 118.8117
299.8076, 114.9894
300.2897, 111.9430
300.7719, 109.1104
301.2540, 106.7522
301.7361, 104.3493
302.2182, 101.3061
302.7003, 97.66837
303.1824, 94.16579
303.6646, 91.74773
304.1467, 90.78066
304.6288, 89.61468
305.1109, 88.09059
305.5930, 86.51195
306.0751, 85.06482
306.5573, 83.71213
307.0394, 82.25890
307.5215, 80.47550
308.0036, 78.30521
308.4857, 76.49918
308.9678, 75.16557
309.4500, 74.10778
309.9321, 73.46043
310.4142, 73.04575
310.8963, 72.53675
311.3784, 71.69366
311.8605, 70.56724
312.3427, 69.57022
312.8248, 68.62418
313.3069, 67.92038
313.7890, 67.76070
314.2711, 67.77740
314.7532, 67.43127
315.2354, 66.43885
315.7175, 65.09834
316.1996, 64.31267
316.6817, 64.60168
317.1638, 64.63159
317.6459, 64.13084
318.1281, 63.40495
318.6102, 62.66403
319.0923, 61.99193
319.5744, 61.45107
320.0565, 61.18180
320.5386, 61.36139
321.0208, 61.40455
321.5029, 61.23194
321.9850, 60.98176
322.4671, 60.73673
322.9492, 60.50570
323.4313, 60.24327
323.9135, 59.84999
324.3956, 59.24481
324.8777, 58.93272
325.3598, 59.41761
325.8419, 59.72810
326.3240, 59.23001
326.8062, 58.19439
327.2883, 57.43922
327.7704, 57.71907
328.2525, 58.93769
328.7346, 59.35998
329.2167, 58.06031
329.6989, 56.97378
330.1810, 56.65564
330.6631, 56.82602
331.1452, 57.07533
331.6273, 57.19936
332.1094, 57.20639
332.5916, 57.10270
333.0737, 56.76687
333.5558, 56.53184
334.0379, 56.49314
334.5200, 56.54406
335.0021, 56.60315
335.4843, 56.64144
335.9664, 56.64883
336.4485, 56.62645
336.9306, 56.61428
337.4127, 56.44560
337.8948, 55.76144
338.3770, 55.18129
338.8591, 55.17788
339.3412, 55.73061
339.8233, 56.37841
340.3055, 56.63001
340.7876, 56.43438
341.2697, 56.35178
341.7518, 56.54512
342.2339, 56.69478
342.7160, 56.65889
343.1982, 56.47881
343.6803, 56.25924
344.1624, 56.03337
344.6445, 55.83115
345.1266, 55.81863
345.6087, 56.10620
346.0909, 56.41326
346.5730, 56.68043
347.0551, 56.89947
347.5372, 57.00061
348.0193, 56.90642
348.5014, 56.85717
348.9836, 57.39016
349.4657, 58.73644
349.9478, 59.87975
350.4299, 60.21474
350.9120, 60.45741
351.3941, 61.24413
351.8763, 62.67624
352.3584, 64.11152
352.8405, 64.72260
353.3226, 64.47781
353.8047, 64.65181
354.2868, 65.52413
354.7690, 66.77668
355.2511, 68.36023
355.7332, 70.17791
356.2153, 71.85745
356.6974, 73.13888
357.1795, 74.08651
357.6617, 74.93489
358.1438, 75.64867
358.6259, 76.32822
359.1080, 77.02718
359.5901, 77.72841
360.0722, 78.39211
360.5544, 78.92738
361.0365, 79.50613
361.5186, 80.49294
362.0007, 81.96111
362.4828, 83.22522
362.9649, 84.04491
363.4471, 84.47018
363.9292, 84.53024
364.4113, 84.18140
364.8934, 83.66718
365.3755, 83.10365
365.8576, 82.51051
366.3398, 82.00578
366.8219, 81.64352
367.3040, 81.33601
367.7861, 81.01839
368.2682, 80.68842
368.7503, 80.27949
369.2325, 79.77105
369.7146, 79.16251
370.1967, 78.41451
370.6788, 77.49649
371.1609, 76.59911
371.6430, 75.89206
372.1252, 75.32844
372.6073, 74.76494
373.0894, 74.03308
373.5715, 73.41740
374.0536, 73.36229
374.5357, 73.73781
375.0179, 73.65884
375.5000, 72.43565
375.9821, 70.74264
376.4642, 70.24014
376.9463, 71.43327
377.4284, 72.47501
377.9106, 72.48829
378.3927, 71.94885
378.8748, 71.68723
379.3569, 71.93771
379.8390, 72.38886
380.3211, 72.66145
380.8033, 72.72654
381.2854, 72.75973
381.7675, 72.79456
382.2496, 72.78577
382.7317, 72.40622
383.2138, 71.79097
383.6960, 71.85707
384.1781, 73.48325
384.6602, 76.49977
385.1423, 78.44358
385.6244, 78.88285
386.1065, 78.96167
386.5887, 78.55220
387.0708, 78.11885
387.5529, 78.51159
388.0350, 80.13116
388.5171, 82.45847
388.9992, 84.36179
389.4814, 85.51027
389.9635, 86.70042
390.4456, 87.73659
390.9277, 88.94194
391.4098, 90.76063
391.8919, 93.14146
392.3741, 95.50021
392.8562, 97.18397
393.3383, 98.07962
393.8204, 99.21899
394.3025, 100.6962
394.7846, 102.3015
395.2668, 103.9673
395.7489, 105.7154
396.2310, 107.6041
396.7131, 109.6758
397.1952, 111.8961
397.6773, 114.1954
398.1595, 116.9156
398.6416, 119.1218
399.1237, 120.7101
399.6058, 121.8040
400.0879, 122.3964
400.5700, 122.5306
401.0522, 122.4829
401.5343, 122.6901
402.0164, 123.2865
402.4985, 123.3198
402.9806, 122.5885
403.4627, 121.3894
403.9449, 119.8255
404.4270, 117.8969
404.9091, 115.5703
405.3912, 112.7791
405.8733, 109.5918
406.3554, 106.2445
406.8376, 102.7005
407.3197, 99.01706
407.8018, 94.79958
408.2839, 90.64902
408.7660, 87.39207
409.2481, 85.32924
409.7303, 83.42316
410.2124, 80.33370
410.6945, 76.18211
411.1766, 72.79340
411.6587, 70.71761
412.1408, 69.33253
412.6230, 68.12803
413.1051, 67.08116
413.5872, 66.02251
414.0693, 64.90722
414.5514, 63.72564
415.0335, 62.41359
415.5157, 60.94617
415.9978, 59.57694
416.4799, 58.44073
416.9620, 57.54934
417.4441, 56.85693
417.9262, 56.28296
418.4084, 56.01307
418.8905, 56.47887
419.3726, 57.34402
419.8547, 57.66902
420.3368, 57.06326
420.8189, 56.03017
421.3011, 55.36317
421.7832, 55.13383
422.2653, 54.94208
422.7474, 54.62170
423.2295, 54.40705
423.7116, 54.58498
424.1938, 55.12429
424.6759, 55.64722
425.1580, 55.79964
425.6401, 55.63174
426.1222, 56.11007
426.6043, 57.86058
427.0865, 59.42309
427.5686, 60.29419
428.0507, 60.80831
428.5328, 61.45094
429.0149, 62.40875
429.4970, 63.51685
429.9792, 64.44337
430.4613, 64.80977
430.9434, 65.87412
431.4255, 68.15354
431.9076, 70.55009
432.3897, 72.27926
432.8719, 73.52178
433.3540, 75.10064
433.8361, 77.76384
434.3182, 81.29261
434.8003, 84.05782
435.2824, 85.15160
435.7646, 86.87775
436.2467, 90.22640
436.7288, 94.20580
437.2109, 97.61056
437.6930, 100.0553
438.1751, 102.4819
438.6573, 106.1715
439.1394, 111.2080
439.6215, 116.3570
440.1036, 121.4398
440.5857, 126.6501
441.0678, 132.1142
441.5500, 137.8170
442.0321, 143.6668
442.5142, 149.5112
442.9963, 155.5330
443.4784, 162.0676
443.9605, 169.1019
444.4427, 176.7920
444.9248, 185.4564
445.4069, 194.7254
445.8890, 203.8465
446.3711, 212.8229
446.8532, 221.6460
447.3354, 230.0508
447.8175, 238.3021
448.2996, 247.1507
448.7817, 256.8502
449.2638, 266.5151
449.7459, 275.1371
450.2281, 282.6431
450.7102, 289.8470
451.1923, 297.2841
451.6744, 303.9780
452.1565, 309.2763
452.6386, 313.2886
453.1208, 316.3302
453.6029, 318.5378
454.0850, 320.0388
454.5671, 321.1877
455.0492, 322.6049
455.5313, 322.7139
456.0135, 321.0052
456.4956, 318.3207
456.9777, 315.1663
457.4598, 311.7023
457.9419, 307.9494
458.4240, 303.8376
458.9062, 299.3654
459.3883, 295.2886
459.8704, 291.7139
460.3525, 288.4374
460.8346, 285.4617
461.3167, 282.7411
461.7989, 280.2168
462.2810, 277.8534
462.7631, 275.7122
463.2452, 273.6541
463.7273, 271.4605
464.2094, 270.6833
464.6916, 272.4988
465.1737, 274.9233
465.6558, 276.5987
466.1379, 277.8091
466.6200, 279.7690
467.1021, 283.3692
467.5843, 288.0493
468.0664, 292.6297
468.5485, 297.0573
469.0306, 301.9400
469.5127, 307.8763
469.9948, 314.2638
470.4770, 320.1987
470.9591, 325.7630
471.4412, 330.4564
471.9233, 333.9919
472.4054, 336.5063
472.8875, 338.4967
473.3697, 340.1207
473.8518, 340.0996
474.3339, 336.9047
474.8160, 330.4991
475.2981, 324.6117
475.7802, 320.3206
476.2624, 315.4287
476.7445, 309.0682
477.2266, 301.3546
477.7087, 292.2422
478.1908, 281.6124
478.6729, 270.6333
479.1551, 261.4931
479.6372, 255.0756
480.1193, 248.4404
480.6014, 241.1508
481.0835, 234.0317
481.5656, 227.3447
482.0478, 221.2372
482.5299, 215.9466
483.0120, 211.6935
483.4941, 208.2634
483.9762, 204.9737
484.4583, 201.6862
484.9405, 198.8517
485.4226, 196.6092
485.9047, 194.7660
486.3868, 193.1817
486.8689, 191.8439
487.3510, 190.9010
487.8332, 190.5509
488.3153, 190.7226
488.7974, 191.0185
489.2795, 191.3121
489.7616, 192.0118
490.2437, 193.6564
490.7259, 195.8092
491.2080, 197.7931
491.6901, 199.1881
492.1722, 200.9692
492.6543, 203.7130
493.1364, 207.3886
493.6186, 211.9259
494.1007, 217.3772
494.5828, 223.5692
495.0649, 230.2944
495.5470, 237.5785
496.0291, 245.7780
496.5113, 254.7142
496.9934, 264.7916
497.4755, 276.0837
497.9576, 288.7149
498.4397, 303.0020
498.9218, 319.0096
499.4040, 336.6194
499.8861, 355.2708
500.3682, 373.5977
500.8503, 395.5910
501.3324, 421.9113
501.8145, 450.9416
502.2967, 482.1816
502.7788, 515.3829
503.2609, 550.0645
503.7430, 585.5729
504.2251, 622.9728
504.7072, 666.2560
505.1894, 717.1517
505.6715, 770.5324
506.1536, 825.5116
506.6357, 882.2158
507.1178, 940.3551
507.5999, 999.9719
508.0821, 1061.879
508.5642, 1128.105
509.0463, 1196.937
509.5284, 1264.279
510.0105, 1329.971
510.4926, 1393.541
510.9748, 1457.410
511.4569, 1517.471
511.9390, 1566.036
512.4211, 1604.158
512.9032, 1627.217
513.3853, 1632.838
513.8674, 1621.764
514.3495, 1594.572
514.8317, 1551.167
515.3138, 1493.344
515.7959, 1421.241
516.2780, 1333.494
516.7601, 1246.971
517.2422, 1160.004
517.7244, 1075.472
518.2065, 993.0038
518.6886, 913.9682
519.1707, 839.8821
519.6528, 771.4727
520.1349, 708.6941
520.6171, 652.3142
521.0992, 603.0195
521.5813, 557.3235
522.0634, 515.4767
522.5455, 477.3647
523.0276, 443.5747
523.5098, 413.4164
523.9919, 385.9790
524.4740, 360.8276
524.9561, 337.8754
525.4382, 316.6888
525.9203, 297.3899
526.4025, 279.8302
526.8846, 264.2104
527.3667, 250.2590
527.8488, 237.6071
528.3309, 226.2115
528.8130, 215.7261
529.2952, 206.3486
529.7773, 197.6264
530.2594, 188.7682
530.7415, 180.0577
531.2236, 172.9588
531.7057, 168.3884
532.1879, 164.9780
532.6700, 160.0407
533.1521, 152.4176
533.6342, 145.8287
534.1163, 140.9187
534.5984, 136.5962
535.0806, 132.2617
535.5627, 127.8966
536.0448, 123.6379
536.5269, 119.5681
537.0090, 115.7598
537.4911, 112.5635
537.9733, 110.3135
538.4554, 107.8797
538.9375, 104.7989
539.4196, 101.7758
539.9017, 99.43114
540.3839, 97.60425
540.8660, 95.48031
541.3481, 92.21672
541.8302, 88.47847
542.3123, 85.84237
542.7944, 84.42165
543.2766, 83.13278
543.7587, 81.51339
544.2408, 79.86716
544.7229, 78.71310
545.2050, 78.12920
545.6871, 77.32496
546.1693, 75.92660
546.6514, 74.24301
547.1335, 72.50703
547.6156, 70.77828
548.0977, 69.17081
548.5798, 67.74809
549.0620, 66.50808
549.5441, 65.45500
550.0262, 64.80624
550.5083, 64.06047
550.9904, 63.07273
551.4725, 62.09394
551.9547, 61.37380
552.4368, 60.86227
552.9189, 60.24797
553.4010, 59.22581
553.8831, 58.01204
554.3652, 57.59632
554.8474, 58.40345
555.3295, 58.94038
555.8116, 58.88377
556.2937, 58.37134
556.7758, 57.19265
557.2579, 55.44871
557.7401, 54.05381
558.2222, 53.70790
558.7043, 53.99231
559.1864, 54.23255
559.6685, 54.40895
560.1506, 54.58138
560.6328, 54.83895
561.1149, 55.05104
561.5970, 54.86390
562.0791, 54.12781
562.5612, 53.55766
563.0433, 53.34771
563.5255, 53.30707
564.0076, 53.43629
564.4897, 53.61531
564.9718, 53.42936
565.4539, 52.55687
565.9360, 51.31132
566.4182, 50.78368
566.9003, 51.40303
567.3824, 51.94264
567.8645, 52.37280
568.3466, 52.66298
568.8287, 52.67691
569.3109, 52.51197
569.7930, 52.48984
570.2751, 52.89143
570.7572, 53.47663
571.2393, 53.67897
571.7214, 53.45702
572.2036, 53.36087
572.6857, 53.64625
573.1678, 54.04005
573.6499, 54.20329
574.1320, 54.14276
574.6141, 54.11298
575.0963, 54.22725
575.5784, 54.36444
576.0605, 54.47034
576.5426, 54.51433
577.0247, 54.41892
577.5068, 54.14867
577.9890, 53.71585
578.4711, 53.09837
578.9532, 52.01186
579.4353, 51.49403
579.9174, 52.10090
580.3995, 52.64752
580.8817, 52.35065
581.3638, 51.60520
581.8459, 51.28738
582.3280, 51.84607
582.8101, 52.70872
583.2922, 53.00730
583.7744, 52.72790
584.2565, 52.01204
584.7386, 50.57072
585.2207, 49.11436
585.7029, 48.00722
586.1850, 47.26183
586.6671, 46.97715
587.1492, 47.43992
587.6313, 48.01151
588.1135, 48.35291
588.5956, 48.43812
589.0777, 48.00504
589.5598, 46.96523
590.0419, 46.16636
590.5240, 46.66062
591.0062, 48.54237
591.4883, 49.46422
591.9704, 48.80115
592.4525, 48.06220
592.9346, 47.58772
593.4167, 47.24912
593.8989, 46.84661
594.3810, 46.35210
594.8631, 45.92807
595.3452, 45.77391
595.8273, 45.86447
596.3094, 45.92413
596.7916, 46.01019
597.2737, 45.93562
597.7558, 45.44390
598.2379, 44.83424
598.7200, 44.39891
599.2021, 44.16914
599.6843, 44.10411
600.1664, 44.50266
600.6485, 44.89563
601.1306, 44.41240
601.6127, 43.10297
602.0948, 41.96748
602.5770, 41.59116
603.0591, 41.76344
603.5412, 41.91754
604.0233, 42.21152
604.5054, 42.20412
604.9875, 41.62309
605.4697, 40.98390
605.9518, 40.60326
606.4339, 40.44604
606.9160, 40.34634
607.3981, 40.21662
607.8802, 40.07128
608.3624, 39.99078
608.8445, 40.01578
609.3266, 39.75499
609.8087, 38.92766
610.2908, 38.08651
610.7729, 37.61355
611.2551, 37.44594
611.7372, 37.41855
612.2193, 37.64695
612.7014, 37.80666
613.1835, 37.65557
613.6656, 37.26567
614.1478, 36.67094
614.6299, 35.88733
615.1120, 35.35090
615.5941, 35.59315
616.0762, 36.61983
616.5583, 37.11093
617.0405, 36.51325
617.5226, 36.07484
618.0047, 36.19270
618.4868, 36.44211
618.9689, 36.35192
619.4510, 35.88953
619.9332, 35.43011
620.4153, 35.30743
620.8974, 35.43520
621.3795, 35.50071
621.8616, 35.48542
622.3438, 35.51970
622.8259, 35.74094
623.3080, 35.95470
623.7901, 35.90007
624.2722, 35.56977
624.7543, 35.17155
625.2365, 34.64297
625.7186, 34.16463
626.2007, 33.91973
626.6828, 33.85382
627.1649, 33.76976
627.6470, 33.58015
628.1292, 33.46210
628.6113, 33.76127
629.0934, 34.67917
629.5755, 35.16981
630.0576, 34.99813
630.5397, 34.62252
631.0219, 33.89228
631.5040, 33.14173
631.9861, 32.91304
632.4682, 33.38066
632.9503, 33.85461
633.4324, 33.50628
633.9146, 32.65722
634.3967, 32.45301
634.8788, 33.06042
635.3609, 33.57000
635.8430, 33.40471
636.3251, 32.79436
636.8073, 32.39837
637.2894, 32.27951
637.7715, 32.18081
638.2536, 32.08221
638.7357, 31.97383
639.2178, 31.77017
639.7000, 31.54758
640.1821, 31.51952
640.6642, 31.81034
641.1463, 32.28577
641.6284, 32.75215
642.1105, 33.28283
642.5927, 33.36575
643.0748, 32.54707
643.5569, 31.79500
644.0390, 31.74215
644.5211, 32.11619
645.0032, 32.36805
645.4854, 32.34038
645.9675, 32.24041
646.4496, 32.19134
646.9317, 32.17017
647.4138, 32.14009
647.8959, 32.09448
648.3781, 32.02440
648.8602, 31.91630
649.3423, 31.78531
649.8244, 31.71087
650.3065, 31.85340
650.7886, 31.80469
651.2708, 31.22828
651.7529, 30.74195
652.2350, 30.89591
652.7171, 31.50560
653.1992, 31.95338
653.6813, 31.87787
654.1635, 31.57687
654.6456, 31.53053
655.1277, 31.71088
655.6098, 31.72288
656.0919, 31.40718
656.5740, 31.16398
657.0562, 31.46689
657.5383, 32.19235
658.0204, 32.44720
658.5025, 31.54923
658.9846, 31.03252
659.4667, 31.91244
659.9489, 33.04266
660.4310, 33.02543
660.9131, 31.88727
661.3952, 30.77848
661.8773, 30.55909
662.3594, 30.96637
662.8416, 31.14966
663.3237, 31.08954
663.8058, 30.86413
664.2879, 30.26132
664.7700, 29.73195
665.2521, 29.72663
665.7343, 30.07129
666.2164, 30.16229
666.6985, 29.71183
667.1806, 29.11871
667.6627, 28.50952
668.1448, 27.99683
668.6270, 27.90250
669.1091, 28.25563
669.5912, 28.59008
670.0733, 28.48235
670.5554, 28.00147
671.0375, 27.64114
671.5197, 27.43680
672.0018, 27.30404
672.4839, 27.36236
672.9660, 27.37572
673.4481, 27.09579
673.9302, 26.61563
674.4124, 26.28989
674.8945, 26.40808
675.3766, 26.58401
675.8587, 26.16459
676.3408, 25.33266
676.8229, 25.00358
677.3051, 25.43029
677.7872, 26.01173
678.2693, 26.21057
678.7514, 26.06879
679.2335, 26.07056
679.7156, 26.51977
680.1978, 26.69014
680.6799, 26.25092
681.1620, 25.66475
681.6441, 25.19288
682.1262, 24.93400
682.6083, 25.08169
683.0905, 25.89402
683.5726, 26.85717
684.0547, 26.86216
684.5368, 25.91127
685.0189, 25.20493
685.5010, 25.01761
685.9832, 25.01216
686.4653, 24.91310
686.9474, 24.75986
687.4295, 24.74484
687.9116, 24.85846
688.3937, 25.13039
688.8759, 25.79949
689.3580, 26.47916
689.8401, 26.66382
690.3222, 26.43012
690.8043, 26.34586
691.2864, 26.82822
691.7686, 27.52432
692.2507, 27.43598
692.7328, 26.35541
693.2149, 25.84409
693.6970, 26.36518
694.1791, 27.12546
694.6613, 27.58632
695.1434, 27.87479
695.6255, 28.30975
696.1076, 29.12209
696.5897, 29.70502
697.0718, 29.61788
697.5540, 29.24823
698.0361, 29.00017
698.5182, 28.93284
699.0003, 28.98766
699.4824, 29.12126
699.9645, 29.39256
700.4467, 29.87264
700.9288, 30.40895
701.4109, 31.79957
701.8930, 35.48518
702.3751, 38.28913
702.8572, 38.02095
703.3394, 36.08654
703.8215, 34.77751
704.3036, 34.56036
704.7857, 34.99366
705.2678, 36.32798
705.7499, 37.89186
706.2321, 38.72459
706.7142, 38.84532
707.1963, 38.78704
707.6784, 38.81546
708.1605, 38.90558
708.6426, 38.98758
709.1248, 38.99335
709.6069, 39.23808
710.0890, 39.94308
710.5711, 40.63363
711.0532, 41.07267
711.5353, 41.43824
712.0175, 42.04206
712.4996, 42.96508
712.9817, 43.68906
713.4638, 43.67137
713.9459, 43.39854
714.4280, 43.60938
714.9102, 44.23335
715.3923, 44.73352
715.8744, 44.86670
716.3565, 44.91876
716.8386, 45.35074
717.3207, 46.25692
717.8029, 46.84200
718.2850, 46.85865
718.7671, 46.84353
719.2492, 46.85530
719.7313, 46.93114
720.2134, 47.13197
720.6956, 47.45089
721.1777, 47.76925
721.6598, 48.03575
722.1419, 48.25126
722.6240, 48.25175
723.1061, 48.17069
723.5883, 48.71249
724.0704, 50.13348
724.5525, 51.45311
725.0346, 51.55499
725.5167, 50.48370
725.9988, 49.94783
726.4810, 50.33763
726.9631, 50.71465
727.4452, 50.70727
727.9273, 50.85580
728.4094, 51.69197
728.8915, 53.08389
729.3737, 54.45426
729.8558, 55.66983
730.3379, 56.53750
730.8200, 56.51741
731.3021, 56.01095
731.7842, 56.20834
732.2664, 57.30776
732.7485, 58.59615
733.2306, 59.52156
733.7127, 60.22414
734.1948, 61.28670
734.6769, 63.16569
735.1591, 64.56561
735.6412, 65.13359
736.1233, 65.57736
736.6054, 66.21944
737.0875, 67.00098
737.5696, 67.73470
738.0518, 68.33308
738.5339, 69.06152
739.0160, 70.46317
739.4981, 72.01482
739.9802, 72.42741
740.4623, 71.81311
740.9445, 71.90041
741.4266, 73.64992
741.9087, 76.09598
742.3908, 77.43446
742.8729, 77.27029
743.3550, 77.73714
743.8372, 79.84305
744.3193, 81.36321
744.8014, 81.13982
745.2835, 80.36095
745.7656, 80.41991
746.2477, 81.46964
746.7299, 82.44247
747.2120, 82.53654
747.6941, 82.41596
748.1762, 82.94123
748.6583, 83.90441
749.1404, 84.58610
749.6226, 84.78455
750.1047, 84.90950
750.5868, 85.42905
751.0689, 86.26637
751.5510, 86.54897
752.0331, 85.84086
752.5153, 85.41603
752.9974, 85.78860
753.4795, 86.23227
753.9616, 86.17836
754.4437, 85.80516
754.9258, 85.75925
755.4080, 86.44810
755.8901, 87.09458
756.3722, 86.96830
756.8543, 86.56163
757.3364, 86.74326
757.8185, 87.47639
758.3007, 88.00220
758.7828, 87.85514
759.2649, 87.26159
759.7470, 86.60500
760.2291, 85.74538
760.7112, 85.54337
761.1934, 86.56464
761.6755, 87.39331
762.1576, 87.08717
762.6397, 86.34488
763.1218, 86.06722
763.6039, 86.38078
764.0861, 86.64846
764.5682, 86.65140
765.0503, 86.52666
765.5324, 86.25890
766.0145, 85.97527
766.4966, 86.01299
766.9788, 86.41509
767.4609, 86.67170
767.9430, 86.16122
768.4251, 85.10517
768.9072, 84.71816
769.3893, 85.17213
769.8715, 85.41523
770.3536, 85.19792
770.8357, 84.67981
771.3178, 83.82177
771.7999, 82.73931
772.2820, 82.03675
772.7642, 81.87804
773.2463, 81.92737
773.7284, 82.38907
774.2105, 82.79300
774.6926, 82.62636
775.1747, 82.01704
775.6569, 81.50938
776.1390, 81.40238
776.6211, 81.21867
777.1032, 80.02052
777.5853, 78.07840
778.0674, 77.06773
778.5496, 77.21423
779.0317, 77.30019
779.5138, 76.61646
779.9959, 75.70377
780.4780, 75.52918
780.9601, 76.28153
781.4423, 77.04793
781.9244, 78.11265
782.4065, 78.84785
782.8886, 78.85245
783.3707, 78.54887
783.8528, 78.27161
784.3350, 78.13419
784.8171, 78.29579
785.2992, 78.86647
785.7813, 79.77354
786.2634, 81.20447
786.7455, 82.89943
787.2277, 83.92679
787.7098, 84.10779
788.1919, 84.02269
788.6740, 84.03497
789.1561, 84.26325
789.6382, 85.20739
790.1204, 87.23945
790.6025, 89.07272
791.0846, 90.51839
791.5667, 91.88661
792.0488, 93.46514
792.5309, 95.00123
793.0131, 96.04984
793.4952, 96.47861
793.9773, 96.88112
794.4594, 97.32238
794.9415, 98.03660
795.4236, 99.56276
795.9058, 101.4911
796.3879, 102.8651
796.8700, 103.4066
797.3521, 103.5498
797.8342, 103.6395
798.3163, 103.7658
798.7985, 104.5721
799.2806, 106.2894
799.7627, 107.2795
800.2448, 106.8101
800.7269, 106.1176
801.2090, 106.2715
801.6912, 107.1372
802.1733, 107.9056
802.6554, 108.7527
803.1375, 109.2178
803.6196, 109.0303
804.1017, 108.5983
804.5839, 108.0935
805.0660, 107.6059
805.5481, 107.3289
806.0302, 107.3358
806.5123, 107.1988
806.9944, 106.3322
807.4766, 105.0481
807.9587, 104.2075
808.4408, 103.7746
808.9229, 102.9731
809.4050, 101.5093
809.8871, 99.70285
810.3693, 97.96965
810.8514, 96.30132
811.3335, 93.97157
811.8156, 90.56920
812.2977, 87.17563
812.7798, 84.16434
813.2620, 81.00937
813.7441, 77.14052
814.2262, 72.86185
814.7083, 69.05016
815.1904, 66.07020
815.6725, 63.24642
816.1547, 60.24419
816.6368, 57.14619
817.1189, 53.87142
817.6010, 50.57487
818.0831, 47.74863
818.5652, 45.59425
819.0474, 43.77506
819.5295, 41.91834
820.0116, 40.01372
820.4937, 37.84165
820.9758, 35.26981
821.4579, 33.28252
821.9401, 32.40510
822.4222, 31.85418
822.9043, 30.78234
823.3864, 29.21804
823.8685, 27.80501
824.3506, 26.52279
824.8328, 25.42191
825.3149, 24.37071
825.7970, 23.62791
826.2791, 23.71033
826.7612, 24.19787
827.2433, 24.03275
827.7255, 22.74150
828.2076, 21.46857
828.6897, 21.32985
829.1718, 21.76373
829.6539, 21.86130
830.1360, 21.63930
830.6182, 21.45757
831.1003, 21.45316
831.5824, 21.43317
832.0645, 21.13931
832.5466, 20.60555
833.0287, 20.32795
833.5109, 20.49800
833.9930, 20.31160
834.4751, 19.19831
834.9572, 18.17221
835.4393, 18.18574
835.9214, 18.94599
836.4036, 19.66936
836.8857, 20.50869
837.3678, 20.87881
837.8499, 20.22622
838.3320, 19.43587
838.8141, 19.09191
839.2963, 19.10685
839.7784, 19.34754
840.2605, 19.73456
840.7426, 19.84873
841.2247, 19.04214
841.7068, 17.83326
842.1890, 17.21879
842.6711, 17.14117
843.1532, 17.38378
843.6353, 17.90330
844.1174, 18.32601
844.5995, 18.31781
845.0817, 17.94123
845.5638, 17.40681
846.0459, 16.44021
846.5280, 16.11276
847.0101, 17.02994
847.4922, 17.91064
847.9744, 18.11779
848.4565, 17.87305
848.9386, 17.40311
849.4207, 16.65442
849.9028, 16.21158
850.3849, 16.53059
850.8671, 16.88052
851.3492, 16.89741
851.8313, 16.64495
852.3134, 16.06055
852.7955, 15.27074
853.2776, 14.80531
853.7598, 15.09702
854.2419, 15.72968
854.7240, 16.15336
855.2061, 16.37560
855.6882, 16.32026
856.1703, 15.98978
856.6525, 15.87698
857.1346, 16.31113
857.6167, 16.91716
858.0988, 16.91606
858.5809, 16.14163
859.0630, 15.88948
859.5452, 16.46345
860.0273, 17.02318
860.5094, 17.55856
860.9915, 17.77728
861.4736, 17.18076
861.9557, 15.94537
862.4379, 15.13496
862.9200, 15.09770
863.4021, 15.28740
863.8842, 15.73945
864.3663, 16.15469
864.8484, 16.28267
865.3306, 16.14851
865.8127, 15.78712
866.2948, 15.21709
866.7769, 14.81995
867.2590, 15.15620
867.7411, 15.86243
868.2233, 16.14863
868.7054, 16.07311
869.1875, 16.07497
869.6696, 16.28229
870.1517, 16.42050
870.6339, 16.19717
871.1160, 15.72888
871.5981, 15.56532
872.0802, 15.80791
872.5623, 15.99270
873.0444, 16.09034
873.5266, 16.09699
874.0087, 15.89671
874.4908, 15.65422
874.9729, 15.73546
875.4550, 16.24750
875.9371, 16.46576
876.4193, 15.96166
876.9014, 15.54179
877.3835, 15.67500
877.8656, 15.97567
878.3477, 16.10148
878.8298, 15.97842
879.3120, 15.52770
879.7941, 14.50372
880.2762, 13.69178
880.7583, 14.16634
881.2404, 15.23630
881.7225, 15.70659
882.2047, 15.55125
882.6868, 15.17285
883.1689, 14.74696
883.6510, 14.38278
884.1331, 14.25177
884.6152, 14.30829
885.0974, 14.12294
885.5795, 13.60837
886.0616, 13.55391
886.5437, 14.32021
887.0258, 15.14444
887.5079, 15.37199
887.9901, 15.16375
888.4722, 15.17647
888.9543, 15.69722
889.4364, 15.88828
889.9185, 15.46134
890.4006, 15.04661
890.8828, 14.76674
891.3649, 14.70757
891.8470, 15.12492
892.3291, 15.97788
892.8112, 16.49397
893.2933, 16.19398
893.7755, 15.65801
894.2576, 15.13276
894.7397, 14.65115
895.2218, 14.16418
895.7039, 13.75336
896.1860, 13.73649
896.6682, 14.28317
897.1503, 14.88438
897.6324, 14.88056
898.1145, 14.44527
898.5966, 14.00706
899.0787, 13.60141
899.5609, 13.43246
900.0430, 13.57158
900.5251, 13.87496
901.0072, 14.22595
901.4893, 14.60167
901.9714, 14.88196
902.4536, 15.04874
902.9357, 15.20260
903.4178, 15.45815
903.8999, 15.49852
904.3820, 14.89507
904.8641, 14.11999
905.3463, 14.06809
905.8284, 14.84657
906.3105, 15.41174
906.7926, 15.76571
907.2747, 15.80070
907.7568, 15.11312
908.2390, 14.39431
908.7211, 14.40035
909.2032, 14.90885
909.6853, 15.03556
910.1674, 14.33457
910.6495, 13.76347
911.1317, 14.16004
911.6138, 14.86211
912.0959, 15.11943
912.5780, 15.05340
913.0601, 15.05948
913.5422, 15.24305
914.0244, 15.45465
914.5065, 15.60153
914.9886, 15.63087
915.4707, 15.31096
915.9528, 14.73165
916.4349, 14.49133
916.9171, 14.67438
917.3992, 15.01019
917.8813, 15.40058
918.3634, 15.66233
918.8455, 15.39440
919.3276, 14.52958
919.8098, 14.41407
920.2919, 15.47488
920.7740, 16.19378
921.2561, 16.16251
921.7382, 15.74437
922.2203, 14.93413
922.7025, 13.97114
923.1846, 13.80087
923.6667, 14.92993
924.1488, 15.73816
924.6309, 15.95611
925.1130, 15.96112
925.5952, 15.81429
926.0773, 15.62037
926.5594, 15.38997
927.0415, 15.18501
927.5236, 15.34495
928.0057, 16.42350
928.4879, 17.29593
928.9700, 16.93486
929.4521, 16.17169
929.9342, 16.10369
930.4163, 16.51441
930.8984, 16.42308
931.3806, 15.49095
931.8627, 14.60775
932.3448, 14.65210
932.8269, 15.37085
933.3090, 16.56110
933.7911, 18.00013
934.2733, 18.58438
934.7554, 18.14031
935.2375, 17.56287
935.7196, 17.42599
936.2017, 17.66702
936.6838, 18.33256
937.1660, 19.48265
937.6481, 19.72491
938.1302, 18.79067
938.6123, 18.16214
939.0944, 18.45197
939.5765, 18.96933
940.0587, 19.05298
940.5408, 18.74030
941.0229, 18.27447
941.5050, 17.20906
941.9871, 16.80899
942.4692, 17.71539
942.9514, 18.60883
943.4335, 18.92575
943.9156, 18.96182
944.3977, 19.08064
944.8798, 19.30426
945.3619, 19.51205
945.8441, 19.30087
946.3262, 19.56366
946.8083, 21.20731
947.2904, 22.94142
947.7725, 23.86381
948.2546, 23.94671
948.7368, 23.11969
949.2189, 21.32900
949.7010, 20.06071
950.1831, 20.82623
950.6652, 22.08230
951.1473, 22.22876
951.6295, 21.74406
952.1116, 21.40808
952.5937, 21.40648
953.0758, 21.82483
953.5579, 22.76074
954.0400, 23.71596
954.5222, 23.94728
955.0043, 23.66815
955.4864, 23.45578
955.9685, 23.33569
956.4506, 23.30788
956.9327, 23.37214
957.4149, 23.44078
957.8970, 23.38339
958.3791, 23.38833
958.8612, 24.19838
959.3433, 25.90579
959.8254, 27.03603
960.3076, 27.44729
960.7897, 27.42568
961.2718, 26.92582
961.7539, 26.40226
962.2360, 26.50415
962.7181, 27.18859
963.2003, 27.40179
963.6824, 26.59146
964.1645, 26.47256
964.6466, 27.89520
965.1287, 29.17929
965.6108, 28.97695
966.0930, 28.29204
966.5751, 28.82433
967.0572, 30.78274
967.5393, 31.97216
968.0214, 31.57800
968.5035, 31.17214
968.9857, 31.02854
969.4678, 31.16669
969.9499, 31.74723
970.4320, 32.57569
970.9141, 33.23548
971.3962, 33.60384
971.8784, 34.00951
972.3605, 34.83794
972.8426, 35.49318
973.3247, 35.38604
973.8068, 34.97314
974.2889, 34.76237
974.7711, 34.83977
975.2532, 35.18237
975.7353, 35.82412
976.2174, 36.41487
976.6995, 36.30913
977.1816, 36.18929
977.6638, 37.29356
978.1459, 39.14240
978.6280, 40.39278
979.1101, 40.82325
979.5922, 41.19643
980.0743, 42.06393
980.5565, 43.07590
981.0386, 43.60353
981.5207, 43.79431
982.0028, 44.12376
982.4849, 44.62652
982.9670, 45.44761
983.4492, 46.63830
983.9313, 47.60453
984.4134, 47.71386
984.8955, 47.29939
985.3776, 47.51526
985.8597, 48.39127
986.3419, 48.86121
986.8240, 48.77698
987.3061, 48.69179
987.7882, 48.80537
988.2703, 49.14404
988.7524, 49.79409
989.2346, 50.70964
989.7167, 51.36293
990.1988, 51.68980
990.6809, 51.94655
991.1630, 52.11468
991.6451, 52.29182
992.1273, 52.47154
992.6094, 52.74267
993.0915, 53.34187
993.5736, 54.31316
994.0557, 54.76867
994.5378, 54.06805
995.0200, 53.79180
995.5021, 54.86726
995.9842, 55.57604
996.4663, 54.32248
996.9484, 52.38384
997.4305, 52.08703
997.9127, 53.76468
998.3948, 54.84893
998.8769, 54.53285
999.3590, 54.09255
999.8411, 53.66363
1000.323, 53.49178
1000.805, 54.01872
1001.287, 54.86717
1001.770, 55.21815
1002.252, 54.86909
1002.734, 54.55931
1003.216, 54.81630
1003.698, 54.94237
1004.180, 54.33175
1004.662, 53.52324
1005.144, 53.18488
1005.627, 53.18011
1006.109, 52.92964
1006.591, 52.22010
1007.073, 51.51626
1007.555, 50.89083
1008.037, 50.66203
1008.519, 51.62976
1009.001, 52.95734
1009.483, 53.16695
1009.966, 52.35927
1010.448, 51.68715
1010.930, 51.69928
1011.412, 51.86555
1011.894, 51.57359
1012.376, 51.15571
1012.858, 51.28262
1013.340, 51.67898
1013.823, 51.54522
1014.305, 50.83640
1014.787, 50.10949
1015.269, 49.67047
1015.751, 49.57470
1016.233, 50.12033
1016.715, 51.00965
1017.197, 51.40374
1017.679, 51.35287
1018.162, 51.15727
1018.644, 50.88447
1019.126, 50.48690
1019.608, 49.93698
1020.090, 49.23249
1020.572, 48.09391
1021.054, 46.71770
1021.536, 46.73022
1022.018, 48.08134
1022.501, 49.01873
1022.983, 49.11945
1023.465, 48.67293
1023.947, 47.78196
1024.429, 46.88628
1024.911, 47.16266
1025.393, 48.65771
1025.875, 48.89809
1026.358, 47.70924
1026.840, 46.64107
1027.322, 46.02003
1027.804, 46.03078
1028.286, 47.02422
1028.768, 48.37855
1029.250, 48.40216
1029.732, 46.84365
1030.214, 45.89972
1030.697, 45.65166
1031.179, 45.81099
1031.661, 46.50503
1032.143, 47.10695
1032.625, 47.05847
1033.107, 46.60784
1033.589, 46.48664
1034.071, 46.83110
1034.553, 46.87419
1035.036, 46.45626
1035.518, 46.09240
1036.000, 46.01049
1036.482, 45.86493
1036.964, 45.23020
1037.446, 44.38123
1037.928, 44.16257
1038.410, 44.77120
1038.893, 45.31941
1039.375, 45.81809
1039.857, 46.24280
1040.339, 46.68742
1040.821, 46.95294
1041.303, 46.82507
1041.785, 46.41020
1042.267, 45.94960
1042.750, 45.26707
1043.232, 45.12323
1043.714, 46.05967
1044.196, 46.81279
1044.678, 47.15663
1045.160, 47.16463
1045.642, 46.57644
1046.124, 45.75532
1046.606, 45.63033
1047.089, 46.47423
1047.571, 47.07379
1048.053, 47.18930
1048.535, 47.19880
1049.017, 47.26867
1049.499, 47.21009
1049.981, 46.76439
1050.463, 46.11038
1050.945, 45.63432
1051.428, 45.38635
1051.910, 45.27107
1052.392, 45.28916
1052.874, 45.41475
1053.356, 45.73041
1053.838, 46.06648
1054.320, 46.55429
1054.802, 46.88003
1055.285, 46.18521
1055.767, 44.20293
1056.249, 43.11916
1056.731, 44.40653
1057.213, 45.49240
1057.695, 45.30708
1058.177, 44.69063
1058.659, 44.09883
1059.141, 43.64425
1059.624, 43.51371
1060.106, 43.73946
1060.588, 43.71660
1061.070, 42.88877
1061.552, 42.26370
1062.034, 42.51221
1062.516, 42.85386
1062.998, 42.74715
1063.480, 42.26665
1063.963, 41.43992
1064.445, 40.33213
1064.927, 39.71543
1065.409, 40.30322
1065.891, 40.85081
1066.373, 40.81523
1066.855, 40.58318
1067.337, 40.33581
1067.820, 40.15480
1068.302, 40.16471
1068.784, 40.35534
1069.266, 40.48026
1069.748, 40.24654
1070.230, 40.27965
1070.712, 41.10514
1071.194, 42.04881
1071.677, 42.72834
1072.159, 43.13075
1072.641, 43.12761
1073.123, 42.83913
1073.605, 42.91301
1074.087, 43.78709
1074.569, 44.56404
1075.051, 44.52772
1075.533, 44.56240
1076.016, 45.57965
1076.498, 46.87489
1076.980, 47.54879
1077.462, 47.55754
1077.944, 47.20535
1078.426, 46.38025
1078.908, 45.97932
1079.390, 46.67230
1079.873, 47.64228
1080.355, 48.39705
1080.837, 49.09338
1081.319, 50.17318
1081.801, 51.37271
1082.283, 51.72910
1082.765, 50.80140
1083.247, 50.08034
1083.729, 50.30865
1084.212, 50.85580
1084.694, 51.48617
1085.176, 52.14866
1085.658, 52.93465
1086.140, 53.69202
1086.622, 53.97080
1087.104, 53.63482
1087.586, 53.63295
1088.068, 54.69560
1088.551, 55.76537
1089.033, 56.30751
1089.515, 56.63914
1089.997, 57.07977
1090.479, 57.51348
1090.961, 57.55273
1091.443, 57.17074
1091.925, 57.14889
1092.408, 58.14342
1092.890, 59.05674
1093.372, 59.70293
1093.854, 59.85371
1094.336, 58.81670
1094.818, 57.46766
1095.300, 57.14924
1095.782, 57.90541
1096.265, 58.63384
1096.747, 58.77385
1097.229, 59.32533
1097.711, 61.46745
1098.193, 63.15931
1098.675, 62.66776
1099.157, 61.44530
1099.639, 61.26752
1100.121, 62.01755
1100.604, 62.44862
1101.086, 62.17548
1101.568, 61.96257
1102.050, 62.17232
1102.532, 62.27673
1103.014, 61.86816
1103.496, 61.40450
1103.978, 61.34917
1104.460, 61.57461
1104.943, 61.64760
1105.425, 61.44434
1105.907, 61.47515
1106.389, 62.19689
1106.871, 62.66188
1107.353, 62.47481
1107.835, 62.06341
1108.317, 61.54561
1108.800, 61.08545
1109.282, 60.93248
1109.764, 61.10717
1110.246, 61.50382
1110.728, 62.72405
1111.210, 63.24477
1111.692, 62.23119
1112.174, 61.20844
1112.656, 60.99831
1113.139, 61.11555
1113.621, 60.97461
1114.103, 60.59200
1114.585, 60.23548
1115.067, 59.89198
1115.549, 59.60272
1116.031, 59.28758
1116.513, 59.14975
1116.995, 59.45836
1117.478, 59.74632
1117.960, 59.49283
1118.442, 58.92120
1118.924, 58.77024
1119.406, 59.19754
1119.888, 59.42669
1120.370, 59.44007
1120.852, 59.27396
1121.335, 58.81083
1121.817, 58.39693
1122.299, 58.30879
1122.781, 58.35316
1123.263, 58.15379
1123.745, 57.70226
1124.227, 57.46587
1124.709, 57.49792
1125.192, 57.60645
1125.674, 57.91388
1126.156, 57.75973
1126.638, 56.59692
1127.120, 55.48598
1127.602, 55.86246
1128.084, 57.25413
1128.566, 57.14880
1129.048, 55.28984
1129.531, 54.34457
1130.013, 54.56842
1130.495, 54.64946
1130.977, 54.15455
1131.459, 53.57114
1131.941, 53.29073
1132.423, 53.21020
1132.905, 53.19668
1133.387, 53.22091
1133.870, 52.72862
1134.352, 51.74205
1134.834, 50.83567
1135.316, 50.12716
1135.798, 49.80815
1136.280, 49.99624
1136.762, 50.43671
1137.244, 50.92956
1137.727, 51.29582
1138.209, 50.86237
1138.691, 49.81689
1139.173, 48.88745
1139.655, 48.16996
1140.137, 47.75254
1140.619, 47.63554
1141.101, 47.46941
1141.583, 46.96658
1142.066, 46.25875
1142.548, 45.41553
1143.030, 44.58799
1143.512, 44.23126
1143.994, 44.13294
1144.476, 43.56913
1144.958, 42.54091
1145.440, 41.81228
1145.922, 41.78541
1146.405, 41.84916
1146.887, 41.35921
1147.369, 40.72506
1147.851, 40.46257
1148.333, 40.33044
1148.815, 40.04456
1149.297, 39.54249
1149.779, 38.73709
1150.262, 37.63810
1150.744, 36.53626
1151.226, 35.50346
1151.708, 34.68734
1152.190, 34.46181
1152.672, 34.22334
1153.154, 33.21815
1153.636, 32.00243
1154.119, 31.42403
1154.601, 31.47855
1155.083, 31.64768
1155.565, 31.89942
1156.047, 31.85839
1156.529, 31.13574
1157.011, 30.43657
1157.493, 30.18278
1157.975, 29.97475
1158.458, 29.35848
1158.940, 28.57205
1159.422, 28.19715
1159.904, 28.32621
1160.386, 28.21353
1160.868, 27.76958
1161.350, 27.11823
1161.832, 25.99700
1162.314, 25.03139
1162.797, 24.52564
1163.279, 24.25190
1163.761, 23.98283
1164.243, 23.73355
1164.725, 23.57900
1165.207, 23.52330
1165.689, 23.57272
1166.171, 23.82777
1166.654, 23.87998
1167.136, 23.60507
1167.618, 23.16586
1168.100, 22.60423
1168.582, 22.10810
1169.064, 22.06154
1169.546, 22.38053
1170.028, 22.13179
1170.510, 21.28479
1170.993, 21.49496
1171.475, 22.96522
1171.957, 23.39097
1172.439, 21.86946
1172.921, 20.21088
1173.403, 20.09428
1173.885, 20.73873
1174.367, 20.51624
1174.849, 19.76464
1175.332, 19.77101
1175.814, 20.31876
1176.296, 20.35366
1176.778, 19.78699
1177.260, 19.38112
1177.742, 19.50039
1178.224, 19.57518
1178.706, 18.83123
1179.189, 17.99574
1179.671, 18.23510
1180.153, 18.83780
1180.635, 18.75272
1181.117, 18.13621
1181.599, 17.41649
1182.081, 16.77517
1182.563, 16.53332
1183.046, 17.03820
1183.528, 17.30709
1184.010, 16.39683
1184.492, 15.47377
1184.974, 15.54960
1185.456, 15.84021
1185.938, 15.37789
1186.420, 14.45588
1186.902, 13.89045
1187.385, 13.81727
1187.867, 14.04345
1188.349, 15.23686
1188.831, 15.66124
1189.313, 14.21604
1189.795, 12.86776
1190.277, 12.59319
1190.759, 12.85091
1191.241, 13.33827
1191.724, 13.87592
1192.206, 13.67772
1192.688, 12.39017
1193.170, 11.95432
1193.652, 12.80665
1194.134, 13.11186
1194.616, 12.33435
1195.098, 11.54590
1195.581, 11.34669
1196.063, 11.45920
1196.545, 11.54039
1197.027, 11.56631
1197.509, 11.34781
1197.991, 10.91874
1198.473, 10.96052
1198.955, 11.45397
1199.438, 11.53391
1199.920, 10.98970
1200.402, 10.35303
1200.884, 9.963734
1201.366, 9.825893
1201.848, 10.11285
1202.330, 10.54146
1202.812, 10.53357
1203.294, 10.26989
1203.776, 10.12146
1204.259, 10.07407
1204.741, 9.884656
1205.223, 9.528269
1205.705, 9.367876
1206.187, 9.682637
1206.669, 10.05594
1207.151, 10.45244
1207.633, 10.51782
1208.116, 9.660709
1208.598, 8.556395
1209.080, 7.852490
1209.562, 7.610975
1210.044, 7.860381
1210.526, 8.656400
1211.008, 9.229674
1211.490, 8.630741
1211.973, 9.021402
1212.455, 11.94318
1212.937, 14.51620
1213.419, 15.77154
1213.901, 15.82354
1214.383, 14.40787
1214.865, 12.01108
1215.347, 10.25834
1215.829, 9.178021
1216.312, 8.606497
1216.794, 8.634917
1217.276, 8.753630
1217.758, 8.892293
1218.240, 9.002180
1218.722, 9.058745
1219.204, 9.086051
1219.686, 9.104412
1220.168, 9.130146
1220.651, 9.253674
1221.133, 9.417149
1221.615, 9.274632
1222.097, 8.945711
1222.579, 9.155807
1223.061, 9.853026
1223.543, 9.826584
1224.025, 8.510552
1224.508, 7.416336
1224.990, 8.245683
1225.472, 9.462815
1225.954, 9.537494
1226.436, 9.141240
1226.918, 8.875096
1227.400, 8.794301
1227.882, 9.009151
1228.365, 9.398508
1228.847, 9.402076
1229.329, 8.704196
1229.811, 8.301550
1230.293, 8.810058
1230.775, 9.180062
1231.257, 8.961685
1231.739, 8.615613
1232.221, 8.321367
1232.703, 8.160563
1233.186, 8.365688
1233.668, 8.818387
1234.150, 8.638177
1234.632, 7.462204
1235.114, 7.202643
1235.596, 8.152028
1236.078, 8.635401
1236.560, 8.206765
1237.043, 7.695479
1237.525, 7.572409
1238.007, 7.643910
1238.489, 7.654778
1238.971, 7.668593
1239.453, 7.941737
1239.935, 8.350721
1240.417, 8.405458
1240.900, 8.201049
1241.382, 8.227940
1241.864, 8.518889
1242.346, 8.572141
1242.828, 8.123887
1243.310, 7.909194
1243.792, 9.037058
1244.274, 10.01203
1244.756, 9.245213
1245.239, 8.127590
1245.721, 8.059782
1246.203, 8.538310
1246.685, 8.747557
1247.167, 8.592306
1247.649, 8.143934
1248.131, 7.150878
1248.613, 6.744828
1249.095, 7.886723
1249.578, 8.330928
1250.060, 7.022631
1250.542, 6.056136
1251.024, 6.766843
1251.506, 7.863405
1251.988, 7.710600
1252.470, 6.734976
1252.952, 6.692338
1253.435, 7.616486
1253.917, 7.996850
1254.399, 7.835325
1254.881, 7.793289
1255.363, 7.997517
1255.845, 8.477336
1256.327, 9.228299
1256.809, 9.595091
1257.292, 8.793456
1257.774, 7.667387
1258.256, 7.390962
1258.738, 7.513080
1259.220, 7.296977
1259.702, 7.051715
1260.184, 7.590246
1260.666, 8.636065
1261.148, 9.112577
1261.630, 8.725959
1262.113, 8.050817
1262.595, 6.785596
1263.077, 6.030998
1263.559, 6.430251
1264.041, 6.999558
1264.523, 7.372792
1265.005, 7.595726
1265.487, 7.615301
1265.970, 7.592829
1266.452, 7.973761
1266.934, 8.773963
1267.416, 8.879991
1267.898, 8.148780
1268.380, 7.910030
1268.862, 8.331172
1269.344, 8.432307
1269.827, 7.891359
1270.309, 7.242646
1270.791, 6.862451
1271.273, 6.675292
1271.755, 6.580566
1272.237, 6.601070
1272.719, 6.800138
1273.201, 7.134101
1273.683, 7.639234
1274.166, 8.170074
1274.648, 8.383552
1275.130, 8.270645
1275.612, 8.199340
1276.094, 8.372046
1276.576, 8.301149
1277.058, 7.425547
1277.540, 6.780595
1278.022, 7.113682
1278.505, 7.425101
1278.987, 6.751040
1279.469, 5.937408
1279.951, 5.938851
1280.433, 6.649113
1280.915, 7.780467
1281.397, 9.534435
1281.879, 10.01178
1282.362, 9.107464
1282.844, 8.000085
1283.326, 6.868880
1283.808, 6.070120
1284.290, 5.750055
1284.772, 5.903485
1285.254, 6.519335
1285.736, 7.598055
##END=



