##NAMES=Santaclaraite
##RRUFFID=R060346
##IDEAL CHEMISTRY=CaMn^2+^_4_Si_5_O_14_(OH)_2_&#183;H_2_O
##LOCALITY=Pennsylvania mine, Santa Clara County, California, USA
##OWNER=RRUFF
##SOURCE=Michael Scott
##DESCRIPTION=Pink radiating thin prismatic crystals
##STATUS=The identification of this mineral is confirmed by single-crystal X-ray diffraction and chemical analysis.
##URL=rruff.info/R060346
##MEASURED CHEMISTRY=(Ca_0.92_Mn^+2^_0.04_Na_0.04_)_Σ=1_(Mn^2+^_3.92_Mn^3+^_0.04_Mg_0.04_)_Σ=4_Si_5.00_O_14_(OH)_2_·1.21H_2_O; OH by stoichiometry; Mn^3+^ by charge balance; H_2_O by difference
91.53320, 268.9189
92.01532, 272.3322
92.49744, 272.8801
92.97955, 273.1006
93.46167, 271.1518
93.94379, 267.4890
94.42590, 263.7429
94.90802, 260.4773
95.39014, 257.8072
95.87225, 255.9147
96.35437, 253.8963
96.83649, 250.9263
97.31860, 248.0033
97.80072, 246.2117
98.28284, 245.8308
98.76495, 246.4451
99.24707, 247.5038
99.72919, 249.5339
100.2113, 251.5731
100.6934, 253.9698
101.1755, 256.2158
101.6577, 257.3547
102.1398, 256.4525
102.6219, 253.1136
103.1040, 249.7953
103.5861, 246.7900
104.0682, 243.5286
104.5504, 239.5661
105.0325, 234.8922
105.5146, 229.8958
105.9967, 225.1272
106.4788, 220.7251
106.9609, 216.0931
107.4431, 210.3661
107.9252, 204.5618
108.4073, 199.9682
108.8894, 196.9079
109.3715, 195.4768
109.8536, 196.1475
110.3358, 199.3242
110.8179, 202.3293
111.3000, 203.5099
111.7821, 203.0467
112.2642, 202.7008
112.7463, 203.3142
113.2285, 204.2545
113.7106, 204.8849
114.1927, 205.0553
114.6748, 205.0181
115.1569, 205.1711
115.6390, 205.7028
116.1212, 205.9171
116.6033, 205.4666
117.0854, 204.7010
117.5675, 203.9152
118.0496, 203.2289
118.5317, 202.6608
119.0139, 202.2914
119.4960, 201.4459
119.9781, 201.6324
120.4602, 203.4975
120.9423, 206.5734
121.4244, 210.1626
121.9066, 213.8507
122.3887, 217.7390
122.8708, 220.1897
123.3529, 220.9479
123.8350, 220.9161
124.3171, 220.2741
124.7993, 219.1331
125.2814, 217.7574
125.7635, 216.3703
126.2456, 214.9596
126.7277, 213.6397
127.2098, 212.0957
127.6920, 210.7845
128.1741, 210.3028
128.6562, 210.8614
129.1383, 211.8075
129.6204, 212.0322
130.1025, 211.5992
130.5847, 212.0704
131.0668, 214.9155
131.5489, 219.3500
132.0310, 222.5204
132.5131, 223.0977
132.9952, 223.0174
133.4774, 224.0957
133.9595, 226.3584
134.4416, 228.7501
134.9237, 230.1277
135.4058, 230.2639
135.8879, 231.0363
136.3701, 233.3545
136.8522, 236.0728
137.3343, 238.6218
137.8164, 240.8658
138.2985, 242.9166
138.7806, 245.0400
139.2628, 247.5583
139.7449, 249.5044
140.2270, 250.9239
140.7091, 251.7932
141.1912, 251.8620
141.6733, 251.0213
142.1555, 249.6920
142.6376, 249.3407
143.1197, 251.0755
143.6018, 252.6199
144.0839, 253.8385
144.5660, 254.7014
145.0482, 255.1844
145.5303, 255.2583
146.0124, 254.9447
146.4945, 254.4114
146.9766, 253.3995
147.4587, 252.4715
147.9409, 252.4176
148.4230, 252.8966
148.9051, 252.3642
149.3872, 249.5556
149.8693, 244.6316
150.3514, 239.7261
150.8336, 234.6258
151.3157, 229.7077
151.7978, 225.1205
152.2799, 220.7800
152.7620, 217.2367
153.2441, 215.2473
153.7263, 214.3320
154.2084, 213.8618
154.6905, 213.9097
155.1726, 214.2368
155.6547, 214.2855
156.1368, 213.8977
156.6190, 213.5094
157.1011, 213.6452
157.5832, 213.9659
158.0653, 213.7606
158.5474, 212.1626
159.0295, 209.3527
159.5117, 207.8137
159.9938, 209.2977
160.4759, 210.3669
160.9580, 209.6233
161.4401, 207.3897
161.9222, 204.7047
162.4044, 202.4619
162.8865, 200.7145
163.3686, 199.0409
163.8507, 197.0841
164.3328, 195.4762
164.8149, 194.5095
165.2971, 194.1901
165.7792, 194.3608
166.2613, 194.8148
166.7434, 195.4374
167.2255, 196.8442
167.7076, 199.6840
168.1898, 202.7551
168.6719, 205.1747
169.1540, 206.7881
169.6361, 208.0969
170.1182, 209.9499
170.6003, 213.1885
171.0825, 214.5761
171.5646, 213.0336
172.0467, 209.9227
172.5288, 206.6921
173.0109, 203.7354
173.4930, 200.8094
173.9752, 197.3360
174.4573, 193.1789
174.9394, 189.4277
175.4215, 186.2074
175.9036, 183.6051
176.3857, 181.9567
176.8679, 181.6181
177.3500, 181.8776
177.8321, 181.7469
178.3142, 181.1981
178.7963, 180.6422
179.2784, 180.4998
179.7606, 180.6756
180.2427, 180.3794
180.7248, 179.1318
181.2069, 177.5334
181.6890, 176.1784
182.1711, 175.1154
182.6533, 173.9891
183.1354, 172.2874
183.6175, 169.8815
184.0996, 167.9265
184.5817, 167.4426
185.0638, 167.0335
185.5460, 165.5978
186.0281, 162.9435
186.5102, 160.2266
186.9923, 159.3532
187.4744, 161.4370
187.9565, 162.3764
188.4387, 160.4911
188.9208, 158.1369
189.4029, 157.3470
189.8850, 158.6535
190.3671, 160.5942
190.8492, 160.2316
191.3314, 155.3920
191.8135, 151.7085
192.2956, 150.3501
192.7777, 149.7525
193.2598, 148.3157
193.7419, 145.4507
194.2241, 142.0487
194.7062, 140.2662
195.1883, 143.0913
195.6704, 144.0976
196.1525, 141.4852
196.6346, 137.5206
197.1168, 134.9382
197.5989, 134.9554
198.0810, 136.6747
198.5631, 137.5133
199.0452, 136.0739
199.5273, 135.6381
200.0095, 138.0602
200.4916, 141.6443
200.9737, 143.3767
201.4558, 141.6402
201.9379, 137.7966
202.4200, 135.7602
202.9022, 135.9474
203.3843, 136.6879
203.8664, 137.6869
204.3485, 138.8348
204.8306, 139.8711
205.3127, 140.7847
205.7949, 141.3782
206.2770, 141.1725
206.7591, 139.6299
207.2412, 138.4885
207.7233, 139.0907
208.2054, 141.1608
208.6876, 142.9820
209.1697, 143.8156
209.6518, 144.0445
210.1339, 144.2451
210.6160, 144.3566
211.0981, 144.6677
211.5803, 145.7696
212.0624, 147.6664
212.5445, 148.7289
213.0266, 147.4527
213.5087, 145.6247
213.9908, 145.0424
214.4730, 146.1248
214.9551, 147.5865
215.4372, 147.9669
215.9193, 147.0940
216.4014, 146.2229
216.8836, 145.1234
217.3657, 144.5019
217.8478, 145.0280
218.3299, 146.8738
218.8120, 149.3811
219.2941, 151.7696
219.7763, 154.1223
220.2584, 156.0493
220.7405, 157.5765
221.2226, 158.6402
221.7047, 158.9869
222.1868, 158.5825
222.6690, 157.9285
223.1511, 158.0043
223.6332, 159.6743
224.1153, 160.0168
224.5974, 158.1402
225.0795, 155.4716
225.5617, 152.8291
226.0438, 150.5037
226.5259, 148.5344
227.0080, 147.0455
227.4901, 146.4565
227.9722, 145.6055
228.4544, 144.1717
228.9365, 142.6716
229.4186, 141.4709
229.9007, 140.6870
230.3828, 140.2552
230.8649, 140.1038
231.3471, 140.6211
231.8292, 140.7813
232.3113, 140.2302
232.7934, 139.5590
233.2755, 139.2094
233.7576, 139.3153
234.2398, 139.7838
234.7219, 140.4867
235.2040, 141.7659
235.6861, 142.6436
236.1682, 142.6375
236.6503, 142.4971
237.1325, 142.7165
237.6146, 143.4566
238.0967, 144.9588
238.5788, 147.8300
239.0609, 153.5380
239.5430, 156.9635
240.0252, 156.3124
240.5073, 154.0829
240.9894, 152.5219
241.4715, 152.1645
241.9536, 152.6892
242.4357, 153.8837
242.9179, 156.0166
243.4000, 157.5735
243.8821, 157.9559
244.3642, 157.9003
244.8463, 158.1285
245.3284, 158.7798
245.8106, 159.7920
246.2927, 161.2889
246.7748, 163.3103
247.2569, 164.8702
247.7390, 165.1038
248.2211, 165.1152
248.7033, 166.4013
249.1854, 169.2958
249.6675, 172.6065
250.1496, 175.1180
250.6317, 176.9752
251.1138, 179.0006
251.5960, 181.2841
252.0781, 183.8636
252.5602, 187.1256
253.0423, 191.2846
253.5244, 194.9887
254.0065, 196.4239
254.4887, 196.3421
254.9708, 196.7738
255.4529, 198.6749
255.9350, 201.1865
256.4171, 203.3382
256.8992, 205.2263
257.3813, 206.1815
257.8635, 204.6427
258.3456, 201.8984
258.8277, 200.1598
259.3098, 200.9936
259.7919, 202.6194
260.2740, 202.3101
260.7562, 199.6768
261.2383, 196.7867
261.7204, 194.5064
262.2025, 192.7435
262.6846, 191.4958
263.1667, 190.9040
263.6489, 190.6560
264.1310, 190.2445
264.6131, 189.5599
265.0952, 189.1903
265.5773, 189.8018
266.0594, 190.7085
266.5416, 191.2924
267.0237, 191.3849
267.5058, 191.1197
267.9879, 190.5458
268.4700, 189.5446
268.9521, 188.8014
269.4343, 189.0917
269.9164, 189.4538
270.3985, 188.9714
270.8806, 187.3569
271.3627, 185.5680
271.8448, 184.7689
272.3270, 185.0649
272.8091, 185.7851
273.2912, 187.2431
273.7733, 188.7954
274.2554, 190.0497
274.7375, 190.9461
275.2197, 191.6759
275.7018, 192.6648
276.1839, 194.0934
276.6660, 194.5730
277.1481, 192.9249
277.6302, 190.9404
278.1124, 189.4345
278.5945, 188.4777
279.0766, 187.7438
279.5587, 187.1284
280.0408, 186.7358
280.5229, 185.5185
281.0051, 182.6631
281.4872, 179.5798
281.9693, 176.9260
282.4514, 174.6035
282.9335, 172.0843
283.4156, 168.8881
283.8978, 165.0010
284.3799, 161.0786
284.8620, 156.7320
285.3441, 152.7720
285.8262, 149.0989
286.3083, 146.0123
286.7905, 144.1900
287.2726, 144.4828
287.7547, 146.5599
288.2368, 147.1759
288.7189, 144.9734
289.2010, 142.8207
289.6832, 141.6083
290.1653, 140.9358
290.6474, 140.0256
291.1295, 138.3232
291.6116, 136.2497
292.0938, 135.6859
292.5759, 138.5065
293.0580, 140.1364
293.5401, 138.2408
294.0222, 135.3380
294.5043, 134.7210
294.9865, 137.9528
295.4686, 142.9295
295.9507, 144.1540
296.4328, 137.9916
296.9149, 134.5983
297.3970, 137.3853
297.8792, 141.8250
298.3613, 143.7609
298.8434, 142.0102
299.3255, 138.7524
299.8076, 137.7205
300.2897, 140.2380
300.7719, 142.0294
301.2540, 141.9778
301.7361, 141.9089
302.2182, 143.2832
302.7003, 146.1675
303.1824, 149.2904
303.6646, 151.1088
304.1467, 151.2851
304.6288, 151.3154
305.1109, 150.7029
305.5930, 150.3801
306.0751, 150.9636
306.5573, 152.3102
307.0394, 153.7866
307.5215, 154.8114
308.0036, 155.3529
308.4857, 155.9870
308.9678, 156.5513
309.4500, 157.3805
309.9321, 158.4473
310.4142, 159.8686
310.8963, 161.9962
311.3784, 165.2633
311.8605, 169.3619
312.3427, 171.7939
312.8248, 171.0115
313.3069, 170.2559
313.7890, 169.8781
314.2711, 169.9431
314.7532, 170.7160
315.2354, 172.3828
315.7175, 174.3232
316.1996, 174.5905
316.6817, 171.3931
317.1638, 169.3564
317.6459, 169.5649
318.1281, 170.7042
318.6102, 171.8788
319.0923, 172.7311
319.5744, 173.0022
320.0565, 171.9939
320.5386, 168.4934
321.0208, 166.5785
321.5029, 167.7114
321.9850, 169.2400
322.4671, 169.3348
322.9492, 167.9091
323.4313, 166.2980
323.9135, 166.1430
324.3956, 167.9454
324.8777, 168.6349
325.3598, 166.4297
325.8419, 164.7602
326.3240, 165.3684
326.8062, 167.7263
327.2883, 170.1511
327.7704, 171.3817
328.2525, 171.4669
328.7346, 171.3387
329.2167, 170.8904
329.6989, 170.3242
330.1810, 169.6624
330.6631, 168.9245
331.1452, 168.0899
331.6273, 167.1187
332.1094, 166.1383
332.5916, 165.6057
333.0737, 166.0049
333.5558, 166.0131
334.0379, 165.4762
334.5200, 164.4775
335.0021, 162.7595
335.4843, 160.2851
335.9664, 157.9877
336.4485, 157.6434
336.9306, 160.1812
337.4127, 161.8925
337.8948, 161.8981
338.3770, 161.4176
338.8591, 160.8948
339.3412, 160.4999
339.8233, 160.4753
340.3055, 161.3904
340.7876, 163.4438
341.2697, 164.3606
341.7518, 162.7348
342.2339, 161.2978
342.7160, 161.5629
343.1982, 162.8965
343.6803, 163.7010
344.1624, 162.9017
344.6445, 160.7047
345.1266, 157.9939
345.6087, 154.0359
346.0909, 150.8088
346.5730, 149.0753
347.0551, 148.2683
347.5372, 147.9155
348.0193, 148.0005
348.5014, 147.8229
348.9836, 145.7995
349.4657, 141.2332
349.9478, 137.1958
350.4299, 133.8067
350.9120, 131.6666
351.3941, 131.9260
351.8763, 134.7172
352.3584, 137.8132
352.8405, 138.7927
353.3226, 137.5986
353.8047, 136.4676
354.2868, 135.3968
354.7690, 134.7905
355.2511, 135.0318
355.7332, 135.9778
356.2153, 137.0228
356.6974, 137.9163
357.1795, 138.6170
357.6617, 138.9717
358.1438, 138.9938
358.6259, 138.6131
359.1080, 136.9158
359.5901, 134.9583
360.0722, 134.7198
360.5544, 137.9917
361.0365, 142.0224
361.5186, 142.1659
362.0007, 137.7502
362.4828, 134.8099
362.9649, 137.1611
363.4471, 141.5361
363.9292, 144.2615
364.4113, 144.7969
364.8934, 144.4688
365.3755, 144.1494
365.8576, 143.8046
366.3398, 143.0891
366.8219, 141.4115
367.3040, 140.1377
367.7861, 141.2916
368.2682, 144.5885
368.7503, 146.8572
369.2325, 145.7560
369.7146, 143.1464
370.1967, 142.3913
370.6788, 144.0013
371.1609, 146.0990
371.6430, 147.5609
372.1252, 148.3616
372.6073, 148.3991
373.0894, 146.6490
373.5715, 144.9300
374.0536, 145.0564
374.5357, 146.7043
375.0179, 147.8477
375.5000, 147.2424
375.9821, 145.7652
376.4642, 145.6435
376.9463, 147.6718
377.4284, 149.0534
377.9106, 148.4267
378.3927, 146.5514
378.8748, 144.6775
379.3569, 143.1291
379.8390, 141.6829
380.3211, 139.9841
380.8033, 137.9318
381.2854, 136.2843
381.7675, 135.4214
382.2496, 134.7585
382.7317, 134.1098
383.2138, 133.3313
383.6960, 131.7846
384.1781, 128.7463
384.6602, 124.4072
385.1423, 121.4513
385.6244, 120.5533
386.1065, 119.9881
386.5887, 119.2207
387.0708, 118.4059
387.5529, 117.9734
388.0350, 118.1392
388.5171, 118.4451
388.9992, 117.8577
389.4814, 115.2431
389.9635, 113.4732
390.4456, 113.0366
390.9277, 113.1043
391.4098, 113.1801
391.8919, 113.1032
392.3741, 112.7018
392.8562, 111.6159
393.3383, 109.5353
393.8204, 109.1989
394.3025, 113.6557
394.7846, 116.5879
395.2668, 114.3306
395.7489, 109.1253
396.2310, 105.3162
396.7131, 105.5054
397.1952, 108.6044
397.6773, 110.9072
398.1595, 112.5031
398.6416, 113.0334
399.1237, 111.1557
399.6058, 109.1180
400.0879, 109.1150
400.5700, 111.5352
401.0522, 114.6825
401.5343, 116.4425
402.0164, 116.5125
402.4985, 116.9492
402.9806, 118.4142
403.4627, 119.6888
403.9449, 120.0144
404.4270, 119.7019
404.9091, 119.5751
405.3912, 120.0831
405.8733, 121.1771
406.3554, 122.8831
406.8376, 125.6875
407.3197, 127.9072
407.8018, 128.4855
408.2839, 128.3303
408.7660, 128.1858
409.2481, 128.1608
409.7303, 128.5162
410.2124, 129.6953
410.6945, 131.6388
411.1766, 133.4060
411.6587, 134.5993
412.1408, 135.8392
412.6230, 137.9616
413.1051, 140.8013
413.5872, 143.0803
414.0693, 144.1907
414.5514, 144.4407
415.0335, 144.0812
415.5157, 143.0559
415.9978, 142.1635
416.4799, 141.7126
416.9620, 141.8717
417.4441, 142.9586
417.9262, 145.5645
418.4084, 148.3329
418.8905, 150.6348
419.3726, 152.5057
419.8547, 153.9526
420.3368, 154.9173
420.8189, 155.6656
421.3011, 156.6379
421.7832, 157.9252
422.2653, 159.0361
422.7474, 160.1997
423.2295, 160.9766
423.7116, 160.9127
424.1938, 160.0278
424.6759, 158.7629
425.1580, 157.4898
425.6401, 156.1725
426.1222, 154.0573
426.6043, 150.9264
427.0865, 147.3898
427.5686, 142.7300
428.0507, 138.0110
428.5328, 134.9260
429.0149, 134.0829
429.4970, 134.2534
429.9792, 133.2859
430.4613, 130.7486
430.9434, 127.9183
431.4255, 124.3738
431.9076, 120.9477
432.3897, 117.8795
432.8719, 115.3150
433.3540, 113.5132
433.8361, 112.8069
434.3182, 113.0226
434.8003, 112.9268
435.2824, 112.6912
435.7646, 111.8164
436.2467, 109.3038
436.7288, 106.5901
437.2109, 105.4076
437.6930, 106.3113
438.1751, 107.9056
438.6573, 108.4004
439.1394, 107.7021
439.6215, 107.2182
440.1036, 107.4202
440.5857, 107.5493
441.0678, 107.0344
441.5500, 106.0116
442.0321, 105.0208
442.5142, 104.1467
442.9963, 103.5465
443.4784, 103.5875
443.9605, 104.3325
444.4427, 105.2813
444.9248, 106.6439
445.4069, 107.7960
445.8890, 107.5697
446.3711, 105.3811
446.8532, 103.3168
447.3354, 102.7705
447.8175, 103.1538
448.2996, 103.0794
448.7817, 102.1627
449.2638, 101.2790
449.7459, 101.5413
450.2281, 103.0396
450.7102, 103.8527
451.1923, 103.5143
451.6744, 102.8247
452.1565, 102.2006
452.6386, 101.6384
453.1208, 101.0353
453.6029, 100.3315
454.0850, 99.56299
454.5671, 98.82778
455.0492, 97.92083
455.5313, 97.34980
456.0135, 97.14216
456.4956, 97.25549
456.9777, 97.88465
457.4598, 98.90746
457.9419, 99.73080
458.4240, 99.72241
458.9062, 98.86539
459.3883, 98.40040
459.8704, 98.23559
460.3525, 98.62901
460.8346, 100.0481
461.3167, 101.9033
461.7989, 103.7278
462.2810, 105.3699
462.7631, 106.1862
463.2452, 104.7123
463.7273, 100.3794
464.2094, 97.14687
464.6916, 96.11965
465.1737, 95.79884
465.6558, 95.45956
466.1379, 95.08391
466.6200, 94.76194
467.1021, 94.36018
467.5843, 94.12584
468.0664, 94.83900
468.5485, 96.71065
469.0306, 97.98727
469.5127, 97.52739
469.9948, 96.19256
470.4770, 95.41873
470.9591, 95.42724
471.4412, 95.33911
471.9233, 94.02586
472.4054, 92.48503
472.8875, 92.99409
473.3697, 96.07540
473.8518, 99.31863
474.3339, 100.5822
474.8160, 99.80429
475.2981, 98.84645
475.7802, 96.49140
476.2624, 95.23219
476.7445, 97.26627
477.2266, 101.0187
477.7087, 103.2436
478.1908, 102.6428
478.6729, 100.9478
479.1551, 101.4558
479.6372, 106.2242
480.1193, 108.2810
480.6014, 105.3489
481.0835, 102.1331
481.5656, 101.1609
482.0478, 102.1956
482.5299, 103.8521
483.0120, 105.2456
483.4941, 106.5155
483.9762, 108.4324
484.4583, 112.4707
484.9405, 114.0366
485.4226, 109.8432
485.9047, 104.6701
486.3868, 102.3795
486.8689, 103.3726
487.3510, 105.1621
487.8332, 105.8924
488.3153, 105.6914
488.7974, 105.0449
489.2795, 103.6580
489.7616, 102.5981
490.2437, 102.8035
490.7259, 103.6965
491.2080, 104.4973
491.6901, 105.1967
492.1722, 105.5206
492.6543, 105.0732
493.1364, 104.0793
493.6186, 103.1589
494.1007, 102.4442
494.5828, 101.9064
495.0649, 101.4448
495.5470, 101.0441
496.0291, 101.2118
496.5113, 103.1912
496.9934, 104.6036
497.4755, 103.2839
497.9576, 100.2875
498.4397, 98.44112
498.9218, 99.17471
499.4040, 101.1613
499.8861, 101.3601
500.3682, 98.11107
500.8503, 96.11633
501.3324, 95.71603
501.8145, 96.11050
502.2967, 97.40117
502.7788, 99.10970
503.2609, 100.0617
503.7430, 99.26816
504.2251, 97.29929
504.7072, 96.45255
505.1894, 97.25399
505.6715, 97.97230
506.1536, 97.94096
506.6357, 97.80289
507.1178, 98.17140
507.5999, 99.08818
508.0821, 99.87885
508.5642, 100.4546
509.0463, 100.5159
509.5284, 98.64945
510.0105, 94.19254
510.4926, 90.45426
510.9748, 90.13940
511.4569, 91.85705
511.9390, 92.09206
512.4211, 89.38582
512.9032, 87.54477
513.3853, 89.71360
513.8674, 93.65170
514.3495, 95.16737
514.8317, 93.34153
515.3138, 90.73766
515.7959, 90.01282
516.2780, 91.34519
516.7601, 91.85649
517.2422, 90.89689
517.7244, 89.98657
518.2065, 89.99155
518.6886, 90.24769
519.1707, 89.46580
519.6528, 87.26888
520.1349, 84.95753
520.6171, 84.68497
521.0992, 87.06040
521.5813, 88.99272
522.0634, 90.34034
522.5455, 91.34700
523.0276, 92.13484
523.5098, 92.63491
523.9919, 92.62692
524.4740, 91.89156
524.9561, 90.96361
525.4382, 90.65806
525.9203, 90.98785
526.4025, 91.23120
526.8846, 90.86724
527.3667, 90.85590
527.8488, 92.69895
528.3309, 96.00190
528.8130, 98.13377
529.2952, 97.10194
529.7773, 95.50866
530.2594, 95.93398
530.7415, 98.02513
531.2236, 100.0737
531.7057, 101.4420
532.1879, 102.0251
532.6700, 101.5379
533.1521, 99.34538
533.6342, 97.47060
534.1163, 95.93224
534.5984, 94.74184
535.0806, 93.92820
535.5627, 93.47271
536.0448, 93.48927
536.5269, 94.13950
537.0090, 94.93114
537.4911, 94.16259
537.9733, 90.59224
538.4554, 88.19535
538.9375, 88.53726
539.4196, 89.22427
539.9017, 88.78665
540.3839, 87.28575
540.8660, 85.62156
541.3481, 84.13823
541.8302, 83.00771
542.3123, 82.84261
542.7944, 83.78605
543.2766, 84.43156
543.7587, 84.13095
544.2408, 83.31683
544.7229, 82.66240
545.2050, 82.20206
545.6871, 81.59966
546.1693, 80.08796
546.6514, 78.78432
547.1335, 79.37682
547.6156, 81.63326
548.0977, 83.43935
548.5798, 83.40696
549.0620, 82.15852
549.5441, 81.79678
550.0262, 83.80767
550.5083, 84.71497
550.9904, 84.27819
551.4725, 82.90148
551.9547, 80.05850
552.4368, 76.40039
552.9189, 73.89542
553.4010, 74.22311
553.8831, 76.61777
554.3652, 77.96267
554.8474, 77.81237
555.3295, 77.72314
555.8116, 78.27084
556.2937, 78.89501
556.7758, 79.47337
557.2579, 79.89080
557.7401, 79.42165
558.2222, 76.54924
558.7043, 72.94707
559.1864, 72.01644
559.6685, 73.86154
560.1506, 75.00610
560.6328, 73.40490
561.1149, 70.41819
561.5970, 69.05252
562.0791, 69.64644
562.5612, 70.38374
563.0433, 70.75369
563.5255, 71.26683
564.0076, 72.77965
564.4897, 74.95501
564.9718, 76.43642
565.4539, 76.33226
565.9360, 74.98442
566.4182, 73.49691
566.9003, 71.58300
567.3824, 70.06588
567.8645, 68.77409
568.3466, 68.02741
568.8287, 68.57865
569.3109, 69.96336
569.7930, 70.52351
570.2751, 68.60268
570.7572, 65.87096
571.2393, 66.65838
571.7214, 71.41408
572.2036, 73.98785
572.6857, 70.86532
573.1678, 66.43686
573.6499, 66.51136
574.1320, 70.94337
574.6141, 73.91441
575.0963, 72.38054
575.5784, 69.90189
576.0605, 69.67693
576.5426, 71.23073
577.0247, 72.48417
577.5068, 72.46253
577.9890, 71.86301
578.4711, 72.03902
578.9532, 73.57230
579.4353, 74.38897
579.9174, 73.89076
580.3995, 73.36900
580.8817, 73.62111
581.3638, 74.28236
581.8459, 74.53979
582.3280, 73.98286
582.8101, 73.08585
583.2922, 72.54098
583.7744, 72.35046
584.2565, 72.53416
584.7386, 73.26289
585.2207, 74.14134
585.7029, 75.14616
586.1850, 76.08572
586.6671, 76.38831
587.1492, 75.44212
587.6313, 74.46427
588.1135, 74.40655
588.5956, 74.98318
589.0777, 75.52122
589.5598, 75.84756
590.0419, 76.19195
590.5240, 76.77220
591.0062, 77.58415
591.4883, 78.68406
591.9704, 80.77548
592.4525, 82.27412
592.9346, 82.56596
593.4167, 82.17216
593.8989, 81.43095
594.3810, 80.55556
594.8631, 80.08598
595.3452, 80.78074
595.8273, 82.50754
596.3094, 83.75974
596.7916, 84.52303
597.2737, 84.85815
597.7558, 84.79823
598.2379, 84.30032
598.7200, 82.90356
599.2021, 80.36546
599.6843, 78.82332
600.1664, 80.30167
600.6485, 82.96079
601.1306, 84.10910
601.6127, 83.66631
602.0948, 83.17867
602.5770, 83.69569
603.0591, 84.47628
603.5412, 83.37980
604.0233, 77.33040
604.5054, 74.55813
604.9875, 77.74339
605.4697, 81.79122
605.9518, 83.36733
606.4339, 83.03111
606.9160, 83.16215
607.3981, 85.21307
607.8802, 87.86263
608.3624, 88.12881
608.8445, 85.58265
609.3266, 84.13815
609.8087, 85.22207
610.2908, 86.48067
610.7729, 85.89750
611.2551, 84.07339
611.7372, 82.77233
612.2193, 82.29443
612.7014, 82.65047
613.1835, 84.60406
613.6656, 87.28842
614.1478, 88.62988
614.6299, 88.12056
615.1120, 87.09447
615.5941, 86.88557
616.0762, 87.49802
616.5583, 87.92087
617.0405, 87.88041
617.5226, 87.99495
618.0047, 88.29266
618.4868, 88.83665
618.9689, 89.90416
619.4510, 91.39799
619.9332, 92.60864
620.4153, 92.75256
620.8974, 92.17941
621.3795, 92.16837
621.8616, 92.80521
622.3438, 93.52580
622.8259, 93.91975
623.3080, 94.49354
623.7901, 96.13161
624.2722, 98.92204
624.7543, 101.0907
625.2365, 101.9149
625.7186, 102.1577
626.2007, 102.1654
626.6828, 102.1091
627.1649, 102.2799
627.6470, 102.7971
628.1292, 103.7290
628.6113, 105.3139
629.0934, 107.9018
629.5755, 109.6797
630.0576, 109.6598
630.5397, 109.8589
631.0219, 110.7928
631.5040, 112.3267
631.9861, 114.3649
632.4682, 116.8977
632.9503, 119.4268
633.4324, 121.4248
633.9146, 123.0569
634.3967, 124.5933
634.8788, 125.9460
635.3609, 128.1919
635.8430, 132.0438
636.3251, 137.1968
636.8073, 142.7819
637.2894, 148.9496
637.7715, 155.1477
638.2536, 161.3058
638.7357, 167.4778
639.2178, 173.7718
639.7000, 180.1180
640.1821, 186.1599
640.6642, 191.6682
641.1463, 197.3523
641.6284, 204.9441
642.1105, 214.8324
642.5927, 224.4507
643.0748, 233.9834
643.5569, 242.5982
644.0390, 249.0207
644.5211, 254.4673
645.0032, 261.4834
645.4854, 271.1505
645.9675, 281.3388
646.4496, 290.5410
646.9317, 299.3664
647.4138, 309.0939
647.8959, 319.8681
648.3781, 330.4598
648.8602, 339.6950
649.3423, 348.1890
649.8244, 358.4662
650.3065, 371.6777
650.7886, 385.1044
651.2708, 399.3217
651.7529, 413.1968
652.2350, 426.2749
652.7171, 438.3218
653.1992, 449.0907
653.6813, 458.6780
654.1635, 466.4900
654.6456, 471.6436
655.1277, 474.1772
655.6098, 474.7367
656.0919, 473.6954
656.5740, 469.9590
657.0562, 462.2525
657.5383, 450.7031
658.0204, 437.8956
658.5025, 423.7412
658.9846, 408.4983
659.4667, 392.1254
659.9489, 374.9025
660.4310, 356.6781
660.9131, 337.7980
661.3952, 319.2944
661.8773, 301.6266
662.3594, 285.0562
662.8416, 270.1720
663.3237, 256.8490
663.8058, 245.5441
664.2879, 237.3474
664.7700, 230.1614
665.2521, 222.5015
665.7343, 214.5482
666.2164, 206.9828
666.6985, 200.0650
667.1806, 193.4405
667.6627, 186.8974
668.1448, 180.4510
668.6270, 173.8067
669.1091, 167.0411
669.5912, 161.3660
670.0733, 158.1449
670.5554, 156.8852
671.0375, 153.8130
671.5197, 147.0153
672.0018, 141.5786
672.4839, 138.9239
672.9660, 136.9444
673.4481, 134.3127
673.9302, 131.0851
674.4124, 127.8915
674.8945, 125.1022
675.3766, 122.4512
675.8587, 119.5960
676.3408, 116.5820
676.8229, 113.4631
677.3051, 110.1363
677.7872, 107.4391
678.2693, 106.3654
678.7514, 106.7049
679.2335, 106.0087
679.7156, 103.6052
680.1978, 101.1741
680.6799, 98.61195
681.1620, 96.35637
681.6441, 94.67359
682.1262, 93.63376
682.6083, 93.45663
683.0905, 94.52396
683.5726, 95.94096
684.0547, 95.97173
684.5368, 94.61855
685.0189, 92.82999
685.5010, 90.53867
685.9832, 88.41801
686.4653, 87.09994
686.9474, 86.46959
687.4295, 85.85962
687.9116, 84.55198
688.3937, 84.22810
688.8759, 86.66285
689.3580, 89.46069
689.8401, 89.74901
690.3222, 87.80866
690.8043, 86.24537
691.2864, 86.84802
691.7686, 88.57487
692.2507, 88.84114
692.7328, 87.40796
693.2149, 85.96877
693.6970, 84.39207
694.1791, 83.37020
694.6613, 83.95238
695.1434, 85.37370
695.6255, 85.86385
696.1076, 84.70911
696.5897, 83.52031
697.0718, 83.12217
697.5540, 83.03421
698.0361, 82.38748
698.5182, 81.36501
699.0003, 81.34367
699.4824, 83.29573
699.9645, 86.06458
700.4467, 86.54009
700.9288, 83.76789
701.4109, 82.30697
701.8930, 83.61588
702.3751, 84.79434
702.8572, 83.93755
703.3394, 82.15685
703.8215, 81.55322
704.3036, 82.96777
704.7857, 83.86021
705.2678, 81.81406
705.7499, 78.89571
706.2321, 78.27390
706.7142, 79.74185
707.1963, 80.76540
707.6784, 79.97157
708.1605, 78.34339
708.6426, 77.98100
709.1248, 79.59394
709.6069, 79.90034
710.0890, 76.99751
710.5711, 75.04160
711.0532, 76.28357
711.5353, 78.87969
712.0175, 80.39764
712.4996, 80.33588
712.9817, 79.99129
713.4638, 80.47910
713.9459, 80.98209
714.4280, 79.90833
714.9102, 77.61837
715.3923, 76.29428
715.8744, 76.95152
716.3565, 78.17361
716.8386, 77.78249
717.3207, 75.45615
717.8029, 73.87015
718.2850, 73.40284
718.7671, 73.26147
719.2492, 73.86942
719.7313, 74.33615
720.2134, 73.46346
720.6956, 71.28326
721.1777, 69.46728
721.6598, 69.23329
722.1419, 69.73939
722.6240, 70.29435
723.1061, 70.70759
723.5883, 69.83805
724.0704, 67.24110
724.5525, 65.00855
725.0346, 65.54050
725.5167, 68.73875
725.9988, 70.82967
726.4810, 71.06629
726.9631, 71.24210
727.4452, 71.59644
727.9273, 71.95879
728.4094, 72.55788
728.8915, 73.09761
729.3737, 72.44598
729.8558, 69.13192
730.3379, 66.04511
730.8200, 66.91303
731.3021, 70.41756
731.7842, 73.28621
732.2664, 74.91106
732.7485, 74.70428
733.2306, 71.72908
733.7127, 67.12283
734.1948, 65.52987
734.6769, 69.56373
735.1591, 71.85641
735.6412, 70.95739
736.1233, 69.67475
736.6054, 69.33426
737.0875, 69.65584
737.5696, 69.92239
738.0518, 69.87160
738.5339, 69.97939
739.0160, 70.81583
739.4981, 71.99658
739.9802, 72.85658
740.4623, 73.35403
740.9445, 73.61227
741.4266, 73.67441
741.9087, 73.60284
742.3908, 73.48720
742.8729, 73.27409
743.3550, 73.25126
743.8372, 73.89423
744.3193, 74.14548
744.8014, 73.34142
745.2835, 72.22681
745.7656, 71.79671
746.2477, 72.12226
746.7299, 72.03172
747.2120, 69.83488
747.6941, 67.66915
748.1762, 68.58066
748.6583, 71.64952
749.1404, 74.09451
749.6226, 75.10847
750.1047, 74.98282
750.5868, 73.79487
751.0689, 71.72885
751.5510, 70.84176
752.0331, 71.96151
752.5153, 72.67345
752.9974, 72.76413
753.4795, 72.17693
753.9616, 69.98373
754.4437, 67.01998
754.9258, 66.02499
755.4080, 69.19761
755.8901, 71.84362
756.3722, 69.51062
756.8543, 65.24168
757.3364, 63.75711
757.8185, 65.23925
758.3007, 67.12594
758.7828, 67.89198
759.2649, 68.03631
759.7470, 68.81182
760.2291, 70.62344
760.7112, 71.01797
761.1934, 68.88013
761.6755, 66.97462
762.1576, 66.83292
762.6397, 67.54629
763.1218, 68.13488
763.6039, 68.55225
764.0861, 68.54114
764.5682, 67.49893
765.0503, 66.46954
765.5324, 66.60206
766.0145, 67.28354
766.4966, 67.12411
766.9788, 65.80283
767.4609, 64.32338
767.9430, 63.67952
768.4251, 63.75619
768.9072, 64.08403
769.3893, 64.77862
769.8715, 65.05350
770.3536, 64.36427
770.8357, 63.70295
771.3178, 64.32974
771.7999, 65.89159
772.2820, 66.53648
772.7642, 65.16279
773.2463, 64.21147
773.7284, 64.80642
774.2105, 65.73645
774.6926, 65.80169
775.1747, 65.21358
775.6569, 64.95346
776.1390, 65.53458
776.6211, 66.40040
777.1032, 66.65117
777.5853, 66.46350
778.0674, 67.16719
778.5496, 69.05549
779.0317, 69.89698
779.5138, 68.14180
779.9959, 65.41461
780.4780, 64.62010
780.9601, 66.31316
781.4423, 67.77016
781.9244, 69.64421
782.4065, 70.51088
782.8886, 68.81712
783.3707, 66.56124
783.8528, 66.06953
784.3350, 67.44817
784.8171, 68.90028
785.2992, 69.64246
785.7813, 69.54783
786.2634, 67.63168
786.7455, 64.72078
787.2277, 63.84675
787.7098, 65.58080
788.1919, 67.63832
788.6740, 68.25008
789.1561, 67.75408
789.6382, 67.36947
790.1204, 67.19360
790.6025, 66.88697
791.0846, 65.79208
791.5667, 65.29191
792.0488, 66.71343
792.5309, 68.83298
793.0131, 69.75204
793.4952, 69.08800
793.9773, 67.74441
794.4594, 65.03977
794.9415, 62.76843
795.4236, 62.99960
795.9058, 64.98085
796.3879, 67.05032
796.8700, 68.61054
797.3521, 69.46342
797.8342, 69.20448
798.3163, 68.14820
798.7985, 68.11391
799.2806, 69.38339
799.7627, 69.95649
800.2448, 68.97497
800.7269, 67.85748
801.2090, 67.96580
801.6912, 69.03605
802.1733, 69.54954
802.6554, 68.95724
803.1375, 68.67532
803.6196, 69.32358
804.1017, 70.04302
804.5839, 70.17137
805.0660, 69.88404
805.5481, 69.52803
806.0302, 69.22759
806.5123, 69.36476
806.9944, 70.79455
807.4766, 72.81606
807.9587, 73.67262
808.4408, 73.38162
808.9229, 72.84763
809.4050, 72.40011
809.8871, 71.80303
810.3693, 70.66363
810.8514, 68.99577
811.3335, 68.14309
811.8156, 68.85764
812.2977, 69.12658
812.7798, 67.57710
813.2620, 66.47213
813.7441, 68.15977
814.2262, 71.49676
814.7083, 72.98424
815.1904, 70.86389
815.6725, 68.87108
816.1547, 69.64610
816.6368, 71.27305
817.1189, 71.48533
817.6010, 70.50011
818.0831, 69.60191
818.5652, 69.34339
819.0474, 69.41770
819.5295, 69.60460
820.0116, 69.82080
820.4937, 68.86363
820.9758, 66.25424
821.4579, 65.62784
821.9401, 69.18767
822.4222, 73.29958
822.9043, 73.89195
823.3864, 71.10844
823.8685, 69.27913
824.3506, 68.79932
824.8328, 68.67956
825.3149, 69.47374
825.7970, 69.95950
826.2791, 68.48721
826.7612, 66.10841
827.2433, 65.61079
827.7255, 68.25334
828.2076, 70.88855
828.6897, 70.44922
829.1718, 68.47604
829.6539, 67.22291
830.1360, 66.82748
830.6182, 67.44527
831.1003, 69.14831
831.5824, 70.64517
832.0645, 70.17075
832.5466, 67.97982
833.0287, 67.44938
833.5109, 69.32339
833.9930, 70.62502
834.4751, 70.60156
834.9572, 70.00034
835.4393, 69.13787
835.9214, 68.17489
836.4036, 67.55757
836.8857, 67.09619
837.3678, 67.43919
837.8499, 69.60617
838.3320, 71.83015
838.8141, 72.93484
839.2963, 73.10337
839.7784, 72.75239
840.2605, 72.04494
840.7426, 71.26381
841.2247, 70.62481
841.7068, 70.09897
842.1890, 69.57170
842.6711, 69.08430
843.1532, 69.08823
843.6353, 69.73064
844.1174, 69.82710
844.5995, 68.08795
845.0817, 65.20182
845.5638, 64.53049
846.0459, 67.25513
846.5280, 68.85232
847.0101, 68.06383
847.4922, 67.31757
847.9744, 68.24352
848.4565, 69.82867
848.9386, 70.46904
849.4207, 69.90923
849.9028, 69.38366
850.3849, 69.19594
850.8671, 69.16371
851.3492, 69.10929
851.8313, 69.18079
852.3134, 69.95031
852.7955, 71.21285
853.2776, 71.57465
853.7598, 69.77674
854.2419, 67.30396
854.7240, 66.49833
855.2061, 66.98416
855.6882, 67.27864
856.1703, 67.19704
856.6525, 67.18467
857.1346, 67.48436
857.6167, 68.02065
858.0988, 68.70234
858.5809, 69.61223
859.0630, 70.14857
859.5452, 70.54736
860.0273, 70.13114
860.5094, 67.05309
860.9915, 64.38837
861.4736, 65.69164
861.9557, 70.20195
862.4379, 73.12188
862.9200, 73.01942
863.4021, 72.03432
863.8842, 69.85485
864.3663, 67.97215
864.8484, 67.97662
865.3306, 69.34598
865.8127, 70.69154
866.2948, 71.47630
866.7769, 71.85111
867.2590, 71.96505
867.7411, 71.76196
868.2233, 70.79550
868.7054, 69.29740
869.1875, 68.73837
869.6696, 69.55136
870.1517, 70.36375
870.6339, 69.78696
871.1160, 68.24567
871.5981, 67.66988
872.0802, 68.24072
872.5623, 69.21577
873.0444, 71.12315
873.5266, 72.41178
874.0087, 71.56164
874.4908, 69.82217
874.9729, 69.65567
875.4550, 71.44846
875.9371, 72.60062
876.4193, 71.92632
876.9014, 71.54915
877.3835, 73.29587
877.8656, 75.15240
878.3477, 74.44594
878.8298, 71.55862
879.3120, 69.28966
879.7941, 69.08974
880.2762, 69.82104
880.7583, 71.09635
881.2404, 72.23270
881.7225, 71.44255
882.2047, 69.16019
882.6868, 68.04315
883.1689, 69.23603
883.6510, 71.12521
884.1331, 71.65254
884.6152, 71.01505
885.0974, 70.66386
885.5795, 70.61791
886.0616, 70.78911
886.5437, 71.30898
887.0258, 71.65572
887.5079, 71.33028
887.9901, 70.50437
888.4722, 69.84291
888.9543, 69.09738
889.4364, 69.00597
889.9185, 69.92979
890.4006, 71.07108
890.8828, 72.48928
891.3649, 73.73863
891.8470, 74.33659
892.3291, 74.22690
892.8112, 73.60856
893.2933, 71.56599
893.7755, 70.16734
894.2576, 71.38888
894.7397, 73.56723
895.2218, 74.93128
895.7039, 75.20914
896.1860, 74.33095
896.6682, 72.20212
897.1503, 70.14626
897.6324, 70.03419
898.1145, 71.22399
898.5966, 71.93837
899.0787, 72.13234
899.5609, 71.83810
900.0430, 71.03384
900.5251, 70.10191
901.0072, 69.29212
901.4893, 68.77995
901.9714, 69.77702
902.4536, 73.27718
902.9357, 74.42335
903.4178, 71.24669
903.8999, 68.46609
904.3820, 68.94070
904.8641, 71.12568
905.3463, 72.56847
905.8284, 73.30077
906.3105, 73.11764
906.7926, 70.97713
907.2747, 69.23332
907.7568, 68.89437
908.2390, 69.01113
908.7211, 68.67811
909.2032, 68.03358
909.6853, 67.76649
910.1674, 68.17491
910.6495, 68.77135
911.1317, 69.69827
911.6138, 70.28772
912.0959, 68.95921
912.5780, 66.82346
913.0601, 66.91727
913.5422, 69.79011
914.0244, 72.57921
914.5065, 72.64351
914.9886, 71.32030
915.4707, 71.35043
915.9528, 72.58889
916.4349, 74.44012
916.9171, 76.83422
917.3992, 78.45728
917.8813, 78.57481
918.3634, 77.55421
918.8455, 75.72395
919.3276, 72.92965
919.8098, 72.15685
920.2919, 73.97009
920.7740, 76.46539
921.2561, 80.14817
921.7382, 83.16436
922.2203, 83.44884
922.7025, 81.78449
923.1846, 81.29021
923.6667, 82.37664
924.1488, 83.72342
924.6309, 86.02052
925.1130, 87.63165
925.5952, 86.89016
926.0773, 85.61145
926.5594, 86.30952
927.0415, 88.97409
927.5236, 91.10452
928.0057, 91.33460
928.4879, 91.20461
928.9700, 91.60069
929.4521, 92.26839
929.9342, 93.21312
930.4163, 94.12661
930.8984, 94.06591
931.3806, 92.74472
931.8627, 91.68295
932.3448, 92.66090
932.8269, 94.80730
933.3090, 96.46479
933.7911, 97.68903
934.2733, 98.68469
934.7554, 99.49290
935.2375, 99.98428
935.7196, 100.0123
936.2017, 99.95877
936.6838, 100.7800
937.1660, 102.5520
937.6481, 103.6781
938.1302, 104.1102
938.6123, 103.9440
939.0944, 102.7832
939.5765, 101.9491
940.0587, 102.9583
940.5408, 105.5199
941.0229, 107.4828
941.5050, 108.8840
941.9871, 109.6162
942.4692, 108.4960
942.9514, 108.0492
943.4335, 110.3473
943.9156, 113.2717
944.3977, 113.8059
944.8798, 111.8297
945.3619, 110.5588
945.8441, 110.8408
946.3262, 111.7042
946.8083, 113.5238
947.2904, 115.1610
947.7725, 114.9786
948.2546, 114.0019
948.7368, 115.0106
949.2189, 118.9065
949.7010, 122.0690
950.1831, 121.2995
950.6652, 119.4355
951.1473, 118.8461
951.6295, 119.4669
952.1116, 121.4829
952.5937, 124.5594
953.0758, 127.3597
953.5579, 129.1163
954.0400, 130.4286
954.5222, 132.0273
955.0043, 133.8557
955.4864, 135.8991
955.9685, 138.0717
956.4506, 140.0309
956.9327, 141.6692
957.4149, 142.3955
957.8970, 141.5575
958.3791, 139.6868
958.8612, 138.4270
959.3433, 137.8384
959.8254, 137.0381
960.3076, 135.9321
960.7897, 134.8222
961.2718, 133.9733
961.7539, 132.8723
962.2360, 130.6922
962.7181, 127.5136
963.2003, 125.4012
963.6824, 124.7950
964.1645, 124.3624
964.6466, 124.1198
965.1287, 123.8563
965.6108, 123.4659
966.0930, 122.9844
966.5751, 122.2530
967.0572, 121.1556
967.5393, 121.1065
968.0214, 123.2563
968.5035, 125.1300
968.9857, 125.8061
969.4678, 126.1917
969.9499, 126.9949
970.4320, 128.0760
970.9141, 128.9924
971.3962, 129.6132
971.8784, 130.2809
972.3605, 131.3210
972.8426, 132.2679
973.3247, 133.2104
973.8068, 133.6125
974.2889, 132.5682
974.7711, 130.2998
975.2532, 127.9215
975.7353, 125.9459
976.2174, 123.9807
976.6995, 121.2648
977.1816, 118.6267
977.6638, 117.6554
978.1459, 117.6625
978.6280, 116.5474
979.1101, 114.0883
979.5922, 112.3993
980.0743, 113.2245
980.5565, 114.4237
981.0386, 111.8640
981.5207, 106.7817
982.0028, 103.3231
982.4849, 101.7435
982.9670, 102.1605
983.4492, 104.6334
983.9313, 107.2733
984.4134, 108.2425
984.8955, 108.0887
985.3776, 108.4689
985.8597, 109.3834
986.3419, 110.9005
986.8240, 113.1077
987.3061, 115.5160
987.7882, 118.0731
988.2703, 120.2444
988.7524, 121.2218
989.2346, 121.1993
989.7167, 122.1757
990.1988, 124.3589
990.6809, 127.0315
991.1630, 130.7673
991.6451, 133.7484
992.1273, 134.6588
992.6094, 134.6486
993.0915, 135.2460
993.5736, 136.4207
994.0557, 138.6414
994.5378, 142.2421
995.0200, 146.3986
995.5021, 151.4786
995.9842, 156.6100
996.4663, 161.8538
996.9484, 166.6394
997.4305, 169.7332
997.9127, 170.8507
998.3948, 172.8082
998.8769, 177.1829
999.3590, 180.9761
999.8411, 182.3127
1000.323, 183.6223
1000.805, 187.4383
1001.287, 192.5025
1001.770, 195.8859
1002.252, 196.8876
1002.734, 197.6431
1003.216, 199.3509
1003.698, 200.6885
1004.180, 201.1314
1004.662, 200.6079
1005.144, 198.1764
1005.627, 194.8362
1006.109, 193.3431
1006.591, 194.7370
1007.073, 196.2112
1007.555, 195.6458
1008.037, 194.4265
1008.519, 193.7415
1009.001, 193.3904
1009.483, 192.6549
1009.966, 191.8398
1010.448, 192.3891
1010.930, 195.0244
1011.412, 198.1993
1011.894, 200.1173
1012.376, 201.7359
1012.858, 204.7873
1013.340, 208.7522
1013.823, 212.4463
1014.305, 215.5713
1014.787, 218.0616
1015.269, 219.8554
1015.751, 221.1363
1016.233, 222.4721
1016.715, 221.9941
1017.197, 221.1011
1017.679, 219.5643
1018.162, 216.5747
1018.644, 213.6217
1019.126, 209.3994
1019.608, 202.9638
1020.090, 195.5451
1020.572, 188.9018
1021.054, 183.1323
1021.536, 179.1253
1022.018, 176.8044
1022.501, 173.6497
1022.983, 169.0121
1023.465, 163.4267
1023.947, 157.1003
1024.429, 150.7210
1024.911, 145.8358
1025.393, 142.4706
1025.875, 139.1655
1026.358, 136.0030
1026.840, 131.9447
1027.322, 126.3553
1027.804, 121.5476
1028.286, 119.4734
1028.768, 119.1655
1029.250, 118.3059
1029.732, 116.9220
1030.214, 114.7109
1030.697, 111.3496
1031.179, 108.2860
1031.661, 105.9203
1032.143, 103.9158
1032.625, 102.2059
1033.107, 100.4639
1033.589, 97.65062
1034.071, 93.30616
1034.553, 89.92780
1035.036, 87.38078
1035.518, 86.14955
1036.000, 87.28488
1036.482, 88.38703
1036.964, 87.25546
1037.446, 84.76861
1037.928, 83.67089
1038.410, 84.79505
1038.893, 84.32981
1039.375, 80.85767
1039.857, 78.06264
1040.339, 77.26794
1040.821, 76.94777
1041.303, 75.67559
1041.785, 74.02547
1042.267, 73.76424
1042.750, 75.42924
1043.232, 76.67677
1043.714, 78.08134
1044.196, 78.25047
1044.678, 75.52352
1045.160, 72.70093
1045.642, 71.97369
1046.124, 72.69409
1046.606, 73.22682
1047.089, 73.41177
1047.571, 73.67649
1048.053, 74.82712
1048.535, 75.03448
1049.017, 72.75175
1049.499, 70.32015
1049.981, 69.38909
1050.463, 69.70390
1050.945, 70.75610
1051.428, 72.71786
1051.910, 73.89767
1052.392, 73.12952
1052.874, 72.66794
1053.356, 73.78296
1053.838, 74.95657
1054.320, 75.01198
1054.802, 74.23479
1055.285, 73.14870
1055.767, 71.76107
1056.249, 71.07523
1056.731, 72.44812
1057.213, 73.11528
1057.695, 70.99976
1058.177, 68.81365
1058.659, 68.61557
1059.141, 69.91727
1059.624, 71.92810
1060.106, 74.50355
1060.588, 75.94260
1061.070, 75.23754
1061.552, 73.91981
1062.034, 72.29909
1062.516, 70.57688
1062.998, 68.22867
1063.480, 66.18904
1063.963, 66.47154
1064.445, 69.21845
1064.927, 71.11658
1065.409, 70.82340
1065.891, 69.63271
1066.373, 66.95015
1066.855, 64.66457
1067.337, 64.76472
1067.820, 65.99018
1068.302, 66.22820
1068.784, 65.25297
1069.266, 64.43429
1069.748, 64.77085
1070.230, 64.51344
1070.712, 61.61158
1071.194, 59.12035
1071.677, 60.15870
1072.159, 62.62004
1072.641, 63.20715
1073.123, 61.80117
1073.605, 60.65000
1074.087, 60.50457
1074.569, 60.88128
1075.051, 62.00266
1075.533, 63.09762
1076.016, 63.88696
1076.498, 64.14205
1076.980, 63.38497
1077.462, 61.82483
1077.944, 60.30980
1078.426, 58.92902
1078.908, 58.31886
1079.390, 58.99414
1079.873, 60.28548
1080.355, 62.67685
1080.837, 64.77090
1081.319, 64.62990
1081.801, 62.75394
1082.283, 61.20510
1082.765, 60.66750
1083.247, 59.90221
1083.729, 57.88073
1084.212, 56.02867
1084.694, 54.73760
1085.176, 54.38556
1085.658, 56.02012
1086.140, 58.72003
1086.622, 60.27937
1087.104, 60.13688
1087.586, 59.91738
1088.068, 60.85009
1088.551, 61.17520
1089.033, 59.21951
1089.515, 57.00648
1089.997, 56.81613
1090.479, 57.51571
1090.961, 56.18101
1091.443, 52.49586
1091.925, 50.74103
1092.408, 54.47921
1092.890, 57.76855
1093.372, 57.96845
1093.854, 57.14185
1094.336, 56.40614
1094.818, 55.84061
1095.300, 55.27470
1095.782, 54.75784
1096.265, 54.75761
1096.747, 55.62425
1097.229, 56.60371
1097.711, 57.97164
1098.193, 58.78589
1098.675, 57.43249
1099.157, 55.96991
1099.639, 57.53886
1100.121, 61.35071
1100.604, 63.16643
1101.086, 61.52156
1101.568, 59.67150
1102.050, 57.76122
1102.532, 56.69219
1103.014, 57.95489
1103.496, 59.28266
1103.978, 57.96150
1104.460, 55.14574
1104.943, 54.22449
1105.425, 56.02794
1105.907, 57.55057
1106.389, 58.09752
1106.871, 58.51271
1107.353, 58.90152
1107.835, 59.37867
1108.317, 60.27409
1108.800, 61.19497
1109.282, 61.28112
1109.764, 60.42777
1110.246, 60.19587
1110.728, 61.97349
1111.210, 62.50581
1111.692, 59.38721
1112.174, 57.21135
1112.656, 59.63981
1113.139, 63.24805
1113.621, 63.50193
1114.103, 60.71837
1114.585, 58.91077
1115.067, 58.29490
1115.549, 58.33515
1116.031, 59.52750
1116.513, 60.67907
1116.995, 61.58813
1117.478, 62.14095
1117.960, 62.30392
1118.442, 62.00841
1118.924, 60.86530
1119.406, 60.82924
1119.888, 60.73501
1120.370, 59.46836
1120.852, 60.58768
1121.335, 59.13866
1121.817, 57.90361
1122.299, 59.00100
1122.781, 61.11422
1123.263, 61.94076
1123.745, 61.46874
1124.227, 59.79081
1124.709, 55.91401
1125.192, 54.63812
1125.674, 57.45939
1126.156, 60.09631
1126.638, 60.42110
1127.120, 62.33609
1127.602, 61.29541
1128.084, 63.47715
1128.566, 64.19601
1129.048, 63.31142
1129.531, 62.17133
1130.013, 60.80845
1130.495, 59.32943
1130.977, 57.74056
1131.459, 56.12800
1131.941, 54.39433
1132.423, 53.25387
1132.905, 54.87532
1133.387, 58.96149
1133.870, 60.67765
1134.352, 60.10223
1134.834, 59.33190
1135.316, 58.76479
1135.798, 57.19688
1136.280, 53.85573
1136.762, 51.08014
1137.244, 52.30486
1137.727, 56.05112
1138.209, 57.85513
1138.691, 58.15621
1139.173, 59.02880
1139.655, 60.43641
1140.137, 60.60313
1140.619, 59.00455
1141.101, 57.12474
1141.583, 56.00507
1142.066, 55.83009
1142.548, 57.92528
1143.030, 60.62982
1143.512, 59.88674
1143.994, 56.91432
1144.476, 55.30190
1144.958, 55.65466
1145.440, 56.97882
1145.922, 58.86806
1146.405, 60.14463
1146.887, 58.68388
1147.369, 57.00495
1147.851, 58.63873
1148.333, 61.52031
1148.815, 62.45490
1149.297, 61.81543
1149.779, 61.44119
1150.262, 61.85761
1150.744, 62.53318
1151.226, 63.40499
1151.708, 64.05008
1152.190, 64.56027
1152.672, 64.36333
1153.154, 62.38631
1153.636, 59.73144
1154.119, 57.69677
1154.601, 56.54890
1155.083, 56.49351
1155.565, 57.98278
1156.047, 59.13537
1156.529, 58.72372
1157.011, 58.63364
1157.493, 59.88420
1157.975, 61.61736
1158.458, 63.78743
1158.940, 65.63927
1159.422, 65.57854
1159.904, 63.34443
1160.386, 61.18472
1160.868, 58.04250
1161.350, 56.92370
1161.832, 59.44365
1162.314, 62.37562
1162.797, 65.28297
1163.279, 67.06252
1163.761, 65.66312
1164.243, 67.40710
1164.725, 68.36252
1165.207, 67.34402
1165.689, 69.81130
1166.171, 69.03535
1166.654, 66.87027
1167.136, 62.99650
1167.618, 60.24085
1168.100, 60.80778
1168.582, 62.80654
1169.064, 62.93425
1169.546, 61.48171
1170.028, 61.07537
1170.510, 61.72805
1170.993, 63.26381
1171.475, 65.69423
1171.957, 66.96033
1172.439, 66.26464
1172.921, 65.20877
1173.403, 65.34902
1173.885, 65.67220
1174.367, 63.15950
1174.849, 64.19870
1175.332, 65.02246
1175.814, 64.66918
1176.296, 67.73249
1176.778, 68.61623
1177.260, 68.79536
1177.742, 68.98767
1178.224, 68.93241
1178.706, 67.95872
1179.189, 67.08010
1179.671, 68.08293
1180.153, 69.70281
1180.635, 69.96206
1181.117, 69.28165
1181.599, 68.90630
1182.081, 69.08421
1182.563, 69.40240
1183.046, 69.78771
1183.528, 69.87501
1184.010, 69.24516
1184.492, 68.47769
1184.974, 67.88570
1185.456, 67.42649
1185.938, 66.64634
1186.420, 66.05088
1186.902, 67.25546
1187.385, 70.66674
1187.867, 72.38310
1188.349, 70.15703
1188.831, 68.42840
1189.313, 68.25092
1189.795, 68.45827
1190.277, 68.73277
1190.759, 68.91959
1191.241, 68.65532
1191.724, 68.20213
1192.206, 68.68623
1192.688, 70.52574
1193.170, 71.45884
1193.652, 71.09994
1194.134, 71.06210
1194.616, 71.80842
1195.098, 72.50404
1195.581, 72.81779
1196.063, 72.28922
1196.545, 69.86476
1197.027, 70.58951
1197.509, 70.65340
1197.991, 70.42112
1198.473, 72.41316
1198.955, 72.56857
1199.438, 73.24581
1199.920, 74.98373
1200.402, 75.45785
1200.884, 72.94599
1201.366, 70.35156
1201.848, 72.11297
1202.330, 76.06953
1202.812, 79.02018
1203.294, 80.56449
1203.776, 78.98485
1204.259, 75.41129
1204.741, 73.49265
1205.223, 73.98899
1205.705, 73.80202
1206.187, 70.37897
1206.669, 67.90003
1207.151, 70.21706
1207.633, 73.57461
1208.116, 75.87123
1208.598, 76.87862
1209.080, 75.71370
1209.562, 73.40214
1210.044, 72.57089
1210.526, 73.79684
1211.008, 74.81509
1211.490, 74.89607
1211.973, 75.18776
1212.455, 75.77744
1212.937, 76.78880
1213.419, 78.71284
1213.901, 80.63235
1214.383, 81.78083
1214.865, 82.11337
1215.347, 81.28403
1215.829, 78.92354
1216.312, 78.08862
1216.794, 79.15511
1217.276, 79.80695
1217.758, 79.53380
1218.240, 79.66618
1218.722, 80.95132
1219.204, 82.19083
1219.686, 81.89324
1220.168, 83.16299
1220.651, 81.81287
1221.133, 83.90701
1221.615, 84.39864
1222.097, 83.39387
1222.579, 81.43388
1223.061, 78.98672
1223.543, 77.74442
1224.025, 78.49812
1224.508, 79.36728
1224.990, 77.84339
1225.472, 76.71299
1225.954, 79.73667
1226.436, 83.86823
1226.918, 86.23508
1227.400, 86.79707
1227.882, 85.20791
1228.365, 82.17941
1228.847, 80.42442
1229.329, 80.86214
1229.811, 81.90137
1230.293, 84.41565
1230.775, 85.63247
1231.257, 83.13903
1231.739, 80.71389
1232.221, 81.31819
1232.703, 82.96277
1233.186, 82.84033
1233.668, 81.38289
1234.150, 81.56435
1234.632, 83.88680
1235.114, 86.02239
1235.596, 88.19508
1236.078, 88.82589
1236.560, 87.35110
1237.043, 85.59509
1237.525, 84.53453
1238.007, 84.24601
1238.489, 85.04211
1238.971, 86.33454
1239.453, 86.59809
1239.935, 85.96435
1240.417, 84.10575
1240.900, 81.81530
1241.382, 82.14188
1241.864, 85.17487
1242.346, 87.93244
1242.828, 88.97996
1243.310, 89.23856
1243.792, 89.22511
1244.274, 88.98474
1244.756, 87.47512
1245.239, 86.78059
1245.721, 90.55431
1246.203, 95.54650
1246.685, 96.26295
1247.167, 93.02003
1247.649, 90.52519
1248.131, 89.37085
1248.613, 89.65414
1249.095, 93.72115
1249.578, 95.60619
1250.060, 93.04247
1250.542, 90.05555
1251.024, 88.37832
1251.506, 87.75228
1251.988, 88.08823
1252.470, 89.03037
1252.952, 89.05222
1253.435, 88.11443
1253.917, 88.00634
1254.399, 88.72460
1254.881, 89.46593
1255.363, 90.06929
1255.845, 90.48271
1256.327, 90.69355
1256.809, 91.15184
1257.292, 92.47095
1257.774, 93.80826
1258.256, 93.93429
1258.738, 93.39878
1259.220, 92.60185
1259.702, 91.94729
1260.184, 92.28846
1260.666, 93.29565
1261.148, 93.57450
1261.630, 92.73768
1262.113, 92.49333
1262.595, 94.13728
1263.077, 95.45300
1263.559, 95.97743
1264.041, 95.83236
1264.523, 94.11042
1265.005, 92.69056
1265.487, 93.65012
1265.970, 95.80147
1266.452, 96.26289
1266.934, 94.99138
1267.416, 95.06002
1267.898, 96.63982
1268.380, 98.65660
1268.862, 101.1356
1269.344, 101.1563
1269.827, 97.73967
1270.309, 94.79758
1270.791, 95.22701
1271.273, 97.05379
1271.755, 97.66161
1272.237, 97.62672
1272.719, 98.19116
1273.201, 98.77286
1273.683, 97.50789
1274.166, 95.63985
1274.648, 97.00372
1275.130, 101.3727
1275.612, 103.3680
1276.094, 100.2159
1276.576, 98.00803
1277.058, 100.7064
1277.540, 102.6550
1278.022, 100.9982
1278.505, 98.63144
1278.987, 96.55474
1279.469, 95.59309
1279.951, 97.13773
1280.433, 100.4695
1280.915, 102.7025
1281.397, 103.8293
1281.879, 103.8684
1282.362, 102.7464
1282.844, 101.0113
1283.326, 98.72088
1283.808, 98.11408
1284.290, 100.0988
1284.772, 102.3600
1285.254, 102.9909
1285.736, 101.9987
##END=



