##NAMES=Sapphirine
##RRUFFID=R060556
##IDEAL CHEMISTRY=Mg_4_(Mg_3_Al_9_)O_4_[Si_3_Al_9_O_36_]
##LOCALITY=unknown
##OWNER=RRUFF
##SOURCE=Gemological Institute of America
##DESCRIPTION=Dark blue massive
##STATUS=The identification of this mineral has been confirmed by X-ray diffraction and chemical analysis
##URL=rruff.info/R060556
##MEASURED CHEMISTRY=Mg_4_(Mg_3.18_Al_8.52_Fe^2+^_0.32_)O_4_(Si_3.42_Al_8.58_O_36_)
150.931, 2740.155
151.413, 2768.334
151.895, 2787.393
152.377, 2800.371
152.859, 2812.538
153.342, 2815.855
153.824, 2825.368
154.306, 2847.527
154.788, 2895.500
155.270, 2938.364
155.752, 2969.089
156.234, 2991.354
156.716, 3018.538
157.198, 3052.216
157.680, 3092.181
158.163, 3137.987
158.645, 3188.827
159.127, 3246.240
159.609, 3307.175
160.091, 3372.784
160.573, 3453.961
161.055, 3565.523
161.538, 3688.735
162.020, 3805.850
162.502, 3926.101
162.984, 4026.443
163.466, 4091.206
163.948, 4118.994
164.430, 4137.464
164.912, 4149.499
165.394, 4162.067
165.876, 4184.031
166.359, 4229.455
166.841, 4278.368
167.323, 4316.426
167.805, 4340.928
168.287, 4365.442
168.769, 4410.579
169.251, 4461.620
169.733, 4491.306
170.216, 4482.044
170.698, 4447.833
171.180, 4399.033
171.662, 4334.077
172.144, 4263.546
172.626, 4184.000
173.108, 4103.029
173.590, 4041.090
174.072, 4013.086
174.555, 4010.579
175.037, 4023.460
175.519, 4052.974
176.001, 4091.796
176.483, 4132.210
176.965, 4174.871
177.447, 4221.517
177.929, 4278.694
178.412, 4340.301
178.894, 4397.821
179.376, 4462.473
179.858, 4507.741
180.340, 4487.568
180.822, 4403.401
181.304, 4292.928
181.786, 4177.394
182.268, 4059.112
182.751, 3945.509
183.233, 3837.824
183.715, 3737.406
184.197, 3648.711
184.679, 3570.824
185.161, 3506.633
185.643, 3460.352
186.125, 3431.056
186.607, 3409.540
187.090, 3395.945
187.572, 3387.824
188.054, 3374.740
188.536, 3354.970
189.018, 3339.079
189.500, 3346.074
189.982, 3373.761
190.464, 3397.150
190.947, 3403.190
191.429, 3394.432
191.911, 3385.755
192.393, 3377.000
192.875, 3369.384
193.357, 3366.453
193.839, 3368.481
194.321, 3367.639
194.803, 3357.575
195.286, 3339.072
195.768, 3325.867
196.250, 3319.403
196.732, 3317.268
197.214, 3313.146
197.696, 3305.991
198.178, 3305.096
198.661, 3319.365
199.143, 3349.360
199.625, 3372.477
200.107, 3385.552
200.589, 3392.311
201.071, 3401.057
201.553, 3411.027
202.035, 3426.423
202.517, 3452.115
202.999, 3489.421
203.482, 3524.587
203.964, 3555.977
204.446, 3584.008
204.928, 3607.035
205.410, 3620.354
205.892, 3641.887
206.374, 3689.696
206.857, 3770.616
207.339, 3840.457
207.821, 3889.421
208.303, 3921.644
208.785, 3960.904
209.267, 4007.593
209.749, 4061.031
210.231, 4121.053
210.713, 4188.661
211.195, 4260.288
211.678, 4334.412
212.160, 4412.022
212.642, 4499.834
213.124, 4601.012
213.606, 4708.940
214.088, 4817.845
214.570, 4931.667
215.052, 5037.663
215.535, 5131.631
216.017, 5214.020
216.499, 5305.947
216.981, 5424.500
217.463, 5530.928
217.945, 5580.467
218.427, 5557.072
218.909, 5513.951
219.391, 5464.304
219.874, 5408.809
220.356, 5328.428
220.838, 5214.978
221.320, 5085.758
221.802, 4962.776
222.284, 4847.815
222.766, 4736.043
223.248, 4626.773
223.731, 4518.398
224.213, 4416.336
224.695, 4310.340
225.177, 4218.773
225.659, 4167.986
226.141, 4148.688
226.623, 4147.792
227.105, 4142.433
227.587, 4132.845
228.070, 4106.367
228.552, 4101.699
229.034, 4088.291
229.516, 4074.522
229.998, 4072.923
230.480, 4048.903
230.962, 4047.111
231.444, 4036.446
231.926, 4029.842
232.409, 4012.625
232.891, 4011.670
233.373, 4012.053
233.855, 4013.740
234.337, 4016.957
234.819, 4022.869
235.301, 4034.367
235.783, 4039.190
236.266, 4035.737
236.748, 4026.496
237.230, 4015.114
237.712, 3996.519
238.194, 3983.698
238.676, 3983.877
239.158, 4005.519
239.640, 4016.068
240.122, 4020.146
240.605, 4011.239
241.087, 3972.468
241.569, 3882.114
242.051, 3793.861
242.533, 3729.124
243.015, 3693.162
243.497, 3665.915
243.980, 3650.297
244.462, 3642.280
244.944, 3632.909
245.426, 3621.621
245.908, 3609.562
246.390, 3596.941
246.872, 3583.386
247.354, 3569.761
247.836, 3554.553
248.318, 3539.725
248.801, 3529.723
249.283, 3523.146
249.765, 3523.500
250.247, 3533.337
250.729, 3556.741
251.211, 3578.994
251.693, 3599.243
252.176, 3618.687
252.658, 3639.204
253.140, 3658.413
253.622, 3683.178
254.104, 3710.569
254.586, 3720.153
255.068, 3730.193
255.550, 3776.131
256.032, 3813.355
256.514, 3842.330
256.997, 3838.359
257.479, 3876.932
257.961, 3898.461
258.443, 3928.425
258.925, 3939.301
259.407, 3979.881
259.889, 4033.454
260.371, 4060.226
260.854, 4051.930
261.336, 4032.622
261.818, 4011.883
262.300, 3989.619
262.782, 3966.936
263.264, 3946.585
263.746, 3923.989
264.228, 3887.259
264.711, 3830.084
265.193, 3772.591
265.675, 3723.367
266.157, 3684.435
266.639, 3647.514
267.121, 3613.743
267.603, 3581.887
268.085, 3548.606
268.567, 3513.195
269.050, 3479.407
269.532, 3448.189
270.014, 3418.663
270.496, 3398.741
270.978, 3393.135
271.460, 3393.141
271.942, 3380.054
272.424, 3350.469
272.906, 3320.422
273.389, 3298.174
273.871, 3285.469
274.353, 3266.696
274.835, 3238.937
275.317, 3209.188
275.799, 3190.381
276.281, 3184.107
276.763, 3181.441
277.246, 3180.384
277.728, 3181.291
278.210, 3174.905
278.692, 3158.370
279.174, 3138.956
279.656, 3130.076
280.138, 3133.028
280.620, 3134.918
281.103, 3128.161
281.585, 3113.022
282.067, 3103.016
282.549, 3098.420
283.031, 3098.281
283.513, 3101.144
283.995, 3106.983
284.477, 3116.481
284.959, 3130.552
285.441, 3148.910
285.924, 3170.388
286.406, 3196.422
286.888, 3221.099
287.370, 3232.626
287.852, 3232.004
288.334, 3236.132
288.816, 3255.813
289.298, 3286.718
289.781, 3308.244
290.263, 3318.476
290.745, 3329.614
291.227, 3356.242
291.709, 3397.181
292.191, 3443.037
292.673, 3494.028
293.155, 3547.125
293.638, 3593.755
294.120, 3633.200
294.602, 3669.246
295.084, 3700.984
295.566, 3731.112
296.048, 3770.786
296.530, 3831.118
297.012, 3901.452
297.494, 3958.296
297.977, 4002.060
298.459, 4044.782
298.941, 4099.946
299.423, 4163.245
299.905, 4222.163
300.387, 4272.428
300.869, 4316.923
301.351, 4364.452
301.833, 4414.293
302.316, 4451.586
302.798, 4456.196
303.280, 4441.114
303.762, 4429.440
304.244, 4433.874
304.726, 4438.544
305.208, 4424.918
305.690, 4394.868
306.172, 4360.605
306.655, 4326.371
307.137, 4294.309
307.619, 4268.479
308.101, 4257.071
308.583, 4242.506
309.065, 4206.292
309.547, 4153.232
310.030, 4103.629
310.512, 4068.875
310.994, 4043.475
311.476, 4022.328
311.958, 4004.471
312.440, 3990.573
312.922, 3982.346
313.404, 3978.560
313.886, 3975.557
314.369, 3976.525
314.851, 3974.646
315.333, 3962.816
315.815, 3932.861
316.297, 3909.519
316.779, 3902.443
317.261, 3909.302
317.743, 3925.555
318.225, 3960.689
318.708, 3996.660
319.190, 4022.563
319.672, 4033.580
320.154, 4046.696
320.636, 4065.145
321.118, 4088.886
321.600, 4117.828
322.082, 4158.970
322.565, 4199.303
323.047, 4232.668
323.529, 4256.648
324.011, 4283.158
324.493, 4315.063
324.975, 4349.779
325.457, 4384.385
325.939, 4419.399
326.422, 4453.350
326.904, 4490.657
327.386, 4534.505
327.868, 4556.537
328.350, 4536.359
328.832, 4505.728
329.314, 4491.785
329.796, 4510.619
330.278, 4525.474
330.760, 4529.171
331.243, 4522.194
331.725, 4520.947
332.207, 4532.093
332.689, 4542.525
333.171, 4542.658
333.653, 4529.282
334.135, 4511.373
334.617, 4484.814
335.100, 4453.723
335.582, 4444.439
336.064, 4427.524
336.546, 4426.225
337.028, 4421.135
337.510, 4404.611
337.992, 4388.334
338.474, 4371.774
338.957, 4376.946
339.439, 4376.842
339.921, 4371.747
340.403, 4346.708
340.885, 4347.072
341.367, 4340.110
341.849, 4331.105
342.331, 4317.093
342.813, 4302.532
343.296, 4297.630
343.778, 4302.923
344.260, 4303.783
344.742, 4289.665
345.224, 4263.650
345.706, 4247.134
346.188, 4241.146
346.670, 4240.201
347.152, 4237.376
347.635, 4233.398
348.117, 4232.337
348.599, 4234.619
349.081, 4241.121
349.563, 4254.822
350.045, 4275.624
350.527, 4299.534
351.009, 4321.001
351.491, 4342.205
351.974, 4368.750
352.456, 4407.266
352.938, 4447.173
353.420, 4476.516
353.902, 4495.628
354.384, 4507.810
354.866, 4509.405
355.349, 4507.183
355.831, 4510.456
356.313, 4524.018
356.795, 4539.210
357.277, 4548.165
357.759, 4553.415
358.241, 4561.785
358.723, 4577.309
359.205, 4597.212
359.688, 4619.012
360.170, 4641.264
360.652, 4668.783
361.134, 4712.790
361.616, 4762.380
362.098, 4799.096
362.580, 4799.438
363.062, 4799.733
363.544, 4817.042
364.027, 4855.072
364.509, 4895.639
364.991, 4942.924
365.473, 4987.395
365.955, 5018.365
366.437, 5016.429
366.919, 5019.584
367.401, 5034.392
367.884, 5061.084
368.366, 5099.266
368.848, 5167.092
369.330, 5234.603
369.812, 5282.503
370.294, 5293.666
370.776, 5310.331
371.258, 5338.145
371.741, 5374.254
372.223, 5404.574
372.705, 5427.041
373.187, 5446.534
373.669, 5465.923
374.151, 5486.429
374.633, 5503.438
375.115, 5518.232
375.597, 5528.274
376.079, 5525.079
376.562, 5503.125
377.044, 5487.741
377.526, 5498.237
378.008, 5535.968
378.490, 5536.376
378.972, 5491.275
379.454, 5430.158
379.936, 5390.565
380.419, 5372.376
380.901, 5349.084
381.383, 5308.476
381.865, 5257.747
382.347, 5220.402
382.829, 5196.517
383.311, 5180.438
383.793, 5172.223
384.276, 5168.377
384.758, 5156.024
385.240, 5125.736
385.722, 5094.874
386.204, 5092.336
386.686, 5113.274
387.168, 5130.830
387.650, 5120.003
388.132, 5098.761
388.615, 5092.140
389.097, 5107.230
389.579, 5125.278
390.061, 5124.914
390.543, 5116.814
391.025, 5122.587
391.507, 5164.757
391.989, 5214.787
392.471, 5254.802
392.954, 5283.375
393.436, 5308.743
393.918, 5332.968
394.400, 5356.780
394.882, 5381.030
395.364, 5394.595
395.846, 5419.993
396.328, 5475.731
396.810, 5557.720
397.293, 5616.780
397.775, 5613.021
398.257, 5605.677
398.739, 5628.587
399.221, 5719.846
399.703, 5795.912
400.185, 5846.806
400.668, 5882.511
401.150, 5929.819
401.632, 5997.075
402.114, 6064.639
402.596, 6124.498
403.078, 6173.559
403.560, 6228.953
404.042, 6295.261
404.524, 6363.508
405.007, 6422.266
405.489, 6470.038
405.971, 6514.819
406.453, 6560.306
406.935, 6605.391
407.417, 6638.387
407.899, 6657.816
408.381, 6671.699
408.863, 6686.882
409.346, 6703.063
409.828, 6716.625
410.310, 6727.856
410.792, 6734.925
411.274, 6734.397
411.756, 6726.474
412.238, 6712.455
412.720, 6693.834
413.203, 6669.628
413.685, 6634.782
414.167, 6586.596
414.649, 6538.759
415.131, 6505.943
415.613, 6482.951
416.095, 6459.924
416.577, 6438.688
417.060, 6410.947
417.542, 6365.274
418.024, 6302.635
418.506, 6241.315
418.988, 6189.612
419.470, 6145.719
419.952, 6109.351
420.434, 6087.350
420.916, 6063.964
421.398, 6034.462
421.881, 5999.791
422.363, 5961.903
422.845, 5911.140
423.327, 5866.014
423.809, 5836.460
424.291, 5832.660
424.773, 5822.859
425.255, 5801.063
425.738, 5774.983
426.220, 5754.148
426.702, 5736.782
427.184, 5727.895
427.666, 5722.259
428.148, 5726.605
428.630, 5728.528
429.112, 5728.158
429.595, 5718.628
430.077, 5720.926
430.559, 5718.484
431.041, 5718.389
431.523, 5709.488
432.005, 5711.970
432.487, 5720.896
432.969, 5736.759
433.451, 5751.590
433.934, 5758.804
434.416, 5760.658
434.898, 5765.974
435.380, 5774.396
435.862, 5790.572
436.344, 5825.005
436.826, 5872.594
437.308, 5917.642
437.790, 5956.583
438.273, 5988.303
438.755, 6007.384
439.237, 6015.414
439.719, 6024.125
440.201, 6041.166
440.683, 6062.882
441.165, 6082.998
441.647, 6090.271
442.129, 6114.904
442.612, 6123.426
443.094, 6148.998
443.576, 6170.429
444.058, 6187.944
444.540, 6189.811
445.022, 6211.883
445.504, 6225.862
445.987, 6239.505
446.469, 6259.963
446.951, 6266.838
447.433, 6270.511
447.915, 6266.249
448.397, 6265.065
448.879, 6270.259
449.361, 6280.271
449.843, 6284.856
450.326, 6280.582
450.808, 6276.781
451.290, 6278.619
451.772, 6287.178
452.254, 6297.187
452.736, 6311.236
453.218, 6322.047
453.700, 6314.224
454.182, 6286.771
454.665, 6262.598
455.147, 6251.885
455.629, 6250.476
456.111, 6247.671
456.593, 6243.624
457.075, 6233.791
457.557, 6208.100
458.039, 6173.720
458.522, 6148.145
459.004, 6133.549
459.486, 6130.893
459.968, 6121.439
460.450, 6132.688
460.932, 6138.912
461.414, 6140.379
461.896, 6122.850
462.379, 6129.519
462.861, 6147.104
463.343, 6162.471
463.825, 6153.695
464.307, 6138.649
464.789, 6135.189
465.271, 6163.928
465.753, 6186.868
466.235, 6192.007
466.717, 6182.617
467.200, 6177.291
467.682, 6189.288
468.164, 6194.144
468.646, 6179.983
469.128, 6135.125
469.610, 6103.024
470.092, 6089.203
470.574, 6083.070
471.057, 6072.130
471.539, 6057.793
472.021, 6032.478
472.503, 5991.342
472.985, 5937.397
473.467, 5884.969
473.949, 5833.804
474.431, 5785.558
474.914, 5744.859
475.396, 5709.398
475.878, 5668.424
476.360, 5619.922
476.842, 5568.387
477.324, 5519.117
477.806, 5471.499
478.288, 5424.316
478.770, 5370.821
479.253, 5320.952
479.735, 5287.805
480.217, 5270.873
480.699, 5255.406
481.181, 5224.149
481.663, 5194.302
482.145, 5182.619
482.627, 5204.864
483.109, 5227.067
483.592, 5236.336
484.074, 5237.517
484.556, 5241.635
485.038, 5249.560
485.520, 5261.314
486.002, 5275.412
486.484, 5289.984
486.966, 5316.184
487.448, 5356.878
487.931, 5406.548
488.413, 5462.311
488.895, 5530.304
489.377, 5587.149
489.859, 5626.015
490.341, 5654.669
490.823, 5692.206
491.306, 5738.916
491.788, 5792.342
492.270, 5854.386
492.752, 5923.145
493.234, 5984.646
493.716, 6037.624
494.198, 6089.454
494.680, 6150.500
495.162, 6215.708
495.645, 6269.102
496.127, 6301.429
496.609, 6327.170
497.091, 6364.042
497.573, 6407.910
498.055, 6445.151
498.537, 6467.919
499.019, 6481.728
499.501, 6490.666
499.984, 6495.409
500.466, 6493.766
500.948, 6490.272
501.430, 6477.857
501.912, 6449.113
502.394, 6376.899
502.876, 6318.984
503.358, 6295.844
503.841, 6296.151
504.323, 6269.566
504.805, 6199.146
505.287, 6125.071
505.769, 6066.829
506.251, 6030.115
506.733, 5973.221
507.215, 5886.356
507.698, 5796.746
508.180, 5740.359
508.662, 5717.463
509.144, 5695.283
509.626, 5666.458
510.108, 5633.031
510.590, 5600.660
511.072, 5569.051
511.554, 5536.242
512.036, 5493.807
512.519, 5452.027
513.001, 5416.542
513.483, 5383.743
513.965, 5355.463
514.447, 5345.588
514.929, 5332.333
515.411, 5315.930
515.893, 5284.327
516.375, 5274.360
516.858, 5256.945
517.340, 5240.071
517.822, 5235.656
518.304, 5210.771
518.786, 5207.925
519.268, 5197.507
519.750, 5191.830
520.232, 5178.660
520.715, 5168.951
521.197, 5168.493
521.679, 5164.275
522.161, 5153.645
522.643, 5153.472
523.125, 5137.058
523.607, 5136.542
524.089, 5143.384
524.571, 5137.557
525.054, 5141.919
525.536, 5143.611
526.018, 5130.059
526.500, 5145.418
526.982, 5149.530
527.464, 5142.068
527.946, 5159.097
528.429, 5155.104
528.911, 5159.803
529.393, 5170.986
529.875, 5182.873
530.357, 5184.881
530.839, 5183.445
531.321, 5194.672
531.803, 5188.371
532.286, 5223.547
532.768, 5248.651
533.250, 5264.231
533.732, 5241.754
534.214, 5267.753
534.696, 5262.777
535.178, 5269.947
535.660, 5317.360
536.142, 5355.006
536.625, 5383.406
537.107, 5374.869
537.589, 5414.025
538.071, 5434.076
538.553, 5453.334
539.035, 5499.207
539.517, 5496.042
539.999, 5541.492
540.481, 5567.533
540.964, 5602.466
541.446, 5614.184
541.928, 5625.068
542.410, 5646.508
542.892, 5681.206
543.374, 5713.152
543.856, 5719.915
544.338, 5713.555
544.820, 5718.000
545.303, 5753.705
545.785, 5793.500
546.267, 5823.044
546.749, 5843.020
547.231, 5864.643
547.713, 5895.049
548.195, 5924.909
548.677, 5947.091
549.159, 5949.014
549.642, 5972.152
550.124, 6024.760
550.606, 6092.177
551.088, 6156.696
551.570, 6214.023
552.052, 6281.688
552.534, 6366.191
553.016, 6462.357
553.499, 6548.944
553.981, 6624.980
554.463, 6706.102
554.945, 6798.681
555.427, 6903.254
555.909, 7025.461
556.391, 7166.417
556.873, 7309.876
557.356, 7433.889
557.838, 7551.769
558.320, 7683.008
558.802, 7833.523
559.284, 7995.471
559.766, 8170.947
560.248, 8354.347
560.730, 8534.827
561.213, 8715.149
561.695, 8881.491
562.177, 9031.747
562.659, 9166.338
563.141, 9270.921
563.623, 9334.629
564.105, 9380.805
564.587, 9427.718
565.069, 9488.213
565.552, 9501.067
566.034, 9458.624
566.516, 9376.358
566.998, 9271.289
567.480, 9144.430
567.962, 9009.225
568.444, 8869.918
568.926, 8725.698
569.408, 8579.632
569.891, 8430.406
570.373, 8282.060
570.855, 8130.285
571.337, 7983.000
571.819, 7846.515
572.301, 7722.567
572.783, 7606.491
573.265, 7491.211
573.747, 7384.502
574.230, 7295.623
574.712, 7251.213
575.194, 7194.186
575.676, 7097.975
576.158, 6984.144
576.640, 6904.527
577.122, 6868.567
577.604, 6853.490
578.086, 6861.262
578.569, 6889.351
579.051, 6889.347
579.533, 6851.735
580.015, 6822.392
580.497, 6839.791
580.979, 6898.071
581.461, 6965.521
581.943, 7043.190
582.426, 7110.132
582.908, 7134.777
583.390, 7131.318
583.872, 7130.988
584.354, 7133.035
584.836, 7155.142
585.318, 7226.199
585.800, 7330.009
586.282, 7418.304
586.765, 7471.369
587.247, 7504.427
587.729, 7525.717
588.211, 7537.518
588.693, 7523.295
589.175, 7460.786
589.657, 7393.125
590.140, 7356.510
590.622, 7377.506
591.104, 7343.438
591.586, 7233.473
592.068, 7086.764
592.550, 6973.633
593.032, 6892.682
593.514, 6795.580
593.996, 6655.935
594.479, 6498.871
594.961, 6373.323
595.443, 6275.837
595.925, 6184.801
596.407, 6083.184
596.889, 5984.484
597.371, 5901.558
597.853, 5836.102
598.335, 5779.376
598.818, 5732.019
599.300, 5689.164
599.782, 5646.013
600.264, 5604.525
600.746, 5559.282
601.228, 5499.648
601.710, 5439.230
602.192, 5405.767
602.674, 5414.416
603.157, 5412.313
603.639, 5381.792
604.121, 5330.546
604.603, 5293.691
605.085, 5272.477
605.567, 5253.550
606.049, 5228.935
606.531, 5200.039
607.013, 5172.325
607.496, 5146.068
607.978, 5116.472
608.460, 5070.842
608.942, 5022.663
609.424, 4990.719
609.906, 4992.382
610.388, 4988.255
610.870, 4953.394
611.353, 4902.375
611.835, 4862.076
612.317, 4853.835
612.799, 4836.960
613.281, 4799.220
613.763, 4744.021
614.245, 4698.913
614.727, 4667.008
615.209, 4638.608
615.692, 4609.328
616.174, 4579.608
616.656, 4550.525
617.138, 4521.931
617.620, 4496.105
618.102, 4480.785
618.584, 4469.907
619.067, 4445.425
619.549, 4399.000
620.031, 4352.367
620.513, 4324.945
620.995, 4310.485
621.477, 4298.783
621.959, 4291.486
622.441, 4280.434
622.923, 4256.427
623.406, 4223.545
623.888, 4204.265
624.370, 4214.988
624.852, 4222.982
625.334, 4215.926
625.816, 4192.456
626.298, 4171.558
626.780, 4152.959
627.263, 4137.619
627.745, 4125.076
628.227, 4115.815
628.709, 4118.246
629.191, 4136.089
629.673, 4154.330
630.155, 4154.975
630.637, 4142.141
631.119, 4124.835
631.602, 4101.060
632.084, 4080.052
632.566, 4066.788
633.048, 4061.308
633.530, 4063.280
634.012, 4075.571
634.494, 4092.553
634.976, 4117.698
635.458, 4150.945
635.941, 4164.703
636.423, 4144.892
636.905, 4125.427
637.387, 4127.883
637.869, 4155.676
638.351, 4178.235
638.833, 4195.037
639.315, 4206.435
639.797, 4209.545
640.280, 4206.969
640.762, 4209.234
641.244, 4219.873
641.726, 4233.423
642.208, 4244.992
642.690, 4255.212
643.172, 4265.837
643.654, 4281.346
644.137, 4293.932
644.619, 4294.012
645.101, 4285.552
645.583, 4292.171
646.065, 4340.409
646.547, 4381.230
647.029, 4395.056
647.511, 4379.326
647.994, 4366.563
648.476, 4352.062
648.958, 4352.216
649.440, 4391.123
649.922, 4463.911
650.404, 4511.389
650.886, 4523.760
651.368, 4527.737
651.851, 4554.324
652.333, 4594.209
652.815, 4628.794
653.297, 4644.438
653.779, 4663.974
654.261, 4708.084
654.743, 4766.421
655.225, 4816.662
655.707, 4847.906
656.190, 4875.350
656.672, 4902.097
657.154, 4928.483
657.636, 4955.651
658.118, 4977.261
658.600, 5012.665
659.082, 5076.570
659.564, 5168.447
660.046, 5251.601
660.529, 5327.313
661.011, 5383.771
661.493, 5387.636
661.975, 5367.005
662.457, 5391.170
662.939, 5478.065
663.421, 5575.056
663.903, 5641.711
664.385, 5694.182
664.868, 5753.191
665.350, 5824.941
665.832, 5904.606
666.314, 5968.577
666.796, 6042.144
667.278, 6186.873
667.760, 6461.599
668.242, 6703.044
668.724, 6861.134
669.207, 6952.292
669.689, 7057.454
670.171, 7178.475
670.653, 7280.273
671.135, 7321.928
671.617, 7331.336
672.099, 7372.578
672.581, 7447.244
673.064, 7559.383
673.546, 7735.615
674.028, 7936.301
674.510, 8124.111
674.992, 8290.301
675.474, 8455.465
675.956, 8620.198
676.438, 8792.826
676.920, 8980.442
677.403, 9191.429
677.885, 9407.554
678.367, 9631.471
678.849, 9857.507
679.331, 10070.550
679.813, 10272.060
680.295, 10464.620
680.778, 10649.430
681.260, 10828.500
681.742, 11003.420
682.224, 11173.790
682.706, 11328.290
683.188, 11457.060
683.670, 11571.790
684.152, 11690.580
684.634, 11811.260
685.117, 11896.330
685.599, 11928.760
686.081, 11925.660
686.563, 11895.420
687.045, 11841.210
687.527, 11752.160
688.009, 11619.250
688.491, 11464.730
688.973, 11305.060
689.456, 11140.490
689.938, 10967.020
690.420, 10782.930
690.902, 10596.550
691.384, 10417.250
691.866, 10241.790
692.348, 10058.410
692.830, 9852.510
693.312, 9657.542
693.795, 9511.542
694.277, 9390.613
694.759, 9251.824
695.241, 9044.372
695.723, 8861.181
696.205, 8735.521
696.687, 8652.026
697.169, 8555.439
697.652, 8442.882
698.134, 8322.719
698.616, 8192.198
699.098, 8056.624
699.580, 7949.982
700.062, 7872.578
700.544, 7795.045
701.026, 7694.349
701.508, 7582.399
701.991, 7474.645
702.473, 7372.162
702.955, 7279.691
703.437, 7199.692
703.919, 7130.974
704.401, 7073.809
704.883, 7035.327
705.365, 6992.817
705.847, 6941.691
706.330, 6887.895
706.812, 6837.204
707.294, 6790.416
707.776, 6740.968
708.258, 6684.887
708.740, 6633.295
709.222, 6612.929
709.705, 6615.365
710.187, 6599.693
710.669, 6545.753
711.151, 6478.730
711.633, 6421.228
712.115, 6370.839
712.597, 6321.317
713.079, 6260.520
713.561, 6209.445
714.044, 6183.998
714.526, 6179.373
715.008, 6155.016
715.490, 6095.380
715.972, 6040.853
716.454, 6007.775
716.936, 5994.094
717.418, 5982.991
717.901, 5975.216
718.383, 5959.097
718.865, 5917.719
719.347, 5864.354
719.829, 5826.227
720.311, 5805.946
720.793, 5786.114
721.275, 5743.366
721.757, 5703.655
722.240, 5693.060
722.722, 5733.835
723.204, 5756.626
723.686, 5739.755
724.168, 5709.348
724.650, 5687.822
725.132, 5680.391
725.614, 5659.850
726.096, 5616.882
726.579, 5574.188
727.061, 5575.846
727.543, 5611.340
728.025, 5627.535
728.507, 5603.504
728.989, 5565.885
729.471, 5532.013
729.953, 5505.471
730.435, 5494.161
730.918, 5526.402
731.400, 5547.457
731.882, 5528.323
732.364, 5481.464
732.846, 5453.774
733.328, 5459.392
733.810, 5456.909
734.292, 5428.179
734.775, 5381.714
735.257, 5362.234
735.739, 5370.031
736.221, 5379.848
736.703, 5373.194
737.185, 5360.553
737.667, 5359.260
738.149, 5368.903
738.631, 5380.595
739.114, 5395.184
739.596, 5405.682
740.078, 5407.722
740.560, 5400.483
741.042, 5386.530
741.524, 5357.306
742.006, 5332.041
742.489, 5322.974
742.971, 5331.803
743.453, 5348.401
743.935, 5375.293
744.417, 5398.275
744.899, 5399.410
745.381, 5384.903
745.863, 5368.669
746.345, 5351.556
746.828, 5338.783
747.310, 5324.785
747.792, 5261.460
748.274, 5306.960
748.756, 5326.049
749.238, 5320.138
749.720, 5214.358
750.202, 5237.541
750.684, 5209.039
751.167, 5178.415
751.649, 5219.748
752.131, 5128.494
752.613, 5168.683
753.095, 5146.796
753.577, 5144.810
754.059, 5139.488
754.541, 5110.397
755.023, 5081.722
755.506, 5080.409
755.988, 5096.344
756.470, 5104.749
756.952, 5090.899
757.434, 5074.888
757.916, 5060.630
758.398, 5048.616
758.880, 5043.444
759.362, 5050.916
759.845, 5047.079
760.327, 5013.925
760.809, 4964.662
761.291, 4954.475
761.773, 4980.634
762.255, 5008.580
762.737, 5031.892
763.219, 5036.809
763.702, 4997.492
764.184, 4917.381
764.666, 4847.168
765.148, 4799.481
765.630, 4771.939
766.112, 4771.871
766.594, 4803.213
767.076, 4806.848
767.558, 4773.844
768.041, 4732.310
768.523, 4698.875
769.005, 4673.049
769.487, 4652.005
769.969, 4635.487
770.451, 4623.395
770.933, 4621.232
771.416, 4620.388
771.898, 4609.286
772.380, 4584.392
772.862, 4559.432
773.344, 4535.960
773.826, 4517.241
774.308, 4506.224
774.790, 4507.626
775.272, 4506.106
775.755, 4503.107
776.237, 4494.955
776.719, 4472.262
777.201, 4438.136
777.683, 4419.732
778.165, 4424.297
778.647, 4430.505
779.129, 4407.950
779.612, 4375.696
780.094, 4363.549
780.576, 4393.949
781.058, 4418.698
781.540, 4419.511
782.022, 4406.801
782.504, 4393.583
782.986, 4375.387
783.468, 4368.416
783.951, 4378.080
784.433, 4394.104
784.915, 4397.262
785.397, 4389.708
785.879, 4387.765
786.361, 4399.879
786.843, 4411.640
787.325, 4404.548
787.807, 4387.001
788.290, 4374.799
788.772, 4373.324
789.254, 4378.067
789.736, 4392.268
790.218, 4411.063
790.700, 4423.308
791.182, 4424.524
791.664, 4433.253
792.146, 4456.978
792.629, 4487.485
793.111, 4505.171
793.593, 4511.809
794.075, 4515.510
794.557, 4513.782
795.039, 4516.593
795.521, 4534.848
796.003, 4564.970
796.485, 4597.177
796.968, 4637.603
797.450, 4669.112
797.932, 4685.158
798.414, 4689.307
798.896, 4691.681
799.378, 4689.741
799.860, 4698.259
800.343, 4728.049
800.825, 4768.395
801.307, 4792.977
801.789, 4804.229
802.271, 4814.102
802.753, 4821.104
803.235, 4835.879
803.717, 4873.238
804.199, 4928.100
804.682, 4971.582
805.164, 4990.162
805.646, 5004.001
806.128, 5015.301
806.610, 5025.719
807.092, 5046.760
807.574, 5078.699
808.056, 5119.105
808.539, 5171.213
809.021, 5228.698
809.503, 5276.051
809.985, 5315.694
810.467, 5360.860
810.949, 5425.008
811.431, 5491.794
811.913, 5552.441
812.395, 5606.537
812.878, 5653.131
813.360, 5679.232
813.842, 5719.544
814.324, 5794.456
814.806, 5897.322
815.288, 5979.063
815.770, 6039.865
816.252, 6105.572
816.734, 6197.958
817.217, 6302.500
817.699, 6407.915
818.181, 6512.025
818.663, 6602.027
819.145, 6662.240
819.627, 6716.123
820.109, 6776.111
820.591, 6842.553
821.073, 6907.770
821.556, 6970.852
822.038, 7037.251
822.520, 7122.368
823.002, 7213.769
823.484, 7248.583
823.966, 7229.393
824.448, 7196.618
824.930, 7166.085
825.413, 7142.172
825.895, 7136.755
826.377, 7148.939
826.859, 7141.878
827.341, 7103.927
827.823, 7045.914
828.305, 6963.281
828.787, 6857.912
829.269, 6786.632
829.752, 6755.229
830.234, 6715.413
830.716, 6626.648
831.198, 6511.903
831.680, 6409.727
832.162, 6321.859
832.644, 6249.848
833.127, 6212.850
833.609, 6177.737
834.091, 6122.141
834.573, 6043.409
835.055, 5974.606
835.537, 5917.972
836.019, 5864.734
836.501, 5807.678
836.983, 5749.989
837.466, 5716.123
837.948, 5667.315
838.430, 5653.783
838.912, 5631.678
839.394, 5601.482
839.876, 5538.907
840.358, 5518.137
840.840, 5480.618
841.322, 5442.408
841.805, 5427.514
842.287, 5369.652
842.769, 5352.108
843.251, 5332.800
843.733, 5337.074
844.215, 5341.133
844.697, 5325.935
845.179, 5303.583
845.661, 5307.650
846.144, 5332.271
846.626, 5345.178
847.108, 5313.235
847.590, 5278.411
848.072, 5262.960
848.554, 5267.327
849.036, 5279.050
849.518, 5304.373
850.000, 5323.827
850.483, 5327.693
850.965, 5320.972
851.447, 5324.392
851.929, 5337.098
852.411, 5350.045
852.893, 5356.129
853.375, 5361.912
853.857, 5374.231
854.340, 5391.879
854.822, 5409.756
855.304, 5431.537
855.786, 5446.816
856.268, 5446.702
856.750, 5438.691
857.232, 5446.742
857.714, 5446.598
858.196, 5489.470
858.679, 5521.902
859.161, 5544.458
859.643, 5527.527
860.125, 5561.578
860.607, 5575.198
861.089, 5598.930
861.571, 5605.646
862.054, 5616.658
862.536, 5628.977
863.018, 5635.358
863.500, 5632.637
863.982, 5631.241
864.464, 5631.008
864.946, 5636.528
865.428, 5665.837
865.910, 5711.589
866.393, 5742.514
866.875, 5735.900
867.357, 5726.512
867.839, 5741.419
868.321, 5771.247
868.803, 5799.415
869.285, 5819.047
869.767, 5842.484
870.250, 5874.238
870.732, 5907.037
871.214, 5927.228
871.696, 5935.262
872.178, 5940.670
872.660, 5943.594
873.142, 5950.374
873.624, 5973.270
874.106, 6002.832
874.589, 6024.275
875.071, 6020.263
875.553, 6029.992
876.035, 6079.013
876.517, 6134.893
876.999, 6164.239
877.481, 6160.385
877.963, 6169.515
878.445, 6196.531
878.928, 6232.200
879.410, 6271.670
879.892, 6310.865
880.374, 6339.252
880.856, 6352.714
881.338, 6369.174
881.820, 6406.478
882.302, 6444.413
882.784, 6464.014
883.267, 6457.018
883.749, 6463.488
884.231, 6486.974
884.713, 6513.964
885.195, 6534.563
885.677, 6549.672
886.159, 6559.800
886.641, 6565.120
887.123, 6545.104
887.606, 6567.348
888.088, 6579.334
888.570, 6581.613
889.052, 6545.110
889.534, 6558.006
890.016, 6585.292
890.498, 6616.033
890.981, 6625.044
891.463, 6616.906
891.945, 6617.400
892.427, 6626.360
892.909, 6642.963
893.391, 6665.254
893.873, 6695.632
894.355, 6697.640
894.837, 6741.505
895.320, 6775.210
895.802, 6799.299
896.284, 6798.935
896.766, 6817.792
897.248, 6865.728
897.730, 6913.498
898.212, 6960.606
898.694, 7004.585
899.177, 7048.012
899.659, 7082.258
900.141, 7080.629
900.623, 7063.544
901.105, 7074.691
901.587, 7152.831
902.069, 7230.645
902.551, 7297.765
903.033, 7356.251
903.516, 7406.449
903.998, 7447.311
904.480, 7494.756
904.962, 7550.724
905.444, 7616.359
905.926, 7698.208
906.408, 7790.191
906.890, 7882.523
907.372, 7979.542
907.855, 8064.705
908.337, 8115.559
908.819, 8164.661
909.301, 8244.047
909.783, 8365.321
910.265, 8459.529
910.747, 8521.604
911.229, 8566.519
911.711, 8609.838
912.194, 8645.194
912.676, 8663.953
913.158, 8665.098
913.640, 8644.521
914.122, 8596.884
914.604, 8529.187
915.086, 8445.765
915.568, 8346.994
916.050, 8228.370
916.533, 8084.645
917.015, 7947.113
917.497, 7846.091
917.979, 7761.167
918.461, 7639.013
918.943, 7488.002
919.425, 7352.060
919.907, 7263.609
920.390, 7185.331
920.872, 7105.919
921.354, 7021.861
921.836, 6919.342
922.318, 6788.669
922.800, 6674.616
923.282, 6587.870
923.764, 6528.614
924.247, 6506.691
924.729, 6511.228
925.211, 6514.175
925.693, 6517.650
926.175, 6498.760
926.657, 6440.063
927.139, 6354.525
927.621, 6262.982
928.104, 6160.687
928.586, 6065.230
929.068, 5977.081
929.550, 5901.500
930.032, 5842.595
930.514, 5801.205
930.996, 5783.725
931.478, 5795.973
931.960, 5800.592
932.443, 5765.560
932.925, 5723.090
933.407, 5698.637
933.889, 5693.833
934.371, 5698.103
934.853, 5714.551
935.335, 5728.831
935.817, 5730.111
936.299, 5722.056
936.782, 5709.896
937.264, 5695.310
937.746, 5688.695
938.228, 5700.402
938.710, 5717.088
939.192, 5735.159
939.674, 5752.928
940.156, 5763.367
940.638, 5765.224
941.121, 5764.387
941.603, 5762.033
942.085, 5759.072
942.567, 5757.902
943.049, 5757.595
943.531, 5743.932
944.013, 5753.996
944.495, 5758.301
944.978, 5757.155
945.460, 5734.235
945.942, 5739.433
946.424, 5733.361
946.906, 5726.829
947.388, 5735.983
947.870, 5716.230
948.352, 5723.597
948.834, 5711.603
949.317, 5707.382
949.799, 5711.047
950.281, 5707.963
950.763, 5680.040
951.245, 5653.097
951.727, 5644.192
952.209, 5654.390
952.692, 5665.644
953.174, 5679.731
953.656, 5682.172
954.138, 5657.708
954.620, 5618.605
955.102, 5582.447
955.584, 5549.705
956.066, 5520.227
956.548, 5483.625
957.031, 5463.125
957.513, 5474.478
957.995, 5503.463
958.477, 5513.098
958.959, 5501.276
959.441, 5496.662
959.923, 5508.447
960.405, 5525.400
960.888, 5520.754
961.370, 5515.262
961.852, 5514.137
962.334, 5537.265
962.816, 5554.506
963.298, 5566.176
963.780, 5555.594
964.262, 5573.358
964.744, 5595.919
965.227, 5616.721
965.709, 5633.897
966.191, 5646.804
966.673, 5648.826
967.155, 5650.498
967.637, 5662.667
968.119, 5685.958
968.601, 5714.705
969.083, 5756.584
969.566, 5791.206
970.048, 5810.635
970.530, 5817.992
971.012, 5820.807
971.494, 5820.343
971.976, 5826.622
972.458, 5846.007
972.940, 5871.385
973.422, 5895.983
973.905, 5923.017
974.387, 5958.586
974.869, 5971.991
975.351, 6003.727
975.833, 6031.010
976.315, 6054.082
976.797, 6066.448
977.279, 6087.777
977.761, 6114.387
978.244, 6145.657
978.726, 6176.664
979.208, 6201.155
979.690, 6225.840
980.172, 6259.564
980.654, 6304.453
981.136, 6330.042
981.619, 6334.360
982.101, 6325.533
982.583, 6302.535
983.065, 6272.394
983.547, 6253.354
984.029, 6241.506
984.511, 6223.013
984.993, 6175.007
985.475, 6137.712
985.958, 6142.036
986.440, 6160.286
986.922, 6143.444
987.404, 6085.723
987.886, 6038.738
988.368, 6012.738
988.850, 5989.962
989.332, 5951.050
989.815, 5901.525
990.297, 5847.288
990.779, 5787.185
991.261, 5732.822
991.743, 5686.985
992.225, 5647.474
992.707, 5615.180
993.189, 5589.667
993.671, 5557.326
994.154, 5518.554
994.636, 5481.407
995.118, 5455.823
995.600, 5429.782
996.082, 5380.821
996.564, 5321.533
997.046, 5297.506
997.528, 5274.005
998.010, 5265.609
998.493, 5253.541
998.975, 5238.009
999.457, 5208.617
999.939, 5197.121
1000.421, 5178.453
1000.903, 5159.495
1001.385, 5150.521
1001.867, 5123.149
1002.349, 5113.038
1002.832, 5095.259
1003.314, 5092.663
1003.796, 5081.699
1004.278, 5060.420
1004.760, 5041.803
1005.242, 5040.855
1005.724, 5045.162
1006.206, 5028.539
1006.689, 4996.818
1007.171, 4974.333
1007.653, 4980.819
1008.135, 4985.686
1008.617, 4982.522
1009.099, 4971.966
1009.581, 4951.109
1010.063, 4920.630
1010.545, 4903.790
1011.028, 4908.916
1011.510, 4913.481
1011.992, 4893.182
1012.474, 4862.041
1012.956, 4835.259
1013.438, 4816.773
1013.920, 4796.510
1014.402, 4771.611
1014.885, 4749.979
1015.367, 4736.082
1015.849, 4729.378
1016.331, 4727.842
1016.813, 4731.347
1017.295, 4738.996
1017.777, 4764.339
1018.259, 4778.918
1018.741, 4756.037
1019.224, 4715.750
1019.706, 4704.190
1020.188, 4730.424
1020.670, 4733.801
1021.152, 4700.221
1021.634, 4659.998
1022.116, 4646.752
1022.598, 4651.719
1023.081, 4665.216
1023.563, 4688.297
1024.045, 4702.655
1024.527, 4702.109
1025.009, 4693.627
1025.491, 4675.237
1025.973, 4650.651
1026.455, 4651.202
1026.938, 4673.913
1027.420, 4692.012
1027.902, 4693.867
1028.384, 4682.972
1028.866, 4649.480
1029.348, 4607.481
1029.830, 4586.491
1030.312, 4592.857
1030.794, 4607.142
1031.276, 4629.584
1031.759, 4653.338
1032.241, 4676.682
1032.723, 4693.599
1033.205, 4687.116
1033.687, 4654.272
1034.169, 4624.961
1034.651, 4607.029
1035.133, 4601.501
1035.616, 4612.759
1036.098, 4636.595
1036.580, 4645.930
1037.062, 4641.110
1037.544, 4637.881
1038.026, 4641.601
1038.508, 4651.371
1038.990, 4675.619
1039.473, 4702.272
1039.955, 4711.283
1040.437, 4692.629
1040.919, 4667.043
1041.401, 4630.238
1041.883, 4597.786
1042.365, 4585.637
1042.847, 4589.399
1043.329, 4600.550
1043.812, 4618.000
1044.294, 4635.609
1044.776, 4655.690
1045.258, 4669.208
1045.740, 4672.674
1046.222, 4667.392
1046.704, 4652.782
1047.186, 4628.352
1047.668, 4618.262
1048.151, 4633.438
1048.633, 4654.316
1049.115, 4667.439
1049.597, 4671.294
1050.079, 4661.134
1050.561, 4620.981
1051.043, 4611.650
1051.525, 4649.083
1052.008, 4682.350
1052.490, 4665.006
1052.972, 4616.846
1053.454, 4602.525
1053.936, 4615.330
1054.418, 4620.460
1054.900, 4581.370
1055.382, 4553.331
1055.865, 4566.586
1056.347, 4599.118
1056.829, 4615.911
1057.311, 4616.413
1057.793, 4615.624
1058.275, 4616.102
1058.757, 4613.425
1059.239, 4595.765
1059.721, 4577.761
1060.203, 4578.807
1060.686, 4604.748
1061.168, 4608.557
1061.650, 4578.484
1062.132, 4553.846
1062.614, 4553.480
1063.096, 4568.052
1063.578, 4558.813
1064.060, 4526.152
1064.543, 4554.335
1065.025, 4567.756
1065.507, 4567.200
1065.989, 4510.799
1066.471, 4526.511
1066.953, 4513.322
1067.435, 4498.948
1067.917, 4508.895
1068.400, 4520.496
1068.882, 4530.853
1069.364, 4506.308
1069.846, 4480.690
1070.328, 4484.002
1070.810, 4512.350
1071.292, 4531.709
1071.774, 4536.840
1072.256, 4548.366
1072.739, 4574.255
1073.221, 4599.954
1073.703, 4600.525
1074.185, 4587.009
1074.667, 4581.395
1075.149, 4592.510
1075.631, 4590.930
1076.113, 4550.391
1076.596, 4518.985
1077.078, 4527.193
1077.560, 4565.431
1078.042, 4576.775
1078.524, 4563.950
1079.006, 4545.430
1079.488, 4519.064
1079.970, 4502.610
1080.453, 4514.195
1080.935, 4538.695
1081.417, 4551.364
1081.899, 4549.418
1082.381, 4547.171
1082.863, 4544.515
1083.345, 4547.914
1083.827, 4574.039
1084.309, 4602.273
1084.792, 4602.018
1085.274, 4575.227
1085.756, 4565.853
1086.238, 4593.229
1086.720, 4612.573
1087.202, 4612.481
1087.684, 4599.464
1088.166, 4575.834
1088.648, 4550.264
1089.131, 4552.063
1089.613, 4527.167
1090.095, 4566.062
1090.577, 4589.474
1091.059, 4598.231
1091.541, 4548.449
1092.023, 4574.259
1092.505, 4569.775
1092.988, 4564.057
1093.470, 4600.506
1093.952, 4559.239
1094.434, 4595.019
1094.916, 4600.043
1095.398, 4619.144
1095.880, 4607.764
1096.362, 4605.799
1096.844, 4634.323
1097.327, 4645.973
1097.809, 4631.083
1098.291, 4651.079
1098.773, 4608.746
1099.255, 4621.108
1099.737, 4629.702
1100.219, 4617.548
1100.701, 4605.080
1101.183, 4631.437
1101.666, 4607.033
1102.148, 4631.842
1102.630, 4644.706
1103.112, 4646.267
1103.594, 4602.673
1104.076, 4617.388
1104.558, 4608.735
1105.040, 4599.124
1105.523, 4609.175
1106.005, 4623.110
1106.487, 4661.154
1106.969, 4672.743
1107.451, 4660.161
1107.933, 4654.303
1108.415, 4674.926
1108.897, 4697.701
1109.380, 4708.495
1109.862, 4709.083
1110.344, 4701.248
1110.826, 4682.029
1111.308, 4667.228
1111.790, 4657.390
1112.272, 4650.153
1112.754, 4644.250
1113.236, 4639.548
1113.719, 4629.340
1114.201, 4618.982
1114.683, 4632.068
1115.165, 4697.621
1115.647, 4739.141
1116.129, 4742.128
1116.611, 4726.946
1117.093, 4712.677
1117.575, 4704.202
1118.058, 4719.743
1118.540, 4763.286
1119.022, 4788.976
1119.504, 4765.434
1119.986, 4735.391
1120.468, 4711.336
1120.950, 4693.648
1121.432, 4685.121
1121.915, 4684.499
1122.397, 4684.311
1122.879, 4679.143
1123.361, 4682.815
1123.843, 4720.976
1124.325, 4757.557
1124.807, 4758.556
1125.289, 4721.717
1125.771, 4707.854
1126.254, 4717.187
1126.736, 4730.920
1127.218, 4738.903
1127.700, 4746.037
1128.182, 4757.148
1128.664, 4769.914
1129.146, 4780.111
1129.628, 4787.612
1130.110, 4791.436
1130.593, 4790.906
1131.075, 4789.094
1131.557, 4788.311
1132.039, 4788.095
1132.521, 4788.723
1133.003, 4789.691
1133.485, 4788.029
1133.967, 4781.075
1134.450, 4775.579
1134.932, 4772.041
1135.414, 4772.212
1135.896, 4780.208
1136.378, 4793.611
1136.860, 4810.487
1137.342, 4831.747
1137.824, 4838.799
1138.307, 4803.219
1138.789, 4778.895
1139.271, 4791.813
1139.753, 4824.608
1140.235, 4814.511
1140.717, 4775.272
1141.199, 4765.563
1141.681, 4818.712
1142.163, 4863.121
1142.646, 4857.502
1143.128, 4832.858
1143.610, 4807.809
1144.092, 4783.027
1144.574, 4777.146
1145.056, 4789.367
1145.538, 4808.102
1146.020, 4837.761
1146.502, 4859.918
1146.985, 4862.570
1147.467, 4850.438
1147.949, 4828.345
1148.431, 4790.440
1148.913, 4782.078
1149.395, 4806.535
1149.877, 4834.398
1150.359, 4838.695
1150.842, 4838.417
1151.324, 4807.317
1151.806, 4855.609
1152.288, 4884.628
1152.770, 4895.413
1153.252, 4833.341
1153.734, 4865.348
1154.216, 4859.652
1154.698, 4852.411
1155.181, 4897.667
1155.663, 4846.192
1156.145, 4890.607
1156.627, 4896.744
1157.109, 4920.400
1157.591, 4898.285
1158.073, 4899.530
1158.555, 4910.208
1159.037, 4924.045
1159.520, 4936.533
1160.002, 4937.319
1160.484, 4920.979
1160.966, 4910.293
1161.448, 4910.458
1161.930, 4914.835
1162.412, 4921.414
1162.894, 4929.391
1163.377, 4938.898
1163.859, 4947.700
1164.341, 4948.706
1164.823, 4933.697
1165.305, 4922.131
1165.787, 4905.193
1166.269, 4891.342
1166.751, 4915.960
1167.234, 4931.249
1167.716, 4937.692
1168.198, 4908.833
1168.680, 4925.562
1169.162, 4924.020
1169.644, 4921.730
1170.126, 4944.874
1170.608, 4938.105
1171.090, 4933.021
1171.573, 4938.938
1172.055, 4948.208
1172.537, 4960.022
1173.019, 4970.283
1173.501, 4985.393
1173.983, 4988.252
1174.465, 4951.045
1174.947, 4902.562
1175.430, 4899.251
1175.912, 4941.210
1176.394, 4973.456
1176.876, 4989.126
1177.358, 4990.506
1177.840, 4965.475
1178.322, 4939.504
1178.804, 4929.579
1179.286, 4934.608
1179.769, 4951.349
1180.251, 4980.602
1180.733, 5011.589
1181.215, 5046.111
1181.697, 5062.513
1182.179, 5011.897
1182.661, 4954.074
1183.143, 4953.911
1183.625, 5011.796
1184.108, 5053.696
1184.590, 5080.210
1185.072, 5084.897
1185.554, 5056.676
1186.036, 5026.094
1186.518, 5029.255
1187.000, 5047.373
1187.482, 5057.001
1187.965, 5054.008
1188.447, 5052.718
1188.929, 5052.982
1189.411, 5056.534
1189.893, 5066.956
1190.375, 5078.116
1190.857, 5078.670
1191.339, 5075.875
1191.822, 5083.701
1192.304, 5116.544
1192.786, 5124.227
1193.268, 5101.141
1193.750, 5079.117
1194.232, 5081.806
1194.714, 5098.204
1195.196, 5123.973
1195.678, 5150.469
1196.161, 5153.693
1196.643, 5115.135
1197.125, 5087.274
1197.607, 5072.008
1198.089, 5070.492
1198.571, 5093.804
1199.053, 5125.326
1199.535, 5140.428
1200.017, 5141.854
1200.500, 5145.982
1200.982, 5163.316
1201.464, 5164.551
1201.946, 5141.710
1202.428, 5115.846
1202.910, 5106.584
1203.392, 5113.102
1203.874, 5146.878
1204.357, 5203.135
1204.839, 5225.776
1205.321, 5188.254
1205.803, 5158.956
1206.285, 5150.751
1206.767, 5157.918
1207.249, 5183.223
1207.731, 5213.205
1208.214, 5214.372
1208.696, 5180.633
1209.178, 5203.095
1209.660, 5199.565
1210.142, 5225.620
1210.624, 5244.496
1211.106, 5256.573
1211.588, 5251.361
1212.070, 5247.529
1212.552, 5262.352
1213.035, 5299.446
1213.517, 5306.485
1213.999, 5258.112
1214.481, 5232.090
1214.963, 5271.855
1215.445, 5332.149
1215.927, 5323.352
1216.409, 5275.282
1216.892, 5239.120
1217.374, 5226.259
1217.856, 5232.150
1218.338, 5261.983
1218.820, 5293.468
1219.302, 5318.018
1219.784, 5333.582
1220.266, 5327.476
1220.749, 5311.199
1221.231, 5309.315
1221.713, 5343.202
1222.195, 5356.655
1222.677, 5340.560
1223.159, 5322.587
1223.641, 5321.409
1224.123, 5329.707
1224.605, 5334.131
1225.088, 5336.670
1225.570, 5342.074
1226.052, 5352.498
1226.534, 5365.068
1227.016, 5380.606
1227.498, 5395.690
1227.980, 5409.521
1228.462, 5419.953
1228.944, 5421.867
1229.427, 5417.560
1229.909, 5413.386
1230.391, 5405.877
1230.873, 5409.581
1231.355, 5427.904
1231.837, 5448.644
1232.319, 5459.295
1232.801, 5466.137
1233.284, 5480.793
1233.766, 5499.991
1234.248, 5510.071
1234.730, 5507.573
1235.212, 5498.207
1235.694, 5479.993
1236.176, 5464.806
1236.658, 5466.762
1237.141, 5476.863
1237.623, 5483.692
1238.105, 5487.713
1238.587, 5495.256
1239.069, 5507.333
1239.551, 5521.645
1240.033, 5539.088
1240.515, 5552.914
1240.997, 5549.257
1241.479, 5542.981
1241.962, 5552.879
1242.444, 5577.762
1242.926, 5599.711
1243.408, 5620.500
1243.890, 5624.361
1244.372, 5605.297
1244.854, 5584.401
1245.336, 5581.432
1245.819, 5589.972
1246.301, 5611.260
1246.783, 5640.564
1247.265, 5646.039
1247.747, 5624.063
1248.229, 5599.989
1248.711, 5577.363
1249.193, 5562.034
1249.676, 5565.459
1250.158, 5574.386
1250.640, 5571.101
1251.122, 5560.119
1251.604, 5580.151
1252.086, 5633.460
1252.568, 5671.548
1253.050, 5681.408
1253.532, 5676.819
1254.015, 5657.356
1254.497, 5638.871
1254.979, 5632.684
1255.461, 5638.770
1255.943, 5666.666
1256.425, 5714.213
1256.907, 5740.739
1257.389, 5729.980
1257.871, 5711.674
1258.354, 5697.509
1258.836, 5691.820
1259.318, 5700.946
1259.800, 5719.806
1260.282, 5717.071
1260.764, 5696.900
1261.246, 5687.544
1261.728, 5700.427
1262.211, 5716.078
1262.693, 5727.619
1263.175, 5735.753
1263.657, 5741.140
1264.139, 5743.884
1264.621, 5740.210
1265.103, 5733.490
1265.585, 5737.657
1266.068, 5764.855
1266.550, 5781.650
1267.032, 5763.240
1267.514, 5749.074
1267.996, 5762.830
1268.478, 5793.773
1268.960, 5807.814
1269.442, 5809.962
1269.924, 5813.394
1270.407, 5820.630
1270.889, 5833.251
1271.371, 5854.843
1271.853, 5872.991
1272.335, 5876.000
1272.817, 5874.235
1273.299, 5896.669
1273.781, 5930.034
1274.264, 5947.082
1274.746, 5934.252
1275.228, 5915.872
1275.710, 5887.972
1276.192, 5871.909
1276.674, 5885.354
1277.156, 5912.498
1277.638, 5937.500
1278.120, 5956.593
1278.603, 5960.880
1279.085, 5943.048
1279.567, 5930.882
1280.049, 5923.911
1280.531, 5926.856
1281.013, 5953.475
1281.495, 5978.570
1281.977, 5967.014
1282.459, 5941.311
1282.942, 5936.304
1283.424, 5956.841
1283.906, 5969.135
1284.388, 5973.071
1284.870, 5974.551
1285.352, 5978.166
1285.834, 5978.718
1286.316, 5960.961
##END=



