##NAMES=Sapphirine
##RRUFFID=R100143
##IDEAL CHEMISTRY=Mg_4_(Mg_3_Al_9_)O_4_[Si_3_Al_9_O_36_]
##LOCALITY=Unknown
##OWNER=RRUFF
##SOURCE=William W. Pinch
##DESCRIPTION=Pale purple cut gemstones
##STATUS=The identification of this mineral has been confirmed by single-crystal X-ray diffraction.
##URL=rruff.info/R100143
91.03516, 254.5619
91.51727, 254.4460
91.99939, 254.9913
92.48151, 255.7900
92.96362, 255.6805
93.44574, 252.8099
93.92786, 248.7393
94.40997, 247.1368
94.89210, 248.7095
95.37421, 251.3826
95.85633, 252.3046
96.33845, 251.5222
96.82056, 249.7786
97.30268, 246.7309
97.78480, 242.6481
98.26691, 240.4131
98.74903, 240.9527
99.23115, 243.1399
99.71326, 243.5234
100.1954, 241.6695
100.6775, 239.6628
101.1596, 239.4830
101.6417, 241.6807
102.1239, 242.9411
102.6060, 242.3340
103.0881, 240.0140
103.5702, 238.8393
104.0523, 239.3721
104.5344, 240.3519
105.0166, 240.4205
105.4987, 239.1149
105.9808, 237.7082
106.4629, 236.4366
106.9450, 235.2594
107.4271, 234.3414
107.9093, 233.5099
108.3914, 232.9930
108.8735, 233.1377
109.3556, 234.8436
109.8377, 236.3734
110.3198, 237.2087
110.8020, 236.8279
111.2841, 236.7485
111.7662, 237.6828
112.2483, 238.9635
112.7304, 239.1309
113.2125, 237.1778
113.6947, 234.6511
114.1768, 232.2352
114.6589, 229.3401
115.1410, 227.4094
115.6231, 227.2350
116.1052, 228.4391
116.5874, 229.5900
117.0695, 230.3304
117.5516, 230.7558
118.0337, 230.9340
118.5158, 231.0238
118.9980, 230.7551
119.4801, 229.5891
119.9622, 227.6496
120.4443, 226.3027
120.9264, 227.1659
121.4085, 228.8423
121.8907, 229.6141
122.3728, 227.4342
122.8549, 224.9238
123.3370, 224.5815
123.8191, 226.5551
124.3012, 228.6226
124.7834, 228.8014
125.2655, 227.7365
125.7476, 226.8063
126.2297, 227.1291
126.7118, 227.8432
127.1939, 227.6560
127.6761, 226.4129
128.1582, 224.6475
128.6403, 221.8417
129.1224, 218.5415
129.6045, 217.3796
130.0867, 222.2457
130.5688, 230.8158
131.0509, 234.8704
131.5330, 232.8219
132.0151, 227.9789
132.4972, 225.3399
132.9794, 224.9060
133.4615, 226.2392
133.9436, 229.9334
134.4257, 235.7806
134.9078, 240.2360
135.3899, 242.2359
135.8721, 243.0359
136.3542, 246.4837
136.8363, 252.9606
137.3184, 260.4242
137.8005, 267.2960
138.2826, 273.5822
138.7648, 279.6352
139.2469, 285.2812
139.7290, 290.7199
140.2111, 297.0378
140.6932, 304.3833
141.1753, 312.4357
141.6575, 320.9572
142.1396, 330.3646
142.6217, 339.3808
143.1038, 347.9431
143.5859, 356.1782
144.0681, 362.6166
144.5502, 366.3146
145.0323, 369.1071
145.5144, 373.1267
145.9965, 378.4783
146.4786, 384.8670
146.9608, 391.9570
147.4429, 399.6011
147.9250, 409.1659
148.4071, 422.6896
148.8892, 437.4073
149.3713, 448.8578
149.8535, 451.7646
150.3356, 456.7609
150.8177, 467.0266
151.2998, 485.1366
151.7819, 502.9544
152.2640, 521.3264
152.7462, 539.3954
153.2283, 555.2523
153.7104, 566.4997
154.1925, 577.3963
154.6746, 589.4999
155.1567, 604.0035
155.6389, 617.5549
156.1210, 629.3295
156.6031, 639.8873
157.0852, 650.7418
157.5673, 663.3913
158.0495, 675.5240
158.5316, 685.9432
159.0137, 692.3929
159.4958, 699.9427
159.9779, 710.3663
160.4600, 723.0695
160.9422, 736.1114
161.4243, 748.9559
161.9064, 761.8546
162.3885, 774.9040
162.8706, 788.1129
163.3527, 801.7106
163.8349, 816.3602
164.3170, 831.7863
164.7991, 846.6727
165.2812, 862.0693
165.7633, 875.9290
166.2454, 886.3348
166.7276, 890.1501
167.2097, 892.6662
167.6918, 896.7991
168.1739, 902.3895
168.6560, 908.4066
169.1381, 915.4473
169.6203, 921.8992
170.1024, 920.1097
170.5845, 910.4257
171.0666, 900.8597
171.5487, 896.2986
172.0309, 896.3622
172.5130, 895.9254
172.9951, 891.7675
173.4772, 884.8046
173.9593, 876.3864
174.4414, 866.2136
174.9236, 855.3438
175.4057, 844.9167
175.8878, 834.8231
176.3699, 825.2656
176.8520, 816.9893
177.3341, 809.2785
177.8163, 800.5473
178.2984, 788.9235
178.7805, 776.3502
179.2626, 765.6420
179.7447, 757.0380
180.2268, 749.7909
180.7090, 744.0146
181.1911, 739.2582
181.6732, 734.1960
182.1553, 726.9794
182.6374, 719.2080
183.1195, 715.0505
183.6017, 714.9802
184.0838, 715.9584
184.5659, 714.2922
185.0480, 710.4439
185.5301, 706.6572
186.0123, 703.9386
186.4944, 702.1041
186.9765, 700.6639
187.4586, 699.5358
187.9407, 698.9221
188.4228, 699.5966
188.9050, 701.3896
189.3871, 702.5663
189.8692, 701.9274
190.3513, 699.8137
190.8334, 697.7467
191.3155, 695.6718
191.7977, 694.0163
192.2798, 693.6129
192.7619, 694.4603
193.2440, 695.6575
193.7261, 697.0023
194.2082, 698.4434
194.6904, 699.1158
195.1725, 698.6374
195.6546, 698.0479
196.1367, 699.6013
196.6188, 703.4589
197.1009, 707.3350
197.5831, 709.8524
198.0652, 711.0391
198.5473, 712.3186
199.0294, 713.4001
199.5115, 715.1005
199.9937, 719.6840
200.4758, 727.5256
200.9579, 735.3788
201.4400, 741.1243
201.9221, 744.5616
202.4042, 748.7679
202.8864, 754.2228
203.3685, 760.2154
203.8506, 764.7169
204.3327, 767.1506
204.8148, 770.2261
205.2969, 775.8606
205.7791, 784.5488
206.2612, 792.1075
206.7433, 798.0663
207.2254, 802.9407
207.7075, 807.8585
208.1896, 812.6560
208.6718, 818.0162
209.1539, 824.4928
209.6360, 832.2156
210.1181, 840.1789
210.6002, 848.5784
211.0823, 857.0706
211.5645, 864.5811
212.0466, 870.8690
212.5287, 876.8746
213.0108, 883.0724
213.4929, 889.5409
213.9750, 896.0843
214.4572, 902.7269
214.9393, 909.4187
215.4214, 916.3455
215.9035, 923.8984
216.3856, 930.9377
216.8678, 936.7475
217.3499, 941.3361
217.8320, 944.9291
218.3141, 947.6424
218.7962, 949.2869
219.2783, 949.3864
219.7605, 948.3439
220.2426, 944.9702
220.7247, 937.9785
221.2068, 925.3343
221.6889, 915.0912
222.1710, 908.7307
222.6532, 904.7518
223.1353, 898.6122
223.6174, 889.4426
224.0995, 879.4870
224.5816, 869.5284
225.0637, 858.4434
225.5459, 850.1782
226.0280, 845.9974
226.5101, 844.4406
226.9922, 840.9379
227.4743, 833.7634
227.9564, 827.3093
228.4386, 824.1049
228.9207, 826.6980
229.4028, 826.3135
229.8849, 821.4514
230.3670, 813.8571
230.8492, 808.2960
231.3313, 805.4947
231.8134, 803.6940
232.2955, 802.3555
232.7776, 802.4981
233.2597, 800.7125
233.7419, 796.2261
234.2240, 790.0237
234.7061, 784.6864
235.1882, 780.1364
235.6703, 776.6010
236.1524, 774.2972
236.6346, 773.9607
237.1167, 773.2209
237.5988, 771.9982
238.0809, 770.4079
238.5630, 768.6326
239.0451, 766.4219
239.5273, 764.3998
240.0094, 762.7950
240.4915, 761.6053
240.9736, 760.8760
241.4557, 761.1561
241.9378, 761.6264
242.4200, 760.2783
242.9021, 755.0658
243.3842, 751.1987
243.8663, 751.2432
244.3484, 757.5949
244.8306, 760.5308
245.3127, 758.6623
245.7948, 754.1028
246.2769, 750.6586
246.7590, 748.6866
247.2411, 747.3058
247.7233, 746.4714
248.2054, 746.6686
248.6875, 745.4506
249.1696, 741.7891
249.6517, 737.4266
250.1338, 735.3200
250.6160, 736.4808
251.0981, 738.1188
251.5802, 739.6508
252.0623, 741.3729
252.5444, 741.3334
253.0265, 738.3707
253.5087, 734.6075
253.9908, 733.2789
254.4729, 735.6024
254.9550, 737.8995
255.4371, 739.3381
255.9192, 739.9539
256.4014, 739.1068
256.8835, 735.5647
257.3656, 731.7810
257.8477, 731.1412
258.3298, 735.7501
258.8120, 738.7205
259.2941, 737.8662
259.7762, 732.8779
260.2583, 729.2831
260.7404, 727.8942
261.2225, 726.8262
261.7047, 723.7719
262.1868, 717.7258
262.6689, 712.3024
263.1510, 708.5406
263.6331, 706.3939
264.1152, 702.9200
264.5974, 697.5758
265.0795, 691.7695
265.5616, 687.1198
266.0437, 684.0324
266.5258, 680.4847
267.0079, 675.7907
267.4901, 670.1794
267.9722, 666.3108
268.4543, 664.9776
268.9364, 663.7570
269.4185, 660.1484
269.9006, 653.1738
270.3828, 648.2298
270.8649, 646.6222
271.3470, 647.5941
271.8291, 647.5388
272.3112, 646.2262
272.7933, 644.4370
273.2755, 642.6124
273.7576, 640.6805
274.2397, 639.1046
274.7218, 638.0341
275.2039, 637.2940
275.6860, 636.1987
276.1682, 634.5075
276.6503, 633.3284
277.1324, 633.8807
277.6145, 636.4093
278.0966, 637.2178
278.5787, 635.4200
279.0609, 632.5114
279.5430, 632.1917
280.0251, 634.9587
280.5072, 637.3724
280.9893, 637.1924
281.4715, 634.4464
281.9536, 632.3664
282.4357, 630.9944
282.9178, 630.4982
283.3999, 631.5248
283.8820, 634.1510
284.3642, 636.7145
284.8463, 638.1890
285.3284, 638.7075
285.8105, 640.0748
286.2926, 642.5213
286.7747, 645.0612
287.2569, 645.9810
287.7390, 645.3508
288.2211, 645.2716
288.7032, 647.1326
289.1853, 650.3213
289.6674, 651.7881
290.1496, 651.2936
290.6317, 650.7343
291.1138, 652.5934
291.5959, 656.5408
292.0780, 660.1578
292.5602, 662.6179
293.0423, 664.2659
293.5244, 665.7432
294.0065, 667.0266
294.4886, 668.6719
294.9707, 671.7853
295.4529, 675.8438
295.9350, 678.7969
296.4171, 679.6681
296.8992, 679.6119
297.3813, 680.6796
297.8634, 682.7867
298.3456, 685.0646
298.8277, 686.5237
299.3098, 687.6612
299.7919, 689.6791
300.2740, 693.0996
300.7561, 696.9835
301.2383, 700.3411
301.7204, 703.1622
302.2025, 705.1513
302.6846, 705.4558
303.1667, 705.0247
303.6488, 705.4437
304.1310, 707.2030
304.6131, 709.0332
305.0952, 709.9110
305.5773, 709.8718
306.0594, 709.0169
306.5415, 706.0506
307.0237, 702.9570
307.5058, 702.0433
307.9879, 703.7471
308.4700, 706.1349
308.9521, 708.4404
309.4343, 710.3510
309.9164, 711.3861
310.3985, 710.7874
310.8806, 709.6114
311.3627, 708.4720
311.8448, 707.3859
312.3270, 706.7092
312.8091, 706.6542
313.2912, 707.1273
313.7733, 708.0180
314.2554, 709.7028
314.7375, 711.4393
315.2197, 712.8381
315.7018, 713.9372
316.1839, 714.9711
316.6660, 715.8321
317.1481, 716.7928
317.6302, 718.1016
318.1124, 720.5505
318.5945, 722.4526
319.0766, 722.2075
319.5587, 720.7185
320.0408, 721.0989
320.5229, 727.1240
321.0051, 733.3228
321.4872, 736.3320
321.9693, 733.1119
322.4514, 731.3879
322.9335, 732.7803
323.4156, 736.6988
323.8978, 742.0059
324.3799, 751.1616
324.8620, 759.3690
325.3441, 764.8134
325.8262, 766.6500
326.3083, 767.8203
326.7905, 767.5803
327.2726, 767.1057
327.7547, 767.8399
328.2368, 771.3569
328.7189, 774.4971
329.2010, 776.4318
329.6832, 776.9739
330.1653, 778.2711
330.6474, 781.6909
331.1295, 784.8795
331.6116, 785.7068
332.0938, 781.0346
332.5759, 779.1530
333.0580, 782.8334
333.5401, 790.8998
334.0222, 793.9174
334.5043, 788.7285
334.9865, 782.8815
335.4686, 781.2157
335.9507, 785.9434
336.4328, 788.7912
336.9149, 788.9377
337.3970, 787.1358
337.8792, 785.2100
338.3613, 782.8918
338.8434, 781.1331
339.3255, 780.6085
339.8076, 781.5776
340.2898, 781.6501
340.7719, 780.4342
341.2540, 779.0195
341.7361, 779.4619
342.2182, 782.0544
342.7003, 783.6716
343.1825, 782.8876
343.6646, 780.0873
344.1467, 777.6810
344.6288, 775.5713
345.1109, 774.2253
345.5930, 774.4232
346.0752, 776.0135
346.5573, 777.5533
347.0394, 778.8123
347.5215, 779.7009
348.0036, 779.6771
348.4857, 778.7690
348.9679, 778.3065
349.4500, 780.0433
349.9321, 783.0558
350.4142, 784.3677
350.8963, 782.9979
351.3784, 781.1780
351.8606, 782.3564
352.3427, 785.7584
352.8248, 788.5462
353.3069, 788.1846
353.7890, 786.5976
354.2711, 786.5593
354.7533, 788.4152
355.2354, 790.5916
355.7175, 792.1807
356.1996, 793.1100
356.6817, 793.2507
357.1638, 790.9222
357.6460, 788.9634
358.1281, 790.0218
358.6102, 793.8871
359.0923, 797.7651
359.5744, 799.9443
360.0565, 801.3942
360.5387, 803.0538
361.0208, 805.3038
361.5029, 807.6707
361.9850, 809.9156
362.4671, 812.0991
362.9492, 814.3752
363.4314, 816.4880
363.9135, 818.9366
364.3956, 822.2454
364.8777, 827.3624
365.3598, 831.2572
365.8419, 831.6834
366.3241, 830.8646
366.8062, 832.1341
367.2883, 837.2734
367.7704, 843.2687
368.2526, 849.6592
368.7347, 856.6590
369.2168, 862.7339
369.6989, 867.2249
370.1810, 871.2106
370.6631, 875.6268
371.1453, 880.8085
371.6274, 885.9384
372.1095, 891.0023
372.5916, 895.9993
373.0737, 900.6807
373.5558, 904.7123
374.0380, 908.9757
374.5201, 914.2342
375.0022, 921.0687
375.4843, 926.7162
375.9664, 930.7614
376.4485, 933.8593
376.9307, 937.2181
377.4128, 940.6841
377.8949, 944.9576
378.3770, 950.6423
378.8591, 957.6065
379.3412, 963.9687
379.8234, 969.8336
380.3055, 974.5372
380.7876, 976.6156
381.2697, 976.2565
381.7518, 976.4355
382.2339, 978.0140
382.7161, 980.5690
383.1982, 983.3920
383.6803, 986.4467
384.1624, 989.2851
384.6445, 991.3457
385.1266, 992.9180
385.6088, 994.6778
386.0909, 996.6876
386.5730, 999.0148
387.0551, 1002.070
387.5372, 1005.535
388.0193, 1008.543
388.5015, 1010.183
388.9836, 1011.343
389.4657, 1012.763
389.9478, 1014.464
390.4299, 1016.884
390.9120, 1020.840
391.3942, 1025.527
391.8763, 1029.908
392.3584, 1034.002
392.8405, 1037.346
393.3226, 1039.046
393.8047, 1039.547
394.2869, 1040.878
394.7690, 1044.641
395.2511, 1048.928
395.7332, 1052.474
396.2154, 1054.431
396.6975, 1057.000
397.1796, 1061.635
397.6617, 1067.053
398.1438, 1071.026
398.6259, 1071.789
399.1081, 1072.547
399.5902, 1074.366
400.0723, 1077.520
400.5544, 1079.835
401.0365, 1080.893
401.5186, 1081.399
402.0008, 1081.792
402.4829, 1081.369
402.9650, 1082.198
403.4471, 1085.042
403.9292, 1089.308
404.4113, 1092.562
404.8935, 1094.896
405.3756, 1096.078
405.8577, 1095.877
406.3398, 1094.198
406.8219, 1091.682
407.3040, 1087.865
407.7862, 1084.138
408.2683, 1082.972
408.7504, 1084.478
409.2325, 1085.260
409.7146, 1083.477
410.1967, 1080.288
410.6789, 1079.876
411.1610, 1082.348
411.6431, 1085.107
412.1252, 1086.344
412.6073, 1086.115
413.0894, 1084.300
413.5716, 1080.521
414.0537, 1076.023
414.5358, 1071.425
415.0179, 1067.199
415.5000, 1064.760
415.9821, 1067.068
416.4643, 1070.372
416.9464, 1070.533
417.4285, 1067.076
417.9106, 1062.764
418.3927, 1058.710
418.8748, 1055.010
419.3570, 1051.857
419.8391, 1049.490
420.3212, 1047.466
420.8033, 1045.917
421.2854, 1044.669
421.7675, 1042.864
422.2497, 1039.957
422.7318, 1036.663
423.2139, 1033.422
423.6960, 1030.540
424.1781, 1027.215
424.6602, 1022.777
425.1424, 1018.036
425.6245, 1014.212
426.1066, 1011.676
426.5887, 1009.673
427.0709, 1008.387
427.5530, 1007.811
428.0351, 1006.184
428.5172, 1002.867
428.9993, 999.3187
429.4814, 996.8050
429.9636, 995.9073
430.4457, 993.6042
430.9278, 989.1523
431.4099, 983.6476
431.8920, 979.2267
432.3741, 975.8051
432.8563, 973.8470
433.3384, 974.1580
433.8205, 976.3383
434.3026, 977.5354
434.7847, 977.6530
435.2668, 977.6173
435.7490, 978.9593
436.2311, 981.0673
436.7132, 981.5094
437.1953, 978.8337
437.6774, 975.3568
438.1595, 974.2856
438.6417, 975.1965
439.1238, 976.3323
439.6059, 977.2966
440.0880, 977.6168
440.5701, 976.2686
441.0522, 972.7994
441.5344, 970.1345
442.0165, 970.7768
442.4986, 973.0629
442.9807, 974.9554
443.4628, 975.7916
443.9449, 976.0983
444.4271, 975.5244
444.9092, 974.3527
445.3913, 974.1603
445.8734, 976.3037
446.3555, 978.7711
446.8376, 980.4737
447.3198, 980.4924
447.8019, 981.4413
448.2840, 984.3085
448.7661, 987.7219
449.2482, 989.6857
449.7303, 989.1248
450.2125, 988.9071
450.6946, 989.6229
451.1767, 991.2455
451.6588, 993.2977
452.1409, 995.9348
452.6230, 998.6900
453.1052, 1001.026
453.5873, 1002.875
454.0694, 1005.639
454.5515, 1009.621
455.0337, 1014.132
455.5158, 1017.768
455.9979, 1020.639
456.4800, 1023.930
456.9621, 1028.380
457.4442, 1033.566
457.9264, 1038.499
458.4085, 1043.178
458.8906, 1048.037
459.3727, 1053.265
459.8548, 1058.921
460.3369, 1065.154
460.8191, 1072.450
461.3012, 1079.445
461.7833, 1084.523
462.2654, 1088.531
462.7475, 1093.190
463.2296, 1099.481
463.7118, 1106.508
464.1939, 1114.179
464.6760, 1122.557
465.1581, 1130.062
465.6402, 1134.637
466.1223, 1139.018
466.6045, 1145.067
467.0866, 1157.253
467.5687, 1165.802
468.0508, 1167.163
468.5329, 1164.866
469.0150, 1167.097
469.4972, 1177.747
469.9793, 1186.957
470.4614, 1191.215
470.9435, 1190.244
471.4256, 1190.102
471.9077, 1191.044
472.3899, 1192.350
472.8720, 1193.577
473.3541, 1194.799
473.8362, 1195.165
474.3183, 1194.324
474.8004, 1192.955
475.2826, 1192.832
475.7647, 1193.801
476.2468, 1193.682
476.7289, 1190.934
477.2110, 1186.369
477.6931, 1181.626
478.1753, 1176.698
478.6574, 1171.901
479.1395, 1168.057
479.6216, 1164.352
480.1037, 1159.381
480.5858, 1151.875
481.0680, 1144.704
481.5501, 1140.266
482.0322, 1137.588
482.5143, 1134.680
482.9964, 1130.088
483.4786, 1125.697
483.9607, 1122.478
484.4428, 1120.595
484.9249, 1118.888
485.4070, 1117.601
485.8892, 1116.159
486.3713, 1114.085
486.8534, 1109.594
487.3355, 1107.170
487.8176, 1107.757
488.2997, 1110.186
488.7819, 1112.015
489.2640, 1113.012
489.7461, 1113.898
490.2282, 1114.812
490.7103, 1115.770
491.1924, 1117.003
491.6746, 1118.503
492.1567, 1120.282
492.6388, 1122.692
493.1209, 1125.587
493.6030, 1127.433
494.0851, 1127.934
494.5673, 1127.643
495.0494, 1127.202
495.5315, 1126.610
496.0136, 1125.891
496.4957, 1124.943
496.9778, 1123.944
497.4600, 1122.719
497.9421, 1121.394
498.4242, 1121.017
498.9063, 1124.958
499.3884, 1128.573
499.8705, 1127.116
500.3527, 1116.998
500.8348, 1108.472
501.3169, 1107.868
501.7990, 1110.430
502.2811, 1109.434
502.7632, 1099.984
503.2454, 1090.892
503.7275, 1084.299
504.2096, 1079.976
504.6917, 1074.940
505.1738, 1068.841
505.6559, 1062.618
506.1381, 1056.817
506.6202, 1051.519
507.1023, 1046.460
507.5844, 1041.865
508.0665, 1037.147
508.5486, 1030.915
509.0308, 1023.066
509.5129, 1017.559
509.9950, 1016.489
510.4771, 1017.232
510.9592, 1013.290
511.4413, 1005.157
511.9235, 997.6124
512.4056, 994.2352
512.8877, 993.1303
513.3698, 991.4006
513.8519, 988.7744
514.3340, 986.2978
514.8162, 984.9416
515.2983, 984.1016
515.7804, 983.0400
516.2625, 981.1482
516.7446, 979.5165
517.2267, 979.4675
517.7089, 980.0648
518.1910, 978.9745
518.6731, 973.3431
519.1552, 968.1774
519.6373, 965.1688
520.1194, 964.3481
520.6016, 965.0413
521.0837, 968.6024
521.5658, 972.1396
522.0479, 973.4543
522.5300, 971.9381
523.0121, 970.2184
523.4943, 968.2072
523.9764, 966.4050
524.4585, 965.9111
524.9406, 966.7603
525.4227, 967.5954
525.9048, 967.8094
526.3870, 967.7394
526.8691, 968.5848
527.3513, 970.2526
527.8334, 971.2706
528.3155, 969.2731
528.7976, 966.4528
529.2797, 966.4615
529.7618, 970.1940
530.2440, 973.9174
530.7261, 974.7177
531.2082, 974.0066
531.6903, 973.5784
532.1724, 974.1458
532.6545, 974.9357
533.1367, 975.9241
533.6188, 976.9760
534.1009, 977.6606
534.5830, 977.2581
535.0651, 977.1155
535.5472, 977.8860
536.0294, 979.8376
536.5115, 980.7751
536.9936, 980.2555
537.4757, 979.3514
537.9578, 978.7867
538.4399, 978.4747
538.9221, 979.1025
539.4042, 980.8954
539.8863, 983.3995
540.3684, 986.2466
540.8505, 989.3364
541.3326, 991.4163
541.8148, 991.1237
542.2969, 990.0158
542.7790, 991.0945
543.2611, 994.1381
543.7432, 997.3796
544.2253, 999.6118
544.7075, 1001.443
545.1896, 1003.639
545.6717, 1006.461
546.1538, 1008.764
546.6359, 1009.094
547.1180, 1008.996
547.6002, 1010.113
548.0823, 1014.066
548.5644, 1017.836
549.0465, 1020.104
549.5286, 1021.778
550.0107, 1025.657
550.4929, 1033.865
550.9750, 1041.039
551.4571, 1045.039
551.9392, 1045.852
552.4213, 1048.247
552.9034, 1052.711
553.3856, 1057.250
553.8677, 1059.461
554.3498, 1059.711
554.8319, 1062.959
555.3140, 1070.220
555.7961, 1078.615
556.2783, 1084.779
556.7604, 1089.029
557.2425, 1092.058
557.7246, 1093.077
558.2067, 1094.108
558.6888, 1097.451
559.1710, 1102.546
559.6531, 1107.458
560.1352, 1110.829
560.6173, 1114.043
561.0994, 1118.120
561.5815, 1123.365
562.0637, 1127.695
562.5458, 1130.457
563.0279, 1132.290
563.5100, 1133.710
563.9921, 1134.690
564.4742, 1135.218
564.9564, 1134.893
565.4385, 1134.398
565.9206, 1135.042
566.4027, 1137.070
566.8848, 1138.993
567.3669, 1140.643
567.8491, 1141.732
568.3312, 1140.893
568.8133, 1138.201
569.2954, 1135.487
569.7775, 1134.738
570.2596, 1134.560
570.7418, 1131.965
571.2239, 1126.684
571.7060, 1121.541
572.1881, 1117.884
572.6702, 1115.885
573.1523, 1115.918
573.6345, 1119.262
574.1166, 1122.505
574.5987, 1124.080
575.0808, 1124.771
575.5629, 1125.904
576.0450, 1127.613
576.5272, 1129.859
577.0093, 1132.802
577.4914, 1136.313
577.9735, 1139.468
578.4556, 1141.618
578.9377, 1144.734
579.4199, 1150.342
579.9020, 1158.447
580.3841, 1165.020
580.8662, 1169.763
581.3483, 1174.541
581.8304, 1181.457
582.3126, 1189.950
582.7947, 1198.062
583.2768, 1205.408
583.7589, 1212.360
584.2410, 1218.947
584.7231, 1225.450
585.2053, 1232.428
585.6874, 1240.888
586.1696, 1249.130
586.6517, 1255.703
587.1338, 1261.070
587.6159, 1267.371
588.0980, 1277.968
588.5801, 1287.055
589.0623, 1291.651
589.5444, 1291.068
590.0265, 1290.755
590.5086, 1291.051
590.9907, 1291.197
591.4728, 1290.991
591.9550, 1290.798
592.4371, 1287.974
592.9192, 1282.125
593.4013, 1274.273
593.8834, 1265.574
594.3655, 1256.112
594.8477, 1246.326
595.3298, 1236.681
595.8119, 1226.561
596.2940, 1214.274
596.7761, 1200.694
597.2582, 1188.366
597.7404, 1178.654
598.2225, 1170.659
598.7046, 1164.564
599.1867, 1160.315
599.6688, 1154.700
600.1509, 1144.484
600.6331, 1134.139
601.1152, 1126.782
601.5973, 1124.341
602.0794, 1120.225
602.5615, 1113.295
603.0436, 1105.814
603.5258, 1100.771
604.0079, 1098.851
604.4900, 1095.681
604.9721, 1090.249
605.4542, 1083.796
605.9363, 1078.574
606.4185, 1074.603
606.9006, 1071.542
607.3827, 1069.329
607.8648, 1067.968
608.3469, 1068.124
608.8290, 1069.469
609.3112, 1070.132
609.7933, 1068.556
610.2754, 1066.178
610.7575, 1064.184
611.2396, 1062.876
611.7217, 1060.736
612.2039, 1056.238
612.6860, 1051.446
613.1681, 1047.891
613.6502, 1046.077
614.1323, 1044.820
614.6144, 1044.926
615.0966, 1044.869
615.5787, 1041.885
616.0608, 1035.355
616.5429, 1030.001
617.0250, 1027.142
617.5071, 1025.870
617.9893, 1024.493
618.4714, 1022.991
618.9535, 1021.197
619.4356, 1019.080
619.9177, 1016.574
620.3998, 1013.312
620.8820, 1009.408
621.3641, 1005.838
621.8462, 1002.914
622.3283, 1000.637
622.8104, 999.1390
623.2925, 998.6151
623.7747, 998.0399
624.2568, 997.5431
624.7389, 996.6896
625.2210, 994.9676
625.7031, 991.2209
626.1852, 989.2308
626.6674, 989.7336
627.1495, 991.4681
627.6316, 992.6121
628.1137, 993.1766
628.5958, 992.7570
629.0779, 990.6898
629.5601, 988.2158
630.0422, 988.3400
630.5243, 990.4967
631.0064, 991.9767
631.4885, 990.5393
631.9706, 988.2457
632.4528, 986.8793
632.9349, 986.4882
633.4170, 986.5995
633.8991, 986.9667
634.3812, 987.8187
634.8633, 989.3264
635.3455, 991.5945
635.8276, 994.3245
636.3097, 998.6556
636.7918, 1002.373
637.2739, 1003.186
637.7560, 999.9879
638.2382, 998.2272
638.7203, 998.3697
639.2024, 999.9866
639.6845, 1003.379
640.1666, 1008.161
640.6487, 1010.974
641.1309, 1009.824
641.6130, 1007.630
642.0951, 1008.334
642.5772, 1011.312
643.0594, 1014.811
643.5415, 1018.647
644.0236, 1022.178
644.5057, 1025.161
644.9879, 1027.585
645.4700, 1029.314
645.9521, 1029.808
646.4342, 1030.121
646.9163, 1030.705
647.3984, 1031.609
647.8806, 1032.703
648.3627, 1034.125
648.8448, 1035.564
649.3269, 1036.584
649.8090, 1037.205
650.2911, 1038.790
650.7733, 1041.578
651.2554, 1044.864
651.7375, 1047.679
652.2196, 1050.369
652.7017, 1053.907
653.1838, 1058.993
653.6660, 1064.120
654.1481, 1067.730
654.6302, 1070.595
655.1123, 1074.155
655.5944, 1079.236
656.0765, 1084.627
656.5587, 1090.055
657.0408, 1095.466
657.5229, 1100.935
658.0050, 1107.006
658.4871, 1111.896
658.9692, 1114.134
659.4514, 1114.211
659.9335, 1118.357
660.4156, 1127.014
660.8977, 1135.898
661.3798, 1141.158
661.8619, 1144.270
662.3441, 1149.684
662.8262, 1157.715
663.3083, 1165.797
663.7904, 1171.451
664.2725, 1176.280
664.7546, 1182.059
665.2368, 1189.378
665.7189, 1197.134
666.2010, 1204.944
666.6831, 1213.089
667.1652, 1221.940
667.6473, 1232.269
668.1295, 1242.009
668.6116, 1250.526
669.0937, 1258.879
669.5758, 1269.414
670.0579, 1282.501
670.5400, 1294.462
671.0222, 1303.519
671.5043, 1311.524
671.9864, 1322.342
672.4685, 1335.743
672.9506, 1350.714
673.4327, 1368.375
673.9149, 1385.891
674.3970, 1400.077
674.8791, 1411.469
675.3612, 1423.852
675.8433, 1438.769
676.3254, 1455.226
676.8076, 1473.197
677.2897, 1493.114
677.7718, 1511.213
678.2539, 1526.195
678.7360, 1540.969
679.2181, 1557.798
679.7003, 1576.872
680.1824, 1594.717
680.6645, 1610.997
681.1466, 1626.765
681.6287, 1643.523
682.1108, 1660.754
682.5930, 1676.430
683.0751, 1690.112
683.5572, 1702.767
684.0393, 1715.243
684.5214, 1727.337
685.0035, 1738.850
685.4857, 1750.448
685.9678, 1760.552
686.4499, 1768.589
686.9320, 1774.705
687.4141, 1779.686
687.8962, 1784.719
688.3784, 1786.201
688.8605, 1782.852
689.3426, 1775.622
689.8247, 1767.451
690.3068, 1758.270
690.7889, 1748.615
691.2711, 1739.519
691.7532, 1729.754
692.2353, 1716.277
692.7174, 1699.688
693.1995, 1683.004
693.6816, 1668.900
694.1638, 1654.808
694.6459, 1638.419
695.1280, 1619.440
695.6101, 1601.731
696.0922, 1587.191
696.5743, 1573.448
697.0565, 1559.293
697.5386, 1544.680
698.0207, 1529.028
698.5028, 1511.505
698.9849, 1494.738
699.4670, 1481.712
699.9492, 1472.062
700.4313, 1461.525
700.9135, 1449.377
701.3956, 1438.146
701.8777, 1431.618
702.3598, 1427.659
702.8419, 1422.557
703.3240, 1414.662
703.8062, 1406.632
704.2883, 1400.046
704.7704, 1394.121
705.2525, 1387.865
705.7346, 1380.517
706.2167, 1373.554
706.6989, 1367.386
707.1810, 1361.601
707.6631, 1355.013
708.1452, 1347.490
708.6273, 1340.769
709.1094, 1335.459
709.5916, 1331.257
710.0737, 1327.773
710.5558, 1324.902
711.0379, 1321.890
711.5200, 1317.663
712.0021, 1313.628
712.4843, 1311.159
712.9664, 1310.004
713.4485, 1308.798
713.9306, 1307.678
714.4127, 1305.782
714.8948, 1302.484
715.3770, 1297.753
715.8591, 1292.973
716.3412, 1287.787
716.8233, 1283.282
717.3054, 1280.484
717.7875, 1279.281
718.2697, 1276.812
718.7518, 1272.915
719.2339, 1269.835
719.7160, 1270.995
720.1981, 1273.708
720.6802, 1273.232
721.1624, 1268.739
721.6445, 1264.176
722.1266, 1261.242
722.6087, 1259.669
723.0908, 1259.502
723.5729, 1262.352
724.0551, 1263.184
724.5372, 1260.511
725.0193, 1256.946
725.5014, 1255.091
725.9835, 1255.126
726.4656, 1255.972
726.9478, 1257.801
727.4299, 1259.667
727.9120, 1260.098
728.3941, 1259.427
728.8762, 1258.697
729.3583, 1258.247
729.8405, 1257.711
730.3226, 1256.532
730.8047, 1255.105
731.2868, 1254.130
731.7689, 1254.910
732.2510, 1254.860
732.7332, 1252.625
733.2153, 1249.350
733.6974, 1247.295
734.1795, 1246.807
734.6616, 1246.693
735.1437, 1246.826
735.6259, 1247.002
736.1080, 1246.651
736.5901, 1245.811
737.0722, 1244.830
737.5543, 1244.045
738.0364, 1243.059
738.5186, 1240.932
739.0007, 1238.104
739.4828, 1236.088
739.9649, 1236.897
740.4470, 1237.364
740.9291, 1235.680
741.4113, 1232.000
741.8934, 1229.274
742.3755, 1227.792
742.8576, 1226.804
743.3397, 1226.308
743.8218, 1226.137
744.3040, 1224.512
744.7861, 1221.413
745.2682, 1218.519
745.7503, 1217.065
746.2324, 1216.507
746.7145, 1216.328
747.1967, 1216.423
747.6788, 1215.920
748.1609, 1213.465
748.6430, 1210.908
749.1251, 1209.811
749.6072, 1210.898
750.0894, 1210.042
750.5715, 1205.536
751.0536, 1201.182
751.5357, 1199.657
752.0178, 1201.242
752.4999, 1202.143
752.9821, 1202.323
753.4642, 1202.096
753.9463, 1202.030
754.4284, 1201.705
754.9105, 1200.043
755.3926, 1196.766
755.8748, 1193.414
756.3569, 1189.311
756.8390, 1186.518
757.3211, 1187.287
757.8032, 1194.767
758.2853, 1199.425
758.7675, 1199.534
759.2496, 1197.898
759.7318, 1197.021
760.2139, 1197.093
760.6960, 1196.416
761.1781, 1194.662
761.6602, 1192.903
762.1423, 1192.383
762.6245, 1192.895
763.1066, 1194.204
763.5887, 1196.721
764.0708, 1198.458
764.5529, 1197.635
765.0350, 1195.392
765.5172, 1193.075
765.9993, 1189.245
766.4814, 1187.813
766.9635, 1190.069
767.4456, 1193.865
767.9277, 1196.504
768.4099, 1197.898
768.8920, 1198.789
769.3741, 1199.355
769.8562, 1199.278
770.3383, 1197.591
770.8204, 1194.884
771.3026, 1192.690
771.7847, 1191.277
772.2668, 1190.927
772.7489, 1193.193
773.2310, 1196.323
773.7131, 1197.536
774.1953, 1192.914
774.6774, 1190.867
775.1595, 1193.781
775.6416, 1198.846
776.1237, 1200.664
776.6058, 1198.783
777.0880, 1197.039
777.5701, 1196.142
778.0522, 1196.183
778.5343, 1197.627
779.0164, 1200.162
779.4985, 1202.968
779.9807, 1206.351
780.4628, 1209.042
780.9449, 1209.412
781.4270, 1208.595
781.9091, 1208.981
782.3912, 1214.004
782.8734, 1216.258
783.3555, 1213.018
783.8376, 1207.193
784.3197, 1206.532
784.8018, 1211.496
785.2839, 1216.289
785.7661, 1219.392
786.2482, 1220.960
786.7303, 1220.166
787.2124, 1217.931
787.6945, 1216.859
788.1766, 1219.615
788.6588, 1222.373
789.1409, 1222.585
789.6230, 1221.278
790.1051, 1221.496
790.5872, 1224.862
791.0693, 1227.623
791.5515, 1228.703
792.0336, 1228.873
792.5157, 1230.652
792.9978, 1234.056
793.4799, 1236.567
793.9620, 1236.535
794.4442, 1235.990
794.9263, 1238.016
795.4084, 1242.025
795.8905, 1246.381
796.3726, 1251.704
796.8547, 1255.779
797.3369, 1256.661
797.8190, 1255.432
798.3011, 1256.035
798.7832, 1259.658
799.2653, 1262.725
799.7474, 1263.914
800.2296, 1264.295
800.7117, 1267.165
801.1938, 1272.317
801.6759, 1277.670
802.1580, 1283.582
802.6401, 1287.947
803.1223, 1286.453
803.6044, 1281.360
804.0865, 1278.567
804.5686, 1281.885
805.0507, 1286.058
805.5328, 1289.922
806.0150, 1293.417
806.4971, 1296.367
806.9792, 1298.638
807.4613, 1300.821
807.9434, 1303.061
808.4255, 1305.325
808.9077, 1307.662
809.3898, 1310.014
809.8719, 1312.155
810.3540, 1313.921
810.8361, 1315.470
811.3182, 1316.092
811.8004, 1316.606
812.2825, 1318.975
812.7646, 1326.672
813.2467, 1332.552
813.7288, 1334.533
814.2109, 1334.199
814.6931, 1335.762
815.1752, 1339.540
815.6573, 1342.610
816.1394, 1344.276
816.6215, 1344.650
817.1037, 1342.586
817.5858, 1339.351
818.0679, 1338.223
818.5500, 1341.976
819.0322, 1346.672
819.5143, 1351.236
819.9964, 1355.206
820.4785, 1357.357
820.9606, 1356.165
821.4427, 1355.954
821.9249, 1357.583
822.4070, 1360.285
822.8891, 1362.814
823.3712, 1365.112
823.8533, 1366.370
824.3354, 1365.952
824.8176, 1365.343
825.2997, 1366.668
825.7818, 1368.918
826.2639, 1370.317
826.7460, 1368.688
827.2281, 1368.130
827.7103, 1370.886
828.1924, 1374.628
828.6745, 1376.093
829.1566, 1374.492
829.6387, 1373.578
830.1208, 1373.737
830.6030, 1375.100
831.0851, 1379.140
831.5672, 1384.516
832.0493, 1387.210
832.5314, 1385.077
833.0135, 1382.812
833.4957, 1383.965
833.9778, 1386.668
834.4599, 1388.760
834.9420, 1389.078
835.4241, 1389.888
835.9063, 1391.620
836.3884, 1393.378
836.8705, 1393.723
837.3526, 1392.732
837.8347, 1393.057
838.3168, 1395.167
838.7990, 1397.885
839.2811, 1400.328
839.7632, 1402.469
840.2453, 1403.929
840.7274, 1403.985
841.2095, 1405.654
841.6917, 1412.828
842.1738, 1419.899
842.6559, 1422.263
843.1380, 1418.026
843.6201, 1415.599
844.1022, 1414.961
844.5844, 1416.207
845.0665, 1420.836
845.5486, 1427.315
846.0307, 1431.048
846.5128, 1431.610
846.9949, 1431.704
847.4771, 1432.814
847.9592, 1434.431
848.4413, 1435.970
848.9234, 1437.113
849.4055, 1439.887
849.8876, 1444.917
850.3698, 1450.563
850.8519, 1456.108
851.3340, 1461.500
851.8161, 1466.041
852.2982, 1469.712
852.7803, 1471.854
853.2625, 1469.185
853.7446, 1466.559
854.2267, 1470.778
854.7088, 1481.306
855.1909, 1489.002
855.6730, 1486.990
856.1552, 1485.661
856.6373, 1489.939
857.1194, 1498.760
857.6015, 1502.661
858.0836, 1500.897
858.5657, 1500.255
859.0479, 1505.014
859.5300, 1512.258
860.0121, 1516.259
860.4942, 1517.758
860.9763, 1519.268
861.4584, 1521.817
861.9406, 1524.858
862.4227, 1528.028
862.9048, 1531.497
863.3869, 1535.814
863.8690, 1541.763
864.3511, 1546.591
864.8333, 1549.459
865.3154, 1551.136
865.7975, 1552.931
866.2796, 1554.990
866.7617, 1558.078
867.2438, 1563.061
867.7260, 1568.156
868.2081, 1571.672
868.6902, 1574.526
869.1723, 1578.223
869.6544, 1584.407
870.1365, 1589.600
870.6187, 1593.485
871.1008, 1596.479
871.5829, 1598.598
872.0650, 1599.956
872.5471, 1603.014
873.0292, 1608.459
873.5114, 1614.064
873.9935, 1616.879
874.4756, 1618.802
874.9577, 1622.410
875.4399, 1628.896
875.9220, 1634.989
876.4041, 1639.672
876.8862, 1643.812
877.3683, 1647.742
877.8505, 1651.299
878.3326, 1656.049
878.8147, 1662.200
879.2968, 1667.774
879.7789, 1670.250
880.2610, 1671.268
880.7432, 1673.581
881.2253, 1677.343
881.7074, 1681.330
882.1895, 1684.406
882.6716, 1688.083
883.1537, 1693.854
883.6359, 1701.499
884.1180, 1706.883
884.6001, 1709.532
885.0822, 1712.120
885.5643, 1716.214
886.0464, 1720.993
886.5286, 1723.915
887.0107, 1725.577
887.4928, 1728.451
887.9749, 1734.858
888.4570, 1741.675
888.9391, 1747.507
889.4213, 1752.450
889.9034, 1756.945
890.3855, 1760.448
890.8676, 1764.885
891.3497, 1771.217
891.8318, 1777.846
892.3140, 1781.520
892.7961, 1782.939
893.2782, 1784.801
893.7603, 1787.768
894.2424, 1791.679
894.7245, 1797.425
895.2067, 1803.548
895.6888, 1808.274
896.1709, 1808.832
896.6530, 1812.184
897.1351, 1819.403
897.6172, 1827.697
898.0994, 1834.273
898.5815, 1839.283
899.0636, 1843.238
899.5457, 1846.045
900.0278, 1849.352
900.5099, 1855.188
900.9921, 1861.726
901.4742, 1867.068
901.9563, 1870.646
902.4384, 1875.750
902.9205, 1883.591
903.4026, 1891.574
903.8848, 1898.798
904.3669, 1905.144
904.8490, 1909.898
905.3311, 1913.073
905.8132, 1915.838
906.2953, 1918.382
906.7775, 1921.286
907.2596, 1925.284
907.7417, 1930.169
908.2238, 1935.314
908.7059, 1940.479
909.1880, 1946.048
909.6702, 1952.883
910.1523, 1959.697
910.6344, 1963.059
911.1165, 1963.042
911.5986, 1962.470
912.0807, 1961.643
912.5629, 1961.767
913.0450, 1966.834
913.5271, 1972.876
914.0092, 1973.685
914.4913, 1963.499
914.9734, 1955.359
915.4556, 1953.123
915.9377, 1951.851
916.4198, 1946.941
916.9019, 1938.163
917.3840, 1929.999
917.8661, 1922.784
918.3483, 1914.860
918.8304, 1904.619
919.3125, 1892.753
919.7946, 1879.375
920.2767, 1864.601
920.7589, 1851.304
921.2410, 1841.281
921.7231, 1832.042
922.2052, 1822.584
922.6873, 1812.970
923.1694, 1803.726
923.6516, 1794.917
924.1337, 1786.444
924.6158, 1778.671
925.0979, 1770.811
925.5800, 1761.465
926.0621, 1751.297
926.5443, 1741.851
927.0264, 1732.737
927.5085, 1725.725
927.9906, 1721.955
928.4727, 1719.698
928.9548, 1715.998
929.4370, 1710.807
929.9191, 1706.484
930.4012, 1703.625
930.8833, 1701.147
931.3654, 1697.210
931.8475, 1693.193
932.3297, 1691.161
932.8118, 1692.175
933.2939, 1692.734
933.7761, 1691.568
934.2582, 1690.104
934.7403, 1689.090
935.2224, 1688.502
935.7045, 1688.179
936.1866, 1688.105
936.6688, 1688.449
937.1509, 1690.326
937.6330, 1692.017
938.1151, 1691.098
938.5972, 1688.044
939.0793, 1685.493
939.5615, 1685.037
940.0436, 1684.142
940.5257, 1681.472
941.0078, 1678.387
941.4899, 1679.439
941.9720, 1684.426
942.4542, 1687.570
942.9363, 1686.438
943.4184, 1684.843
943.9005, 1686.614
944.3826, 1690.628
944.8647, 1695.507
945.3469, 1701.947
945.8290, 1707.123
946.3111, 1710.733
946.7932, 1713.182
947.2753, 1714.598
947.7574, 1715.037
948.2396, 1715.316
948.7217, 1715.474
949.2038, 1715.871
949.6859, 1717.094
950.1680, 1718.493
950.6501, 1719.561
951.1323, 1720.279
951.6144, 1720.677
952.0965, 1720.631
952.5786, 1720.576
953.0607, 1720.809
953.5428, 1721.003
954.0250, 1720.092
954.5071, 1718.186
954.9892, 1715.809
955.4713, 1712.130
955.9534, 1709.809
956.4355, 1712.993
956.9177, 1717.996
957.3998, 1719.373
957.8819, 1713.920
958.3640, 1709.523
958.8461, 1705.995
959.3282, 1704.263
959.8104, 1706.827
960.2925, 1712.043
960.7746, 1713.672
961.2567, 1711.234
961.7388, 1708.793
962.2209, 1709.739
962.7031, 1710.924
963.1852, 1709.507
963.6673, 1705.662
964.1494, 1704.779
964.6315, 1707.834
965.1136, 1710.412
965.5958, 1710.675
966.0779, 1709.602
966.5600, 1708.958
967.0421, 1708.671
967.5242, 1708.579
968.0063, 1708.762
968.4885, 1708.938
968.9706, 1709.088
969.4527, 1709.150
969.9348, 1709.087
970.4169, 1708.955
970.8990, 1708.214
971.3812, 1706.625
971.8633, 1705.624
972.3454, 1707.638
972.8275, 1710.675
973.3096, 1711.526
973.7917, 1709.914
974.2739, 1708.584
974.7560, 1707.838
975.2381, 1708.383
975.7202, 1711.055
976.2023, 1715.187
976.6844, 1717.265
977.1666, 1717.338
977.6487, 1717.535
978.1308, 1718.961
978.6129, 1720.536
979.0950, 1721.743
979.5771, 1722.173
980.0593, 1721.160
980.5414, 1715.255
981.0235, 1712.937
981.5056, 1715.686
981.9877, 1720.333
982.4698, 1724.508
982.9520, 1727.953
983.4341, 1728.291
983.9162, 1725.410
984.3983, 1723.116
984.8804, 1725.343
985.3625, 1728.164
985.8447, 1728.172
986.3268, 1725.467
986.8089, 1725.137
987.2910, 1728.255
987.7731, 1730.746
988.2552, 1730.983
988.7374, 1730.298
989.2195, 1731.622
989.7016, 1734.245
990.1837, 1736.371
990.6658, 1737.652
991.1479, 1737.856
991.6301, 1735.299
992.1122, 1732.676
992.5944, 1732.803
993.0765, 1736.370
993.5586, 1738.735
994.0407, 1739.730
994.5228, 1740.408
995.0049, 1741.969
995.4871, 1743.505
995.9692, 1743.238
996.4513, 1741.515
996.9334, 1741.087
997.4155, 1744.497
997.8976, 1747.218
998.3798, 1748.065
998.8619, 1747.624
999.3440, 1747.022
999.8261, 1746.330
1000.308, 1746.295
1000.790, 1747.205
1001.272, 1748.477
1001.755, 1750.298
1002.237, 1751.852
1002.719, 1751.902
1003.201, 1749.054
1003.683, 1749.318
1004.165, 1754.138
1004.647, 1758.479
1005.129, 1758.338
1005.612, 1755.395
1006.094, 1754.295
1006.576, 1754.860
1007.058, 1756.125
1007.540, 1759.787
1008.022, 1761.653
1008.504, 1757.488
1008.986, 1751.383
1009.468, 1750.785
1009.951, 1756.489
1010.433, 1761.343
1010.915, 1764.256
1011.397, 1766.222
1011.879, 1768.533
1012.361, 1770.420
1012.843, 1770.433
1013.325, 1767.968
1013.807, 1767.066
1014.290, 1769.039
1014.772, 1771.684
1015.254, 1774.229
1015.736, 1776.639
1016.218, 1779.521
1016.700, 1782.480
1017.182, 1783.069
1017.664, 1777.770
1018.147, 1772.973
1018.629, 1773.377
1019.111, 1776.663
1019.593, 1779.199
1020.075, 1780.344
1020.557, 1782.357
1021.039, 1785.541
1021.521, 1788.768
1022.003, 1791.462
1022.486, 1793.255
1022.968, 1792.847
1023.450, 1790.448
1023.932, 1788.848
1024.414, 1789.883
1024.896, 1791.044
1025.378, 1791.259
1025.860, 1792.937
1026.343, 1792.663
1026.825, 1795.695
1027.307, 1798.162
1027.789, 1799.385
1028.271, 1800.247
1028.753, 1801.045
1029.235, 1802.182
1029.717, 1804.401
1030.199, 1808.698
1030.682, 1810.388
1031.164, 1808.364
1031.646, 1806.869
1032.128, 1809.411
1032.610, 1814.108
1033.092, 1815.637
1033.574, 1814.895
1034.056, 1815.127
1034.539, 1818.834
1035.021, 1822.484
1035.503, 1824.914
1035.985, 1826.726
1036.467, 1829.068
1036.949, 1831.977
1037.431, 1832.553
1037.913, 1830.230
1038.396, 1828.052
1038.878, 1829.427
1039.360, 1831.730
1039.842, 1831.869
1040.324, 1829.665
1040.806, 1830.529
1041.288, 1836.812
1041.770, 1840.981
1042.252, 1839.664
1042.734, 1836.248
1043.217, 1838.260
1043.699, 1843.891
1044.181, 1848.302
1044.663, 1849.494
1045.145, 1850.689
1045.627, 1854.401
1046.109, 1857.521
1046.591, 1856.901
1047.074, 1852.242
1047.556, 1852.555
1048.038, 1857.861
1048.520, 1863.064
1049.002, 1865.152
1049.484, 1865.299
1049.966, 1863.052
1050.448, 1859.715
1050.931, 1859.053
1051.413, 1862.900
1051.895, 1865.920
1052.377, 1867.369
1052.859, 1868.264
1053.341, 1869.456
1053.823, 1871.182
1054.305, 1874.762
1054.787, 1880.354
1055.270, 1883.797
1055.752, 1880.228
1056.234, 1877.390
1056.716, 1878.962
1057.198, 1883.680
1057.680, 1886.885
1058.162, 1888.610
1058.644, 1889.325
1059.126, 1888.800
1059.609, 1888.257
1060.091, 1888.262
1060.573, 1889.118
1061.055, 1891.688
1061.537, 1897.262
1062.019, 1899.313
1062.501, 1897.178
1062.983, 1894.028
1063.466, 1891.141
1063.948, 1889.125
1064.430, 1889.491
1064.912, 1891.708
1065.394, 1894.160
1065.876, 1897.520
1066.358, 1899.153
1066.840, 1897.719
1067.323, 1895.581
1067.805, 1895.698
1068.287, 1897.789
1068.769, 1899.985
1069.251, 1902.114
1069.733, 1904.412
1070.215, 1907.186
1070.697, 1909.973
1071.179, 1912.279
1071.661, 1914.242
1072.144, 1916.512
1072.626, 1919.117
1073.108, 1921.789
1073.590, 1924.641
1074.072, 1926.952
1074.554, 1927.405
1075.036, 1926.954
1075.518, 1926.658
1076.001, 1926.518
1076.483, 1927.851
1076.965, 1931.502
1077.447, 1935.070
1077.929, 1937.400
1078.411, 1938.695
1078.893, 1939.098
1079.375, 1938.909
1079.858, 1939.113
1080.340, 1939.973
1080.822, 1941.408
1081.304, 1943.721
1081.786, 1946.290
1082.268, 1948.814
1082.750, 1951.277
1083.232, 1951.551
1083.714, 1949.629
1084.197, 1949.172
1084.679, 1955.302
1085.161, 1961.634
1085.643, 1962.754
1086.125, 1960.068
1086.607, 1958.742
1087.089, 1959.036
1087.571, 1960.461
1088.054, 1963.099
1088.536, 1966.335
1089.018, 1970.598
1089.500, 1974.410
1089.982, 1975.007
1090.464, 1972.052
1090.946, 1969.778
1091.428, 1967.883
1091.911, 1968.751
1092.393, 1974.208
1092.875, 1981.736
1093.357, 1985.663
1093.839, 1986.542
1094.321, 1985.791
1094.803, 1982.856
1095.285, 1981.456
1095.767, 1984.287
1096.250, 1988.559
1096.732, 1992.818
1097.214, 1996.972
1097.696, 1999.005
1098.178, 1999.053
1098.660, 1999.647
1099.142, 2003.138
1099.624, 2006.456
1100.106, 2005.667
1100.589, 2003.834
1101.071, 2006.308
1101.553, 2015.846
1102.035, 2020.647
1102.517, 2019.906
1102.999, 2017.799
1103.481, 2017.146
1103.963, 2017.630
1104.446, 2018.605
1104.928, 2020.278
1105.410, 2023.751
1105.892, 2031.555
1106.374, 2036.963
1106.856, 2038.417
1107.338, 2038.420
1107.820, 2040.600
1108.302, 2043.950
1108.785, 2046.243
1109.267, 2047.201
1109.749, 2047.354
1110.231, 2044.827
1110.713, 2044.209
1111.195, 2048.062
1111.677, 2054.358
1112.159, 2057.427
1112.641, 2057.693
1113.124, 2057.399
1113.606, 2056.736
1114.088, 2057.326
1114.570, 2061.774
1115.052, 2066.722
1115.534, 2069.451
1116.016, 2070.027
1116.498, 2070.118
1116.981, 2069.671
1117.463, 2070.396
1117.945, 2073.754
1118.427, 2077.431
1118.909, 2078.198
1119.391, 2082.273
1119.873, 2080.793
1120.355, 2088.021
1120.838, 2092.628
1121.320, 2094.416
1121.802, 2094.321
1122.284, 2091.274
1122.766, 2087.839
1123.248, 2088.110
1123.730, 2091.222
1124.212, 2094.768
1124.694, 2099.008
1125.177, 2102.059
1125.659, 2103.104
1126.141, 2104.368
1126.623, 2109.294
1127.105, 2116.050
1127.587, 2119.413
1128.069, 2119.538
1128.551, 2119.655
1129.033, 2121.402
1129.516, 2122.922
1129.998, 2123.052
1130.480, 2123.265
1130.962, 2126.958
1131.444, 2133.181
1131.926, 2136.817
1132.408, 2137.035
1132.890, 2137.428
1133.373, 2140.909
1133.855, 2144.645
1134.337, 2147.648
1134.819, 2149.579
1135.301, 2147.779
1135.783, 2142.526
1136.265, 2141.450
1136.747, 2147.597
1137.229, 2154.057
1137.712, 2154.595
1138.194, 2153.019
1138.676, 2152.267
1139.158, 2152.460
1139.640, 2155.080
1140.122, 2160.487
1140.604, 2164.840
1141.086, 2166.250
1141.569, 2166.580
1142.051, 2167.473
1142.533, 2168.865
1143.015, 2170.856
1143.497, 2173.940
1143.979, 2175.475
1144.461, 2174.821
1144.943, 2175.107
1145.426, 2179.403
1145.908, 2184.764
1146.390, 2185.833
1146.872, 2184.336
1147.354, 2183.920
1147.836, 2185.383
1148.318, 2188.793
1148.800, 2195.088
1149.282, 2201.076
1149.765, 2203.719
1150.247, 2204.227
1150.729, 2204.978
1151.211, 2206.067
1151.693, 2207.540
1152.175, 2210.456
1152.657, 2212.260
1153.139, 2212.100
1153.621, 2211.504
1154.104, 2212.043
1154.586, 2213.660
1155.068, 2217.155
1155.550, 2222.205
1156.032, 2224.767
1156.514, 2217.904
1156.996, 2214.659
1157.478, 2220.507
1157.961, 2230.523
1158.443, 2236.236
1158.925, 2238.190
1159.407, 2238.611
1159.889, 2237.679
1160.371, 2239.079
1160.853, 2249.294
1161.335, 2257.791
1161.818, 2257.754
1162.300, 2252.582
1162.782, 2252.310
1163.264, 2256.524
1163.746, 2260.288
1164.228, 2262.550
1164.710, 2264.137
1165.192, 2264.892
1165.674, 2265.899
1166.156, 2268.335
1166.639, 2271.839
1167.121, 2273.609
1167.603, 2273.677
1168.085, 2275.057
1168.567, 2279.417
1169.049, 2283.344
1169.531, 2282.433
1170.013, 2280.646
1170.496, 2282.508
1170.978, 2288.126
1171.460, 2291.763
1171.942, 2293.309
1172.424, 2294.804
1172.906, 2297.074
1173.388, 2299.728
1173.870, 2302.299
1174.353, 2305.021
1174.835, 2308.513
1175.317, 2313.339
1175.799, 2316.023
1176.281, 2316.513
1176.763, 2315.524
1177.245, 2312.308
1177.727, 2309.114
1178.209, 2307.887
1178.692, 2308.676
1179.174, 2311.934
1179.656, 2319.257
1180.138, 2324.254
1180.620, 2326.598
1181.102, 2328.412
1181.584, 2331.437
1182.066, 2334.639
1182.548, 2336.369
1183.031, 2337.274
1183.513, 2338.961
1183.995, 2341.973
1184.477, 2345.182
1184.959, 2348.761
1185.441, 2351.863
1185.923, 2353.120
1186.405, 2353.869
1186.888, 2356.122
1187.370, 2359.534
1187.852, 2362.645
1188.334, 2365.480
1188.816, 2367.178
1189.298, 2367.230
1189.780, 2367.478
1190.262, 2370.171
1190.745, 2374.059
1191.227, 2377.697
1191.709, 2380.832
1192.191, 2382.746
1192.673, 2382.628
1193.155, 2382.431
1193.637, 2382.146
1194.119, 2382.625
1194.601, 2385.513
1195.084, 2389.547
1195.566, 2392.583
1196.048, 2394.603
1196.530, 2397.136
1197.012, 2400.823
1197.494, 2404.468
1197.976, 2408.011
1198.458, 2411.013
1198.941, 2412.036
1199.423, 2412.402
1199.905, 2414.755
1200.387, 2419.299
1200.869, 2422.694
1201.351, 2423.981
1201.833, 2424.613
1202.315, 2424.616
1202.797, 2424.799
1203.280, 2426.864
1203.762, 2429.869
1204.244, 2432.173
1204.726, 2433.500
1205.208, 2434.842
1205.690, 2436.031
1206.172, 2438.165
1206.654, 2442.158
1207.136, 2446.266
1207.619, 2446.612
1208.101, 2445.198
1208.583, 2445.345
1209.065, 2447.616
1209.547, 2451.872
1210.029, 2459.774
1210.511, 2465.614
1210.993, 2466.762
1211.476, 2465.734
1211.958, 2466.308
1212.440, 2468.434
1212.922, 2472.430
1213.404, 2478.960
1213.886, 2484.212
1214.368, 2487.722
1214.850, 2490.254
1215.333, 2492.046
1215.815, 2493.201
1216.297, 2493.861
1216.779, 2494.064
1217.261, 2493.515
1217.743, 2491.382
1218.225, 2492.309
1218.707, 2498.321
1219.189, 2502.520
1219.672, 2500.417
1220.154, 2496.259
1220.636, 2497.811
1221.118, 2503.030
1221.600, 2508.396
1222.082, 2513.046
1222.564, 2518.031
1223.046, 2523.903
1223.528, 2528.484
1224.011, 2530.195
1224.493, 2530.489
1224.975, 2531.297
1225.457, 2532.668
1225.939, 2535.043
1226.421, 2540.259
1226.903, 2540.515
1227.385, 2533.836
1227.868, 2529.114
1228.350, 2532.245
1228.832, 2539.113
1229.314, 2544.206
1229.796, 2548.222
1230.278, 2552.426
1230.760, 2557.822
1231.242, 2560.951
1231.724, 2561.515
1232.207, 2561.242
1232.689, 2560.346
1233.171, 2560.030
1233.653, 2562.005
1234.135, 2565.594
1234.617, 2570.047
1235.099, 2576.569
1235.581, 2578.970
1236.063, 2576.566
1236.546, 2574.972
1237.028, 2579.325
1237.510, 2584.534
1237.992, 2583.974
1238.474, 2581.104
1238.956, 2581.902
1239.438, 2587.593
1239.920, 2592.961
1240.403, 2597.954
1240.885, 2602.036
1241.367, 2604.495
1241.849, 2606.115
1242.331, 2606.890
1242.813, 2607.491
1243.295, 2608.808
1243.777, 2610.745
1244.260, 2613.921
1244.742, 2618.356
1245.224, 2623.513
1245.706, 2630.324
1246.188, 2636.477
1246.670, 2640.909
1247.152, 2643.453
1247.634, 2643.279
1248.116, 2639.862
1248.599, 2643.447
1249.081, 2653.462
1249.563, 2660.683
1250.045, 2655.548
1250.527, 2650.783
1251.009, 2655.403
1251.491, 2662.103
1251.973, 2662.762
1252.455, 2657.726
1252.938, 2655.419
1253.420, 2655.921
1253.902, 2659.082
1254.384, 2668.689
1254.866, 2675.917
1255.348, 2675.001
1255.830, 2673.059
1256.313, 2677.258
1256.795, 2686.246
1257.277, 2691.127
1257.759, 2692.545
1258.241, 2694.082
1258.723, 2698.226
1259.205, 2701.446
1259.687, 2702.533
1260.169, 2703.375
1260.651, 2705.506
1261.134, 2708.712
1261.616, 2712.677
1262.098, 2717.127
1262.580, 2721.332
1263.062, 2725.104
1263.544, 2728.342
1264.026, 2731.013
1264.508, 2733.253
1264.991, 2734.884
1265.473, 2736.315
1265.955, 2738.446
1266.437, 2741.068
1266.919, 2743.552
1267.401, 2744.872
1267.883, 2748.272
1268.365, 2754.626
1268.848, 2760.074
1269.330, 2759.850
1269.812, 2758.400
1270.294, 2762.119
1270.776, 2768.904
1271.258, 2774.014
1271.740, 2776.863
1272.222, 2778.222
1272.704, 2777.817
1273.187, 2778.152
1273.669, 2780.611
1274.151, 2784.836
1274.633, 2792.880
1275.115, 2801.302
1275.597, 2804.599
1276.079, 2801.798
1276.561, 2800.059
1277.043, 2799.466
1277.526, 2800.362
1278.008, 2804.715
1278.490, 2808.695
1278.972, 2808.931
1279.454, 2808.530
1279.936, 2810.933
1280.418, 2815.988
1280.900, 2820.034
1281.383, 2823.142
1281.865, 2825.985
1282.347, 2829.491
1282.829, 2831.799
1283.311, 2830.365
1283.793, 2829.711
1284.275, 2834.127
1284.757, 2842.061
1285.240, 2847.297
1285.722, 2850.430
1286.204, 2853.233
1286.686, 2856.130
1287.168, 2859.442
1287.650, 2863.859
1288.132, 2867.226
1288.614, 2867.065
1289.096, 2865.573
1289.578, 2866.926
1290.061, 2870.477
1290.543, 2875.093
1291.025, 2881.841
1291.507, 2885.874
1291.989, 2886.683
1292.471, 2886.865
1292.953, 2887.343
1293.435, 2888.636
1293.918, 2891.931
1294.400, 2896.145
1294.882, 2900.178
1295.364, 2904.329
1295.846, 2904.277
1296.328, 2899.975
1296.810, 2898.092
1297.292, 2903.082
1297.775, 2908.625
1298.257, 2909.689
1298.739, 2909.781
1299.221, 2912.354
1299.703, 2917.003
1300.185, 2919.755
1300.667, 2920.933
1301.149, 2922.274
1301.631, 2924.508
1302.114, 2925.483
1302.596, 2927.751
##END=



