##NAMES=Sapphirine
##RRUFFID=R100135
##IDEAL CHEMISTRY=Mg_4_(Mg_3_Al_9_)O_4_[Si_3_Al_9_O_36_]
##LOCALITY=Sri Lanka
##OWNER=RRUFF
##SOURCE=William W. Pinch
##DESCRIPTION=Dark blue glassy fragment
##STATUS=The identification of this mineral has been confirmed only by single crystal X-ray diffraction.
##URL=rruff.info/R100135
91.03516, 55.87815
91.51727, 54.69213
91.99939, 55.98339
92.48151, 58.84934
92.96362, 60.72874
93.44574, 59.42442
93.92786, 56.30715
94.40997, 54.46830
94.89210, 54.38805
95.37421, 54.77739
95.85633, 53.26718
96.33845, 49.96578
96.82056, 47.28616
97.30268, 47.32312
97.78480, 49.77095
98.26691, 51.59717
98.74903, 52.51091
99.23115, 52.49767
99.71326, 50.93832
100.1954, 47.32803
100.6775, 44.16279
101.1596, 43.90185
101.6417, 47.29419
102.1239, 49.90620
102.6060, 50.74018
103.0881, 49.92956
103.5702, 49.73405
104.0523, 50.60040
104.5344, 51.53604
105.0166, 51.32574
105.4987, 48.90725
105.9808, 47.27510
106.4629, 47.54230
106.9450, 50.53430
107.4271, 51.60594
107.9093, 49.33030
108.3914, 45.64701
108.8735, 43.42953
109.3556, 44.09240
109.8377, 44.93885
110.3198, 45.16973
110.8020, 44.15513
111.2841, 43.73769
111.7662, 44.18760
112.2483, 45.27825
112.7304, 46.49989
113.2125, 48.55409
113.6947, 50.20004
114.1768, 50.80012
114.6589, 49.45739
115.1410, 48.16521
115.6231, 47.41996
116.1052, 47.11244
116.5874, 46.81256
117.0695, 46.34241
117.5516, 45.84022
118.0337, 45.41630
118.5158, 45.06432
118.9980, 44.82581
119.4801, 44.71803
119.9622, 44.74111
120.4443, 44.88031
120.9264, 45.22837
121.4085, 45.66245
121.8907, 46.03276
122.3728, 46.42624
122.8549, 46.63926
123.3370, 46.30785
123.8191, 45.39221
124.3012, 44.66956
124.7834, 44.65260
125.2655, 45.28640
125.7476, 46.45916
126.2297, 49.05519
126.7118, 51.85976
127.1939, 52.69160
127.6761, 51.08572
128.1582, 49.16577
128.6403, 49.58411
129.1224, 51.95538
129.6045, 54.42023
130.0867, 55.27960
130.5688, 55.32109
131.0509, 57.29063
131.5330, 61.87830
132.0151, 67.56566
132.4972, 71.40925
132.9794, 73.40459
133.4615, 75.96890
133.9436, 80.93993
134.4257, 88.20499
134.9078, 95.44997
135.3899, 102.0968
135.8721, 108.7884
136.3542, 117.5344
136.8363, 128.4379
137.3184, 140.9986
137.8005, 154.2815
138.2826, 168.1135
138.7648, 185.0633
139.2469, 206.1050
139.7290, 230.8967
140.2111, 255.1511
140.6932, 278.3384
141.1753, 302.3745
141.6575, 329.2691
142.1396, 360.7891
142.6217, 391.1318
143.1038, 419.0956
143.5859, 444.8801
144.0681, 469.0646
144.5502, 491.9923
145.0323, 513.2096
145.5144, 532.5220
145.9965, 549.2633
146.4786, 564.9097
146.9608, 579.2811
147.4429, 592.2580
147.9250, 605.2737
148.4071, 616.5662
148.8892, 628.5852
149.3713, 644.6859
149.8535, 666.9796
150.3356, 691.5046
150.8177, 717.4022
151.2998, 744.9650
151.7819, 773.2138
152.2640, 801.5589
152.7462, 830.7559
153.2283, 861.6086
153.7104, 896.7659
154.1925, 931.5031
154.6746, 964.2538
155.1567, 995.2961
155.6389, 1022.859
156.1210, 1045.662
156.6031, 1064.852
157.0852, 1083.536
157.5673, 1103.083
158.0495, 1121.673
158.5316, 1138.572
159.0137, 1153.043
159.4958, 1166.473
159.9779, 1178.862
160.4600, 1190.475
160.9422, 1202.181
161.4243, 1213.143
161.9064, 1224.943
162.3885, 1238.617
162.8706, 1255.439
163.3527, 1273.208
163.8349, 1291.745
164.3170, 1310.830
164.7991, 1329.415
165.2812, 1346.438
165.7633, 1362.984
166.2454, 1380.016
166.7276, 1397.523
167.2097, 1415.870
167.6918, 1436.226
168.1739, 1458.143
168.6560, 1479.415
169.1381, 1500.001
169.6203, 1518.275
170.1024, 1522.791
170.5845, 1516.134
171.0666, 1508.508
171.5487, 1504.399
172.0309, 1503.553
172.5130, 1502.335
172.9951, 1498.575
173.4772, 1492.800
173.9593, 1485.767
174.4414, 1475.352
174.9236, 1465.117
175.4057, 1459.948
175.8878, 1459.803
176.3699, 1460.146
176.8520, 1456.887
177.3341, 1451.234
177.8163, 1445.802
178.2984, 1441.708
178.7805, 1438.480
179.2626, 1435.625
179.7447, 1433.204
180.2268, 1430.714
180.7090, 1427.477
181.1911, 1423.741
181.6732, 1420.320
182.1553, 1417.676
182.6374, 1415.595
183.1195, 1414.044
183.6017, 1413.185
184.0838, 1411.821
184.5659, 1406.805
185.0480, 1399.238
185.5301, 1394.559
186.0123, 1397.943
186.4944, 1406.485
186.9765, 1410.723
187.4586, 1409.890
187.9407, 1406.561
188.4228, 1403.855
188.9050, 1401.734
189.3871, 1399.809
189.8692, 1397.763
190.3513, 1395.711
190.8334, 1394.199
191.3155, 1393.252
191.7977, 1392.888
192.2798, 1393.712
192.7619, 1395.735
193.2440, 1396.867
193.7261, 1395.262
194.2082, 1391.281
194.6904, 1389.055
195.1725, 1389.078
195.6546, 1390.389
196.1367, 1391.194
196.6188, 1391.441
197.1009, 1391.956
197.5831, 1393.427
198.0652, 1395.856
198.5473, 1397.367
199.0294, 1397.298
199.5115, 1397.014
199.9937, 1399.394
200.4758, 1404.557
200.9579, 1411.139
201.4400, 1419.853
201.9221, 1431.213
202.4042, 1436.919
202.8864, 1435.080
203.3685, 1428.778
203.8506, 1424.952
204.3327, 1423.831
204.8148, 1424.300
205.2969, 1426.062
205.7791, 1429.283
206.2612, 1432.555
206.7433, 1435.843
207.2254, 1439.096
207.7075, 1442.354
208.1896, 1445.909
208.6718, 1448.664
209.1539, 1449.384
209.6360, 1447.165
210.1181, 1447.704
210.6002, 1452.144
211.0823, 1459.081
211.5645, 1464.654
212.0466, 1468.740
212.5287, 1471.890
213.0108, 1473.868
213.4929, 1473.793
213.9750, 1476.318
214.4572, 1482.688
214.9393, 1491.416
215.4214, 1498.354
215.9035, 1503.281
216.3856, 1506.891
216.8678, 1509.398
217.3499, 1510.708
217.8320, 1511.199
218.3141, 1510.597
218.7962, 1509.213
219.2783, 1508.276
219.7605, 1508.532
220.2426, 1507.801
220.7247, 1504.640
221.2068, 1497.958
221.6889, 1492.014
222.1710, 1487.452
222.6532, 1483.657
223.1353, 1478.635
223.6174, 1471.286
224.0995, 1464.512
224.5816, 1460.031
225.0637, 1459.109
225.5459, 1457.106
226.0280, 1453.239
226.5101, 1448.346
226.9922, 1445.176
227.4743, 1444.425
227.9564, 1444.246
228.4386, 1443.796
228.9207, 1443.074
229.4028, 1442.071
229.8849, 1440.791
230.3670, 1439.208
230.8492, 1437.141
231.3313, 1434.193
231.8134, 1431.386
232.2955, 1429.213
232.7776, 1428.113
233.2597, 1426.723
233.7419, 1424.788
234.2240, 1422.656
234.7061, 1421.265
235.1882, 1420.818
235.6703, 1420.859
236.1524, 1421.451
236.6346, 1423.691
237.1167, 1423.849
237.5988, 1420.920
238.0809, 1416.293
238.5630, 1413.150
239.0451, 1411.999
239.5273, 1411.578
240.0094, 1411.405
240.4915, 1411.453
240.9736, 1411.735
241.4557, 1412.290
241.9378, 1413.019
242.4200, 1413.919
242.9021, 1415.951
243.3842, 1416.612
243.8663, 1414.512
244.3484, 1408.024
244.8306, 1403.708
245.3127, 1402.525
245.7948, 1403.039
246.2769, 1402.428
246.7590, 1399.338
247.2411, 1397.477
247.7233, 1398.659
248.2054, 1404.344
248.6875, 1407.542
249.1696, 1407.143
249.6517, 1405.008
250.1338, 1404.251
250.6160, 1405.916
251.0981, 1407.089
251.5802, 1406.607
252.0623, 1403.950
252.5444, 1402.377
253.0265, 1402.223
253.5087, 1402.902
253.9908, 1403.484
254.4729, 1403.452
254.9550, 1404.438
255.4371, 1407.470
255.9192, 1413.047
256.4014, 1416.174
256.8835, 1415.527
257.3656, 1413.742
257.8477, 1414.161
258.3298, 1417.805
258.8120, 1421.396
259.2941, 1424.379
259.7762, 1426.796
260.2583, 1427.633
260.7404, 1426.067
261.2225, 1423.910
261.7047, 1423.244
262.1868, 1424.834
262.6689, 1425.852
263.1510, 1425.762
263.6331, 1424.563
264.1152, 1422.242
264.5974, 1418.318
265.0795, 1414.027
265.5616, 1410.822
266.0437, 1409.185
266.5258, 1406.860
267.0079, 1403.082
267.4901, 1398.127
267.9722, 1394.831
268.4543, 1393.776
268.9364, 1393.221
269.4185, 1391.590
269.9006, 1388.497
270.3828, 1386.052
270.8649, 1384.471
271.3470, 1383.768
271.8291, 1384.248
272.3112, 1386.334
272.7933, 1388.412
273.2755, 1388.720
273.7576, 1386.653
274.2397, 1387.138
274.7218, 1392.036
275.2039, 1399.070
275.6860, 1400.606
276.1682, 1395.373
276.6503, 1389.490
277.1324, 1387.001
277.6145, 1388.226
278.0966, 1389.134
278.5787, 1389.412
279.0609, 1389.309
279.5430, 1389.024
280.0251, 1388.415
280.5072, 1388.786
280.9893, 1391.715
281.4715, 1397.173
281.9536, 1400.222
282.4357, 1400.130
282.9178, 1398.582
283.3999, 1398.211
283.8820, 1399.011
284.3642, 1400.597
284.8463, 1403.251
285.3284, 1406.790
285.8105, 1409.183
286.2926, 1410.267
286.7747, 1410.594
287.2569, 1410.600
287.7390, 1410.297
288.2211, 1410.466
288.7032, 1411.351
289.1853, 1412.954
289.6674, 1415.758
290.1496, 1420.032
290.6317, 1423.938
291.1138, 1424.848
291.5959, 1423.221
292.0780, 1422.142
292.5602, 1422.807
293.0423, 1424.662
293.5244, 1426.397
294.0065, 1428.017
294.4886, 1429.521
294.9707, 1430.453
295.4529, 1431.181
295.9350, 1433.119
296.4171, 1437.265
296.8992, 1442.245
297.3813, 1445.735
297.8634, 1447.776
298.3456, 1448.903
298.8277, 1448.709
299.3098, 1447.917
299.7919, 1448.276
300.2740, 1450.572
300.7561, 1453.400
301.2383, 1454.643
301.7204, 1454.657
302.2025, 1454.977
302.6846, 1457.677
303.1667, 1460.990
303.6488, 1462.007
304.1310, 1459.779
304.6131, 1456.776
305.0952, 1455.799
305.5773, 1456.075
306.0594, 1455.528
306.5415, 1452.036
307.0237, 1447.659
307.5058, 1444.820
307.9879, 1444.003
308.4700, 1443.016
308.9521, 1439.510
309.4343, 1434.741
309.9164, 1430.845
310.3985, 1428.836
310.8806, 1427.946
311.3627, 1427.860
311.8448, 1428.566
312.3270, 1429.271
312.8091, 1428.981
313.2912, 1428.589
313.7733, 1429.151
314.2554, 1432.465
314.7375, 1435.602
315.2197, 1436.661
315.7018, 1435.900
316.1839, 1435.482
316.6660, 1437.037
317.1481, 1439.018
317.6302, 1440.073
318.1124, 1438.244
318.5945, 1437.480
319.0766, 1440.055
319.5587, 1444.984
320.0408, 1448.887
320.5229, 1449.590
321.0051, 1449.753
321.4872, 1450.949
321.9693, 1454.250
322.4514, 1456.999
322.9335, 1458.501
323.4156, 1459.110
323.8978, 1459.509
324.3799, 1458.611
324.8620, 1458.575
325.3441, 1460.677
325.8262, 1466.270
326.3083, 1469.938
326.7905, 1470.039
327.2726, 1468.399
327.7547, 1467.267
328.2368, 1467.967
328.7189, 1467.870
329.2010, 1465.731
329.6832, 1461.166
330.1653, 1459.132
330.6474, 1462.052
331.1295, 1465.760
331.6116, 1466.748
332.0938, 1462.401
332.5759, 1459.527
333.0580, 1459.602
333.5401, 1462.119
334.0222, 1463.324
334.5043, 1462.914
334.9865, 1461.617
335.4686, 1459.617
335.9507, 1456.217
336.4328, 1454.057
336.9149, 1453.654
337.3970, 1454.373
337.8792, 1454.435
338.3613, 1453.472
338.8434, 1452.903
339.3255, 1453.753
339.8076, 1456.415
340.2898, 1457.400
340.7719, 1456.293
341.2540, 1454.283
341.7361, 1453.172
342.2182, 1453.106
342.7003, 1452.800
343.1825, 1451.648
343.6646, 1449.824
344.1467, 1448.542
344.6288, 1447.808
345.1109, 1447.504
345.5930, 1447.530
346.0752, 1447.874
346.5573, 1448.560
347.0394, 1449.854
347.5215, 1451.243
348.0036, 1451.265
348.4857, 1449.948
348.9679, 1448.890
349.4500, 1449.507
349.9321, 1451.328
350.4142, 1453.181
350.8963, 1455.154
351.3784, 1456.443
351.8606, 1455.038
352.3427, 1451.738
352.8248, 1449.465
353.3069, 1450.975
353.7890, 1454.093
354.2711, 1455.849
354.7533, 1455.933
355.2354, 1455.467
355.7175, 1455.112
356.1996, 1454.890
356.6817, 1454.836
357.1638, 1454.939
357.6460, 1455.227
358.1281, 1455.797
358.6102, 1456.621
359.0923, 1457.440
359.5744, 1457.849
360.0565, 1458.286
360.5387, 1459.195
361.0208, 1461.012
361.5029, 1462.941
361.9850, 1464.557
362.4671, 1465.989
362.9492, 1467.600
363.4314, 1470.482
363.9135, 1472.886
364.3956, 1473.642
364.8777, 1471.712
365.3598, 1470.270
365.8419, 1470.012
366.3241, 1470.642
366.8062, 1471.720
367.2883, 1473.991
367.7704, 1475.921
368.2526, 1476.840
368.7347, 1476.424
369.2168, 1476.812
369.6989, 1478.289
370.1810, 1480.413
370.6631, 1482.887
371.1453, 1486.337
371.6274, 1489.248
372.1095, 1491.787
372.5916, 1493.773
373.0737, 1493.709
373.5558, 1489.945
374.0380, 1486.566
374.5201, 1485.958
375.0022, 1488.939
375.4843, 1492.110
375.9664, 1495.775
376.4485, 1499.213
376.9307, 1500.786
377.4128, 1500.024
377.8949, 1499.328
378.3770, 1499.888
378.8591, 1501.593
379.3412, 1502.363
379.8234, 1502.139
380.3055, 1501.162
380.7876, 1499.136
381.2697, 1496.166
381.7518, 1494.494
382.2339, 1495.098
382.7161, 1497.081
383.1982, 1498.507
383.6803, 1499.378
384.1624, 1499.970
384.6445, 1500.282
385.1266, 1500.471
385.6088, 1500.958
386.0909, 1501.856
386.5730, 1502.907
387.0551, 1503.709
387.5372, 1504.392
388.0193, 1505.338
388.5015, 1507.253
388.9836, 1509.248
389.4657, 1510.303
389.9478, 1510.344
390.4299, 1510.021
390.9120, 1509.262
391.3942, 1508.547
391.8763, 1508.495
392.3584, 1510.267
392.8405, 1511.843
393.3226, 1511.172
393.8047, 1509.038
394.2869, 1509.015
394.7690, 1515.843
395.2511, 1522.939
395.7332, 1525.859
396.2154, 1521.407
396.6975, 1518.042
397.1796, 1518.607
397.6617, 1521.194
398.1438, 1522.513
398.6259, 1519.451
399.1081, 1517.683
399.5902, 1519.402
400.0723, 1525.317
400.5544, 1529.754
401.0365, 1532.304
401.5186, 1533.642
402.0008, 1534.158
402.4829, 1533.008
402.9650, 1532.619
403.4471, 1533.522
403.9292, 1535.373
404.4113, 1536.835
404.8935, 1538.114
405.3756, 1538.566
405.8577, 1537.433
406.3398, 1534.347
406.8219, 1532.811
407.3040, 1533.353
407.7862, 1534.567
408.2683, 1534.201
408.7504, 1532.217
409.2325, 1530.684
409.7146, 1530.668
410.1967, 1531.598
410.6789, 1531.158
411.1610, 1529.298
411.6431, 1527.851
412.1252, 1529.239
412.6073, 1532.369
413.0894, 1533.932
413.5716, 1532.848
414.0537, 1530.886
414.5358, 1529.722
415.0179, 1529.370
415.5000, 1529.860
415.9821, 1532.262
416.4643, 1534.898
416.9464, 1535.837
417.4285, 1534.823
417.9106, 1533.404
418.3927, 1532.325
418.8748, 1531.462
419.3570, 1530.693
419.8391, 1529.373
420.3212, 1528.703
420.8033, 1530.035
421.2854, 1532.767
421.7675, 1534.092
422.2497, 1532.125
422.7318, 1529.334
423.2139, 1527.051
423.6960, 1525.796
424.1781, 1524.325
424.6602, 1521.685
425.1424, 1519.016
425.6245, 1518.061
426.1066, 1520.782
426.5887, 1522.737
427.0709, 1522.737
427.5530, 1520.774
428.0351, 1519.245
428.5172, 1518.094
428.9993, 1517.395
429.4814, 1517.343
429.9636, 1518.222
430.4457, 1518.502
430.9278, 1517.753
431.4099, 1516.627
431.8920, 1516.721
432.3741, 1518.202
432.8563, 1519.598
433.3384, 1520.293
433.8205, 1520.334
434.3026, 1519.891
434.7847, 1518.895
435.2668, 1517.945
435.7490, 1517.763
436.2311, 1518.164
436.7132, 1518.442
437.1953, 1518.237
437.6774, 1518.075
438.1595, 1519.109
438.6417, 1520.974
439.1238, 1522.154
439.6059, 1520.591
440.0880, 1518.473
440.5701, 1518.376
441.0522, 1520.838
441.5344, 1523.548
442.0165, 1525.670
442.4986, 1527.016
442.9807, 1527.334
443.4628, 1525.009
443.9449, 1523.136
444.4271, 1523.347
444.9092, 1525.250
445.3913, 1526.599
445.8734, 1526.467
446.3555, 1525.884
446.8376, 1525.352
447.3198, 1525.063
447.8019, 1524.478
448.2840, 1523.193
448.7661, 1521.770
449.2482, 1521.117
449.7303, 1522.275
450.2125, 1522.390
450.6946, 1520.328
451.1767, 1516.337
451.6588, 1514.182
452.1409, 1514.217
452.6230, 1515.243
453.1052, 1516.664
453.5873, 1518.560
454.0694, 1519.998
454.5515, 1520.956
455.0337, 1521.319
455.5158, 1520.417
455.9979, 1518.360
456.4800, 1516.963
456.9621, 1517.359
457.4442, 1518.833
457.9264, 1519.844
458.4085, 1520.396
458.8906, 1520.573
459.3727, 1519.695
459.8548, 1518.679
460.3369, 1519.233
460.8191, 1522.346
461.3012, 1525.663
461.7833, 1527.560
462.2654, 1528.271
462.7475, 1528.276
463.2296, 1525.965
463.7118, 1524.497
464.1939, 1526.607
464.6760, 1532.516
465.1581, 1536.611
465.6402, 1534.350
466.1223, 1531.250
466.6045, 1531.215
467.0866, 1538.170
467.5687, 1543.932
468.0508, 1548.022
468.5329, 1550.634
469.0150, 1552.177
469.4972, 1552.229
469.9793, 1551.819
470.4614, 1551.145
470.9435, 1550.189
471.4256, 1549.567
471.9077, 1549.505
472.3899, 1549.373
472.8720, 1548.405
473.3541, 1546.477
473.8362, 1545.361
474.3183, 1545.593
474.8004, 1546.288
475.2826, 1545.586
475.7647, 1543.567
476.2468, 1541.418
476.7289, 1539.592
477.2110, 1538.070
477.6931, 1537.009
478.1753, 1536.391
478.6574, 1535.640
479.1395, 1533.769
479.6216, 1531.602
480.1037, 1530.499
480.5858, 1531.427
481.0680, 1532.336
481.5501, 1531.638
482.0322, 1529.912
482.5143, 1528.355
482.9964, 1527.876
483.4786, 1527.324
483.9607, 1525.826
484.4428, 1523.234
484.9249, 1521.639
485.4070, 1522.085
485.8892, 1523.297
486.3713, 1524.374
486.8534, 1524.450
487.3355, 1525.652
487.8176, 1528.765
488.2997, 1532.772
488.7819, 1535.366
489.2640, 1535.555
489.7461, 1536.648
490.2282, 1540.407
490.7103, 1546.539
491.1924, 1549.001
491.6746, 1547.010
492.1567, 1544.596
492.6388, 1545.592
493.1209, 1549.597
493.6030, 1553.017
494.0851, 1555.360
494.5673, 1557.089
495.0494, 1558.954
495.5315, 1560.797
496.0136, 1561.993
496.4957, 1561.996
496.9778, 1561.375
497.4600, 1560.380
497.9421, 1559.133
498.4242, 1558.620
498.9063, 1560.738
499.3884, 1563.114
499.8705, 1563.697
500.3527, 1561.796
500.8348, 1558.794
501.3169, 1554.268
501.7990, 1549.230
502.2811, 1545.075
502.7632, 1543.345
503.2454, 1541.208
503.7275, 1537.479
504.2096, 1532.435
504.6917, 1529.025
505.1738, 1528.510
505.6559, 1528.000
506.1381, 1525.799
506.6202, 1521.234
507.1023, 1517.835
507.5844, 1515.824
508.0665, 1514.613
508.5486, 1513.357
509.0308, 1512.034
509.5129, 1511.617
509.9950, 1512.980
510.4771, 1514.732
510.9592, 1513.185
511.4413, 1508.674
511.9235, 1504.583
512.4056, 1503.033
512.8877, 1503.229
513.3698, 1504.353
513.8519, 1506.407
514.3340, 1508.141
514.8162, 1508.414
515.2983, 1507.928
515.7804, 1507.513
516.2625, 1507.303
516.7446, 1507.392
517.2267, 1508.247
517.7089, 1509.481
518.1910, 1510.104
518.6731, 1509.918
519.1552, 1509.124
519.6373, 1507.448
520.1194, 1504.717
520.6016, 1503.057
521.0837, 1503.185
521.5658, 1503.581
522.0479, 1502.846
522.5300, 1500.143
523.0121, 1499.526
523.4943, 1501.870
523.9764, 1505.575
524.4585, 1508.045
524.9406, 1509.236
525.4227, 1509.360
525.9048, 1507.999
526.3870, 1505.868
526.8691, 1504.367
527.3513, 1503.541
527.8334, 1504.001
528.3155, 1507.717
528.7976, 1512.449
529.2797, 1514.768
529.7618, 1514.029
530.2440, 1512.403
530.7261, 1511.082
531.2082, 1509.883
531.6903, 1508.593
532.1724, 1506.157
532.6545, 1504.632
533.1367, 1504.805
533.6188, 1506.422
534.1009, 1508.576
534.5830, 1512.763
535.0651, 1515.860
535.5472, 1516.405
536.0294, 1513.868
536.5115, 1512.744
536.9936, 1513.609
537.4757, 1515.096
537.9578, 1515.920
538.4399, 1515.840
538.9221, 1516.902
539.4042, 1519.786
539.8863, 1523.100
540.3684, 1524.214
540.8505, 1523.280
541.3326, 1522.128
541.8148, 1521.466
542.2969, 1521.068
542.7790, 1520.293
543.2611, 1519.256
543.7432, 1518.836
544.2253, 1520.100
544.7075, 1522.032
545.1896, 1523.464
545.6717, 1524.081
546.1538, 1525.107
546.6359, 1527.980
547.1180, 1531.231
547.6002, 1533.258
548.0823, 1531.741
548.5644, 1531.221
549.0465, 1532.876
549.5286, 1536.130
550.0107, 1539.348
550.4929, 1542.740
550.9750, 1545.743
551.4571, 1548.018
551.9392, 1549.561
552.4213, 1551.525
552.9034, 1553.915
553.3856, 1556.706
553.8677, 1560.273
554.3498, 1564.474
554.8319, 1567.231
555.3140, 1567.936
555.7961, 1568.669
556.2783, 1572.870
556.7604, 1579.367
557.2425, 1584.716
557.7246, 1586.565
558.2067, 1587.895
558.6888, 1592.184
559.1710, 1598.541
559.6531, 1603.871
560.1352, 1605.129
560.6173, 1606.107
561.0994, 1609.390
561.5815, 1615.569
562.0637, 1620.774
562.5458, 1624.189
563.0279, 1626.363
563.5100, 1627.688
563.9921, 1627.086
564.4742, 1627.702
564.9564, 1630.748
565.4385, 1634.107
565.9206, 1633.597
566.4027, 1628.264
566.8848, 1623.863
567.3669, 1622.547
567.8491, 1623.061
568.3312, 1621.180
568.8133, 1617.001
569.2954, 1612.829
569.7775, 1610.916
570.2596, 1609.834
570.7418, 1606.370
571.2239, 1600.214
571.7060, 1594.990
572.1881, 1594.706
572.6702, 1596.299
573.1523, 1596.334
573.6345, 1593.368
574.1166, 1589.834
574.5987, 1585.931
575.0808, 1582.214
575.5629, 1579.549
576.0450, 1578.457
576.5272, 1578.132
577.0093, 1578.965
577.4914, 1580.633
577.9735, 1580.806
578.4556, 1578.657
578.9377, 1576.735
579.4199, 1576.065
579.9020, 1576.667
580.3841, 1579.349
580.8662, 1584.486
581.3483, 1589.749
581.8304, 1592.240
582.3126, 1592.810
582.7947, 1594.637
583.2768, 1598.755
583.7589, 1602.905
584.2410, 1603.931
584.7231, 1603.264
585.2053, 1603.746
585.6874, 1607.196
586.1696, 1611.484
586.6517, 1616.498
587.1338, 1621.653
587.6159, 1624.551
588.0980, 1622.671
588.5801, 1620.025
589.0623, 1618.426
589.5444, 1618.201
590.0265, 1616.992
590.5086, 1614.750
590.9907, 1611.613
591.4728, 1607.540
591.9550, 1602.457
592.4371, 1597.346
592.9192, 1592.389
593.4013, 1587.406
593.8834, 1581.892
594.3655, 1576.034
594.8477, 1570.857
595.3298, 1566.830
595.8119, 1563.593
596.2940, 1561.489
596.7761, 1559.968
597.2582, 1557.109
597.7404, 1548.879
598.2225, 1541.243
598.7046, 1539.372
599.1867, 1543.454
599.6688, 1546.343
600.1509, 1545.286
600.6331, 1542.781
601.1152, 1540.263
601.5973, 1537.642
602.0794, 1535.367
602.5615, 1533.828
603.0436, 1532.276
603.5258, 1529.706
604.0079, 1525.837
604.4900, 1522.580
604.9721, 1520.297
605.4542, 1518.804
605.9363, 1518.198
606.4185, 1518.343
606.9006, 1517.818
607.3827, 1515.460
607.8648, 1512.421
608.3469, 1510.578
608.8290, 1509.705
609.3112, 1508.612
609.7933, 1505.909
610.2754, 1503.161
610.7575, 1501.619
611.2396, 1501.575
611.7217, 1501.591
612.2039, 1501.699
612.6860, 1501.413
613.1681, 1500.294
613.6502, 1497.424
614.1323, 1495.307
614.6144, 1494.258
615.0966, 1493.710
615.5787, 1492.609
616.0608, 1490.726
616.5429, 1490.013
617.0250, 1491.401
617.5071, 1493.712
617.9893, 1494.504
618.4714, 1493.819
618.9535, 1491.921
619.4356, 1487.681
619.9177, 1483.003
620.3998, 1480.422
620.8820, 1479.815
621.3641, 1479.714
621.8462, 1479.752
622.3283, 1479.658
622.8104, 1479.261
623.2925, 1478.550
623.7747, 1477.422
624.2568, 1474.873
624.7389, 1472.493
625.2210, 1471.623
625.7031, 1473.062
626.1852, 1474.225
626.6674, 1474.918
627.1495, 1475.320
627.6316, 1475.805
628.1137, 1476.396
628.5958, 1476.502
629.0779, 1475.822
629.5601, 1474.733
630.0422, 1473.939
630.5243, 1473.413
631.0064, 1472.921
631.4885, 1471.980
631.9706, 1471.284
632.4528, 1472.076
632.9349, 1474.161
633.4170, 1475.107
633.8991, 1471.768
634.3812, 1468.554
634.8633, 1468.526
635.3455, 1473.589
635.8276, 1476.649
636.3097, 1476.149
636.7918, 1474.857
637.2739, 1475.263
637.7560, 1478.021
638.2382, 1479.612
638.7203, 1479.376
639.2024, 1478.522
639.6845, 1478.983
640.1666, 1480.586
640.6487, 1482.100
641.1309, 1483.320
641.6130, 1483.996
642.0951, 1482.839
642.5772, 1480.706
643.0594, 1480.108
643.5415, 1484.351
644.0236, 1488.660
644.5057, 1489.838
644.9879, 1488.158
645.4700, 1486.951
645.9521, 1487.945
646.4342, 1488.751
646.9163, 1488.033
647.3984, 1485.332
647.8806, 1484.796
648.3627, 1487.844
648.8448, 1490.493
649.3269, 1488.307
649.8090, 1481.322
650.2911, 1478.775
650.7733, 1481.853
651.2554, 1487.091
651.7375, 1491.124
652.2196, 1494.092
652.7017, 1496.258
653.1838, 1497.244
653.6660, 1498.293
654.1481, 1500.648
654.6302, 1503.647
655.1123, 1506.174
655.5944, 1506.566
656.0765, 1507.710
656.5587, 1510.841
657.0408, 1515.529
657.5229, 1519.851
658.0050, 1523.561
658.4871, 1527.153
658.9692, 1530.913
659.4514, 1534.752
659.9335, 1537.643
660.4156, 1539.496
660.8977, 1541.075
661.3798, 1542.748
661.8619, 1544.568
662.3441, 1546.691
662.8262, 1549.137
663.3083, 1551.932
663.7904, 1555.495
664.2725, 1559.253
664.7546, 1562.488
665.2368, 1564.779
665.7189, 1567.398
666.2010, 1570.333
666.6831, 1574.064
667.1652, 1579.222
667.6473, 1586.730
668.1295, 1594.245
668.6116, 1602.027
669.0937, 1609.530
669.5758, 1615.106
670.0579, 1618.468
670.5400, 1622.986
671.0222, 1630.071
671.5043, 1638.425
671.9864, 1645.313
672.4685, 1651.037
672.9506, 1657.212
673.4327, 1664.277
673.9149, 1672.384
674.3970, 1682.239
674.8791, 1693.610
675.3612, 1704.583
675.8433, 1714.911
676.3254, 1724.361
676.8076, 1732.292
677.2897, 1738.223
677.7718, 1745.891
678.2539, 1756.691
678.7360, 1767.247
679.2181, 1774.633
679.7003, 1778.242
680.1824, 1785.373
680.6645, 1796.905
681.1466, 1809.043
681.6287, 1817.394
682.1108, 1823.047
682.5930, 1828.917
683.0751, 1835.908
683.5572, 1842.192
684.0393, 1846.291
684.5214, 1848.706
685.0035, 1850.208
685.4857, 1851.332
685.9678, 1851.170
686.4499, 1848.704
686.9320, 1844.847
687.4141, 1841.716
687.8962, 1840.184
688.3784, 1837.887
688.8605, 1834.790
689.3426, 1830.395
689.8247, 1822.200
690.3068, 1809.997
690.7889, 1798.122
691.2711, 1789.128
691.7532, 1781.649
692.2353, 1773.274
692.7174, 1764.138
693.1995, 1754.613
693.6816, 1744.005
694.1638, 1733.787
694.6459, 1725.471
695.1280, 1719.240
695.6101, 1712.876
696.0922, 1705.114
696.5743, 1697.731
697.0565, 1691.752
697.5386, 1687.549
698.0207, 1683.072
698.5028, 1678.293
698.9849, 1673.338
699.4670, 1667.859
699.9492, 1662.040
700.4313, 1658.206
700.9135, 1656.978
701.3956, 1655.867
701.8777, 1651.471
702.3598, 1645.476
702.8419, 1640.865
703.3240, 1639.035
703.8062, 1637.434
704.2883, 1634.664
704.7704, 1631.310
705.2525, 1628.295
705.7346, 1624.034
706.2167, 1622.640
706.6989, 1626.971
707.1810, 1633.334
707.6631, 1632.523
708.1452, 1623.201
708.6273, 1614.968
709.1094, 1610.876
709.5916, 1609.563
710.0737, 1608.356
710.5558, 1607.240
711.0379, 1606.013
711.5200, 1604.273
712.0021, 1602.590
712.4843, 1601.599
712.9664, 1601.135
713.4485, 1600.373
713.9306, 1597.659
714.4127, 1595.771
714.8948, 1596.604
715.3770, 1600.194
715.8591, 1602.413
716.3412, 1603.074
716.8233, 1602.731
717.3054, 1601.404
717.7875, 1599.144
718.2697, 1597.382
718.7518, 1596.143
719.2339, 1595.037
719.7160, 1593.715
720.1981, 1592.326
720.6802, 1591.025
721.1624, 1589.826
721.6445, 1588.940
722.1266, 1588.382
722.6087, 1588.267
723.0908, 1588.755
723.5729, 1590.222
724.0551, 1591.597
724.5372, 1593.208
725.0193, 1594.367
725.5014, 1594.020
725.9835, 1591.715
726.4656, 1590.816
726.9478, 1591.926
727.4299, 1593.826
727.9120, 1594.762
728.3941, 1595.032
728.8762, 1595.659
729.3583, 1597.304
729.8405, 1598.558
730.3226, 1597.716
730.8047, 1595.791
731.2868, 1594.480
731.7689, 1594.887
732.2510, 1595.253
732.7332, 1594.890
733.2153, 1594.293
733.6974, 1594.594
734.1795, 1596.316
734.6616, 1597.515
735.1437, 1597.658
735.6259, 1597.022
736.1080, 1596.203
736.5901, 1595.209
737.0722, 1594.126
737.5543, 1592.969
738.0364, 1591.749
738.5186, 1589.932
739.0007, 1587.947
739.4828, 1587.272
739.9649, 1590.435
740.4470, 1593.243
740.9291, 1593.686
741.4113, 1591.809
741.8934, 1589.910
742.3755, 1588.190
742.8576, 1586.060
743.3397, 1582.818
743.8218, 1578.814
744.3040, 1577.140
744.7861, 1577.857
745.2682, 1579.219
745.7503, 1580.668
746.2324, 1581.738
746.7145, 1581.300
747.1967, 1579.431
747.6788, 1577.789
748.1609, 1578.053
748.6430, 1578.254
749.1251, 1576.766
749.6072, 1572.865
750.0894, 1570.344
750.5715, 1569.376
751.0536, 1569.739
751.5357, 1571.995
752.0178, 1576.538
752.4999, 1578.070
752.9821, 1576.283
753.4642, 1573.600
753.9463, 1572.271
754.4284, 1571.716
754.9105, 1570.500
755.3926, 1568.280
755.8748, 1566.887
756.3569, 1568.583
756.8390, 1570.958
757.3211, 1571.814
757.8032, 1570.046
758.2853, 1568.242
758.7675, 1565.910
759.2496, 1564.228
759.7318, 1564.625
760.2139, 1567.503
760.6960, 1569.529
761.1781, 1570.521
761.6602, 1570.346
762.1423, 1568.150
762.6245, 1564.731
763.1066, 1561.941
763.5887, 1560.163
764.0708, 1559.232
764.5529, 1559.459
765.0350, 1560.323
765.5172, 1561.195
765.9993, 1562.437
766.4814, 1562.938
766.9635, 1562.309
767.4456, 1561.152
767.9277, 1560.191
768.4099, 1559.393
768.8920, 1558.942
769.3741, 1559.070
769.8562, 1558.991
770.3383, 1556.954
770.8204, 1553.764
771.3026, 1551.637
771.7847, 1551.512
772.2668, 1552.188
772.7489, 1553.516
773.2310, 1554.979
773.7131, 1555.743
774.1953, 1554.997
774.6774, 1554.445
775.1595, 1554.425
775.6416, 1554.643
776.1237, 1554.583
776.6058, 1554.247
777.0880, 1553.492
777.5701, 1551.997
778.0522, 1550.578
778.5343, 1550.915
779.0164, 1552.489
779.4985, 1553.832
779.9807, 1554.117
780.4628, 1554.215
780.9449, 1554.295
781.4270, 1554.590
781.9091, 1555.605
782.3912, 1558.970
782.8734, 1561.094
783.3555, 1561.361
783.8376, 1560.149
784.3197, 1557.849
784.8018, 1554.231
785.2839, 1552.374
785.7661, 1553.942
786.2482, 1556.744
786.7303, 1557.106
787.2124, 1555.637
787.6945, 1554.085
788.1766, 1552.867
788.6588, 1552.161
789.1409, 1552.267
789.6230, 1552.941
790.1051, 1553.492
790.5872, 1553.662
791.0693, 1554.025
791.5515, 1554.838
792.0336, 1555.854
792.5157, 1556.288
792.9978, 1556.145
793.4799, 1555.834
793.9620, 1555.236
794.4442, 1554.877
794.9263, 1555.442
795.4084, 1556.876
795.8905, 1559.025
796.3726, 1563.551
796.8547, 1566.934
797.3369, 1566.771
797.8190, 1564.154
798.3011, 1562.902
798.7832, 1562.641
799.2653, 1564.837
799.7474, 1571.070
800.2296, 1579.069
800.7117, 1581.980
801.1938, 1580.202
801.6759, 1578.090
802.1580, 1577.441
802.6401, 1577.422
803.1223, 1577.080
803.6044, 1576.629
804.0865, 1576.613
804.5686, 1577.801
805.0507, 1578.877
805.5328, 1579.388
806.0150, 1579.519
806.4971, 1579.567
806.9792, 1579.226
807.4613, 1579.943
807.9434, 1582.548
808.4255, 1585.968
808.9077, 1587.940
809.3898, 1588.579
809.8719, 1588.420
810.3540, 1586.711
810.8361, 1585.298
811.3182, 1585.711
811.8004, 1587.511
812.2825, 1589.688
812.7646, 1592.838
813.2467, 1595.228
813.7288, 1596.061
814.2109, 1596.151
814.6931, 1597.879
815.1752, 1601.568
815.6573, 1604.126
816.1394, 1604.357
816.6215, 1603.585
817.1037, 1603.391
817.5858, 1603.980
818.0679, 1605.888
818.5500, 1611.608
819.0322, 1616.214
819.5143, 1615.548
819.9964, 1612.249
820.4785, 1611.996
820.9606, 1617.163
821.4427, 1621.313
821.9249, 1623.237
822.4070, 1623.878
822.8891, 1625.309
823.3712, 1627.398
823.8533, 1628.607
824.3354, 1628.322
824.8176, 1627.438
825.2997, 1627.012
825.7818, 1626.715
826.2639, 1625.980
826.7460, 1624.735
827.2281, 1622.923
827.7103, 1619.366
828.1924, 1615.769
828.6745, 1614.503
829.1566, 1616.078
829.6387, 1618.133
830.1208, 1620.610
830.6030, 1622.695
831.0851, 1623.096
831.5672, 1622.035
832.0493, 1619.893
832.5314, 1616.232
833.0135, 1612.963
833.4957, 1611.116
833.9778, 1610.567
834.4599, 1611.169
834.9420, 1616.132
835.4241, 1617.309
835.9063, 1612.825
836.3884, 1606.845
836.8705, 1604.618
837.3526, 1606.035
837.8347, 1606.531
838.3168, 1605.388
838.7990, 1604.208
839.2811, 1605.020
839.7632, 1606.682
840.2453, 1607.621
840.7274, 1607.410
841.2095, 1606.825
841.6917, 1605.635
842.1738, 1604.497
842.6559, 1603.791
843.1380, 1603.295
843.6201, 1604.329
844.1022, 1607.396
844.5844, 1610.270
845.0665, 1610.543
845.5486, 1609.021
846.0307, 1607.741
846.5128, 1606.889
846.9949, 1606.584
847.4771, 1607.125
847.9592, 1608.105
848.4413, 1609.420
848.9234, 1611.274
849.4055, 1611.997
849.8876, 1610.455
850.3698, 1609.522
850.8519, 1611.097
851.3340, 1614.964
851.8161, 1618.674
852.2982, 1622.210
852.7803, 1625.212
853.2625, 1627.375
853.7446, 1628.865
854.2267, 1629.802
854.7088, 1630.228
855.1909, 1630.459
855.6730, 1629.958
856.1552, 1630.024
856.6373, 1631.612
857.1194, 1634.378
857.6015, 1635.297
858.0836, 1634.195
858.5657, 1632.705
859.0479, 1631.125
859.5300, 1629.993
860.0121, 1630.775
860.4942, 1633.005
860.9763, 1635.040
861.4584, 1635.536
861.9406, 1636.148
862.4227, 1637.598
862.9048, 1639.791
863.3869, 1642.305
863.8690, 1645.569
864.3511, 1648.005
864.8333, 1648.962
865.3154, 1649.245
865.7975, 1650.919
866.2796, 1653.561
866.7617, 1655.341
867.2438, 1655.268
867.7260, 1654.721
868.2081, 1654.387
868.6902, 1654.357
869.1723, 1654.769
869.6544, 1655.541
870.1365, 1657.025
870.6187, 1659.720
871.1008, 1662.600
871.5829, 1663.880
872.0650, 1663.691
872.5471, 1664.924
873.0292, 1668.387
873.5114, 1671.446
873.9935, 1669.401
874.4756, 1666.253
874.9577, 1667.906
875.4399, 1677.970
875.9220, 1684.914
876.4041, 1683.405
876.8862, 1679.829
877.3683, 1677.904
877.8505, 1677.730
878.3326, 1678.562
878.8147, 1680.445
879.2968, 1682.824
879.7789, 1685.625
880.2610, 1688.397
880.7432, 1690.560
881.2253, 1692.061
881.7074, 1692.769
882.1895, 1691.277
882.6716, 1690.216
883.1537, 1691.573
883.6359, 1695.153
884.1180, 1697.050
884.6001, 1696.986
885.0822, 1696.458
885.5643, 1695.574
886.0464, 1695.093
886.5286, 1697.958
887.0107, 1703.178
887.4928, 1706.678
887.9749, 1704.245
888.4570, 1701.536
888.9391, 1701.305
889.4213, 1703.103
889.9034, 1705.309
890.3855, 1708.393
890.8676, 1710.489
891.3497, 1710.939
891.8318, 1710.609
892.3140, 1711.260
892.7961, 1712.612
893.2782, 1713.528
893.7603, 1713.489
894.2424, 1713.330
894.7245, 1712.864
895.2067, 1712.982
895.6888, 1714.827
896.1709, 1720.222
896.6530, 1724.785
897.1351, 1728.651
897.6172, 1731.412
898.0994, 1731.979
898.5815, 1730.759
899.0636, 1730.776
899.5457, 1732.351
900.0278, 1734.468
900.5099, 1736.231
900.9921, 1738.214
901.4742, 1740.849
901.9563, 1744.117
902.4384, 1748.694
902.9205, 1755.599
903.4026, 1762.221
903.8848, 1767.218
904.3669, 1770.774
904.8490, 1775.172
905.3311, 1780.319
905.8132, 1784.443
906.2953, 1785.303
906.7775, 1785.548
907.2596, 1787.811
907.7417, 1791.738
908.2238, 1796.020
908.7059, 1801.200
909.1880, 1805.489
909.6702, 1808.248
910.1523, 1810.088
910.6344, 1812.668
911.1165, 1815.966
911.5986, 1818.412
912.0807, 1819.713
912.5629, 1819.699
913.0450, 1817.245
913.5271, 1813.671
914.0092, 1811.048
914.4913, 1811.734
914.9734, 1810.118
915.4556, 1803.852
915.9377, 1796.456
916.4198, 1791.244
916.9019, 1788.395
917.3840, 1784.643
917.8661, 1779.814
918.3483, 1773.948
918.8304, 1766.323
919.3125, 1758.036
919.7946, 1750.389
920.2767, 1743.584
920.7589, 1736.989
921.2410, 1729.599
921.7231, 1723.324
922.2052, 1719.081
922.6873, 1716.644
923.1694, 1714.368
923.6516, 1712.287
924.1337, 1709.376
924.6158, 1704.423
925.0979, 1698.934
925.5800, 1695.046
926.0621, 1692.265
926.5443, 1689.323
927.0264, 1683.898
927.5085, 1680.852
927.9906, 1682.952
928.4727, 1686.578
928.9548, 1685.003
929.4370, 1678.000
929.9191, 1672.993
930.4012, 1671.463
930.8833, 1671.591
931.3654, 1672.419
931.8475, 1673.188
932.3297, 1672.572
932.8118, 1669.640
933.2939, 1667.819
933.7761, 1669.192
934.2582, 1670.553
934.7403, 1669.634
935.2224, 1666.316
935.7045, 1665.608
936.1866, 1667.613
936.6688, 1668.875
937.1509, 1665.759
937.6330, 1661.435
938.1151, 1659.438
938.5972, 1659.570
939.0793, 1660.265
939.5615, 1662.578
940.0436, 1663.565
940.5257, 1662.297
941.0078, 1659.423
941.4899, 1656.161
941.9720, 1652.582
942.4542, 1650.531
942.9363, 1650.870
943.4184, 1652.015
943.9005, 1652.165
944.3826, 1652.021
944.8647, 1652.631
945.3469, 1654.931
945.8290, 1656.594
946.3111, 1657.335
946.7932, 1657.509
947.2753, 1656.720
947.7574, 1655.140
948.2396, 1657.447
948.7217, 1663.843
949.2038, 1669.017
949.6859, 1666.707
950.1680, 1662.932
950.6501, 1663.583
951.1323, 1668.705
951.6144, 1672.440
952.0965, 1673.982
952.5786, 1674.182
953.0607, 1672.750
953.5428, 1670.500
954.0250, 1670.111
954.5071, 1671.267
954.9892, 1672.100
955.4713, 1671.465
955.9534, 1670.959
956.4355, 1671.758
956.9177, 1673.430
957.3998, 1675.428
957.8819, 1678.543
958.3640, 1680.219
958.8461, 1679.985
959.3282, 1679.181
959.8104, 1678.949
960.2925, 1679.335
960.7746, 1680.593
961.2567, 1682.756
961.7388, 1685.334
962.2209, 1688.891
962.7031, 1692.046
963.1852, 1693.432
963.6673, 1693.135
964.1494, 1693.870
964.6315, 1695.900
965.1136, 1697.948
965.5958, 1699.501
966.0779, 1700.782
966.5600, 1701.910
967.0421, 1703.164
967.5242, 1705.339
968.0063, 1710.220
968.4885, 1714.080
968.9706, 1714.749
969.4527, 1714.091
969.9348, 1714.391
970.4169, 1715.873
970.8990, 1717.148
971.3812, 1718.009
971.8633, 1719.369
972.3454, 1723.466
972.8275, 1727.965
973.3096, 1728.818
973.7917, 1725.705
974.2739, 1723.256
974.7560, 1723.698
975.2381, 1724.479
975.7202, 1724.602
976.2023, 1724.250
976.6844, 1724.676
977.1666, 1725.867
977.6487, 1725.878
978.1308, 1723.090
978.6129, 1720.162
979.0950, 1720.248
979.5771, 1722.035
980.0593, 1723.349
980.5414, 1722.953
981.0235, 1723.199
981.5056, 1724.907
981.9877, 1726.232
982.4698, 1724.854
982.9520, 1721.262
983.4341, 1718.608
983.9162, 1717.076
984.3983, 1715.702
984.8804, 1713.063
985.3625, 1710.909
985.8447, 1711.302
986.3268, 1714.040
986.8089, 1714.188
987.2910, 1710.627
987.7731, 1707.667
988.2552, 1706.900
988.7374, 1707.292
989.2195, 1706.937
989.7016, 1706.008
990.1837, 1704.990
990.6658, 1704.434
991.1479, 1703.052
991.6301, 1699.082
992.1122, 1694.840
992.5944, 1692.588
993.0765, 1692.701
993.5586, 1693.050
994.0407, 1693.673
994.5228, 1693.968
995.0049, 1693.554
995.4871, 1692.439
995.9692, 1690.121
996.4513, 1686.862
996.9334, 1684.503
997.4155, 1683.715
997.8976, 1683.889
998.3798, 1685.180
998.8619, 1687.118
999.3440, 1688.932
999.8261, 1690.525
1000.308, 1690.901
1000.790, 1689.662
1001.272, 1687.608
1001.755, 1684.744
1002.237, 1681.763
1002.719, 1679.380
1003.201, 1677.570
1003.683, 1676.851
1004.165, 1677.509
1004.647, 1678.564
1005.129, 1679.878
1005.612, 1681.026
1006.094, 1680.549
1006.576, 1678.708
1007.058, 1676.650
1007.540, 1674.300
1008.022, 1672.637
1008.504, 1672.585
1008.986, 1673.279
1009.468, 1673.038
1009.951, 1671.605
1010.433, 1671.572
1010.915, 1673.595
1011.397, 1675.781
1011.879, 1675.852
1012.361, 1674.872
1012.843, 1673.908
1013.325, 1673.007
1013.807, 1673.100
1014.290, 1674.942
1014.772, 1676.875
1015.254, 1678.397
1015.736, 1679.375
1016.218, 1679.126
1016.700, 1677.792
1017.182, 1676.139
1017.664, 1673.905
1018.147, 1672.261
1018.629, 1672.656
1019.111, 1673.855
1019.593, 1673.846
1020.075, 1671.858
1020.557, 1670.970
1021.039, 1671.519
1021.521, 1672.354
1022.003, 1672.318
1022.486, 1671.842
1022.968, 1671.884
1023.450, 1672.405
1023.932, 1672.324
1024.414, 1670.430
1024.896, 1668.772
1025.378, 1667.878
1025.860, 1667.735
1026.343, 1668.555
1026.825, 1670.247
1027.307, 1671.743
1027.789, 1672.740
1028.271, 1673.491
1028.753, 1674.210
1029.235, 1674.810
1029.717, 1675.254
1030.199, 1675.714
1030.682, 1675.143
1031.164, 1673.101
1031.646, 1671.239
1032.128, 1670.737
1032.610, 1671.097
1033.092, 1670.594
1033.574, 1669.728
1034.056, 1670.360
1034.539, 1675.644
1035.021, 1679.717
1035.503, 1680.147
1035.985, 1678.768
1036.467, 1677.748
1036.949, 1677.091
1037.431, 1676.971
1037.913, 1677.487
1038.396, 1677.706
1038.878, 1675.770
1039.360, 1673.876
1039.842, 1674.875
1040.324, 1678.927
1040.806, 1680.125
1041.288, 1676.671
1041.770, 1674.021
1042.252, 1674.092
1042.734, 1675.699
1043.217, 1676.966
1043.699, 1677.727
1044.181, 1677.327
1044.663, 1674.543
1045.145, 1673.018
1045.627, 1676.579
1046.109, 1679.883
1046.591, 1678.089
1047.074, 1670.836
1047.556, 1668.585
1048.038, 1671.335
1048.520, 1674.666
1049.002, 1675.569
1049.484, 1675.807
1049.966, 1677.208
1050.448, 1679.178
1050.931, 1679.818
1051.413, 1677.514
1051.895, 1677.404
1052.377, 1680.821
1052.859, 1684.667
1053.341, 1684.729
1053.823, 1682.503
1054.305, 1681.105
1054.787, 1680.896
1055.270, 1681.588
1055.752, 1684.852
1056.234, 1686.909
1056.716, 1685.406
1057.198, 1681.698
1057.680, 1681.654
1058.162, 1684.986
1058.644, 1687.099
1059.126, 1685.970
1059.609, 1684.529
1060.091, 1685.621
1060.573, 1687.697
1061.055, 1689.279
1061.537, 1690.744
1062.019, 1689.061
1062.501, 1683.134
1062.983, 1678.173
1063.466, 1678.689
1063.948, 1681.960
1064.430, 1683.066
1064.912, 1682.594
1065.394, 1682.268
1065.876, 1682.989
1066.358, 1683.608
1066.840, 1683.922
1067.323, 1684.061
1067.805, 1683.830
1068.287, 1683.421
1068.769, 1684.581
1069.251, 1687.420
1069.733, 1690.190
1070.215, 1691.364
1070.697, 1692.261
1071.179, 1694.005
1071.661, 1696.207
1072.144, 1697.118
1072.626, 1696.614
1073.108, 1695.439
1073.590, 1693.573
1074.072, 1691.805
1074.554, 1691.706
1075.036, 1692.085
1075.518, 1690.744
1076.001, 1686.172
1076.483, 1686.142
1076.965, 1694.106
1077.447, 1700.498
1077.929, 1699.350
1078.411, 1693.679
1078.893, 1691.882
1079.375, 1693.110
1079.858, 1694.656
1080.340, 1695.827
1080.822, 1696.479
1081.304, 1696.020
1081.786, 1695.339
1082.268, 1695.135
1082.750, 1695.389
1083.232, 1696.495
1083.714, 1698.452
1084.197, 1699.979
1084.679, 1699.697
1085.161, 1699.100
1085.643, 1698.988
1086.125, 1699.570
1086.607, 1701.517
1087.089, 1705.895
1087.571, 1707.676
1088.054, 1705.676
1088.536, 1702.703
1089.018, 1702.035
1089.500, 1702.502
1089.982, 1702.172
1090.464, 1700.792
1090.946, 1700.666
1091.428, 1702.926
1091.911, 1705.406
1092.393, 1707.865
1092.875, 1709.647
1093.357, 1708.409
1093.839, 1705.161
1094.321, 1703.190
1094.803, 1703.892
1095.285, 1704.408
1095.767, 1702.294
1096.250, 1700.607
1096.732, 1701.672
1097.214, 1705.309
1097.696, 1707.825
1098.178, 1709.261
1098.660, 1710.149
1099.142, 1710.513
1099.624, 1710.768
1100.106, 1711.864
1100.589, 1712.799
1101.071, 1711.692
1101.553, 1707.073
1102.035, 1705.552
1102.517, 1707.702
1102.999, 1710.362
1103.481, 1710.673
1103.963, 1710.042
1104.446, 1709.844
1104.928, 1710.280
1105.410, 1712.050
1105.892, 1717.749
1106.374, 1720.178
1106.856, 1717.188
1107.338, 1712.875
1107.820, 1713.496
1108.302, 1716.970
1108.785, 1717.819
1109.267, 1715.425
1109.749, 1714.086
1110.231, 1716.586
1110.713, 1719.562
1111.195, 1722.457
1111.677, 1724.564
1112.159, 1722.775
1112.641, 1717.980
1113.124, 1716.021
1113.606, 1718.996
1114.088, 1722.277
1114.570, 1722.570
1115.052, 1722.073
1115.534, 1722.659
1116.016, 1724.276
1116.498, 1724.796
1116.981, 1724.186
1117.463, 1723.586
1117.945, 1723.521
1118.427, 1723.617
1118.909, 1722.909
1119.391, 1722.357
1119.873, 1723.621
1120.355, 1728.109
1120.838, 1730.234
1121.320, 1729.528
1121.802, 1728.380
1122.284, 1728.734
1122.766, 1729.487
1123.248, 1728.335
1123.730, 1726.203
1124.212, 1725.583
1124.694, 1729.177
1125.177, 1731.442
1125.659, 1731.798
1126.141, 1731.193
1126.623, 1729.881
1127.105, 1728.558
1127.587, 1729.686
1128.069, 1732.959
1128.551, 1735.243
1129.033, 1734.373
1129.516, 1733.149
1129.998, 1731.836
1130.480, 1731.110
1130.962, 1732.890
1131.444, 1736.449
1131.926, 1737.752
1132.408, 1736.135
1132.890, 1734.696
1133.373, 1736.544
1133.855, 1737.925
1134.337, 1735.653
1134.819, 1731.474
1135.301, 1732.782
1135.783, 1739.280
1136.265, 1741.340
1136.747, 1735.100
1137.229, 1729.535
1137.712, 1734.675
1138.194, 1742.220
1138.676, 1744.207
1139.158, 1740.492
1139.640, 1737.748
1140.122, 1735.912
1140.604, 1735.533
1141.086, 1737.583
1141.569, 1739.765
1142.051, 1738.549
1142.533, 1736.319
1143.015, 1736.525
1143.497, 1740.695
1143.979, 1743.868
1144.461, 1746.155
1144.943, 1746.795
1145.426, 1743.779
1145.908, 1740.080
1146.390, 1741.335
1146.872, 1745.475
1147.354, 1748.198
1147.836, 1747.461
1148.318, 1746.260
1148.800, 1744.509
1149.282, 1742.705
1149.765, 1740.910
1150.247, 1739.527
1150.729, 1740.043
1151.211, 1741.942
1151.693, 1742.985
1152.175, 1740.886
1152.657, 1740.046
1153.139, 1741.829
1153.621, 1744.082
1154.104, 1743.795
1154.586, 1741.885
1155.068, 1741.408
1155.550, 1742.494
1156.032, 1744.181
1156.514, 1747.852
1156.996, 1749.541
1157.478, 1747.119
1157.961, 1743.088
1158.443, 1741.932
1158.925, 1743.235
1159.407, 1744.828
1159.889, 1746.408
1160.371, 1747.977
1160.853, 1749.669
1161.335, 1751.171
1161.818, 1752.169
1162.300, 1752.912
1162.782, 1754.429
1163.264, 1756.567
1163.746, 1757.407
1164.228, 1756.284
1164.710, 1755.354
1165.192, 1756.664
1165.674, 1758.358
1166.156, 1758.947
1166.639, 1758.662
1167.121, 1759.380
1167.603, 1761.095
1168.085, 1761.134
1168.567, 1758.107
1169.049, 1754.835
1169.531, 1753.711
1170.013, 1753.576
1170.496, 1753.052
1170.978, 1752.030
1171.460, 1753.300
1171.942, 1757.066
1172.424, 1759.077
1172.906, 1756.061
1173.388, 1752.875
1173.870, 1755.615
1174.353, 1760.519
1174.835, 1762.120
1175.317, 1759.087
1175.799, 1759.467
1176.281, 1763.777
1176.763, 1767.527
1177.245, 1768.139
1177.727, 1767.009
1178.209, 1764.444
1178.692, 1761.701
1179.174, 1761.149
1179.656, 1764.390
1180.138, 1765.826
1180.620, 1765.153
1181.102, 1764.224
1181.584, 1765.032
1182.066, 1765.829
1182.548, 1763.089
1183.031, 1758.762
1183.513, 1757.667
1183.995, 1762.745
1184.477, 1765.923
1184.959, 1766.797
1185.441, 1766.185
1185.923, 1762.808
1186.405, 1759.745
1186.888, 1762.734
1187.370, 1769.981
1187.852, 1774.719
1188.334, 1775.284
1188.816, 1773.938
1189.298, 1770.312
1189.780, 1766.675
1190.262, 1764.491
1190.745, 1764.305
1191.227, 1768.853
1191.709, 1776.790
1192.191, 1780.580
1192.673, 1776.717
1193.155, 1772.227
1193.637, 1767.433
1194.119, 1763.922
1194.601, 1764.074
1195.084, 1766.473
1195.566, 1769.266
1196.048, 1772.216
1196.530, 1774.577
1197.012, 1775.983
1197.494, 1777.373
1197.976, 1779.050
1198.458, 1780.444
1198.941, 1780.481
1199.423, 1779.781
1199.905, 1779.308
1200.387, 1779.166
1200.869, 1779.365
1201.351, 1780.332
1201.833, 1780.755
1202.315, 1780.258
1202.797, 1779.198
1203.280, 1777.807
1203.762, 1776.428
1204.244, 1775.538
1204.726, 1775.217
1205.208, 1775.862
1205.690, 1777.849
1206.172, 1780.345
1206.654, 1783.797
1207.136, 1786.419
1207.619, 1783.465
1208.101, 1778.070
1208.583, 1775.851
1209.065, 1778.127
1209.547, 1780.914
1210.029, 1784.221
1210.511, 1786.450
1210.993, 1786.638
1211.476, 1786.070
1211.958, 1787.777
1212.440, 1790.249
1212.922, 1790.373
1213.404, 1786.849
1213.886, 1784.819
1214.368, 1785.050
1214.850, 1786.286
1215.333, 1788.425
1215.815, 1790.672
1216.297, 1791.572
1216.779, 1791.534
1217.261, 1791.255
1217.743, 1790.840
1218.225, 1790.368
1218.707, 1789.814
1219.189, 1789.297
1219.672, 1788.842
1220.154, 1788.474
1220.636, 1788.015
1221.118, 1787.752
1221.600, 1788.382
1222.082, 1790.726
1222.564, 1791.590
1223.046, 1790.299
1223.528, 1789.098
1224.011, 1788.972
1224.493, 1789.832
1224.975, 1792.426
1225.457, 1795.607
1225.939, 1797.278
1226.421, 1795.992
1226.903, 1796.066
1227.385, 1798.060
1227.868, 1799.471
1228.350, 1798.238
1228.832, 1796.352
1229.314, 1797.558
1229.796, 1800.047
1230.278, 1800.589
1230.760, 1797.467
1231.242, 1795.571
1231.724, 1795.030
1232.207, 1795.002
1232.689, 1794.920
1233.171, 1795.144
1233.653, 1796.693
1234.135, 1798.683
1234.617, 1799.588
1235.099, 1799.011
1235.581, 1798.155
1236.063, 1796.996
1236.546, 1795.957
1237.028, 1795.376
1237.510, 1795.017
1237.992, 1794.375
1238.474, 1793.889
1238.956, 1794.377
1239.438, 1796.076
1239.920, 1797.863
1240.403, 1799.750
1240.885, 1801.081
1241.367, 1800.568
1241.849, 1800.143
1242.331, 1801.922
1242.813, 1804.617
1243.295, 1806.416
1243.777, 1807.339
1244.260, 1806.380
1244.742, 1803.519
1245.224, 1801.441
1245.706, 1802.162
1246.188, 1803.860
1246.670, 1805.831
1247.152, 1807.789
1247.634, 1809.318
1248.116, 1810.421
1248.599, 1811.811
1249.081, 1813.448
1249.563, 1814.505
1250.045, 1813.969
1250.527, 1813.318
1251.009, 1813.532
1251.491, 1813.866
1251.973, 1813.292
1252.455, 1811.886
1252.938, 1812.488
1253.420, 1814.707
1253.902, 1815.427
1254.384, 1809.902
1254.866, 1806.550
1255.348, 1810.936
1255.830, 1816.246
1256.313, 1815.289
1256.795, 1809.633
1257.277, 1809.746
1257.759, 1814.689
1258.241, 1819.115
1258.723, 1820.546
1259.205, 1821.147
1259.687, 1821.166
1260.169, 1820.916
1260.651, 1820.216
1261.134, 1819.530
1261.616, 1820.740
1262.098, 1823.350
1262.580, 1825.673
1263.062, 1828.015
1263.544, 1828.034
1264.026, 1824.235
1264.508, 1821.237
1264.991, 1824.742
1265.473, 1830.731
1265.955, 1830.947
1266.437, 1827.202
1266.919, 1824.401
1267.401, 1823.841
1267.883, 1824.566
1268.365, 1826.922
1268.848, 1829.253
1269.330, 1830.357
1269.812, 1830.650
1270.294, 1829.712
1270.776, 1828.580
1271.258, 1829.858
1271.740, 1835.119
1272.222, 1837.653
1272.704, 1837.046
1273.187, 1836.400
1273.669, 1838.377
1274.151, 1840.709
1274.633, 1841.981
1275.115, 1841.939
1275.597, 1840.023
1276.079, 1835.726
1276.561, 1833.432
1277.043, 1833.161
1277.526, 1834.164
1278.008, 1837.407
1278.490, 1840.216
1278.972, 1840.527
1279.454, 1839.965
1279.936, 1840.260
1280.418, 1841.367
1280.900, 1841.631
1281.383, 1841.250
1281.865, 1841.563
1282.347, 1844.039
1282.829, 1846.130
1283.311, 1847.145
1283.793, 1847.217
1284.275, 1845.927
1284.757, 1843.774
1285.240, 1842.469
1285.722, 1842.157
1286.204, 1843.455
1286.686, 1848.785
1287.168, 1851.799
1287.650, 1851.629
1288.132, 1849.790
1288.614, 1845.802
1289.096, 1841.985
1289.578, 1844.303
1290.061, 1850.179
1290.543, 1854.279
1291.025, 1854.117
1291.507, 1854.925
1291.989, 1856.937
1292.471, 1858.648
1292.953, 1858.786
1293.435, 1858.671
1293.918, 1860.764
1294.400, 1863.186
1294.882, 1862.588
1295.364, 1858.310
1295.846, 1857.367
1296.328, 1859.866
1296.810, 1861.877
1297.292, 1861.064
1297.775, 1859.699
1298.257, 1859.338
1298.739, 1859.836
1299.221, 1861.006
1299.703, 1862.762
1300.185, 1864.942
1300.667, 1867.290
1301.149, 1867.934
1301.631, 1865.333
1302.114, 1862.381
1302.596, 1862.046
##END=



