##NAMES=Sarcopside
##RRUFFID=R070553
##IDEAL CHEMISTRY=Fe^2+^_3_(PO_4_)_2_
##LOCALITY=Bull Moose mine, Custer District, Custer County, South Dakota, USA
##OWNER=RRUFF
##SOURCE=James Shigley
##DESCRIPTION=Brown, lamellar crystals with waxy luster, forming intergrowth with triphylite
##STATUS=The identification of this mineral is confirmed by single-crystal X-ray diffraction and chemical analysis.
##URL=rruff.info/R070553
##MEASURED CHEMISTRY=(Fe^2+^_2.30_Mn_0.67_Mg_0.03_)_Î£=3_(P_1.00_O_4_)_2_ ; lighter phase
127.4959, 1612.717
127.9780, 1707.443
128.4601, 1812.766
128.9422, 1934.768
129.4243, 2072.672
129.9064, 2217.952
130.3886, 2362.848
130.8707, 2507.747
131.3528, 2665.257
131.8349, 2842.973
132.3170, 3033.251
132.7991, 3213.721
133.2813, 3383.367
133.7634, 3554.593
134.2455, 3748.096
134.7276, 3961.660
135.2097, 4171.331
135.6918, 4365.729
136.1740, 4544.854
136.6561, 4734.534
137.1382, 4939.116
137.6203, 5147.143
138.1024, 5344.880
138.5845, 5533.839
139.0667, 5711.037
139.5488, 5871.801
140.0309, 6010.436
140.5130, 6171.428
140.9951, 6366.744
141.4772, 6583.441
141.9594, 6772.435
142.4415, 6922.093
142.9236, 7068.797
143.4057, 7244.485
143.8878, 7470.204
144.3699, 7669.201
144.8521, 7826.905
145.3342, 7946.409
145.8163, 8059.715
146.2984, 8167.950
146.7805, 8269.812
147.2626, 8366.505
147.7448, 8452.040
148.2269, 8539.481
148.7090, 8627.523
149.1911, 8713.814
149.6732, 8816.921
150.1554, 8947.867
150.6375, 9092.996
151.1196, 9229.514
151.6017, 9359.645
152.0838, 9481.674
152.5659, 9594.577
153.0481, 9698.214
153.5302, 9795.580
154.0123, 9867.270
154.4944, 9932.642
154.9765, 10033.62
155.4586, 10212.84
155.9408, 10400.57
156.4229, 10566.74
156.9050, 10665.31
157.3871, 10693.51
157.8692, 10683.87
158.3513, 10650.81
158.8335, 10627.89
159.3156, 10638.21
159.7977, 10653.51
160.2798, 10655.33
160.7619, 10629.10
161.2440, 10600.33
161.7262, 10577.38
162.2083, 10559.99
162.6904, 10541.67
163.1725, 10519.62
163.6546, 10495.64
164.1367, 10471.60
164.6189, 10427.92
165.1010, 10399.06
165.5831, 10411.81
166.0652, 10471.19
166.5473, 10524.92
167.0294, 10531.71
167.5116, 10515.83
167.9937, 10512.88
168.4758, 10546.81
168.9579, 10593.51
169.4400, 10634.85
169.9221, 10667.19
170.4043, 10698.96
170.8864, 10742.33
171.3685, 10790.15
171.8506, 10826.46
172.3327, 10836.17
172.8148, 10832.26
173.2970, 10828.44
173.7791, 10827.96
174.2612, 10826.96
174.7433, 10822.06
175.2254, 10813.82
175.7076, 10803.75
176.1897, 10796.47
176.6718, 10787.74
177.1539, 10770.33
177.6360, 10740.78
178.1181, 10704.17
178.6003, 10657.34
179.0824, 10601.83
179.5645, 10562.56
180.0466, 10572.14
180.5287, 10612.95
181.0108, 10642.21
181.4930, 10645.35
181.9751, 10629.35
182.4572, 10595.99
182.9393, 10543.29
183.4214, 10503.62
183.9035, 10527.09
184.3857, 10596.51
184.8678, 10647.20
185.3499, 10634.64
185.8320, 10583.27
186.3141, 10563.73
186.7962, 10580.04
187.2784, 10606.97
187.7605, 10610.33
188.2426, 10593.08
188.7247, 10579.93
189.2068, 10587.14
189.6889, 10609.53
190.1711, 10621.79
190.6532, 10618.54
191.1353, 10615.04
191.6174, 10648.74
192.0995, 10718.74
192.5816, 10769.90
193.0638, 10751.14
193.5459, 10672.51
194.0280, 10632.01
194.5101, 10645.57
194.9922, 10690.37
195.4743, 10722.50
195.9565, 10742.03
196.4386, 10747.68
196.9207, 10731.36
197.4028, 10693.54
197.8849, 10666.94
198.3671, 10658.19
198.8492, 10662.06
199.3313, 10658.59
199.8134, 10644.21
200.2955, 10637.91
200.7776, 10661.20
201.2598, 10717.12
201.7419, 10760.25
202.2240, 10778.73
202.7061, 10777.61
203.1882, 10788.94
203.6703, 10818.20
204.1525, 10844.13
204.6346, 10844.46
205.1167, 10814.99
205.5988, 10783.79
206.0809, 10755.73
206.5630, 10730.84
207.0452, 10709.58
207.5273, 10690.68
208.0094, 10677.96
208.4915, 10678.89
208.9736, 10698.46
209.4557, 10711.57
209.9379, 10708.15
210.4200, 10687.55
210.9021, 10681.28
211.3842, 10697.00
211.8663, 10717.18
212.3484, 10714.56
212.8306, 10680.99
213.3127, 10650.46
213.7948, 10634.54
214.2769, 10635.22
214.7590, 10636.82
215.2411, 10639.09
215.7233, 10642.51
216.2054, 10647.40
216.6875, 10652.59
217.1696, 10661.62
217.6517, 10677.74
218.1338, 10705.04
218.6160, 10722.01
219.0981, 10724.85
219.5802, 10719.71
220.0623, 10720.35
220.5444, 10731.34
221.0265, 10738.67
221.5087, 10731.43
221.9908, 10692.45
222.4729, 10691.10
222.9550, 10749.33
223.4371, 10837.47
223.9192, 10873.52
224.4014, 10826.35
224.8835, 10780.12
225.3656, 10780.87
225.8477, 10858.79
226.3298, 10905.63
226.8119, 10902.66
227.2941, 10868.42
227.7762, 10869.08
228.2583, 10923.42
228.7404, 10983.31
229.2225, 11023.79
229.7046, 11043.26
230.1868, 11044.72
230.6689, 11019.22
231.1510, 10974.95
231.6331, 10948.54
232.1152, 10950.58
232.5974, 10956.74
233.0795, 10952.42
233.5616, 10932.81
234.0437, 10914.49
234.5258, 10900.75
235.0079, 10890.61
235.4901, 10873.98
235.9722, 10844.21
236.4543, 10817.37
236.9364, 10804.13
237.4185, 10806.91
237.9006, 10819.49
238.3828, 10846.56
238.8649, 10885.17
239.3470, 10909.29
239.8291, 10908.62
240.3112, 10904.25
240.7933, 10913.09
241.2755, 10946.60
241.7576, 10968.64
242.2397, 10969.25
242.7218, 10950.15
243.2039, 10943.32
243.6860, 10954.16
244.1682, 10970.95
244.6503, 10982.51
245.1324, 10979.39
245.6145, 10992.08
246.0966, 11037.40
246.5787, 11113.26
247.0609, 11143.66
247.5430, 11106.16
248.0251, 11048.51
248.5072, 11010.67
248.9893, 10998.61
249.4714, 10995.10
249.9536, 11000.19
250.4357, 11013.70
250.9178, 11020.89
251.3999, 11016.02
251.8820, 11011.13
252.3641, 11019.97
252.8463, 11054.83
253.3284, 11076.59
253.8105, 11072.15
254.2926, 11041.65
254.7747, 11029.66
255.2568, 11045.42
255.7390, 11069.30
256.2211, 11081.49
256.7032, 11074.98
257.1853, 11073.16
257.6674, 11083.04
258.1495, 11104.81
258.6317, 11117.52
259.1138, 11117.73
259.5959, 11112.86
260.0780, 11110.77
260.5601, 11113.96
261.0422, 11112.79
261.5244, 11102.02
262.0065, 11081.53
262.4886, 11073.53
262.9707, 11078.73
263.4528, 11095.28
263.9349, 11125.65
264.4171, 11180.19
264.8992, 11219.59
265.3813, 11229.13
265.8634, 11209.49
266.3455, 11215.60
266.8276, 11261.99
267.3098, 11311.34
267.7919, 11318.11
268.2740, 11264.37
268.7561, 11229.51
269.2382, 11241.44
269.7203, 11296.81
270.2025, 11322.32
270.6846, 11310.35
271.1667, 11281.92
271.6488, 11252.00
272.1309, 11214.59
272.6130, 11203.86
273.0952, 11237.33
273.5773, 11310.28
274.0594, 11362.32
274.5415, 11392.93
275.0236, 11404.32
275.5057, 11389.21
275.9879, 11340.52
276.4700, 11311.83
276.9521, 11322.39
277.4342, 11366.64
277.9163, 11398.99
278.3984, 11417.91
278.8806, 11429.86
279.3627, 11437.99
279.8448, 11441.28
280.3269, 11453.52
280.8090, 11483.37
281.2911, 11525.05
281.7733, 11546.27
282.2554, 11542.97
282.7375, 11534.35
283.2196, 11540.78
283.7017, 11562.24
284.1838, 11580.18
284.6660, 11589.04
285.1481, 11590.99
285.6302, 11594.21
286.1123, 11598.69
286.5944, 11604.89
287.0765, 11619.78
287.5587, 11641.75
288.0408, 11644.02
288.5229, 11610.11
289.0050, 11557.49
289.4871, 11538.66
289.9692, 11555.14
290.4514, 11580.57
290.9335, 11593.76
291.4156, 11596.16
291.8977, 11595.41
292.3798, 11591.50
292.8619, 11586.87
293.3441, 11590.31
293.8262, 11601.69
294.3083, 11607.81
294.7904, 11584.37
295.2726, 11544.08
295.7547, 11535.64
296.2368, 11585.92
296.7189, 11654.97
297.2010, 11666.77
297.6831, 11626.18
298.1653, 11584.41
298.6474, 11586.46
299.1295, 11615.63
299.6116, 11632.38
300.0937, 11624.18
300.5758, 11607.09
301.0580, 11605.27
301.5401, 11615.59
302.0222, 11620.64
302.5043, 11596.69
302.9864, 11562.12
303.4685, 11549.16
303.9507, 11569.17
304.4328, 11601.36
304.9149, 11632.82
305.3970, 11660.46
305.8791, 11673.34
306.3612, 11646.13
306.8434, 11607.21
307.3255, 11593.44
307.8076, 11617.44
308.2897, 11650.88
308.7718, 11674.07
309.2539, 11688.33
309.7361, 11697.37
310.2182, 11691.33
310.7003, 11687.01
311.1824, 11703.90
311.6645, 11752.29
312.1466, 11795.97
312.6288, 11806.23
313.1109, 11795.47
313.5930, 11789.61
314.0751, 11811.93
314.5572, 11835.19
315.0393, 11838.44
315.5215, 11814.63
316.0036, 11792.72
316.4857, 11792.29
316.9678, 11801.36
317.4499, 11801.34
317.9320, 11759.59
318.4142, 11728.50
318.8963, 11743.57
319.3784, 11816.98
319.8605, 11872.29
320.3426, 11865.22
320.8247, 11832.07
321.3069, 11816.25
321.7890, 11830.67
322.2711, 11861.21
322.7532, 11915.16
323.2353, 11997.03
323.7174, 12048.68
324.1996, 12039.09
324.6817, 12003.32
325.1638, 11974.06
325.6459, 11951.36
326.1280, 11939.47
326.6101, 11943.90
327.0923, 11965.22
327.5744, 11981.22
328.0565, 11985.90
328.5386, 11988.40
329.0207, 11995.75
329.5028, 12034.60
329.9850, 12045.35
330.4671, 12006.88
330.9492, 11927.56
331.4313, 11877.55
331.9134, 11870.89
332.3955, 11880.20
332.8777, 11889.38
333.3598, 11893.62
333.8419, 11907.23
334.3240, 11939.32
334.8061, 11981.02
335.2882, 11998.67
335.7704, 11983.29
336.2525, 11957.61
336.7346, 11927.93
337.2167, 11884.59
337.6988, 11872.40
338.1809, 11904.45
338.6631, 11960.01
339.1452, 11988.17
339.6273, 11981.06
340.1094, 11972.63
340.5915, 11982.81
341.0736, 12015.66
341.5558, 12028.97
342.0379, 12019.92
342.5200, 11996.91
343.0021, 11967.02
343.4842, 11929.14
343.9663, 11903.90
344.4485, 11909.66
344.9306, 11940.83
345.4127, 11943.75
345.8948, 11913.56
346.3769, 11879.15
346.8590, 11880.82
347.3412, 11914.20
347.8233, 11941.85
348.3054, 11947.93
348.7875, 11940.02
349.2696, 11932.48
349.7517, 11924.92
350.2339, 11927.56
350.7160, 11957.33
351.1981, 12004.97
351.6802, 12046.77
352.1623, 12074.01
352.6444, 12092.29
353.1266, 12107.28
353.6087, 12119.13
354.0908, 12129.49
354.5729, 12148.79
355.0550, 12164.59
355.5371, 12154.94
356.0193, 12098.30
356.5014, 12043.84
356.9835, 12048.65
357.4656, 12094.83
357.9477, 12126.02
358.4298, 12094.22
358.9120, 12044.84
359.3941, 12016.95
359.8762, 12022.08
360.3583, 12034.90
360.8404, 12042.33
361.3225, 12048.22
361.8047, 12059.63
362.2868, 12082.48
362.7689, 12108.58
363.2510, 12138.51
363.7331, 12176.13
364.2152, 12194.47
364.6974, 12157.03
365.1795, 12105.05
365.6616, 12086.00
366.1437, 12147.66
366.6258, 12205.20
367.1079, 12237.93
367.5901, 12244.54
368.0722, 12238.06
368.5543, 12202.39
369.0364, 12164.26
369.5185, 12144.34
370.0006, 12157.07
370.4828, 12170.35
370.9649, 12184.04
371.4470, 12197.33
371.9291, 12202.84
372.4112, 12190.38
372.8933, 12181.61
373.3755, 12189.96
373.8576, 12223.82
374.3397, 12252.82
374.8218, 12271.79
375.3039, 12285.81
375.7861, 12309.44
376.2682, 12346.08
376.7503, 12381.47
377.2324, 12412.92
377.7145, 12442.46
378.1967, 12444.28
378.6788, 12410.68
379.1609, 12364.32
379.6430, 12340.52
380.1251, 12341.11
380.6072, 12341.19
381.0894, 12331.22
381.5715, 12313.65
382.0536, 12296.62
382.5357, 12279.49
383.0178, 12269.24
383.4999, 12266.46
383.9821, 12274.49
384.4642, 12311.81
384.9463, 12405.41
385.4284, 12510.85
385.9105, 12548.00
386.3926, 12521.93
386.8748, 12489.86
387.3569, 12490.63
387.8390, 12512.83
388.3211, 12537.75
388.8032, 12560.89
389.2853, 12587.69
389.7675, 12636.26
390.2496, 12694.98
390.7317, 12730.86
391.2138, 12708.52
391.6959, 12668.12
392.1780, 12638.83
392.6602, 12624.35
393.1423, 12623.13
393.6244, 12645.30
394.1065, 12677.58
394.5886, 12702.22
395.0707, 12710.69
395.5529, 12712.59
396.0350, 12708.03
396.5171, 12696.61
396.9992, 12691.78
397.4813, 12702.29
397.9634, 12717.02
398.4456, 12727.65
398.9277, 12747.63
399.4098, 12746.54
399.8919, 12698.14
400.3740, 12616.46
400.8561, 12580.68
401.3383, 12631.16
401.8204, 12686.94
402.3025, 12709.63
402.7846, 12681.42
403.2667, 12658.04
403.7488, 12641.77
404.2310, 12629.58
404.7131, 12613.55
405.1952, 12588.74
405.6773, 12574.59
406.1594, 12582.01
406.6415, 12611.79
407.1237, 12632.49
407.6058, 12642.70
408.0879, 12646.53
408.5700, 12647.11
409.0521, 12644.19
409.5342, 12641.15
410.0164, 12637.16
410.4985, 12634.26
410.9806, 12645.39
411.4627, 12670.90
411.9448, 12683.85
412.4269, 12646.12
412.9091, 12577.89
413.3912, 12542.11
413.8733, 12556.28
414.3554, 12587.52
414.8375, 12595.22
415.3196, 12586.07
415.8018, 12581.44
416.2839, 12597.14
416.7660, 12621.74
417.2481, 12648.17
417.7302, 12678.30
418.2123, 12691.43
418.6945, 12654.67
419.1766, 12597.59
419.6587, 12560.61
420.1408, 12563.52
420.6229, 12584.72
421.1050, 12627.96
421.5872, 12689.16
422.0693, 12727.52
422.5514, 12711.60
423.0335, 12680.21
423.5156, 12658.60
423.9977, 12668.64
424.4799, 12665.11
424.9620, 12623.68
425.4441, 12563.90
425.9262, 12539.73
426.4083, 12581.50
426.8904, 12625.39
427.3726, 12649.35
427.8547, 12646.38
428.3368, 12650.89
428.8189, 12670.81
429.3010, 12690.94
429.7831, 12690.48
430.2653, 12662.74
430.7474, 12638.09
431.2295, 12624.39
431.7116, 12620.45
432.1937, 12617.99
432.6758, 12617.50
433.1580, 12617.64
433.6401, 12611.63
434.1222, 12601.49
434.6043, 12614.43
435.0864, 12660.74
435.5685, 12717.13
436.0507, 12744.41
436.5328, 12745.43
437.0149, 12740.96
437.4970, 12741.94
437.9791, 12744.31
438.4612, 12737.78
438.9434, 12720.58
439.4255, 12709.92
439.9076, 12728.72
440.3897, 12762.90
440.8718, 12788.92
441.3539, 12788.62
441.8361, 12787.55
442.3182, 12808.45
442.8003, 12846.25
443.2824, 12872.72
443.7645, 12867.85
444.2466, 12852.75
444.7288, 12841.44
445.2109, 12837.21
445.6930, 12834.73
446.1751, 12834.93
446.6572, 12835.53
447.1393, 12832.54
447.6215, 12808.08
448.1036, 12797.05
448.5857, 12813.51
449.0678, 12861.93
449.5499, 12895.79
450.0320, 12903.27
450.5142, 12907.95
450.9963, 12931.72
451.4784, 12983.82
451.9605, 13030.61
452.4426, 13068.21
452.9247, 13097.69
453.4069, 13124.72
453.8890, 13149.83
454.3711, 13169.85
454.8532, 13177.58
455.3353, 13174.81
455.8174, 13189.64
456.2996, 13226.61
456.7817, 13266.96
457.2638, 13283.57
457.7459, 13281.31
458.2281, 13281.83
458.7102, 13290.39
459.1923, 13307.87
459.6744, 13344.14
460.1565, 13396.85
460.6386, 13437.63
461.1208, 13442.35
461.6029, 13428.12
462.0850, 13411.03
462.5671, 13384.92
463.0492, 13379.43
463.5313, 13434.37
464.0135, 13521.37
464.4956, 13582.44
464.9777, 13575.87
465.4598, 13560.64
465.9419, 13558.55
466.4240, 13570.95
466.9062, 13596.36
467.3883, 13646.22
467.8704, 13701.32
468.3525, 13747.26
468.8346, 13788.23
469.3167, 13809.18
469.7989, 13791.44
470.2810, 13752.06
470.7631, 13760.55
471.2452, 13848.04
471.7273, 13921.40
472.2094, 13927.06
472.6916, 13854.64
473.1737, 13824.42
473.6558, 13845.76
474.1379, 13887.92
474.6200, 13921.53
475.1021, 13946.37
475.5843, 13946.46
476.0664, 13903.78
476.5485, 13844.11
477.0306, 13833.19
477.5127, 13866.76
477.9948, 13897.28
478.4770, 13880.01
478.9591, 13840.23
479.4412, 13821.48
479.9233, 13835.07
480.4054, 13848.22
480.8875, 13825.71
481.3697, 13785.34
481.8518, 13757.67
482.3339, 13767.08
482.8160, 13781.56
483.2981, 13788.73
483.7802, 13787.73
484.2624, 13774.46
484.7445, 13732.66
485.2266, 13688.23
485.7087, 13657.76
486.1908, 13659.79
486.6729, 13652.51
487.1551, 13630.37
487.6372, 13599.48
488.1193, 13571.08
488.6014, 13545.69
489.0835, 13523.65
489.5656, 13507.29
490.0478, 13496.99
490.5299, 13478.27
491.0120, 13449.41
491.4941, 13417.13
491.9762, 13382.92
492.4583, 13347.16
492.9405, 13328.16
493.4226, 13333.60
493.9047, 13348.07
494.3868, 13341.94
494.8689, 13318.09
495.3510, 13295.76
495.8332, 13283.80
496.3153, 13280.14
496.7974, 13282.73
497.2795, 13291.30
497.7616, 13302.45
498.2437, 13321.08
498.7259, 13337.93
499.2080, 13292.87
499.6901, 13355.64
500.1722, 13390.38
500.6543, 13398.59
501.1364, 13300.53
501.6186, 13339.94
502.1007, 13324.40
502.5828, 13306.71
503.0649, 13365.77
503.5470, 13283.70
504.0291, 13341.75
504.5113, 13344.02
504.9934, 13371.97
505.4755, 13344.63
505.9576, 13334.50
506.4397, 13379.89
506.9218, 13394.70
507.4040, 13361.40
507.8861, 13391.60
508.3682, 13308.64
508.8503, 13325.18
509.3324, 13384.70
509.8145, 13354.71
510.2967, 13386.44
510.7788, 13394.81
511.2609, 13296.63
511.7430, 13384.03
512.2252, 13391.33
512.7073, 13316.36
513.1894, 13397.73
513.6715, 13334.33
514.1536, 13322.74
514.6357, 13350.17
515.1179, 13337.14
515.6000, 13388.17
516.0821, 13377.69
516.5642, 13361.81
517.0463, 13370.05
517.5284, 13310.33
518.0106, 13377.01
518.4927, 13357.51
518.9748, 13381.01
519.4569, 13414.33
519.9390, 13373.33
520.4211, 13411.23
520.9033, 13327.03
521.3854, 13392.71
521.8675, 13376.81
522.3496, 13362.39
522.8317, 13363.20
523.3138, 13380.63
523.7960, 13396.88
524.2781, 13414.31
524.7602, 13424.86
525.2423, 13411.77
525.7244, 13378.27
526.2065, 13367.26
526.6887, 13395.40
527.1708, 13437.13
527.6529, 13448.33
528.1350, 13434.56
528.6171, 13419.94
529.0992, 13419.04
529.5814, 13423.42
530.0635, 13417.61
530.5456, 13400.36
531.0277, 13399.89
531.5098, 13451.69
531.9919, 13518.48
532.4741, 13565.39
532.9562, 13570.85
533.4383, 13572.01
533.9204, 13574.25
534.4025, 13578.35
534.8846, 13586.42
535.3668, 13612.98
535.8489, 13627.75
536.3310, 13618.72
536.8131, 13584.74
537.2952, 13563.77
537.7773, 13557.25
538.2595, 13562.68
538.7416, 13583.77
539.2237, 13623.54
539.7058, 13646.66
540.1879, 13644.88
540.6700, 13636.93
541.1522, 13657.96
541.6343, 13703.97
542.1164, 13745.40
542.5985, 13760.02
543.0806, 13766.68
543.5627, 13802.35
544.0449, 13862.84
544.5270, 13912.38
545.0091, 13919.13
545.4912, 13907.73
545.9733, 13900.09
546.4554, 13897.38
546.9376, 13906.61
547.4197, 13949.52
547.9018, 14000.42
548.3839, 14024.37
548.8660, 13974.50
549.3481, 13942.16
549.8303, 13955.03
550.3124, 14005.17
550.7945, 14043.48
551.2766, 14080.17
551.7587, 14089.01
552.2408, 14048.24
552.7230, 13947.99
553.2051, 13871.71
553.6872, 13821.46
554.1693, 13789.45
554.6514, 13771.51
555.1335, 13766.06
555.6157, 13760.56
556.0978, 13755.39
556.5799, 13743.16
557.0620, 13701.59
557.5441, 13639.44
558.0262, 13591.33
558.5084, 13590.52
558.9905, 13604.16
559.4726, 13602.14
559.9547, 13582.48
560.4368, 13563.15
560.9189, 13549.62
561.4011, 13542.19
561.8832, 13541.77
562.3653, 13559.98
562.8474, 13569.35
563.3295, 13553.56
563.8116, 13530.09
564.2938, 13531.04
564.7759, 13579.78
565.2580, 13610.44
565.7401, 13600.76
566.2222, 13556.32
566.7043, 13521.86
567.1865, 13494.58
567.6686, 13489.59
568.1507, 13536.63
568.6328, 13622.27
569.1149, 13659.42
569.5970, 13635.05
570.0792, 13595.33
570.5613, 13592.07
571.0434, 13612.76
571.5255, 13630.76
572.0076, 13637.95
572.4897, 13637.51
572.9719, 13621.76
573.4540, 13598.56
573.9361, 13592.34
574.4182, 13631.11
574.9003, 13673.74
575.3824, 13702.16
575.8646, 13714.88
576.3467, 13715.89
576.8288, 13695.06
577.3109, 13671.31
577.7930, 13658.40
578.2751, 13661.78
578.7573, 13662.55
579.2394, 13658.35
579.7215, 13653.00
580.2036, 13655.32
580.6857, 13666.31
581.1678, 13672.15
581.6500, 13665.92
582.1321, 13652.74
582.6142, 13645.23
583.0963, 13643.29
583.5784, 13643.67
584.0605, 13636.29
584.5427, 13633.66
585.0248, 13657.38
585.5069, 13713.68
585.9890, 13765.79
586.4711, 13794.45
586.9532, 13805.93
587.4354, 13806.54
587.9175, 13782.15
588.3996, 13764.99
588.8817, 13759.17
589.3638, 13764.59
589.8459, 13782.01
590.3281, 13822.72
590.8102, 13854.57
591.2923, 13849.85
591.7744, 13737.12
592.2565, 13832.79
592.7386, 13900.68
593.2208, 13942.31
593.7029, 13878.94
594.1850, 13951.14
594.6671, 13969.01
595.1492, 13984.65
595.6313, 14075.93
596.1135, 14027.84
596.5956, 14117.92
597.0777, 14176.20
597.5598, 14193.19
598.0419, 14201.13
598.5240, 14208.25
599.0062, 14213.71
599.4883, 14214.85
599.9704, 14198.83
600.4525, 14189.21
600.9346, 14196.46
601.4167, 14222.37
601.8989, 14254.72
602.3810, 14306.10
602.8631, 14348.07
603.3452, 14358.27
603.8273, 14325.76
604.3094, 14304.46
604.7916, 14296.71
605.2737, 14299.49
605.7558, 14320.89
606.2379, 14356.37
606.7200, 14359.48
607.2021, 14304.94
607.6843, 14225.78
608.1664, 14161.20
608.6485, 14113.18
609.1306, 14086.37
609.6127, 14101.18
610.0948, 14126.40
610.5770, 14142.29
611.0591, 14147.72
611.5412, 14138.62
612.0233, 14091.39
612.5054, 14044.21
612.9875, 14024.53
613.4697, 14059.24
613.9518, 14076.73
614.4339, 14071.72
614.9160, 14053.84
615.3981, 14033.49
615.8802, 14008.28
616.3624, 13992.06
616.8445, 13990.86
617.3266, 13997.51
617.8087, 13989.90
618.2908, 13969.59
618.7729, 13958.87
619.2551, 13980.35
619.7372, 14014.30
620.2193, 14028.64
620.7014, 14023.76
621.1835, 14017.63
621.6656, 14027.80
622.1478, 14038.49
622.6299, 14034.32
623.1120, 14006.17
623.5941, 13983.47
624.0762, 13975.07
624.5583, 13975.73
625.0405, 13980.43
625.5226, 14001.15
626.0047, 14003.36
626.4868, 13972.70
626.9689, 13926.74
627.4510, 13917.03
627.9332, 13951.42
628.4153, 13968.85
628.8974, 13933.63
629.3795, 13865.93
629.8616, 13827.94
630.3438, 13818.46
630.8259, 13820.24
631.3080, 13834.29
631.7901, 13846.09
632.2722, 13833.04
632.7543, 13789.77
633.2365, 13746.52
633.7186, 13718.98
634.2007, 13699.74
634.6828, 13681.73
635.1649, 13652.69
635.6470, 13640.33
636.1292, 13661.74
636.6113, 13696.71
637.0934, 13708.92
637.5755, 13687.64
638.0576, 13671.58
638.5397, 13671.92
639.0219, 13683.76
639.5040, 13687.28
639.9861, 13682.02
640.4682, 13679.05
640.9503, 13686.50
641.4324, 13700.07
641.9146, 13710.85
642.3967, 13718.45
642.8788, 13725.89
643.3609, 13742.04
643.8430, 13755.29
644.3251, 13752.13
644.8073, 13723.93
645.2894, 13696.24
645.7715, 13670.32
646.2536, 13651.65
646.7357, 13646.87
647.2178, 13657.65
647.7000, 13681.90
648.1821, 13733.42
648.6642, 13791.88
649.1463, 13799.17
649.6284, 13747.12
650.1105, 13697.64
650.5927, 13671.23
651.0748, 13665.33
651.5569, 13684.12
652.0390, 13724.47
652.5211, 13751.20
653.0032, 13727.80
653.4854, 13684.55
653.9675, 13652.48
654.4496, 13634.63
654.9317, 13628.13
655.4138, 13635.37
655.8959, 13651.06
656.3781, 13671.84
656.8602, 13712.12
657.3423, 13731.97
657.8244, 13718.82
658.3065, 13692.36
658.7886, 13678.66
659.2708, 13680.54
659.7529, 13685.54
660.2350, 13693.17
660.7171, 13700.49
661.1992, 13695.68
661.6813, 13680.73
662.1635, 13677.14
662.6456, 13718.61
663.1277, 13765.35
663.6099, 13747.18
664.0920, 13675.29
664.5741, 13619.09
665.0562, 13630.92
665.5383, 13661.41
666.0204, 13676.95
666.5026, 13670.18
666.9847, 13672.82
667.4668, 13704.08
667.9489, 13735.87
668.4310, 13749.81
668.9131, 13737.93
669.3953, 13731.43
669.8774, 13731.16
670.3595, 13736.37
670.8416, 13750.03
671.3237, 13770.62
671.8058, 13781.69
672.2880, 13775.79
672.7701, 13764.61
673.2522, 13762.78
673.7343, 13768.37
674.2164, 13776.33
674.6985, 13787.60
675.1807, 13797.63
675.6628, 13803.56
676.1449, 13805.78
676.6270, 13806.10
677.1091, 13804.13
677.5912, 13801.18
678.0734, 13798.42
678.5555, 13796.26
679.0376, 13786.64
679.5197, 13763.18
680.0018, 13747.49
680.4839, 13759.81
680.9661, 13797.16
681.4482, 13834.22
681.9303, 13871.60
682.4124, 13891.21
682.8945, 13857.46
683.3766, 13796.00
683.8588, 13751.20
684.3409, 13733.24
684.8230, 13735.49
685.3051, 13771.82
685.7872, 13821.55
686.2693, 13852.68
686.7515, 13845.89
687.2336, 13834.93
687.7157, 13820.46
688.1978, 13806.58
688.6799, 13808.67
689.1620, 13834.95
689.6442, 13849.60
690.1263, 13832.40
690.6084, 13794.76
691.0905, 13786.62
691.5726, 13806.59
692.0547, 13829.37
692.5369, 13845.18
693.0190, 13850.67
693.5011, 13833.56
693.9832, 13793.65
694.4653, 13766.60
694.9474, 13781.58
695.4296, 13810.16
695.9117, 13832.32
696.3938, 13844.22
696.8759, 13853.94
697.3580, 13866.77
697.8401, 13874.07
698.3223, 13865.34
698.8044, 13836.09
699.2865, 13810.61
699.7686, 13788.42
700.2507, 13776.72
700.7328, 13797.17
701.2150, 13840.67
701.6971, 13866.89
702.1792, 13853.30
702.6613, 13829.45
703.1434, 13822.52
703.6255, 13827.80
704.1077, 13834.71
704.5898, 13835.26
705.0719, 13840.20
705.5540, 13858.78
706.0361, 13888.29
706.5182, 13905.46
707.0004, 13907.02
707.4825, 13902.52
707.9646, 13898.06
708.4467, 13892.93
708.9288, 13863.37
709.4109, 13805.96
709.8931, 13760.14
710.3752, 13769.95
710.8573, 13810.20
711.3394, 13825.13
711.8215, 13809.60
712.3036, 13794.08
712.7858, 13797.85
713.2679, 13812.66
713.7500, 13833.76
714.2321, 13871.54
714.7142, 13887.47
715.1964, 13847.90
715.6785, 13797.85
716.1606, 13782.21
716.6427, 13816.90
717.1248, 13834.61
717.6069, 13822.06
718.0891, 13799.69
718.5712, 13803.55
719.0533, 13830.86
719.5354, 13864.17
720.0175, 13910.09
720.4996, 13942.29
720.9818, 13911.07
721.4639, 13841.86
721.9460, 13797.01
722.4281, 13825.88
722.9102, 13862.84
723.3923, 13882.64
723.8745, 13886.81
724.3566, 13889.98
724.8387, 13894.29
725.3208, 13894.95
725.8029, 13886.20
726.2850, 13870.02
726.7672, 13873.52
727.2493, 13898.37
727.7314, 13923.07
728.2135, 13932.08
728.6956, 13929.95
729.1777, 13925.32
729.6599, 13918.42
730.1420, 13912.98
730.6241, 13919.97
731.1062, 13924.18
731.5883, 13907.19
732.0704, 13854.09
732.5526, 13826.57
733.0347, 13857.45
733.5168, 13902.81
733.9989, 13933.09
734.4810, 13945.42
734.9631, 13955.91
735.4453, 13966.41
735.9274, 13973.56
736.4095, 13970.46
736.8916, 13959.34
737.3737, 13950.64
737.8558, 13946.05
738.3380, 13945.32
738.8201, 13949.25
739.3022, 13956.25
739.7843, 13963.93
740.2664, 13978.44
740.7485, 13933.18
741.2307, 14010.95
741.7128, 14052.69
742.1949, 14060.44
742.6770, 13926.53
743.1591, 13980.05
743.6412, 13961.21
744.1234, 13941.29
744.6055, 14026.82
745.0876, 13923.62
745.5697, 14011.44
746.0518, 14025.76
746.5339, 14076.59
747.0161, 14054.59
747.4982, 14057.66
747.9803, 14137.51
748.4624, 14177.90
748.9445, 14155.15
749.4266, 14101.01
749.9088, 14086.31
750.3909, 14068.01
750.8730, 14042.23
751.3551, 14020.40
751.8372, 14009.39
752.3193, 14009.47
752.8015, 14010.07
753.2836, 14011.67
753.7657, 14014.20
754.2478, 14019.11
754.7299, 14024.75
755.2120, 14027.14
755.6942, 14025.65
756.1763, 14023.78
756.6584, 14014.53
757.1405, 14010.62
757.6226, 14024.65
758.1047, 14070.33
758.5869, 14101.21
759.0690, 14109.05
759.5511, 14106.60
760.0332, 14104.57
760.5153, 14103.38
760.9974, 14099.69
761.4796, 14093.29
761.9617, 14086.04
762.4438, 14082.43
762.9259, 14080.23
763.4080, 14072.12
763.8901, 14053.85
764.3723, 14037.95
764.8544, 14033.43
765.3365, 14036.76
765.8186, 14042.99
766.3007, 14051.27
766.7828, 14062.24
767.2650, 14078.64
767.7471, 14095.35
768.2292, 14102.37
768.7113, 14097.65
769.1934, 14092.40
769.6755, 14086.39
770.1577, 14084.84
770.6398, 14109.87
771.1219, 14149.80
771.6040, 14164.23
772.0861, 14106.13
772.5682, 14048.65
773.0504, 14055.90
773.5325, 14102.67
774.0146, 14123.60
774.4967, 14055.68
774.9788, 14018.20
775.4609, 14056.84
775.9431, 14143.81
776.4252, 14167.44
776.9073, 14115.71
777.3894, 14074.14
777.8715, 14089.47
778.3536, 14131.18
778.8358, 14114.72
779.3179, 14052.85
779.8000, 14012.40
780.2821, 14047.85
780.7642, 14104.12
781.2463, 14151.17
781.7285, 14186.89
782.2106, 14205.04
782.6927, 14188.24
783.1748, 14169.97
783.6569, 14158.43
784.1390, 14153.64
784.6212, 14162.11
785.1033, 14185.69
785.5854, 14209.31
786.0675, 14215.84
786.5496, 14216.92
787.0317, 14256.30
787.5139, 14328.76
787.9960, 14371.43
788.4781, 14312.14
788.9602, 14231.49
789.4423, 14191.72
789.9244, 14204.83
790.4066, 14095.59
790.8887, 14228.17
791.3708, 14303.89
791.8529, 14325.80
792.3350, 14132.85
792.8171, 14217.25
793.2993, 14190.46
793.7814, 14159.06
794.2635, 14282.39
794.7456, 14120.49
795.2277, 14241.29
795.7098, 14249.18
796.1920, 14308.69
796.6741, 14256.31
797.1562, 14238.44
797.6383, 14332.42
798.1204, 14364.40
798.6025, 14298.98
799.0847, 14361.54
799.5668, 14195.34
800.0489, 14229.81
800.5310, 14350.83
801.0131, 14290.85
801.4952, 14355.26
801.9774, 14372.23
802.4595, 14173.80
802.9416, 14349.88
803.4237, 14363.94
803.9058, 14211.64
804.3879, 14374.77
804.8701, 14245.32
805.3522, 14220.25
805.8343, 14273.72
806.3164, 14245.24
806.7985, 14345.87
807.2806, 14322.04
807.7628, 14287.05
808.2449, 14300.54
808.7270, 14176.51
809.2091, 14307.49
809.6912, 14264.21
810.1733, 14307.49
810.6555, 14370.36
811.1376, 14282.89
811.6197, 14354.50
812.1018, 14179.32
812.5839, 14210.57
813.0660, 14219.55
813.5482, 14360.46
814.0303, 14186.32
814.5124, 14211.67
814.9945, 14321.95
815.4766, 14313.31
815.9587, 14354.33
816.4409, 14248.17
816.9230, 14280.20
817.4051, 14274.09
817.8872, 14399.60
818.3693, 14421.14
818.8514, 14317.28
819.3336, 14213.92
819.8157, 14348.75
820.2978, 14257.74
820.7799, 14288.51
821.2620, 14193.43
821.7441, 14206.93
822.2263, 14218.68
822.7084, 14286.07
823.1905, 14184.57
823.6726, 14302.06
824.1547, 14292.91
824.6368, 14321.02
825.1190, 14344.94
825.6011, 14198.95
826.0832, 14192.17
826.5653, 14384.62
827.0474, 14273.14
827.5295, 14222.96
828.0117, 14299.12
828.4938, 14350.71
828.9760, 14377.95
829.4581, 14375.38
829.9402, 14357.34
830.4223, 14339.26
830.9044, 14321.04
831.3865, 14296.22
831.8687, 14261.22
832.3508, 14235.19
832.8329, 14246.96
833.3150, 14274.63
833.7971, 14290.75
834.2792, 14280.73
834.7614, 14277.01
835.2435, 14301.61
835.7256, 14324.85
836.2077, 14315.16
836.6898, 14258.67
837.1719, 14241.33
837.6541, 14274.56
838.1362, 14323.51
838.6183, 14353.59
839.1004, 14368.66
839.5825, 14376.59
840.0646, 14377.65
840.5468, 14378.08
841.0289, 14378.81
841.5110, 14382.29
841.9931, 14391.73
842.4752, 14414.80
842.9573, 14425.62
843.4395, 14416.51
843.9216, 14406.08
844.4037, 14419.13
844.8858, 14451.52
845.3679, 14451.16
845.8500, 14410.44
846.3322, 14370.44
846.8143, 14374.78
847.2964, 14398.46
847.7785, 14412.92
848.2606, 14412.32
848.7427, 14406.78
849.2249, 14385.59
849.7070, 14371.81
850.1891, 14386.36
850.6712, 14441.28
851.1533, 14457.46
851.6354, 14428.24
852.1176, 14392.19
852.5997, 14383.62
853.0818, 14393.59
853.5639, 14406.99
854.0460, 14422.84
854.5281, 14428.17
855.0103, 14401.60
855.4924, 14371.56
855.9745, 14357.26
856.4566, 14360.51
856.9387, 14379.61
857.4208, 14420.84
857.9030, 14464.47
858.3851, 14501.44
858.8672, 14530.35
859.3493, 14542.00
859.8314, 14536.37
860.3135, 14522.40
860.7957, 14492.52
861.2778, 14467.24
861.7599, 14474.36
862.2420, 14514.86
862.7241, 14534.62
863.2062, 14490.70
863.6884, 14456.09
864.1705, 14462.49
864.6526, 14505.89
865.1347, 14531.65
865.6168, 14538.52
866.0989, 14539.41
866.5811, 14545.51
867.0632, 14548.63
867.5453, 14529.99
868.0274, 14494.62
868.5095, 14468.88
868.9916, 14475.96
869.4738, 14484.44
869.9559, 14473.07
870.4380, 14449.42
870.9201, 14457.65
871.4022, 14510.46
871.8843, 14547.82
872.3665, 14538.57
872.8486, 14506.18
873.3307, 14508.30
873.8128, 14537.24
874.2949, 14562.41
874.7770, 14567.69
875.2592, 14565.26
875.7413, 14554.88
876.2234, 14541.32
876.7055, 14539.83
877.1876, 14558.35
877.6697, 14572.95
878.1519, 14574.88
878.6340, 14574.55
879.1161, 14603.95
879.5982, 14656.23
880.0803, 14685.61
880.5624, 14670.51
881.0446, 14641.58
881.5267, 14624.71
882.0088, 14613.71
882.4909, 14598.48
882.9730, 14560.53
883.4551, 14542.23
883.9373, 14559.92
884.4194, 14586.32
884.9015, 14579.72
885.3836, 14539.51
885.8657, 14517.35
886.3478, 14523.66
886.8300, 14538.39
887.3121, 14537.88
887.7942, 14532.54
888.2763, 14537.93
888.7584, 14560.93
889.2405, 14584.08
889.7227, 14613.58
890.2048, 14631.44
890.6869, 14618.63
891.1690, 14563.12
891.6511, 14538.09
892.1332, 14547.48
892.6154, 14568.40
893.0975, 14580.75
893.5796, 14589.32
894.0617, 14608.97
894.5438, 14641.16
895.0259, 14655.73
895.5081, 14619.75
895.9902, 14578.11
896.4723, 14562.44
896.9544, 14574.87
897.4365, 14571.96
897.9186, 14549.59
898.4008, 14530.83
898.8829, 14527.99
899.3650, 14539.29
899.8471, 14564.18
900.3292, 14600.33
900.8113, 14633.68
901.2935, 14659.16
901.7756, 14676.50
902.2577, 14678.04
902.7398, 14667.85
903.2219, 14671.38
903.7040, 14688.65
904.1862, 14718.74
904.6683, 14766.64
905.1504, 14820.31
905.6325, 14852.01
906.1146, 14865.57
906.5967, 14878.09
907.0789, 14896.08
907.5610, 14916.23
908.0431, 14937.92
908.5252, 14960.02
909.0073, 14980.99
909.4894, 14998.83
909.9716, 15019.48
910.4537, 15044.02
910.9358, 15071.15
911.4179, 15099.65
911.9000, 15129.55
912.3821, 15162.51
912.8643, 15201.24
913.3464, 15231.99
913.8285, 15221.33
914.3106, 15209.08
914.7927, 15237.93
915.2748, 15329.78
915.7570, 15427.74
916.2391, 15534.73
916.7212, 15637.51
917.2033, 15726.11
917.6854, 15801.20
918.1675, 15862.94
918.6497, 15911.71
919.1318, 15969.92
919.6139, 16066.14
920.0960, 16170.65
920.5781, 16256.38
921.0602, 16321.75
921.5424, 16388.95
922.0245, 16455.23
922.5066, 16532.49
922.9887, 16631.24
923.4708, 16743.19
923.9529, 16834.60
924.4351, 16906.05
924.9172, 16960.07
925.3993, 16996.54
925.8814, 17017.50
926.3635, 17030.68
926.8456, 17030.07
927.3278, 17000.83
927.8099, 16902.84
928.2920, 16827.46
928.7741, 16802.14
929.2562, 16788.78
929.7383, 16710.52
930.2205, 16572.76
930.7026, 16452.24
931.1847, 16369.17
931.6668, 16294.15
932.1489, 16204.45
932.6310, 16102.65
933.1132, 15990.45
933.5953, 15852.57
934.0774, 15739.41
934.5595, 15658.80
935.0416, 15595.50
935.5237, 15536.20
936.0059, 15481.95
936.4880, 15445.49
936.9701, 15427.95
937.4522, 15403.14
937.9343, 15330.67
938.4164, 15256.05
938.8986, 15229.83
939.3807, 15253.67
939.8628, 15250.51
940.3449, 15177.00
940.8270, 15124.28
941.3091, 15130.62
941.7913, 15179.40
942.2734, 15204.44
942.7555, 15206.54
943.2376, 15196.58
943.7197, 15167.90
944.2018, 15141.55
944.6840, 15135.99
945.1661, 15145.64
945.6482, 15159.81
946.1303, 15182.66
946.6124, 15200.72
947.0945, 15215.03
947.5767, 15221.70
948.0588, 15210.87
948.5409, 15185.93
949.0230, 15165.63
949.5051, 15152.71
949.9872, 15150.87
950.4694, 15166.27
950.9515, 15192.96
951.4336, 15229.40
951.9157, 15285.00
952.3978, 15312.59
952.8799, 15297.83
953.3621, 15281.65
953.8442, 15289.02
954.3263, 15317.31
954.8084, 15354.57
955.2905, 15400.74
955.7726, 15457.17
956.2548, 15535.37
956.7369, 15613.93
957.2190, 15666.59
957.7011, 15703.64
958.1832, 15780.05
958.6653, 15910.96
959.1475, 16045.22
959.6296, 16165.72
960.1117, 16287.28
960.5938, 16433.76
961.0759, 16604.86
961.5580, 16806.37
962.0402, 17048.04
962.5223, 17299.16
963.0044, 17553.78
963.4865, 17802.67
963.9686, 18036.17
964.4507, 18240.49
964.9329, 18476.42
965.4150, 18753.29
965.8971, 19039.28
966.3792, 19295.67
966.8613, 19539.73
967.3434, 19812.89
967.8256, 20118.38
968.3077, 20391.77
968.7898, 20617.61
969.2719, 20793.90
969.7540, 20922.02
970.2361, 21002.37
970.7183, 21020.13
971.2004, 20976.59
971.6825, 20859.66
972.1646, 20654.89
972.6467, 20386.80
973.1288, 20084.79
973.6110, 19748.52
974.0931, 19383.22
974.5752, 18948.70
975.0573, 18539.73
975.5394, 18169.72
976.0215, 17841.77
976.5037, 17559.60
976.9858, 17325.73
977.4679, 17090.11
977.9500, 16843.04
978.4321, 16620.23
978.9142, 16466.79
979.3964, 16348.09
979.8785, 16226.88
980.3606, 16097.88
980.8427, 15980.47
981.3248, 15863.61
981.8069, 15780.69
982.2891, 15758.39
982.7712, 15779.96
983.2533, 15761.46
983.7354, 15707.06
984.2175, 15646.08
984.6996, 15576.53
985.1818, 15522.83
985.6639, 15511.31
986.1460, 15526.10
986.6281, 15533.91
987.1102, 15526.27
987.5923, 15521.93
988.0745, 15522.87
988.5566, 15525.12
989.0387, 15529.83
989.5208, 15531.03
990.0029, 15503.08
990.4850, 15437.74
990.9672, 15394.63
991.4493, 15431.15
991.9314, 15482.26
992.4135, 15503.68
992.8957, 15495.12
993.3778, 15485.58
993.8599, 15475.66
994.3420, 15463.64
994.8242, 15450.47
995.3063, 15433.71
995.7884, 15402.02
996.2705, 15363.17
996.7526, 15337.71
997.2347, 15348.17
997.7169, 15354.58
998.1990, 15345.20
998.6811, 15330.13
999.1632, 15319.73
999.6453, 15314.04
1000.127, 15331.69
1000.610, 15379.60
1001.092, 15415.08
1001.574, 15374.84
1002.056, 15315.55
1002.538, 15300.30
1003.020, 15344.33
1003.502, 15365.57
1003.984, 15345.65
1004.466, 15327.88
1004.949, 15334.43
1005.431, 15358.30
1005.913, 15379.18
1006.395, 15395.62
1006.877, 15400.36
1007.359, 15381.12
1007.841, 15358.98
1008.323, 15337.18
1008.806, 15322.31
1009.288, 15328.51
1009.770, 15366.29
1010.252, 15377.17
1010.734, 15347.49
1011.216, 15320.05
1011.698, 15354.93
1012.180, 15418.79
1012.662, 15454.68
1013.145, 15454.29
1013.627, 15456.11
1014.109, 15487.80
1014.591, 15508.35
1015.073, 15496.54
1015.555, 15459.85
1016.037, 15442.09
1016.519, 15442.57
1017.002, 15442.85
1017.484, 15432.68
1017.966, 15422.86
1018.448, 15430.00
1018.930, 15442.03
1019.412, 15437.52
1019.894, 15392.38
1020.376, 15368.89
1020.858, 15370.69
1021.341, 15391.24
1021.823, 15439.96
1022.305, 15500.48
1022.787, 15515.24
1023.269, 15482.09
1023.751, 15460.98
1024.233, 15493.61
1024.715, 15539.48
1025.198, 15579.48
1025.680, 15614.12
1026.162, 15648.97
1026.644, 15683.70
1027.126, 15711.65
1027.608, 15724.50
1028.090, 15739.87
1028.572, 15786.69
1029.054, 15848.17
1029.536, 15897.43
1030.019, 15918.85
1030.501, 15945.80
1030.983, 15988.06
1031.465, 16025.52
1031.947, 16041.03
1032.429, 16038.31
1032.911, 16035.79
1033.393, 16034.10
1033.876, 16027.61
1034.358, 16012.50
1034.840, 15993.65
1035.322, 15977.39
1035.804, 15960.41
1036.286, 15925.60
1036.768, 15864.19
1037.250, 15827.72
1037.733, 15829.77
1038.215, 15849.17
1038.697, 15864.48
1039.179, 15875.24
1039.661, 15880.63
1040.143, 15878.60
1040.625, 15876.62
1041.107, 15874.97
1041.589, 15875.10
1042.072, 15883.01
1042.554, 15894.27
1043.036, 15869.49
1043.518, 15814.78
1044.000, 15772.52
1044.482, 15775.23
1044.964, 15789.16
1045.446, 15789.21
1045.928, 15788.00
1046.411, 15813.77
1046.893, 15884.07
1047.375, 15921.24
1047.857, 15916.09
1048.339, 15886.44
1048.821, 15830.45
1049.303, 15772.03
1049.785, 15755.05
1050.268, 15783.05
1050.750, 15807.54
1051.232, 15799.36
1051.714, 15803.66
1052.196, 15846.31
1052.678, 15905.96
1053.160, 15902.52
1053.642, 15846.65
1054.125, 15806.90
1054.607, 15810.29
1055.089, 15825.26
1055.571, 15835.61
1056.053, 15842.72
1056.535, 15848.54
1057.017, 15854.99
1057.499, 15850.68
1057.981, 15831.98
1058.464, 15821.96
1058.946, 15841.15
1059.428, 15877.45
1059.910, 15920.86
1060.392, 15966.03
1060.874, 15993.84
1061.356, 15973.54
1061.838, 15968.34
1062.320, 15995.06
1062.803, 16034.00
1063.285, 16054.66
1063.767, 16059.05
1064.249, 16052.37
1064.731, 16033.62
1065.213, 16021.83
1065.695, 16033.03
1066.177, 16052.60
1066.660, 16073.11
1067.142, 16093.55
1067.624, 16105.88
1068.106, 16110.06
1068.588, 16104.88
1069.070, 16085.55
1069.552, 16063.35
1070.034, 16047.95
1070.516, 16041.44
1070.999, 16048.65
1071.481, 16099.23
1071.963, 16109.32
1072.445, 16058.07
1072.927, 16002.16
1073.409, 15997.53
1073.891, 16026.13
1074.373, 16023.69
1074.855, 15992.94
1075.338, 15964.05
1075.820, 15962.60
1076.302, 15954.76
1076.784, 15916.27
1077.266, 15867.63
1077.748, 15852.76
1078.230, 15872.54
1078.713, 15867.75
1079.195, 15823.39
1079.677, 15787.61
1080.159, 15826.19
1080.641, 15880.68
1081.123, 15890.73
1081.605, 15844.18
1082.087, 15822.47
1082.569, 15831.34
1083.052, 15845.30
1083.534, 15853.61
1084.016, 15861.19
1084.498, 15880.68
1084.980, 15905.89
1085.462, 15924.20
1085.944, 15931.88
1086.426, 15931.24
1086.908, 15920.11
1087.391, 15905.27
1087.873, 15890.64
1088.355, 15876.79
1088.837, 15869.36
1089.319, 15867.50
1089.801, 15861.97
1090.283, 15824.28
1090.765, 15805.93
1091.248, 15862.47
1091.730, 15949.16
1092.212, 15975.34
1092.694, 15933.02
1093.176, 15895.96
1093.658, 15872.72
1094.140, 15861.64
1094.622, 15868.49
1095.104, 15881.80
1095.587, 15886.88
1096.069, 15882.60
1096.551, 15892.97
1097.033, 15925.81
1097.515, 15954.43
1097.997, 15967.68
1098.479, 15975.19
1098.961, 15998.29
1099.443, 16028.68
1099.926, 16050.93
1100.408, 16064.38
1100.890, 16056.37
1101.372, 15993.99
1101.854, 15944.15
1102.336, 15960.24
1102.818, 16027.43
1103.300, 16044.22
1103.783, 16016.47
1104.265, 15979.96
1104.747, 15947.99
1105.229, 15920.29
1105.711, 15888.88
1106.193, 15868.17
1106.675, 15886.95
1107.157, 15956.18
1107.640, 15962.55
1108.122, 15894.11
1108.604, 15835.25
1109.086, 15873.03
1109.568, 15941.95
1110.050, 15984.70
1110.532, 16001.57
1111.014, 16015.83
1111.496, 16028.05
1111.979, 16035.90
1112.461, 16034.69
1112.943, 16037.67
1113.425, 16075.60
1113.907, 16125.00
1114.389, 16144.06
1114.871, 16120.88
1115.353, 16110.68
1115.835, 16142.92
1116.318, 16160.89
1116.800, 16133.07
1117.282, 16083.26
1117.764, 16093.63
1118.246, 16141.70
1118.728, 16145.50
1119.210, 16046.51
1119.692, 15967.09
1120.175, 15975.36
1120.657, 16011.07
1121.139, 16034.67
1121.621, 16046.25
1122.103, 16042.21
1122.585, 16023.56
1123.067, 16004.27
1123.549, 15983.49
1124.031, 15974.22
1124.514, 15998.79
1124.996, 16035.64
1125.478, 16042.63
1125.960, 16010.45
1126.442, 15995.75
1126.924, 16002.84
1127.406, 16022.15
1127.888, 16053.02
1128.370, 16085.33
1128.853, 16109.79
1129.335, 16125.73
1129.817, 16133.17
1130.299, 16125.80
1130.781, 16129.41
1131.263, 16154.03
1131.745, 16176.97
1132.227, 16163.39
1132.710, 16129.11
1133.192, 16093.34
1133.674, 16057.46
1134.156, 16052.00
1134.638, 16109.90
1135.120, 16155.49
1135.602, 16159.16
1136.084, 16135.69
1136.567, 16106.10
1137.049, 16079.16
1137.531, 16081.92
1138.013, 16134.35
1138.495, 16183.60
1138.977, 16223.43
1139.459, 16238.16
1139.941, 16206.20
1140.423, 16136.40
1140.906, 16105.00
1141.388, 16107.37
1141.870, 16116.39
1142.352, 16120.38
1142.834, 16125.42
1143.316, 16135.61
1143.798, 16148.33
1144.280, 16165.19
1144.762, 16188.98
1145.245, 16174.05
1145.727, 16118.89
1146.209, 16080.89
1146.691, 16122.49
1147.173, 16174.58
1147.655, 16178.86
1148.137, 16153.81
1148.619, 16156.48
1149.102, 16196.79
1149.584, 16212.50
1150.066, 16192.88
1150.548, 16169.46
1151.030, 16169.15
1151.512, 16183.07
1151.994, 16213.22
1152.476, 16254.12
1152.958, 16256.41
1153.441, 16201.03
1153.923, 16162.22
1154.405, 16160.72
1154.887, 16169.43
1155.369, 16144.05
1155.851, 16108.64
1156.333, 16101.52
1156.815, 16131.72
1157.297, 16156.29
1157.780, 16174.08
1158.262, 16177.12
1158.744, 16156.28
1159.226, 16127.10
1159.708, 16122.02
1160.190, 16133.16
1160.672, 16144.78
1161.154, 16154.62
1161.637, 16158.12
1162.119, 16151.34
1162.601, 16143.24
1163.083, 16136.65
1163.565, 16133.48
1164.047, 16149.72
1164.529, 16176.15
1165.011, 16180.97
1165.494, 16126.22
1165.976, 16088.57
1166.458, 16096.37
1166.940, 16118.48
1167.422, 16128.91
1167.904, 16130.74
1168.386, 16153.62
1168.868, 16194.60
1169.350, 16233.80
1169.833, 16262.78
1170.315, 16283.82
1170.797, 16294.84
1171.279, 16299.67
1171.761, 16299.91
1172.243, 16296.12
1172.725, 16301.35
1173.207, 16316.04
1173.689, 16331.08
1174.172, 16351.79
1174.654, 16359.59
1175.136, 16331.91
1175.618, 16288.25
1176.100, 16259.68
1176.582, 16246.18
1177.064, 16267.24
1177.546, 16328.83
1178.029, 16377.43
1178.511, 16351.90
1178.993, 16314.96
1179.475, 16313.80
1179.957, 16341.14
1180.439, 16372.33
1180.921, 16408.57
1181.403, 16421.71
1181.885, 16399.85
1182.368, 16381.61
1182.850, 16414.04
1183.332, 16458.45
1183.814, 16484.89
1184.296, 16491.10
1184.778, 16462.52
1185.260, 16392.45
1185.742, 16367.23
1186.224, 16433.44
1186.707, 16507.37
1187.189, 16497.90
1187.671, 16451.15
1188.153, 16414.93
1188.635, 16394.32
1189.117, 16383.96
1189.599, 16384.56
1190.081, 16391.45
1190.564, 16404.21
1191.046, 16419.36
1191.528, 16436.96
1192.010, 16452.39
1192.492, 16458.45
1192.974, 16452.81
1193.456, 16441.67
1193.938, 16422.82
1194.421, 16412.13
1194.903, 16422.69
1195.385, 16443.05
1195.867, 16464.97
1196.349, 16484.86
1196.831, 16495.40
1197.313, 16492.94
1197.795, 16484.98
1198.277, 16467.88
1198.760, 16461.71
1199.242, 16504.93
1199.724, 16549.89
1200.206, 16512.84
1200.688, 16427.60
1201.170, 16389.82
1201.652, 16430.85
1202.134, 16474.79
1202.616, 16522.19
1203.099, 16553.75
1203.581, 16541.88
1204.063, 16511.36
1204.545, 16492.08
1205.027, 16484.28
1205.509, 16486.36
1205.991, 16508.30
1206.473, 16513.47
1206.956, 16495.31
1207.438, 16470.73
1207.920, 16448.39
1208.402, 16436.06
1208.884, 16450.28
1209.366, 16486.73
1209.848, 16513.12
1210.330, 16524.17
1210.813, 16528.07
1211.295, 16523.13
1211.777, 16521.31
1212.259, 16544.45
1212.741, 16575.32
1213.223, 16587.30
1213.705, 16580.05
1214.187, 16583.63
1214.669, 16608.84
1215.151, 16620.31
1215.634, 16606.04
1216.116, 16587.55
1216.598, 16591.36
1217.080, 16608.42
1217.562, 16629.66
1218.044, 16653.41
1218.526, 16663.30
1219.008, 16644.40
1219.491, 16656.22
1219.973, 16725.39
1220.455, 16802.49
1220.937, 16808.79
1221.419, 16783.96
1221.901, 16786.19
1222.383, 16827.79
1222.865, 16836.51
1223.348, 16801.14
1223.830, 16766.08
1224.312, 16745.71
1224.794, 16735.77
1225.276, 16745.00
1225.758, 16754.03
1226.240, 16727.34
1226.722, 16648.03
1227.204, 16629.15
1227.687, 16690.83
1228.169, 16726.22
1228.651, 16679.42
1229.133, 16612.02
1229.615, 16606.00
1230.097, 16630.43
1230.579, 16641.48
1231.061, 16628.03
1231.543, 16636.01
1232.026, 16669.48
1232.508, 16700.39
1232.990, 16721.97
1233.472, 16724.01
1233.954, 16666.18
1234.436, 16594.67
1234.918, 16580.16
1235.400, 16641.31
1235.883, 16679.45
1236.365, 16692.10
1236.847, 16705.58
1237.329, 16739.41
1237.811, 16771.27
1238.293, 16785.91
1238.775, 16780.79
1239.257, 16743.85
1239.740, 16663.69
1240.222, 16632.84
1240.704, 16653.00
1241.186, 16687.78
1241.668, 16733.92
1242.150, 16764.85
1242.632, 16736.27
1243.114, 16690.49
1243.596, 16689.10
1244.079, 16743.25
1244.561, 16770.17
1245.043, 16770.22
1245.525, 16759.48
1246.007, 16738.24
1246.489, 16719.88
1246.971, 16712.37
1247.453, 16713.80
1247.936, 16718.42
1248.418, 16724.80
1248.900, 16761.15
1249.382, 16824.39
1249.864, 16871.57
1250.346, 16869.76
1250.828, 16851.27
1251.310, 16824.18
1251.792, 16794.47
1252.275, 16764.12
1252.757, 16734.16
1253.239, 16741.02
1253.721, 16781.13
1254.203, 16815.71
1254.685, 16838.25
1255.167, 16831.42
1255.649, 16762.12
1256.131, 16687.68
1256.614, 16664.33
1257.096, 16687.09
1257.578, 16733.29
1258.060, 16796.36
1258.542, 16841.34
1259.024, 16842.26
1259.506, 16831.81
1259.988, 16809.73
1260.471, 16792.13
1260.953, 16793.16
1261.435, 16812.52
1261.917, 16863.54
1262.399, 16936.66
1262.881, 16984.65
1263.363, 16971.70
1263.845, 16954.72
1264.328, 16939.31
1264.810, 16927.70
1265.292, 16925.31
1265.774, 16926.79
1266.256, 16912.29
1266.738, 16889.75
1267.220, 16894.53
1267.702, 16965.47
1268.184, 17009.67
1268.667, 17016.62
1269.149, 17006.36
1269.631, 16994.13
1270.113, 16979.85
1270.595, 16960.73
1271.077, 16939.27
1271.559, 16924.26
1272.041, 16918.18
1272.523, 16913.22
1273.006, 16908.79
1273.488, 16907.26
1273.970, 16913.92
1274.452, 16922.29
1274.934, 16921.76
1275.416, 16918.56
1275.898, 16932.36
1276.380, 16968.74
1276.863, 16989.32
1277.345, 16990.68
1277.827, 16978.30
1278.309, 16940.53
1278.791, 16906.21
1279.273, 16891.81
1279.755, 16897.03
1280.237, 16925.44
1280.719, 16977.10
1281.202, 17015.99
1281.684, 17039.99
1282.166, 17047.41
1282.648, 17022.12
1283.130, 16998.32
1283.612, 16993.99
1284.094, 16998.26
1284.576, 16993.91
1285.058, 16985.17
1285.541, 16996.08
1286.023, 17026.43
1286.505, 17062.91
1286.987, 17119.19
1287.469, 17148.39
1287.951, 17129.00
1288.433, 17099.58
1288.915, 17114.16
1289.398, 17149.55
1289.880, 17139.36
1290.362, 17091.35
1290.844, 17063.10
1291.326, 17099.98
1291.808, 17109.72
1292.290, 17076.54
1292.772, 17039.25
1293.255, 17037.79
1293.737, 17056.24
1294.219, 17076.53
1294.701, 17097.25
1295.183, 17116.74
1295.665, 17136.17
1296.147, 17151.82
1296.629, 17164.18
1297.111, 17168.50
##END=



