##NAMES=Satterlyite
##RRUFFID=R060810
##IDEAL CHEMISTRY=(Fe^2+^,Mg,Fe^3+^)_12_(PO_3_OH)(PO_4_)_5_(OH,O)_6_
##LOCALITY=Big Fish River Area, Yukon Territory, Canada
##OWNER=RRUFF
##SOURCE=Michael Scott
##DESCRIPTION=Yellowish-brown gemmy irregularly shaped coarse grains
##STATUS=The identification of this mineral has been confirmed by X-ray diffraction and chemical analysis
##URL=rruff.info/R060810
##MEASURED CHEMISTRY=(Fe^2+^_7.95_Mg_2.25_Fe^3+^_0.66_Na_0.66_Mn_0.48_)_Σ=12_(P_1.00_O_3_OH)(P_1.00_O_4_)_5_((OH)_5.00_O_1.00_)_Σ=6_; OH estimated by charge balance
158.1686, 1986.732
158.6507, 1993.424
159.1328, 2012.380
159.6149, 2031.583
160.0971, 2052.234
160.5792, 2071.954
161.0613, 2085.905
161.5434, 2098.155
162.0255, 2119.243
162.5076, 2157.412
162.9898, 2208.703
163.4719, 2243.142
163.9540, 2253.219
164.4361, 2258.480
164.9182, 2264.816
165.4003, 2271.864
165.8825, 2277.949
166.3646, 2281.685
166.8467, 2283.708
167.3288, 2287.853
167.8109, 2300.747
168.2930, 2309.041
168.7752, 2304.587
169.2573, 2289.982
169.7394, 2274.833
170.2215, 2266.059
170.7036, 2260.501
171.1857, 2243.899
171.6679, 2206.455
172.1500, 2168.657
172.6321, 2140.125
173.1142, 2119.919
173.5963, 2104.308
174.0784, 2092.915
174.5606, 2084.010
175.0427, 2070.728
175.5248, 2048.980
176.0069, 2027.170
176.4890, 2011.769
176.9711, 2001.346
177.4533, 1987.337
177.9354, 1961.565
178.4175, 1930.203
178.8996, 1912.536
179.3817, 1915.424
179.8638, 1923.897
180.3460, 1931.214
180.8281, 1936.984
181.3102, 1938.082
181.7923, 1930.381
182.2744, 1917.722
182.7565, 1911.555
183.2387, 1918.383
183.7208, 1923.828
184.2029, 1913.978
184.6850, 1891.265
185.1671, 1875.012
185.6492, 1878.335
186.1314, 1892.946
186.6135, 1897.868
187.0956, 1886.375
187.5777, 1874.726
188.0598, 1875.095
188.5419, 1886.465
189.0241, 1900.115
189.5062, 1914.647
189.9883, 1927.454
190.4704, 1935.347
190.9525, 1938.865
191.4346, 1936.242
191.9168, 1920.483
192.3989, 1893.790
192.8810, 1876.391
193.3631, 1880.245
193.8452, 1896.427
194.3273, 1908.883
194.8095, 1917.185
195.2916, 1922.169
195.7737, 1922.081
196.2558, 1917.810
196.7379, 1917.016
197.2200, 1924.987
197.7022, 1935.915
198.1843, 1941.708
198.6664, 1941.987
199.1485, 1938.054
199.6306, 1925.844
200.1127, 1907.617
200.5949, 1899.819
201.0770, 1912.922
201.5591, 1934.587
202.0412, 1947.147
202.5233, 1949.007
203.0054, 1949.248
203.4876, 1956.533
203.9697, 1968.486
204.4518, 1970.936
204.9339, 1954.341
205.4160, 1932.654
205.8981, 1923.184
206.3803, 1926.882
206.8624, 1932.310
207.3445, 1932.736
207.8266, 1929.191
208.3087, 1925.574
208.7908, 1921.213
209.2730, 1919.381
209.7551, 1925.593
210.2372, 1939.975
210.7193, 1950.419
211.2014, 1946.570
211.6835, 1933.143
212.1657, 1925.735
212.6478, 1929.133
213.1299, 1936.285
213.6120, 1942.093
214.0941, 1946.479
214.5763, 1945.921
215.0584, 1932.423
215.5405, 1912.820
216.0226, 1906.810
216.5047, 1922.650
216.9868, 1940.484
217.4690, 1939.000
217.9511, 1922.340
218.4332, 1909.764
218.9153, 1912.674
219.3974, 1923.976
219.8795, 1929.210
220.3617, 1925.373
220.8438, 1920.529
221.3259, 1923.710
221.8080, 1931.990
222.2901, 1936.303
222.7722, 1931.081
223.2544, 1921.164
223.7365, 1913.567
224.2186, 1908.786
224.7007, 1905.708
225.1828, 1905.423
225.6649, 1906.362
226.1471, 1904.361
226.6292, 1895.496
227.1113, 1884.735
227.5934, 1877.804
228.0755, 1874.913
228.5576, 1874.040
229.0398, 1875.547
229.5219, 1877.972
230.0040, 1877.595
230.4861, 1868.002
230.9682, 1860.224
231.4503, 1867.918
231.9325, 1890.628
232.4146, 1910.104
232.8967, 1915.818
233.3788, 1911.318
233.8609, 1906.973
234.3430, 1903.272
234.8252, 1899.628
235.3073, 1895.489
235.7894, 1890.980
236.2715, 1886.228
236.7536, 1879.328
237.2357, 1874.137
237.7179, 1878.853
238.2000, 1898.805
238.6821, 1916.977
239.1642, 1923.497
239.6463, 1920.999
240.1284, 1917.699
240.6106, 1916.417
241.0927, 1915.710
241.5748, 1913.882
242.0569, 1912.499
242.5390, 1905.726
243.0211, 1880.910
243.5033, 1850.760
243.9854, 1843.126
244.4675, 1869.474
244.9496, 1907.045
245.4317, 1921.915
245.9138, 1912.753
246.3960, 1900.827
246.8781, 1884.271
247.3602, 1869.805
247.8423, 1868.153
248.3244, 1881.853
248.8065, 1900.080
249.2887, 1911.213
249.7708, 1914.458
250.2529, 1916.471
250.7350, 1918.965
251.2171, 1919.582
251.6992, 1913.875
252.1814, 1902.161
252.6635, 1892.615
253.1456, 1893.138
253.6277, 1904.533
254.1098, 1912.615
254.5919, 1916.500
255.0741, 1918.055
255.5562, 1916.446
256.0383, 1912.844
256.5204, 1911.872
257.0025, 1917.577
257.4846, 1928.906
257.9668, 1933.688
258.4489, 1927.161
258.9310, 1920.565
259.4131, 1918.654
259.8952, 1919.602
260.3773, 1919.231
260.8595, 1915.200
261.3416, 1908.732
261.8237, 1904.481
262.3058, 1904.288
262.7879, 1903.974
263.2701, 1901.722
263.7522, 1899.489
264.2343, 1900.350
264.7164, 1905.441
265.1985, 1912.490
265.6806, 1917.053
266.1628, 1921.005
266.6449, 1918.886
267.1270, 1904.791
267.6091, 1888.458
268.0912, 1878.872
268.5733, 1877.498
269.0555, 1878.463
269.5376, 1873.571
270.0197, 1859.263
270.5018, 1849.733
270.9839, 1845.818
271.4660, 1844.850
271.9482, 1846.938
272.4303, 1851.013
272.9124, 1854.529
273.3945, 1855.279
273.8766, 1853.238
274.3587, 1848.586
274.8409, 1838.226
275.3230, 1828.211
275.8051, 1820.929
276.2872, 1815.355
276.7693, 1808.547
277.2514, 1797.602
277.7336, 1784.536
278.2157, 1781.408
278.6978, 1797.568
279.1799, 1810.902
279.6620, 1813.912
280.1441, 1812.339
280.6263, 1813.867
281.1084, 1822.233
281.5905, 1832.777
282.0726, 1836.300
282.5547, 1831.938
283.0368, 1822.298
283.5190, 1798.563
284.0011, 1775.714
284.4832, 1767.455
284.9653, 1776.785
285.4474, 1790.900
285.9295, 1796.760
286.4117, 1794.195
286.8938, 1784.922
287.3759, 1761.618
287.8580, 1738.221
288.3401, 1722.741
288.8222, 1715.400
289.3044, 1713.122
289.7865, 1717.337
290.2686, 1725.878
290.7507, 1726.863
291.2328, 1714.573
291.7149, 1703.646
292.1971, 1705.449
292.6792, 1716.355
293.1613, 1727.584
293.6434, 1737.126
294.1255, 1744.382
294.6076, 1747.644
295.0898, 1746.389
295.5719, 1744.489
296.0540, 1743.367
296.5361, 1743.379
297.0182, 1745.284
297.5003, 1749.992
297.9825, 1755.569
298.4646, 1763.040
298.9467, 1771.157
299.4288, 1771.359
299.9109, 1755.951
300.3930, 1734.979
300.8752, 1730.114
301.3573, 1747.989
301.8394, 1762.142
302.3215, 1759.140
302.8036, 1746.933
303.2857, 1739.291
303.7679, 1740.086
304.2500, 1744.197
304.7321, 1744.543
305.2142, 1739.647
305.6963, 1737.481
306.1784, 1740.238
306.6606, 1744.823
307.1427, 1750.026
307.6248, 1755.151
308.1069, 1757.379
308.5890, 1753.314
309.0711, 1742.352
309.5533, 1738.624
310.0354, 1752.888
310.5175, 1762.036
310.9996, 1751.163
311.4817, 1728.582
311.9638, 1712.555
312.4460, 1714.090
312.9281, 1728.139
313.4102, 1734.929
313.8923, 1725.653
314.3744, 1719.715
314.8565, 1720.496
315.3387, 1724.358
315.8208, 1728.802
316.3029, 1732.722
316.7850, 1734.358
317.2671, 1729.629
317.7492, 1713.683
318.2314, 1704.512
318.7135, 1709.326
319.1956, 1715.025
319.6777, 1714.690
320.1598, 1708.231
320.6419, 1699.600
321.1241, 1692.082
321.6062, 1685.609
322.0883, 1676.948
322.5704, 1658.769
323.0525, 1648.856
323.5346, 1658.739
324.0168, 1680.176
324.4989, 1698.767
324.9810, 1707.098
325.4631, 1709.497
325.9452, 1714.791
326.4273, 1724.394
326.9095, 1730.416
327.3916, 1724.979
327.8737, 1716.660
328.3558, 1715.058
328.8379, 1722.967
329.3200, 1731.856
329.8022, 1735.390
330.2843, 1734.225
330.7664, 1731.100
331.2485, 1725.543
331.7306, 1720.160
332.2127, 1719.102
332.6949, 1722.215
333.1770, 1723.299
333.6591, 1719.896
334.1412, 1713.740
334.6233, 1706.186
335.1054, 1697.451
335.5876, 1689.330
336.0697, 1682.844
336.5518, 1678.323
337.0339, 1676.825
337.5161, 1679.850
337.9982, 1684.291
338.4803, 1689.248
338.9624, 1694.446
339.4445, 1700.086
339.9266, 1706.674
340.4088, 1712.389
340.8909, 1712.015
341.3730, 1694.679
341.8551, 1685.161
342.3372, 1687.299
342.8193, 1695.881
343.3015, 1710.437
343.7836, 1728.887
344.2657, 1741.948
344.7478, 1736.193
345.2299, 1705.047
345.7120, 1682.963
346.1942, 1668.239
346.6763, 1663.347
347.1584, 1678.561
347.6405, 1704.879
348.1226, 1721.624
348.6047, 1712.824
349.0869, 1685.660
349.5690, 1671.113
350.0511, 1673.522
350.5332, 1681.222
351.0153, 1697.383
351.4974, 1713.540
351.9796, 1719.872
352.4617, 1712.943
352.9438, 1701.319
353.4259, 1694.428
353.9080, 1692.316
354.3901, 1690.951
354.8723, 1689.282
355.3544, 1688.571
355.8365, 1691.394
356.3186, 1697.143
356.8007, 1699.304
357.2828, 1693.038
357.7650, 1681.742
358.2471, 1670.316
358.7292, 1658.779
359.2113, 1650.104
359.6934, 1648.750
360.1755, 1652.297
360.6577, 1649.764
361.1398, 1630.293
361.6219, 1614.900
362.1040, 1620.161
362.5861, 1638.698
363.0682, 1651.383
363.5504, 1649.970
364.0325, 1640.281
364.5146, 1633.904
364.9967, 1633.681
365.4788, 1631.425
365.9609, 1623.188
366.4431, 1615.120
366.9252, 1614.343
367.4073, 1620.408
367.8894, 1624.724
368.3715, 1617.391
368.8536, 1596.916
369.3358, 1590.572
369.8179, 1612.989
370.3000, 1634.143
370.7821, 1650.244
371.2642, 1659.077
371.7463, 1655.825
372.2285, 1637.122
372.7106, 1612.145
373.1927, 1601.956
373.6748, 1612.191
374.1569, 1620.479
374.6390, 1621.213
375.1212, 1619.572
375.6033, 1617.630
376.0854, 1615.965
376.5675, 1616.380
377.0496, 1622.574
377.5317, 1632.520
378.0139, 1636.681
378.4960, 1631.974
378.9781, 1627.032
379.4602, 1632.724
379.9423, 1642.819
380.4244, 1642.760
380.9066, 1620.624
381.3887, 1595.084
381.8708, 1581.930
382.3529, 1579.548
382.8350, 1580.066
383.3171, 1580.361
383.7993, 1581.599
384.2814, 1587.139
384.7635, 1599.762
385.2456, 1608.798
385.7277, 1610.534
386.2098, 1609.010
386.6920, 1606.595
387.1741, 1604.376
387.6562, 1605.481
388.1383, 1613.557
388.6204, 1629.207
389.1025, 1641.216
389.5847, 1650.103
390.0668, 1655.129
390.5489, 1653.254
391.0310, 1648.047
391.5131, 1644.960
391.9952, 1646.493
392.4774, 1650.143
392.9595, 1650.391
393.4416, 1644.985
393.9237, 1642.737
394.4058, 1645.656
394.8879, 1651.383
395.3701, 1660.581
395.8522, 1672.244
396.3343, 1681.787
396.8164, 1684.375
397.2985, 1682.099
397.7806, 1682.625
398.2628, 1686.954
398.7449, 1691.166
399.2270, 1693.176
399.7091, 1693.441
400.1912, 1692.300
400.6733, 1688.048
401.1555, 1685.230
401.6376, 1689.339
402.1197, 1697.578
402.6018, 1700.824
403.0839, 1695.477
403.5660, 1687.585
404.0482, 1685.783
404.5303, 1692.019
405.0124, 1696.692
405.4945, 1698.322
405.9766, 1699.163
406.4587, 1700.401
406.9409, 1702.253
407.4230, 1704.764
407.9051, 1707.938
408.3872, 1711.847
408.8693, 1716.944
409.3514, 1726.948
409.8336, 1733.014
410.3157, 1728.388
410.7978, 1722.996
411.2799, 1727.786
411.7620, 1744.294
412.2441, 1762.533
412.7263, 1770.766
413.2084, 1768.585
413.6905, 1766.577
414.1726, 1761.624
414.6547, 1761.852
415.1368, 1776.839
415.6190, 1798.973
416.1011, 1812.235
416.5832, 1808.533
417.0653, 1796.404
417.5474, 1782.118
418.0295, 1766.440
418.5117, 1759.515
418.9938, 1767.858
419.4759, 1783.045
419.9580, 1790.192
420.4401, 1786.917
420.9222, 1790.447
421.4044, 1813.316
421.8865, 1839.495
422.3686, 1852.166
422.8507, 1850.932
423.3328, 1846.343
423.8149, 1845.627
424.2971, 1848.777
424.7792, 1855.626
425.2613, 1875.781
425.7434, 1888.009
426.2255, 1884.216
426.7076, 1873.246
427.1898, 1865.163
427.6719, 1862.526
428.1540, 1859.747
428.6361, 1845.255
429.1182, 1814.935
429.6003, 1805.775
430.0825, 1834.993
430.5646, 1866.894
431.0467, 1885.659
431.5288, 1894.919
432.0109, 1903.296
432.4930, 1915.948
432.9752, 1927.164
433.4573, 1925.291
433.9394, 1911.094
434.4215, 1907.031
434.9036, 1926.262
435.3857, 1952.011
435.8679, 1955.984
436.3500, 1934.859
436.8321, 1924.601
437.3142, 1945.633
437.7963, 1974.163
438.2784, 1985.380
438.7606, 1979.482
439.2427, 1972.423
439.7248, 1975.231
440.2069, 1986.122
440.6890, 1994.881
441.1711, 1998.404
441.6533, 2003.514
442.1354, 2012.835
442.6175, 2022.840
443.0996, 2031.808
443.5817, 2038.585
444.0638, 2040.288
444.5460, 2031.434
445.0281, 2011.718
445.5102, 1998.374
445.9923, 1992.279
446.4744, 1991.685
446.9565, 1998.454
447.4387, 2008.783
447.9208, 2017.180
448.4029, 2022.443
448.8850, 2024.242
449.3671, 2021.260
449.8492, 2014.173
450.3314, 2006.341
450.8135, 1998.361
451.2956, 1990.535
451.7777, 1985.031
452.2598, 1982.293
452.7419, 1971.357
453.2241, 1939.191
453.7062, 1909.152
454.1883, 1899.754
454.6704, 1905.516
455.1525, 1909.566
455.6346, 1903.122
456.1168, 1891.382
456.5989, 1887.417
457.0810, 1897.226
457.5631, 1904.147
458.0452, 1909.704
458.5273, 1911.057
459.0095, 1902.073
459.4916, 1886.158
459.9737, 1875.701
460.4558, 1881.701
460.9379, 1898.436
461.4200, 1908.220
461.9022, 1910.053
462.3843, 1908.420
462.8664, 1902.001
463.3485, 1894.738
463.8306, 1891.406
464.3127, 1892.800
464.7949, 1895.140
465.2770, 1894.773
465.7591, 1894.881
466.2412, 1903.507
466.7233, 1921.138
467.2054, 1933.536
467.6876, 1927.672
468.1697, 1906.429
468.6518, 1898.540
469.1339, 1910.970
469.6160, 1926.113
470.0981, 1947.807
470.5803, 1966.830
471.0624, 1970.354
471.5445, 1956.914
472.0266, 1939.136
472.5087, 1931.345
472.9908, 1934.029
473.4730, 1935.933
473.9551, 1939.821
474.4372, 1938.590
474.9193, 1926.491
475.4014, 1909.228
475.8835, 1893.804
476.3657, 1880.996
476.8478, 1874.827
477.3299, 1889.107
477.8120, 1915.451
478.2941, 1914.802
478.7762, 1873.138
479.2584, 1826.428
479.7405, 1809.410
480.2226, 1823.250
480.7047, 1834.578
481.1868, 1849.569
481.6689, 1855.039
482.1511, 1839.409
482.6332, 1811.087
483.1153, 1783.924
483.5974, 1763.122
484.0795, 1747.844
484.5616, 1737.557
485.0438, 1734.590
485.5259, 1728.375
486.0080, 1709.073
486.4901, 1696.135
486.9722, 1703.987
487.4543, 1722.597
487.9365, 1731.580
488.4186, 1719.674
488.9007, 1699.586
489.3828, 1688.707
489.8649, 1686.471
490.3470, 1684.123
490.8292, 1682.329
491.3113, 1674.864
491.7934, 1647.416
492.2755, 1601.708
492.7576, 1572.541
493.2397, 1576.116
493.7219, 1588.275
494.2040, 1598.000
494.6861, 1603.188
495.1682, 1599.371
495.6503, 1584.140
496.1324, 1564.638
496.6146, 1554.907
497.0967, 1560.773
497.5788, 1562.344
498.0609, 1553.908
498.5430, 1546.907
499.0251, 1546.357
499.5073, 1551.519
499.9894, 1560.279
500.4715, 1572.869
500.9536, 1585.973
501.4358, 1593.270
501.9179, 1594.721
502.4000, 1598.368
502.8821, 1608.283
503.3642, 1618.363
503.8463, 1617.415
504.3285, 1606.346
504.8106, 1607.219
505.2927, 1640.881
505.7748, 1673.289
506.2569, 1675.016
506.7390, 1655.062
507.2212, 1641.414
507.7033, 1646.915
508.1854, 1658.919
508.6675, 1651.783
509.1496, 1613.352
509.6317, 1585.680
510.1139, 1574.340
510.5960, 1567.743
511.0781, 1566.208
511.5602, 1565.041
512.0423, 1554.114
512.5244, 1525.138
513.0065, 1491.972
513.4886, 1477.486
513.9708, 1480.937
514.4529, 1478.298
514.9350, 1461.528
515.4171, 1440.920
515.8992, 1427.773
516.3813, 1421.491
516.8635, 1414.059
517.3456, 1399.578
517.8277, 1388.305
518.3098, 1389.687
518.7919, 1398.467
519.2740, 1403.867
519.7562, 1401.615
520.2383, 1393.796
520.7204, 1382.718
521.2025, 1366.287
521.6846, 1354.427
522.1667, 1350.262
522.6489, 1347.764
523.1310, 1343.265
523.6131, 1339.364
524.0952, 1341.137
524.5773, 1351.299
525.0594, 1364.809
525.5416, 1380.456
526.0237, 1395.843
526.5058, 1396.103
526.9879, 1374.312
527.4700, 1352.017
527.9521, 1350.794
528.4343, 1370.164
528.9164, 1380.949
529.3985, 1377.554
529.8806, 1372.120
530.3627, 1368.476
530.8448, 1365.758
531.3270, 1362.934
531.8091, 1359.605
532.2912, 1355.078
532.7733, 1347.596
533.2554, 1337.010
533.7375, 1331.906
534.2197, 1334.512
534.7018, 1339.163
535.1839, 1341.322
535.6660, 1345.232
536.1481, 1358.585
536.6302, 1385.042
537.1124, 1407.151
537.5945, 1406.424
538.0766, 1395.238
538.5587, 1399.214
539.0408, 1420.804
539.5229, 1442.126
540.0051, 1450.483
540.4872, 1448.294
540.9693, 1447.267
541.4514, 1450.105
541.9335, 1450.439
542.4156, 1443.795
542.8978, 1437.399
543.3799, 1436.535
543.8620, 1441.756
544.3441, 1451.734
544.8262, 1467.252
545.3083, 1485.343
545.7905, 1495.655
546.2726, 1496.126
546.7547, 1501.261
547.2368, 1520.595
547.7189, 1541.774
548.2010, 1548.737
548.6832, 1541.251
549.1653, 1536.131
549.6474, 1538.914
550.1295, 1544.903
550.6116, 1551.459
551.0938, 1557.988
551.5759, 1563.465
552.0580, 1567.468
552.5401, 1570.463
553.0222, 1574.082
553.5043, 1580.922
553.9865, 1580.292
554.4686, 1565.685
554.9507, 1549.681
555.4328, 1536.496
555.9149, 1525.186
556.3970, 1512.980
556.8792, 1497.809
557.3613, 1485.069
557.8434, 1481.568
558.3255, 1485.106
558.8076, 1487.899
559.2897, 1488.462
559.7719, 1489.617
560.2540, 1495.031
560.7361, 1503.870
561.2182, 1504.611
561.7003, 1485.841
562.1824, 1474.741
562.6646, 1484.991
563.1467, 1500.441
563.6288, 1503.337
564.1109, 1492.684
564.5930, 1481.946
565.0751, 1483.894
565.5573, 1494.657
566.0394, 1498.407
566.5215, 1494.617
567.0036, 1485.671
567.4857, 1468.175
567.9678, 1449.185
568.4500, 1437.589
568.9321, 1433.763
569.4142, 1430.977
569.8963, 1424.814
570.3784, 1421.071
570.8605, 1426.286
571.3427, 1438.055
571.8248, 1449.775
572.3069, 1458.623
572.7890, 1464.710
573.2711, 1468.930
573.7532, 1473.315
574.2354, 1467.806
574.7175, 1437.201
575.1996, 1413.961
575.6817, 1415.629
576.1638, 1431.675
576.6459, 1444.657
577.1281, 1449.253
577.6102, 1451.389
578.0923, 1454.076
578.5744, 1458.069
579.0565, 1466.824
579.5386, 1480.742
580.0208, 1491.349
580.5029, 1490.851
580.9850, 1482.359
581.4671, 1483.097
581.9492, 1499.331
582.4313, 1517.100
582.9135, 1542.706
583.3956, 1564.118
583.8777, 1567.353
584.3599, 1556.714
584.8420, 1551.403
585.3241, 1566.073
585.8062, 1589.996
586.2883, 1601.850
586.7704, 1602.029
587.2526, 1606.466
587.7347, 1620.732
588.2168, 1638.046
588.6989, 1651.693
589.1810, 1661.478
589.6631, 1668.511
590.1453, 1671.052
590.6274, 1672.870
591.1095, 1675.589
591.5916, 1678.464
592.0737, 1681.503
592.5558, 1684.214
593.0380, 1683.418
593.5201, 1673.368
594.0022, 1655.959
594.4843, 1648.749
594.9664, 1656.052
595.4485, 1659.950
595.9307, 1651.524
596.4128, 1636.842
596.8949, 1623.044
597.3770, 1609.435
597.8591, 1602.099
598.3412, 1610.568
598.8234, 1619.649
599.3055, 1616.562
599.7876, 1603.345
600.2697, 1585.914
600.7518, 1566.729
601.2339, 1549.596
601.7161, 1543.290
602.1982, 1551.843
602.6803, 1548.561
603.1624, 1521.703
603.6445, 1499.198
604.1266, 1496.757
604.6088, 1505.352
605.0909, 1512.456
605.5730, 1517.086
606.0551, 1515.459
606.5372, 1498.845
607.0193, 1478.045
607.5015, 1469.291
607.9836, 1472.651
608.4657, 1478.277
608.9478, 1480.915
609.4299, 1478.798
609.9120, 1464.702
610.3942, 1426.537
610.8763, 1404.105
611.3584, 1416.970
611.8405, 1429.600
612.3226, 1421.304
612.8047, 1399.960
613.2869, 1385.808
613.7690, 1388.555
614.2511, 1394.770
614.7332, 1392.829
615.2153, 1385.597
615.6974, 1379.193
616.1796, 1374.724
616.6617, 1371.530
617.1438, 1369.263
617.6259, 1367.727
618.1080, 1365.721
618.5901, 1363.496
619.0723, 1360.367
619.5544, 1358.687
620.0365, 1354.178
620.5186, 1339.526
621.0007, 1318.775
621.4828, 1306.253
621.9650, 1312.861
622.4471, 1325.180
622.9292, 1328.179
623.4113, 1323.136
623.8934, 1313.796
624.3755, 1300.586
624.8577, 1287.736
625.3398, 1279.228
625.8219, 1274.893
626.3040, 1272.047
626.7861, 1275.860
627.2682, 1274.426
627.7504, 1261.676
628.2325, 1246.597
628.7146, 1237.039
629.1967, 1232.995
629.6788, 1229.353
630.1609, 1222.790
630.6431, 1215.028
631.1252, 1209.850
631.6073, 1206.417
632.0894, 1197.578
632.5715, 1179.867
633.0536, 1164.175
633.5358, 1163.637
634.0179, 1179.045
634.5000, 1186.810
634.9821, 1181.391
635.4642, 1175.707
635.9464, 1172.433
636.4285, 1169.744
636.9106, 1164.915
637.3927, 1158.268
637.8748, 1153.676
638.3569, 1155.591
638.8391, 1159.897
639.3212, 1158.856
639.8033, 1153.041
640.2854, 1148.136
640.7675, 1146.240
641.2496, 1143.834
641.7318, 1135.024
642.2139, 1118.279
642.6960, 1115.223
643.1781, 1145.110
643.6602, 1163.678
644.1423, 1151.269
644.6245, 1129.157
645.1066, 1119.452
645.5887, 1124.164
646.0708, 1129.088
646.5529, 1124.654
647.0350, 1113.898
647.5172, 1096.531
647.9993, 1074.907
648.4814, 1071.056
648.9635, 1094.801
649.4456, 1125.744
649.9277, 1140.091
650.4099, 1136.735
650.8920, 1130.926
651.3741, 1116.179
651.8562, 1107.116
652.3383, 1111.600
652.8204, 1120.054
653.3026, 1124.106
653.7847, 1122.371
654.2668, 1117.146
654.7489, 1107.167
655.2310, 1096.388
655.7131, 1092.095
656.1953, 1092.928
656.6774, 1090.529
657.1595, 1081.699
657.6416, 1073.903
658.1237, 1076.789
658.6058, 1091.091
659.0880, 1098.040
659.5701, 1092.981
660.0522, 1086.186
660.5343, 1077.852
661.0164, 1069.465
661.4985, 1061.690
661.9807, 1054.933
662.4628, 1050.396
662.9449, 1051.663
663.4270, 1053.142
663.9091, 1045.348
664.3912, 1031.924
664.8734, 1025.707
665.3555, 1030.247
665.8376, 1038.369
666.3197, 1042.870
666.8018, 1043.942
667.2839, 1045.927
667.7661, 1049.246
668.2482, 1052.800
668.7303, 1059.619
669.2124, 1064.099
669.6945, 1059.563
670.1766, 1047.780
670.6588, 1039.183
671.1409, 1039.407
671.6230, 1042.874
672.1051, 1045.209
672.5872, 1047.282
673.0693, 1052.236
673.5515, 1060.148
674.0336, 1065.209
674.5157, 1061.450
674.9978, 1051.148
675.4799, 1047.258
675.9620, 1054.115
676.4442, 1055.335
676.9263, 1040.988
677.4084, 1027.203
677.8905, 1026.613
678.3726, 1036.360
678.8547, 1045.568
679.3369, 1052.165
679.8190, 1057.176
680.3011, 1058.390
680.7832, 1059.786
681.2653, 1069.112
681.7474, 1085.080
682.2296, 1097.282
682.7117, 1098.620
683.1938, 1091.611
683.6759, 1079.597
684.1580, 1060.738
684.6401, 1054.195
685.1223, 1068.569
685.6044, 1084.075
686.0865, 1085.534
686.5686, 1076.838
687.0507, 1072.147
687.5328, 1074.437
688.0150, 1075.896
688.4971, 1078.425
688.9792, 1076.464
689.4613, 1059.864
689.9434, 1035.006
690.4255, 1019.146
690.9077, 1020.824
691.3898, 1031.230
691.8719, 1039.851
692.3540, 1046.807
692.8361, 1052.465
693.3182, 1056.732
693.8004, 1061.049
694.2825, 1066.848
694.7646, 1072.562
695.2467, 1074.412
695.7288, 1070.466
696.2109, 1066.845
696.6931, 1062.221
697.1752, 1059.337
697.6573, 1062.444
698.1394, 1066.890
698.6215, 1064.953
699.1036, 1054.433
699.5858, 1043.391
700.0679, 1037.276
700.5500, 1034.959
701.0321, 1035.567
701.5142, 1038.528
701.9963, 1041.244
702.4785, 1042.673
702.9606, 1043.913
703.4427, 1048.111
703.9248, 1056.793
704.4069, 1048.626
704.8890, 1005.373
705.3712, 974.9594
705.8533, 978.7687
706.3354, 996.0695
706.8175, 1012.240
707.2996, 1025.649
707.7817, 1031.178
708.2639, 1020.778
708.7460, 1008.370
709.2281, 1003.058
709.7102, 1002.471
710.1923, 1002.825
710.6744, 1003.131
711.1566, 1003.781
711.6387, 1005.153
712.1208, 1007.074
712.6029, 1009.053
713.0850, 1011.110
713.5671, 1012.998
714.0493, 1014.851
714.5314, 1016.015
715.0135, 1014.224
715.4956, 1010.734
715.9777, 1014.174
716.4598, 1033.966
716.9420, 1047.368
717.4241, 1050.335
717.9062, 1046.094
718.3883, 1031.205
718.8704, 1011.567
719.3525, 1000.768
719.8347, 1005.795
720.3168, 1017.898
720.7989, 1032.408
721.2810, 1045.791
721.7631, 1046.180
722.2452, 1033.208
722.7274, 1021.160
723.2095, 1017.991
723.6916, 1020.212
724.1737, 1020.979
724.6558, 1020.232
725.1379, 1018.077
725.6201, 1011.615
726.1022, 1007.645
726.5843, 1011.534
727.0664, 1017.539
727.5485, 1017.886
728.0306, 1011.403
728.5128, 1006.140
728.9949, 1005.674
729.4770, 1007.127
729.9591, 1009.480
730.4412, 1011.772
730.9233, 1012.334
731.4055, 1010.811
731.8876, 1008.287
732.3697, 1005.264
732.8518, 1002.372
733.3339, 1001.192
733.8160, 1001.522
734.2982, 1008.103
734.7803, 1025.459
735.2624, 1040.871
735.7445, 1041.383
736.2266, 1028.271
736.7087, 1017.684
737.1909, 1010.066
737.6730, 1004.251
738.1551, 998.5920
738.6372, 996.0841
739.1193, 1002.264
739.6014, 1013.145
740.0836, 1018.390
740.5657, 1013.277
741.0478, 1004.557
741.5299, 994.6225
742.0120, 986.2833
742.4941, 985.6147
742.9763, 991.8509
743.4584, 999.7512
743.9405, 1007.113
744.4226, 1010.115
744.9047, 999.1572
745.3868, 971.9670
745.8690, 957.9152
746.3511, 960.8830
746.8332, 967.7313
747.3153, 975.7249
747.7974, 983.0346
748.2795, 986.8533
748.7617, 987.0129
749.2438, 986.8378
749.7259, 986.0056
750.2080, 985.7031
750.6901, 986.3256
751.1722, 987.7818
751.6544, 989.4756
752.1365, 991.6865
752.6186, 996.6257
753.1007, 1009.416
753.5828, 1020.296
754.0649, 1010.705
754.5471, 987.7600
755.0292, 975.3920
755.5113, 977.6268
755.9934, 985.4431
756.4755, 993.9285
756.9576, 999.8691
757.4398, 990.4689
757.9219, 956.4435
758.4040, 939.7566
758.8861, 952.1028
759.3682, 968.4918
759.8503, 978.0967
760.3325, 982.5035
760.8146, 983.0574
761.2967, 978.5981
761.7788, 975.7621
762.2609, 974.9980
762.7430, 977.4769
763.2252, 988.6393
763.7073, 1001.649
764.1894, 1004.939
764.6715, 996.4379
765.1536, 985.6979
765.6357, 982.0538
766.1179, 980.3840
766.6000, 968.3107
767.0821, 948.4813
767.5642, 936.0948
768.0463, 934.9741
768.5284, 936.7861
769.0106, 911.4347
769.4927, 945.7281
769.9748, 966.1301
770.4569, 973.3868
770.9390, 928.1268
771.4211, 950.6810
771.9033, 946.0591
772.3854, 940.3219
772.8675, 972.4209
773.3496, 934.7994
773.8317, 966.2983
774.3138, 970.2053
774.7960, 986.7413
775.2781, 976.0965
775.7602, 983.0286
776.2423, 982.1803
776.7244, 970.3969
777.2065, 948.1194
777.6887, 930.4392
778.1708, 935.3044
778.6529, 951.3262
779.1350, 956.9074
779.6171, 953.7421
780.0992, 950.4754
780.5814, 949.4611
781.0635, 949.1297
781.5456, 948.1378
782.0277, 946.4468
782.5098, 943.7441
782.9919, 939.6654
783.4741, 935.5600
783.9562, 930.0336
784.4383, 926.7487
784.9204, 931.8110
785.4025, 940.4359
785.8846, 939.3191
786.3668, 919.8463
786.8489, 910.4725
787.3310, 925.1523
787.8131, 942.3617
788.2952, 953.6451
788.7773, 956.8885
789.2595, 946.3234
789.7416, 921.7864
790.2237, 902.6949
790.7058, 907.8265
791.1879, 923.6827
791.6700, 933.7616
792.1522, 938.6917
792.6343, 939.6603
793.1164, 937.4161
793.5985, 936.4513
794.0806, 941.1572
794.5627, 949.4030
795.0449, 953.9930
795.5270, 954.7828
796.0091, 953.0383
796.4912, 948.4752
796.9733, 942.5264
797.4554, 936.2102
797.9376, 929.1357
798.4197, 919.5748
798.9018, 902.3231
799.3839, 894.5879
799.8660, 904.9930
800.3481, 915.0712
800.8303, 916.7864
801.3124, 914.1797
801.7945, 911.9689
802.2766, 911.0297
802.7587, 911.4336
803.2408, 911.0141
803.7230, 914.1606
804.2051, 929.8043
804.6872, 948.9688
805.1693, 955.6783
805.6514, 949.3262
806.1335, 942.3580
806.6157, 943.0798
807.0978, 947.8679
807.5799, 950.2604
808.0620, 950.8084
808.5441, 953.5360
809.0262, 958.9774
809.5084, 963.6549
809.9905, 965.5818
810.4726, 966.0376
810.9547, 966.8779
811.4368, 967.5238
811.9189, 973.1209
812.4011, 991.4493
812.8832, 1001.053
813.3653, 987.2770
813.8474, 968.3683
814.3295, 961.6326
814.8116, 966.0330
815.2938, 970.7317
815.7759, 976.4752
816.2580, 979.2776
816.7401, 977.0792
817.2222, 972.1929
817.7043, 964.4965
818.1865, 956.0189
818.6686, 950.7484
819.1507, 950.1465
819.6328, 953.3510
820.1149, 964.4138
820.5970, 976.0363
821.0792, 974.5754
821.5613, 963.6160
822.0434, 957.6663
822.5255, 961.3936
823.0076, 966.7101
823.4897, 964.4385
823.9719, 956.9089
824.4540, 954.5472
824.9361, 957.6674
825.4182, 958.0679
825.9003, 953.5384
826.3824, 947.7553
826.8646, 942.2838
827.3467, 938.5800
827.8288, 942.6540
828.3109, 963.2328
828.7930, 972.7883
829.2751, 960.9152
829.7573, 950.4933
830.2394, 952.1083
830.7215, 959.2441
831.2036, 964.2846
831.6857, 966.6673
832.1678, 965.9952
832.6500, 957.6507
833.1321, 951.5466
833.6142, 955.7414
834.0963, 962.3475
834.5784, 964.0694
835.0605, 959.6071
835.5427, 948.3571
836.0248, 927.0164
836.5069, 907.6674
836.9890, 900.3987
837.4711, 903.7825
837.9532, 921.7249
838.4354, 948.9970
838.9175, 963.6619
839.3996, 956.5789
839.8817, 944.8530
840.3638, 952.4514
840.8459, 974.2805
841.3281, 981.5220
841.8102, 973.8177
842.2923, 963.4900
842.7744, 952.3506
843.2565, 945.9810
843.7386, 950.6336
844.2208, 963.4047
844.7029, 971.3146
845.1850, 974.6702
845.6671, 971.6216
846.1492, 953.2980
846.6313, 940.3333
847.1135, 949.0206
847.5956, 966.6216
848.0777, 973.5894
848.5598, 967.3228
849.0419, 964.8939
849.5240, 974.3278
850.0062, 981.0544
850.4883, 976.8754
850.9704, 969.1580
851.4525, 964.8344
851.9346, 964.3090
852.4167, 965.2525
852.8989, 967.8009
853.3810, 969.0023
853.8631, 965.4238
854.3452, 960.2259
854.8273, 957.3604
855.3094, 956.4355
855.7916, 955.0005
856.2737, 952.2220
856.7558, 950.2537
857.2379, 952.2274
857.7200, 956.2890
858.2021, 959.0851
858.6843, 960.1053
859.1664, 954.5345
859.6485, 941.3559
860.1306, 930.8717
860.6127, 931.6545
861.0948, 939.5746
861.5770, 942.9855
862.0591, 941.3578
862.5412, 940.0922
863.0233, 939.6885
863.5054, 938.9024
863.9875, 936.8353
864.4697, 934.5523
864.9518, 933.5984
865.4339, 934.0403
865.9160, 935.1940
866.3981, 938.5233
866.8802, 940.3851
867.3624, 936.8053
867.8445, 934.7139
868.3266, 941.7695
868.8087, 954.0249
869.2908, 959.4197
869.7729, 952.4830
870.2551, 948.2434
870.7372, 951.0590
871.2193, 957.1849
871.7014, 969.0185
872.1835, 980.3459
872.6656, 980.4086
873.1478, 968.6817
873.6299, 959.1877
874.1120, 960.8221
874.5941, 966.7877
875.0762, 972.1228
875.5583, 977.6780
876.0405, 986.4865
876.5226, 996.9901
877.0047, 1002.136
877.4868, 998.1716
877.9689, 992.7144
878.4510, 993.2228
878.9332, 999.8096
879.4153, 1017.545
879.8974, 1043.146
880.3795, 1056.303
880.8616, 1051.238
881.3438, 1042.386
881.8259, 1042.323
882.3080, 1050.096
882.7901, 1065.547
883.2722, 1089.439
883.7543, 1101.507
884.2365, 1097.691
884.7186, 1091.464
885.2007, 1089.547
885.6828, 1089.953
886.1649, 1089.320
886.6470, 1087.490
887.1292, 1086.036
887.6113, 1083.896
888.0934, 1084.322
888.5755, 1088.102
889.0576, 1094.659
889.5397, 1104.208
890.0219, 1116.276
890.5040, 1128.935
890.9861, 1147.784
891.4682, 1156.586
891.9503, 1141.483
892.4324, 1130.557
892.9146, 1149.168
893.3967, 1171.933
893.8788, 1159.065
894.3609, 1109.675
894.8430, 1077.204
895.3251, 1089.812
895.8073, 1108.481
896.2894, 1120.163
896.7715, 1126.351
897.2536, 1125.493
897.7357, 1121.083
898.2178, 1121.266
898.7000, 1129.301
899.1821, 1136.658
899.6642, 1132.536
900.1463, 1128.569
900.6284, 1139.599
901.1105, 1159.683
901.5927, 1177.856
902.0748, 1191.356
902.5569, 1199.788
903.0390, 1201.276
903.5211, 1203.200
904.0032, 1217.821
904.4854, 1240.685
904.9675, 1260.840
905.4496, 1277.723
905.9317, 1294.082
906.4138, 1310.917
906.8959, 1329.514
907.3781, 1352.391
907.8602, 1377.521
908.3423, 1394.819
908.8244, 1404.843
909.3065, 1423.765
909.7886, 1454.763
910.2708, 1488.108
910.7529, 1518.393
911.2350, 1544.875
911.7171, 1563.947
912.1992, 1573.971
912.6814, 1598.902
913.1635, 1643.708
913.6456, 1686.519
914.1277, 1724.817
914.6099, 1750.184
915.0920, 1748.149
915.5741, 1727.671
916.0562, 1735.483
916.5383, 1793.694
917.0204, 1831.100
917.5026, 1836.640
917.9847, 1835.412
918.4668, 1836.177
918.9489, 1836.733
919.4310, 1833.671
919.9131, 1826.929
920.3953, 1821.498
920.8774, 1819.333
921.3595, 1815.983
921.8416, 1810.796
922.3237, 1804.153
922.8058, 1796.486
923.2880, 1787.489
923.7701, 1777.113
924.2522, 1765.898
924.7343, 1749.739
925.2164, 1724.483
925.6985, 1697.762
926.1807, 1669.887
926.6628, 1644.952
927.1449, 1629.779
927.6270, 1621.248
928.1091, 1606.855
928.5912, 1580.083
929.0734, 1554.626
929.5555, 1536.187
930.0376, 1524.055
930.5197, 1522.784
931.0018, 1525.029
931.4839, 1519.150
931.9661, 1503.380
932.4482, 1483.451
932.9303, 1459.800
933.4124, 1438.895
933.8945, 1427.644
934.3766, 1422.604
934.8588, 1420.839
935.3409, 1420.730
935.8230, 1418.491
936.3051, 1413.182
936.7872, 1410.319
937.2693, 1419.433
937.7515, 1429.832
938.2336, 1421.828
938.7157, 1401.685
939.1978, 1381.292
939.6799, 1364.406
940.1620, 1359.729
940.6442, 1372.099
941.1263, 1390.160
941.6084, 1401.802
942.0905, 1406.281
942.5726, 1394.897
943.0547, 1372.043
943.5369, 1367.490
944.0190, 1387.209
944.5011, 1408.306
944.9832, 1414.260
945.4653, 1411.392
945.9474, 1412.085
946.4296, 1415.991
946.9117, 1418.455
947.3938, 1419.278
947.8759, 1422.483
948.3580, 1428.940
948.8401, 1442.847
949.3223, 1470.270
949.8044, 1505.587
950.2865, 1528.172
950.7686, 1537.364
951.2507, 1539.840
951.7328, 1533.728
952.2150, 1533.656
952.6971, 1546.182
953.1792, 1566.945
953.6613, 1591.338
954.1434, 1618.951
954.6255, 1646.266
955.1077, 1672.474
955.5898, 1701.936
956.0719, 1736.429
956.5540, 1772.183
957.0361, 1808.872
957.5182, 1843.257
958.0004, 1868.140
958.4825, 1882.220
958.9646, 1904.474
959.4467, 1938.253
959.9288, 1973.148
960.4109, 2012.207
960.8931, 2043.993
961.3752, 2055.700
961.8573, 2056.978
962.3394, 2071.693
962.8215, 2103.745
963.3036, 2133.051
963.7858, 2150.009
964.2679, 2179.612
964.7500, 2243.653
965.2321, 2306.599
965.7142, 2335.912
966.1964, 2340.461
966.6785, 2352.781
967.1606, 2373.879
967.6427, 2400.338
968.1248, 2432.609
968.6069, 2469.665
969.0891, 2519.046
969.5712, 2567.239
970.0533, 2600.590
970.5354, 2620.952
971.0175, 2639.581
971.4996, 2658.107
971.9818, 2673.554
972.4639, 2687.615
972.9460, 2696.258
973.4281, 2692.997
973.9102, 2686.412
974.3923, 2690.703
974.8745, 2704.060
975.3566, 2701.980
975.8387, 2670.778
976.3208, 2637.967
976.8029, 2609.938
977.2850, 2580.408
977.7672, 2546.018
978.2493, 2507.767
978.7314, 2468.667
979.2135, 2428.793
979.6956, 2380.058
980.1777, 2309.000
980.6599, 2245.228
981.1420, 2206.560
981.6241, 2169.134
982.1062, 2112.754
982.5883, 2047.270
983.0704, 1988.505
983.5526, 1939.021
984.0347, 1900.199
984.5168, 1888.339
984.9989, 1866.355
985.4810, 1807.294
985.9631, 1743.755
986.4453, 1703.578
986.9274, 1679.257
987.4095, 1651.358
987.8916, 1615.204
988.3737, 1586.979
988.8558, 1579.116
989.3380, 1572.305
989.8201, 1555.743
990.3022, 1537.561
990.7843, 1526.627
991.2664, 1520.219
991.7485, 1509.342
992.2307, 1490.971
992.7128, 1476.770
993.1949, 1471.364
993.6770, 1471.592
994.1591, 1478.003
994.6412, 1487.430
995.1234, 1497.834
995.6055, 1508.334
996.0876, 1518.141
996.5697, 1527.331
997.0518, 1533.924
997.5339, 1534.862
998.0161, 1535.496
998.4982, 1541.617
998.9803, 1547.235
999.4624, 1543.033
999.9445, 1532.222
1000.427, 1527.538
1000.909, 1534.434
1001.391, 1539.270
1001.873, 1535.342
1002.355, 1527.795
1002.837, 1520.035
1003.319, 1510.384
1003.801, 1491.738
1004.284, 1469.028
1004.766, 1461.322
1005.248, 1479.734
1005.730, 1491.832
1006.212, 1477.012
1006.694, 1457.409
1007.176, 1447.584
1007.658, 1440.905
1008.141, 1427.510
1008.623, 1408.730
1009.105, 1394.240
1009.587, 1388.983
1010.069, 1381.557
1010.551, 1362.174
1011.033, 1344.242
1011.515, 1339.640
1011.997, 1339.228
1012.480, 1329.543
1012.962, 1312.782
1013.444, 1303.442
1013.926, 1308.212
1014.408, 1313.834
1014.890, 1320.543
1015.372, 1320.059
1015.854, 1302.428
1016.336, 1278.022
1016.819, 1255.015
1017.301, 1236.750
1017.783, 1231.011
1018.265, 1247.147
1018.747, 1254.970
1019.229, 1236.552
1019.711, 1214.457
1020.193, 1200.594
1020.676, 1190.740
1021.158, 1178.244
1021.640, 1164.238
1022.122, 1156.920
1022.604, 1163.494
1023.086, 1162.217
1023.568, 1138.038
1024.050, 1114.158
1024.532, 1103.772
1025.015, 1098.911
1025.497, 1089.362
1025.979, 1076.720
1026.461, 1071.127
1026.943, 1078.178
1027.425, 1082.697
1027.907, 1081.277
1028.389, 1076.332
1028.871, 1060.785
1029.354, 1048.566
1029.836, 1059.743
1030.318, 1087.230
1030.800, 1099.743
1031.282, 1086.815
1031.764, 1075.122
1032.246, 1073.888
1032.728, 1068.011
1033.211, 1041.533
1033.693, 1016.414
1034.175, 1019.931
1034.657, 1042.535
1035.139, 1045.579
1035.621, 1013.107
1036.103, 995.9556
1036.585, 1011.039
1037.068, 1024.212
1037.550, 1026.558
1038.032, 1022.356
1038.514, 1013.960
1038.996, 1001.980
1039.478, 986.6729
1039.960, 961.3076
1040.442, 953.2003
1040.924, 982.2018
1041.406, 997.2065
1041.889, 974.7274
1042.371, 948.3637
1042.853, 945.9310
1043.335, 957.2252
1043.817, 954.1527
1044.299, 930.2918
1044.781, 921.5257
1045.263, 938.1520
1045.746, 947.0358
1046.228, 936.8873
1046.710, 925.3450
1047.192, 926.7746
1047.674, 932.8576
1048.156, 923.5204
1048.638, 895.6519
1049.120, 885.5669
1049.603, 901.1566
1050.085, 906.6157
1050.567, 892.1755
1051.049, 875.6438
1051.531, 867.7785
1052.013, 865.2484
1052.495, 862.3085
1052.977, 858.9993
1053.459, 857.9149
1053.942, 860.0211
1054.424, 855.4503
1054.906, 841.4607
1055.388, 828.5511
1055.870, 822.2539
1056.352, 791.1844
1056.834, 821.7246
1057.316, 838.5583
1057.798, 842.4225
1058.281, 794.4692
1058.763, 813.4268
1059.245, 805.5701
1059.727, 796.6139
1060.209, 824.9888
1060.691, 784.5735
1061.173, 812.3563
1061.655, 812.9156
1062.138, 825.9330
1062.620, 811.9719
1063.102, 806.3441
1063.584, 827.7049
1064.066, 834.1218
1064.548, 817.0551
1065.030, 807.7217
1065.512, 814.5559
1065.995, 821.8031
1066.477, 818.5733
1066.959, 809.3237
1067.441, 804.1089
1067.923, 802.3057
1068.405, 798.1757
1068.887, 790.8256
1069.369, 786.2387
1069.851, 789.4190
1070.333, 793.8787
1070.816, 793.4172
1071.298, 789.0455
1071.780, 777.8135
1072.262, 765.4508
1072.744, 764.4175
1073.226, 774.6829
1073.708, 784.6885
1074.190, 789.1480
1074.673, 791.3077
1075.155, 793.1308
1075.637, 793.9655
1076.119, 792.6909
1076.601, 790.4855
1077.083, 788.9549
1077.565, 787.9570
1078.047, 785.6263
1078.530, 780.5447
1079.012, 779.2607
1079.494, 789.1667
1079.976, 797.5615
1080.458, 796.8206
1080.940, 793.0211
1081.422, 790.8420
1081.904, 790.2803
1082.386, 791.2200
1082.869, 794.3307
1083.351, 792.8511
1083.833, 777.7196
1084.315, 769.3812
1084.797, 784.0837
1085.279, 794.3047
1085.761, 775.3063
1086.243, 745.9692
1086.726, 735.9971
1087.208, 745.6603
1087.690, 752.9921
1088.172, 756.0134
1088.654, 761.6090
1089.136, 774.8961
1089.618, 781.2261
1090.100, 772.3504
1090.583, 756.9872
1091.065, 743.5278
1091.547, 732.5923
1092.029, 726.9714
1092.511, 726.7378
1092.993, 732.5565
1093.475, 745.7955
1093.957, 756.9204
1094.439, 763.4905
1094.922, 763.1342
1095.404, 752.9562
1095.886, 737.5422
1096.368, 725.8174
1096.850, 718.0119
1097.332, 717.6555
1097.814, 723.9258
1098.296, 729.7484
1098.778, 733.6300
1099.261, 737.5582
1099.743, 742.8171
1100.225, 746.3762
1100.707, 742.4479
1101.189, 735.2110
1101.671, 734.3453
1102.153, 736.6229
1102.635, 731.9219
1103.118, 722.6569
1103.600, 723.9135
1104.082, 740.3196
1104.564, 753.4042
1105.046, 746.5415
1105.528, 733.7744
1106.010, 726.7264
1106.492, 722.1251
1106.974, 712.1910
1107.457, 703.4578
1107.939, 712.2977
1108.421, 738.4784
1108.903, 758.3595
1109.385, 760.9000
1109.867, 759.4225
1110.349, 758.1517
1110.831, 755.7157
1111.313, 751.8567
1111.796, 745.9673
1112.278, 733.1036
1112.760, 717.3263
1113.242, 715.4346
1113.724, 735.5179
1114.206, 750.8990
1114.688, 759.2020
1115.170, 763.4865
1115.653, 762.0249
1116.135, 759.7576
1116.617, 760.3541
1117.099, 761.8594
1117.581, 760.4904
1118.063, 756.1891
1118.545, 751.7098
1119.027, 746.4030
1119.510, 745.2019
1119.992, 750.7206
1120.474, 748.7811
1120.956, 731.3849
1121.438, 712.3532
1121.920, 708.2410
1122.402, 713.7662
1122.884, 710.6448
1123.366, 701.2199
1123.849, 703.9871
1124.331, 717.8487
1124.813, 725.5357
1125.295, 722.9227
1125.777, 721.2822
1126.259, 728.9200
1126.741, 736.7215
1127.223, 730.6592
1127.705, 718.7474
1128.188, 712.3148
1128.670, 710.4778
1129.152, 710.6760
1129.634, 712.8760
1130.116, 720.3471
1130.598, 694.0032
1131.080, 724.3765
1131.562, 741.5096
1132.045, 746.1144
1132.527, 700.6653
1133.009, 719.8500
1133.491, 713.1324
1133.973, 705.3527
1134.455, 733.6343
1134.937, 695.4655
1135.419, 723.1751
1135.901, 724.5873
1136.384, 738.0355
1136.866, 733.5624
1137.348, 726.2084
1137.830, 712.6573
1138.312, 703.6302
1138.794, 711.9486
1139.276, 730.0749
1139.758, 735.2654
1140.240, 724.8387
1140.723, 720.9860
1141.205, 724.8505
1141.687, 730.2084
1142.169, 736.3608
1142.651, 741.7389
1143.133, 745.9503
1143.615, 746.0423
1144.097, 736.6423
1144.580, 721.6743
1145.062, 713.5303
1145.544, 711.1933
1146.026, 710.2103
1146.508, 710.2258
1146.990, 712.2007
1147.472, 716.1964
1147.954, 720.6211
1148.437, 724.9590
1148.919, 726.9885
1149.401, 720.1892
1149.883, 713.6068
1150.365, 718.4622
1150.847, 730.4003
1151.329, 748.3060
1151.811, 765.7913
1152.293, 764.2565
1152.776, 736.2971
1153.258, 716.5833
1153.740, 725.9702
1154.222, 735.4268
1154.704, 731.9665
1155.186, 727.8016
1155.668, 734.8530
1156.150, 744.0332
1156.632, 738.9434
1157.115, 721.6750
1157.597, 713.8030
1158.079, 721.2090
1158.561, 721.9223
1159.043, 712.1021
1159.525, 706.1398
1160.007, 709.2667
1160.489, 713.0355
1160.972, 711.0961
1161.454, 706.1355
1161.936, 702.6235
1162.418, 700.7723
1162.900, 704.2970
1163.382, 711.3351
1163.864, 707.5046
1164.346, 693.0090
1164.828, 681.3896
1165.311, 677.9821
1165.793, 680.8314
1166.275, 690.3680
1166.757, 700.8459
1167.239, 704.9519
1167.721, 706.6129
1168.203, 710.4929
1168.685, 715.6412
1169.167, 721.8179
1169.650, 727.1646
1170.132, 725.9063
1170.614, 715.4602
1171.096, 702.5986
1171.578, 678.2908
1172.060, 667.4935
1172.542, 692.3185
1173.024, 719.6138
1173.507, 726.7031
1173.989, 721.8685
1174.471, 716.4118
1174.953, 710.5073
1175.435, 706.3485
1175.917, 703.5924
1176.399, 704.2421
1176.881, 708.9313
1177.364, 714.0707
1177.846, 718.3838
1178.328, 725.5259
1178.810, 739.4615
1179.292, 751.4401
1179.774, 740.3290
1180.256, 716.8867
1180.738, 720.3872
1181.220, 742.3486
1181.703, 760.4659
1182.185, 770.4152
1182.667, 765.9799
1183.149, 747.5373
1183.631, 737.9950
1184.113, 757.9153
1184.595, 779.5490
1185.077, 780.3412
1185.559, 776.1271
1186.042, 777.1575
1186.524, 782.7877
1187.006, 796.2967
1187.488, 812.3657
1187.970, 813.1365
1188.452, 791.1577
1188.934, 779.2191
1189.416, 786.6540
1189.899, 791.8708
1190.381, 791.0189
1190.863, 790.6728
1191.345, 797.0398
1191.827, 797.5613
1192.309, 774.2582
1192.791, 738.4630
1193.273, 733.0934
1193.755, 755.3600
1194.238, 760.8787
1194.720, 750.2144
1195.202, 739.7449
1195.684, 732.9726
1196.166, 727.5872
1196.648, 722.4120
1197.130, 717.6736
1197.612, 716.7441
1198.094, 712.6638
1198.577, 690.5915
1199.059, 666.8699
1199.541, 662.2561
1200.023, 670.0294
1200.505, 679.3904
1200.987, 686.7061
1201.469, 685.4146
1201.951, 671.5863
1202.434, 655.5938
1202.916, 628.2089
1203.398, 615.5663
1203.880, 638.4171
1204.362, 656.1876
1204.844, 639.7018
1205.326, 612.2382
1205.808, 610.1871
1206.291, 627.8656
1206.773, 626.1683
1207.255, 605.0822
1207.737, 586.8448
1208.219, 573.7421
1208.701, 582.4766
1209.183, 615.0533
1209.665, 641.8988
1210.147, 644.5705
1210.630, 639.1735
1211.112, 644.6171
1211.594, 651.1618
1212.076, 642.5724
1212.558, 630.9825
1213.040, 635.7730
1213.522, 649.0936
1214.004, 651.9522
1214.486, 642.5574
1214.969, 635.2145
1215.451, 632.1945
1215.933, 634.5886
1216.415, 648.1512
1216.897, 659.1910
1217.379, 663.0599
1217.861, 665.1727
1218.343, 669.5140
1218.826, 673.2582
1219.308, 671.4343
1219.790, 665.1322
1220.272, 661.5451
1220.754, 660.4701
1221.236, 657.2853
1221.718, 652.3672
1222.200, 652.2513
1222.682, 658.1206
1223.165, 665.0900
1223.647, 670.4301
1224.129, 673.6382
1224.611, 671.0453
1225.093, 669.5372
1225.575, 679.5345
1226.057, 691.1618
1226.539, 694.6656
1227.021, 691.0075
1227.504, 682.6889
1227.986, 670.5105
1228.468, 656.4531
1228.950, 632.6851
1229.432, 626.5060
1229.914, 651.9924
1230.396, 666.7963
1230.878, 658.1199
1231.361, 645.8752
1231.843, 641.0009
1232.325, 640.9963
1232.807, 643.5153
1233.289, 646.7754
1233.771, 644.2064
1234.253, 637.2947
1234.735, 633.5781
1235.218, 630.8657
1235.700, 616.7217
1236.182, 592.4940
1236.664, 575.9669
1237.146, 575.3276
1237.628, 580.4778
1238.110, 589.1776
1238.592, 595.9185
1239.074, 595.7203
1239.557, 594.5517
1240.039, 599.3851
1240.521, 604.1533
1241.003, 596.8038
1241.485, 582.1851
1241.967, 580.0607
1242.449, 592.9076
1242.931, 603.4398
1243.413, 611.1407
1243.896, 621.0483
1244.378, 634.3517
1244.860, 641.0626
1245.342, 636.7584
1245.824, 629.8398
1246.306, 627.7497
1246.788, 628.4490
1247.270, 628.6951
1247.753, 629.9812
1248.235, 635.3081
1248.717, 642.7460
1249.199, 650.7686
1249.681, 657.6176
1250.163, 659.4954
1250.645, 655.5967
1251.127, 651.0312
1251.609, 647.1202
1252.092, 642.3769
1252.574, 633.6288
1253.056, 629.1755
1253.538, 632.8389
1254.020, 639.1544
1254.502, 645.0947
1254.984, 648.7313
1255.466, 645.0543
1255.948, 637.1059
1256.431, 640.4351
1256.913, 651.3341
1257.395, 655.2639
1257.877, 652.2802
1258.359, 646.6091
1258.841, 640.2164
1259.323, 636.1610
1259.805, 635.9990
1260.288, 637.5720
1260.770, 641.6714
1261.252, 644.3474
1261.734, 638.4780
1262.216, 636.0553
1262.698, 650.6835
1263.180, 669.6620
1263.662, 677.3021
1264.145, 676.0582
1264.627, 675.1428
##END=



