##NAMES=Scainiite
##RRUFFID=R100085
##IDEAL CHEMISTRY=Pb^2+^_14_Sb^3+^_30_S^2-^_54_O_5_
##LOCALITY=Dúbrava, Northern Low Tatra Mts, Žilina Region, Slovakia
##OWNER=RRUFF
##SOURCE=William W Pinch
##DESCRIPTION=Parallel aggregates of metallic gray acicular crystals
##STATUS=The identification of this mineral has been confirmed by single-crystal X-ray diffraction.
##URL=rruff.info/R100085
91.53320, 10027.55
92.01532, 9930.127
92.49744, 9868.003
92.97955, 10004.33
93.46167, 10189.12
93.94379, 10277.05
94.42590, 10324.11
94.90802, 10349.41
95.39014, 10350.44
95.87225, 10327.84
96.35437, 10286.70
96.83649, 10231.44
97.31860, 10171.44
97.80072, 10114.57
98.28284, 10053.52
98.76495, 9980.271
99.24707, 9905.535
99.72919, 9831.561
100.2113, 9757.674
100.6934, 9681.543
101.1755, 9603.229
101.6577, 9524.531
102.1398, 9445.374
102.6219, 9364.146
103.1040, 9289.645
103.5861, 9218.723
104.0682, 9152.588
104.5504, 9090.597
105.0325, 9032.881
105.5146, 8980.031
105.9967, 8932.279
106.4788, 8888.259
106.9609, 8851.709
107.4431, 8822.418
107.9252, 8800.058
108.4073, 8785.279
108.8894, 8779.056
109.3715, 8778.161
109.8536, 8776.973
110.3358, 8774.896
110.8179, 8774.000
111.3000, 8774.149
111.7821, 8775.635
112.2642, 8781.873
112.7463, 8797.759
113.2285, 8817.224
113.7106, 8834.385
114.1927, 8848.041
114.6748, 8859.605
115.1569, 8870.345
115.6390, 8879.422
116.1212, 8890.006
116.6033, 8904.412
117.0854, 8919.991
117.5675, 8933.393
118.0496, 8942.353
118.5317, 8948.811
119.0139, 8962.145
119.4960, 8986.849
119.9781, 9014.489
120.4602, 9043.924
120.9423, 9075.196
121.4244, 9108.270
121.9066, 9142.900
122.3887, 9178.859
122.8708, 9221.257
123.3529, 9275.271
123.8350, 9329.681
124.3171, 9381.332
124.7993, 9429.155
125.2814, 9470.873
125.7635, 9503.864
126.2456, 9525.981
126.7277, 9546.268
127.2098, 9564.168
127.6920, 9580.482
128.1741, 9596.285
128.6562, 9611.763
129.1383, 9626.172
129.6204, 9638.578
130.1025, 9649.272
130.5847, 9657.879
131.0668, 9663.232
131.5489, 9666.137
132.0310, 9669.149
132.5131, 9671.683
132.9952, 9676.064
133.4774, 9684.005
133.9595, 9695.562
134.4416, 9709.215
134.9237, 9725.122
135.4058, 9744.321
135.8879, 9759.553
136.3701, 9767.188
136.8522, 9772.016
137.3343, 9776.666
137.8164, 9781.840
138.2985, 9786.191
138.7806, 9787.834
139.2628, 9788.193
139.7449, 9782.386
140.2270, 9769.637
140.7091, 9751.917
141.1912, 9730.196
141.6733, 9705.007
142.1555, 9677.097
142.6376, 9649.493
143.1197, 9622.900
143.6018, 9595.644
144.0839, 9567.857
144.5660, 9539.145
145.0482, 9508.784
145.5303, 9476.249
146.0124, 9441.765
146.4945, 9406.556
146.9766, 9369.130
147.4587, 9332.646
147.9409, 9299.031
148.4230, 9267.797
148.9051, 9236.564
149.3872, 9202.998
149.8693, 9168.038
150.3514, 9135.639
150.8336, 9106.797
151.3157, 9080.028
151.7978, 9054.708
152.2799, 9030.994
152.7620, 9006.483
153.2441, 8978.871
153.7263, 8949.201
154.2084, 8918.302
154.6905, 8887.114
155.1726, 8855.056
155.6547, 8820.442
156.1368, 8782.821
156.6190, 8743.460
157.1011, 8702.207
157.5832, 8659.947
158.0653, 8617.948
158.5474, 8577.921
159.0295, 8539.525
159.5117, 8498.367
159.9938, 8450.928
160.4759, 8403.607
160.9580, 8357.896
161.4401, 8314.155
161.9222, 8273.021
162.4044, 8235.693
162.8865, 8202.854
163.3686, 8168.396
163.8507, 8130.322
164.3328, 8092.204
164.8149, 8054.734
165.2971, 8018.297
165.7792, 7984.616
166.2613, 7955.786
166.7434, 7934.753
167.2255, 7910.484
167.7076, 7878.455
168.1898, 7846.653
168.6719, 7820.522
169.1540, 7801.131
169.6361, 7786.689
170.1182, 7774.990
170.6003, 7767.080
171.0825, 7759.841
171.5646, 7751.320
172.0467, 7744.178
172.5288, 7741.842
173.0109, 7745.509
173.4930, 7752.774
173.9752, 7759.967
174.4573, 7766.579
174.9394, 7775.235
175.4215, 7787.007
175.9036, 7801.392
176.3857, 7817.136
176.8679, 7833.950
177.3500, 7852.315
177.8321, 7872.868
178.3142, 7895.775
178.7963, 7919.053
179.2784, 7940.387
179.7606, 7960.489
180.2427, 7983.743
180.7248, 8012.100
181.2069, 8043.818
181.6890, 8077.435
182.1711, 8113.075
182.6533, 8149.071
183.1354, 8183.288
183.6175, 8215.250
184.0996, 8249.329
184.5817, 8287.123
185.0638, 8327.231
185.5460, 8369.153
186.0281, 8412.764
186.5102, 8457.743
186.9923, 8503.330
187.4744, 8548.605
187.9565, 8597.182
188.4387, 8652.763
188.9208, 8709.462
189.4029, 8762.371
189.8850, 8810.358
190.3671, 8855.799
190.8492, 8904.216
191.3314, 8957.401
191.8135, 9010.251
192.2956, 9059.037
192.7777, 9108.762
193.2598, 9165.355
193.7419, 9230.771
194.2241, 9300.514
194.7062, 9363.606
195.1883, 9410.010
195.6704, 9461.432
196.1525, 9519.087
196.6346, 9581.577
197.1168, 9648.661
197.5989, 9720.490
198.0810, 9794.313
198.5631, 9861.870
199.0452, 9919.825
199.5273, 9976.571
200.0095, 10032.95
200.4916, 10088.90
200.9737, 10144.14
201.4558, 10198.42
201.9379, 10252.84
202.4200, 10312.88
202.9022, 10384.04
203.3843, 10450.00
203.8664, 10503.87
204.3485, 10548.06
204.8306, 10588.03
205.3127, 10624.51
205.7949, 10659.87
206.2770, 10699.44
206.7591, 10746.27
207.2412, 10790.86
207.7233, 10826.75
208.2054, 10855.13
208.6876, 10882.40
209.1697, 10910.56
209.6518, 10939.27
210.1339, 10967.44
210.6160, 10994.41
211.0981, 11022.25
211.5803, 11052.84
212.0624, 11086.16
212.5445, 11120.31
213.0266, 11155.69
213.5087, 11190.67
213.9908, 11222.98
214.4730, 11251.61
214.9551, 11280.64
215.4372, 11314.58
215.9193, 11354.32
216.4014, 11394.39
216.8836, 11434.15
217.3657, 11473.38
217.8478, 11512.18
218.3299, 11550.40
218.8120, 11587.98
219.2941, 11623.34
219.7763, 11654.16
220.2584, 11690.40
220.7405, 11738.94
221.2226, 11790.10
221.7047, 11837.34
222.1868, 11878.87
222.6690, 11917.52
223.1511, 11957.68
223.6332, 12000.37
224.1153, 12042.72
224.5974, 12085.12
225.0795, 12126.69
225.5617, 12167.90
226.0438, 12208.58
226.5259, 12246.30
227.0080, 12276.19
227.4901, 12291.78
227.9722, 12311.06
228.4544, 12338.38
228.9365, 12366.92
229.4186, 12392.07
229.9007, 12412.25
230.3828, 12427.75
230.8649, 12438.70
231.3471, 12442.55
231.8292, 12445.38
232.3113, 12443.60
232.7934, 12442.81
233.2755, 12450.21
233.7576, 12466.95
234.2398, 12485.13
234.7219, 12491.42
235.2040, 12477.54
235.6861, 12465.04
236.1682, 12455.27
236.6503, 12446.04
237.1325, 12436.81
237.6146, 12427.21
238.0967, 12414.40
238.5788, 12393.89
239.0609, 12362.83
239.5430, 12329.53
240.0252, 12294.20
240.5073, 12256.89
240.9894, 12217.44
241.4715, 12175.64
241.9536, 12133.07
242.4357, 12091.75
242.9179, 12052.68
243.4000, 12010.99
243.8821, 11964.94
244.3642, 11916.81
244.8463, 11868.96
245.3284, 11821.61
245.8106, 11774.60
246.2927, 11726.67
246.7748, 11677.52
247.2569, 11633.31
247.7390, 11600.32
248.2211, 11570.27
248.7033, 11533.18
249.1854, 11487.24
249.6675, 11436.36
250.1496, 11381.81
250.6317, 11324.03
251.1138, 11269.42
251.5960, 11223.48
252.0781, 11179.51
252.5602, 11127.46
253.0423, 11065.78
253.5244, 11001.57
254.0065, 10940.28
254.4887, 10881.73
254.9708, 10825.97
255.4529, 10776.67
255.9350, 10728.87
256.4171, 10676.35
256.8992, 10618.79
257.3813, 10557.36
257.8635, 10489.73
258.3456, 10418.82
258.8277, 10348.62
259.3098, 10282.25
259.7919, 10216.57
260.2740, 10147.96
260.7562, 10076.69
261.2383, 10001.22
261.7204, 9918.654
262.2025, 9831.423
262.6846, 9740.668
263.1667, 9645.428
263.6489, 9548.349
264.1310, 9452.357
264.6131, 9357.630
265.0952, 9263.095
265.5773, 9167.223
266.0594, 9072.262
266.5416, 8980.471
267.0237, 8892.879
267.5058, 8807.538
267.9879, 8720.866
268.4700, 8632.594
268.9521, 8545.566
269.4343, 8463.446
269.9164, 8381.493
270.3985, 8295.158
270.8806, 8202.849
271.3627, 8110.751
271.8448, 8026.810
272.3270, 7951.655
272.8091, 7879.393
273.2912, 7811.429
273.7733, 7744.138
274.2554, 7674.151
274.7375, 7600.640
275.2197, 7528.024
275.7018, 7460.947
276.1839, 7400.428
276.6660, 7340.248
277.1481, 7278.011
277.6302, 7217.364
278.1124, 7161.370
278.5945, 7109.758
279.0766, 7060.273
279.5587, 7010.917
280.0408, 6961.571
280.5229, 6912.671
281.0051, 6863.729
281.4872, 6816.068
281.9693, 6772.323
282.4514, 6731.089
282.9335, 6687.445
283.4156, 6636.456
283.8978, 6577.915
284.3799, 6521.589
284.8620, 6468.998
285.3441, 6417.267
285.8262, 6365.953
286.3083, 6314.727
286.7905, 6262.804
287.2726, 6209.318
287.7547, 6154.640
288.2368, 6103.656
288.7189, 6058.703
289.2010, 6014.935
289.6832, 5970.519
290.1653, 5926.679
290.6474, 5884.938
291.1295, 5846.380
291.6116, 5810.821
292.0938, 5777.587
292.5759, 5745.025
293.0580, 5718.173
293.5401, 5698.706
294.0222, 5684.518
294.5043, 5672.956
294.9865, 5662.737
295.4686, 5655.699
295.9507, 5656.604
296.4328, 5668.617
296.9149, 5683.727
297.3970, 5698.340
297.8792, 5716.383
298.3613, 5742.328
298.8434, 5777.256
299.3255, 5816.778
299.8076, 5853.242
300.2897, 5883.511
300.7719, 5918.054
301.2540, 5956.164
301.7361, 5998.748
302.2182, 6048.062
302.7003, 6103.642
303.1824, 6162.300
303.6646, 6220.458
304.1467, 6277.121
304.6288, 6336.331
305.1109, 6398.321
305.5930, 6462.808
306.0751, 6529.375
306.5573, 6598.167
307.0394, 6669.558
307.5215, 6743.449
308.0036, 6820.115
308.4857, 6901.841
308.9678, 6989.257
309.4500, 7081.716
309.9321, 7180.091
310.4142, 7283.927
310.8963, 7391.956
311.3784, 7503.821
311.8605, 7619.770
312.3427, 7739.312
312.8248, 7864.735
313.3069, 7993.016
313.7890, 8127.771
314.2711, 8263.949
314.7532, 8396.753
315.2354, 8523.106
315.7175, 8644.145
316.1996, 8762.564
316.6817, 8890.984
317.1638, 8995.233
317.6459, 9068.577
318.1281, 9121.253
318.6102, 9161.702
319.0923, 9192.705
319.5744, 9211.530
320.0565, 9212.890
320.5386, 9192.688
321.0208, 9163.092
321.5029, 9122.734
321.9850, 9076.172
322.4671, 9023.873
322.9492, 8966.959
323.4313, 8909.056
323.9135, 8852.093
324.3956, 8794.380
324.8777, 8746.809
325.3598, 8707.386
325.8419, 8679.768
326.3240, 8663.396
326.8062, 8660.012
327.2883, 8673.087
327.7704, 8706.312
328.2525, 8759.063
328.7346, 8820.416
329.2167, 8889.149
329.6989, 8970.058
330.1810, 9070.848
330.6631, 9182.939
331.1452, 9295.765
331.6273, 9405.094
332.1094, 9507.209
332.5916, 9592.193
333.0737, 9669.040
333.5558, 9709.120
334.0379, 9718.995
334.5200, 9691.184
335.0021, 9615.779
335.4843, 9490.025
335.9664, 9324.752
336.4485, 9135.173
336.9306, 8915.862
337.4127, 8686.130
337.8948, 8434.101
338.3770, 8182.454
338.8591, 7939.999
339.3412, 7708.968
339.8233, 7494.471
340.3055, 7299.336
340.7876, 7124.241
341.2697, 6968.920
341.7518, 6834.170
342.2339, 6722.366
342.7160, 6637.273
343.1982, 6575.633
343.6803, 6529.757
344.1624, 6495.417
344.6445, 6472.503
345.1266, 6462.167
345.6087, 6474.430
346.0909, 6483.165
346.5730, 6488.601
347.0551, 6483.472
347.5372, 6461.789
348.0193, 6423.294
348.5014, 6359.077
348.9836, 6252.253
349.4657, 6101.125
349.9478, 5913.898
350.4299, 5677.486
350.9120, 5414.257
351.3941, 5132.572
351.8763, 4835.322
352.3584, 4536.146
352.8405, 4246.294
353.3226, 3964.285
353.8047, 3704.280
354.2868, 3470.449
354.7690, 3259.474
355.2511, 3068.194
355.7332, 2895.635
356.2153, 2741.834
356.6974, 2609.833
357.1795, 2496.942
357.6617, 2392.640
358.1438, 2297.083
358.6259, 2211.432
359.1080, 2138.625
359.5901, 2075.370
360.0722, 2016.578
360.5544, 1960.428
361.0365, 1908.135
361.5186, 1860.883
362.0007, 1819.121
362.4828, 1780.754
362.9649, 1745.538
363.4471, 1713.112
363.9292, 1682.933
364.4113, 1655.040
364.8934, 1628.824
365.3755, 1603.678
365.8576, 1579.720
366.3398, 1557.882
366.8219, 1539.119
367.3040, 1521.321
367.7861, 1502.068
368.2682, 1481.525
368.7503, 1461.300
369.2325, 1441.717
369.7146, 1422.843
370.1967, 1405.080
370.6788, 1388.564
371.1609, 1372.189
371.6430, 1355.039
372.1252, 1337.351
372.6073, 1320.306
373.0894, 1303.977
373.5715, 1288.457
374.0536, 1274.015
374.5357, 1260.630
375.0179, 1247.741
375.5000, 1235.083
375.9821, 1222.997
376.4642, 1212.238
376.9463, 1203.486
377.4284, 1194.408
377.9106, 1183.297
378.3927, 1171.518
378.8748, 1161.550
379.3569, 1154.129
379.8390, 1148.050
380.3211, 1141.940
380.8033, 1135.851
381.2854, 1129.401
381.7675, 1122.131
382.2496, 1114.839
382.7317, 1107.982
383.2138, 1101.646
383.6960, 1095.948
384.1781, 1091.011
384.6602, 1086.804
385.1423, 1082.595
385.6244, 1078.222
386.1065, 1074.003
386.5887, 1069.724
387.0708, 1065.737
387.5529, 1062.977
388.0350, 1061.930
388.5171, 1061.377
388.9992, 1058.600
389.4814, 1051.548
389.9635, 1045.297
390.4456, 1039.909
390.9277, 1035.265
391.4098, 1031.625
391.8919, 1028.831
392.3741, 1025.959
392.8562, 1021.894
393.3383, 1016.271
393.8204, 1012.219
394.3025, 1011.214
394.7846, 1010.133
395.2668, 1008.144
395.7489, 1005.270
396.2310, 1001.742
396.7131, 997.6795
397.1952, 993.0781
397.6773, 987.8098
398.1595, 980.9304
398.6416, 974.9531
399.1237, 970.2308
399.6058, 966.3866
400.0879, 963.4407
400.5700, 961.2613
401.0522, 959.0254
401.5343, 955.4288
402.0164, 950.1041
402.4985, 945.7219
402.9806, 943.7045
403.4627, 941.3860
403.9449, 937.4021
404.4270, 932.1613
404.9091, 926.8577
405.3912, 922.2312
405.8733, 918.0634
406.3554, 913.6754
406.8376, 908.8353
407.3197, 904.2674
407.8018, 900.3947
408.2839, 896.8740
408.7660, 893.5274
409.2481, 890.3528
409.7303, 886.9643
410.2124, 882.7809
410.6945, 877.8715
411.1766, 873.1246
411.6587, 868.5535
412.1408, 864.4371
412.6230, 861.1941
413.1051, 858.7067
413.5872, 856.0925
414.0693, 853.2005
414.5514, 849.8721
415.0335, 845.5002
415.5157, 839.9078
415.9978, 834.8596
416.4799, 831.6263
416.9620, 829.8442
417.4441, 828.1851
417.9262, 827.0698
418.4084, 825.4418
418.8905, 822.1652
419.3726, 817.8966
419.8547, 814.2791
420.3368, 811.8314
420.8189, 810.4055
421.3011, 810.1437
421.7832, 811.6276
422.2653, 811.7663
422.7474, 809.6364
423.2295, 806.4352
423.7116, 802.8077
424.1938, 798.9872
424.6759, 795.4608
425.1580, 792.5814
425.6401, 790.3408
426.1222, 788.5123
426.6043, 787.5010
427.0865, 786.3583
427.5686, 784.7970
428.0507, 782.9675
428.5328, 781.0000
429.0149, 778.9500
429.4970, 777.0037
429.9792, 775.5197
430.4613, 774.8400
430.9434, 773.8527
431.4255, 772.5918
431.9076, 771.0566
432.3897, 769.0399
432.8719, 766.7081
433.3540, 764.4923
433.8361, 762.6963
434.3182, 761.3311
434.8003, 760.5281
435.2824, 761.0078
435.7646, 760.9387
436.2467, 759.6737
436.7288, 757.8045
437.2109, 755.7680
437.6930, 753.6901
438.1751, 752.0147
438.6573, 751.7883
439.1394, 753.2150
439.6215, 753.0646
440.1036, 749.7263
440.5857, 745.9717
441.0678, 743.5705
441.5500, 742.3040
442.0321, 741.2122
442.5142, 739.2664
442.9963, 737.3941
443.4784, 737.9478
443.9605, 741.3873
444.4427, 743.6469
444.9248, 742.2833
445.4069, 738.5972
445.8890, 734.8227
446.3711, 730.6904
446.8532, 727.4489
447.3354, 726.2076
447.8175, 726.3177
448.2996, 726.5026
448.7817, 726.5339
449.2638, 726.2587
449.7459, 725.3683
450.2281, 723.8127
450.7102, 722.6854
451.1923, 722.6680
451.6744, 722.5161
452.1565, 721.3972
452.6386, 719.4727
453.1208, 717.3074
453.6029, 715.1629
454.0850, 713.0441
454.5671, 710.9648
455.0492, 708.6111
455.5313, 706.7559
456.0135, 706.2061
456.4956, 705.6233
456.9777, 703.5670
457.4598, 700.1019
457.9419, 696.6790
458.4240, 694.7150
458.9062, 694.2399
459.3883, 693.5698
459.8704, 692.6033
460.3525, 691.5369
460.8346, 690.4047
461.3167, 689.2005
461.7989, 687.9188
462.2810, 686.5509
462.7631, 685.0900
463.2452, 683.5475
463.7273, 681.9457
464.2094, 680.0953
464.6916, 677.6153
465.1737, 675.2094
465.6558, 673.0407
466.1379, 671.2441
466.6200, 670.1953
467.1021, 670.5771
467.5843, 671.6251
468.0664, 671.8479
468.5485, 671.1990
469.0306, 670.0213
469.5127, 668.0607
469.9948, 665.8953
470.4770, 664.5381
470.9591, 664.2783
471.4412, 663.8782
471.9233, 662.1459
472.4054, 659.9983
472.8875, 659.4200
473.3697, 660.8484
473.8518, 662.5286
474.3339, 662.9898
474.8160, 662.1693
475.2981, 660.8161
475.7802, 658.2286
476.2624, 655.8619
476.7445, 654.4612
477.2266, 653.7147
477.7087, 652.9918
478.1908, 652.0301
478.6729, 651.0839
479.1551, 650.6764
479.6372, 651.3562
480.1193, 651.2366
480.6014, 649.6837
481.0835, 648.0071
481.5656, 647.0322
482.0478, 646.5815
482.5299, 646.0248
483.0120, 644.9769
483.4941, 643.4634
483.9762, 641.4676
484.4583, 638.3108
484.9405, 636.1063
485.4226, 636.2910
485.9047, 636.8117
486.3868, 635.7708
486.8689, 633.0646
487.3510, 630.5552
487.8332, 630.5430
488.3153, 632.2644
488.7974, 631.6328
489.2795, 627.6012
489.7616, 623.4368
490.2437, 620.9456
490.7259, 619.6525
491.2080, 619.0715
491.6901, 619.5502
492.1722, 619.8899
492.6543, 619.2325
493.1364, 617.7476
493.6186, 615.7106
494.1007, 612.9948
494.5828, 610.5394
495.0649, 609.6329
495.5470, 610.4757
496.0291, 610.5614
496.5113, 609.4421
496.9934, 607.8894
497.4755, 605.9490
497.9576, 603.9446
498.4397, 602.7305
498.9218, 602.7781
499.4040, 603.3189
499.8861, 602.5826
500.3682, 599.4822
500.8503, 597.0933
501.3324, 595.8539
501.8145, 594.8530
502.2967, 593.3235
502.7788, 591.4808
503.2609, 590.2498
503.7430, 590.4691
504.2251, 591.5543
504.7072, 591.0943
505.1894, 588.2865
505.6715, 585.7587
506.1536, 584.1053
506.6357, 583.0331
507.1178, 582.4998
507.5999, 582.4610
508.0821, 582.5065
508.5642, 582.3043
509.0463, 581.9563
509.5284, 581.7741
510.0105, 581.8053
510.4926, 581.8899
510.9748, 582.0355
511.4569, 582.1334
511.9390, 581.9705
512.4211, 581.6066
512.9032, 580.8443
513.3853, 579.1182
513.8674, 577.0507
514.3495, 575.7612
514.8317, 575.4872
515.3138, 575.7894
515.7959, 576.4094
516.2780, 577.4366
516.7601, 577.1889
517.2422, 574.4529
517.7244, 572.0134
518.2065, 571.0060
518.6886, 570.8139
519.1707, 570.4357
519.6528, 569.5328
520.1349, 568.6189
520.6171, 568.6185
521.0992, 569.9241
521.5813, 570.5585
522.0634, 570.2391
522.5455, 569.4809
523.0276, 568.5231
523.5098, 567.2452
523.9919, 565.2582
524.4740, 562.1472
524.9561, 558.9324
525.4382, 557.1053
525.9203, 556.6943
526.4025, 556.7673
526.8846, 557.5999
527.3667, 558.1942
527.8488, 557.3545
528.3309, 555.3098
528.8130, 553.4902
529.2952, 551.3888
529.7773, 550.3884
530.2594, 553.1898
530.7415, 558.6860
531.2236, 561.8119
531.7057, 560.1561
532.1879, 555.4370
532.6700, 550.7434
533.1521, 545.4171
533.6342, 541.7363
534.1163, 541.1194
534.5984, 541.0064
535.0806, 539.8187
535.5627, 537.6609
536.0448, 535.2819
536.5269, 533.1262
537.0090, 531.1789
537.4911, 529.3599
537.9733, 527.3180
538.4554, 526.1760
538.9375, 527.1608
539.4196, 528.1359
539.9017, 527.7594
540.3839, 526.1026
540.8660, 524.0552
541.3481, 522.1581
541.8302, 520.2732
542.3123, 517.7856
542.7944, 514.5170
543.2766, 512.3669
543.7587, 512.9152
544.2408, 514.2990
544.7229, 513.6663
545.2050, 510.7848
545.6871, 508.1415
546.1693, 506.6888
546.6514, 505.8403
547.1335, 505.2389
547.6156, 504.7231
548.0977, 503.5773
548.5798, 501.2144
549.0620, 498.1427
549.5441, 496.0998
550.0262, 496.6572
550.5083, 496.1430
550.9904, 493.4633
551.4725, 490.5159
551.9547, 488.7487
552.4368, 488.1260
552.9189, 487.8014
553.4010, 487.2217
553.8831, 486.3753
554.3652, 485.1048
554.8474, 483.0406
555.3295, 481.5101
555.8116, 481.4961
556.2937, 481.7024
556.7758, 481.0002
557.2579, 479.4204
557.7401, 478.2168
558.2222, 478.6967
558.7043, 479.8018
559.1864, 479.5889
559.6685, 478.0026
560.1506, 476.1297
560.6328, 474.3099
561.1149, 472.7093
561.5970, 471.7554
562.0791, 471.5941
562.5612, 471.4518
563.0433, 471.5433
563.5255, 471.3321
564.0076, 469.9762
564.4897, 467.7857
564.9718, 466.1506
565.4539, 466.0550
565.9360, 466.8473
566.4182, 466.2373
566.9003, 463.0123
567.3824, 460.6731
567.8645, 460.1314
568.3466, 459.8739
568.8287, 458.9673
569.3109, 457.4648
569.7930, 455.9428
570.2751, 454.7736
570.7572, 453.7819
571.2393, 452.4968
571.7214, 450.8651
572.2036, 449.6541
572.6857, 449.3248
573.1678, 449.3009
573.6499, 449.0279
574.1320, 448.5157
574.6141, 447.5070
575.0963, 445.4264
575.5784, 443.2223
576.0605, 441.8291
576.5426, 441.0518
577.0247, 440.0601
577.5068, 438.4508
577.9890, 436.6490
578.4711, 435.4981
578.9532, 435.4718
579.4353, 434.8890
579.9174, 433.6696
580.3995, 432.0551
580.8817, 429.9239
581.3638, 427.5298
581.8459, 425.2967
582.3280, 423.4217
582.8101, 421.7863
583.2922, 420.2528
583.7744, 418.8430
584.2565, 417.1801
584.7386, 414.7685
585.2207, 412.7155
585.7029, 412.4846
586.1850, 413.1987
586.6671, 412.4725
587.1492, 408.5374
587.6313, 404.6104
588.1135, 403.3608
588.5956, 403.8631
589.0777, 404.0501
589.5598, 403.4073
590.0419, 402.2191
590.5240, 400.6672
591.0062, 398.7175
591.4883, 397.3531
591.9704, 396.9570
592.4525, 396.6069
592.9346, 396.3593
593.4167, 395.8975
593.8989, 394.8172
594.3810, 393.0689
594.8631, 390.9933
595.3452, 388.7642
595.8273, 386.4510
596.3094, 384.9326
596.7916, 384.7064
597.2737, 384.1309
597.7558, 381.8907
598.2379, 379.2369
598.7200, 377.5771
599.2021, 377.1513
599.6843, 376.7948
600.1664, 375.5817
600.6485, 374.2405
601.1306, 374.1453
601.6127, 375.2105
602.0948, 375.7957
602.5770, 374.9413
603.0591, 372.9870
603.5412, 370.8334
604.0233, 367.8146
604.5054, 365.7391
604.9875, 365.3997
605.4697, 365.2836
605.9518, 364.4795
606.4339, 363.0758
606.9160, 361.5355
607.3981, 360.0980
607.8802, 358.7621
608.3624, 357.4605
608.8445, 356.1471
609.3266, 355.3006
609.8087, 355.2158
610.2908, 355.3443
610.7729, 355.5419
611.2551, 355.6433
611.7372, 355.1051
612.2193, 353.4945
612.7014, 351.5734
613.1835, 349.1341
613.6656, 346.8939
614.1478, 346.9791
614.6299, 349.8872
615.1120, 353.0000
615.5941, 353.6942
616.0762, 351.9567
616.5583, 349.7480
617.0405, 345.2593
617.5226, 342.5593
618.0047, 344.0870
618.4868, 346.6141
618.9689, 346.7956
619.4510, 344.3017
619.9332, 341.3391
620.4153, 339.3175
620.8974, 338.4012
621.3795, 339.7319
621.8616, 343.8904
622.3438, 347.2121
622.8259, 348.1998
623.3080, 347.7865
623.7901, 347.3031
624.2722, 346.7869
624.7543, 345.6459
625.2365, 343.2166
625.7186, 340.5190
626.2007, 338.1865
626.6828, 336.3001
627.1649, 335.0077
627.6470, 334.3681
628.1292, 334.1776
628.6113, 334.1483
629.0934, 334.3573
629.5755, 334.3885
630.0576, 333.9277
630.5397, 333.6173
631.0219, 333.9466
631.5040, 334.4199
631.9861, 334.2885
632.4682, 333.3220
632.9503, 332.1597
633.4324, 331.2465
633.9146, 330.6075
634.3967, 330.4508
634.8788, 330.8535
635.3609, 331.1410
635.8430, 330.7394
636.3251, 330.0499
636.8073, 330.3746
637.2894, 332.4660
637.7715, 333.6426
638.2536, 332.7906
638.7357, 331.4642
639.2178, 330.7384
639.7000, 330.6041
640.1821, 330.7399
640.6642, 331.0040
641.1463, 331.1287
641.6284, 330.4654
642.1105, 328.8313
642.5927, 327.3473
643.0748, 325.7192
643.5569, 324.7913
644.0390, 325.5590
644.5211, 327.2005
645.0032, 328.0000
645.4854, 327.2996
645.9675, 326.3285
646.4496, 325.9006
646.9317, 325.7705
647.4138, 325.5287
647.8959, 325.1068
648.3781, 324.4831
648.8602, 323.5868
649.3423, 322.5313
649.8244, 321.8864
650.3065, 321.9675
650.7886, 322.0019
651.2708, 322.1510
651.7529, 322.0855
652.2350, 321.4376
652.7171, 320.3780
653.1992, 319.4156
653.6813, 318.8301
654.1635, 318.4273
654.6456, 317.9689
655.1277, 317.4454
655.6098, 316.7015
656.0919, 315.6209
656.5740, 314.5667
657.0562, 313.9202
657.5383, 313.6064
658.0204, 313.0528
658.5025, 312.1794
658.9846, 311.1669
659.4667, 309.9026
659.9489, 308.6324
660.4310, 307.5550
660.9131, 306.7335
661.3952, 306.3193
661.8773, 306.5592
662.3594, 307.0066
662.8416, 306.0462
663.3237, 303.2489
663.8058, 300.5814
664.2879, 298.0532
664.7700, 296.1168
665.2521, 295.3367
665.7343, 295.4028
666.2164, 295.2725
666.6985, 294.7364
667.1806, 293.8109
667.6627, 292.1892
668.1448, 290.2679
668.6270, 288.9001
669.1091, 288.2274
669.5912, 287.5262
670.0733, 286.0269
670.5554, 284.0084
671.0375, 283.6252
671.5197, 287.4348
672.0018, 288.6073
672.4839, 284.5286
672.9660, 279.4526
673.4481, 276.1223
673.9302, 274.4304
674.4124, 272.9763
674.8945, 271.0377
675.3766, 269.0949
675.8587, 267.7568
676.3408, 266.9486
676.8229, 266.3591
677.3051, 265.9353
677.7872, 265.6390
678.2693, 265.5402
678.7514, 265.5784
679.2335, 265.0284
679.7156, 263.3619
680.1978, 261.8772
680.6799, 260.6767
681.1620, 259.7836
681.6441, 259.0551
682.1262, 258.6239
682.6083, 259.1758
683.0905, 261.6008
683.5726, 264.1683
684.0547, 263.1399
684.5368, 258.5269
685.0189, 254.1847
685.5010, 250.5740
685.9832, 248.0286
686.4653, 247.3018
686.9474, 248.0142
687.4295, 248.1307
687.9116, 247.4743
688.3937, 246.3932
688.8759, 244.5954
689.3580, 242.6817
689.8401, 241.1843
690.3222, 240.1819
690.8043, 239.6912
691.2864, 239.8128
691.7686, 240.1012
692.2507, 239.3246
692.7328, 237.2523
693.2149, 235.5766
693.6970, 234.5130
694.1791, 233.9104
694.6613, 234.0811
695.1434, 234.5848
695.6255, 234.3304
696.1076, 232.6130
696.5897, 231.2328
697.0718, 231.2359
697.5540, 231.8862
698.0361, 232.5359
698.5182, 232.9893
699.0003, 232.9385
699.4824, 232.1716
699.9645, 230.9183
700.4467, 229.6373
700.9288, 228.1508
701.4109, 227.3501
701.8930, 227.8572
702.3751, 228.3645
702.8572, 228.2010
703.3394, 227.6228
703.8215, 227.0477
704.3036, 226.5603
704.7857, 226.0939
705.2678, 225.6491
705.7499, 225.1866
706.2321, 224.5703
706.7142, 223.8560
707.1963, 223.3830
707.6784, 223.3485
708.1605, 223.5054
708.6426, 223.3880
709.1248, 223.0164
709.6069, 222.2906
710.0890, 220.7587
710.5711, 219.3984
711.0532, 218.7006
711.5353, 218.2888
712.0175, 217.6214
712.4996, 216.5735
712.9817, 215.6442
713.4638, 215.2765
713.9459, 215.1252
714.4280, 214.7606
714.9102, 214.1694
715.3923, 213.4084
715.8744, 212.5044
716.3565, 211.4267
716.8386, 210.0428
717.3207, 208.2286
717.8029, 207.0623
718.2850, 207.4465
718.7671, 207.3669
719.2492, 206.0411
719.7313, 204.2592
720.2134, 202.1269
720.6956, 199.9747
721.1777, 199.8042
721.6598, 205.2578
722.1419, 211.6586
722.6240, 212.5642
723.1061, 209.0061
723.5883, 204.6527
724.0704, 200.4702
724.5525, 197.4298
725.0346, 196.7071
725.5167, 198.2363
725.9988, 199.4247
726.4810, 200.6545
726.9631, 200.9478
727.4452, 199.6686
727.9273, 197.8828
728.4094, 196.1893
728.8915, 194.7051
729.3737, 193.5168
729.8558, 192.6370
730.3379, 192.1019
730.8200, 192.3319
731.3021, 192.9096
731.7842, 192.4621
732.2664, 190.7736
732.7485, 189.1449
733.2306, 188.5838
733.7127, 188.8309
734.1948, 188.8404
734.6769, 188.1988
735.1591, 188.0857
735.6412, 189.4023
736.1233, 190.3418
736.6054, 189.6598
737.0875, 188.0196
737.5696, 186.6870
738.0518, 186.0573
738.5339, 185.7664
739.0160, 185.5889
739.4981, 185.5222
739.9802, 185.3529
740.4623, 185.1704
740.9445, 186.1082
741.4266, 189.0131
741.9087, 191.9895
742.3908, 191.3308
742.8729, 185.7498
743.3550, 182.0847
743.8372, 181.5401
744.3193, 181.5440
744.8014, 181.6644
745.2835, 181.8351
745.7656, 182.1591
746.2477, 182.6030
746.7299, 182.5850
747.2120, 181.3394
747.6941, 179.8014
748.1762, 179.2258
748.6583, 179.2875
749.1404, 178.8055
749.6226, 177.4569
750.1047, 176.1778
750.5868, 175.9821
751.0689, 176.7524
751.5510, 177.1788
752.0331, 177.0357
752.5153, 176.9795
752.9974, 177.4845
753.4795, 177.7815
753.9616, 177.1196
754.4437, 175.8220
754.9258, 174.9631
755.4080, 175.0462
755.8901, 175.2842
756.3722, 175.0895
756.8543, 174.7361
757.3364, 174.6442
757.8185, 174.8328
758.3007, 175.1528
758.7828, 175.5488
759.2649, 175.8040
759.7470, 175.3141
760.2291, 173.7897
760.7112, 172.9367
761.1934, 173.1693
761.6755, 173.4880
762.1576, 173.4125
762.6397, 173.1626
763.1218, 173.0032
763.6039, 172.9630
764.0861, 172.9456
764.5682, 173.0304
765.0503, 173.0231
765.5324, 172.5569
766.0145, 171.9388
766.4966, 171.8757
766.9788, 172.5114
767.4609, 173.2256
767.9430, 173.4816
768.4251, 173.2411
768.9072, 172.0302
769.3893, 169.4882
769.8715, 167.9436
770.3536, 168.4042
770.8357, 169.4068
771.3178, 169.4497
771.7999, 168.8020
772.2820, 168.8845
772.7642, 170.7476
773.2463, 172.0346
773.7284, 171.9101
774.2105, 171.1013
774.6926, 170.0521
775.1747, 168.9111
775.6569, 167.7468
776.1390, 166.5601
776.6211, 165.6745
777.1032, 165.7004
777.5853, 166.4679
778.0674, 167.0309
778.5496, 167.3230
779.0317, 167.3818
779.5138, 167.1059
779.9959, 166.7942
780.4780, 167.0440
780.9601, 168.1211
781.4423, 168.6694
781.9244, 168.4627
782.4065, 168.0313
782.8886, 167.3157
783.3707, 166.6003
783.8528, 166.2419
784.3350, 166.2309
784.8171, 166.1735
785.2992, 165.8333
785.7813, 165.3170
786.2634, 164.4761
786.7455, 163.5686
787.2277, 163.6345
787.7098, 164.8604
788.1919, 166.1560
788.6740, 166.6991
789.1561, 166.5882
789.6382, 166.1099
790.1204, 164.9444
790.6025, 164.1950
791.0846, 164.3386
791.5667, 164.4460
792.0488, 163.8449
792.5309, 163.0475
793.0131, 162.9907
793.4952, 163.9592
793.9773, 164.6702
794.4594, 164.1222
794.9415, 163.3922
795.4236, 163.7407
795.9058, 164.6902
796.3879, 164.9375
796.8700, 164.1284
797.3521, 163.1192
797.8342, 162.8292
798.3163, 163.0857
798.7985, 162.8734
799.2806, 162.0193
799.7627, 161.7637
800.2448, 162.7410
800.7269, 163.8085
801.2090, 164.0699
801.6912, 163.5669
802.1733, 162.6589
802.6554, 160.4186
803.1375, 159.2497
803.6196, 160.5932
804.1017, 162.2562
804.5839, 162.5882
805.0660, 161.9897
805.5481, 161.6225
806.0302, 161.9193
806.5123, 162.2046
806.9944, 161.6483
807.4766, 160.6198
807.9587, 160.0458
808.4408, 159.9177
808.9229, 159.6751
809.4050, 159.0687
809.8871, 158.6034
810.3693, 158.9894
810.8514, 160.2122
811.3335, 160.7273
811.8156, 160.0972
812.2977, 159.4876
812.7798, 159.0205
813.2620, 158.6693
813.7441, 158.3571
814.2262, 158.1490
814.7083, 158.2549
815.1904, 158.8511
815.6725, 159.4614
816.1547, 160.0096
816.6368, 160.3010
817.1189, 159.9723
817.6010, 159.1768
818.0831, 158.3160
818.5652, 157.5731
819.0474, 157.1967
819.5295, 157.7496
820.0116, 159.0618
820.4937, 159.4803
820.9758, 158.8620
821.4579, 158.1741
821.9401, 157.6306
822.4222, 157.2866
822.9043, 157.2228
823.3864, 157.4353
823.8685, 157.7316
824.3506, 158.4913
824.8328, 158.8017
825.3149, 158.2215
825.7970, 157.4187
826.2791, 156.6297
826.7612, 156.0534
827.2433, 156.1278
827.7255, 157.1082
828.2076, 157.9931
828.6897, 157.8061
829.1718, 157.0387
829.6539, 156.4106
830.1360, 155.9657
830.6182, 155.6113
831.1003, 155.3126
831.5824, 155.3012
832.0645, 155.9919
832.5466, 157.2634
833.0287, 157.4415
833.5109, 156.0624
833.9930, 154.9563
834.4751, 154.3697
834.9572, 154.3186
835.4393, 155.2757
835.9214, 156.7872
836.4036, 157.4894
836.8857, 156.9830
837.3678, 156.2652
837.8499, 155.2882
838.3320, 154.4530
838.8141, 154.0334
839.2963, 153.9832
839.7784, 154.3471
840.2605, 155.0878
840.7426, 155.5432
841.2247, 154.8060
841.7068, 153.5270
842.1890, 153.0170
842.6711, 153.1640
843.1532, 153.3869
843.6353, 153.5388
844.1174, 153.6145
844.5995, 153.6306
845.0817, 153.5423
845.5638, 153.0726
846.0459, 151.8767
846.5280, 151.2960
847.0101, 152.0423
847.4922, 152.6146
847.9744, 151.9646
848.4565, 150.7790
848.9386, 150.0388
849.4207, 149.8216
849.9028, 150.0386
850.3849, 151.2439
850.8671, 152.2596
851.3492, 152.0713
851.8313, 151.4328
852.3134, 151.4993
852.7955, 152.3344
853.2776, 153.0338
853.7598, 152.9581
854.2419, 152.5023
854.7240, 152.1932
855.2061, 152.0202
855.6882, 152.0326
856.1703, 152.2259
856.6525, 152.1611
857.1346, 151.5295
857.6167, 150.7422
858.0988, 150.6731
858.5809, 151.5315
859.0630, 151.6666
859.5452, 150.5765
860.0273, 149.6555
860.5094, 149.3445
860.9915, 149.3663
861.4736, 149.6169
861.9557, 150.0273
862.4379, 150.2142
862.9200, 149.9905
863.4021, 149.7060
863.8842, 149.4636
864.3663, 149.2289
864.8484, 148.8839
865.3306, 148.5352
865.8127, 148.5043
866.2948, 148.9096
866.7769, 149.2434
867.2590, 148.7967
867.7411, 148.0045
868.2233, 147.4895
868.7054, 147.4046
869.1875, 149.0341
869.6696, 152.7822
870.1517, 155.6853
870.6339, 154.7044
871.1160, 150.8340
871.5981, 148.6430
872.0802, 148.6676
872.5623, 148.3593
873.0444, 147.0491
873.5266, 146.1151
874.0087, 146.9149
874.4908, 148.3223
874.9729, 148.0546
875.4550, 145.6692
875.9371, 144.1546
876.4193, 144.5026
876.9014, 145.0871
877.3835, 145.5205
877.8656, 145.6543
878.3477, 145.0945
878.8298, 144.0650
879.3120, 143.5018
879.7941, 143.9843
880.2762, 144.7850
880.7583, 145.2869
881.2404, 145.5845
881.7225, 145.8993
882.2047, 146.1918
882.6868, 146.1518
883.1689, 145.6463
883.6510, 144.9817
884.1331, 144.4926
884.6152, 144.1924
885.0974, 144.2801
885.5795, 144.8378
886.0616, 145.2104
886.5437, 145.2918
887.0258, 145.0066
887.5079, 144.0751
887.9901, 142.7799
888.4722, 142.2646
888.9543, 143.0940
889.4364, 143.6333
889.9185, 143.7587
890.4006, 143.7441
890.8828, 143.6256
891.3649, 143.4694
891.8470, 143.3961
892.3291, 143.3990
892.8112, 143.2282
893.2933, 142.5332
893.7755, 141.9196
894.2576, 141.7297
894.7397, 141.8601
895.2218, 142.4656
895.7039, 143.2804
896.1860, 143.3961
896.6682, 142.3441
897.1503, 141.1792
897.6324, 141.1188
898.1145, 141.9788
898.5966, 143.7047
899.0787, 146.0790
899.5609, 146.9686
900.0430, 145.6196
900.5251, 143.8549
901.0072, 143.4947
901.4893, 144.1503
901.9714, 143.8562
902.4536, 142.2152
902.9357, 141.1073
903.4178, 140.9511
903.8999, 140.8712
904.3820, 140.1721
904.8641, 139.4051
905.3463, 139.8062
905.8284, 141.6602
906.3105, 142.3059
906.7926, 140.1944
907.2747, 138.6004
907.7568, 138.8958
908.2390, 139.8181
908.7211, 140.3810
909.2032, 140.5467
909.6853, 140.6124
910.1674, 140.6804
910.6495, 140.6680
911.1317, 140.5251
911.6138, 140.2684
912.0959, 139.7019
912.5780, 139.0811
913.0601, 139.1314
913.5422, 139.9530
914.0244, 140.6957
914.5065, 140.6412
914.9886, 140.0051
915.4707, 138.9756
915.9528, 137.7005
916.4349, 137.1407
916.9171, 137.4310
917.3992, 138.2924
917.8813, 139.6963
918.3634, 141.1145
918.8455, 141.6053
919.3276, 141.1020
919.8098, 140.9251
920.2919, 141.4277
920.7740, 141.3122
921.2561, 139.8201
921.7382, 138.2003
922.2203, 137.5301
922.7025, 137.5811
923.1846, 137.3775
923.6667, 136.4762
924.1488, 136.2905
924.6309, 137.8432
925.1130, 139.1225
925.5952, 138.9304
926.0773, 138.1269
926.5594, 137.7945
927.0415, 138.0113
927.5236, 138.1366
928.0057, 137.9942
928.4879, 137.5469
928.9700, 136.2787
929.4521, 135.0366
929.9342, 134.9076
930.4163, 135.6992
930.8984, 136.7689
931.3806, 137.8391
931.8627, 138.5443
932.3448, 138.2895
932.8269, 137.5484
933.3090, 137.3492
933.7911, 137.5534
934.2733, 137.5356
934.7554, 137.1870
935.2375, 136.9257
935.7196, 137.0634
936.2017, 137.3168
936.6838, 136.9910
937.1660, 136.0363
937.6481, 135.5647
938.1302, 135.6958
938.6123, 135.7948
939.0944, 135.6331
939.5765, 135.4089
940.0587, 135.3339
940.5408, 135.3782
941.0229, 135.3168
941.5050, 134.9458
941.9871, 134.8437
942.4692, 135.4653
942.9514, 135.8564
943.4335, 135.3019
943.9156, 134.4944
944.3977, 134.4005
944.8798, 135.0604
945.3619, 135.5249
945.8441, 135.3113
946.3262, 135.2406
946.8083, 135.9263
947.2904, 136.5929
947.7725, 136.5261
948.2546, 135.9163
948.7368, 135.2691
949.2189, 134.7320
949.7010, 134.3134
950.1831, 134.0261
950.6652, 133.8479
951.1473, 133.7961
951.6295, 133.8195
952.1116, 133.8211
952.5937, 133.7993
953.0758, 133.8683
953.5579, 134.1165
954.0400, 134.2842
954.5222, 133.8985
955.0043, 133.1736
955.4864, 132.7503
955.9685, 132.6177
956.4506, 132.4985
956.9327, 132.3093
957.4149, 132.1181
957.8970, 131.9680
958.3791, 131.8953
958.8612, 132.0329
959.3433, 132.3937
959.8254, 132.5988
960.3076, 132.3709
960.7897, 133.3926
961.2718, 137.1634
961.7539, 140.8404
962.2360, 140.5302
962.7181, 136.4401
963.2003, 133.4022
963.6824, 131.5360
964.1645, 130.4985
964.6466, 130.6792
965.1287, 131.1602
965.6108, 131.5787
966.0930, 131.9435
966.5751, 132.3393
967.0572, 132.8085
967.5393, 132.8413
968.0214, 131.9389
968.5035, 131.1886
968.9857, 130.9702
969.4678, 130.9314
969.9499, 130.6859
970.4320, 130.4242
970.9141, 130.7049
971.3962, 131.7403
971.8784, 132.5449
972.3605, 132.7245
972.8426, 132.4530
973.3247, 131.6501
973.8068, 130.5947
974.2889, 129.2482
974.7711, 127.9601
975.2532, 127.8496
975.7353, 129.5958
976.2174, 131.4815
976.6995, 132.0070
977.1816, 131.6960
977.6638, 130.9982
978.1459, 130.1393
978.6280, 129.5614
979.1101, 129.3564
979.5922, 129.4080
980.0743, 129.6659
980.5565, 129.9904
981.0386, 130.2666
981.5207, 130.4101
982.0028, 129.7579
982.4849, 128.4711
982.9670, 128.4360
983.4492, 130.3005
983.9313, 132.2431
984.4134, 132.5254
984.8955, 131.5652
985.3776, 130.5956
985.8597, 129.6101
986.3419, 128.7287
986.8240, 127.8757
987.3061, 127.7790
987.7882, 128.9897
988.2703, 130.3602
988.7524, 130.4007
989.2346, 129.2882
989.7167, 128.9593
990.1988, 129.8014
990.6809, 130.2182
991.1630, 129.8133
991.6451, 129.4575
992.1273, 129.7762
992.6094, 130.2141
993.0915, 129.7952
993.5736, 128.4370
994.0557, 127.7926
994.5378, 128.6717
995.0200, 129.0783
995.5021, 128.3675
995.9842, 127.6271
996.4663, 127.3523
996.9484, 127.4661
997.4305, 127.9159
997.9127, 128.7350
998.3948, 129.3405
998.8769, 129.5477
999.3590, 129.6504
999.8411, 129.9506
1000.323, 129.9869
1000.805, 129.0115
1001.287, 127.6090
1001.770, 127.0293
1002.252, 127.5711
1002.734, 128.3092
1003.216, 129.1419
1003.698, 129.7301
1004.180, 129.1427
1004.662, 128.7475
1005.144, 131.1341
1005.627, 134.9215
1006.109, 135.7959
1006.591, 132.1402
1007.073, 128.1067
1007.555, 126.3307
1008.037, 125.7561
1008.519, 125.6782
1009.001, 125.9684
1009.483, 126.7154
1009.966, 127.6888
1010.448, 128.1174
1010.930, 127.6108
1011.412, 127.0006
1011.894, 127.3285
1012.376, 127.9413
1012.858, 127.6892
1013.340, 126.9061
1013.823, 126.4781
1014.305, 126.5310
1014.787, 126.7313
1015.269, 126.8960
1015.751, 127.0106
1016.233, 127.0763
1016.715, 127.0695
1017.197, 126.8005
1017.679, 126.3738
1018.162, 126.4591
1018.644, 127.1326
1019.126, 127.3552
1019.608, 126.3714
1020.090, 125.0528
1020.572, 125.0331
1021.054, 126.1024
1021.536, 126.8814
1022.018, 127.3473
1022.501, 126.8416
1022.983, 125.1011
1023.465, 124.6019
1023.947, 127.4750
1024.429, 131.5510
1024.911, 131.8357
1025.393, 128.2185
1025.875, 126.0966
1026.358, 125.6069
1026.840, 125.5882
1027.322, 125.8671
1027.804, 125.9824
1028.286, 125.5665
1028.768, 124.7480
1029.250, 123.7177
1029.732, 122.3262
1030.214, 122.0390
1030.697, 123.2641
1031.179, 124.1789
1031.661, 124.2408
1032.143, 124.0330
1032.625, 124.0200
1033.107, 124.0717
1033.589, 123.7547
1034.071, 122.8414
1034.553, 122.6241
1035.036, 123.4632
1035.518, 124.2195
1036.000, 124.6210
1036.482, 124.8283
1036.964, 124.9478
1037.446, 124.9761
1037.928, 124.8747
1038.410, 124.5332
1038.893, 124.4575
1039.375, 124.8261
1039.857, 125.1796
1040.339, 125.4468
1040.821, 125.6258
1041.303, 125.5408
1041.785, 125.3903
1042.267, 125.8659
1042.750, 127.4408
1043.232, 128.0621
1043.714, 126.9918
1044.196, 125.9332
1044.678, 125.0871
1045.160, 124.5501
1045.642, 124.5162
1046.124, 124.8203
1046.606, 125.1117
1047.089, 125.4243
1047.571, 125.4779
1048.053, 125.0282
1048.535, 124.6050
1049.017, 124.2072
1049.499, 124.0196
1049.981, 124.5584
1050.463, 125.3135
1050.945, 125.0456
1051.428, 123.4141
1051.910, 122.1118
1052.392, 121.3298
1052.874, 121.0946
1053.356, 121.8431
1053.838, 122.7389
1054.320, 123.4621
1054.802, 123.7455
1055.285, 122.7606
1055.767, 120.1870
1056.249, 119.0635
1056.731, 121.6773
1057.213, 123.8932
1057.695, 123.9216
1058.177, 123.2462
1058.659, 122.7110
1059.141, 122.4590
1059.624, 122.6751
1060.106, 123.3899
1060.588, 123.8703
1061.070, 123.8339
1061.552, 123.5871
1062.034, 123.0683
1062.516, 122.5601
1062.998, 122.3284
1063.480, 122.2447
1063.963, 122.0377
1064.445, 121.6763
1064.927, 121.4412
1065.409, 121.3587
1065.891, 121.5241
1066.373, 122.3124
1066.855, 123.0334
1067.337, 123.0026
1067.820, 122.6162
1068.302, 122.6041
1068.784, 123.0133
1069.266, 123.1660
1069.748, 122.5517
1070.230, 122.0832
1070.712, 122.4198
1071.194, 122.7907
1071.677, 122.5692
1072.159, 122.0327
1072.641, 121.5903
1073.123, 121.2974
1073.605, 121.0436
1074.087, 120.7270
1074.569, 120.5911
1075.051, 121.0765
1075.533, 121.4381
1076.016, 120.8851
1076.498, 120.0494
1076.980, 119.8201
1077.462, 120.1617
1077.944, 120.4375
1078.426, 120.4300
1078.908, 120.3543
1079.390, 120.1001
1079.873, 120.0471
1080.355, 120.7700
1080.837, 121.6018
1081.319, 121.6162
1081.801, 121.0262
1082.283, 120.7822
1082.765, 121.2276
1083.247, 121.5863
1083.729, 121.4016
1084.212, 121.1544
1084.694, 120.9809
1085.176, 120.9994
1085.658, 121.5820
1086.140, 122.3852
1086.622, 122.5536
1087.104, 121.8602
1087.586, 121.1546
1088.068, 120.8740
1088.551, 120.5654
1089.033, 119.9075
1089.515, 119.2125
1089.997, 118.4928
1090.479, 118.0486
1090.961, 118.6349
1091.443, 120.2971
1091.925, 121.3954
1092.408, 121.0609
1092.890, 120.3971
1093.372, 119.7023
1093.854, 118.9866
1094.336, 118.0988
1094.818, 117.2754
1095.300, 116.8289
1095.782, 116.7927
1096.265, 117.0892
1096.747, 118.1532
1097.229, 118.6544
1097.711, 117.4012
1098.193, 116.3071
1098.675, 116.7467
1099.157, 117.7847
1099.639, 118.4467
1100.121, 118.6365
1100.604, 118.4322
1101.086, 117.6580
1101.568, 117.0947
1102.050, 117.1354
1102.532, 117.1889
1103.014, 116.8371
1103.496, 116.5197
1103.978, 116.7640
1104.460, 117.3512
1104.943, 117.6399
1105.425, 117.4775
1105.907, 117.3986
1106.389, 117.6650
1106.871, 117.7986
1107.353, 117.2917
1107.835, 116.9781
1108.317, 117.8075
1108.800, 119.0565
1109.282, 119.3517
1109.764, 118.5582
1110.246, 118.0660
1110.728, 118.4594
1111.210, 118.4756
1111.692, 117.4136
1112.174, 116.5545
1112.656, 116.8688
1113.139, 117.4846
1113.621, 117.1807
1114.103, 116.0685
1114.585, 115.4936
1115.067, 115.8194
1115.549, 116.0476
1116.031, 116.1483
1116.513, 116.1910
1116.995, 116.1567
1117.478, 116.1168
1117.960, 116.1628
1118.442, 116.2456
1118.924, 116.1854
1119.406, 115.8919
1119.888, 115.8355
1120.370, 116.2428
1120.852, 116.3919
1121.335, 115.9471
1121.817, 115.5394
1122.299, 115.6120
1122.781, 115.9418
1123.263, 116.1263
1123.745, 116.1611
1124.227, 116.3016
1124.709, 116.7243
1125.192, 116.5597
1125.674, 115.4889
1126.156, 114.4440
1126.638, 113.7803
1127.120, 113.5440
1127.602, 113.9011
1128.084, 114.6558
1128.566, 114.6850
1129.048, 115.1778
1129.531, 115.9001
1130.013, 115.7184
1130.495, 116.9124
1130.977, 117.0268
1131.459, 116.4797
1131.941, 115.4824
1132.423, 114.4656
1132.905, 114.5893
1133.387, 115.7343
1133.870, 115.8842
1134.352, 115.0805
1134.834, 114.3633
1135.316, 113.9417
1135.798, 114.1145
1136.280, 115.0861
1136.762, 116.0687
1137.244, 115.9597
1137.727, 115.1510
1138.209, 114.7763
1138.691, 114.7668
1139.173, 114.8689
1139.655, 115.0438
1140.137, 115.3220
1140.619, 115.6907
1141.101, 115.8260
1141.583, 115.3593
1142.066, 114.8684
1142.548, 115.7216
1143.030, 114.8442
1143.512, 116.1743
1143.994, 114.1170
1144.476, 112.8315
1144.958, 112.7104
1145.440, 113.3207
1145.922, 114.4859
1146.405, 115.6832
1146.887, 116.5213
1147.369, 117.0414
1147.851, 117.3802
1148.333, 117.3755
1148.815, 116.5284
1149.297, 115.1737
1149.779, 114.1738
1150.262, 113.7634
1150.744, 113.5184
1151.226, 113.0515
1151.708, 112.9385
1152.190, 113.9065
1152.672, 115.0295
1153.154, 115.6088
1153.636, 115.7798
1154.119, 115.7374
1154.601, 115.5618
1155.083, 115.4054
1155.565, 115.3335
1156.047, 115.1945
1156.529, 115.0889
1157.011, 114.7128
1157.493, 113.4122
1157.975, 112.2681
1158.458, 112.3718
1158.940, 113.2510
1159.422, 113.8965
1159.904, 114.2166
1160.386, 114.3770
1160.868, 114.5960
1161.350, 114.3278
1161.832, 112.7719
1162.314, 111.6966
1162.797, 112.1965
1163.279, 113.1664
1163.761, 113.4739
1164.243, 113.2315
1164.725, 112.9170
1165.207, 112.3565
1165.689, 112.4167
1166.171, 113.4658
1166.654, 113.9939
1167.136, 113.4975
1167.618, 112.8141
1168.100, 112.4143
1168.582, 112.3516
1169.064, 112.7689
1169.546, 113.6071
1170.028, 114.2150
1170.510, 114.5745
1170.993, 115.9206
1171.475, 118.4193
1171.957, 119.4740
1172.439, 118.0752
1172.921, 116.0691
1173.403, 115.0605
1173.885, 114.7727
1174.367, 114.8834
1174.849, 115.2059
1175.332, 115.0377
1175.814, 114.4909
1176.296, 114.0212
1176.778, 113.7355
1177.260, 113.7213
1177.742, 114.0162
1178.224, 114.1802
1178.706, 113.6458
1179.189, 112.9121
1179.671, 112.3693
1180.153, 112.2219
1180.635, 113.2567
1181.117, 114.7854
1181.599, 115.1101
1182.081, 114.1012
1182.563, 113.2964
1183.046, 113.5082
1183.528, 113.7326
1184.010, 113.1919
1184.492, 112.6800
1184.974, 112.9398
1185.456, 113.3379
1185.938, 113.0385
1186.420, 112.3538
1186.902, 112.1864
1187.385, 112.7078
1187.867, 113.1441
1188.349, 113.2246
1188.831, 113.3906
1189.313, 113.8361
1189.795, 114.2498
1190.277, 114.6415
1190.759, 114.7847
1191.241, 114.2126
1191.724, 114.5064
1192.206, 114.4537
1192.688, 114.1286
1193.170, 114.4059
1193.652, 113.5821
1194.134, 112.9711
1194.616, 112.8430
1195.098, 112.9500
1195.581, 113.2053
1196.063, 113.4569
1196.545, 113.4780
1197.027, 113.3363
1197.509, 113.3228
1197.991, 113.4321
1198.473, 113.5781
1198.955, 113.7503
1199.438, 113.8838
1199.920, 113.9622
1200.402, 114.0891
1200.884, 114.3603
1201.366, 114.3934
1201.848, 113.1773
1202.330, 111.7061
1202.812, 112.3651
1203.294, 113.9981
1203.776, 114.0805
1204.259, 112.8983
1204.741, 112.2026
1205.223, 112.4078
1205.705, 112.3898
1206.187, 111.3345
1206.669, 110.3492
1207.151, 110.0864
1207.633, 110.3213
1208.116, 111.4685
1208.598, 112.5571
1209.080, 112.1601
1209.562, 110.8347
1210.044, 110.3285
1210.526, 111.0201
1211.008, 111.4705
1211.490, 111.0068
1211.973, 110.8816
1212.455, 111.6436
1212.937, 112.3983
1213.419, 113.0757
1213.901, 113.2268
1214.383, 112.1371
1214.865, 110.2532
1215.347, 109.0514
1215.829, 108.5255
1216.312, 108.8891
1216.794, 110.4465
1217.276, 111.2604
1217.758, 110.8721
1218.240, 110.5863
1218.722, 111.0815
1219.204, 111.6501
1219.686, 111.4636
1220.168, 110.8499
1220.651, 110.4796
1221.133, 110.4305
1221.615, 111.3211
1222.097, 112.8370
1222.579, 113.6401
1223.061, 113.5473
1223.543, 113.1443
1224.025, 112.7124
1224.508, 112.3582
1224.990, 112.3009
1225.472, 112.2084
1225.954, 111.5662
1226.436, 110.8616
1226.918, 110.6869
1227.400, 110.8428
1227.882, 110.9568
1228.365, 110.9879
1228.847, 111.1121
1229.329, 111.4669
1229.811, 111.5333
1230.293, 110.6907
1230.775, 110.2028
1231.257, 110.7615
1231.739, 111.4989
1232.221, 112.2281
1232.703, 112.5353
1233.186, 111.5577
1233.668, 109.6220
1234.150, 108.9724
1234.632, 109.9812
1235.114, 110.8918
1235.596, 111.7871
1236.078, 112.0616
1236.560, 111.5067
1237.043, 110.7188
1237.525, 109.9754
1238.007, 109.6572
1238.489, 110.4687
1238.971, 111.7472
1239.453, 111.5439
1239.935, 110.2842
1240.417, 109.1609
1240.900, 108.3563
1241.382, 108.1404
1241.864, 108.5245
1242.346, 109.3949
1242.828, 110.7259
1243.310, 111.7750
1243.792, 111.3320
1244.274, 111.1113
1244.756, 113.5075
1245.239, 115.8161
1245.721, 114.8463
1246.203, 112.3315
1246.685, 111.0248
1247.167, 111.0713
1247.649, 111.3930
1248.131, 112.1686
1248.613, 112.0033
1249.095, 109.0262
1249.578, 107.7875
1250.060, 110.5760
1250.542, 112.7976
1251.024, 111.8484
1251.506, 109.6379
1251.988, 108.2846
1252.470, 107.7240
1252.952, 107.8024
1253.435, 108.5376
1253.917, 109.3174
1254.399, 110.1210
1254.881, 110.5359
1255.363, 110.4969
1255.845, 110.1129
1256.327, 109.4520
1256.809, 109.0833
1257.292, 109.6304
1257.774, 110.5558
1258.256, 111.2933
1258.738, 111.8041
1259.220, 111.9991
1259.702, 111.9522
1260.184, 111.7224
1260.666, 111.3846
1261.148, 111.0311
1261.630, 110.6846
1262.113, 110.6285
1262.595, 111.5213
1263.077, 111.8820
1263.559, 110.6569
1264.041, 109.5891
1264.523, 109.7348
1265.005, 110.1906
1265.487, 109.7408
1265.970, 109.3153
1266.452, 111.5471
1266.934, 116.5380
1267.416, 117.2944
1267.898, 113.1124
1268.380, 110.0007
1268.862, 108.5498
1269.344, 107.8958
1269.827, 107.7556
1270.309, 107.9192
1270.791, 108.2484
1271.273, 108.6637
1271.755, 109.2786
1272.237, 109.7372
1272.719, 109.1094
1273.201, 108.0027
1273.683, 107.3867
1274.166, 107.2784
1274.648, 107.6235
1275.130, 108.2614
1275.612, 108.5353
1276.094, 108.0332
1276.576, 107.8940
1277.058, 108.9722
1277.540, 109.9372
1278.022, 110.4869
1278.505, 110.5227
1278.987, 109.4594
1279.469, 108.2564
1279.951, 108.0088
1280.433, 108.5603
1280.915, 109.3959
1281.397, 110.6942
1281.879, 110.7506
1282.362, 109.3710
1282.844, 109.1437
1283.326, 110.5060
1283.808, 111.4706
1284.290, 111.2004
1284.772, 110.5881
1285.254, 110.2896
1285.736, 110.2997
##END=



