##NAMES=Scheelite
##RRUFFID=R150130
##IDEAL CHEMISTRY=CaW^6+^O_4_
##LOCALITY=Tsumeb mine, Tsumeb, Otjikoto Region, Namibia
##OWNER=RRUFF
##SOURCE=Mark N. Feinglos
##DESCRIPTION=Golden brown pseudo-octahedral crystals, associated with yellow disc-like siderite.
##STATUS=The identification of this mineral has been confirmed by single-crystal X-ray diffraction.
##URL=rruff.info/R150130
89.78320, 194.0148
90.26532, 195.2722
90.74744, 195.7531
91.22955, 195.4227
91.71167, 194.6064
92.19379, 193.3516
92.67590, 191.8086
93.15802, 190.1033
93.64014, 188.1282
94.12225, 186.0809
94.60437, 184.5088
95.08649, 183.7949
95.56860, 183.4449
96.05072, 182.4304
96.53284, 180.8974
97.01495, 179.1412
97.49707, 177.2516
97.97919, 175.2180
98.46130, 173.4631
98.94342, 172.1221
99.42554, 171.1623
99.90765, 170.3460
100.3898, 169.6949
100.8719, 169.1174
101.3540, 168.3699
101.8361, 167.2724
102.3182, 166.5985
102.8004, 166.6475
103.2825, 167.4978
103.7646, 168.6103
104.2467, 169.8620
104.7288, 171.4060
105.2109, 173.5729
105.6931, 176.2149
106.1752, 179.6368
106.6573, 184.0354
107.1394, 189.7216
107.6215, 195.7339
108.1036, 201.9678
108.5858, 208.4610
109.0679, 215.4277
109.5500, 222.9237
110.0321, 230.8578
110.5142, 239.1215
110.9963, 248.4627
111.4785, 257.3318
111.9606, 265.5902
112.4427, 273.2594
112.9248, 280.3119
113.4069, 288.1225
113.8890, 294.6971
114.3712, 298.5121
114.8533, 298.8094
115.3354, 296.7668
115.8175, 292.4658
116.2996, 285.7896
116.7817, 278.0935
117.2639, 268.6303
117.7460, 258.6642
118.2281, 249.8023
118.7102, 242.7702
119.1923, 236.8657
119.6744, 231.6151
120.1566, 226.8102
120.6387, 223.2758
121.1208, 221.9664
121.6029, 222.3133
122.0850, 223.2068
122.5671, 224.0989
123.0493, 225.2383
123.5314, 226.9459
124.0135, 229.3996
124.4956, 232.1020
124.9777, 235.0008
125.4598, 237.8835
125.9420, 239.8957
126.4241, 239.9721
126.9062, 238.8498
127.3883, 237.9086
127.8704, 237.5670
128.3525, 237.3479
128.8347, 236.5989
129.3168, 235.3194
129.7989, 233.6322
130.2810, 232.0635
130.7631, 230.3075
131.2452, 226.9991
131.7274, 221.5558
132.2095, 214.4575
132.6916, 206.8850
133.1737, 198.7642
133.6558, 190.2710
134.1379, 181.2505
134.6201, 171.7104
135.1022, 162.0040
135.5843, 151.9474
136.0664, 141.7229
136.5485, 133.1399
137.0306, 126.3014
137.5128, 120.7894
137.9949, 115.9009
138.4770, 111.5683
138.9591, 108.1477
139.4412, 105.8626
139.9233, 104.8032
140.4055, 103.9341
140.8876, 103.3248
141.3697, 102.8280
141.8518, 102.1882
142.3339, 101.3485
142.8160, 100.5011
143.2982, 99.77168
143.7803, 99.33383
144.2624, 98.45310
144.7445, 96.96427
145.2266, 95.08009
145.7087, 93.36279
146.1909, 91.89772
146.6730, 90.45679
147.1551, 88.91191
147.6372, 87.03374
148.1193, 85.47324
148.6014, 84.40565
149.0836, 83.68190
149.5657, 82.73445
150.0478, 81.23394
150.5299, 79.79630
151.0120, 78.68184
151.4941, 78.07541
151.9763, 77.58245
152.4584, 77.26503
152.9405, 77.08110
153.4226, 76.81304
153.9047, 76.33118
154.3868, 75.83372
154.8690, 75.42848
155.3511, 75.34740
155.8332, 75.12471
156.3153, 74.61089
156.7974, 73.84470
157.2795, 73.14267
157.7617, 72.45287
158.2438, 71.91602
158.7259, 71.63387
159.2080, 71.88046
159.6901, 72.14658
160.1722, 72.33656
160.6544, 72.44299
161.1365, 72.38201
161.6186, 71.90788
162.1007, 71.34348
162.5828, 70.97554
163.0649, 71.01897
163.5471, 71.18051
164.0292, 71.34964
164.5113, 71.52147
164.9934, 71.68689
165.4755, 71.92363
165.9576, 72.12964
166.4398, 72.17709
166.9219, 71.75082
167.4040, 71.33665
167.8861, 71.30518
168.3682, 71.68990
168.8503, 72.13342
169.3325, 72.35905
169.8146, 72.49866
170.2967, 72.76101
170.7788, 73.30629
171.2609, 73.98170
171.7430, 74.71856
172.2252, 75.54240
172.7073, 76.19393
173.1894, 76.22551
173.6715, 75.91249
174.1536, 75.86744
174.6357, 76.50974
175.1179, 77.52782
175.6000, 78.61784
176.0821, 79.77519
176.5642, 80.83565
177.0463, 81.56233
177.5284, 82.04128
178.0106, 82.52486
178.4927, 83.09643
178.9748, 83.77488
179.4569, 84.58530
179.9390, 85.54527
180.4211, 86.60902
180.9033, 87.76218
181.3854, 89.00093
181.8675, 90.27007
182.3496, 91.57924
182.8317, 92.89425
183.3138, 94.17956
183.7960, 95.39205
184.2781, 96.64986
184.7602, 98.04943
185.2423, 99.60947
185.7244, 101.3726
186.2065, 103.3538
186.6887, 105.5665
187.1708, 108.1298
187.6529, 111.1048
188.1350, 114.3162
188.6171, 117.2847
189.0992, 120.0497
189.5814, 123.1318
190.0635, 127.0949
190.5456, 131.8322
191.0277, 136.1744
191.5098, 139.9152
191.9919, 143.3718
192.4741, 147.2352
192.9562, 151.5210
193.4383, 155.5567
193.9204, 158.7883
194.4025, 161.2493
194.8846, 163.5223
195.3668, 165.6721
195.8489, 167.6712
196.3310, 169.4366
196.8131, 170.9560
197.2952, 172.3241
197.7773, 173.5300
198.2595, 174.5587
198.7416, 175.7476
199.2237, 177.0200
199.7058, 178.5545
200.1879, 180.7967
200.6700, 183.7733
201.1522, 187.4471
201.6343, 191.8310
202.1164, 196.9407
202.5985, 202.6639
203.0806, 208.9964
203.5627, 215.8742
204.0449, 223.0050
204.5270, 230.3595
205.0091, 238.0600
205.4912, 246.4307
205.9733, 255.7002
206.4554, 264.3405
206.9376, 272.4537
207.4197, 279.7097
207.9018, 285.2554
208.3839, 289.2134
208.8660, 291.1509
209.3481, 290.9444
209.8303, 288.8149
210.3124, 283.4479
210.7945, 273.9762
211.2766, 261.3050
211.7587, 248.6812
212.2408, 236.1239
212.7230, 223.5091
213.2051, 210.3896
213.6872, 196.2752
214.1693, 183.2703
214.6514, 171.6939
215.1335, 161.4078
215.6157, 152.3511
216.0978, 144.5603
216.5799, 137.7836
217.0620, 131.8479
217.5441, 126.8607
218.0262, 122.3745
218.5084, 118.3424
218.9905, 114.7291
219.4726, 111.5904
219.9547, 109.0117
220.4368, 106.6772
220.9189, 104.4016
221.4011, 102.0922
221.8832, 100.0636
222.3653, 98.44041
222.8474, 97.12088
223.3295, 95.52222
223.8116, 93.48428
224.2938, 91.47744
224.7759, 89.78567
225.2580, 88.48689
225.7401, 87.35164
226.2222, 86.38407
226.7043, 85.56585
227.1865, 84.79005
227.6686, 84.10966
228.1507, 83.41422
228.6328, 82.61939
229.1149, 81.59496
229.5970, 80.79607
230.0792, 80.36297
230.5613, 80.17687
231.0434, 79.73631
231.5255, 78.76306
232.0076, 77.95350
232.4897, 77.78590
232.9719, 78.79667
233.4540, 79.21610
233.9361, 78.73331
234.4182, 77.63000
234.9003, 76.87762
235.3824, 76.56052
235.8646, 76.47324
236.3467, 76.55788
236.8288, 76.98653
237.3109, 77.18884
237.7930, 77.04652
238.2751, 76.68298
238.7573, 76.48643
239.2394, 76.55122
239.7215, 76.64361
240.2036, 76.63305
240.6857, 76.36710
241.1678, 76.35462
241.6500, 76.70836
242.1321, 77.28210
242.6142, 77.69936
243.0963, 77.83748
243.5784, 77.99744
244.0605, 78.33939
244.5427, 79.04134
245.0248, 79.44872
245.5069, 79.37215
245.9890, 79.07841
246.4711, 79.18794
246.9532, 79.97200
247.4354, 80.71337
247.9175, 81.07902
248.3996, 80.85487
248.8817, 80.97741
249.3638, 81.58805
249.8459, 82.46680
250.3281, 83.21717
250.8102, 83.82119
251.2923, 84.33207
251.7744, 84.76389
252.2565, 85.09860
252.7386, 85.40040
253.2208, 85.59057
253.7029, 85.80599
254.1850, 86.27061
254.6671, 87.04066
255.1492, 87.95920
255.6313, 89.04057
256.1135, 90.34383
256.5956, 91.34760
257.0777, 91.88042
257.5598, 92.26363
258.0419, 92.93301
258.5240, 93.96786
259.0062, 95.09476
259.4883, 96.29688
259.9704, 97.56965
260.4525, 98.64987
260.9346, 99.45783
261.4167, 100.1569
261.8989, 100.9272
262.3810, 101.7763
262.8631, 102.6634
263.3452, 103.5721
263.8273, 104.5158
264.3094, 105.4870
264.7916, 106.5083
265.2737, 107.5502
265.7558, 108.5920
266.2379, 109.6095
266.7200, 110.7193
267.2021, 112.1026
267.6843, 113.6665
268.1664, 114.4407
268.6485, 114.1185
269.1306, 113.6401
269.6127, 113.9434
270.0948, 115.3136
270.5770, 116.1522
271.0591, 116.0868
271.5412, 115.2895
272.0233, 114.5361
272.5054, 113.8182
272.9875, 113.1958
273.4697, 112.7859
273.9518, 112.6475
274.4339, 112.2758
274.9160, 111.5275
275.3981, 110.5607
275.8802, 109.8856
276.3624, 109.5931
276.8445, 109.2787
277.3266, 108.6068
277.8087, 107.5377
278.2908, 106.7307
278.7729, 106.2816
279.2551, 106.0742
279.7372, 105.8591
280.2193, 105.6250
280.7014, 105.4567
281.1835, 105.3855
281.6656, 105.4120
282.1478, 105.5544
282.6299, 105.8075
283.1120, 106.1883
283.5941, 106.8218
284.0762, 107.7300
284.5583, 108.4890
285.0405, 108.8066
285.5226, 108.7447
286.0047, 108.9005
286.4868, 109.3151
286.9689, 109.8213
287.4510, 110.1115
287.9332, 110.2060
288.4153, 110.5356
288.8974, 111.3395
289.3795, 112.5110
289.8616, 113.6297
290.3438, 114.6829
290.8259, 115.7673
291.3080, 117.0585
291.7901, 118.5015
292.2722, 119.8324
292.7543, 120.8652
293.2365, 121.7613
293.7186, 122.8668
294.2007, 124.1725
294.6828, 125.6639
295.1649, 127.3758
295.6470, 129.2612
296.1292, 131.2348
296.6113, 133.2820
297.0934, 135.3668
297.5755, 137.3812
298.0576, 139.3574
298.5397, 141.5159
299.0219, 144.0831
299.5040, 146.9783
299.9861, 150.0054
300.4682, 153.1523
300.9503, 156.3621
301.4324, 159.5391
301.9146, 162.7077
302.3967, 166.1065
302.8788, 169.9289
303.3609, 174.0380
303.8430, 178.0293
304.3251, 181.6846
304.8073, 185.8343
305.2894, 191.4382
305.7715, 198.1568
306.2536, 205.3276
306.7357, 212.7961
307.2178, 220.3927
307.7000, 227.6500
308.1821, 234.4465
308.6642, 241.7465
309.1463, 250.0682
309.6284, 259.3444
310.1105, 269.6119
310.5927, 280.7439
311.0748, 292.8189
311.5569, 306.1318
312.0390, 320.6887
312.5211, 335.9459
313.0032, 351.7294
313.4854, 368.1842
313.9675, 385.2596
314.4496, 402.9288
314.9317, 421.1758
315.4138, 440.1039
315.8959, 459.6801
316.3781, 480.2236
316.8602, 502.3257
317.3423, 524.9776
317.8244, 547.3358
318.3065, 568.5248
318.7886, 590.3566
319.2708, 613.2740
319.7529, 637.1533
320.2350, 661.7481
320.7171, 685.9347
321.1992, 711.3152
321.6813, 738.5662
322.1635, 767.7044
322.6456, 798.8513
323.1277, 832.3641
323.6098, 867.8339
324.0919, 904.7372
324.5740, 942.8040
325.0562, 981.9826
325.5383, 1022.600
326.0204, 1065.240
326.5025, 1106.932
326.9846, 1148.331
327.4667, 1188.254
327.9489, 1226.003
328.4310, 1265.662
328.9131, 1298.738
329.3952, 1324.680
329.8773, 1343.534
330.3594, 1354.187
330.8416, 1357.805
331.3237, 1352.206
331.8058, 1335.590
332.2879, 1305.252
332.7700, 1268.001
333.2521, 1222.693
333.7343, 1170.396
334.2164, 1115.811
334.6985, 1058.740
335.1806, 1000.613
335.6627, 941.4230
336.1448, 880.1480
336.6270, 822.4150
337.1091, 768.6295
337.5912, 718.9350
338.0733, 672.9787
338.5554, 631.4178
339.0375, 592.8973
339.5197, 556.7666
340.0018, 523.2896
340.4839, 492.9135
340.9660, 466.3694
341.4481, 442.5581
341.9302, 420.9074
342.4124, 401.2632
342.8945, 383.4329
343.3766, 367.4289
343.8587, 353.1313
344.3408, 339.0573
344.8229, 325.1378
345.3051, 312.4301
345.7872, 302.2929
346.2693, 294.4688
346.7514, 286.9232
347.2335, 279.2879
347.7156, 271.7777
348.1978, 264.9516
348.6799, 258.7964
349.1620, 253.1278
349.6441, 247.7530
350.1262, 242.7796
350.6083, 238.5549
351.0905, 235.1680
351.5726, 232.1991
352.0547, 229.0411
352.5368, 225.8586
353.0189, 223.1526
353.5010, 221.4055
353.9832, 220.1628
354.4653, 218.9065
354.9474, 217.5999
355.4295, 216.3464
355.9116, 214.9002
356.3937, 213.6168
356.8759, 213.0500
357.3580, 214.1525
357.8401, 215.4016
358.3222, 215.5173
358.8043, 214.7137
359.2864, 214.2632
359.7686, 214.9956
360.2507, 216.2958
360.7328, 217.6026
361.2149, 218.5736
361.6970, 219.9151
362.1791, 222.1553
362.6613, 224.9780
363.1434, 227.6582
363.6255, 229.9308
364.1076, 232.0324
364.5897, 233.9435
365.0718, 235.3835
365.5540, 237.4772
366.0361, 240.6089
366.5182, 244.4326
367.0003, 248.5339
367.4824, 253.2824
367.9645, 257.8800
368.4467, 262.3795
368.9288, 266.7374
369.4109, 270.2070
369.8930, 271.7763
370.3751, 273.2455
370.8572, 275.8683
371.3394, 280.3874
371.8215, 284.7660
372.3036, 288.8209
372.7857, 292.6356
373.2678, 296.5773
373.7499, 300.7997
374.2321, 304.9346
374.7142, 308.8427
375.1963, 312.6391
375.6784, 315.7701
376.1605, 318.0768
376.6426, 319.8857
377.1248, 321.5416
377.6069, 323.0175
378.0890, 324.5986
378.5711, 326.3756
379.0532, 328.3424
379.5353, 330.4177
380.0175, 332.6817
380.4996, 334.7506
380.9817, 336.1408
381.4638, 336.9300
381.9459, 337.8128
382.4280, 338.9301
382.9102, 340.1982
383.3923, 341.3500
383.8744, 342.4246
384.3565, 343.7473
384.8386, 345.5334
385.3207, 347.7080
385.8029, 349.9780
386.2850, 352.2710
386.7671, 355.0102
387.2492, 358.8145
387.7313, 363.4250
388.2134, 368.1852
388.6956, 372.2764
389.1777, 376.6561
389.6598, 382.2470
390.1419, 389.0233
390.6240, 396.5223
391.1061, 405.0344
391.5883, 413.9640
392.0704, 422.7211
392.5525, 431.0809
393.0346, 439.3194
393.5167, 447.9091
393.9988, 456.6139
394.4810, 464.8689
394.9631, 473.1725
395.4452, 480.4424
395.9273, 486.3248
396.4094, 491.0863
396.8915, 493.4656
397.3737, 493.8217
397.8558, 491.4672
398.3379, 485.5555
398.8200, 473.9975
399.3021, 460.9547
399.7842, 447.0824
400.2664, 432.3869
400.7485, 416.4774
401.2306, 398.3483
401.7127, 380.1751
402.1948, 363.3671
402.6769, 348.2679
403.1591, 333.7982
403.6412, 319.8322
404.1233, 306.5289
404.6054, 293.8859
405.0875, 282.0174
405.5696, 270.8520
406.0518, 260.5273
406.5339, 251.0703
407.0160, 241.4767
407.4981, 231.6889
407.9802, 222.2057
408.4623, 213.6403
408.9445, 205.9576
409.4266, 198.9001
409.9087, 192.4366
410.3908, 186.5320
410.8729, 181.1908
411.3550, 176.3925
411.8372, 172.1204
412.3193, 168.3624
412.8014, 165.0772
413.2835, 162.1696
413.7656, 159.6386
414.2477, 157.3447
414.7299, 154.9712
415.2120, 152.7110
415.6941, 151.0946
416.1762, 150.8582
416.6583, 151.0310
417.1404, 150.6123
417.6226, 149.6096
418.1047, 148.9065
418.5868, 149.1924
419.0689, 149.9312
419.5510, 150.6186
420.0331, 151.0574
420.5153, 151.5036
420.9974, 151.8465
421.4795, 152.2511
421.9616, 153.1274
422.4437, 155.3409
422.9258, 157.4139
423.4080, 158.6233
423.8901, 158.6305
424.3722, 158.8957
424.8543, 159.5462
425.3364, 160.5053
425.8185, 161.7100
426.3007, 163.4056
426.7828, 165.0061
427.2649, 166.3458
427.7470, 167.4885
428.2291, 168.9258
428.7112, 170.7676
429.1934, 172.6922
429.6755, 174.5548
430.1576, 176.3208
430.6397, 178.1040
431.1218, 179.8276
431.6039, 181.6849
432.0861, 184.0048
432.5682, 186.7988
433.0503, 189.9516
433.5324, 193.6272
434.0145, 197.6160
434.4966, 201.0372
434.9788, 203.8694
435.4609, 206.8268
435.9430, 210.8132
436.4251, 215.4492
436.9072, 219.6190
437.3893, 223.0796
437.8715, 226.2173
438.3536, 229.7519
438.8357, 233.3645
439.3178, 236.1642
439.7999, 237.4976
440.2820, 237.9311
440.7642, 237.9623
441.2463, 237.6181
441.7284, 236.6704
442.2105, 234.9728
442.6926, 232.6129
443.1747, 229.6570
443.6569, 225.6322
444.1390, 221.5848
444.6211, 217.9456
445.1032, 214.5432
445.5853, 210.9989
446.0674, 206.8675
446.5496, 202.8848
447.0317, 199.3374
447.5138, 196.3058
447.9959, 193.4557
448.4780, 190.6254
448.9601, 188.0784
449.4423, 186.0296
449.9244, 184.5394
450.4065, 183.4767
450.8886, 182.8680
451.3707, 182.6736
451.8528, 182.7388
452.3350, 183.1138
452.8171, 183.5962
453.2992, 184.1976
453.7813, 184.9230
454.2634, 185.1867
454.7455, 184.9182
455.2277, 184.3670
455.7098, 183.8183
456.1919, 183.2650
456.6740, 182.6488
457.1561, 182.0691
457.6382, 181.3282
458.1204, 180.0994
458.6025, 178.3940
459.0846, 176.3750
459.5667, 173.8286
460.0488, 171.1422
460.5309, 168.9321
461.0131, 167.4397
461.4952, 165.7333
461.9773, 162.9849
462.4594, 159.6756
462.9415, 156.4675
463.4236, 153.7337
463.9058, 151.0829
464.3879, 148.2346
464.8700, 145.2614
465.3521, 142.5337
465.8342, 140.6475
466.3163, 138.6326
466.7985, 135.8891
467.2806, 131.7387
467.7627, 128.0329
468.2448, 124.9112
468.7269, 122.2361
469.2090, 119.8027
469.6912, 117.7160
470.1733, 115.6345
470.6554, 113.4790
471.1375, 111.2582
471.6196, 108.9844
472.1017, 106.5281
472.5839, 104.3749
473.0660, 102.9483
473.5481, 102.2637
474.0302, 101.3603
474.5123, 100.1031
474.9944, 98.78138
475.4766, 97.91344
475.9587, 97.41987
476.4408, 96.76534
476.9229, 95.46440
477.4050, 94.04806
477.8871, 93.43804
478.3693, 93.58482
478.8514, 94.03396
479.3335, 94.84696
479.8156, 95.62193
480.2977, 95.75194
480.7798, 94.90950
481.2620, 94.18569
481.7441, 94.37460
482.2262, 95.04813
482.7083, 95.57528
483.1904, 95.47318
483.6725, 95.45385
484.1547, 95.91623
484.6368, 96.80900
485.1189, 97.39355
485.6010, 97.38643
486.0831, 97.18205
486.5652, 96.96703
487.0474, 96.69225
487.5295, 96.51511
488.0116, 96.49775
488.4937, 96.53383
488.9758, 96.50733
489.4579, 96.47499
489.9401, 96.17658
490.4222, 95.42336
490.9043, 94.37173
491.3864, 93.77665
491.8685, 93.69341
492.3506, 93.67478
492.8328, 93.44776
493.3149, 93.03391
493.7970, 92.50724
494.2791, 91.86235
494.7612, 91.15486
495.2433, 90.32254
495.7255, 89.46571
496.2076, 88.84242
496.6897, 88.75114
497.1718, 88.73450
497.6539, 88.31044
498.1360, 87.57317
498.6182, 86.87442
499.1003, 86.48599
499.5824, 86.14542
500.0645, 85.63331
500.5466, 84.84035
501.0287, 84.22733
501.5109, 84.09097
501.9930, 84.12306
502.4751, 84.01801
502.9572, 83.61816
503.4393, 83.21923
503.9214, 82.85207
504.4036, 82.51188
504.8857, 82.17414
505.3678, 81.84597
505.8499, 81.49778
506.3320, 81.06226
506.8141, 80.51411
507.2963, 80.35056
507.7784, 80.72056
508.2605, 81.07345
508.7426, 80.65922
509.2247, 79.55185
509.7068, 78.93874
510.1890, 79.16923
510.6711, 79.74460
511.1532, 79.77577
511.6353, 79.37727
512.1174, 79.10058
512.5995, 79.49023
513.0817, 80.01786
513.5638, 79.97702
514.0459, 79.37601
514.5280, 78.73721
515.0101, 78.32629
515.4922, 78.06569
515.9744, 77.90354
516.4565, 77.89644
516.9386, 77.84910
517.4207, 77.66654
517.9028, 77.41051
518.3849, 77.18180
518.8671, 76.92166
519.3492, 76.77497
519.8313, 76.84267
520.3134, 77.09953
520.7955, 77.14751
521.2776, 76.78876
521.7598, 76.51188
522.2419, 76.67176
522.7240, 77.41359
523.2061, 77.79628
523.6882, 77.74346
524.1703, 77.46418
524.6525, 77.17207
525.1346, 76.87269
525.6167, 76.67840
526.0988, 76.63551
526.5809, 76.70026
527.0630, 76.92664
527.5452, 77.25112
528.0273, 77.31792
528.5094, 76.53954
528.9915, 75.58875
529.4736, 75.31725
529.9557, 75.80782
530.4379, 76.31007
530.9200, 76.35909
531.4021, 76.20695
531.8842, 76.10273
532.3663, 76.15090
532.8484, 76.18624
533.3306, 76.18777
533.8127, 76.14635
534.2948, 76.04073
534.7769, 75.70418
535.2590, 75.49570
535.7411, 75.54511
536.2233, 75.84223
536.7054, 76.01505
537.1875, 75.98765
537.6696, 75.98312
538.1517, 76.22887
538.6339, 76.76618
539.1160, 76.91801
539.5981, 76.55168
540.0802, 76.06886
540.5623, 75.97698
541.0444, 76.23706
541.5266, 76.64594
542.0087, 77.26040
542.4908, 77.85072
542.9729, 78.01221
543.4550, 77.82878
543.9371, 77.64440
544.4193, 77.53149
544.9014, 77.57911
545.3835, 77.95838
545.8656, 78.70438
546.3477, 79.30814
546.8298, 79.49379
547.3120, 79.49174
547.7941, 79.48721
548.2762, 79.41830
548.7583, 79.47714
549.2404, 79.84554
549.7225, 80.29937
550.2047, 80.40203
550.6868, 79.78823
551.1689, 79.55176
551.6510, 80.10664
552.1331, 81.29383
552.6152, 82.04897
553.0974, 82.32459
553.5795, 82.40995
554.0616, 82.47806
554.5437, 82.51868
555.0258, 82.44788
555.5079, 82.25049
555.9901, 82.02319
556.4722, 81.74948
556.9543, 81.53031
557.4364, 81.59842
557.9185, 82.14438
558.4006, 82.79725
558.8828, 83.40229
559.3649, 83.88967
559.8470, 84.11410
560.3291, 83.67024
560.8112, 83.25993
561.2933, 83.21955
561.7755, 83.56509
562.2576, 83.92609
562.7397, 84.36943
563.2218, 84.71237
563.7039, 84.85014
564.1860, 84.68313
564.6682, 84.55209
565.1503, 84.40349
565.6324, 84.35847
566.1145, 84.64075
566.5966, 85.30202
567.0787, 85.84633
567.5609, 86.17834
568.0430, 86.32483
568.5251, 86.17892
569.0072, 85.80167
569.4893, 85.68421
569.9714, 86.41569
570.4536, 87.41898
570.9357, 87.80978
571.4178, 87.60275
571.8999, 87.33192
572.3820, 87.28286
572.8641, 87.35719
573.3463, 87.45177
573.8284, 87.49241
574.3105, 87.70580
574.7926, 88.28393
575.2747, 89.02615
575.7568, 89.67691
576.2390, 90.12333
576.7211, 90.61817
577.2032, 91.27812
577.6853, 92.00142
578.1674, 92.37685
578.6495, 92.28355
579.1317, 92.19534
579.6138, 92.29208
580.0959, 92.56345
580.5780, 92.97021
581.0601, 93.53252
581.5422, 94.05184
582.0244, 94.24167
582.5065, 94.27238
582.9886, 94.62156
583.4707, 95.41602
583.9528, 96.20914
584.4349, 96.65852
584.9171, 96.83523
585.3992, 96.83757
585.8813, 96.23171
586.3634, 95.96616
586.8455, 96.83921
587.3276, 98.38693
587.8098, 99.30952
588.2919, 98.49927
588.7740, 97.91142
589.2561, 98.30714
589.7382, 99.71349
590.2203, 100.3931
590.7025, 100.0143
591.1846, 99.49266
591.6667, 99.43356
592.1488, 99.87257
592.6309, 100.2888
593.1130, 100.6739
593.5952, 101.0120
594.0773, 101.2369
594.5594, 101.3901
595.0415, 101.6368
595.5236, 102.0608
596.0057, 102.5209
596.4879, 102.8301
596.9700, 103.0496
597.4521, 103.3193
597.9342, 103.5853
598.4163, 104.0263
598.8984, 104.9536
599.3806, 106.2776
599.8627, 107.1562
600.3448, 106.8196
600.8269, 106.4863
601.3090, 106.7714
601.7911, 107.8781
602.2733, 108.8367
602.7554, 109.6893
603.2375, 110.3340
603.7196, 110.5411
604.2017, 110.2370
604.6838, 110.3014
605.1660, 110.8872
605.6481, 111.7670
606.1302, 112.5671
606.6123, 113.3283
607.0944, 114.2682
607.5765, 115.8214
608.0587, 117.2458
608.5408, 117.2630
609.0229, 116.3157
609.5050, 115.9933
609.9871, 117.6525
610.4692, 119.7614
610.9514, 121.4255
611.4335, 122.5723
611.9156, 123.6781
612.3977, 124.8865
612.8798, 126.0434
613.3619, 127.0064
613.8441, 127.5411
614.3262, 128.5186
614.8083, 130.1225
615.2904, 131.9274
615.7725, 133.2856
616.2546, 134.1531
616.7368, 135.4000
617.2189, 137.3242
617.7010, 139.5160
618.1831, 141.2839
618.6652, 142.6715
619.1473, 143.8531
619.6295, 144.7017
620.1116, 145.5131
620.5937, 146.5679
621.0758, 147.8437
621.5579, 149.2659
622.0400, 150.8335
622.5222, 152.4761
623.0043, 154.1304
623.4864, 155.7661
623.9685, 157.5632
624.4506, 159.8261
624.9327, 162.0168
625.4149, 163.7303
625.8970, 164.6845
626.3791, 165.9925
626.8612, 167.7896
627.3433, 169.7813
627.8254, 171.6038
628.3076, 173.2572
628.7897, 174.7041
629.2718, 175.8146
629.7539, 176.9188
630.2360, 178.5509
630.7181, 180.6135
631.2003, 182.7794
631.6824, 185.2666
632.1645, 187.5006
632.6466, 188.8146
633.1287, 189.3592
633.6108, 190.0592
634.0930, 191.4081
634.5751, 192.8604
635.0572, 194.1295
635.5393, 195.1730
636.0214, 196.2361
636.5035, 197.4017
636.9857, 198.4874
637.4678, 199.3608
637.9499, 200.0191
638.4320, 200.4172
638.9141, 200.4810
639.3962, 200.4722
639.8784, 200.6948
640.3605, 201.1360
640.8426, 201.7637
641.3247, 202.6013
641.8068, 203.5544
642.2889, 204.5965
642.7711, 205.6786
643.2532, 206.7154
643.7353, 207.6980
644.2174, 208.5852
644.6995, 209.4034
645.1816, 210.1264
645.6638, 210.6145
646.1459, 210.3435
646.6280, 210.3527
647.1101, 211.0544
647.5922, 212.4818
648.0743, 213.9231
648.5565, 215.4252
649.0386, 216.7861
649.5207, 217.5957
650.0028, 217.9728
650.4849, 219.1627
650.9670, 221.3467
651.4492, 223.6070
651.9313, 224.8530
652.4134, 225.4783
652.8955, 226.1704
653.3776, 227.0469
653.8597, 228.1864
654.3419, 229.8375
654.8240, 231.7438
655.3061, 233.4852
655.7882, 234.9632
656.2703, 236.2586
656.7524, 237.2973
657.2346, 238.1742
657.7167, 239.1583
658.1988, 240.2805
658.6809, 241.4567
659.1630, 242.7132
659.6451, 244.0042
660.1273, 244.9577
660.6094, 245.5596
661.0915, 246.2958
661.5736, 247.6952
662.0557, 249.4060
662.5378, 250.8415
663.0200, 251.9652
663.5021, 252.6050
663.9842, 252.0152
664.4663, 251.2331
664.9484, 251.3220
665.4305, 252.8031
665.9127, 254.1492
666.3948, 254.7880
666.8769, 255.2321
667.3590, 256.0798
667.8411, 257.9646
668.3232, 258.8334
668.8054, 258.1620
669.2875, 256.8151
669.7696, 256.2887
670.2517, 256.5944
670.7338, 257.1322
671.2159, 257.8572
671.6981, 258.5349
672.1802, 258.6213
672.6623, 258.2678
673.1444, 258.0235
673.6265, 258.2377
674.1086, 258.6183
674.5908, 259.1004
675.0729, 259.6179
675.5550, 259.8188
676.0371, 258.7711
676.5192, 258.1410
677.0013, 258.9368
677.4835, 261.3704
677.9656, 262.8717
678.4477, 263.1154
678.9298, 263.0403
679.4119, 263.1614
679.8940, 263.4803
680.3762, 264.3831
680.8583, 265.9807
681.3404, 267.5841
681.8225, 268.3112
682.3046, 268.5543
682.7867, 269.1728
683.2689, 270.3996
683.7510, 271.8109
684.2331, 273.2098
684.7152, 274.5554
685.1973, 275.7622
685.6794, 276.9474
686.1616, 277.8468
686.6437, 278.1265
687.1258, 278.1702
687.6079, 278.5945
688.0900, 279.2721
688.5721, 280.7146
689.0543, 283.3416
689.5364, 286.5978
690.0185, 288.7841
690.5006, 289.9219
690.9827, 291.0109
691.4648, 292.6078
691.9470, 294.4466
692.4291, 296.1270
692.9112, 297.6888
693.3933, 299.3485
693.8754, 301.6918
694.3575, 303.8286
694.8397, 304.9828
695.3218, 305.0064
695.8039, 305.4706
696.2860, 306.9799
696.7681, 308.6226
697.2502, 310.0515
697.7324, 311.3441
698.2145, 311.9420
698.6966, 311.7208
699.1787, 311.1610
699.6608, 310.8372
700.1429, 310.6174
700.6251, 309.7465
701.1072, 308.0479
701.5893, 306.1277
702.0714, 304.7674
702.5535, 303.5128
703.0356, 301.6323
703.5178, 298.4597
703.9999, 295.4677
704.4820, 293.7823
704.9641, 292.4707
705.4462, 289.9807
705.9283, 285.1194
706.4105, 280.9206
706.8926, 278.0639
707.3747, 275.9017
707.8568, 272.8181
708.3389, 268.7382
708.8210, 264.5958
709.3032, 260.6745
709.7853, 256.9044
710.2674, 253.0748
710.7495, 249.2557
711.2316, 245.8865
711.7137, 243.8776
712.1959, 241.8542
712.6780, 238.5078
713.1601, 234.0374
713.6422, 230.1735
714.1243, 228.1924
714.6064, 226.0884
715.0886, 222.8504
715.5707, 218.3980
716.0528, 214.9180
716.5349, 212.6332
717.0170, 210.6827
717.4991, 208.5605
717.9813, 206.2928
718.4634, 203.8859
718.9455, 201.3427
719.4276, 198.8365
719.9097, 196.4352
720.3918, 194.1909
720.8740, 192.2768
721.3561, 190.7524
721.8382, 189.2144
722.3203, 187.3799
722.8024, 185.4796
723.2845, 183.6969
723.7667, 182.0516
724.2488, 180.4994
724.7309, 179.0846
725.2130, 177.6943
725.6951, 176.0942
726.1772, 174.2494
726.6594, 172.8467
727.1415, 172.0828
727.6236, 171.5994
728.1057, 170.9529
728.5878, 170.1919
729.0699, 169.4449
729.5521, 168.8183
730.0342, 168.1165
730.5163, 167.1889
730.9984, 166.0995
731.4805, 164.9614
731.9626, 163.4045
732.4448, 162.3055
732.9269, 162.0471
733.4090, 162.2831
733.8911, 162.0251
734.3732, 161.1263
734.8553, 160.3483
735.3375, 159.9471
735.8196, 159.8100
736.3017, 159.7626
736.7838, 159.7619
737.2659, 159.5451
737.7480, 158.6985
738.2302, 157.7713
738.7123, 157.3333
739.1944, 157.2948
739.6765, 157.1811
740.1586, 156.6034
740.6407, 156.1169
741.1229, 156.1061
741.6050, 156.5350
742.0871, 156.4455
742.5692, 155.5081
743.0513, 154.8352
743.5334, 155.3099
744.0156, 156.6998
744.4977, 156.8429
744.9798, 155.7431
745.4619, 154.5766
745.9440, 154.4527
746.4261, 154.6960
746.9083, 154.3384
747.3904, 153.2834
747.8725, 152.4753
748.3546, 152.6809
748.8367, 153.0540
749.3188, 152.9911
749.8010, 152.2890
750.2831, 151.7586
750.7652, 151.4485
751.2473, 151.2318
751.7294, 151.0130
752.2115, 150.7939
752.6937, 150.5569
753.1758, 150.2790
753.6579, 150.1364
754.1400, 150.5782
754.6221, 151.1949
755.1042, 151.2139
755.5864, 150.3141
756.0685, 149.5385
756.5506, 149.5809
757.0327, 149.9582
757.5148, 150.1858
757.9969, 149.9879
758.4791, 149.9798
758.9612, 150.2101
759.4433, 150.5741
759.9254, 150.8989
760.4075, 151.1733
760.8896, 151.7184
761.3718, 152.6073
761.8539, 153.6966
762.3360, 154.7503
762.8181, 155.8679
763.3002, 157.3017
763.7823, 159.4136
764.2645, 161.3581
764.7466, 162.4718
765.2287, 163.1788
765.7108, 164.1553
766.1929, 165.7493
766.6750, 167.2330
767.1572, 168.3076
767.6393, 169.4155
768.1214, 171.6327
768.6035, 175.0657
769.0856, 178.0260
769.5677, 180.0361
770.0499, 181.5152
770.5320, 182.8483
771.0141, 184.1681
771.4962, 185.8196
771.9783, 188.3020
772.4604, 190.7881
772.9426, 192.7631
773.4247, 194.4155
773.9068, 196.1636
774.3889, 198.1571
774.8710, 200.1043
775.3531, 201.9072
775.8353, 203.6550
776.3174, 205.5433
776.7995, 207.5468
777.2816, 209.9474
777.7637, 212.9673
778.2458, 216.3115
778.7280, 219.3974
779.2101, 222.3847
779.6922, 225.7111
780.1743, 229.5727
780.6564, 233.8843
781.1385, 238.6015
781.6207, 243.7727
782.1028, 249.4771
782.5849, 255.4083
783.0670, 262.3784
783.5491, 270.8672
784.0313, 280.5010
784.5134, 289.9493
784.9955, 299.2828
785.4776, 308.5573
785.9597, 317.6460
786.4418, 326.9435
786.9240, 336.5296
787.4061, 346.6788
787.8882, 358.3880
788.3703, 372.7726
788.8524, 387.9730
789.3345, 402.9012
789.8167, 417.7433
790.2988, 433.1052
790.7809, 448.9389
791.2630, 465.6748
791.7451, 484.1761
792.2272, 503.5757
792.7094, 521.8113
793.1915, 538.7281
793.6736, 554.1152
794.1557, 568.5630
794.6378, 580.8034
795.1199, 589.9473
795.6021, 595.4611
796.0842, 595.5236
796.5663, 589.5697
797.0484, 577.6794
797.5305, 558.8517
798.0126, 533.7233
798.4948, 505.1055
798.9769, 471.6984
799.4590, 438.1876
799.9411, 406.5525
800.4232, 376.4779
800.9053, 347.9738
801.3875, 321.1742
801.8696, 297.4959
802.3517, 278.0401
802.8338, 261.5820
803.3159, 247.5548
803.7980, 235.6613
804.2802, 224.8455
804.7623, 214.7901
805.2444, 205.7921
805.7265, 197.9829
806.2086, 191.3330
806.6907, 185.6730
807.1729, 181.0920
807.6550, 177.0661
808.1371, 173.4265
808.6192, 170.0824
809.1013, 166.6219
809.5834, 163.1562
810.0656, 160.3149
810.5477, 159.0727
811.0298, 158.0750
811.5119, 156.2372
811.9940, 153.6777
812.4761, 151.5548
812.9583, 150.2630
813.4404, 149.1475
813.9225, 147.9573
814.4046, 146.7806
814.8867, 146.1751
815.3688, 146.1714
815.8510, 146.2172
816.3331, 146.0343
816.8152, 145.7172
817.2973, 145.1800
817.7794, 144.5813
818.2615, 144.5777
818.7437, 146.1700
819.2258, 147.7733
819.7079, 148.4759
820.1900, 148.4351
820.6721, 148.9627
821.1542, 150.2838
821.6364, 151.6831
822.1185, 152.9473
822.6006, 154.1031
823.0827, 155.2041
823.5648, 156.2857
824.0469, 157.7073
824.5291, 159.8240
825.0112, 162.2349
825.4933, 164.5722
825.9754, 166.9042
826.4575, 169.4722
826.9396, 172.4338
827.4218, 175.5589
827.9039, 178.7681
828.3860, 182.0836
828.8681, 185.3998
829.3502, 188.6713
829.8323, 192.4260
830.3145, 197.0271
830.7966, 201.9952
831.2787, 206.2538
831.7608, 210.0956
832.2429, 214.2891
832.7250, 219.3982
833.2072, 224.8159
833.6893, 230.1908
834.1714, 235.6376
834.6535, 241.5104
835.1356, 248.2333
835.6177, 254.6544
836.0999, 260.7504
836.5820, 266.3513
837.0641, 271.1673
837.5462, 275.1988
838.0283, 278.5041
838.5104, 281.3094
838.9926, 283.0099
839.4747, 283.0567
839.9568, 281.5040
840.4389, 278.4261
840.9210, 273.5926
841.4031, 267.5014
841.8853, 259.8940
842.3674, 251.3118
842.8495, 242.3344
843.3316, 232.7967
843.8137, 223.6358
844.2958, 214.9314
844.7780, 206.8323
845.2601, 199.3872
845.7422, 192.7621
846.2243, 187.2945
846.7064, 183.4273
847.1885, 179.8582
847.6707, 175.3578
848.1528, 170.9667
848.6349, 167.9648
849.1170, 167.3447
849.5991, 166.5184
850.0812, 165.3641
850.5634, 164.1292
851.0455, 163.0235
851.5276, 162.0588
852.0097, 161.3032
852.4918, 160.7578
852.9739, 160.4750
853.4561, 160.4142
853.9382, 160.6825
854.4203, 161.4816
854.9024, 163.0394
855.3845, 164.4705
855.8666, 165.5512
856.3488, 166.5144
856.8309, 167.3554
857.3130, 167.9607
857.7951, 169.4271
858.2772, 171.8136
858.7593, 174.5627
859.2415, 177.3802
859.7236, 180.1433
860.2057, 182.5008
860.6878, 184.4236
861.1699, 186.8810
861.6520, 190.4508
862.1342, 194.6326
862.6163, 199.2386
863.0984, 204.2060
863.5805, 209.4387
864.0626, 214.7520
864.5447, 220.8092
865.0269, 227.9251
865.5090, 236.1144
865.9911, 245.0679
866.4732, 254.8153
866.9553, 265.9183
867.4374, 278.3550
867.9196, 292.5241
868.4017, 308.5495
868.8838, 326.3465
869.3659, 345.5992
869.8480, 366.1143
870.3301, 387.8661
870.8123, 410.9547
871.2944, 435.4248
871.7765, 462.0620
872.2586, 490.4406
872.7407, 519.7991
873.2228, 548.9266
873.7050, 579.4028
874.1871, 612.8298
874.6692, 648.7063
875.1513, 686.5358
875.6334, 724.0881
876.1155, 766.0886
876.5977, 814.1810
877.0798, 866.5486
877.5619, 920.3896
878.0440, 975.8028
878.5261, 1031.601
879.0082, 1088.969
879.4904, 1144.607
879.9725, 1197.603
880.4546, 1246.086
880.9367, 1287.579
881.4188, 1324.761
881.9009, 1347.407
882.3831, 1351.770
882.8652, 1338.967
883.3473, 1311.500
883.8294, 1268.597
884.3115, 1212.276
884.7936, 1141.057
885.2758, 1062.226
885.7579, 978.5619
886.2400, 893.8448
886.7221, 816.0667
887.2042, 746.5935
887.6863, 683.8480
888.1685, 626.1973
888.6506, 574.8138
889.1327, 531.2357
889.6148, 495.6333
890.0969, 464.3759
890.5790, 437.2633
891.0612, 414.2787
891.5433, 395.8840
892.0254, 381.4979
892.5075, 369.2214
892.9896, 359.1216
893.4717, 352.0877
893.9539, 349.5622
894.4360, 349.3574
894.9181, 349.9536
895.4002, 351.5052
895.8823, 355.1758
896.3644, 360.3977
896.8466, 368.6634
897.3287, 380.3386
897.8108, 395.4106
898.2929, 414.1302
898.7750, 436.4865
899.2571, 462.7870
899.7393, 493.3933
900.2214, 527.5488
900.7035, 564.3141
901.1856, 604.0469
901.6677, 646.5573
902.1498, 692.1768
902.6320, 741.0947
903.1141, 793.1451
903.5962, 848.9565
904.0783, 907.4993
904.5604, 969.5225
905.0425, 1038.796
905.5247, 1116.047
906.0068, 1199.586
906.4889, 1287.013
906.9710, 1380.270
907.4531, 1481.814
907.9352, 1594.500
908.4174, 1709.945
908.8995, 1828.176
909.3816, 1948.031
909.8637, 2070.273
910.3458, 2196.344
910.8279, 2309.319
911.3101, 2409.395
911.7922, 2486.334
912.2743, 2539.017
912.7564, 2560.332
913.2385, 2541.225
913.7206, 2482.543
914.2028, 2392.942
914.6849, 2258.714
915.1670, 2110.468
915.6491, 1952.475
916.1312, 1788.719
916.6133, 1633.129
917.0955, 1485.124
917.5776, 1348.052
918.0597, 1222.328
918.5418, 1107.023
919.0239, 1001.300
919.5060, 904.7041
919.9882, 817.8636
920.4703, 742.4654
920.9524, 673.7322
921.4345, 611.3250
921.9166, 555.0042
922.3987, 505.1965
922.8809, 461.8405
923.3630, 423.7058
923.8451, 390.5558
924.3272, 361.6417
924.8093, 337.4695
925.2914, 316.7011
925.7736, 298.0818
926.2557, 281.2994
926.7378, 266.5679
927.2199, 255.5770
927.7020, 245.3740
928.1841, 234.2425
928.6663, 222.2360
929.1484, 212.5854
929.6305, 205.2769
930.1126, 198.9480
930.5947, 193.0209
931.0768, 187.2675
931.5590, 181.3909
932.0411, 175.4100
932.5232, 169.7942
933.0053, 164.3584
933.4874, 159.6203
933.9695, 155.8230
934.4517, 152.6758
934.9338, 149.3643
935.4159, 145.9089
935.8980, 142.5805
936.3801, 139.4797
936.8622, 136.6436
937.3444, 134.3527
937.8265, 132.3445
938.3086, 130.1905
938.7907, 127.6785
939.2728, 125.2563
939.7549, 122.9563
940.2371, 120.8341
940.7192, 118.9561
941.2013, 117.3413
941.6834, 115.5033
942.1655, 113.4197
942.6476, 111.3683
943.1298, 109.6246
943.6119, 108.0392
944.0940, 106.4622
944.5761, 104.8671
945.0582, 103.2409
945.5403, 101.5053
946.0225, 99.82705
946.5046, 98.25949
946.9867, 96.79626
947.4688, 95.37610
947.9509, 94.01546
948.4330, 92.70226
948.9152, 91.46702
949.3973, 90.23251
949.8794, 88.73244
950.3615, 87.22365
950.8436, 86.15783
951.3257, 86.15417
951.8079, 85.90195
952.2900, 85.28043
952.7721, 84.46075
953.2542, 83.52800
953.7363, 82.53602
954.2184, 81.96310
954.7006, 81.89114
955.1827, 81.86742
955.6648, 81.54259
956.1469, 81.08459
956.6290, 80.69417
957.1111, 80.42458
957.5933, 79.77708
958.0754, 78.48185
958.5575, 77.31906
959.0396, 76.66024
959.5217, 76.42547
960.0038, 76.55014
960.4860, 76.91517
960.9681, 76.90051
961.4502, 75.68859
961.9323, 74.49548
962.4144, 74.05225
962.8965, 74.15010
963.3787, 74.35204
963.8608, 74.79156
964.3429, 74.88831
964.8250, 74.48805
965.3071, 73.93195
965.7892, 73.76330
966.2714, 73.80135
966.7535, 73.54189
967.2356, 72.85570
967.7177, 72.22396
968.1998, 71.93259
968.6819, 71.78310
969.1641, 71.67435
969.6462, 71.61140
970.1283, 71.39485
970.6104, 70.99557
971.0925, 70.58956
971.5746, 70.23805
972.0568, 69.96507
972.5389, 69.82998
973.0210, 69.81023
973.5031, 69.83632
973.9852, 69.93098
974.4673, 70.01012
974.9495, 70.17175
975.4316, 70.23901
975.9137, 69.77782
976.3958, 68.74229
976.8779, 68.08070
977.3600, 67.99428
977.8422, 68.15343
978.3243, 68.41598
978.8064, 68.60353
979.2885, 68.39394
979.7706, 67.59244
980.2527, 67.15070
980.7349, 67.52617
981.2170, 67.86367
981.6991, 67.64225
982.1812, 66.96102
982.6633, 66.58604
983.1454, 66.49920
983.6276, 66.50294
984.1097, 66.57314
984.5918, 66.60265
985.0739, 66.43130
985.5560, 66.15723
986.0381, 66.07063
986.5203, 66.38842
987.0024, 66.43136
987.4845, 65.99380
987.9666, 65.48817
988.4487, 65.68778
988.9308, 66.30424
989.4130, 66.40288
989.8951, 65.74830
990.3772, 65.20307
990.8593, 65.58498
991.3414, 66.01311
991.8235, 65.72021
992.3057, 64.64695
992.7878, 64.15520
993.2699, 64.32936
993.7520, 64.52168
994.2341, 64.27448
994.7162, 63.90924
995.1984, 64.09883
995.6805, 64.63488
996.1626, 64.94347
996.6447, 64.61033
997.1268, 64.27012
997.6089, 63.95725
998.0911, 63.78720
998.5732, 64.06932
999.0553, 64.79663
999.5374, 64.98908
1000.020, 64.47849
1000.502, 63.84043
1000.984, 63.53438
1001.466, 63.41123
1001.948, 63.31072
1002.430, 63.20515
1002.912, 63.33974
1003.394, 63.94277
1003.876, 64.33920
1004.359, 64.14587
1004.841, 63.61067
1005.323, 63.57245
1005.805, 63.89634
1006.287, 64.02665
1006.769, 63.47329
1007.251, 62.99039
1007.733, 63.08491
1008.216, 63.43223
1008.698, 63.56740
1009.180, 63.41615
1009.662, 63.34652
1010.144, 63.40112
1010.626, 63.41878
1011.108, 63.18259
1011.590, 62.83539
1012.072, 62.55963
1012.555, 62.37159
1013.037, 62.31416
1013.519, 62.55623
1014.001, 62.75243
1014.483, 62.78145
1014.965, 62.68773
1015.447, 62.60565
1015.929, 62.53700
1016.411, 62.53023
1016.894, 62.68002
1017.376, 62.71096
1017.858, 62.19229
1018.340, 61.50022
1018.822, 61.12871
1019.304, 61.31441
1019.786, 61.34281
1020.268, 61.13068
1020.751, 60.98429
1021.233, 61.24855
1021.715, 61.73631
1022.197, 61.92082
1022.679, 61.83760
1023.161, 61.74898
1023.643, 61.93911
1024.125, 61.97193
1024.607, 61.49681
1025.090, 60.81219
1025.572, 60.56520
1026.054, 60.78470
1026.536, 61.02965
1027.018, 61.24079
1027.500, 61.35663
1027.982, 61.19751
1028.464, 60.96867
1028.947, 60.95972
1029.429, 61.30114
1029.911, 61.36537
1030.393, 60.96331
1030.875, 60.57528
1031.357, 60.45959
1031.839, 60.53971
1032.321, 60.63601
1032.803, 60.71112
1033.286, 60.60706
1033.768, 59.87717
1034.250, 59.37384
1034.732, 59.69619
1035.214, 60.36647
1035.696, 60.66970
1036.178, 60.52080
1036.660, 60.50194
1037.143, 60.67362
1037.625, 60.82718
1038.107, 60.67434
1038.589, 60.44981
1039.071, 60.49340
1039.553, 60.80697
1040.035, 61.01428
1040.517, 61.01576
1041.000, 60.92228
1041.482, 60.71483
1041.964, 60.48012
1042.446, 60.51129
1042.928, 60.72000
1043.410, 60.66619
1043.892, 60.01984
1044.374, 59.69291
1044.856, 60.86458
1045.339, 62.16139
1045.821, 62.23240
1046.303, 60.82308
1046.785, 60.07562
1047.267, 60.04824
1047.749, 60.17650
1048.231, 60.08581
1048.713, 59.94191
1049.195, 59.98714
1049.677, 60.15808
1050.160, 60.26863
1050.642, 60.19056
1051.124, 60.15139
1051.606, 60.17643
1052.088, 60.24681
1052.570, 60.34817
1053.052, 60.47368
1053.534, 60.58607
1054.017, 60.67978
1054.499, 60.79743
1054.981, 61.22832
1055.463, 61.44701
1055.945, 60.97470
1056.427, 59.96544
1056.909, 59.22651
1057.391, 58.75866
1057.874, 58.59325
1058.356, 58.85193
1058.838, 59.18221
1059.320, 59.06996
1059.802, 58.78510
1060.284, 58.73738
1060.766, 59.22895
1061.248, 59.40952
1061.730, 59.07768
1062.213, 58.77593
1062.695, 59.08998
1063.177, 59.73088
1063.659, 59.44243
1064.141, 58.44337
1064.623, 57.78368
1065.105, 58.52923
1065.587, 59.09962
1066.070, 58.60339
1066.552, 57.70427
1067.034, 57.41108
1067.516, 57.74543
1067.998, 58.03144
1068.480, 58.20350
1068.962, 58.17942
1069.444, 57.64145
1069.927, 57.05006
1070.409, 56.89610
1070.891, 57.21432
1071.373, 57.28730
1071.855, 56.97825
1072.337, 56.75631
1072.819, 56.78296
1073.301, 56.94957
1073.783, 57.16363
1074.266, 57.34754
1074.748, 57.30769
1075.230, 56.86886
1075.712, 56.55537
1076.194, 56.57953
1076.676, 56.68012
1077.158, 56.69596
1077.640, 56.64310
1078.122, 56.68308
1078.604, 56.81340
1079.087, 57.01364
1079.569, 57.40088
1080.051, 57.71798
1080.533, 57.80040
1081.015, 57.70384
1081.497, 57.56150
1081.979, 57.39964
1082.461, 56.98014
1082.944, 56.21503
1083.426, 55.67452
1083.908, 56.21994
1084.390, 57.10434
1084.872, 57.39503
1085.354, 57.08698
1085.836, 56.87688
1086.318, 57.00402
1086.801, 56.96766
1087.283, 56.59386
1087.765, 56.08569
1088.247, 55.71694
1088.729, 55.52677
1089.211, 55.68425
1089.693, 56.30571
1090.175, 56.83895
1090.657, 56.99587
1091.140, 57.04555
1091.622, 57.13534
1092.104, 57.25090
1092.586, 57.28925
1093.068, 57.24856
1093.550, 57.10297
1094.032, 56.73889
1094.514, 56.41725
1094.997, 56.40153
1095.479, 56.50816
1095.961, 56.46212
1096.443, 56.13196
1096.925, 56.10069
1097.407, 56.40506
1097.889, 56.78323
1098.371, 57.17515
1098.854, 57.42117
1099.336, 57.15415
1099.818, 56.53139
1100.300, 56.17401
1100.782, 56.33027
1101.264, 56.61226
1101.746, 57.08558
1102.228, 57.44320
1102.710, 57.07285
1103.193, 56.30251
1103.675, 55.96548
1104.157, 56.16187
1104.639, 56.40812
1105.121, 56.49288
1105.603, 56.60290
1106.085, 56.91634
1106.567, 57.25572
1107.049, 56.87833
1107.531, 55.91296
1108.014, 55.45892
1108.496, 55.93938
1108.978, 56.51468
1109.460, 56.63200
1109.942, 56.54807
1110.424, 56.47158
1110.906, 56.41107
1111.388, 56.32460
1111.871, 56.20808
1112.353, 56.11611
1112.835, 56.00370
1113.317, 56.02075
1113.799, 56.54024
1114.281, 57.23574
1114.763, 57.55757
1115.245, 57.22783
1115.728, 56.85928
1116.210, 56.37497
1116.692, 56.11467
1117.174, 56.66893
1117.656, 57.49284
1118.138, 57.45889
1118.620, 56.75397
1119.102, 56.24432
1119.584, 56.28878
1120.067, 56.50633
1120.549, 56.94366
1121.031, 57.36152
1121.513, 57.39216
1121.995, 57.13300
1122.477, 56.91785
1122.959, 56.77621
1123.441, 56.61259
1123.924, 56.38105
1124.406, 56.10052
1124.888, 55.68775
1125.370, 55.27822
1125.852, 55.32901
1126.334, 55.79479
1126.816, 56.13644
1127.298, 56.21136
1127.781, 56.23239
1128.263, 56.37739
1128.745, 56.51860
1129.227, 56.53836
1129.709, 56.44271
1130.191, 56.34676
1130.673, 56.24623
1131.155, 56.19988
1131.637, 56.22765
1132.120, 56.32449
1132.602, 56.53342
1133.084, 56.78762
1133.566, 56.98931
1134.048, 57.12466
1134.530, 57.22934
1135.012, 57.31364
1135.494, 57.32220
1135.976, 57.13890
1136.458, 56.91066
1136.941, 56.91646
1137.423, 57.06733
1137.905, 57.14615
1138.387, 56.99035
1138.869, 56.93254
1139.351, 57.04843
1139.833, 57.13568
1140.315, 56.88317
1140.798, 56.48386
1141.280, 56.46002
1141.762, 56.76790
1142.244, 57.00230
1142.726, 56.92428
1143.208, 56.84948
1143.690, 56.84912
1144.172, 56.88762
1144.655, 56.95531
1145.137, 57.01803
1145.619, 56.87169
1146.101, 56.48890
1146.583, 56.25820
1147.065, 56.56371
1147.547, 56.88628
1148.029, 56.95396
1148.511, 56.87684
1148.994, 56.98139
1149.476, 57.24878
1149.958, 57.52941
1150.440, 57.81457
1150.922, 57.98658
1151.404, 57.91496
1151.886, 57.73202
1152.368, 57.52266
1152.851, 57.29282
1153.333, 57.02356
1153.815, 56.71320
1154.297, 56.57864
1154.779, 56.75538
1155.261, 57.01196
1155.743, 57.15026
1156.225, 57.23933
1156.708, 57.37275
1157.190, 57.57770
1157.672, 57.65354
1158.154, 57.59016
1158.636, 57.48773
1159.118, 57.39925
1159.600, 57.30622
1160.082, 57.13029
1160.564, 56.95438
1161.047, 56.94400
1161.529, 57.30932
1162.011, 57.35167
1162.493, 56.99752
1162.975, 56.61981
1163.457, 56.45707
1163.939, 56.47547
1164.421, 56.79449
1164.903, 57.25836
1165.385, 57.39040
1165.868, 56.68790
1166.350, 56.44485
1166.832, 56.89608
1167.314, 57.43339
1167.796, 57.29680
1168.278, 56.86450
1168.760, 56.86827
1169.242, 57.26510
1169.725, 57.50584
1170.207, 57.18485
1170.689, 57.08416
1171.171, 57.41840
1171.653, 57.83276
1172.135, 57.72735
1172.617, 57.34219
1173.099, 57.24907
1173.582, 57.50611
1174.064, 57.71692
1174.546, 57.64137
1175.028, 57.63926
1175.510, 57.86828
1175.992, 58.13614
1176.474, 57.93256
1176.956, 57.45428
1177.438, 57.33228
1177.921, 57.73404
1178.403, 58.03168
1178.885, 57.90186
1179.367, 57.67426
1179.849, 57.42648
1180.331, 57.21164
1180.813, 57.23071
1181.295, 57.43601
1181.778, 57.66738
1182.260, 57.91477
1182.742, 58.05677
1183.224, 58.03942
1183.706, 57.88020
1184.188, 57.49183
1184.670, 56.97807
1185.152, 57.02510
1185.635, 57.52365
1186.117, 57.91326
1186.599, 57.94333
1187.081, 57.90459
1187.563, 57.77869
1188.045, 57.79077
1188.527, 58.24609
1189.009, 59.06361
1189.491, 59.05391
1189.974, 58.33611
1190.456, 57.78325
1190.938, 58.04795
1191.420, 58.28577
1191.902, 57.93919
1192.384, 57.46648
1192.866, 57.32982
1193.348, 57.53675
1193.830, 57.74606
1194.313, 57.94734
1194.795, 58.03066
1195.277, 57.75219
1195.759, 57.53650
1196.241, 57.69346
1196.723, 58.00325
1197.205, 58.18309
1197.687, 58.22862
1198.169, 58.34493
1198.652, 58.53635
1199.134, 58.68539
1199.616, 58.68031
1200.098, 58.64170
1200.580, 58.60473
1201.062, 58.59927
1201.544, 58.69531
1202.026, 58.89794
1202.509, 59.01173
1202.991, 59.01899
1203.473, 58.97132
1203.955, 58.93759
1204.437, 58.82916
1204.919, 58.46237
1205.401, 58.01348
1205.883, 57.92524
1206.365, 58.20703
1206.848, 58.26781
1207.330, 58.01198
1207.812, 57.84307
1208.294, 58.20914
1208.776, 58.64325
1209.258, 58.84720
1209.740, 58.85096
1210.222, 58.66964
1210.705, 58.29838
1211.187, 58.15302
1211.669, 58.33685
1212.151, 58.47645
1212.633, 58.15748
1213.115, 57.78547
1213.597, 57.66368
1214.079, 57.74366
1214.562, 57.88793
1215.044, 58.09391
1215.526, 58.22332
1216.008, 58.22917
1216.490, 58.24426
1216.972, 58.42787
1217.454, 58.61344
1217.936, 58.68145
1218.418, 58.63909
1218.901, 58.46169
1219.383, 58.15870
1219.865, 58.01687
1220.347, 58.17192
1220.829, 58.28223
1221.311, 57.75486
1221.793, 57.40074
1222.275, 58.02392
1222.757, 59.40464
1223.240, 59.88354
1223.722, 59.51678
1224.204, 58.96889
1224.686, 58.34815
1225.168, 57.93958
1225.650, 58.10994
1226.132, 58.41278
1226.614, 58.45514
1227.096, 58.29187
1227.579, 58.56048
1228.061, 59.17972
1228.543, 59.39986
1229.025, 58.75900
1229.507, 58.07154
1229.989, 57.62957
1230.471, 57.51825
1230.953, 57.89460
1231.436, 58.67098
1231.918, 58.94454
1232.400, 58.78877
1232.882, 58.72135
1233.364, 59.12386
1233.846, 59.34101
1234.328, 58.79786
1234.810, 58.18164
1235.292, 58.03478
1235.775, 58.28066
1236.257, 58.26327
1236.739, 58.02984
1237.221, 57.82505
1237.703, 57.67936
1238.185, 57.70518
1238.667, 58.10386
1239.149, 58.53524
1239.632, 58.77666
1240.114, 58.83944
1240.596, 58.81053
1241.078, 58.68612
1241.560, 58.44542
1242.042, 57.84381
1242.524, 57.48814
1243.006, 57.67169
1243.489, 57.93954
1243.971, 57.90065
1244.453, 57.65026
1244.935, 57.56883
1245.417, 57.63324
1245.899, 57.75779
1246.381, 57.94887
1246.863, 58.14303
1247.345, 58.34416
1247.828, 58.51878
1248.310, 58.61459
1248.792, 58.66647
1249.274, 58.83076
1249.756, 59.04163
1250.238, 59.07451
1250.720, 58.52977
1251.202, 58.34438
1251.684, 58.74270
1252.167, 59.12770
1252.649, 58.83091
1253.131, 58.23223
1253.613, 58.10703
1254.095, 58.33253
1254.577, 58.46896
1255.059, 58.31301
1255.541, 58.23180
1256.023, 58.24102
1256.506, 58.33537
1256.988, 58.64377
1257.470, 58.94395
1257.952, 58.85706
1258.434, 58.49706
1258.916, 58.21450
1259.398, 58.04907
1259.880, 57.98299
1260.363, 58.03286
1260.845, 58.07948
1261.327, 57.93348
1261.809, 57.80848
1262.291, 58.02418
1262.773, 58.42255
1263.255, 58.56841
1263.737, 58.39421
1264.219, 58.20713
1264.702, 58.02116
1265.184, 57.90806
1265.666, 58.01294
1266.148, 58.12385
1266.630, 57.98835
1267.112, 57.77338
1267.594, 57.88453
1268.076, 58.36521
1268.559, 58.43431
1269.041, 58.04523
1269.523, 57.69017
1270.005, 57.72555
1270.487, 57.87117
1270.969, 58.03352
1271.451, 58.16717
1271.933, 58.19286
1272.416, 58.12010
1272.898, 58.07574
1273.380, 58.06678
1273.862, 58.07636
1274.344, 58.09841
1274.826, 58.13482
1275.308, 58.20178
1275.790, 58.26535
1276.272, 58.28046
1276.755, 58.25620
1277.237, 58.19593
1277.719, 58.11671
1278.201, 58.12143
1278.683, 58.35207
1279.165, 58.54844
1279.647, 58.70729
1280.129, 58.73801
1280.611, 58.40822
1281.094, 57.93117
1281.576, 57.75460
1282.058, 57.86227
1282.540, 58.06791
1283.022, 58.41135
1283.504, 58.68275
1283.986, 58.86088
1284.468, 58.96441
1284.950, 58.96061
1285.433, 58.92931
1285.915, 58.96753
1286.397, 59.07220
1286.879, 59.24463
1287.361, 59.57856
1287.843, 59.57044
1288.325, 59.14267
1288.807, 58.65088
1289.290, 58.28232
1289.772, 58.09271
1290.254, 58.24220
1290.736, 58.58445
1291.218, 58.78093
1291.700, 58.82708
1292.182, 58.73787
1292.664, 58.51543
1293.146, 58.37665
1293.629, 58.68804
1294.111, 58.88882
1294.593, 58.37029
1295.075, 57.75087
1295.557, 57.91212
1296.039, 58.73338
1296.521, 59.18478
1297.003, 59.25560
1297.486, 59.36920
1297.968, 60.14950
1298.450, 60.40599
1298.932, 59.63789
1299.414, 58.64263
1299.896, 58.32222
1300.378, 58.47063
1300.860, 58.58188
1301.343, 58.63343
1301.825, 58.64346
##END=



