##NAMES=Scheelite
##RRUFFID=R040173
##IDEAL CHEMISTRY=CaW^6+^O_4_
##LOCALITY=Santa Cruz, Sonora, Mexico
##OWNER=RRUFF
##SOURCE=University of Arizona Mineral Museum
##DESCRIPTION=Yellow crystal fragments
##STATUS=The identification of this mineral has been confirmed by X-ray diffraction and chemical analysis
##URL=rruff.info/R040173
##MEASURED CHEMISTRY=Ca_1.00_W_1.00_O_4_
138.0910, 2769.651
138.5731, 2803.270
139.0553, 2834.186
139.5374, 2856.962
140.0195, 2870.981
140.5016, 2876.588
140.9837, 2873.268
141.4658, 2856.420
141.9480, 2837.831
142.4301, 2824.997
142.9122, 2817.621
143.3943, 2817.040
143.8764, 2826.693
144.3585, 2846.150
144.8407, 2856.998
145.3228, 2849.314
145.8049, 2840.509
146.2870, 2847.428
146.7691, 2882.797
147.2512, 2916.986
147.7334, 2942.401
148.2155, 2955.311
148.6976, 2977.404
149.1797, 3011.933
149.6618, 3054.843
150.1439, 3100.363
150.6261, 3159.804
151.1082, 3211.180
151.5903, 3246.738
152.0724, 3257.763
152.5545, 3272.091
153.0366, 3295.768
153.5188, 3323.816
154.0009, 3346.364
154.4830, 3359.500
154.9651, 3368.943
155.4472, 3377.373
155.9293, 3385.862
156.4115, 3392.243
156.8936, 3393.302
157.3757, 3391.215
157.8578, 3393.500
158.3399, 3411.205
158.8221, 3428.855
159.3042, 3436.515
159.7863, 3423.346
160.2684, 3408.117
160.7505, 3393.796
161.2326, 3380.981
161.7148, 3375.433
162.1969, 3385.243
162.6790, 3401.332
163.1611, 3414.801
163.6432, 3421.889
164.1253, 3426.410
164.6075, 3427.382
165.0896, 3424.665
165.5717, 3428.257
166.0538, 3450.368
166.5359, 3481.185
167.0180, 3506.708
167.5002, 3516.223
167.9823, 3521.565
168.4644, 3533.533
168.9465, 3554.366
169.4286, 3571.721
169.9107, 3571.313
170.3929, 3560.509
170.8750, 3554.824
171.3571, 3569.179
171.8392, 3589.702
172.3213, 3600.510
172.8034, 3597.460
173.2856, 3591.464
173.7677, 3593.633
174.2498, 3601.681
174.7319, 3607.725
175.2140, 3603.932
175.6961, 3595.837
176.1783, 3591.981
176.6604, 3594.539
177.1425, 3600.716
177.6246, 3608.579
178.1067, 3617.721
178.5888, 3626.032
179.0710, 3629.428
179.5531, 3630.742
180.0352, 3636.787
180.5173, 3651.359
180.9994, 3669.120
181.4815, 3681.983
181.9637, 3690.082
182.4458, 3694.052
182.9279, 3690.512
183.4100, 3682.261
183.8921, 3679.774
184.3742, 3686.627
184.8564, 3700.903
185.3385, 3718.757
185.8206, 3740.469
186.3027, 3764.225
186.7848, 3788.442
187.2669, 3813.208
187.7491, 3840.109
188.2312, 3872.586
188.7133, 3907.636
189.1954, 3933.517
189.6775, 3948.838
190.1596, 3960.444
190.6418, 3977.107
191.1239, 3998.623
191.6060, 4019.305
192.0881, 4034.118
192.5702, 4044.526
193.0524, 4064.040
193.5345, 4093.645
194.0166, 4129.582
194.4987, 4165.700
194.9808, 4201.827
195.4629, 4240.931
195.9451, 4286.974
196.4272, 4340.261
196.9093, 4382.512
197.3914, 4409.203
197.8735, 4431.076
198.3556, 4469.900
198.8378, 4527.667
199.3199, 4588.628
199.8020, 4641.318
200.2841, 4683.892
200.7662, 4738.608
201.2483, 4806.852
201.7305, 4887.804
202.2126, 4979.719
202.6947, 5082.760
203.1768, 5196.168
203.6589, 5315.488
204.1410, 5436.137
204.6232, 5587.521
205.1053, 5773.731
205.5874, 5991.636
206.0695, 6230.006
206.5516, 6486.692
207.0337, 6769.502
207.5159, 7093.500
207.9980, 7462.228
208.4801, 7832.967
208.9622, 8223.992
209.4443, 8612.379
209.9264, 8895.633
210.4086, 9087.629
210.8907, 9146.235
211.3728, 9020.149
211.8549, 8667.066
212.3370, 8264.634
212.8191, 7811.937
213.3013, 7323.803
213.7834, 6888.893
214.2655, 6506.639
214.7476, 6177.342
215.2297, 5908.456
215.7118, 5706.712
216.1940, 5540.260
216.6761, 5406.508
217.1582, 5304.331
217.6403, 5226.197
218.1224, 5179.956
218.6045, 5148.401
219.0867, 5115.147
219.5688, 5077.169
220.0509, 5045.474
220.5330, 5024.669
221.0151, 5014.770
221.4972, 5000.919
221.9794, 4978.545
222.4615, 4957.180
222.9436, 4948.272
223.4257, 4959.655
223.9078, 4967.455
224.3899, 4966.575
224.8721, 4956.742
225.3542, 4940.860
225.8363, 4914.027
226.3184, 4885.661
226.8005, 4866.700
227.2827, 4860.230
227.7648, 4857.672
228.2469, 4857.471
228.7290, 4859.847
229.2111, 4862.835
229.6932, 4866.448
230.1754, 4870.625
230.6575, 4874.651
231.1396, 4875.209
231.6217, 4881.869
232.1038, 4901.371
232.5859, 4939.712
233.0681, 4956.045
233.5502, 4933.894
234.0323, 4901.542
234.5144, 4902.548
234.9965, 4958.384
235.4786, 5011.272
235.9608, 5041.566
236.4429, 5041.562
236.9250, 5053.353
237.4071, 5080.600
237.8892, 5117.343
238.3713, 5155.288
238.8535, 5198.302
239.3356, 5235.905
239.8177, 5262.778
240.2998, 5274.153
240.7819, 5293.683
241.2640, 5324.874
241.7462, 5362.483
242.2283, 5397.725
242.7104, 5429.168
243.1925, 5460.655
243.6746, 5494.411
244.1567, 5533.215
244.6389, 5564.407
245.1210, 5583.159
245.6031, 5597.112
246.0852, 5619.942
246.5673, 5655.555
247.0494, 5693.401
247.5316, 5729.714
248.0137, 5763.423
248.4958, 5800.287
248.9779, 5844.926
249.4600, 5889.917
249.9421, 5918.638
250.4243, 5921.060
250.9064, 5925.513
251.3885, 5942.445
251.8706, 5974.769
252.3527, 6011.632
252.8348, 6058.285
253.3170, 6106.164
253.7991, 6136.520
254.2812, 6138.730
254.7633, 6143.200
255.2454, 6162.834
255.7275, 6203.087
256.2097, 6237.176
256.6918, 6261.794
257.1739, 6282.137
257.6560, 6309.169
258.1381, 6347.599
258.6202, 6383.107
259.1024, 6409.934
259.5845, 6425.547
260.0666, 6441.964
260.5487, 6459.842
261.0308, 6477.991
261.5129, 6495.221
261.9951, 6511.752
262.4772, 6526.437
262.9593, 6537.274
263.4414, 6542.205
263.9235, 6555.290
264.4056, 6582.753
264.8878, 6612.696
265.3699, 6619.920
265.8520, 6592.609
266.3341, 6576.602
266.8162, 6594.646
267.2983, 6653.985
267.7805, 6699.507
268.2626, 6727.975
268.7447, 6745.719
269.2268, 6763.435
269.7089, 6781.949
270.1910, 6797.315
270.6732, 6805.556
271.1553, 6804.926
271.6374, 6814.622
272.1195, 6836.186
272.6016, 6865.865
273.0837, 6898.815
273.5659, 6936.554
274.0480, 6970.420
274.5301, 6993.018
275.0122, 7003.337
275.4943, 7032.893
275.9764, 7087.774
276.4586, 7150.444
276.9407, 7191.597
277.4228, 7207.658
277.9049, 7228.956
278.3870, 7272.112
278.8691, 7335.540
279.3513, 7379.830
279.8334, 7400.374
280.3155, 7413.630
280.7976, 7441.226
281.2798, 7483.296
281.7619, 7530.959
282.2440, 7583.058
282.7261, 7638.714
283.2082, 7690.813
283.6903, 7738.779
284.1725, 7785.299
284.6546, 7835.514
285.1367, 7888.704
285.6188, 7936.804
286.1009, 7972.721
286.5830, 8000.774
287.0652, 8042.363
287.5473, 8099.108
288.0294, 8157.426
288.5115, 8201.119
288.9936, 8231.828
289.4757, 8261.508
289.9579, 8295.403
290.4400, 8331.002
290.9221, 8360.838
291.4042, 8384.410
291.8863, 8408.483
292.3684, 8438.170
292.8506, 8473.646
293.3327, 8516.521
293.8148, 8572.871
294.2969, 8633.985
294.7790, 8679.691
295.2611, 8710.152
295.7433, 8744.622
296.2254, 8803.669
296.7075, 8881.358
297.1896, 8958.180
297.6717, 9027.472
298.1538, 9095.841
298.6360, 9171.220
299.1181, 9254.149
299.6002, 9342.772
300.0823, 9436.143
300.5644, 9535.050
301.0465, 9642.541
301.5287, 9763.153
302.0108, 9887.826
302.4929, 10000.53
302.9750, 10105.01
303.4571, 10216.15
303.9392, 10353.25
304.4214, 10501.16
304.9035, 10639.83
305.3856, 10749.86
305.8677, 10868.13
306.3498, 11038.40
306.8319, 11245.85
307.3141, 11442.05
307.7962, 11572.96
308.2783, 11687.87
308.7604, 11840.40
309.2425, 12050.50
309.7246, 12272.34
310.2068, 12473.22
310.6889, 12663.21
311.1710, 12870.61
311.6531, 13121.59
312.1352, 13387.89
312.6173, 13644.16
313.0995, 13875.76
313.5816, 14119.82
314.0637, 14394.19
314.5458, 14694.34
315.0279, 15013.62
315.5100, 15360.69
315.9922, 15717.80
316.4743, 16070.93
316.9564, 16411.44
317.4385, 16777.26
317.9206, 17192.34
318.4027, 17637.63
318.8849, 18086.53
319.3670, 18526.66
319.8491, 18973.82
320.3312, 19431.92
320.8133, 19902.35
321.2954, 20387.75
321.7776, 20872.63
322.2597, 21382.08
322.7418, 21942.82
323.2239, 22584.77
323.7060, 23252.33
324.1881, 23931.74
324.6703, 24621.31
325.1524, 25341.56
325.6345, 26058.83
326.1166, 26817.92
326.5987, 27662.12
327.0808, 28677.31
327.5630, 29675.36
328.0451, 30619.91
328.5272, 31515.07
329.0093, 32464.49
329.4914, 33541.59
329.9735, 34584.39
330.4557, 35487.80
330.9378, 36261.37
331.4199, 36883.08
331.9020, 37377.44
332.3841, 37726.09
332.8662, 37836.90
333.3484, 37689.09
333.8305, 37333.21
334.3126, 36771.21
334.7947, 35959.27
335.2768, 35089.36
335.7589, 34152.68
336.2411, 33174.99
336.7232, 32173.17
337.2053, 31120.39
337.6874, 30143.10
338.1695, 29294.28
338.6516, 28587.88
339.1338, 27951.92
339.6159, 27392.67
340.0980, 26900.88
340.5801, 26469.80
341.0622, 26092.82
341.5443, 25794.40
342.0265, 25592.51
342.5086, 25481.42
342.9907, 25386.18
343.4728, 25301.97
343.9549, 25255.90
344.4370, 25291.74
344.9192, 25403.75
345.4013, 25541.47
345.8834, 25678.55
346.3655, 25829.66
346.8476, 26028.05
347.3297, 26272.87
347.8119, 26559.05
348.2940, 26898.74
348.7761, 27277.65
349.2582, 27642.51
349.7403, 27972.29
350.2225, 28296.78
350.7046, 28642.54
351.1867, 29016.19
351.6688, 29444.89
352.1509, 29966.16
352.6331, 30551.27
353.1152, 31152.29
353.5973, 31741.88
354.0794, 32376.50
354.5615, 33111.23
355.0436, 33933.47
355.5258, 34804.87
356.0079, 35682.54
356.4900, 36612.25
356.9721, 37639.69
357.4542, 38784.18
357.9363, 39984.77
358.4185, 41208.43
358.9006, 42464.96
359.3827, 43771.39
359.8648, 45146.70
360.3469, 46563.84
360.8290, 48010.51
361.3112, 49491.89
361.7933, 50996.07
362.2754, 52522.77
362.7575, 54080.82
363.2396, 55686.55
363.7217, 57384.67
364.2039, 59068.09
364.6860, 60677.14
365.1681, 62217.02
365.6502, 63833.00
366.1323, 65593.84
366.6144, 67416.02
367.0966, 69249.36
367.5787, 71087.81
368.0608, 72919.06
368.5429, 74746.49
369.0250, 76574.77
369.5071, 78386.88
369.9893, 80224.13
370.4714, 81989.35
370.9535, 83644.28
371.4356, 85187.80
371.9177, 86594.88
372.3998, 87906.38
372.8820, 89063.99
373.3641, 89927.63
373.8462, 90487.41
374.3283, 90776.56
374.8104, 90790.92
375.2925, 90523.50
375.7747, 90057.99
376.2568, 89391.23
376.7389, 88525.62
377.2210, 87437.31
377.7031, 86115.59
378.1852, 84723.07
378.6674, 83237.91
379.1495, 81723.39
379.6316, 80389.44
380.1137, 79252.97
380.5958, 78245.07
381.0779, 77313.74
381.5601, 76458.62
382.0422, 75743.27
382.5243, 75163.98
383.0064, 74730.10
383.4885, 74474.07
383.9706, 74384.45
384.4528, 74394.09
384.9349, 74483.12
385.4170, 74634.56
385.8991, 74834.72
386.3812, 75100.45
386.8633, 75359.02
387.3455, 75568.67
387.8276, 75720.78
388.3097, 75798.08
388.7918, 75875.34
389.2739, 75818.29
389.7560, 75524.84
390.2382, 74985.37
390.7203, 74230.23
391.2024, 73214.67
391.6845, 72017.89
392.1666, 70716.18
392.6487, 69327.42
393.1309, 67850.99
393.6130, 66244.09
394.0951, 64518.71
394.5772, 62877.24
395.0593, 61368.88
395.5414, 59959.47
396.0236, 58642.58
396.5057, 57424.69
396.9878, 56284.70
397.4699, 55290.80
397.9520, 54388.05
398.4341, 53416.72
398.9163, 52399.67
399.3984, 51291.31
399.8805, 50076.42
400.3626, 48753.88
400.8447, 47314.92
401.3268, 45668.27
401.8090, 43974.26
402.2911, 42420.05
402.7732, 41028.30
403.2553, 39756.77
403.7374, 38598.54
404.2195, 37553.34
404.7017, 36623.20
405.1838, 35815.84
405.6659, 35094.66
406.1480, 34420.99
406.6301, 33790.96
407.1122, 33253.36
407.5944, 32828.52
408.0765, 32487.70
408.5586, 32170.18
409.0407, 31874.80
409.5228, 31621.49
410.0049, 31425.98
410.4871, 31285.07
410.9692, 31182.33
411.4513, 31111.21
411.9334, 31098.64
412.4155, 31176.64
412.8976, 31339.24
413.3798, 31562.67
413.8619, 31840.90
414.3440, 32174.26
414.8261, 32570.85
415.3082, 33032.55
415.7903, 33538.32
416.2725, 34087.14
416.7546, 34671.11
417.2367, 35293.39
417.7188, 35931.04
418.2009, 36617.10
418.6830, 37371.26
419.1652, 38187.59
419.6473, 39014.94
420.1294, 39852.52
420.6115, 40691.70
421.0937, 41542.88
421.5758, 42398.68
422.0579, 43248.96
422.5400, 44078.47
423.0221, 44905.93
423.5042, 45780.02
423.9864, 46701.77
424.4685, 47660.04
424.9506, 48670.24
425.4327, 49721.70
425.9148, 50788.16
426.3969, 51836.87
426.8791, 52937.05
427.3612, 54129.26
427.8433, 55399.89
428.3254, 56789.25
428.8075, 58284.34
429.2896, 59907.55
429.7718, 61711.03
430.2539, 63708.28
430.7360, 65821.43
431.2181, 67978.47
431.7002, 70184.77
432.1823, 72536.63
432.6645, 75058.34
433.1466, 77671.23
433.6287, 80321.18
434.1108, 82969.36
434.5929, 85437.14
435.0750, 87684.06
435.5572, 89664.51
436.0393, 91350.69
436.5214, 92735.73
437.0035, 93677.75
437.4856, 94064.66
437.9677, 93932.53
438.4499, 93301.12
438.9320, 92077.10
439.4141, 90522.55
439.8962, 88740.95
440.3783, 86773.39
440.8604, 84672.63
441.3426, 82395.18
441.8247, 80070.86
442.3068, 77747.09
442.7889, 75402.41
443.2710, 73189.03
443.7531, 71131.35
444.2353, 69237.63
444.7174, 67481.17
445.1995, 65866.53
445.6816, 64408.22
446.1637, 63087.64
446.6458, 61919.51
447.1280, 60962.45
447.6101, 60233.85
448.0922, 59695.60
448.5743, 59345.18
449.0564, 59224.84
449.5385, 59172.37
450.0207, 59179.43
450.5028, 59255.25
450.9849, 59459.88
451.4670, 59834.04
451.9491, 60122.05
452.4312, 60225.60
452.9134, 60155.28
453.3955, 60001.82
453.8776, 59768.08
454.3597, 59438.80
454.8418, 58977.45
455.3239, 58401.41
455.8061, 57797.06
456.2882, 57162.89
456.7703, 56529.62
457.2524, 55929.71
457.7345, 55365.66
458.2166, 54833.55
458.6988, 54367.82
459.1809, 53919.66
459.6630, 53448.55
460.1451, 52946.34
460.6272, 52414.40
461.1093, 51871.93
461.5915, 51296.95
462.0736, 50672.26
462.5557, 49972.32
463.0378, 49240.40
463.5199, 48485.65
464.0020, 47715.09
464.4842, 46947.76
464.9663, 46167.39
465.4484, 45413.99
465.9305, 44706.65
466.4126, 44057.52
466.8947, 43418.37
467.3769, 42776.75
467.8590, 42152.98
468.3411, 41573.20
468.8232, 41051.25
469.3053, 40550.94
469.7874, 40056.32
470.2696, 39568.98
470.7517, 39128.89
471.2338, 38754.16
471.7159, 38374.77
472.1980, 37921.49
472.6801, 37394.72
473.1623, 36905.02
473.6444, 36477.34
474.1265, 36067.58
474.6086, 35618.88
475.0907, 35128.00
475.5728, 34574.00
476.0550, 33906.36
476.5371, 33179.43
477.0192, 32488.39
477.5013, 31833.50
477.9834, 31193.89
478.4655, 30535.99
478.9477, 29886.63
479.4298, 29288.46
479.9119, 28742.95
480.3940, 28255.08
480.8761, 27860.20
481.3582, 27531.77
481.8404, 27198.68
482.3225, 26791.97
482.8046, 26413.45
483.2867, 26118.56
483.7688, 25944.13
484.2509, 25741.77
484.7331, 25493.13
485.2152, 25214.70
485.6973, 24912.38
486.1794, 24560.51
486.6615, 24228.09
487.1436, 23926.92
487.6258, 23651.05
488.1079, 23370.55
488.5900, 23083.50
489.0721, 22801.55
489.5542, 22519.69
490.0363, 22236.06
490.5185, 22018.28
491.0006, 21878.04
491.4827, 21776.55
491.9648, 21664.98
492.4470, 21548.42
492.9291, 21456.93
493.4112, 21403.20
493.8933, 21380.04
494.3754, 21386.19
494.8575, 21418.48
495.3397, 21456.52
495.8218, 21471.19
496.3039, 21492.83
496.7860, 21559.11
497.2681, 21686.00
497.7502, 21819.20
498.2324, 21931.21
498.7145, 22032.40
499.1966, 22139.05
499.6787, 22277.15
500.1608, 22398.79
500.6429, 22487.88
501.1251, 22545.24
501.6072, 22589.70
502.0893, 22644.47
502.5714, 22668.01
503.0535, 22635.52
503.5356, 22514.11
504.0178, 22418.98
504.4999, 22370.61
504.9820, 22330.53
505.4641, 22241.26
505.9462, 22100.90
506.4283, 21923.33
506.9105, 21709.55
507.3926, 21463.27
507.8747, 21191.89
508.3568, 20892.96
508.8389, 20595.09
509.3210, 20323.36
509.8032, 20064.63
510.2853, 19772.24
510.7674, 19432.35
511.2495, 19093.29
511.7316, 18811.77
512.2137, 18566.26
512.6959, 18317.50
513.1780, 18035.81
513.6601, 17753.38
514.1422, 17483.51
514.6243, 17228.26
515.1064, 16999.18
515.5886, 16822.49
516.0707, 16657.43
516.5528, 16478.78
517.0349, 16264.16
517.5170, 16072.73
517.9991, 15928.00
518.4813, 15803.78
518.9634, 15667.14
519.4455, 15502.94
519.9276, 15352.65
520.4097, 15226.36
520.8918, 15122.66
521.3740, 15017.34
521.8561, 14908.95
522.3382, 14803.81
522.8203, 14705.71
523.3024, 14615.25
523.7845, 14529.63
524.2667, 14448.96
524.7488, 14370.20
525.2309, 14281.41
525.7130, 14187.75
526.1951, 14109.40
526.6772, 14057.92
527.1594, 14019.51
527.6415, 13980.56
528.1236, 13941.71
528.6057, 13904.65
529.0878, 13864.35
529.5699, 13830.57
530.0521, 13814.83
530.5342, 13823.66
531.0163, 13826.34
531.4984, 13795.98
531.9805, 13761.76
532.4626, 13754.57
532.9448, 13817.65
533.4269, 13860.71
533.9090, 13864.10
534.3911, 13839.11
534.8732, 13830.14
535.3553, 13844.52
535.8375, 13860.95
536.3196, 13866.57
536.8017, 13860.00
537.2838, 13876.71
537.7659, 13922.11
538.2480, 13973.58
538.7302, 14003.83
539.2123, 14016.72
539.6944, 14038.25
540.1765, 14077.56
540.6586, 14121.54
541.1407, 14148.44
541.6229, 14163.82
542.1050, 14187.93
542.5871, 14244.80
543.0692, 14306.71
543.5513, 14345.11
544.0334, 14358.41
544.5156, 14373.68
544.9977, 14400.39
545.4798, 14436.12
545.9619, 14479.07
546.4440, 14533.30
546.9261, 14588.20
547.4083, 14647.35
547.8904, 14705.44
548.3725, 14752.00
548.8546, 14783.97
549.3367, 14809.68
549.8188, 14828.71
550.3010, 14842.04
550.7831, 14860.75
551.2652, 14884.48
551.7473, 14914.95
552.2294, 14949.04
552.7115, 14988.42
553.1937, 15055.94
553.6758, 15159.72
554.1579, 15265.40
554.6400, 15324.49
555.1221, 15350.48
555.6042, 15381.19
556.0864, 15436.66
556.5685, 15496.67
557.0506, 15536.16
557.5327, 15561.83
558.0148, 15598.08
558.4969, 15674.46
558.9791, 15751.97
559.4612, 15802.77
559.9433, 15817.44
560.4254, 15839.06
560.9075, 15877.90
561.3896, 15925.67
561.8718, 15976.22
562.3539, 16039.69
562.8360, 16087.47
563.3181, 16108.51
563.8002, 16116.40
564.2823, 16146.17
564.7645, 16202.06
565.2466, 16259.80
565.7287, 16309.67
566.2108, 16353.24
566.6929, 16397.15
567.1750, 16441.09
567.6572, 16484.48
568.1393, 16513.98
568.6214, 16543.99
569.1035, 16609.74
569.5856, 16726.59
570.0677, 16840.98
570.5499, 16891.46
571.0320, 16914.75
571.5141, 16969.26
571.9962, 17103.62
572.4783, 17246.08
572.9604, 17365.15
573.4426, 17465.35
573.9247, 17575.72
574.4068, 17707.33
574.8889, 17843.25
575.3710, 17977.06
575.8531, 18106.77
576.3353, 18234.38
576.8174, 18352.39
577.2995, 18477.59
577.7816, 18635.82
578.2637, 18831.50
578.7458, 18997.98
579.2280, 19111.35
579.7101, 19217.56
580.1922, 19412.42
580.6743, 19681.28
581.1564, 19941.51
581.6385, 20157.01
582.1207, 20341.58
582.6028, 20503.88
583.0849, 20644.47
583.5670, 20778.83
584.0491, 20930.62
584.5313, 21070.13
585.0134, 21166.74
585.4955, 21197.05
585.9776, 21245.63
586.4597, 21352.88
586.9418, 21481.25
587.4240, 21587.13
587.9061, 21661.15
588.3882, 21726.03
588.8703, 21780.28
589.3524, 21827.99
589.8345, 21884.60
590.3167, 21955.99
590.7988, 22013.01
591.2809, 22029.72
591.7630, 22019.24
592.2451, 22050.98
592.7272, 22125.86
593.2094, 22219.99
593.6915, 22324.85
594.1736, 22432.49
594.6557, 22523.90
595.1378, 22588.76
595.6199, 22660.89
596.1021, 22762.03
596.5842, 22886.99
597.0663, 23028.92
597.5485, 23210.07
598.0306, 23379.91
598.5127, 23518.86
598.9948, 23631.91
599.4769, 23742.10
599.9590, 23820.78
600.4412, 23934.90
600.9233, 24113.65
601.4054, 24362.82
601.8875, 24598.30
602.3696, 24817.55
602.8517, 25025.41
603.3339, 25210.24
603.8160, 25376.76
604.2981, 25568.87
604.7802, 25789.85
605.2623, 26037.14
605.7444, 26316.23
606.2266, 26619.39
606.7087, 26911.42
607.1908, 27168.13
607.6729, 27427.70
608.1550, 27726.24
608.6371, 28054.46
609.1193, 28392.51
609.6014, 28721.13
610.0835, 29065.57
610.5656, 29435.26
611.0477, 29834.24
611.5298, 30234.34
612.0120, 30629.41
612.4941, 31026.54
612.9762, 31426.92
613.4583, 31830.01
613.9404, 32229.75
614.4225, 32616.44
614.9047, 33013.12
615.3868, 33464.46
615.8689, 33970.50
616.3510, 34482.48
616.8331, 34991.28
617.3152, 35490.99
617.7974, 35983.09
618.2795, 36461.23
618.7616, 36926.36
619.2437, 37346.53
619.7258, 37774.95
620.2079, 38260.91
620.6901, 38804.67
621.1722, 39362.59
621.6543, 39945.93
622.1364, 40522.24
622.6185, 41060.15
623.1006, 41533.92
623.5828, 42032.86
624.0649, 42564.18
624.5470, 43114.05
625.0291, 43666.84
625.5112, 44222.11
625.9933, 44785.89
626.4755, 45356.70
626.9576, 45930.80
627.4397, 46495.20
627.9218, 47050.83
628.4039, 47604.82
628.8860, 48179.49
629.3682, 48746.85
629.8503, 49249.24
630.3324, 49696.37
630.8145, 50147.79
631.2966, 50643.34
631.7787, 51146.37
632.2609, 51637.87
632.7430, 52125.59
633.2251, 52562.38
633.7072, 52909.45
634.1893, 53214.21
634.6714, 53520.88
635.1536, 53854.53
635.6357, 54135.25
636.1178, 54351.29
636.5999, 54514.88
637.0820, 54627.38
637.5641, 54685.06
638.0463, 54776.20
638.5284, 54950.64
639.0105, 55158.41
639.4926, 55310.84
639.9747, 55411.08
640.4568, 55474.33
640.9390, 55485.13
641.4211, 55480.50
641.9032, 55497.60
642.3853, 55538.92
642.8674, 55574.33
643.3495, 55557.95
643.8317, 55554.09
644.3138, 55609.65
644.7959, 55762.46
645.2780, 55913.54
645.7601, 56058.23
646.2422, 56204.66
646.7244, 56370.31
647.2065, 56562.14
647.6886, 56726.05
648.1707, 56840.57
648.6528, 56936.87
649.1349, 57077.79
649.6171, 57259.68
650.0992, 57459.84
650.5813, 57652.37
651.0634, 57866.87
651.5455, 58165.41
652.0276, 58531.99
652.5098, 58866.36
652.9919, 59103.39
653.4740, 59301.38
653.9561, 59486.89
654.4382, 59657.03
654.9203, 59850.45
655.4025, 60107.78
655.8846, 60360.97
656.3667, 60563.61
656.8488, 60709.83
657.3309, 60821.92
657.8130, 60897.01
658.2952, 60946.49
658.7773, 60976.83
659.2594, 60990.72
659.7415, 61025.94
660.2236, 61118.88
660.7057, 61193.25
661.1879, 61115.20
661.6700, 60926.13
662.1521, 60741.94
662.6342, 60673.14
663.1163, 60580.19
663.5984, 60356.26
664.0806, 60015.46
664.5627, 59687.19
665.0448, 59486.89
665.5269, 59230.79
666.0090, 58828.21
666.4911, 58260.31
666.9733, 57714.80
667.4554, 57204.87
667.9375, 56691.20
668.4196, 56136.36
668.9017, 55539.50
669.3839, 54950.29
669.8660, 54376.39
670.3481, 53805.38
670.8302, 53235.71
671.3123, 52659.27
671.7944, 52053.17
672.2766, 51395.57
672.7587, 50740.83
673.2408, 50102.68
673.7229, 49493.28
674.2050, 48923.46
674.6871, 48457.14
675.1693, 47965.63
675.6514, 47387.42
676.1335, 46742.89
676.6156, 46154.60
677.0977, 45647.92
677.5798, 45142.23
678.0620, 44601.54
678.5441, 44028.32
679.0262, 43490.78
679.5083, 42984.59
679.9904, 42511.62
680.4725, 42086.35
680.9547, 41691.46
681.4368, 41288.38
681.9189, 40874.80
682.4010, 40468.13
682.8831, 40085.13
683.3652, 39716.32
683.8474, 39358.23
684.3295, 39026.61
684.8116, 38679.01
685.2937, 38290.02
685.7758, 37889.23
686.2579, 37524.33
686.7401, 37216.39
687.2222, 36885.10
687.7043, 36504.36
688.1864, 36106.71
688.6685, 35773.91
689.1506, 35503.17
689.6328, 35250.89
690.1149, 35005.20
690.5970, 34758.60
691.0791, 34489.11
691.5612, 34202.25
692.0433, 33934.72
692.5255, 33704.53
693.0076, 33494.50
693.4897, 33297.58
693.9718, 33114.28
694.4539, 32928.16
694.9360, 32727.98
695.4182, 32533.29
695.9003, 32353.02
696.3824, 32193.46
696.8645, 32032.09
697.3466, 31867.81
697.8287, 31704.62
698.3109, 31560.54
698.7930, 31425.93
699.2751, 31242.79
699.7572, 30994.55
700.2393, 30726.97
700.7214, 30470.68
701.2036, 30232.07
701.6857, 30022.57
702.1678, 29886.59
702.6499, 29733.32
703.1320, 29520.73
703.6141, 29266.02
704.0963, 29010.83
704.5784, 28756.53
705.0605, 28501.20
705.5426, 28241.95
706.0247, 27980.49
706.5068, 27734.65
706.9890, 27505.89
707.4711, 27270.15
707.9532, 27012.64
708.4353, 26740.45
708.9174, 26470.29
709.3995, 26203.30
709.8817, 25961.51
710.3638, 25786.00
710.8459, 25627.64
711.3280, 25439.08
711.8101, 25207.65
712.2922, 25001.88
712.7744, 24855.71
713.2565, 24729.76
713.7386, 24594.46
714.2207, 24440.54
714.7028, 24300.12
715.1849, 24171.11
715.6671, 24056.92
716.1492, 23965.37
716.6313, 23894.41
717.1134, 23807.80
717.5955, 23697.14
718.0776, 23579.10
718.5598, 23456.64
719.0419, 23345.30
719.5240, 23277.25
720.0061, 23313.03
720.4882, 23333.79
720.9703, 23267.25
721.4525, 23147.01
721.9346, 23049.17
722.4167, 22988.66
722.8988, 22944.74
723.3809, 22922.35
723.8630, 22912.89
724.3452, 22875.85
724.8273, 22805.92
725.3094, 22747.81
725.7915, 22734.48
726.2736, 22744.19
726.7557, 22709.37
727.2379, 22637.27
727.7200, 22584.93
728.2021, 22613.21
728.6842, 22659.90
729.1663, 22668.50
729.6484, 22632.90
730.1306, 22611.68
730.6127, 22616.70
731.0948, 22645.65
731.5769, 22698.36
732.0590, 22781.08
732.5411, 22863.92
733.0233, 22946.91
733.5054, 23029.99
733.9875, 23112.97
734.4696, 23196.28
734.9517, 23276.36
735.4338, 23350.75
735.9160, 23437.06
736.3981, 23571.32
736.8802, 23723.38
737.3623, 23847.62
737.8444, 23922.15
738.3266, 23986.61
738.8087, 24051.87
739.2908, 24118.39
739.7729, 24185.63
740.2551, 24249.37
740.7372, 24324.22
741.2193, 24422.83
741.7014, 24524.22
742.1835, 24578.55
742.6656, 24585.09
743.1478, 24593.46
743.6299, 24635.37
744.1120, 24668.24
744.5941, 24606.41
745.0762, 24476.08
745.5583, 24356.58
746.0405, 24311.64
746.5226, 24266.65
747.0047, 24190.93
747.4868, 24082.67
747.9689, 23937.06
748.4510, 23735.13
748.9332, 23522.55
749.4153, 23314.04
749.8974, 23108.53
750.3795, 22881.02
750.8616, 22630.33
751.3438, 22374.47
751.8259, 22121.34
752.3080, 21873.44
752.7901, 21630.99
753.2722, 21394.80
753.7543, 21160.55
754.2365, 20927.40
754.7186, 20693.32
755.2007, 20461.68
755.6828, 20232.35
756.1649, 19995.75
756.6470, 19735.75
757.1292, 19477.54
757.6113, 19233.66
758.0934, 19002.96
758.5755, 18799.19
759.0576, 18629.44
759.5397, 18456.61
760.0219, 18227.17
760.5040, 17960.70
760.9861, 17726.54
761.4682, 17540.14
761.9503, 17372.50
762.4324, 17215.44
762.9146, 17056.56
763.3967, 16879.06
763.8788, 16658.06
764.3609, 16452.86
764.8430, 16281.80
765.3251, 16128.10
765.8073, 15969.58
766.2894, 15801.55
766.7715, 15651.13
767.2536, 15528.14
767.7357, 15414.95
768.2178, 15277.01
768.7000, 15121.10
769.1821, 14979.73
769.6642, 14868.63
770.1463, 14765.10
770.6284, 14651.56
771.1105, 14531.24
771.5927, 14410.38
772.0748, 14281.22
772.5569, 14162.84
773.0390, 14064.50
773.5211, 13979.46
774.0032, 13891.86
774.4854, 13799.89
774.9675, 13712.02
775.4496, 13630.07
775.9317, 13554.46
776.4138, 13488.08
776.8959, 13430.13
777.3781, 13373.25
777.8602, 13317.70
778.3423, 13258.43
778.8244, 13188.32
779.3065, 13109.60
779.7886, 13031.95
780.2708, 12947.74
780.7529, 12876.91
781.2350, 12829.50
781.7171, 12802.15
782.1992, 12761.37
782.6813, 12703.71
783.1635, 12647.92
783.6456, 12607.18
784.1277, 12575.35
784.6098, 12528.89
785.0919, 12469.29
785.5740, 12410.06
786.0562, 12347.85
786.5383, 12297.76
787.0204, 12283.87
787.5025, 12306.57
787.9846, 12307.80
788.4667, 12253.84
788.9489, 12194.14
789.4310, 12146.49
789.9131, 12111.33
790.3952, 12088.17
790.8773, 12078.73
791.3594, 12074.16
791.8416, 12074.62
792.3237, 12074.15
792.8058, 12047.61
793.2879, 11994.34
793.7700, 11957.22
794.2521, 11990.27
794.7343, 12035.63
795.2164, 12044.79
795.6985, 12005.44
796.1806, 11958.57
796.6627, 11907.54
797.1448, 11852.08
797.6270, 11791.60
798.1091, 11725.37
798.5912, 11653.98
799.0733, 11572.00
799.5554, 11511.13
800.0375, 11533.76
800.5197, 11591.41
801.0018, 11581.95
801.4839, 11484.30
801.9660, 11382.17
802.4481, 11308.99
802.9302, 11264.27
803.4124, 11252.44
803.8945, 11304.53
804.3766, 11319.25
804.8587, 11279.53
805.3408, 11224.95
805.8229, 11196.47
806.3051, 11193.77
806.7872, 11161.79
807.2693, 11091.09
807.7514, 11019.42
808.2335, 10992.11
808.7156, 10986.30
809.1978, 10967.53
809.6799, 10926.77
810.1620, 10879.10
810.6441, 10831.60
811.1262, 10779.30
811.6083, 10717.70
812.0905, 10643.29
812.5726, 10564.06
813.0547, 10473.44
813.5368, 10392.44
814.0189, 10360.39
814.5010, 10365.69
814.9832, 10334.72
815.4653, 10249.65
815.9474, 10158.05
816.4295, 10103.51
816.9116, 10067.82
817.3937, 10028.70
817.8759, 9981.623
818.3580, 9929.868
818.8401, 9872.501
819.3222, 9812.278
819.8043, 9747.859
820.2864, 9673.852
820.7686, 9625.058
821.2507, 9611.986
821.7328, 9603.374
822.2149, 9548.833
822.6970, 9467.923
823.1791, 9407.749
823.6613, 9378.756
824.1434, 9374.441
824.6255, 9401.504
825.1076, 9446.299
825.5897, 9493.213
826.0718, 9544.684
826.5540, 9590.389
827.0361, 9624.830
827.5182, 9660.562
828.0003, 9709.644
828.4824, 9771.779
828.9645, 9861.022
829.4467, 9982.611
829.9288, 10116.60
830.4109, 10236.92
830.8930, 10355.14
831.3751, 10489.85
831.8572, 10642.13
832.3394, 10817.08
832.8215, 11025.59
833.3036, 11255.41
833.7857, 11492.72
834.2678, 11730.82
834.7499, 11994.31
835.2321, 12298.04
835.7142, 12592.37
836.1963, 12831.58
836.6784, 13011.68
837.1605, 13114.66
837.6426, 13140.67
838.1248, 13069.30
838.6069, 12864.65
839.0890, 12562.96
839.5711, 12202.59
840.0532, 11757.75
840.5353, 11311.58
841.0175, 10848.39
841.4996, 10406.46
841.9817, 10033.08
842.4638, 9728.339
842.9459, 9447.355
843.4280, 9186.970
843.9102, 8944.590
844.3923, 8704.397
844.8744, 8483.782
845.3565, 8318.917
845.8386, 8226.710
846.3207, 8148.032
846.8029, 8054.005
847.2850, 7966.936
847.7671, 7908.826
848.2492, 7900.132
848.7313, 7862.277
849.2134, 7787.673
849.6956, 7703.890
850.1777, 7633.695
850.6598, 7576.504
851.1419, 7532.861
851.6240, 7503.777
852.1061, 7476.951
852.5883, 7443.430
853.0704, 7407.164
853.5525, 7369.974
854.0346, 7329.348
854.5167, 7299.426
854.9988, 7290.537
855.4810, 7279.797
855.9631, 7248.075
856.4452, 7194.802
856.9273, 7146.675
857.4094, 7104.070
857.8915, 7071.873
858.3737, 7065.978
858.8558, 7067.716
859.3379, 7049.922
859.8200, 7007.945
860.3021, 6972.162
860.7842, 6968.042
861.2664, 6961.458
861.7485, 6930.489
862.2306, 6870.844
862.7127, 6830.202
863.1948, 6812.046
863.6769, 6796.124
864.1591, 6755.329
864.6412, 6708.803
865.1233, 6713.811
865.6054, 6767.160
866.0875, 6804.805
866.5696, 6778.815
867.0518, 6733.250
867.5339, 6690.299
868.0160, 6651.366
868.4981, 6629.208
868.9802, 6633.538
869.4623, 6633.437
869.9445, 6608.266
870.4266, 6567.200
870.9087, 6555.576
871.3908, 6571.158
871.8729, 6591.287
872.3550, 6602.729
872.8372, 6612.457
873.3193, 6625.981
873.8014, 6643.113
874.2835, 6661.090
874.7656, 6671.637
875.2477, 6692.815
875.7299, 6731.817
876.2120, 6784.294
876.6941, 6833.761
877.1762, 6880.022
877.6583, 6932.656
878.1404, 6997.645
878.6226, 7068.625
879.1047, 7135.082
879.5869, 7200.435
880.0690, 7275.063
880.5511, 7370.620
881.0332, 7467.112
881.5153, 7564.544
881.9974, 7657.167
882.4796, 7741.568
882.9617, 7824.850
883.4438, 7857.819
883.9259, 7823.954
884.4080, 7744.322
884.8901, 7632.208
885.3723, 7501.738
885.8544, 7386.978
886.3365, 7316.158
886.8186, 7237.902
887.3007, 7109.843
887.7828, 6970.560
888.2650, 6874.258
888.7471, 6835.120
889.2292, 6804.217
889.7113, 6776.572
890.1934, 6758.584
890.6755, 6756.970
891.1577, 6771.578
891.6398, 6800.661
892.1219, 6842.306
892.6040, 6905.686
893.0861, 7015.603
893.5682, 7138.672
894.0504, 7238.722
894.5325, 7281.496
895.0146, 7377.678
895.4967, 7534.500
895.9788, 7730.683
896.4609, 7947.099
896.9431, 8185.595
897.4252, 8449.605
897.9073, 8739.437
898.3894, 9069.377
898.8715, 9452.038
899.3536, 9884.843
899.8358, 10371.55
900.3179, 10908.54
900.8000, 11500.33
901.2821, 12124.73
901.7642, 12822.14
902.2463, 13626.11
902.7285, 14518.19
903.2106, 15453.45
903.6927, 16430.97
904.1748, 17507.03
904.6569, 18751.56
905.1390, 20099.26
905.6212, 21486.21
906.1033, 22908.23
906.5854, 24440.99
907.0675, 26178.89
907.5496, 27929.47
908.0317, 29657.81
908.5139, 31354.99
908.9960, 33115.29
909.4781, 34932.27
909.9602, 36417.79
910.4423, 37542.03
910.9244, 38074.20
911.4066, 37693.36
911.8887, 36521.75
912.3708, 34769.13
912.8529, 32141.65
913.3350, 29383.16
913.8171, 26505.90
914.2993, 23679.38
914.7814, 21115.91
915.2635, 18811.44
915.7456, 16841.90
916.2277, 15236.67
916.7098, 13881.79
917.1920, 12703.18
917.6741, 11682.94
918.1562, 10809.39
918.6383, 10105.55
919.1204, 9486.799
919.6025, 8950.641
920.0847, 8477.728
920.5668, 8057.425
921.0489, 7689.003
921.5310, 7373.336
922.0131, 7113.526
922.4952, 6888.856
922.9774, 6688.546
923.4595, 6510.945
923.9416, 6351.408
924.4237, 6211.021
924.9058, 6097.754
925.3879, 6038.733
925.8701, 5982.099
926.3522, 5903.555
926.8343, 5806.210
927.3164, 5714.974
927.7985, 5628.121
928.2806, 5559.492
928.7628, 5524.129
929.2449, 5503.348
929.7270, 5468.878
930.2091, 5424.577
930.6912, 5379.883
931.1733, 5332.745
931.6555, 5293.313
932.1376, 5267.318
932.6197, 5250.076
933.1018, 5237.900
933.5839, 5233.309
934.0660, 5211.729
934.5482, 5164.724
935.0303, 5111.308
935.5124, 5070.554
935.9945, 5041.505
936.4766, 5025.910
936.9587, 5033.694
937.4409, 5027.140
937.9230, 4978.666
938.4051, 4922.558
938.8872, 4886.042
939.3693, 4873.279
939.8514, 4851.166
940.3336, 4817.721
940.8157, 4790.568
941.2978, 4794.405
941.7799, 4808.627
942.2620, 4800.774
942.7441, 4770.157
943.2263, 4740.878
943.7084, 4725.400
944.1905, 4710.429
944.6726, 4690.745
945.1547, 4667.011
945.6368, 4643.349
946.1190, 4619.599
946.6011, 4595.041
947.0832, 4566.138
947.5653, 4539.716
948.0474, 4528.388
948.5295, 4526.176
949.0117, 4519.180
949.4938, 4498.452
949.9759, 4477.513
950.4580, 4457.271
950.9401, 4439.325
951.4222, 4427.556
951.9044, 4422.051
952.3865, 4414.352
952.8686, 4403.001
953.3507, 4389.750
953.8328, 4375.362
954.3149, 4360.705
954.7971, 4346.446
955.2792, 4332.414
955.7613, 4321.187
956.2434, 4315.070
956.7255, 4309.394
957.2076, 4300.002
957.6898, 4287.173
958.1719, 4284.785
958.6540, 4292.598
959.1361, 4295.851
959.6182, 4277.244
960.1003, 4255.036
960.5825, 4244.047
961.0646, 4244.259
961.5467, 4252.498
962.0288, 4281.535
962.5109, 4297.398
962.9930, 4288.552
963.4752, 4264.474
963.9573, 4247.141
964.4394, 4235.901
964.9215, 4225.360
965.4036, 4211.730
965.8857, 4202.360
966.3679, 4208.217
966.8500, 4219.726
967.3321, 4224.171
967.8142, 4214.478
968.2963, 4207.047
968.7784, 4201.844
969.2606, 4199.231
969.7427, 4201.287
970.2248, 4206.348
970.7069, 4206.911
971.1890, 4202.499
971.6711, 4201.403
972.1533, 4212.288
972.6354, 4225.654
973.1175, 4234.523
973.5996, 4238.805
974.0817, 4247.916
974.5638, 4265.759
975.0460, 4273.475
975.5281, 4255.949
976.0102, 4230.154
976.4923, 4235.814
976.9744, 4264.011
977.4565, 4288.553
977.9387, 4298.527
978.4208, 4302.301
978.9029, 4297.548
979.3850, 4290.693
979.8671, 4289.657
980.3492, 4294.287
980.8314, 4308.950
981.3135, 4337.346
981.7956, 4361.388
982.2777, 4354.977
982.7598, 4334.651
983.2419, 4323.475
983.7241, 4325.360
984.2062, 4332.202
984.6883, 4342.048
985.1704, 4356.395
985.6525, 4377.793
986.1346, 4405.192
986.6168, 4426.813
987.0989, 4442.821
987.5810, 4458.475
988.0631, 4480.612
988.5452, 4500.626
989.0273, 4504.026
989.5095, 4498.920
989.9916, 4506.810
990.4737, 4558.486
990.9558, 4577.651
991.4379, 4540.343
991.9200, 4488.307
992.4022, 4494.102
992.8843, 4543.761
993.3664, 4574.900
993.8485, 4572.983
994.3306, 4569.860
994.8127, 4590.582
995.2949, 4617.671
995.7770, 4635.889
996.2591, 4643.541
996.7412, 4647.833
997.2233, 4646.689
997.7054, 4649.614
998.1876, 4664.426
998.6697, 4686.503
999.1518, 4706.475
999.6339, 4724.854
1000.116, 4743.923
1000.598, 4765.545
1001.080, 4787.333
1001.562, 4810.924
1002.044, 4833.218
1002.527, 4848.930
1003.009, 4857.775
1003.491, 4861.310
1003.973, 4858.467
1004.455, 4855.729
1004.937, 4861.115
1005.419, 4870.460
1005.901, 4878.106
1006.384, 4881.912
1006.866, 4888.899
1007.348, 4899.309
1007.830, 4913.668
1008.312, 4935.438
1008.794, 4961.786
1009.276, 4971.352
1009.758, 4966.842
1010.240, 4970.978
1010.723, 5001.376
1011.205, 5040.307
1011.687, 5085.518
1012.169, 5129.650
1012.651, 5153.715
1013.133, 5150.227
1013.615, 5148.117
1014.097, 5150.700
1014.580, 5158.645
1015.062, 5171.902
1015.544, 5191.254
1016.026, 5221.683
1016.508, 5267.121
1016.990, 5304.308
1017.472, 5306.729
1017.954, 5315.152
1018.436, 5362.459
1018.919, 5444.539
1019.401, 5465.938
1019.883, 5426.472
1020.365, 5397.077
1020.847, 5430.740
1021.329, 5483.933
1021.811, 5514.392
1022.293, 5530.125
1022.776, 5551.869
1023.258, 5591.310
1023.740, 5624.544
1024.222, 5650.019
1024.704, 5667.280
1025.186, 5668.039
1025.668, 5659.731
1026.150, 5671.938
1026.632, 5710.620
1027.115, 5744.237
1027.597, 5750.231
1028.079, 5747.355
1028.561, 5744.320
1029.043, 5741.930
1029.525, 5758.835
1030.007, 5797.257
1030.489, 5833.900
1030.972, 5854.408
1031.454, 5871.270
1031.936, 5911.392
1032.418, 5960.604
1032.900, 5988.057
1033.382, 5957.285
1033.864, 5943.071
1034.346, 5960.294
1034.828, 5986.371
1035.311, 5992.734
1035.793, 5983.709
1036.275, 5989.281
1036.757, 6011.977
1037.239, 6036.394
1037.721, 6059.217
1038.203, 6073.390
1038.685, 6068.639
1039.167, 6047.552
1039.650, 6035.973
1040.132, 6035.663
1040.614, 6037.858
1041.096, 6040.397
1041.578, 6042.598
1042.060, 6041.750
1042.542, 6040.081
1043.024, 6042.678
1043.507, 6058.673
1043.989, 6062.667
1044.471, 6036.089
1044.953, 6012.500
1045.435, 6028.543
1045.917, 6078.550
1046.399, 6075.964
1046.881, 6022.133
1047.364, 5977.930
1047.846, 6009.112
1048.328, 6041.282
1048.810, 6013.649
1049.292, 5940.852
1049.774, 5896.513
1050.256, 5888.858
1050.738, 5884.242
1051.220, 5878.869
1051.703, 5866.188
1052.185, 5829.523
1052.667, 5781.843
1053.149, 5744.419
1053.631, 5721.539
1054.113, 5708.917
1054.595, 5717.709
1055.077, 5722.734
1055.559, 5714.305
1056.042, 5691.465
1056.524, 5636.507
1057.006, 5554.381
1057.488, 5485.561
1057.970, 5463.870
1058.452, 5450.268
1058.934, 5418.246
1059.416, 5377.822
1059.899, 5350.128
1060.381, 5342.584
1060.863, 5321.551
1061.345, 5282.741
1061.827, 5236.512
1062.309, 5189.800
1062.791, 5143.716
1063.273, 5098.697
1063.755, 5054.677
1064.238, 5019.910
1064.720, 5011.113
1065.202, 4991.691
1065.684, 4946.845
1066.166, 4887.361
1066.648, 4843.710
1067.130, 4813.738
1067.612, 4784.318
1068.094, 4751.939
1068.577, 4717.649
1069.059, 4681.660
1069.541, 4643.922
1070.023, 4603.799
1070.505, 4560.545
1070.987, 4515.765
1071.469, 4467.795
1071.951, 4428.953
1072.434, 4414.077
1072.916, 4407.887
1073.398, 4396.470
1073.880, 4378.256
1074.362, 4349.468
1074.844, 4307.524
1075.326, 4255.013
1075.808, 4184.964
1076.291, 4116.302
1076.773, 4078.163
1077.255, 4062.335
1077.737, 4048.063
1078.219, 4032.754
1078.701, 4015.434
1079.183, 3996.454
1079.665, 3974.553
1080.147, 3948.609
1080.630, 3919.311
1081.112, 3888.598
1081.594, 3856.671
1082.076, 3829.604
1082.558, 3809.447
1083.040, 3795.464
1083.522, 3799.903
1084.004, 3804.363
1084.486, 3781.004
1084.969, 3710.607
1085.451, 3661.010
1085.933, 3636.727
1086.415, 3617.818
1086.897, 3585.755
1087.379, 3550.688
1087.861, 3534.562
1088.343, 3532.708
1088.826, 3523.868
1089.308, 3493.311
1089.790, 3464.223
1090.272, 3439.228
1090.754, 3419.513
1091.236, 3410.000
1091.718, 3407.973
1092.200, 3400.857
1092.682, 3386.719
1093.165, 3369.662
1093.647, 3348.503
1094.129, 3328.844
1094.611, 3317.362
1095.093, 3311.405
1095.575, 3285.907
1096.057, 3239.452
1096.539, 3210.427
1097.022, 3221.240
1097.504, 3239.858
1097.986, 3236.936
1098.468, 3219.757
1098.950, 3197.376
1099.432, 3167.364
1099.914, 3142.151
1100.396, 3122.544
1100.879, 3106.511
1101.361, 3093.836
1101.843, 3083.354
1102.325, 3070.336
1102.807, 3056.833
1103.289, 3050.699
1103.771, 3065.919
1104.253, 3073.243
1104.735, 3065.060
1105.218, 3050.703
1105.700, 3045.028
1106.182, 3045.056
1106.664, 3034.489
1107.146, 3011.218
1107.628, 2991.259
1108.110, 2988.192
1108.592, 2987.225
1109.074, 2979.844
1109.557, 2967.672
1110.039, 2959.134
1110.521, 2954.286
1111.003, 2941.085
1111.485, 2911.960
1111.967, 2886.298
1112.449, 2882.916
1112.931, 2893.236
1113.414, 2912.772
1113.896, 2947.243
1114.378, 2949.979
1114.860, 2912.747
1115.342, 2879.830
1115.824, 2880.002
1116.306, 2896.308
1116.788, 2904.267
1117.271, 2906.819
1117.753, 2910.635
1118.235, 2921.806
1118.717, 2927.976
1119.199, 2927.793
1119.681, 2923.831
1120.163, 2915.825
1120.645, 2906.497
1121.127, 2905.993
1121.609, 2913.558
1122.092, 2918.246
1122.574, 2910.406
1123.056, 2903.832
1123.538, 2903.300
1124.020, 2906.488
1124.502, 2910.018
1124.984, 2913.508
1125.466, 2913.600
1125.949, 2909.610
1126.431, 2902.981
1126.913, 2891.053
1127.395, 2879.977
1127.877, 2873.050
1128.359, 2870.534
1128.841, 2880.752
1129.323, 2905.219
1129.806, 2913.217
1130.288, 2886.197
1130.770, 2854.300
1131.252, 2846.410
1131.734, 2852.950
1132.216, 2863.080
1132.698, 2878.340
1133.180, 2885.608
1133.662, 2883.708
1134.145, 2878.505
1134.627, 2869.588
1135.109, 2862.397
1135.591, 2869.938
1136.073, 2886.035
1136.555, 2894.858
1137.037, 2885.145
1137.519, 2877.764
1138.001, 2874.108
1138.484, 2872.682
1138.966, 2873.666
1139.448, 2875.270
1139.930, 2872.554
1140.412, 2865.642
1140.894, 2858.573
1141.376, 2847.340
1141.858, 2844.087
1142.341, 2854.781
1142.823, 2871.542
1143.305, 2881.393
1143.787, 2884.774
1144.269, 2882.210
1144.751, 2873.008
1145.233, 2866.805
1145.715, 2876.242
1146.198, 2882.785
1146.680, 2876.496
1147.162, 2859.235
1147.644, 2834.566
1148.126, 2804.016
1148.608, 2791.191
1149.090, 2810.232
1149.572, 2830.295
1150.054, 2827.362
1150.536, 2814.758
1151.019, 2803.486
1151.501, 2793.427
1151.983, 2796.449
1152.465, 2813.483
1152.947, 2820.925
1153.429, 2797.729
1153.911, 2768.621
1154.393, 2757.715
1154.876, 2757.248
1155.358, 2753.563
1155.840, 2743.042
1156.322, 2738.825
1156.804, 2743.192
1157.286, 2742.641
1157.768, 2721.752
1158.250, 2692.871
1158.733, 2669.241
1159.215, 2651.154
1159.697, 2637.356
1160.179, 2628.448
1160.661, 2622.383
1161.143, 2620.478
1161.625, 2616.890
1162.107, 2604.736
1162.589, 2586.219
1163.072, 2562.589
1163.554, 2534.659
1164.036, 2512.791
1164.518, 2503.019
1165.000, 2493.856
1165.482, 2482.286
1165.964, 2470.581
1166.446, 2466.043
1166.928, 2464.012
1167.411, 2451.258
1167.893, 2422.744
1168.375, 2402.970
1168.857, 2408.427
1169.339, 2413.656
1169.821, 2410.788
1170.303, 2399.773
1170.785, 2373.800
1171.268, 2339.133
1171.750, 2316.491
1172.232, 2317.004
1172.714, 2318.755
1173.196, 2314.671
1173.678, 2307.548
1174.160, 2298.811
1174.642, 2288.414
1175.125, 2274.969
1175.607, 2259.516
1176.089, 2248.498
1176.571, 2248.188
1177.053, 2248.480
1177.535, 2248.188
1178.017, 2243.791
1178.499, 2227.727
1178.981, 2200.229
1179.464, 2196.867
1179.946, 2216.216
1180.428, 2230.504
1180.910, 2216.913
1181.392, 2199.442
1181.874, 2190.370
1182.356, 2185.654
1182.838, 2177.471
1183.320, 2165.357
1183.803, 2164.993
1184.285, 2178.015
1184.767, 2187.956
1185.249, 2179.328
1185.731, 2166.404
1186.213, 2156.836
1186.695, 2151.198
1187.177, 2151.324
1187.660, 2157.812
1188.142, 2160.490
1188.624, 2157.345
1189.106, 2153.100
1189.588, 2152.317
1190.070, 2151.836
1190.552, 2148.235
1191.034, 2142.166
1191.516, 2139.302
1191.999, 2140.075
1192.481, 2139.712
1192.963, 2136.854
1193.445, 2133.026
1193.927, 2127.449
1194.409, 2123.228
1194.891, 2124.588
1195.373, 2131.859
1195.855, 2136.051
1196.338, 2136.531
1196.820, 2140.388
1197.302, 2153.506
1197.784, 2164.506
1198.266, 2154.566
1198.748, 2138.418
1199.230, 2135.929
1199.712, 2151.499
1200.195, 2163.371
1200.677, 2170.751
1201.159, 2180.537
1201.641, 2202.015
1202.123, 2220.574
1202.605, 2209.028
1203.087, 2186.696
1203.569, 2187.507
1204.052, 2227.516
1204.534, 2249.913
1205.016, 2252.306
1205.498, 2252.439
1205.980, 2268.511
1206.462, 2284.260
1206.944, 2274.842
1207.426, 2251.551
1207.908, 2241.882
1208.391, 2255.741
1208.873, 2261.070
1209.355, 2256.103
1209.837, 2245.149
1210.319, 2227.931
1210.801, 2209.882
1211.283, 2199.242
1211.765, 2193.452
1212.247, 2182.587
1212.730, 2162.793
1213.212, 2148.962
1213.694, 2143.785
1214.176, 2139.311
1214.658, 2128.159
1215.140, 2112.963
1215.622, 2093.399
1216.104, 2071.619
1216.587, 2059.346
1217.069, 2058.006
1217.551, 2064.514
1218.033, 2081.235
1218.515, 2093.255
1218.997, 2076.381
1219.479, 2050.782
1219.961, 2040.146
1220.443, 2045.446
1220.926, 2047.415
1221.408, 2044.267
1221.890, 2042.228
1222.372, 2043.446
1222.854, 2043.762
1223.336, 2035.353
1223.818, 2025.062
1224.300, 2021.140
1224.782, 2024.897
1225.265, 2028.584
1225.747, 2032.634
1226.229, 2034.222
1226.711, 2032.267
1227.193, 2028.104
1227.675, 2021.375
1228.157, 2014.505
1228.639, 2010.778
1229.122, 2010.825
1229.604, 2010.705
1230.086, 2010.661
1230.568, 2008.488
1231.050, 2001.980
1231.532, 1995.845
1232.014, 1996.561
1232.496, 2000.243
1232.979, 2002.771
1233.461, 2004.173
1233.943, 1999.246
1234.425, 1987.078
1234.907, 1978.388
1235.389, 1980.611
1235.871, 1984.594
1236.353, 1979.721
1236.835, 1971.916
1237.318, 1970.572
1237.800, 1978.154
1238.282, 1973.153
1238.764, 1954.901
1239.246, 1938.656
1239.728, 1934.519
1240.210, 1934.120
1240.692, 1931.915
1241.175, 1928.552
1241.657, 1926.072
1242.139, 1926.152
1242.621, 1911.306
1243.103, 1881.176
1243.585, 1863.124
1244.067, 1889.444
1244.549, 1916.360
1245.031, 1911.200
1245.514, 1889.875
1245.996, 1875.203
1246.478, 1867.472
1246.960, 1861.742
1247.442, 1857.821
1247.924, 1853.905
1248.406, 1844.779
1248.888, 1839.908
1249.370, 1848.842
1249.853, 1862.700
1250.335, 1871.249
1250.817, 1874.397
1251.299, 1869.841
1251.781, 1857.788
1252.263, 1842.797
1252.745, 1817.478
1253.227, 1802.249
1253.710, 1815.876
1254.192, 1836.660
1254.674, 1832.975
1255.156, 1810.048
1255.638, 1809.411
1256.120, 1831.359
1256.602, 1848.723
1257.084, 1840.037
1257.567, 1832.721
1258.049, 1837.328
1258.531, 1845.492
1259.013, 1845.071
1259.495, 1838.321
1259.977, 1832.874
1260.459, 1829.374
1260.941, 1827.436
1261.423, 1829.767
1261.906, 1829.826
1262.388, 1826.594
1262.870, 1819.914
1263.352, 1805.333
1263.834, 1788.458
1264.316, 1785.591
1264.798, 1796.644
1265.280, 1801.382
1265.762, 1789.186
1266.245, 1776.704
1266.727, 1765.175
1267.209, 1758.182
1267.691, 1767.026
1268.173, 1780.662
1268.655, 1777.906
1269.137, 1758.228
1269.619, 1746.992
1270.102, 1751.778
1270.584, 1750.983
1271.066, 1738.770
1271.548, 1724.364
1272.030, 1721.646
1272.512, 1722.142
1272.994, 1713.605
1273.476, 1696.398
1273.958, 1689.940
1274.441, 1698.264
1274.923, 1698.538
1275.405, 1683.808
1275.887, 1668.851
1276.369, 1671.111
1276.851, 1678.972
1277.333, 1684.257
1277.815, 1685.292
1278.297, 1673.631
1278.780, 1648.379
1279.262, 1632.745
1279.744, 1633.605
1280.226, 1636.126
1280.708, 1628.959
1281.190, 1618.191
1281.672, 1607.101
1282.154, 1596.329
1282.637, 1588.631
1283.119, 1583.618
1283.601, 1577.302
1284.083, 1568.192
1284.565, 1561.830
1285.047, 1565.677
1285.529, 1568.445
1286.011, 1564.175
1286.494, 1555.338
1286.976, 1547.678
1287.458, 1541.610
1287.940, 1541.467
1288.422, 1550.183
1288.904, 1546.966
1289.386, 1506.140
1289.868, 1477.721
1290.350, 1483.969
1290.833, 1503.613
1291.315, 1492.823
1291.797, 1464.004
1292.279, 1440.604
1292.761, 1427.024
1293.243, 1418.335
1293.725, 1416.355
1294.207, 1410.736
1294.689, 1395.918
1295.172, 1380.894
1295.654, 1383.430
1296.136, 1391.264
1296.618, 1386.176
1297.100, 1364.012
1297.582, 1352.582
1298.064, 1354.208
1298.546, 1350.523
1299.029, 1333.937
1299.511, 1316.115
##END=



