##NAMES=Schiavinatoite
##RRUFFID=R090010
##IDEAL CHEMISTRY=Nb^5+^BO_4_
##LOCALITY=Antsongombato, south of Betafo, south of Mahaiz, Madagascar
##OWNER=RRUFF
##SOURCE=William W. Pinch
##DESCRIPTION=Dark brown vitreous dipyramidal crystal on white microcline matrix associated with pink tourmaline
##STATUS=The identification of this mineral has been confirmed only by single crystal X-ray diffraction.
##URL=rruff.info/R090010
91.40820, 6.241683
91.89032, 6.242004
92.37244, 6.205968
92.85455, 6.149585
93.33667, 6.168181
93.81879, 6.348081
94.30090, 6.659142
94.78302, 6.906920
95.26514, 6.701660
95.74725, 6.690789
96.22937, 9.236922
96.71149, 14.61224
97.19360, 19.20641
97.67572, 18.64068
98.15784, 13.01964
98.63995, 8.243172
99.12207, 6.088531
99.60419, 6.295822
100.0863, 6.438228
100.5684, 6.493691
101.0505, 6.528870
101.5327, 6.484656
102.0148, 6.152108
102.4969, 6.459980
102.9790, 7.873793
103.4611, 10.62213
103.9432, 13.30262
104.4253, 16.49709
104.9075, 19.28937
105.3896, 19.55658
105.8717, 15.39868
106.3538, 11.29516
106.8359, 8.917487
107.3180, 9.356023
107.8002, 9.663975
108.2823, 9.611964
108.7644, 9.384536
109.2465, 9.665492
109.7286, 11.08749
110.2107, 12.56016
110.6929, 13.63814
111.1750, 13.79369
111.6571, 14.11454
112.1392, 14.70495
112.6213, 15.54772
113.1034, 16.50861
113.5856, 17.44642
114.0677, 18.57311
114.5498, 20.02813
115.0319, 22.13624
115.5140, 24.30676
115.9961, 26.35222
116.4783, 28.26985
116.9604, 30.18849
117.4425, 32.15144
117.9246, 34.16626
118.4067, 36.22347
118.8888, 38.52514
119.3710, 40.73846
119.8531, 42.64366
120.3352, 44.19962
120.8173, 45.65900
121.2994, 47.03028
121.7815, 48.40543
122.2637, 49.95122
122.7458, 51.72607
123.2279, 53.70340
123.7100, 55.86071
124.1921, 58.20247
124.6742, 60.69566
125.1564, 63.37964
125.6385, 66.20888
126.1206, 69.05138
126.6027, 71.59807
127.0848, 74.12076
127.5669, 77.18069
128.0491, 81.05164
128.5312, 85.08968
129.0133, 88.32045
129.4954, 90.78726
129.9775, 93.16035
130.4596, 96.15713
130.9418, 99.50139
131.4239, 102.1671
131.9060, 103.7850
132.3881, 104.7843
132.8702, 106.0558
133.3523, 107.6064
133.8345, 109.3936
134.3166, 111.5580
134.7987, 114.1105
135.2808, 116.2698
135.7629, 117.7217
136.2450, 118.6852
136.7272, 120.2341
137.2093, 122.4662
137.6914, 125.0031
138.1735, 127.5281
138.6556, 130.0499
139.1377, 132.4405
139.6199, 134.7346
140.1020, 136.9118
140.5841, 138.6790
141.0662, 139.8284
141.5483, 140.8190
142.0304, 142.2074
142.5126, 144.0193
142.9947, 146.0857
143.4768, 147.8964
143.9589, 149.1169
144.4410, 150.5490
144.9231, 152.3186
145.4053, 154.2213
145.8874, 155.9819
146.3695, 157.5314
146.8516, 159.0433
147.3337, 160.6316
147.8158, 162.6910
148.2980, 163.9116
148.7801, 163.9544
149.2622, 163.2522
149.7443, 162.6595
150.2264, 161.7356
150.7085, 161.2945
151.1907, 161.6869
151.6728, 163.8735
152.1549, 165.2778
152.6370, 165.4341
153.1191, 164.7671
153.6012, 164.3131
154.0834, 164.0638
154.5655, 164.0963
155.0476, 164.4739
155.5297, 165.7616
156.0118, 166.6192
156.4939, 166.5440
156.9761, 165.8271
157.4582, 165.4406
157.9403, 165.6679
158.4224, 166.2346
158.9045, 166.9872
159.3866, 167.9365
159.8688, 169.0053
160.3509, 170.0397
160.8330, 171.1176
161.3151, 172.6097
161.7972, 175.2909
162.2793, 178.1060
162.7615, 180.2463
163.2436, 180.8729
163.7257, 181.3745
164.2078, 182.2881
164.6899, 183.5823
165.1720, 185.0521
165.6541, 186.4958
166.1363, 188.0993
166.6184, 190.0459
167.1005, 192.6984
167.5826, 195.4682
168.0647, 198.1684
168.5468, 200.7772
169.0290, 203.0080
169.5111, 204.1323
169.9932, 204.9017
170.4753, 206.3167
170.9574, 209.3218
171.4395, 212.7492
171.9217, 215.5277
172.4038, 217.6568
172.8859, 219.9672
173.3680, 223.2157
173.8501, 227.0619
174.3322, 230.9670
174.8144, 235.0217
175.2965, 238.9036
175.7786, 241.9384
176.2607, 244.1205
176.7428, 246.2532
177.2249, 249.2297
177.7071, 252.7209
178.1892, 255.9952
178.6713, 258.3772
179.1534, 260.4302
179.6355, 263.1556
180.1176, 266.6511
180.5998, 270.3661
181.0819, 273.9810
181.5640, 277.4066
182.0461, 280.4653
182.5282, 282.6545
183.0103, 284.4238
183.4925, 286.7787
183.9746, 289.7645
184.4567, 293.2158
184.9388, 297.1954
185.4209, 301.6225
185.9030, 305.7580
186.3852, 309.0010
186.8673, 311.6451
187.3494, 315.0271
187.8315, 319.4020
188.3136, 323.7821
188.7957, 326.9341
189.2779, 328.8863
189.7600, 330.3354
190.2421, 331.4188
190.7242, 332.2078
191.2063, 333.2188
191.6884, 334.5743
192.1706, 335.8812
192.6527, 336.6382
193.1348, 336.8363
193.6169, 336.4819
194.0990, 335.2228
194.5811, 333.1549
195.0633, 331.8190
195.5454, 331.4495
196.0275, 331.4902
196.5096, 330.8363
196.9917, 329.4100
197.4738, 328.1367
197.9560, 327.6429
198.4381, 327.9355
198.9202, 327.8278
199.4023, 327.1321
199.8844, 326.2278
200.3665, 326.0307
200.8487, 326.7044
201.3308, 327.1373
201.8129, 326.5724
202.2950, 324.9027
202.7771, 323.7642
203.2592, 323.4081
203.7414, 323.3859
204.2235, 322.8131
204.7056, 321.7201
205.1877, 319.9774
205.6698, 317.3588
206.1519, 313.7102
206.6341, 310.1628
207.1162, 306.8433
207.5983, 303.5986
208.0804, 300.0868
208.5625, 296.2787
209.0446, 292.3965
209.5268, 288.4847
210.0089, 284.4662
210.4910, 280.8202
210.9731, 277.6602
211.4552, 274.8007
211.9373, 271.7841
212.4195, 268.4641
212.9016, 265.3950
213.3837, 262.9106
213.8658, 261.1775
214.3479, 259.3926
214.8300, 257.4795
215.3121, 255.5271
215.7943, 253.7028
216.2764, 251.9170
216.7585, 250.4701
217.2406, 249.5596
217.7227, 249.4077
218.2048, 249.0602
218.6870, 248.3551
219.1691, 247.5234
219.6512, 247.1057
220.1333, 247.2139
220.6154, 247.5264
221.0975, 247.9434
221.5797, 248.5298
222.0618, 248.9919
222.5439, 249.1691
223.0260, 249.3024
223.5081, 250.0517
223.9902, 251.9340
224.4724, 253.5332
224.9545, 254.0468
225.4366, 252.7129
225.9187, 252.5959
226.4008, 254.2009
226.8829, 256.7901
227.3651, 258.7753
227.8472, 259.8507
228.3293, 260.8668
228.8114, 262.1799
229.2935, 263.9391
229.7757, 265.5418
230.2578, 267.0986
230.7399, 268.4236
231.2220, 269.1303
231.7041, 268.9606
232.1862, 268.5595
232.6684, 268.0965
233.1505, 267.4703
233.6326, 267.1549
234.1147, 267.5068
234.5968, 267.9756
235.0789, 267.5208
235.5611, 265.7550
236.0432, 263.7011
236.5253, 261.5962
237.0074, 259.3896
237.4895, 257.4630
237.9716, 255.9699
238.4538, 254.6657
238.9359, 253.1816
239.4180, 251.5327
239.9001, 249.6541
240.3822, 247.5059
240.8643, 245.0901
241.3465, 242.4780
241.8286, 239.5492
242.3107, 236.5076
242.7928, 233.6301
243.2749, 230.9098
243.7570, 228.3674
244.2392, 226.0797
244.7213, 224.1208
245.2034, 221.8933
245.6855, 219.2438
246.1676, 216.4391
246.6497, 213.7922
247.1319, 211.2727
247.6140, 208.9828
248.0961, 207.0438
248.5782, 205.5188
249.0603, 203.6614
249.5424, 201.1986
250.0246, 198.6516
250.5067, 196.5811
250.9888, 195.1939
251.4709, 193.8702
251.9530, 192.4193
252.4351, 190.8063
252.9173, 189.6119
253.3994, 189.0154
253.8815, 188.5980
254.3636, 187.9733
254.8457, 187.1419
255.3278, 186.0810
255.8100, 184.6296
256.2921, 182.8044
256.7742, 181.5571
257.2563, 181.0920
257.7384, 180.9296
258.2205, 180.6756
258.7026, 180.2574
259.1848, 179.9416
259.6669, 179.8383
260.1490, 179.9037
260.6311, 179.7273
261.1132, 179.2013
261.5953, 178.6186
262.0775, 178.1911
262.5596, 177.9286
263.0417, 177.8006
263.5238, 177.8716
264.0059, 178.0740
264.4880, 178.0691
264.9702, 177.7925
265.4523, 177.4256
265.9344, 177.0113
266.4165, 176.4270
266.8986, 176.2362
267.3807, 176.5454
267.8629, 177.2539
268.3450, 178.1211
268.8271, 179.3179
269.3092, 180.2796
269.7913, 180.6206
270.2734, 180.1730
270.7556, 179.9018
271.2377, 179.7842
271.7198, 179.9276
272.2019, 180.6800
272.6840, 182.2167
273.1661, 183.7751
273.6483, 184.2524
274.1304, 186.0104
274.6125, 187.3678
275.0946, 188.3461
275.5767, 187.8101
276.0588, 189.2296
276.5410, 189.8655
277.0231, 190.4692
277.5052, 192.1638
277.9873, 191.8481
278.4694, 193.5254
278.9515, 194.4072
279.4337, 195.6532
279.9158, 196.1107
280.3979, 196.8116
280.8800, 198.3013
281.3621, 198.9155
281.8442, 199.4685
282.3264, 200.5168
282.8085, 202.1894
283.2906, 203.9271
283.7727, 205.1076
284.2548, 205.7314
284.7369, 206.0769
285.2191, 206.1609
285.7012, 206.0386
286.1833, 205.9721
286.6654, 205.9896
287.1475, 205.8809
287.6296, 205.5097
288.1118, 204.8660
288.5939, 203.8297
289.0760, 202.3041
289.5581, 200.4176
290.0402, 198.3732
290.5223, 196.1550
291.0045, 193.9721
291.4866, 191.9051
291.9687, 189.9722
292.4508, 188.2502
292.9329, 186.7190
293.4150, 185.4555
293.8972, 184.7578
294.3793, 184.5652
294.8614, 184.1444
295.3435, 182.7875
295.8256, 180.8208
296.3077, 179.1332
296.7899, 177.8490
297.2720, 176.8673
297.7541, 176.3274
298.2362, 176.0944
298.7183, 175.5438
299.2004, 173.8293
299.6826, 171.6700
300.1647, 170.5063
300.6468, 170.5616
301.1289, 170.8983
301.6110, 170.5239
302.0931, 169.6578
302.5753, 168.8694
303.0574, 168.5977
303.5395, 168.4802
304.0216, 168.0238
304.5037, 167.2087
304.9858, 166.3078
305.4680, 165.5878
305.9501, 164.9341
306.4322, 164.1443
306.9143, 162.7479
307.3964, 161.4731
307.8785, 161.1761
308.3607, 161.7636
308.8428, 162.3069
309.3249, 162.1807
309.8070, 161.6719
310.2891, 161.1012
310.7712, 160.4562
311.2534, 159.8933
311.7355, 159.4350
312.2176, 159.1170
312.6997, 159.0971
313.1818, 159.9068
313.6639, 160.7931
314.1461, 161.0945
314.6282, 160.4184
315.1103, 159.6975
315.5924, 159.3746
316.0745, 159.3439
316.5566, 159.3820
317.0388, 159.2769
317.5209, 159.3091
318.0030, 159.6833
318.4851, 160.5020
318.9672, 161.3415
319.4493, 162.0311
319.9315, 162.6634
320.4136, 163.3708
320.8957, 164.5023
321.3778, 165.4256
321.8599, 165.8192
322.3420, 165.6157
322.8242, 165.5129
323.3063, 165.8890
323.7884, 166.3167
324.2705, 166.4230
324.7526, 165.3458
325.2347, 164.7928
325.7169, 165.4828
326.1990, 167.2824
326.6811, 168.4599
327.1632, 168.3143
327.6453, 167.9105
328.1274, 167.8381
328.6096, 168.3473
329.0917, 168.8931
329.5738, 169.3708
330.0559, 169.8620
330.5380, 170.6402
331.0201, 171.7313
331.5023, 173.0842
331.9844, 174.7500
332.4665, 176.9859
332.9486, 178.8091
333.4307, 179.7055
333.9128, 180.4492
334.3950, 182.3965
334.8771, 186.0932
335.3592, 190.0187
335.8413, 193.8206
336.3234, 197.5729
336.8055, 200.8625
337.2877, 204.2833
337.7698, 206.3728
338.2519, 205.3702
338.7340, 200.8547
339.2161, 194.7743
339.6982, 186.9750
340.1803, 177.8720
340.6624, 170.4367
341.1446, 164.6574
341.6267, 160.3269
342.1088, 157.4325
342.5909, 156.0373
343.0730, 154.9260
343.5551, 154.0327
344.0373, 153.2369
344.5194, 152.2379
345.0015, 151.0138
345.4836, 149.1350
345.9657, 149.2842
346.4478, 149.0577
346.9300, 148.4769
347.4121, 146.4069
347.8942, 146.3173
348.3763, 145.4689
348.8584, 144.6134
349.3405, 144.8739
349.8227, 143.1487
350.3048, 143.4417
350.7869, 142.9641
351.2690, 142.8755
351.7511, 142.0234
352.2332, 141.4398
352.7154, 141.6697
353.1975, 141.4879
353.6796, 140.6448
354.1617, 140.7290
354.6438, 139.2259
355.1259, 139.1625
355.6081, 139.7345
356.0902, 139.0557
356.5723, 139.1548
357.0544, 139.1254
357.5365, 138.3978
358.0186, 137.6595
358.5008, 137.3591
358.9829, 137.3953
359.4650, 137.5523
359.9471, 138.0423
360.4292, 138.3972
360.9113, 138.2460
361.3935, 137.4916
361.8756, 136.7160
362.3577, 136.0056
362.8398, 135.4565
363.3219, 135.1774
363.8040, 135.6026
364.2862, 135.9124
364.7683, 135.6715
365.2504, 134.9208
365.7325, 134.5351
366.2146, 135.1278
366.6967, 135.8541
367.1789, 136.1893
367.6610, 135.5878
368.1431, 135.1757
368.6252, 135.1084
369.1073, 135.2962
369.5894, 135.4555
370.0716, 135.7502
370.5537, 135.8441
371.0358, 135.5027
371.5179, 134.3451
372.0000, 133.9637
372.4821, 134.8804
372.9643, 136.2146
373.4464, 136.7571
373.9285, 136.1872
374.4106, 135.4690
374.8927, 134.7077
375.3748, 133.9173
375.8570, 133.6472
376.3391, 134.0874
376.8212, 134.6409
377.3033, 134.7367
377.7854, 134.2777
378.2675, 134.1246
378.7497, 134.5270
379.2318, 135.1766
379.7139, 135.2426
380.1960, 134.6849
380.6781, 134.0254
381.1602, 133.5465
381.6424, 133.2284
382.1245, 132.9292
382.6066, 132.6295
383.0887, 132.3993
383.5708, 132.3674
384.0529, 132.4984
384.5351, 132.6156
385.0172, 132.6010
385.4993, 132.5499
385.9814, 132.7487
386.4635, 133.1747
386.9456, 133.3786
387.4278, 132.6359
387.9099, 131.5058
388.3920, 130.9381
388.8741, 131.4241
389.3562, 132.1058
389.8383, 132.1772
390.3205, 131.8271
390.8026, 131.5862
391.2847, 131.9211
391.7668, 132.3525
392.2489, 132.5143
392.7310, 132.3329
393.2132, 132.0249
393.6953, 131.4510
394.1774, 130.8910
394.6595, 130.6825
395.1416, 131.4008
395.6237, 132.0397
396.1059, 132.1845
396.5880, 131.8588
397.0701, 131.5830
397.5522, 131.6798
398.0343, 131.7174
398.5164, 131.4347
398.9986, 130.2632
399.4807, 129.4855
399.9628, 129.2953
400.4449, 129.5104
400.9270, 129.7041
401.4091, 129.6941
401.8913, 129.8986
402.3734, 130.4973
402.8555, 131.5722
403.3376, 132.6099
403.8197, 133.7237
404.3018, 134.6668
404.7840, 135.0792
405.2661, 134.7442
405.7482, 134.6524
406.2303, 135.1002
406.7124, 135.9075
407.1945, 136.2718
407.6767, 136.1082
408.1588, 135.9119
408.6409, 136.0596
409.1230, 136.5226
409.6051, 136.8322
410.0872, 136.8868
410.5694, 136.9721
411.0515, 137.5835
411.5336, 138.6526
412.0157, 139.7420
412.4978, 140.7281
412.9799, 141.5875
413.4621, 142.2221
413.9442, 142.6433
414.4263, 143.0573
414.9084, 143.6411
415.3905, 144.3333
415.8727, 145.0376
416.3548, 145.7017
416.8369, 146.4243
417.3190, 147.3342
417.8011, 148.3724
418.2832, 149.3998
418.7654, 150.4543
419.2475, 151.3872
419.7296, 151.9066
420.2117, 151.8481
420.6938, 152.2885
421.1759, 154.1418
421.6581, 156.5070
422.1402, 158.4528
422.6223, 159.0557
423.1044, 159.9359
423.5865, 161.6114
424.0686, 163.9763
424.5508, 166.2425
425.0329, 168.4724
425.5150, 170.4613
425.9971, 172.0320
426.4792, 172.5724
426.9613, 173.9805
427.4435, 176.5924
427.9256, 179.8815
428.4077, 183.0004
428.8898, 185.8652
429.3719, 188.8417
429.8540, 192.0795
430.3362, 195.5451
430.8183, 198.9496
431.3004, 202.2211
431.7825, 205.5858
432.2646, 209.0786
432.7467, 212.6793
433.2289, 217.1825
433.7110, 222.8821
434.1931, 229.0500
434.6752, 234.2665
435.1573, 238.6032
435.6394, 242.8560
436.1216, 247.2167
436.6037, 251.8429
437.0858, 257.1194
437.5679, 263.0856
438.0500, 269.2184
438.5321, 275.2202
439.0142, 281.0463
439.4963, 286.5761
439.9785, 291.5013
440.4606, 296.5259
440.9427, 302.0411
441.4248, 308.0650
441.9069, 314.5897
442.3890, 322.4513
442.8712, 330.2204
443.3533, 336.7521
443.8354, 341.6068
444.3175, 346.8693
444.7996, 353.7411
445.2817, 361.0932
445.7639, 367.8023
446.2460, 373.4568
446.7281, 378.7022
447.2102, 383.6747
447.6923, 388.3405
448.1744, 392.3332
448.6566, 395.8014
449.1387, 398.4320
449.6208, 400.1821
450.1029, 401.3322
450.5850, 400.6795
451.0671, 397.7396
451.5493, 393.5099
452.0314, 389.5240
452.5135, 386.1284
452.9956, 381.6396
453.4777, 375.6340
453.9598, 368.2557
454.4420, 359.5775
454.9241, 349.5436
455.4062, 339.4150
455.8883, 330.3647
456.3704, 322.1359
456.8525, 313.6054
457.3347, 304.7270
457.8168, 295.8656
458.2989, 287.6696
458.7810, 279.9747
459.2631, 272.5632
459.7452, 264.9648
460.2274, 257.6992
460.7095, 251.4230
461.1916, 246.0166
461.6737, 241.2565
462.1558, 237.5091
462.6379, 234.0046
463.1201, 229.9146
463.6022, 224.5751
464.0843, 219.7311
464.5664, 216.1822
465.0485, 213.5530
465.5306, 211.2461
466.0128, 209.4085
466.4949, 207.5859
466.9770, 205.5854
467.4591, 203.3923
467.9412, 201.4973
468.4233, 200.1716
468.9055, 198.9011
469.3876, 197.3221
469.8697, 195.0321
470.3518, 193.3491
470.8339, 192.4529
471.3160, 192.0587
471.7982, 191.6425
472.2803, 191.1860
472.7624, 190.7920
473.2445, 190.5434
473.7266, 190.3941
474.2087, 190.0261
474.6909, 189.4105
475.1730, 188.8186
475.6551, 188.4992
476.1372, 188.4051
476.6193, 188.4039
477.1014, 188.5431
477.5836, 188.5511
478.0657, 187.8499
478.5478, 186.7035
479.0299, 185.8842
479.5120, 186.0199
479.9941, 186.4605
480.4763, 186.6560
480.9584, 186.6083
481.4405, 186.4157
481.9226, 185.9464
482.4047, 185.4653
482.8868, 185.1780
483.3690, 185.1299
483.8511, 185.2776
484.3332, 185.8796
484.8153, 186.6164
485.2974, 186.9787
485.7795, 186.1304
486.2617, 185.7199
486.7438, 186.4831
487.2259, 188.3819
487.7080, 189.0443
488.1901, 187.6357
488.6722, 186.0847
489.1544, 185.5782
489.6365, 186.3962
490.1186, 187.2587
490.6007, 188.2801
491.0828, 189.1128
491.5649, 188.9255
492.0471, 187.6477
492.5292, 186.9934
493.0113, 187.7315
493.4934, 189.3729
493.9755, 190.7234
494.4576, 191.7739
494.9398, 192.6158
495.4219, 193.3013
495.9040, 193.8176
496.3861, 194.0348
496.8682, 193.8751
497.3503, 193.7967
497.8325, 194.2309
498.3146, 194.9860
498.7967, 195.7751
499.2788, 196.4090
499.7609, 197.1207
500.2430, 198.0748
500.7252, 199.2215
501.2073, 200.3563
501.6894, 201.3958
502.1715, 202.4194
502.6536, 203.4974
503.1357, 204.7014
503.6179, 205.7546
504.1000, 206.6236
504.5821, 207.3593
505.0642, 207.9638
505.5463, 208.2169
506.0284, 208.8278
506.5106, 209.9743
506.9927, 211.5129
507.4748, 212.9930
507.9569, 214.4019
508.4390, 215.7959
508.9211, 217.1362
509.4033, 218.4526
509.8854, 220.1339
510.3675, 222.2400
510.8496, 224.1963
511.3317, 225.2001
511.8138, 225.6014
512.2960, 226.3196
512.7781, 227.6075
513.2602, 229.2192
513.7423, 231.1082
514.2244, 233.1352
514.7065, 234.9593
515.1887, 236.3150
515.6708, 237.5009
516.1529, 238.6190
516.6350, 239.6902
517.1171, 240.9153
517.5992, 242.5067
518.0814, 244.1684
518.5635, 245.6909
519.0456, 246.8280
519.5277, 248.2107
520.0098, 250.2835
520.4919, 252.4350
520.9741, 253.6476
521.4562, 253.1869
521.9383, 253.2488
522.4204, 254.4501
522.9025, 256.5995
523.3846, 258.4760
523.8668, 259.9958
524.3489, 261.5365
524.8310, 263.2270
525.3131, 265.1104
525.7952, 267.4413
526.2773, 270.2217
526.7595, 273.5620
527.2416, 277.8825
527.7237, 282.8293
528.2058, 287.5065
528.6879, 291.2066
529.1700, 295.0778
529.6522, 300.3739
530.1343, 306.7500
530.6164, 313.3720
531.0985, 319.7352
531.5806, 326.2279
532.0627, 332.9223
532.5449, 339.7813
533.0270, 347.2554
533.5091, 355.2298
533.9912, 363.9628
534.4733, 373.5271
534.9554, 384.4142
535.4376, 395.6229
535.9197, 406.4373
536.4018, 417.8427
536.8839, 431.2173
537.3660, 446.8778
537.8481, 463.9178
538.3303, 482.1940
538.8124, 501.7481
539.2945, 522.8404
539.7766, 545.3137
540.2587, 570.6212
540.7408, 600.1833
541.2230, 633.5845
541.7051, 668.2206
542.1872, 703.8625
542.6693, 741.0915
543.1514, 781.1014
543.6335, 823.2350
544.1157, 867.4622
544.5978, 914.5618
545.0799, 962.4778
545.5620, 1009.136
546.0441, 1055.113
546.5262, 1101.825
547.0084, 1149.658
547.4905, 1198.259
547.9726, 1247.729
548.4547, 1297.666
548.9368, 1351.130
549.4189, 1406.605
549.9011, 1467.181
550.3832, 1534.465
550.8653, 1607.830
551.3474, 1689.836
551.8295, 1780.480
552.3116, 1878.564
552.7938, 1981.958
553.2759, 2090.591
553.7580, 2205.177
554.2401, 2326.744
554.7222, 2453.631
555.2043, 2584.189
555.6865, 2716.891
556.1686, 2847.244
556.6507, 2978.217
557.1328, 3102.210
557.6149, 3212.100
558.0970, 3307.544
558.5792, 3383.815
559.0613, 3443.808
559.5434, 3479.323
560.0255, 3481.124
560.5076, 3442.935
560.9897, 3378.405
561.4719, 3287.429
561.9540, 3173.325
562.4361, 3043.207
562.9182, 2888.197
563.4003, 2726.457
563.8824, 2555.761
564.3646, 2379.479
564.8467, 2210.525
565.3288, 2046.919
565.8109, 1893.986
566.2930, 1752.582
566.7751, 1623.398
567.2573, 1505.031
567.7394, 1396.459
568.2215, 1298.909
568.7036, 1213.349
569.1857, 1139.303
569.6678, 1072.140
570.1500, 1012.251
570.6321, 957.3991
571.1142, 906.1766
571.5963, 858.7317
572.0784, 815.5635
572.5605, 776.8982
573.0427, 742.1426
573.5248, 711.1214
574.0069, 683.7938
574.4890, 657.9794
574.9711, 633.6815
575.4532, 610.7705
575.9354, 589.5847
576.4175, 570.4564
576.8996, 551.9664
577.3817, 533.8302
577.8638, 516.8232
578.3459, 501.5096
578.8281, 488.3772
579.3102, 475.8982
579.7923, 464.1065
580.2744, 452.6187
580.7565, 440.7852
581.2386, 428.6525
581.7208, 417.1329
582.2029, 406.4239
582.6850, 396.5280
583.1671, 387.3531
583.6492, 378.8185
584.1313, 370.4756
584.6135, 361.6118
585.0956, 352.9722
585.5776, 345.2737
586.0598, 338.6078
586.5419, 332.4171
587.0240, 326.8233
587.5061, 321.3340
587.9882, 315.5298
588.4703, 308.7045
588.9525, 302.4544
589.4346, 296.7971
589.9167, 291.7546
590.3988, 287.4741
590.8809, 284.3987
591.3630, 280.9851
591.8452, 276.6713
592.3273, 271.8262
592.8094, 268.0504
593.2915, 265.4152
593.7736, 262.6828
594.2557, 258.8291
594.7379, 254.3808
595.2200, 250.6054
595.7021, 247.5611
596.1842, 244.9565
596.6663, 242.9493
597.1484, 241.0987
597.6306, 238.7731
598.1127, 235.6928
598.5948, 232.7529
599.0769, 230.4884
599.5590, 228.5749
600.0411, 226.5960
600.5233, 224.4901
601.0054, 222.3155
601.4875, 219.9344
601.9696, 217.4943
602.4517, 215.4341
602.9338, 213.8514
603.4160, 212.4079
603.8981, 211.0183
604.3802, 209.6628
604.8623, 208.1815
605.3444, 206.5429
605.8265, 204.9236
606.3087, 203.4216
606.7908, 202.0447
607.2729, 200.8407
607.7550, 199.8283
608.2371, 198.8050
608.7192, 197.4389
609.2014, 195.9857
609.6835, 194.7934
610.1656, 194.1600
610.6477, 193.5120
611.1298, 192.5064
611.6119, 191.3324
612.0941, 190.3067
612.5762, 189.6399
613.0583, 188.9783
613.5404, 188.3051
614.0225, 187.5973
614.5046, 186.6233
614.9868, 185.2711
615.4689, 183.9167
615.9510, 182.6029
616.4331, 181.3608
616.9152, 180.8329
617.3973, 181.0863
617.8795, 181.4650
618.3616, 181.4524
618.8437, 181.1150
619.3258, 180.5153
619.8079, 179.5853
620.2900, 178.7974
620.7722, 178.7402
621.2543, 179.0255
621.7364, 179.1107
622.2185, 178.7944
622.7006, 178.2962
623.1827, 177.4751
623.6649, 176.5275
624.1470, 175.9212
624.6291, 176.0425
625.1112, 176.0795
625.5933, 175.7512
626.0754, 175.1497
626.5576, 175.0508
627.0397, 175.6134
627.5218, 176.1512
628.0039, 176.2220
628.4860, 175.8917
628.9681, 175.7819
629.4503, 175.9113
629.9324, 176.0159
630.4145, 175.8419
630.8966, 175.4901
631.3787, 175.1420
631.8608, 174.8515
632.3430, 174.4961
632.8251, 173.5764
633.3072, 172.7012
633.7893, 172.6045
634.2714, 174.8505
634.7535, 176.3082
635.2357, 175.8465
635.7178, 174.2227
636.1999, 173.1265
636.6820, 172.6220
637.1641, 172.5712
637.6462, 173.1088
638.1284, 174.0713
638.6105, 174.6282
639.0926, 174.7799
639.5747, 174.5421
640.0568, 173.6029
640.5389, 172.2983
641.0211, 171.7305
641.5032, 171.9023
641.9853, 172.1795
642.4674, 172.1656
642.9495, 171.9463
643.4316, 171.5947
643.9138, 171.1077
644.3959, 170.5740
644.8780, 169.9687
645.3601, 169.3761
645.8422, 168.8918
646.3243, 168.5166
646.8065, 168.2869
647.2886, 168.3988
647.7707, 168.5500
648.2528, 168.0871
648.7349, 166.7894
649.2170, 165.8564
649.6992, 165.7539
650.1813, 166.0463
650.6634, 165.3666
651.1455, 163.8377
651.6276, 162.6830
652.1097, 162.7706
652.5919, 163.4989
653.0740, 164.2292
653.5561, 164.9200
654.0382, 165.3988
654.5203, 165.4811
655.0024, 165.3736
655.4846, 165.1835
655.9667, 164.9022
656.4488, 164.6382
656.9309, 164.2635
657.4130, 164.0257
657.8951, 164.1600
658.3773, 164.9343
658.8594, 164.4966
659.3415, 165.4399
659.8236, 165.9754
660.3057, 166.1246
660.7878, 164.7521
661.2700, 165.3277
661.7521, 165.1124
662.2342, 164.8577
662.7163, 165.6866
663.1984, 164.4978
663.6805, 165.2949
664.1627, 165.2890
664.6448, 165.6400
665.1269, 165.1952
665.6090, 164.9866
666.0911, 165.5594
666.5732, 165.6883
667.0554, 165.1234
667.5375, 165.4538
668.0196, 164.1644
668.5017, 164.2826
668.9838, 165.0040
669.4659, 164.4423
669.9481, 164.7505
670.4302, 164.7173
670.9123, 164.1479
671.3944, 163.8921
671.8765, 163.4650
672.3586, 163.2456
672.8408, 163.0549
673.3229, 162.4456
673.8050, 161.1972
674.2871, 160.2542
674.7692, 160.6760
675.2513, 161.5641
675.7335, 161.9247
676.2156, 161.0061
676.6977, 160.1951
677.1798, 159.6207
677.6619, 159.2697
678.1440, 159.1777
678.6262, 159.5284
679.1083, 159.6125
679.5904, 159.1425
680.0725, 158.4483
680.5546, 158.4573
681.0367, 159.1304
681.5189, 159.6794
682.0010, 159.6005
682.4831, 159.2746
682.9652, 159.3950
683.4473, 159.8362
683.9294, 160.0221
684.4116, 159.3479
684.8937, 158.5450
685.3758, 158.0841
685.8579, 158.0155
686.3400, 157.9168
686.8221, 157.5559
687.3043, 157.3036
687.7864, 157.4636
688.2685, 158.2553
688.7506, 158.1050
689.2327, 156.6822
689.7148, 155.1883
690.1970, 154.9747
690.6791, 155.7884
691.1612, 155.9397
691.6433, 155.1453
692.1254, 154.1969
692.6075, 153.8147
693.0897, 153.8296
693.5718, 154.0060
694.0539, 154.4476
694.5360, 154.7215
695.0181, 154.4836
695.5002, 154.0002
695.9824, 153.6855
696.4645, 153.8416
696.9466, 153.8353
697.4287, 153.5652
697.9108, 153.1035
698.3929, 152.5567
698.8751, 151.8580
699.3572, 151.4465
699.8393, 151.5097
700.3214, 151.9119
700.8035, 152.4237
701.2856, 153.0148
701.7678, 153.5113
702.2499, 153.8770
702.7320, 154.0541
703.2141, 153.8535
703.6962, 153.3414
704.1783, 153.0204
704.6605, 153.2876
705.1426, 153.6061
705.6247, 153.7113
706.1068, 153.5804
706.5889, 153.3740
707.0710, 152.9964
707.5532, 152.7092
708.0353, 152.8491
708.5174, 153.4168
708.9995, 153.2315
709.4816, 152.2030
709.9637, 150.8951
710.4459, 149.8498
710.9280, 148.9098
711.4101, 147.7796
711.8922, 146.3711
712.3743, 144.9607
712.8564, 143.5582
713.3386, 142.3321
713.8207, 141.4512
714.3028, 141.4205
714.7849, 141.0469
715.2670, 139.8804
715.7491, 138.5632
716.2313, 137.9629
716.7134, 138.2732
717.1955, 138.4808
717.6776, 138.3655
718.1597, 138.1563
718.6418, 138.3920
719.1240, 138.9529
719.6061, 139.2730
720.0882, 139.0658
720.5703, 138.6126
721.0524, 138.0170
721.5345, 137.4002
722.0167, 137.0536
722.4988, 137.5291
722.9809, 137.8400
723.4630, 137.4520
723.9451, 136.5429
724.4272, 136.0174
724.9094, 135.9876
725.3915, 136.1542
725.8736, 136.4969
726.3557, 136.9545
726.8378, 137.1692
727.3199, 137.1409
727.8021, 137.0603
728.2842, 137.0655
728.7663, 137.0874
729.2484, 137.0274
729.7305, 136.8805
730.2126, 136.6395
730.6948, 135.8141
731.1769, 135.2602
731.6590, 135.8552
732.1411, 137.9997
732.6232, 139.0422
733.1053, 138.0170
733.5875, 136.7861
734.0696, 136.5098
734.5517, 137.3472
735.0338, 137.8913
735.5159, 138.1155
735.9980, 138.1938
736.4802, 138.2999
736.9623, 138.3976
737.4444, 138.3338
737.9265, 138.0620
738.4086, 137.8749
738.8907, 138.1350
739.3729, 138.5341
739.8550, 138.7226
740.3371, 138.4858
740.8192, 138.3271
741.3013, 138.3549
741.7834, 138.4847
742.2656, 138.6316
742.7477, 138.7622
743.2298, 139.0780
743.7119, 139.7137
744.1940, 140.2906
744.6761, 140.0174
745.1583, 139.1066
745.6404, 138.6347
746.1225, 139.0026
746.6046, 139.6258
747.0867, 140.0583
747.5688, 140.3327
748.0510, 140.4990
748.5331, 140.3836
749.0152, 140.3891
749.4973, 140.8639
749.9794, 141.4824
750.4615, 141.5094
750.9437, 140.5132
751.4258, 140.0430
751.9079, 140.5973
752.3900, 141.7261
752.8721, 142.3088
753.3542, 142.3900
753.8364, 142.4696
754.3185, 142.6618
754.8006, 143.0516
755.2827, 144.0941
755.7648, 145.4552
756.2469, 146.1457
756.7291, 144.8682
757.2112, 143.7337
757.6933, 143.6949
758.1754, 144.5934
758.6575, 145.3432
759.1396, 145.9204
759.6218, 146.3808
760.1039, 146.7448
760.5860, 147.0072
761.0681, 147.0828
761.5502, 146.9823
762.0323, 147.0556
762.5145, 147.7644
762.9966, 148.6251
763.4787, 148.9715
763.9608, 148.8502
764.4429, 148.6094
764.9250, 147.9988
765.4072, 147.6838
765.8893, 148.1497
766.3714, 149.4532
766.8535, 150.5252
767.3356, 151.3335
767.8177, 151.9603
768.2999, 152.3486
768.7820, 152.5410
769.2641, 153.1179
769.7462, 154.0896
770.2283, 154.8813
770.7104, 154.9874
771.1926, 154.6924
771.6747, 154.1659
772.1568, 153.4592
772.6389, 153.3149
773.1210, 154.8267
773.6031, 156.4322
774.0853, 157.0834
774.5674, 156.5271
775.0495, 156.2003
775.5316, 156.0919
776.0137, 156.2397
776.4958, 156.7896
776.9780, 157.7134
777.4601, 158.2445
777.9422, 158.3446
778.4243, 158.5883
778.9064, 159.7893
779.3885, 161.2764
779.8707, 162.1222
780.3528, 162.1834
780.8349, 162.1109
781.3170, 161.8745
781.7991, 161.8398
782.2813, 162.3506
782.7633, 163.6171
783.2454, 164.6514
783.7275, 165.3841
784.2097, 165.9785
784.6918, 166.5145
785.1739, 167.0027
785.6560, 167.6935
786.1381, 168.6416
786.6202, 169.3542
787.1024, 168.9380
787.5845, 168.2321
788.0666, 168.4315
788.5487, 169.9370
789.0308, 171.2435
789.5129, 171.8076
789.9951, 171.9646
790.4772, 171.9118
790.9593, 171.3939
791.4414, 171.5221
791.9235, 172.5339
792.4056, 173.6415
792.8878, 173.9427
793.3699, 173.6209
793.8520, 173.6898
794.3341, 174.2777
794.8162, 175.0309
795.2983, 175.7625
795.7805, 176.4406
796.2626, 177.0500
796.7447, 177.6004
797.2268, 178.0278
797.7089, 178.0273
798.1910, 178.1204
798.6732, 178.7266
799.1553, 180.0157
799.6374, 181.3065
800.1195, 182.6941
800.6016, 183.7399
801.0837, 183.6944
801.5659, 182.9314
802.0480, 182.6121
802.5301, 182.9233
803.0122, 183.5011
803.4943, 184.2608
803.9764, 185.0546
804.4586, 185.7189
804.9407, 186.1160
805.4228, 186.6627
805.9049, 187.5571
806.3870, 188.4370
806.8691, 188.9643
807.3513, 189.0683
807.8334, 189.4368
808.3155, 190.1344
808.7976, 190.9361
809.2797, 191.5556
809.7618, 192.1228
810.2440, 192.9074
810.7261, 193.9807
811.2082, 195.0884
811.6903, 196.1707
812.1724, 197.1773
812.6545, 197.9790
813.1367, 198.2006
813.6188, 199.2262
814.1009, 201.3075
814.5830, 203.7663
815.0651, 206.0517
815.5472, 208.1749
816.0294, 210.2439
816.5115, 212.2367
816.9936, 214.3381
817.4757, 216.6811
817.9578, 219.2218
818.4399, 221.9396
818.9221, 224.8384
819.4042, 227.7376
819.8863, 230.3101
820.3684, 233.0759
820.8505, 236.4321
821.3326, 240.5526
821.8148, 244.5863
822.2969, 248.4536
822.7790, 252.4459
823.2611, 256.8570
823.7432, 261.5529
824.2253, 266.0079
824.7075, 270.1523
825.1896, 274.4300
825.6717, 279.3341
826.1538, 284.3744
826.6359, 289.2222
827.1180, 293.8382
827.6002, 297.9702
828.0823, 301.6017
828.5644, 304.7510
829.0465, 307.5947
829.5286, 310.1415
830.0107, 311.0115
830.4929, 310.1407
830.9750, 308.4194
831.4571, 306.4049
831.9392, 304.0699
832.4213, 301.5086
832.9034, 298.7378
833.3856, 295.2510
833.8677, 289.7281
834.3498, 284.3914
834.8319, 280.8471
835.3140, 279.2144
835.7961, 276.3195
836.2783, 271.6568
836.7604, 267.0938
837.2425, 263.7435
837.7246, 261.3350
838.2067, 258.6557
838.6888, 255.7542
839.1710, 253.3613
839.6531, 252.3074
840.1352, 251.6668
840.6173, 250.6485
841.0994, 249.2770
841.5815, 248.2494
842.0637, 248.3037
842.5458, 247.9532
843.0279, 246.5775
843.5100, 244.3889
843.9921, 242.7048
844.4742, 241.5530
844.9564, 240.5779
845.4385, 239.4636
845.9206, 238.5273
846.4027, 238.4130
846.8848, 238.9260
847.3669, 239.3895
847.8491, 239.5517
848.3312, 239.5613
848.8133, 239.4565
849.2954, 239.2488
849.7775, 238.8865
850.2596, 238.1639
850.7418, 237.9721
851.2239, 238.7120
851.7060, 239.9449
852.1881, 240.7029
852.6702, 241.0800
853.1523, 241.4312
853.6345, 241.9228
854.1166, 242.4031
854.5987, 242.7631
855.0808, 243.0305
855.5629, 243.2600
856.0450, 242.7697
856.5272, 243.3587
857.0093, 245.7314
857.4914, 248.7299
857.9735, 250.4098
858.4556, 250.8051
858.9377, 250.6084
859.4199, 249.8027
859.9020, 249.0403
860.3841, 249.0256
860.8662, 249.5330
861.3483, 250.2621
861.8304, 251.3421
862.3126, 252.2443
862.7947, 252.5971
863.2768, 252.8709
863.7589, 253.4146
864.2410, 254.1831
864.7231, 255.6381
865.2053, 258.0055
865.6874, 260.2422
866.1695, 261.1572
866.6516, 261.1439
867.1337, 260.8543
867.6158, 260.3114
868.0980, 260.1256
868.5801, 260.9318
869.0622, 262.0007
869.5443, 262.7022
870.0264, 262.8516
870.5085, 263.5736
870.9907, 265.0815
871.4728, 266.6015
871.9549, 267.0486
872.4370, 266.9898
872.9191, 269.4287
873.4012, 274.2412
873.8834, 278.0885
874.3655, 277.5315
874.8476, 276.0367
875.3297, 276.1571
875.8118, 278.0177
876.2939, 279.9059
876.7761, 281.5566
877.2582, 283.3564
877.7403, 285.4644
878.2224, 287.8390
878.7045, 290.3754
879.1866, 293.0435
879.6688, 295.3100
880.1509, 296.2965
880.6330, 297.2348
881.1151, 299.6175
881.5972, 302.9896
882.0793, 305.9998
882.5615, 308.1116
883.0436, 310.0107
883.5257, 311.8569
884.0078, 313.5871
884.4899, 314.9782
884.9720, 316.0065
885.4542, 317.1797
885.9363, 318.6139
886.4184, 320.2991
886.9005, 322.5852
887.3826, 325.0290
887.8647, 326.8428
888.3469, 327.7319
888.8290, 328.0596
889.3111, 327.3551
889.7932, 326.4789
890.2753, 326.4491
890.7574, 327.6723
891.2396, 327.7321
891.7217, 326.2945
892.2038, 324.4607
892.6859, 323.3387
893.1680, 322.7157
893.6501, 322.2485
894.1323, 321.9134
894.6144, 321.4006
895.0965, 320.4434
895.5786, 319.3372
896.0607, 318.3308
896.5428, 317.4862
897.0250, 316.2417
897.5071, 314.5336
897.9892, 312.6615
898.4713, 310.3321
898.9534, 308.0561
899.4355, 307.5901
899.9177, 308.7037
900.3998, 309.7987
900.8819, 309.9287
901.3640, 309.7503
901.8461, 309.5385
902.3282, 309.3161
902.8104, 309.1258
903.2925, 308.9308
903.7746, 308.8536
904.2567, 308.9620
904.7388, 309.1736
905.2209, 309.1048
905.7031, 308.9273
906.1852, 309.3869
906.6673, 311.2997
907.1494, 313.1379
907.6315, 313.5202
908.1136, 313.2885
908.5958, 313.8126
909.0779, 315.9496
909.5600, 317.4415
910.0421, 317.8270
910.5242, 318.1066
911.0063, 319.7364
911.4885, 322.4384
911.9706, 324.8190
912.4527, 326.6487
912.9348, 328.2669
913.4169, 329.4104
913.8990, 330.7976
914.3812, 333.2055
914.8633, 337.0340
915.3454, 340.5048
915.8275, 343.2367
916.3096, 346.1549
916.7917, 350.0887
917.2739, 354.7718
917.7560, 358.2244
918.2381, 360.5491
918.7202, 363.0437
919.2023, 366.6526
919.6844, 370.6749
920.1666, 374.3371
920.6487, 377.8602
921.1308, 382.5739
921.6129, 389.9701
922.0950, 396.3352
922.5771, 400.3190
923.0593, 403.1089
923.5414, 407.6647
924.0235, 413.7594
924.5056, 420.0894
924.9877, 426.0934
925.4698, 432.3384
925.9520, 439.2865
926.4341, 446.8069
926.9162, 454.6472
927.3983, 462.5269
927.8804, 471.1357
928.3625, 480.5807
928.8447, 490.4534
929.3268, 500.5265
929.8089, 510.6461
930.2910, 519.8209
930.7731, 527.9423
931.2552, 537.1196
931.7374, 550.6032
932.2195, 565.0108
932.7016, 577.1446
933.1837, 586.3028
933.6658, 597.3506
934.1479, 611.3757
934.6301, 626.0490
935.1122, 640.4618
935.5943, 654.7313
936.0764, 669.1221
936.5585, 683.8139
937.0406, 699.1584
937.5228, 715.7787
938.0049, 732.9847
938.4870, 749.9758
938.9691, 767.2253
939.4512, 785.8499
939.9333, 806.9007
940.4155, 828.1096
940.8976, 849.2133
941.3797, 870.3411
941.8618, 890.5946
942.3439, 910.6209
942.8260, 933.2366
943.3082, 959.5957
943.7903, 986.8457
944.2724, 1013.091
944.7545, 1038.951
945.2366, 1065.126
945.7188, 1091.429
946.2009, 1119.012
946.6830, 1148.054
947.1651, 1178.301
947.6472, 1209.389
948.1293, 1241.412
948.6115, 1276.179
949.0936, 1313.256
949.5757, 1350.328
950.0578, 1385.283
950.5399, 1419.997
951.0220, 1454.725
951.5042, 1490.042
951.9863, 1527.904
952.4684, 1568.762
952.9505, 1611.108
953.4326, 1655.228
953.9147, 1699.772
954.3969, 1743.059
954.8790, 1785.473
955.3611, 1828.038
955.8432, 1870.228
956.3253, 1913.632
956.8074, 1960.288
957.2896, 2007.618
957.7717, 2053.981
958.2538, 2099.877
958.7359, 2142.497
959.2180, 2180.996
959.7001, 2217.945
960.1823, 2255.959
960.6644, 2293.803
961.1465, 2327.948
961.6286, 2358.622
962.1107, 2386.662
962.5928, 2414.078
963.0750, 2437.089
963.5571, 2453.778
964.0392, 2465.207
964.5213, 2475.315
965.0034, 2484.758
965.4855, 2487.293
965.9677, 2480.565
966.4498, 2467.317
966.9319, 2450.710
967.4140, 2430.614
967.8961, 2407.122
968.3782, 2379.881
968.8604, 2349.467
969.3425, 2315.550
969.8246, 2278.478
970.3067, 2237.352
970.7888, 2192.358
971.2709, 2146.582
971.7531, 2100.277
972.2352, 2052.930
972.7173, 2004.165
973.1994, 1954.002
973.6815, 1902.115
974.1636, 1849.023
974.6458, 1797.963
975.1279, 1750.663
975.6100, 1704.271
976.0921, 1658.127
976.5742, 1612.305
977.0563, 1567.135
977.5385, 1522.286
978.0206, 1477.877
978.5027, 1433.292
978.9848, 1390.414
979.4669, 1350.834
979.9490, 1313.770
980.4311, 1278.354
980.9132, 1244.671
981.3953, 1211.910
981.8774, 1179.921
982.3596, 1149.430
982.8417, 1121.930
983.3238, 1096.586
983.8059, 1071.147
984.2880, 1045.531
984.7701, 1021.570
985.2523, 1000.662
985.7344, 981.3332
986.2165, 962.7901
986.6986, 945.1317
987.1807, 929.3983
987.6628, 915.9861
988.1450, 902.8214
988.6271, 889.0482
989.1092, 875.7825
989.5913, 864.5266
990.0734, 855.0251
990.5555, 846.9491
991.0377, 841.2917
991.5198, 834.9124
992.0019, 826.3356
992.4840, 817.5740
992.9661, 810.3037
993.4482, 804.5955
993.9304, 798.0861
994.4125, 790.6790
994.8946, 783.2635
995.3767, 776.3771
995.8588, 769.6622
996.3409, 763.4195
996.8231, 757.3054
997.3052, 748.9862
997.7873, 737.3745
998.2694, 724.8849
998.7515, 711.9404
999.2336, 698.4959
999.7158, 684.6957
1000.198, 670.5394
1000.680, 656.1492
1001.162, 641.6431
1001.644, 626.9896
1002.126, 612.6160
1002.608, 598.1200
1003.091, 583.0933
1003.573, 566.9578
1004.055, 553.3397
1004.537, 542.6178
1005.019, 532.1048
1005.501, 519.1080
1005.983, 505.4833
1006.465, 494.1767
1006.948, 484.8338
1007.430, 475.5829
1007.912, 465.6821
1008.394, 455.9133
1008.876, 446.3470
1009.358, 437.1805
1009.840, 428.8377
1010.322, 421.3015
1010.804, 414.1312
1011.287, 407.2687
1011.769, 400.2592
1012.251, 391.9268
1012.733, 383.6673
1013.215, 377.2278
1013.697, 373.3101
1014.179, 367.9155
1014.661, 360.2554
1015.143, 352.6003
1015.626, 345.9639
1016.108, 340.2662
1016.590, 335.7217
1017.072, 332.0091
1017.554, 327.7826
1018.036, 321.7786
1018.518, 315.8819
1019.000, 310.8663
1019.483, 306.4767
1019.965, 302.4640
1020.447, 298.9589
1020.929, 294.9590
1021.411, 290.3287
1021.893, 285.4959
1022.375, 280.5231
1022.857, 275.7926
1023.339, 271.8847
1023.822, 268.8185
1024.304, 265.8802
1024.786, 263.0834
1025.268, 260.1817
1025.750, 257.1549
1026.232, 253.9812
1026.714, 250.3225
1027.196, 246.3937
1027.679, 243.3852
1028.161, 242.1096
1028.643, 240.8997
1029.125, 238.6426
1029.607, 235.8726
1030.089, 233.1547
1030.571, 230.5515
1031.053, 227.7164
1031.536, 224.4780
1032.018, 221.6943
1032.500, 220.3450
1032.982, 219.6546
1033.464, 218.3730
1033.946, 216.6133
1034.428, 214.9147
1034.910, 213.4976
1035.392, 212.1652
1035.875, 211.0817
1036.357, 209.8672
1036.839, 207.4912
1037.321, 204.1722
1037.803, 202.2692
1038.285, 202.3204
1038.767, 202.4913
1039.249, 201.2804
1039.731, 199.5788
1040.214, 198.1006
1040.696, 196.9279
1041.178, 195.5894
1041.660, 194.0302
1042.142, 192.5222
1042.624, 191.0965
1043.106, 189.8742
1043.588, 189.1163
1044.071, 188.6844
1044.553, 188.2685
1045.035, 188.0527
1045.517, 187.3702
1045.999, 185.8115
1046.481, 184.0583
1046.963, 182.7614
1047.445, 181.8906
1047.927, 181.1133
1048.410, 180.4053
1048.892, 179.5891
1049.374, 178.4563
1049.856, 177.2351
1050.338, 175.9992
1050.820, 174.8113
1051.302, 173.9716
1051.784, 173.6269
1052.266, 173.0934
1052.749, 172.1704
1053.231, 171.1903
1053.713, 170.7497
1054.195, 170.5238
1054.677, 169.9175
1055.159, 168.7518
1055.641, 167.6421
1056.123, 166.6373
1056.606, 165.8829
1057.088, 165.5777
1057.570, 165.5776
1058.052, 164.8949
1058.534, 163.6870
1059.016, 162.9884
1059.498, 163.9527
1059.980, 164.6731
1060.463, 163.5951
1060.945, 161.7102
1061.427, 160.4302
1061.909, 159.9409
1062.391, 159.5556
1062.873, 159.2670
1063.355, 159.0275
1063.837, 158.9633
1064.319, 158.8223
1064.802, 158.0264
1065.284, 156.7302
1065.766, 155.9428
1066.248, 156.5508
1066.730, 156.8278
1067.212, 156.3720
1067.694, 155.5491
1068.176, 154.9989
1068.658, 154.6648
1069.141, 154.4058
1069.623, 154.2292
1070.105, 153.8825
1070.587, 152.7428
1071.069, 151.8285
1071.551, 152.0709
1072.033, 153.3186
1072.515, 153.2837
1072.998, 151.9240
1073.480, 150.5797
1073.962, 149.8434
1074.444, 149.3890
1074.926, 148.9919
1075.408, 148.6075
1075.890, 148.1596
1076.372, 147.3921
1076.854, 147.0977
1077.337, 147.4304
1077.819, 147.8234
1078.301, 147.8644
1078.783, 147.6008
1079.265, 147.0624
1079.747, 146.2971
1080.229, 145.5286
1080.711, 144.6286
1081.193, 144.0408
1081.676, 143.9091
1082.158, 144.0825
1082.640, 144.4131
1083.122, 144.8656
1083.604, 145.1568
1084.086, 145.2622
1084.568, 144.9885
1085.050, 143.8302
1085.532, 142.5371
1086.015, 141.6172
1086.497, 141.0774
1086.979, 140.8738
1087.461, 141.0724
1087.943, 141.1997
1088.425, 141.1521
1088.907, 140.8548
1089.389, 140.1031
1089.872, 139.0844
1090.354, 137.9968
1090.836, 136.6284
1091.318, 136.0116
1091.800, 136.3943
1092.282, 137.0595
1092.764, 137.8201
1093.246, 138.4388
1093.729, 137.9157
1094.211, 136.5553
1094.693, 135.5178
1095.175, 135.4955
1095.657, 135.6100
1096.139, 135.7892
1096.621, 135.8428
1097.103, 135.4781
1097.585, 134.7179
1098.068, 134.1371
1098.550, 133.7697
1099.032, 133.5407
1099.514, 133.6227
1099.996, 133.6178
1100.478, 133.2006
1100.960, 132.4610
1101.442, 131.7470
1101.924, 131.0210
1102.407, 130.5396
1102.889, 130.3824
1103.371, 130.3241
1103.853, 130.1339
1104.335, 129.8786
1104.817, 129.6512
1105.299, 129.4711
1105.781, 129.1786
1106.264, 128.7652
1106.746, 128.2253
1107.228, 127.4671
1107.710, 126.6902
1108.192, 126.2920
1108.674, 126.1887
1109.156, 126.2157
1109.638, 126.4646
1110.120, 126.4842
1110.603, 125.9893
1111.085, 125.4479
1111.567, 125.2495
1112.049, 125.2863
1112.531, 124.5699
1113.013, 123.2513
1113.495, 122.2337
1113.977, 122.3939
1114.459, 122.5009
1114.942, 121.6512
1115.424, 120.5951
1115.906, 120.4322
1116.388, 121.2961
1116.870, 121.5526
1117.352, 121.1050
1117.834, 120.4086
1118.316, 119.7612
1118.799, 119.0685
1119.281, 118.1054
1119.763, 117.0103
1120.245, 116.3774
1120.727, 116.3267
1121.209, 116.3606
1121.691, 116.4108
1122.173, 116.4723
1122.656, 116.8138
1123.138, 117.0123
1123.620, 116.1950
1124.102, 114.2189
1124.584, 113.2777
1125.066, 114.2312
1125.548, 114.8655
1126.030, 114.3754
1126.512, 113.3466
1126.995, 112.9407
1127.477, 112.9253
1127.959, 112.7658
1128.441, 112.3054
1128.923, 111.7980
1129.405, 111.2819
1129.887, 110.7852
1130.369, 110.3349
1130.851, 109.9151
1131.334, 109.3351
1131.816, 108.6737
1132.298, 108.3068
1132.780, 108.6990
1133.262, 108.9331
1133.744, 108.3938
1134.226, 107.6310
1134.708, 107.1752
1135.191, 107.0555
1135.673, 106.7562
1136.155, 106.2793
1136.637, 105.7859
1137.119, 105.2646
1137.601, 104.8725
1138.083, 104.8858
1138.565, 105.0637
1139.047, 104.8988
1139.530, 104.3184
1140.012, 103.7876
1140.494, 103.3543
1140.976, 102.8979
1141.458, 102.2250
1141.940, 101.5476
1142.422, 101.1148
1142.904, 100.8972
1143.386, 100.6450
1143.869, 100.2936
1144.351, 100.0579
1144.833, 100.0053
1145.315, 99.97849
1145.797, 99.75147
1146.279, 99.43716
1146.761, 99.22384
1147.243, 99.13892
1147.726, 98.92039
1148.208, 98.45223
1148.690, 98.03719
1149.172, 97.79556
1149.654, 97.60193
1150.136, 97.14941
1150.618, 96.58195
1151.100, 96.21793
1151.583, 96.18771
1152.065, 96.09169
1152.547, 95.71773
1153.029, 95.41929
1153.511, 95.40993
1153.993, 95.57093
1154.475, 95.48685
1154.957, 95.22894
1155.439, 95.05653
1155.922, 95.21037
1156.404, 95.15583
1156.886, 94.43943
1157.368, 93.68661
1157.850, 93.36272
1158.332, 93.39674
1158.814, 92.97758
1159.296, 92.20162
1159.778, 91.69462
1160.261, 92.23381
1160.743, 92.59399
1161.225, 91.98600
1161.707, 91.04053
1162.189, 90.35899
1162.671, 89.94125
1163.153, 89.79357
1163.635, 89.90835
1164.118, 90.09811
1164.600, 90.58216
1165.082, 90.74242
1165.564, 89.84920
1166.046, 88.47969
1166.528, 87.73158
1167.010, 87.66584
1167.492, 87.62883
1167.974, 87.55994
1168.457, 87.57678
1168.939, 87.96627
1169.421, 88.31388
1169.903, 88.27616
1170.385, 87.89013
1170.867, 87.40884
1171.349, 86.77560
1171.831, 86.41000
1172.313, 86.42863
1172.796, 86.48243
1173.278, 86.13705
1173.760, 85.71120
1174.242, 85.59225
1174.724, 85.77797
1175.206, 85.62034
1175.688, 85.01664
1176.170, 84.51621
1176.653, 84.27356
1177.135, 84.15788
1177.617, 84.06644
1178.099, 83.97492
1178.581, 83.86710
1179.063, 83.74265
1179.545, 83.49030
1180.027, 83.01266
1180.510, 82.75988
1180.992, 82.97397
1181.474, 83.35070
1181.956, 83.55602
1182.438, 83.56797
1182.920, 83.32581
1183.402, 82.74076
1183.884, 82.17355
1184.366, 81.58965
1184.849, 81.18286
1185.331, 81.09165
1185.813, 81.18197
1186.295, 81.34276
1186.777, 81.46252
1187.259, 81.29692
1187.741, 80.51176
1188.223, 80.11544
1188.705, 80.32797
1189.188, 80.50668
1189.670, 80.07382
1190.152, 79.42370
1190.634, 79.40003
1191.116, 79.84141
1191.598, 80.36240
1192.080, 81.23624
1192.562, 81.47667
1193.045, 80.80888
1193.527, 80.01606
1194.009, 79.89845
1194.491, 79.21400
1194.973, 79.48298
1195.455, 78.36637
1195.937, 77.51424
1196.419, 77.22337
1196.901, 77.26291
1197.384, 77.73045
1197.866, 78.25434
1198.348, 78.52119
1198.830, 78.56424
1199.312, 78.42886
1199.794, 78.13700
1200.276, 77.77665
1200.758, 77.15539
1201.240, 76.83414
1201.723, 77.00018
1202.205, 77.28901
1202.687, 77.34019
1203.169, 77.15109
1203.651, 76.45288
1204.133, 75.35959
1204.615, 74.88956
1205.097, 76.24412
1205.580, 77.11754
1206.062, 76.97433
1206.544, 76.34984
1207.026, 75.83161
1207.508, 75.48631
1207.990, 75.62851
1208.472, 76.25285
1208.954, 76.65437
1209.437, 76.51976
1209.919, 76.14297
1210.401, 75.43777
1210.883, 74.75174
1211.365, 74.86929
1211.847, 75.41296
1212.329, 75.35910
1212.811, 74.54794
1213.293, 74.07713
1213.776, 74.74587
1214.258, 75.21090
1214.740, 75.06828
1215.222, 74.60125
1215.704, 74.24223
1216.186, 74.01756
1216.668, 74.08775
1217.150, 74.53039
1217.632, 74.64233
1218.115, 73.89474
1218.597, 73.30379
1219.079, 73.25480
1219.561, 73.47558
1220.043, 73.43375
1220.525, 73.22186
1221.007, 73.03880
1221.489, 72.92689
1221.972, 72.83903
1222.454, 72.81408
1222.936, 72.70274
1223.418, 72.35101
1223.900, 71.99864
1224.382, 72.30555
1224.864, 72.96918
1225.346, 73.35332
1225.828, 73.26640
1226.311, 73.08730
1226.793, 72.93626
1227.275, 72.58152
1227.757, 71.77846
1228.239, 70.87527
1228.721, 70.72411
1229.203, 70.99519
1229.685, 70.98396
1230.167, 70.33881
1230.650, 70.04160
1231.132, 70.29800
1231.614, 70.57348
1232.096, 70.60354
1232.578, 70.47486
1233.060, 70.26769
1233.542, 70.05089
1234.024, 69.96677
1234.507, 70.10695
1234.989, 70.26253
1235.471, 70.49477
1235.953, 70.50900
1236.435, 69.94392
1236.917, 69.26119
1237.399, 69.31727
1237.881, 69.79594
1238.364, 70.13488
1238.846, 70.19807
1239.328, 70.14577
1239.810, 69.98018
1240.292, 69.68576
1240.774, 69.05274
1241.256, 68.48503
1241.738, 68.74233
1242.220, 69.38601
1242.703, 69.60408
1243.185, 69.10499
1243.667, 68.66512
1244.149, 68.25851
1244.631, 68.08507
1245.113, 68.41955
1245.595, 68.91896
1246.077, 69.28568
1246.559, 69.51674
1247.042, 69.60215
1247.524, 69.55202
1248.006, 69.34111
1248.488, 68.95953
1248.970, 68.54649
1249.452, 68.01445
1249.934, 67.66982
1250.416, 68.03701
1250.899, 68.65682
1251.381, 68.75354
1251.863, 68.16557
1252.345, 67.97707
1252.827, 68.19588
1253.309, 68.41627
1253.791, 68.36650
1254.273, 68.23046
1254.755, 68.11102
1255.238, 67.98693
1255.720, 67.80163
1256.202, 67.54386
1256.684, 67.43713
1257.166, 67.48941
1257.648, 67.74666
1258.130, 68.72932
1258.612, 69.35623
1259.094, 68.57391
1259.577, 67.49512
1260.059, 67.31680
1260.541, 67.97181
1261.023, 68.74190
1261.505, 69.54053
1261.987, 69.87798
1262.469, 69.07049
1262.951, 68.28261
1263.434, 67.81516
1263.916, 67.61301
1264.398, 67.77111
1264.880, 68.15543
1265.362, 68.14114
1265.844, 67.76123
1266.326, 67.29983
1266.808, 66.56693
1267.291, 66.25939
1267.773, 66.58197
1268.255, 67.14411
1268.737, 67.70227
1269.219, 68.15244
1269.701, 68.12186
1270.183, 67.73299
1270.665, 67.49020
1271.147, 67.75993
1271.630, 67.86040
1272.112, 67.70390
1272.594, 67.49290
1273.076, 67.37856
1273.558, 67.35518
1274.040, 67.45489
1274.522, 67.63441
1275.004, 67.75804
1275.486, 67.76909
1275.969, 67.86150
1276.451, 68.09189
1276.933, 68.14857
1277.415, 67.46215
1277.897, 66.72245
1278.379, 66.82740
1278.861, 67.43220
1279.343, 67.62566
1279.825, 67.25731
1280.308, 67.07672
1280.790, 67.12741
1281.272, 67.21377
1281.754, 67.12312
1282.236, 67.08260
1282.718, 67.35983
1283.200, 67.74314
1283.682, 67.87881
1284.165, 67.75900
1284.647, 67.64380
1285.129, 67.54473
1285.611, 67.46738
1286.093, 67.51292
1286.575, 67.45813
1287.057, 66.99893
1287.539, 66.56528
1288.021, 66.77105
1288.504, 67.44506
1288.986, 67.51123
1289.468, 67.03929
1289.950, 66.66603
1290.432, 66.68932
1290.914, 66.89748
1291.396, 67.40997
1291.878, 67.78291
1292.360, 67.43736
1292.843, 66.68731
1293.325, 66.25407
1293.807, 66.11496
1294.289, 66.11849
1294.771, 66.16503
1295.253, 66.54491
1295.735, 67.42836
1296.217, 68.11970
1296.700, 67.76668
1297.182, 67.05639
1297.664, 66.89172
1298.146, 67.14230
1298.628, 67.50210
1299.110, 68.08928
1299.592, 68.22110
1300.074, 67.84509
1300.557, 67.34718
1301.039, 66.81895
1301.521, 66.46083
1302.003, 66.60355
1302.485, 66.94935
1302.967, 67.08073
1303.449, 67.03683
##END=



