##NAMES=Schiavinatoite
##RRUFFID=R090010
##IDEAL CHEMISTRY=Nb^5+^BO_4_
##LOCALITY=Antsongombato, south of Betafo, south of Mahaiz, Madagascar
##OWNER=RRUFF
##SOURCE=William W. Pinch
##DESCRIPTION=Dark brown vitreous dipyramidal crystal on white microcline matrix associated with pink tourmaline
##STATUS=The identification of this mineral has been confirmed only by single crystal X-ray diffraction.
##URL=rruff.info/R090010
92.37695, 152.1384
92.85907, 150.5217
93.34119, 150.9882
93.82330, 152.3735
94.30542, 153.0208
94.78754, 152.4253
95.26965, 151.0016
95.75177, 149.5489
96.23389, 148.3085
96.71600, 147.3068
97.19812, 146.8156
97.68024, 147.0495
98.16235, 147.2763
98.64447, 146.2967
99.12659, 143.4305
99.60870, 140.9660
100.0908, 140.1105
100.5729, 140.0929
101.0551, 140.2156
101.5372, 140.1309
102.0193, 139.8507
102.5014, 139.5045
102.9835, 138.7840
103.4656, 138.2811
103.9478, 138.2273
104.4299, 138.4533
104.9120, 138.6747
105.3941, 138.6943
105.8762, 138.5152
106.3583, 137.8598
106.8405, 136.2487
107.3226, 134.6056
107.8047, 133.3662
108.2868, 132.5952
108.7689, 132.2294
109.2510, 132.3489
109.7332, 132.9983
110.2153, 133.4069
110.6974, 133.2917
111.1795, 132.9219
111.6616, 132.7513
112.1437, 132.9800
112.6259, 133.1861
113.1080, 132.8134
113.5901, 131.9146
114.0722, 131.0977
114.5543, 130.7491
115.0364, 130.8512
115.5185, 131.0910
116.0007, 131.6313
116.4828, 132.1225
116.9649, 132.3375
117.4470, 132.2430
117.9291, 131.9865
118.4112, 131.7805
118.8934, 131.7262
119.3755, 131.4559
119.8576, 130.5211
120.3397, 129.5985
120.8218, 129.2968
121.3039, 129.8541
121.7861, 130.9617
122.2682, 131.7347
122.7503, 132.1429
123.2324, 132.1636
123.7145, 131.4111
124.1966, 130.3250
124.6788, 129.5606
125.1609, 129.5244
125.6430, 130.1089
126.1251, 130.3711
126.6072, 129.9830
127.0893, 129.6770
127.5715, 129.9280
128.0536, 130.6177
128.5357, 131.0907
129.0178, 130.7172
129.4999, 129.6767
129.9821, 129.1753
130.4642, 129.8057
130.9463, 130.7029
131.4284, 130.9389
131.9105, 130.3903
132.3926, 129.6096
132.8748, 128.7945
133.3569, 128.0383
133.8390, 127.5936
134.3211, 127.7932
134.8032, 128.4225
135.2853, 128.7042
135.7674, 128.3463
136.2496, 128.0234
136.7317, 128.1625
137.2138, 128.6200
137.6959, 129.0232
138.1780, 129.0395
138.6601, 128.6229
139.1423, 128.3105
139.6244, 128.1105
140.1065, 128.0144
140.5886, 128.0980
141.0707, 128.3188
141.5528, 128.5316
142.0350, 128.5614
142.5171, 128.3403
142.9992, 128.0874
143.4813, 127.5874
143.9634, 127.2004
144.4455, 127.2282
144.9277, 127.7240
145.4098, 128.4394
145.8919, 128.9785
146.3740, 129.2636
146.8561, 129.4878
147.3382, 129.5978
147.8204, 129.6694
148.3025, 129.8387
148.7846, 130.1816
149.2667, 130.5367
149.7488, 130.5096
150.2309, 130.0098
150.7131, 129.5575
151.1952, 129.3005
151.6773, 129.2337
152.1594, 129.3813
152.6415, 129.8832
153.1236, 130.4816
153.6058, 130.7378
154.0879, 130.5290
154.5700, 130.3523
155.0521, 130.7279
155.5342, 131.6877
156.0163, 132.4468
156.4985, 132.3131
156.9806, 132.0460
157.4627, 132.3035
157.9448, 133.2915
158.4269, 134.6079
158.9090, 135.6940
159.3912, 136.5166
159.8733, 137.1557
160.3554, 137.5232
160.8375, 137.7942
161.3196, 138.0993
161.8017, 138.4886
162.2839, 138.9762
162.7660, 139.6036
163.2481, 140.4616
163.7302, 141.3589
164.2123, 142.2001
164.6944, 143.0790
165.1766, 144.1678
165.6587, 145.5942
166.1408, 147.2483
166.6229, 148.4231
167.1050, 148.4751
167.5871, 148.7510
168.0693, 149.5658
168.5514, 150.8106
169.0335, 152.3068
169.5156, 153.9974
169.9977, 155.8405
170.4798, 157.0576
170.9620, 156.8764
171.4441, 156.9337
171.9262, 158.0736
172.4083, 160.1646
172.8904, 162.5386
173.3725, 164.8468
173.8547, 166.9976
174.3368, 168.7032
174.8189, 169.6074
175.3010, 170.3269
175.7831, 171.3843
176.2652, 172.8109
176.7474, 174.2454
177.2295, 175.3505
177.7116, 176.2609
178.1937, 177.2754
178.6758, 178.5058
179.1579, 179.8597
179.6401, 181.2066
180.1222, 182.5186
180.6043, 183.8916
181.0864, 185.4487
181.5685, 187.0969
182.0506, 188.6663
182.5328, 190.0059
183.0149, 191.2162
183.4970, 192.6391
183.9791, 194.3798
184.4612, 196.1804
184.9433, 198.1131
185.4255, 200.0056
185.9076, 201.5243
186.3897, 202.2410
186.8718, 202.2953
187.3539, 203.2355
187.8360, 206.4375
188.3182, 209.1046
188.8003, 210.1731
189.2824, 210.0779
189.7645, 209.7468
190.2466, 209.8652
190.7287, 210.4427
191.2109, 211.2656
191.6930, 212.9215
192.1751, 214.2658
192.6572, 214.7418
193.1393, 214.5417
193.6214, 214.2497
194.1036, 214.4037
194.5857, 215.1096
195.0678, 215.3799
195.5499, 214.7854
196.0320, 214.2461
196.5141, 214.3300
196.9963, 214.9436
197.4784, 215.5191
197.9605, 215.4889
198.4426, 214.7314
198.9247, 214.3260
199.4068, 214.4779
199.8890, 214.7865
200.3711, 215.1954
200.8532, 215.6343
201.3353, 215.6607
201.8174, 214.7182
202.2995, 212.7310
202.7817, 211.1298
203.2638, 210.0974
203.7459, 209.3943
204.2280, 209.0125
204.7101, 208.9812
205.1922, 208.6430
205.6744, 207.1524
206.1565, 204.7406
206.6386, 202.5047
207.1207, 200.7978
207.6028, 199.3308
208.0849, 197.6653
208.5671, 195.6906
209.0492, 193.7989
209.5313, 192.3318
210.0134, 191.1754
210.4955, 190.1492
210.9776, 189.2856
211.4598, 188.4930
211.9419, 187.5440
212.4240, 186.3765
212.9061, 185.1845
213.3882, 183.8787
213.8703, 182.6304
214.3525, 181.8071
214.8346, 181.8287
215.3167, 182.4196
215.7988, 182.5206
216.2809, 181.7271
216.7630, 181.0621
217.2451, 181.1328
217.7273, 181.5996
218.2094, 181.8166
218.6915, 181.1947
219.1736, 179.9933
219.6557, 179.8533
220.1378, 181.7871
220.6200, 183.6035
221.1021, 184.5925
221.5842, 185.0188
222.0663, 185.3458
222.5484, 185.8620
223.0305, 186.5489
223.5127, 187.2290
223.9948, 187.8702
224.4769, 188.5358
224.9590, 189.4198
225.4411, 190.3246
225.9232, 190.8981
226.4054, 190.8767
226.8875, 190.3233
227.3696, 189.9730
227.8517, 190.0319
228.3338, 190.0893
228.8159, 190.0525
229.2981, 189.9543
229.7802, 189.8881
230.2623, 189.9293
230.7444, 190.0488
231.2265, 189.9063
231.7086, 189.3270
232.1908, 188.7019
232.6729, 188.0943
233.1550, 187.5100
233.6371, 186.9985
234.1192, 186.6326
234.6013, 186.3283
235.0835, 185.4080
235.5656, 183.5155
236.0477, 181.5256
236.5298, 179.4975
237.0119, 177.5618
237.4940, 176.0077
237.9762, 175.0663
238.4583, 174.5658
238.9404, 173.6822
239.4225, 172.0839
239.9046, 170.5539
240.3867, 169.5383
240.8689, 168.8128
241.3510, 167.8119
241.8331, 166.2151
242.3152, 164.1922
242.7973, 162.2217
243.2794, 160.0783
243.7616, 158.3123
244.2437, 157.4649
244.7258, 157.2485
245.2079, 156.7756
245.6900, 155.6163
246.1721, 154.0665
246.6543, 152.7557
247.1364, 151.7918
247.6185, 150.7647
248.1006, 149.2843
248.5827, 147.5295
249.0648, 146.1748
249.5470, 145.6215
250.0291, 145.3604
250.5112, 144.5928
250.9933, 143.2430
251.4754, 141.8967
251.9576, 140.8587
252.4397, 140.0910
252.9218, 139.4194
253.4039, 138.8918
253.8860, 138.3320
254.3681, 137.5014
254.8503, 136.3987
255.3324, 135.3835
255.8145, 134.6275
256.2966, 134.1316
256.7787, 133.9534
257.2608, 134.3400
257.7430, 134.7417
258.2251, 134.6026
258.7072, 134.0116
259.1893, 133.5560
259.6714, 133.8340
260.1535, 134.6572
260.6357, 134.9165
261.1178, 134.1517
261.5999, 133.2721
262.0820, 132.7623
262.5641, 132.5981
263.0462, 132.6941
263.5284, 133.2130
264.0105, 134.0305
264.4926, 134.3473
264.9747, 133.6991
265.4568, 133.2110
265.9389, 133.5459
266.4211, 134.4158
266.9032, 135.2197
267.3853, 135.5199
267.8674, 135.4740
268.3495, 135.8017
268.8316, 136.7476
269.3138, 137.7171
269.7959, 138.6053
270.2780, 139.3495
270.7601, 139.8347
271.2422, 139.9509
271.7243, 139.8177
272.2065, 139.8257
272.6886, 140.0189
273.1707, 140.2950
273.6528, 140.6873
274.1349, 141.1103
274.6170, 141.4557
275.0992, 141.6717
275.5813, 141.8081
276.0634, 141.9625
276.5455, 142.0412
277.0276, 142.3360
277.5097, 143.0217
277.9919, 143.8426
278.4740, 144.5619
278.9561, 145.0979
279.4382, 145.5337
279.9203, 146.0526
280.4024, 146.7818
280.8846, 147.3057
281.3667, 147.5329
281.8488, 147.6106
282.3309, 147.6702
282.8130, 147.7343
283.2951, 147.6938
283.7773, 147.3183
284.2594, 146.3239
284.7415, 145.7150
285.2236, 145.8785
285.7057, 146.1013
286.1878, 146.0518
286.6700, 145.6431
287.1521, 144.8833
287.6342, 143.6741
288.1163, 141.7867
288.5984, 140.3949
289.0805, 139.8958
289.5627, 139.4970
290.0448, 138.9212
290.5269, 138.1250
291.0090, 137.1528
291.4911, 136.0233
291.9732, 134.7237
292.4554, 133.4612
292.9375, 132.1655
293.4196, 130.9715
293.9017, 129.9355
294.3838, 129.0380
294.8659, 128.2416
295.3481, 127.5329
295.8302, 126.8992
296.3123, 126.2064
296.7944, 125.2326
297.2765, 124.4394
297.7586, 124.0014
298.2408, 123.7870
298.7229, 123.6200
299.2050, 123.4082
299.6871, 123.1500
300.1692, 122.8351
300.6513, 122.2171
301.1335, 121.8592
301.6156, 122.1071
302.0977, 122.5178
302.5798, 122.5227
303.0619, 121.9088
303.5440, 121.0517
304.0262, 120.7753
304.5083, 121.8950
304.9904, 122.3616
305.4725, 121.6708
305.9546, 120.6664
306.4367, 119.9682
306.9189, 119.7454
307.4010, 119.8423
307.8831, 120.0739
308.3652, 120.5692
308.8473, 120.8482
309.3294, 120.7727
309.8116, 120.6313
310.2937, 120.5938
310.7758, 120.6695
311.2579, 120.7768
311.7400, 120.8433
312.2221, 120.8762
312.7043, 120.8084
313.1864, 120.3241
313.6685, 120.0575
314.1506, 120.4396
314.6327, 121.2659
315.1148, 122.0190
315.5970, 122.3140
316.0791, 122.1851
316.5612, 122.0943
317.0433, 122.1441
317.5254, 122.1181
318.0075, 121.8698
318.4897, 121.5376
318.9718, 121.2919
319.4539, 121.2141
319.9360, 121.3364
320.4181, 121.7809
320.9002, 123.1907
321.3824, 124.0963
321.8645, 124.1310
322.3466, 123.7780
322.8287, 123.4426
323.3108, 123.2788
323.7929, 123.2894
324.2751, 123.5273
324.7572, 124.3884
325.2393, 124.6771
325.7214, 123.7420
326.2035, 122.7944
326.6856, 122.8077
327.1678, 123.8012
327.6499, 124.9818
328.1320, 125.4659
328.6141, 125.0720
329.0962, 124.8685
329.5783, 124.9680
330.0605, 125.1218
330.5426, 125.1322
331.0247, 125.0970
331.5068, 125.3033
331.9889, 126.0052
332.4710, 127.1589
332.9532, 128.0489
333.4353, 128.6514
333.9174, 128.9984
334.3995, 128.8339
334.8816, 128.4762
335.3637, 128.3838
335.8459, 128.7939
336.3280, 129.5385
336.8101, 130.1443
337.2922, 130.9722
337.7743, 131.0474
338.2564, 129.7990
338.7386, 128.1197
339.2206, 126.7316
339.7028, 125.8510
340.1849, 125.3265
340.6670, 124.9391
341.1491, 124.6890
341.6312, 124.5907
342.1133, 124.7265
342.5955, 124.9238
343.0776, 125.2184
343.5597, 125.5238
344.0418, 125.5872
344.5239, 125.1039
345.0060, 124.0277
345.4882, 123.2188
345.9703, 122.8364
346.4524, 122.5923
346.9345, 122.4556
347.4166, 122.4018
347.8987, 122.4558
348.3809, 122.6814
348.8630, 122.9430
349.3451, 122.6289
349.8272, 121.1400
350.3093, 119.9954
350.7914, 119.4269
351.2736, 119.3191
351.7557, 119.7732
352.2378, 120.8091
352.7199, 121.8329
353.2020, 121.6994
353.6841, 119.8802
354.1663, 118.5141
354.6484, 118.2664
355.1305, 118.1932
355.6126, 117.6877
356.0947, 116.7476
356.5768, 115.8516
357.0590, 115.5291
357.5411, 115.8099
358.0232, 115.9346
358.5053, 115.7520
358.9874, 115.5751
359.4695, 115.6985
359.9517, 115.9227
360.4338, 115.7958
360.9159, 114.9017
361.3980, 113.5746
361.8801, 112.8735
362.3622, 113.0511
362.8444, 113.3194
363.3265, 113.5061
363.8086, 113.5857
364.2907, 113.4963
364.7728, 113.2004
365.2549, 112.8362
365.7371, 112.6036
366.2192, 112.5243
366.7013, 112.3641
367.1834, 112.0279
367.6655, 111.6199
368.1476, 111.1549
368.6298, 110.6499
369.1119, 110.2736
369.5940, 110.1916
370.0761, 110.3550
370.5582, 110.5868
371.0403, 111.0379
371.5225, 111.2423
372.0046, 110.6240
372.4867, 109.5319
372.9688, 108.7736
373.4509, 108.7868
373.9330, 109.2230
374.4152, 109.6600
374.8973, 110.1188
375.3794, 110.3756
375.8615, 110.1856
376.3436, 109.7751
376.8257, 109.4931
377.3079, 109.4039
377.7900, 109.3581
378.2721, 109.3008
378.7542, 109.2102
379.2363, 108.9687
379.7184, 108.4828
380.2006, 107.9306
380.6827, 107.4967
381.1648, 107.1693
381.6469, 107.0228
382.1290, 107.2937
382.6111, 107.6732
383.0933, 107.6940
383.5754, 107.2917
384.0575, 106.7574
384.5396, 106.2018
385.0217, 105.6959
385.5038, 105.5820
385.9860, 106.3150
386.4681, 107.0421
386.9502, 107.2190
387.4323, 106.9451
387.9144, 106.5647
388.3965, 106.2127
388.8787, 105.9010
389.3608, 105.6714
389.8429, 105.5393
390.3250, 105.4335
390.8071, 105.3029
391.2892, 105.2066
391.7714, 105.2729
392.2535, 105.5202
392.7356, 105.7424
393.2177, 105.6842
393.6998, 105.2705
394.1819, 104.9126
394.6641, 104.5087
395.1462, 104.2427
395.6283, 104.2648
396.1104, 104.5236
396.5925, 104.8888
397.0746, 105.3048
397.5568, 105.7198
398.0389, 105.8473
398.5210, 105.3738
399.0031, 104.9826
399.4852, 104.6777
399.9673, 104.5229
400.4495, 104.6157
400.9316, 104.9762
401.4137, 105.4883
401.8958, 106.0249
402.3779, 106.7649
402.8600, 107.0135
403.3422, 106.2735
403.8243, 105.5557
404.3064, 105.4228
404.7885, 105.7843
405.2706, 106.2091
405.7527, 106.3592
406.2349, 106.2820
406.7170, 106.3630
407.1991, 106.7811
407.6812, 107.0999
408.1633, 107.1173
408.6454, 107.0343
409.1276, 107.0826
409.6097, 107.3473
410.0918, 107.7148
410.5739, 108.0509
411.0560, 108.3729
411.5381, 108.5577
412.0203, 108.2367
412.5024, 108.0743
412.9845, 108.6022
413.4666, 109.7070
413.9487, 110.7629
414.4308, 111.1615
414.9130, 111.1401
415.3951, 111.6784
415.8772, 113.0254
416.3593, 114.3204
416.8414, 115.0892
417.3235, 115.5194
417.8057, 115.7550
418.2878, 115.6411
418.7699, 115.7297
419.2520, 116.6881
419.7341, 118.4329
420.2162, 120.1947
420.6984, 121.8289
421.1805, 123.2575
421.6626, 124.2503
422.1447, 124.8061
422.6268, 125.6140
423.1089, 127.1372
423.5911, 128.9591
424.0732, 130.3551
424.5553, 131.2349
425.0374, 132.4934
425.5195, 134.9650
426.0016, 138.4603
426.4838, 141.4435
426.9659, 143.3398
427.4480, 145.3439
427.9301, 147.9938
428.4122, 151.1422
428.8943, 154.4718
429.3765, 157.8792
429.8586, 161.3787
430.3407, 164.9956
430.8228, 168.7638
431.3049, 172.6181
431.7870, 176.3894
432.2692, 180.3569
432.7513, 184.8290
433.2334, 189.7254
433.7155, 194.7237
434.1976, 199.5612
434.6797, 204.2298
435.1619, 208.7337
435.6440, 212.7432
436.1261, 216.9843
436.6082, 221.9235
437.0903, 227.0029
437.5724, 231.4900
438.0546, 235.1418
438.5367, 238.5247
439.0188, 242.5870
439.5009, 247.6153
439.9830, 252.3837
440.4651, 257.0529
440.9473, 261.3163
441.4294, 264.6012
441.9115, 267.2980
442.3936, 270.4984
442.8757, 275.1997
443.3578, 280.7570
443.8400, 284.6759
444.3221, 286.2731
444.8042, 287.9791
445.2863, 291.3175
445.7684, 294.8346
446.2505, 297.1027
446.7327, 297.8019
447.2148, 297.8144
447.6969, 297.9343
448.1790, 298.0520
448.6611, 297.5735
449.1432, 296.4662
449.6254, 294.6229
450.1075, 291.9466
450.5896, 288.5036
451.0717, 284.2189
451.5538, 278.8239
452.0359, 272.7577
452.5181, 266.2132
453.0002, 259.2738
453.4823, 252.6726
453.9644, 246.9657
454.4465, 241.5271
454.9286, 234.6977
455.4108, 225.9131
455.8929, 217.8053
456.3750, 211.2496
456.8571, 205.5257
457.3392, 199.8960
457.8214, 194.2380
458.3035, 188.6138
458.7856, 183.0217
459.2677, 177.4481
459.7498, 172.3009
460.2319, 167.4037
460.7141, 163.0465
461.1962, 159.4290
461.6783, 156.3598
462.1604, 153.6423
462.6425, 151.1917
463.1246, 148.9690
463.6068, 146.9836
464.0889, 145.5453
464.5710, 143.5376
465.0531, 140.2936
465.5352, 137.1411
466.0173, 134.5697
466.4995, 132.6122
466.9816, 131.2196
467.4637, 130.4780
467.9458, 130.1398
468.4279, 129.3639
468.9100, 127.9313
469.3922, 126.6224
469.8743, 125.8529
470.3564, 125.1783
470.8385, 124.1566
471.3206, 122.7316
471.8027, 121.4251
472.2849, 120.6880
472.7670, 120.4066
473.2491, 120.1758
473.7312, 119.9632
474.2133, 119.7898
474.6954, 119.7643
475.1776, 119.7841
475.6597, 119.5908
476.1418, 119.0151
476.6239, 118.3753
477.1060, 117.9541
477.5881, 117.6557
478.0703, 117.1399
478.5524, 116.2583
479.0345, 115.2744
479.5166, 114.5858
479.9987, 114.2642
480.4808, 113.9106
480.9630, 113.2683
481.4451, 112.7882
481.9272, 112.8762
482.4093, 113.4201
482.8914, 114.0538
483.3735, 114.5874
483.8557, 114.9688
484.3378, 115.0094
484.8199, 114.4525
485.3020, 113.8973
485.7841, 113.2164
486.2662, 112.6481
486.7484, 112.4850
487.2305, 112.6808
487.7126, 112.8477
488.1947, 112.5929
488.6768, 111.9532
489.1589, 111.5003
489.6411, 111.1106
490.1232, 111.1346
490.6053, 112.1696
491.0874, 113.3931
491.5695, 113.7591
492.0516, 112.9340
492.5338, 111.8099
493.0159, 111.2761
493.4980, 111.2795
493.9801, 111.3687
494.4622, 111.4941
494.9443, 111.6718
495.4265, 111.9501
495.9086, 112.2951
496.3907, 112.6108
496.8728, 113.0288
497.3549, 113.2735
497.8370, 112.9291
498.3192, 112.1728
498.8013, 111.6696
499.2834, 111.6837
499.7655, 112.0402
500.2476, 112.5389
500.7297, 113.3373
501.2119, 113.6851
501.6940, 113.0503
502.1761, 112.3480
502.6582, 112.2291
503.1403, 112.6299
503.6224, 113.1911
504.1045, 113.7143
504.5866, 114.1592
505.0688, 114.3711
505.5509, 114.1210
506.0330, 113.9961
506.5151, 114.1614
506.9972, 114.3558
507.4793, 114.3046
507.9615, 114.0510
508.4436, 113.9351
508.9257, 114.3389
509.4078, 115.1307
509.8899, 115.4051
510.3720, 114.7930
510.8542, 114.4739
511.3363, 115.4009
511.8184, 116.5687
512.3005, 116.8713
512.7827, 116.0459
513.2648, 115.1031
513.7469, 114.6591
514.2290, 114.6905
514.7111, 115.2420
515.1932, 116.4267
515.6754, 117.6322
516.1575, 118.4320
516.6396, 118.8517
517.1217, 119.1098
517.6038, 119.1361
518.0859, 119.0884
518.5681, 118.8666
519.0502, 118.6613
519.5323, 118.8282
520.0144, 119.4653
520.4965, 120.3649
520.9786, 121.3270
521.4608, 122.4258
521.9429, 123.1186
522.4250, 122.8520
522.9071, 122.8544
523.3892, 123.6460
523.8713, 124.9655
524.3535, 126.3715
524.8356, 127.6748
525.3177, 129.0686
525.7998, 130.9502
526.2819, 133.4858
526.7640, 135.6511
527.2462, 137.0059
527.7283, 138.3575
528.2104, 139.9065
528.6925, 141.7563
529.1746, 144.1672
529.6567, 147.4918
530.1389, 151.0356
530.6210, 153.7819
531.1031, 155.7767
531.5852, 157.7864
532.0673, 159.9242
532.5494, 162.3159
533.0316, 165.1449
533.5137, 168.3598
533.9958, 171.9590
534.4779, 176.0745
534.9600, 180.4548
535.4421, 184.8508
535.9243, 189.3457
536.4064, 194.3257
536.8885, 199.9486
537.3706, 206.1376
537.8527, 212.6010
538.3348, 218.8472
538.8170, 226.6284
539.2991, 236.2195
539.7812, 246.9244
540.2633, 258.4418
540.7454, 270.7834
541.2275, 284.2544
541.7097, 299.1023
542.1918, 314.9975
542.6739, 331.2428
543.1560, 348.2451
543.6381, 364.5516
544.1202, 379.8304
544.6024, 394.2375
545.0845, 407.6479
545.5666, 420.2246
546.0487, 432.2922
546.5308, 443.6278
547.0129, 454.8628
547.4951, 466.8011
547.9772, 479.4648
548.4593, 492.9569
548.9414, 507.3116
549.4235, 522.4493
549.9056, 538.0328
550.3878, 553.7369
550.8699, 570.9156
551.3520, 590.2347
551.8341, 610.6829
552.3162, 631.7480
552.7983, 653.2231
553.2805, 674.6448
553.7626, 695.8100
554.2447, 716.9423
554.7268, 739.0184
555.2089, 764.4410
555.6910, 786.3199
556.1732, 804.7433
556.6553, 819.9307
557.1374, 832.9589
557.6195, 843.0844
558.1016, 848.3421
558.5837, 847.9338
559.0659, 841.3420
559.5480, 827.1215
560.0301, 805.0718
560.5122, 776.6091
560.9943, 739.4849
561.4764, 698.4174
561.9586, 657.5710
562.4407, 617.1067
562.9228, 577.7083
563.4049, 538.8242
563.8870, 501.6615
564.3691, 467.7184
564.8513, 436.9112
565.3334, 408.5336
565.8155, 382.2493
566.2976, 358.3315
566.7797, 337.2289
567.2618, 319.9088
567.7440, 303.6812
568.2261, 288.4702
568.7082, 274.5264
569.1903, 262.2040
569.6724, 251.2535
570.1545, 240.8329
570.6367, 230.5237
571.1188, 220.7988
571.6009, 212.9465
572.0830, 207.3448
572.5651, 201.9367
573.0472, 196.7152
573.5294, 191.4453
574.0115, 185.5869
574.4936, 179.5393
574.9757, 174.4537
575.4578, 171.1300
575.9399, 168.5127
576.4221, 165.4350
576.9042, 161.9903
577.3863, 158.7093
577.8684, 155.8134
578.3505, 152.9250
578.8326, 149.4309
579.3148, 145.2509
579.7969, 142.0872
580.2790, 140.7896
580.7611, 139.6921
581.2432, 138.0498
581.7253, 136.0443
582.2075, 133.9405
582.6896, 131.8628
583.1717, 129.9053
583.6538, 128.2291
584.1359, 126.8697
584.6180, 125.5498
585.1002, 124.4074
585.5823, 123.1148
586.0643, 121.4099
586.5464, 119.5633
587.0286, 117.9270
587.5107, 116.5971
587.9928, 115.4422
588.4749, 114.3287
588.9570, 113.2814
589.4391, 112.4520
589.9213, 111.9063
590.4034, 111.3171
590.8855, 110.4251
591.3676, 109.3098
591.8497, 108.2800
592.3318, 107.1656
592.8140, 106.4015
593.2961, 106.6003
593.7782, 106.9540
594.2603, 106.3896
594.7424, 104.9122
595.2245, 103.4071
595.7067, 102.5884
596.1888, 102.3615
596.6709, 102.2093
597.1530, 102.3011
597.6351, 102.1663
598.1172, 101.6469
598.5994, 100.9878
599.0815, 100.3674
599.5636, 99.78600
600.0457, 99.11923
600.5278, 98.15264
601.0099, 97.14445
601.4921, 96.67748
601.9742, 96.75980
602.4563, 96.73922
602.9384, 96.35767
603.4205, 95.81728
603.9026, 95.44155
604.3848, 95.24474
604.8669, 94.84004
605.3490, 93.91438
605.8311, 93.00461
606.3132, 92.49387
606.7953, 92.25922
607.2775, 91.96484
607.7596, 91.48333
608.2417, 91.02897
608.7238, 91.00801
609.2059, 91.59614
609.6880, 91.73655
610.1702, 91.01035
610.6523, 90.30045
611.1344, 89.89439
611.6165, 89.67382
612.0986, 89.47238
612.5807, 89.24278
613.0629, 89.01968
613.5450, 88.80360
614.0271, 88.62017
614.5092, 88.59144
614.9913, 88.75635
615.4734, 88.86179
615.9556, 88.67956
616.4377, 88.33645
616.9198, 88.30146
617.4019, 88.89124
617.8840, 89.16071
618.3661, 88.48840
618.8483, 87.72658
619.3304, 87.80742
619.8125, 88.59437
620.2946, 89.21510
620.7767, 89.07600
621.2589, 88.45501
621.7410, 86.93716
622.2231, 88.42798
622.7052, 89.22968
623.1873, 89.37932
623.6694, 86.92388
624.1516, 87.83234
624.6337, 87.39271
625.1158, 86.89780
625.5979, 88.27974
626.0800, 86.20319
626.5621, 87.55537
627.0443, 87.53885
627.5264, 88.14875
628.0085, 87.40223
628.4906, 87.07465
628.9727, 88.10395
629.4548, 88.38194
629.9370, 87.47924
630.4191, 88.12896
630.9012, 86.00504
631.3833, 86.31503
631.8654, 87.67514
632.3475, 86.84068
632.8297, 87.51517
633.3118, 87.61498
633.7939, 85.10298
634.2760, 87.13319
634.7581, 87.19904
635.2402, 85.24792
635.7224, 87.12247
636.2045, 85.44941
636.6866, 85.04265
637.1687, 85.58884
637.6508, 85.14159
638.1329, 86.26062
638.6151, 85.87073
639.0972, 85.34605
639.5793, 85.40970
640.0614, 83.80621
640.5435, 85.16022
641.0256, 84.67048
641.5078, 84.07340
641.9899, 84.09441
642.4720, 84.86095
642.9541, 85.19550
643.4362, 84.73762
643.9183, 84.24709
644.4005, 83.76144
644.8826, 83.39690
645.3647, 83.29743
645.8468, 83.48157
646.3289, 83.79063
646.8110, 84.18793
647.2932, 84.59512
647.7753, 84.83105
648.2574, 84.89140
648.7395, 84.74148
649.2216, 84.30920
649.7037, 83.72861
650.1859, 83.22204
650.6680, 82.77959
651.1501, 82.43740
651.6322, 82.04771
652.1143, 81.90385
652.5964, 82.41282
653.0786, 83.23717
653.5607, 83.73694
654.0428, 83.67871
654.5249, 83.39565
655.0070, 83.33924
655.4891, 83.51962
655.9713, 83.66127
656.4534, 83.81526
656.9355, 83.83133
657.4176, 83.41509
657.8997, 82.92213
658.3818, 82.82377
658.8640, 83.22153
659.3461, 83.59309
659.8282, 83.64928
660.3103, 83.59486
660.7924, 83.72740
661.2745, 83.98735
661.7567, 84.02223
662.2388, 83.63952
662.7209, 83.08186
663.2030, 82.80826
663.6851, 82.88950
664.1672, 83.02145
664.6494, 83.29701
665.1315, 83.52333
665.6136, 83.63248
666.0957, 83.65423
666.5778, 83.63470
667.0599, 83.58701
667.5421, 83.49055
668.0242, 83.21973
668.5063, 82.90715
668.9884, 82.97362
669.4705, 83.45121
669.9526, 83.79922
670.4348, 83.74508
670.9169, 83.35635
671.3990, 82.71194
671.8811, 81.43977
672.3632, 80.86016
672.8453, 81.49720
673.3275, 82.33860
673.8096, 83.13737
674.2917, 83.66649
674.7738, 83.47514
675.2559, 82.40169
675.7380, 81.22468
676.2202, 81.09665
676.7023, 81.87435
677.1844, 81.99632
677.6665, 81.17247
678.1486, 80.50401
678.6307, 80.70127
679.1129, 81.31694
679.5950, 81.44370
680.0771, 80.92579
680.5592, 80.62814
681.0413, 81.02674
681.5234, 81.49088
682.0056, 81.45425
682.4877, 81.08978
682.9698, 80.89664
683.4519, 81.08610
683.9340, 81.42619
684.4161, 81.55360
684.8983, 81.43799
685.3804, 81.49922
685.8625, 81.97128
686.3446, 82.20679
686.8267, 81.56918
687.3088, 80.72940
687.7910, 80.58504
688.2731, 81.31069
688.7552, 81.71645
689.2373, 80.73508
689.7194, 79.57371
690.2015, 79.72449
690.6837, 80.86617
691.1658, 81.71101
691.6479, 81.71959
692.1300, 81.33473
692.6121, 81.19324
693.0942, 81.31912
693.5764, 81.53480
694.0585, 82.02280
694.5406, 82.34876
695.0227, 82.32893
695.5048, 82.13449
695.9869, 81.83742
696.4691, 81.47421
696.9512, 81.40129
697.4333, 82.14783
697.9154, 83.10574
698.3975, 83.38445
698.8796, 83.09221
699.3618, 82.85571
699.8439, 82.90092
700.3260, 83.10155
700.8081, 83.30051
701.2902, 83.49644
701.7723, 83.70425
702.2545, 84.06631
702.7366, 84.26142
703.2187, 83.97509
703.7008, 83.65456
704.1829, 83.83556
704.6650, 84.50404
705.1472, 85.08657
705.6293, 85.27267
706.1114, 85.09525
706.5935, 84.39623
707.0756, 83.29114
707.5577, 82.60413
708.0399, 82.64188
708.5220, 82.82650
709.0041, 82.53947
709.4862, 81.77933
709.9683, 81.03868
710.4504, 80.01487
710.9326, 79.39995
711.4147, 79.87076
711.8968, 80.38542
712.3789, 79.83260
712.8610, 78.37629
713.3431, 77.13888
713.8253, 76.84357
714.3074, 77.05497
714.7895, 77.12923
715.2716, 77.09100
715.7537, 77.17204
716.2358, 77.46871
716.7180, 77.63226
717.2001, 77.30421
717.6822, 76.58309
718.1643, 76.11870
718.6464, 75.89005
719.1285, 75.92890
719.6107, 76.58730
720.0928, 77.21767
720.5749, 77.31607
721.0570, 76.98031
721.5391, 76.55910
722.0212, 76.19971
722.5034, 75.94533
722.9855, 75.86352
723.4676, 75.94226
723.9497, 76.19363
724.4318, 76.68321
724.9139, 76.91581
725.3961, 76.50246
725.8782, 75.67448
726.3603, 75.07659
726.8424, 74.76258
727.3245, 74.54182
727.8066, 74.24345
728.2888, 74.19408
728.7709, 74.87280
729.2530, 75.84718
729.7351, 76.33741
730.2172, 76.08192
730.6993, 75.55750
731.1815, 75.15718
731.6636, 74.90629
732.1457, 75.02725
732.6278, 75.57096
733.1099, 75.76246
733.5920, 75.08508
734.0742, 74.20004
734.5563, 74.19683
735.0384, 75.33813
735.5205, 76.04390
736.0026, 76.14407
736.4847, 76.01484
736.9669, 75.53069
737.4490, 75.03443
737.9311, 74.95323
738.4132, 75.32020
738.8953, 75.76295
739.3774, 75.97511
739.8596, 76.09610
740.3417, 76.59767
740.8238, 77.42387
741.3059, 77.51540
741.7880, 76.41430
742.2701, 75.18750
742.7523, 74.94662
743.2344, 75.59663
743.7165, 75.68594
744.1986, 74.26939
744.6807, 73.64148
745.1628, 74.87652
745.6450, 76.34524
746.1271, 76.78304
746.6092, 76.33657
747.0913, 75.79906
747.5734, 75.53514
748.0555, 75.40474
748.5377, 75.28298
749.0198, 75.15608
749.5019, 74.90078
749.9840, 74.48664
750.4661, 74.32021
750.9482, 74.71789
751.4304, 75.42500
751.9125, 75.82510
752.3946, 75.84113
752.8767, 75.71300
753.3588, 75.24007
753.8409, 74.85497
754.3231, 74.73112
754.8052, 74.80711
755.2873, 75.02077
755.7694, 75.34971
756.2515, 75.68378
756.7336, 76.02063
757.2158, 76.26891
757.6979, 76.21464
758.1800, 75.90310
758.6621, 75.56424
759.1442, 75.25607
759.6263, 75.14775
760.1085, 75.51295
760.5906, 76.35318
761.0727, 76.72108
761.5548, 76.23508
762.0369, 75.83604
762.5190, 75.67664
763.0012, 75.64147
763.4833, 75.62623
763.9654, 75.65382
764.4475, 75.85034
764.9296, 76.37715
765.4117, 76.88977
765.8939, 77.08761
766.3760, 77.07969
766.8581, 77.01949
767.3402, 76.95028
767.8223, 76.98526
768.3044, 77.21146
768.7866, 77.52605
769.2687, 77.64172
769.7508, 77.45920
770.2329, 77.46487
770.7150, 77.95039
771.1971, 78.23206
771.6793, 77.70620
772.1614, 76.93845
772.6435, 76.76384
773.1256, 77.34030
773.6077, 77.82234
774.0898, 77.81906
774.5720, 77.65434
775.0541, 77.47326
775.5362, 77.36377
776.0183, 77.52106
776.5004, 77.97652
776.9825, 78.47375
777.4647, 78.74281
777.9468, 78.83663
778.4289, 79.08340
778.9110, 79.58174
779.3931, 79.65823
779.8752, 78.84826
780.3574, 78.03690
780.8395, 78.12231
781.3216, 78.92812
781.8037, 79.53040
782.2858, 79.83559
782.7679, 80.01875
783.2501, 80.00683
783.7322, 79.98392
784.2143, 80.09453
784.6964, 80.32925
785.1785, 80.67349
785.6606, 81.13647
786.1428, 81.47622
786.6249, 81.26337
787.1070, 80.65868
787.5891, 80.32809
788.0712, 80.31321
788.5533, 80.45870
789.0355, 80.72501
789.5176, 81.05158
789.9997, 81.33885
790.4818, 81.57056
790.9639, 81.86875
791.4460, 82.55817
791.9282, 82.89924
792.4103, 82.45594
792.8924, 81.78934
793.3745, 81.23909
793.8566, 80.93671
794.3387, 81.16873
794.8209, 82.43391
795.3030, 83.73808
795.7851, 83.95961
796.2672, 83.53071
796.7493, 83.40881
797.2314, 83.71411
797.7136, 84.01733
798.1957, 84.03801
798.6778, 83.87888
799.1599, 83.77972
799.6420, 83.74168
800.1241, 83.75329
800.6063, 83.78970
801.0884, 83.91257
801.5705, 84.28609
802.0526, 84.69259
802.5347, 84.82790
803.0168, 84.65257
803.4990, 84.51762
803.9811, 84.50594
804.4632, 84.58131
804.9453, 84.67729
805.4274, 84.86594
805.9095, 85.38741
806.3917, 86.19007
806.8738, 86.75941
807.3559, 86.59131
807.8380, 86.10175
808.3201, 86.32193
808.8022, 87.21538
809.2844, 87.83922
809.7665, 87.96986
810.2486, 88.15007
810.7307, 88.83437
811.2128, 89.79375
811.6949, 90.28148
812.1771, 89.79234
812.6592, 89.86618
813.1413, 91.00071
813.6234, 92.13417
814.1055, 92.60507
814.5876, 92.88757
815.0698, 93.71320
815.5519, 95.19503
816.0340, 96.67838
816.5161, 97.81204
816.9982, 98.68476
817.4803, 99.31955
817.9625, 99.77883
818.4446, 100.1335
818.9267, 100.4316
819.4088, 100.9485
819.8909, 101.9214
820.3730, 103.2812
820.8552, 104.8750
821.3373, 106.8734
821.8194, 108.3445
822.3015, 108.9192
822.7836, 108.7136
823.2657, 110.9000
823.7479, 112.3976
824.2300, 113.2428
824.7121, 111.4831
825.1942, 113.0873
825.6763, 113.3433
826.1584, 113.5441
826.6406, 115.6219
827.1227, 114.2410
827.6048, 116.2889
828.0869, 116.9682
828.5690, 115.9113
829.0511, 115.7152
829.5333, 112.2391
830.0154, 114.5942
830.4975, 115.7640
830.9796, 115.7854
831.4617, 112.7053
831.9438, 112.4928
832.4260, 110.4352
832.9081, 107.8267
833.3902, 106.5983
833.8723, 107.2593
834.3544, 106.5616
834.8365, 105.7531
835.3187, 104.9809
835.8008, 104.3233
836.2829, 103.7207
836.7650, 103.0820
837.2471, 102.3988
837.7292, 101.7755
838.2114, 101.1790
838.6935, 100.7213
839.1756, 100.5189
839.6577, 100.4756
840.1398, 100.5536
840.6219, 100.6733
841.1041, 100.5648
841.5862, 100.0008
842.0683, 99.27612
842.5504, 98.91113
843.0325, 98.86421
843.5146, 98.87874
843.9968, 98.93413
844.4789, 98.96242
844.9610, 98.89982
845.4431, 98.85332
845.9252, 99.06562
846.4073, 99.67006
846.8895, 99.84545
847.3716, 99.12297
847.8537, 98.59396
848.3358, 98.61324
848.8179, 98.82542
849.3000, 98.92144
849.7822, 98.91100
850.2643, 98.95844
850.7464, 99.01949
851.2285, 99.30510
851.7106, 100.1187
852.1927, 101.0998
852.6749, 101.9455
853.1570, 102.5678
853.6391, 102.8127
854.1212, 102.6107
854.6033, 102.2515
855.0854, 102.0250
855.5676, 101.9553
856.0497, 102.3011
856.5318, 103.0864
857.0139, 103.4422
857.4960, 102.9771
857.9781, 102.4141
858.4603, 102.5737
858.9424, 103.3700
859.4245, 103.7775
859.9066, 103.3713
860.3887, 103.3064
860.8708, 103.9385
861.3530, 104.6476
861.8351, 105.0940
862.3172, 105.3987
862.7993, 105.8465
863.2814, 106.5439
863.7635, 107.0368
864.2457, 106.9050
864.7278, 106.7171
865.2099, 106.8610
865.6920, 107.2955
866.1741, 108.0392
866.6563, 109.0088
867.1384, 109.7578
867.6205, 109.8342
868.1026, 109.6979
868.5847, 110.3699
869.0668, 111.6899
869.5490, 112.5715
870.0311, 112.8464
870.5132, 113.0695
870.9953, 113.5109
871.4774, 114.2582
871.9595, 115.5693
872.4417, 117.6592
872.9238, 119.1244
873.4059, 119.4031
873.8880, 119.9612
874.3701, 121.6424
874.8522, 123.4622
875.3344, 124.4568
875.8165, 124.7795
876.2986, 125.4551
876.7807, 127.0729
877.2628, 128.4842
877.7449, 129.1640
878.2271, 129.5661
878.7092, 129.9670
879.1913, 130.4341
879.6734, 130.9794
880.1555, 131.6080
880.6376, 132.4235
881.1198, 133.6897
881.6019, 135.1153
882.0840, 136.0716
882.5661, 136.6784
883.0482, 137.5572
883.5303, 138.8549
884.0125, 140.0208
884.4946, 140.5583
884.9767, 140.6732
885.4588, 141.0554
885.9409, 141.7644
886.4230, 142.4603
886.9052, 143.2964
887.3873, 143.7080
887.8694, 143.2988
888.3515, 142.3896
888.8336, 141.4045
889.3157, 140.2922
889.7979, 139.5102
890.2800, 139.3807
890.7621, 139.1741
891.2442, 138.7730
891.7263, 138.1537
892.2084, 137.2058
892.6906, 136.0276
893.1727, 134.8771
893.6548, 133.7877
894.1369, 132.9370
894.6190, 132.8306
895.1011, 132.7446
895.5833, 131.5191
896.0654, 129.6245
896.5475, 128.4646
897.0296, 128.4137
897.5117, 128.4979
897.9938, 127.7811
898.4760, 126.5557
898.9581, 125.5497
899.4402, 124.7576
899.9223, 124.1045
900.4044, 123.5795
900.8865, 123.1670
901.3687, 122.8461
901.8508, 122.6612
902.3329, 122.7866
902.8150, 123.4250
903.2971, 123.2973
903.7792, 121.6502
904.2614, 120.5409
904.7435, 121.0573
905.2256, 121.9702
905.7077, 122.1840
906.1898, 121.7984
906.6719, 121.3986
907.1541, 120.8531
907.6362, 120.6254
908.1183, 121.1031
908.6004, 121.6791
909.0825, 121.7413
909.5646, 121.6559
910.0468, 122.2697
910.5289, 123.7426
911.0110, 124.9632
911.4931, 124.9011
911.9752, 124.4489
912.4573, 124.3984
912.9395, 124.7529
913.4216, 125.6872
913.9037, 127.0878
914.3858, 128.3257
914.8679, 129.0137
915.3500, 129.3794
915.8321, 129.6698
916.3142, 129.9362
916.7963, 130.5694
917.2784, 131.5793
917.7606, 133.1238
918.2427, 135.4119
918.7248, 137.6235
919.2069, 138.8208
919.6890, 139.1667
920.1711, 139.9329
920.6533, 141.1308
921.1354, 142.7655
921.6175, 145.3426
922.0996, 147.6866
922.5817, 148.7917
923.0638, 149.4718
923.5460, 150.9398
924.0281, 153.2932
924.5102, 155.8311
924.9923, 158.5783
925.4744, 161.3575
925.9565, 164.0879
926.4387, 166.8425
926.9208, 169.6460
927.4029, 172.5370
927.8850, 175.5203
928.3671, 178.5971
928.8492, 181.8231
929.3314, 185.1901
929.8135, 188.7612
930.2956, 192.8551
930.7777, 197.1716
931.2598, 200.8885
931.7419, 203.9647
932.2241, 207.3758
932.7062, 212.0029
933.1883, 217.1555
933.6704, 221.5088
934.1525, 225.2547
934.6346, 229.1593
935.1168, 233.3180
935.5989, 238.2245
936.0810, 244.1522
936.5631, 250.4001
937.0452, 255.9443
937.5273, 260.8728
938.0095, 266.6761
938.4916, 273.6056
938.9737, 280.4478
939.4558, 286.9827
939.9379, 293.4845
940.4200, 300.0335
940.9022, 306.7968
941.3843, 314.2374
941.8664, 322.5326
942.3485, 331.0256
942.8306, 340.1706
943.3127, 348.8804
943.7949, 356.1401
944.2770, 363.4206
944.7591, 371.9294
945.2412, 381.6029
945.7233, 391.8818
946.2054, 402.8754
946.6876, 413.9468
947.1697, 424.9770
947.6518, 435.9108
948.1339, 446.2380
948.6160, 456.5814
949.0981, 468.0694
949.5803, 480.7801
950.0624, 493.7469
950.5445, 506.6929
951.0266, 519.2538
951.5087, 530.5345
951.9908, 541.6099
952.4730, 554.5505
952.9551, 569.1754
953.4372, 584.2836
953.9193, 599.2884
954.4014, 613.4339
954.8835, 625.4621
955.3657, 636.0607
955.8478, 647.1897
956.3299, 658.7399
956.8120, 670.0836
957.2941, 681.0860
957.7762, 692.1250
958.2584, 703.6102
958.7405, 714.8173
959.2226, 724.2992
959.7047, 732.0204
960.1868, 738.7273
960.6689, 744.4149
961.1511, 749.1726
961.6332, 752.9357
962.1153, 756.0801
962.5974, 759.2834
963.0795, 762.0627
963.5616, 762.2402
964.0438, 758.9301
964.5259, 754.9153
965.0080, 749.7283
965.4901, 744.4445
965.9722, 740.8154
966.4543, 736.3094
966.9365, 727.8439
967.4186, 715.7260
967.9007, 703.6783
968.3828, 692.8106
968.8649, 681.0887
969.3470, 668.2152
969.8292, 654.3000
970.3113, 638.9011
970.7934, 622.8159
971.2755, 607.3629
971.7576, 592.7651
972.2397, 577.6881
972.7219, 561.2380
973.2040, 544.5350
973.6861, 527.2890
974.1682, 510.8116
974.6503, 497.3056
975.1324, 485.8080
975.6146, 473.4688
976.0967, 459.2333
976.5788, 444.7535
977.0609, 431.2626
977.5430, 418.5158
978.0251, 405.9969
978.5073, 393.9449
978.9894, 382.7755
979.4715, 372.4957
979.9536, 362.8311
980.4357, 353.5896
980.9178, 344.9312
981.4000, 337.5203
981.8821, 328.9593
982.3642, 322.8999
982.8463, 313.8498
983.3284, 305.9726
983.8105, 299.8658
984.2927, 294.6337
984.7748, 289.7154
985.2569, 284.8646
985.7390, 279.3512
986.2211, 273.1268
986.7032, 267.4269
987.1854, 262.2584
987.6675, 257.6085
988.1496, 253.3897
988.6317, 249.8736
989.1138, 247.5336
989.5959, 245.9892
990.0781, 243.5356
990.5602, 239.6240
991.0423, 236.4071
991.5244, 234.1864
992.0065, 232.2137
992.4886, 230.5837
992.9708, 228.6792
993.4529, 225.5380
993.9350, 221.3247
994.4171, 217.9524
994.8992, 216.2520
995.3813, 214.1092
995.8635, 211.1292
996.3456, 208.0790
996.8277, 205.3886
997.3098, 202.7801
997.7919, 199.9084
998.2740, 196.7635
998.7562, 193.4770
999.2383, 190.2456
999.7204, 186.6608
1000.203, 182.1803
1000.685, 177.7446
1001.167, 174.1772
1001.649, 171.0276
1002.131, 167.4074
1002.613, 163.2016
1003.095, 159.5461
1003.577, 157.2843
1004.059, 155.2629
1004.542, 152.9243
1005.024, 150.4548
1005.506, 148.0367
1005.988, 145.6484
1006.470, 143.0659
1006.952, 140.2648
1007.434, 137.7683
1007.916, 136.3118
1008.398, 134.9463
1008.881, 132.6320
1009.363, 129.9122
1009.845, 127.4740
1010.327, 125.4086
1010.809, 123.6206
1011.291, 122.0747
1011.773, 120.6582
1012.255, 119.4154
1012.738, 118.1217
1013.220, 116.1895
1013.702, 113.9720
1014.184, 112.3217
1014.666, 111.3044
1015.148, 110.6330
1015.630, 110.1706
1016.112, 109.5456
1016.594, 108.2526
1017.077, 106.4827
1017.559, 104.5358
1018.041, 102.5395
1018.523, 101.2486
1019.005, 100.7327
1019.487, 100.1302
1019.969, 98.93959
1020.451, 97.55171
1020.934, 96.58050
1021.416, 95.92925
1021.898, 94.97043
1022.380, 93.71339
1022.862, 92.53848
1023.344, 91.51257
1023.826, 90.64981
1024.308, 89.97084
1024.791, 89.38628
1025.273, 88.72371
1025.755, 87.98592
1026.237, 87.38437
1026.719, 86.94859
1027.201, 86.38659
1027.683, 85.59106
1028.165, 83.59484
1028.647, 84.53326
1029.130, 84.79359
1029.612, 84.41557
1030.094, 81.44502
1030.576, 81.85069
1031.058, 80.92080
1031.540, 79.94791
1032.022, 80.86444
1032.504, 78.33477
1032.986, 79.24638
1033.469, 78.80057
1033.951, 78.99464
1034.433, 77.84483
1034.915, 77.12627
1035.397, 77.77713
1035.879, 77.68899
1036.361, 76.43271
1036.843, 76.74115
1037.326, 74.28754
1037.808, 74.28122
1038.290, 75.33734
1038.772, 74.21140
1039.254, 74.60678
1039.736, 74.43996
1040.218, 71.67368
1040.700, 73.46209
1041.182, 73.29850
1041.665, 71.12977
1042.147, 72.79984
1042.629, 70.93464
1043.111, 70.34821
1043.593, 70.72710
1044.075, 70.12505
1044.557, 71.10162
1045.039, 70.58178
1045.521, 69.93950
1046.004, 69.89760
1046.486, 68.20142
1046.968, 69.61050
1047.450, 68.91935
1047.932, 69.29076
1048.414, 69.91265
1048.896, 68.72431
1049.378, 69.47797
1049.861, 67.25159
1050.343, 67.54160
1050.825, 67.57442
1051.307, 69.22002
1051.789, 67.05811
1052.271, 67.32823
1052.753, 68.06059
1053.235, 68.07889
1053.718, 68.35274
1054.200, 68.58979
1054.682, 68.57618
1055.164, 68.37089
1055.646, 68.05208
1056.128, 67.61903
1056.610, 67.36650
1057.092, 67.53695
1057.574, 67.67847
1058.057, 67.59510
1058.539, 67.45937
1059.021, 67.44555
1059.503, 67.46157
1059.985, 67.30233
1060.467, 66.93620
1060.949, 66.60688
1061.431, 66.32684
1061.913, 66.18674
1062.396, 66.42801
1062.878, 66.62324
1063.360, 66.40343
1063.842, 65.91898
1064.324, 65.42416
1064.806, 64.97041
1065.288, 64.56862
1065.770, 64.12187
1066.253, 63.86904
1066.735, 64.07642
1067.217, 64.34938
1067.699, 64.42205
1068.181, 64.33432
1068.663, 64.09776
1069.145, 63.76500
1069.627, 63.67802
1070.109, 64.23848
1070.592, 64.60224
1071.074, 64.13401
1071.556, 63.58624
1072.038, 63.66962
1072.520, 63.96278
1073.002, 63.70992
1073.484, 62.91930
1073.966, 62.32896
1074.448, 62.17221
1074.931, 62.33382
1075.413, 63.19133
1075.895, 63.89610
1076.377, 63.57807
1076.859, 62.88459
1077.341, 62.83885
1077.823, 63.35695
1078.305, 63.44202
1078.788, 62.64550
1079.270, 61.74145
1079.752, 60.88779
1080.234, 60.27912
1080.716, 60.10120
1081.198, 60.20089
1081.680, 60.51835
1082.162, 60.93143
1082.644, 61.14788
1083.127, 61.06235
1083.609, 60.85456
1084.091, 60.45595
1084.573, 60.13131
1085.055, 60.06318
1085.537, 60.13563
1086.019, 60.35440
1086.501, 60.57721
1086.984, 60.40227
1087.466, 59.66713
1087.948, 59.21472
1088.430, 59.68185
1088.912, 60.16927
1089.394, 60.23588
1089.876, 60.08635
1090.358, 59.79539
1090.840, 59.48811
1091.323, 59.40026
1091.805, 59.57920
1092.287, 59.70445
1092.769, 59.67694
1093.251, 59.54491
1093.733, 59.14575
1094.215, 58.82731
1094.697, 59.10272
1095.179, 59.53298
1095.662, 59.25191
1096.144, 58.22118
1096.626, 57.52034
1097.108, 57.69773
1097.590, 57.91768
1098.072, 58.06464
1098.554, 58.00113
1099.036, 57.38851
1099.519, 56.67276
1100.001, 56.48905
1100.483, 56.79969
1100.965, 57.00308
1101.447, 56.93748
1101.929, 56.81036
1102.411, 56.61010
1102.893, 56.43822
1103.375, 56.38833
1103.858, 56.35378
1104.340, 56.11390
1104.822, 55.79197
1105.304, 55.89988
1105.786, 56.77372
1106.268, 57.14589
1106.750, 56.24371
1107.232, 55.53181
1107.714, 55.71486
1108.197, 56.06424
1108.679, 56.13993
1109.161, 55.90556
1109.643, 55.19201
1110.125, 53.82177
1110.607, 53.13758
1111.089, 53.91886
1111.571, 54.45414
1112.054, 54.08088
1112.536, 53.75251
1113.018, 54.22695
1113.500, 54.97570
1113.982, 55.17188
1114.464, 54.79975
1114.946, 54.34575
1115.428, 53.57751
1115.911, 53.12059
1116.393, 53.24857
1116.875, 53.35268
1117.357, 53.07504
1117.839, 52.77482
1118.321, 52.95152
1118.803, 53.46659
1119.285, 53.47603
1119.767, 52.64199
1120.250, 52.14467
1120.732, 52.01803
1121.214, 52.21625
1121.696, 53.09881
1122.178, 53.64065
1122.660, 52.77039
1123.142, 51.14618
1123.624, 50.52568
1124.106, 51.05798
1124.589, 51.46933
1125.071, 51.77198
1125.553, 51.89754
1126.035, 51.81041
1126.517, 51.59719
1126.999, 51.26904
1127.481, 50.92395
1127.963, 50.69545
1128.446, 50.59299
1128.928, 50.79918
1129.410, 51.37885
1129.892, 51.68264
1130.374, 51.63332
1130.856, 51.30144
1131.338, 50.67506
1131.820, 50.03765
1132.302, 49.68268
1132.785, 49.58046
1133.267, 49.75230
1133.749, 50.16055
1134.231, 50.05460
1134.713, 49.42926
1135.195, 49.28638
1135.677, 49.89991
1136.159, 50.47607
1136.641, 50.43850
1137.124, 50.07863
1137.606, 49.86283
1138.088, 49.74894
1138.570, 49.59475
1139.052, 49.39677
1139.534, 49.10371
1140.016, 48.73742
1140.498, 48.51473
1140.981, 48.53367
1141.463, 48.58112
1141.945, 48.39026
1142.427, 48.42981
1142.909, 48.41935
1143.391, 48.34821
1143.873, 48.42806
1144.355, 48.39442
1144.838, 48.33501
1145.320, 48.25834
1145.802, 48.00883
1146.284, 47.39995
1146.766, 46.84478
1147.248, 46.86339
1147.730, 46.60925
1148.212, 47.00193
1148.694, 46.81969
1149.177, 47.01213
1149.659, 47.52207
1150.141, 47.88824
1150.623, 47.93713
1151.105, 47.80980
1151.587, 47.58944
1152.069, 47.22833
1152.551, 46.48150
1153.033, 45.75790
1153.516, 45.54051
1153.998, 45.65893
1154.480, 45.68915
1154.962, 45.56305
1155.444, 45.56965
1155.926, 46.06567
1156.408, 46.31947
1156.890, 45.80287
1157.373, 45.33510
1157.855, 45.51385
1158.337, 45.89946
1158.819, 45.97700
1159.301, 45.76959
1159.783, 45.51284
1160.265, 45.04662
1160.747, 45.01677
1161.229, 46.14351
1161.712, 46.73802
1162.194, 45.97837
1162.676, 45.11445
1163.158, 44.96457
1163.640, 45.24302
1164.122, 45.49336
1164.604, 45.72444
1165.086, 45.61757
1165.568, 44.97612
1166.051, 44.61206
1166.533, 44.68455
1167.015, 44.81506
1167.497, 44.89928
1167.979, 44.81028
1168.461, 44.33751
1168.943, 43.70221
1169.425, 43.72581
1169.908, 43.52150
1170.390, 43.49348
1170.872, 43.88977
1171.354, 43.82525
1171.836, 44.61820
1172.318, 45.12140
1172.800, 44.60830
1173.282, 43.79195
1173.765, 43.66087
1174.247, 44.01705
1174.729, 44.43327
1175.211, 44.81179
1175.693, 44.71109
1176.175, 44.19720
1176.657, 43.70518
1177.139, 43.40477
1177.621, 43.40491
1178.104, 43.89035
1178.586, 44.34401
1179.068, 44.10550
1179.550, 43.49191
1180.032, 42.74815
1180.514, 42.05664
1180.996, 41.65723
1181.478, 41.58340
1181.960, 41.83251
1182.443, 42.41381
1182.925, 43.00922
1183.407, 43.55426
1183.889, 43.90216
1184.371, 43.91769
1184.853, 43.74294
1185.335, 43.36516
1185.817, 42.95665
1186.300, 42.80689
1186.782, 42.91078
1187.264, 42.93250
1187.746, 42.68456
1188.228, 42.60111
1188.710, 43.13194
1189.192, 43.34784
1189.674, 42.42388
1190.156, 41.53364
1190.639, 41.77498
1191.121, 42.62747
1191.603, 42.92313
1192.085, 42.59090
1192.567, 42.67987
1193.049, 43.45195
1193.531, 43.87860
1194.013, 43.79113
1194.495, 43.50077
1194.978, 43.07940
1195.460, 42.69949
1195.942, 42.55551
1196.424, 42.56342
1196.906, 42.49512
1197.388, 42.35018
1197.870, 42.05477
1198.352, 41.62508
1198.835, 41.31298
1199.317, 41.17347
1199.799, 41.21343
1200.281, 41.43876
1200.763, 41.72235
1201.245, 41.93314
1201.727, 42.08514
1202.209, 42.25103
1202.692, 42.35582
1203.174, 42.11356
1203.656, 41.70071
1204.138, 41.68617
1204.620, 42.10282
1205.102, 42.40001
1205.584, 42.29983
1206.066, 42.00965
1206.548, 41.46666
1207.031, 41.03659
1207.513, 41.09662
1207.995, 41.34137
1208.477, 41.41664
1208.959, 41.41796
1209.441, 41.67025
1209.923, 42.20574
1210.405, 42.51689
1210.887, 42.33052
1211.370, 42.15266
1211.852, 42.09188
1212.334, 42.01736
1212.816, 41.82111
1213.298, 41.64717
1213.780, 41.70548
1214.262, 41.82964
1214.744, 41.56825
1215.227, 40.87122
1215.709, 40.27191
1216.191, 39.64034
1216.673, 39.77510
1217.155, 40.99208
1217.637, 41.84172
1218.119, 41.64769
1218.601, 41.12291
1219.083, 40.95748
1219.566, 41.07221
1220.048, 41.39309
1220.530, 41.82338
1221.012, 41.84748
1221.494, 41.54618
1221.976, 41.37378
1222.458, 41.37903
1222.940, 41.28564
1223.422, 40.97636
1223.905, 40.71621
1224.387, 40.76089
1224.869, 40.92846
1225.351, 41.16201
1225.833, 41.28801
1226.315, 40.96151
1226.797, 40.44829
1227.279, 40.18586
1227.762, 40.20171
1228.244, 40.30455
1228.726, 40.45645
1229.208, 40.58625
1229.690, 40.61323
1230.172, 40.69135
1230.654, 41.05301
1231.136, 41.28809
1231.619, 41.01181
1232.101, 40.52682
1232.583, 40.16856
1233.065, 39.96305
1233.547, 40.11353
1234.029, 40.83338
1234.511, 41.17836
1234.993, 41.08515
1235.475, 40.78263
1235.958, 40.20885
1236.440, 40.09431
1236.922, 40.98111
1237.404, 41.88594
1237.886, 41.35964
1238.368, 39.99172
1238.850, 39.66248
1239.332, 40.10643
1239.814, 40.24194
1240.297, 40.08285
1240.779, 40.04705
1241.261, 40.21050
1241.743, 40.40326
1242.225, 40.54438
1242.707, 40.55755
1243.189, 40.18545
1243.671, 39.87002
1244.154, 40.10606
1244.636, 40.52485
1245.118, 40.81637
1245.600, 40.94686
1246.082, 40.88457
1246.564, 40.66146
1247.046, 40.42778
1247.528, 40.15370
1248.010, 40.05783
1248.493, 40.34235
1248.975, 40.56947
1249.457, 40.62697
1249.939, 40.60424
1250.421, 40.52396
1250.903, 40.41937
1251.385, 40.31826
1251.867, 40.23767
1252.349, 40.31807
1252.832, 40.59246
1253.314, 40.52131
1253.796, 40.07411
1254.278, 39.94987
1254.760, 40.29755
1255.242, 40.66305
1255.724, 40.79967
1256.206, 40.86210
1256.689, 41.06186
1257.171, 40.92284
1257.653, 41.02295
1258.135, 40.63164
1258.617, 40.32800
1259.099, 40.13771
1259.581, 40.10068
1260.063, 40.17284
1260.546, 40.15763
1261.028, 39.96333
1261.510, 39.94226
1261.992, 40.43985
1262.474, 40.87646
1262.956, 41.09826
1263.438, 41.10106
1263.920, 40.69215
1264.402, 40.20721
1264.885, 39.99763
1265.367, 40.05207
1265.849, 40.36619
1266.331, 41.02102
1266.813, 41.41362
1267.295, 41.51782
1267.777, 41.45378
1268.259, 41.21306
1268.741, 41.02999
1269.224, 41.01304
1269.706, 40.95846
1270.188, 40.64277
1270.670, 40.29468
1271.152, 40.39356
1271.634, 40.75427
1272.116, 41.04861
1272.598, 41.20671
1273.081, 40.99279
1273.563, 40.53088
1274.045, 40.20049
1274.527, 40.12562
1275.009, 40.29730
1275.491, 40.86581
1275.973, 41.32619
1276.455, 41.45288
1276.938, 41.38550
1277.420, 40.91468
1277.902, 40.55246
1278.384, 41.06831
1278.866, 40.52685
1279.348, 41.63039
1279.830, 40.41156
1280.312, 39.95361
1280.794, 40.49704
1281.276, 40.84650
1281.759, 40.90678
1282.241, 41.06083
1282.723, 41.42525
1283.205, 41.72886
1283.687, 41.81772
1284.169, 41.65815
1284.651, 41.11260
1285.133, 40.43967
1285.616, 40.07807
1286.098, 40.02450
##END=



