##NAMES=Schmiederite
##RRUFFID=R100089
##IDEAL CHEMISTRY=Cu^2+^_2_Pb^2+^_2_(Se^4+^O_3_)(Se^6+^O_4_)(OH)_4_
##LOCALITY=El Condor mine, Los Llantenes, Sierra de Cacheuta, La Rioja Province, Argentina
##OWNER=RRUFF
##SOURCE=William W. Pinch
##DESCRIPTION=Aggregates of blue bladed crystals
##STATUS=The identification of this mineral has been confirmed by single-crystal X-ray diffraction.
##URL=rruff.info/R100089
160.4759, 15.75264
160.9580, 15.90070
161.4401, 16.22198
161.9222, 16.57515
162.4044, 16.82992
162.8865, 16.96554
163.3686, 17.13153
163.8507, 17.32447
164.3328, 17.54821
164.8149, 17.88245
165.2971, 18.28633
165.7792, 18.59634
166.2613, 18.61392
166.7434, 18.22709
167.2255, 17.83503
167.7076, 17.25693
168.1898, 16.78913
168.6719, 16.75405
169.1540, 17.18035
169.6361, 17.69717
170.1182, 17.76182
170.6003, 17.11684
171.0825, 16.64996
171.5646, 16.42676
172.0467, 16.39030
172.5288, 16.56114
173.0109, 16.98024
173.4930, 17.40112
173.9752, 17.33015
174.4573, 16.71657
174.9394, 16.17328
175.4215, 15.88021
175.9036, 15.78392
176.3857, 15.85046
176.8679, 16.25351
177.3500, 16.50805
177.8321, 15.81122
178.3142, 14.05365
178.7963, 12.56507
179.2784, 12.34259
179.7606, 13.22849
180.2427, 13.93908
180.7248, 13.92608
181.2069, 13.80421
181.6890, 14.28136
182.1711, 15.44147
182.6533, 16.42048
183.1354, 16.07130
183.6175, 14.13405
184.0996, 12.93144
184.5817, 13.93476
185.0638, 15.28100
185.5460, 15.80365
186.0281, 15.26919
186.5102, 14.44216
186.9923, 14.50698
187.4744, 15.99768
187.9565, 16.94873
188.4387, 16.93892
188.9208, 16.49225
189.4029, 15.81072
189.8850, 14.99066
190.3671, 14.25593
190.8492, 14.07762
191.3314, 15.03772
191.8135, 15.61677
192.2956, 15.46025
192.7777, 15.06043
193.2598, 14.91346
193.7419, 15.20440
194.2241, 15.66666
194.7062, 15.65780
195.1883, 14.62986
195.6704, 13.71833
196.1525, 12.68160
196.6346, 11.86120
197.1168, 11.80121
197.5989, 12.76778
198.0810, 14.32194
198.5631, 15.17962
199.0452, 14.91391
199.5273, 14.57854
200.0095, 14.22262
200.4916, 13.91634
200.9737, 13.81913
201.4558, 14.04683
201.9379, 14.43622
202.4200, 14.47692
202.9022, 13.88910
203.3843, 13.50166
203.8664, 13.88185
204.3485, 14.72806
204.8306, 15.12935
205.3127, 14.50462
205.7949, 13.41353
206.2770, 13.15525
206.7591, 14.12895
207.2412, 14.99652
207.7233, 14.77126
208.2054, 13.64272
208.6876, 12.78335
209.1697, 12.68064
209.6518, 13.12362
210.1339, 13.84738
210.6160, 15.05386
211.0981, 15.92485
211.5803, 15.51675
212.0624, 13.82665
212.5445, 12.40874
213.0266, 11.93987
213.5087, 11.95027
213.9908, 12.02545
214.4730, 12.10738
214.9551, 12.25885
215.4372, 12.64093
215.9193, 13.33350
216.4014, 13.76703
216.8836, 13.68002
217.3657, 13.31637
217.8478, 12.66224
218.3299, 11.70567
218.8120, 10.85122
219.2941, 10.70468
219.7763, 11.44804
220.2584, 12.31765
220.7405, 13.71218
221.2226, 14.85811
221.7047, 15.01166
222.1868, 14.00955
222.6690, 12.58239
223.1511, 11.93395
223.6332, 12.49796
224.1153, 12.86591
224.5974, 12.78526
225.0795, 12.56548
225.5617, 12.41589
226.0438, 12.39843
226.5259, 12.44897
227.0080, 12.49024
227.4901, 12.71052
227.9722, 12.53339
228.4544, 11.49487
228.9365, 10.38133
229.4186, 9.762030
229.9007, 9.809243
230.3828, 10.37765
230.8649, 11.26861
231.3471, 13.09887
231.8292, 14.21988
232.3113, 14.48098
232.7934, 14.19669
233.2755, 13.41469
233.7576, 12.21227
234.2398, 10.96823
234.7219, 10.33593
235.2040, 10.76966
235.6861, 11.06088
236.1682, 11.09081
236.6503, 11.04603
237.1325, 11.13663
237.6146, 11.40920
238.0967, 11.67688
238.5788, 11.61482
239.0609, 10.87769
239.5430, 10.65933
240.0252, 11.44308
240.5073, 12.54638
240.9894, 13.28439
241.4715, 13.49759
241.9536, 13.47633
242.4357, 13.62687
242.9179, 14.03951
243.4000, 14.19826
243.8821, 13.75479
244.3642, 13.17165
244.8463, 13.04019
245.3284, 13.49771
245.8106, 14.03891
246.2927, 14.00505
246.7748, 13.37029
247.2569, 12.89192
247.7390, 12.73784
248.2211, 12.77131
248.7033, 12.91880
249.1854, 13.20326
249.6675, 13.33568
250.1496, 12.87174
250.6317, 11.90992
251.1138, 11.13862
251.5960, 10.66806
252.0781, 10.47377
252.5602, 10.58845
253.0423, 11.05440
253.5244, 11.60149
254.0065, 12.09959
254.4887, 12.51008
254.9708, 12.66506
255.4529, 12.36688
255.9350, 11.85038
256.4171, 11.45023
256.8992, 11.20277
257.3813, 10.94920
257.8635, 10.41568
258.3456, 9.807540
258.8277, 9.520331
259.3098, 9.964132
259.7919, 10.61491
260.2740, 10.52971
260.7562, 9.454585
261.2383, 8.741080
261.7204, 9.756626
262.2025, 11.45711
262.6846, 12.56828
263.1667, 12.58193
263.6489, 12.02806
264.1310, 11.55949
264.6131, 11.14358
265.0952, 10.95740
265.5773, 11.40262
266.0594, 11.99328
266.5416, 12.26182
267.0237, 12.05290
267.5058, 11.56673
267.9879, 10.93100
268.4700, 10.02635
268.9521, 9.538820
269.4343, 10.27700
269.9164, 11.23514
270.3985, 11.56277
270.8806, 11.01469
271.3627, 10.24412
271.8448, 10.13159
272.3270, 10.83724
272.8091, 11.36163
273.2912, 11.21148
273.7733, 10.96517
274.2554, 11.08112
274.7375, 11.61774
275.2197, 12.08387
275.7018, 11.77108
276.1839, 10.49589
276.6660, 9.645934
277.1481, 9.686393
277.6302, 10.03212
278.1124, 10.59295
278.5945, 11.28087
279.0766, 11.80389
279.5587, 11.69736
280.0408, 10.83206
280.5229, 10.51429
281.0051, 11.81981
281.4872, 12.80789
281.9693, 12.28860
282.4514, 10.60228
282.9335, 9.050829
283.4156, 8.872790
283.8978, 10.10491
284.3799, 10.96543
284.8620, 11.22382
285.3441, 11.30115
285.8262, 11.25306
286.3083, 11.13657
286.7905, 11.02356
287.2726, 10.92839
287.7547, 10.87416
288.2368, 11.12283
288.7189, 12.22354
289.2010, 12.95979
289.6832, 12.92095
290.1653, 12.33918
290.6474, 11.52697
291.1295, 10.62400
291.6116, 9.695231
292.0938, 8.990873
292.5759, 8.373175
293.0580, 8.249708
293.5401, 9.090931
294.0222, 10.26514
294.5043, 11.02737
294.9865, 11.03526
295.4686, 10.61162
295.9507, 10.56513
296.4328, 11.23303
296.9149, 11.67790
297.3970, 11.72257
297.8792, 11.56750
298.3613, 11.32291
298.8434, 11.03850
299.3255, 10.80493
299.8076, 10.79965
300.2897, 11.17070
300.7719, 11.43730
301.2540, 11.44278
301.7361, 11.44987
302.2182, 11.69773
302.7003, 12.18509
303.1824, 12.65730
303.6646, 12.73966
304.1467, 12.21529
304.6288, 12.09881
305.1109, 12.90333
305.5930, 13.64379
306.0751, 13.75480
306.5573, 13.33064
307.0394, 12.86664
307.5215, 12.80439
308.0036, 13.16603
308.4857, 13.61689
308.9678, 14.61280
309.4500, 15.24593
309.9321, 14.89525
310.4142, 13.97869
310.8963, 13.37718
311.3784, 13.74012
311.8605, 14.90879
312.3427, 15.61905
312.8248, 15.43145
313.3069, 15.26916
313.7890, 15.14473
314.2711, 15.18847
314.7532, 15.63834
315.2354, 16.63218
315.7175, 17.90367
316.1996, 18.65924
316.6817, 18.56365
317.1638, 18.44938
317.6459, 18.18897
318.1281, 18.06937
318.6102, 18.44692
319.0923, 19.40479
319.5744, 20.58331
320.0565, 21.36364
320.5386, 21.51197
321.0208, 21.79360
321.5029, 22.34736
321.9850, 22.93830
322.4671, 23.40264
322.9492, 23.73548
323.4313, 24.05736
323.9135, 24.49531
324.3956, 25.05237
324.8777, 25.71596
325.3598, 26.77425
325.8419, 27.67381
326.3240, 28.13306
326.8062, 28.23842
327.2883, 28.25824
327.7704, 28.36948
328.2525, 28.57720
328.7346, 28.97578
329.2167, 29.80593
329.6989, 30.56553
330.1810, 31.11674
330.6631, 31.52615
331.1452, 31.88448
331.6273, 32.23478
332.1094, 32.58747
332.5916, 32.96794
333.0737, 33.33652
333.5558, 33.81238
334.0379, 34.68066
334.5200, 35.51590
335.0021, 35.92106
335.4843, 35.77036
335.9664, 35.20395
336.4485, 34.33468
336.9306, 32.91372
337.4127, 31.93829
337.8948, 31.80210
338.3770, 31.88645
338.8591, 31.92899
339.3412, 31.85900
339.8233, 31.64495
340.3055, 31.21358
340.7876, 30.54152
341.2697, 29.90929
341.7518, 29.46983
342.2339, 28.91645
342.7160, 28.06145
343.1982, 26.99258
343.6803, 25.88218
344.1624, 24.70402
344.6445, 23.60084
345.1266, 23.40324
345.6087, 24.85966
346.0909, 26.00980
346.5730, 26.09531
347.0551, 25.59558
347.5372, 25.14212
348.0193, 25.02719
348.5014, 24.93574
348.9836, 24.07178
349.4657, 21.97460
349.9478, 20.67669
350.4299, 21.62761
350.9120, 23.01632
351.3941, 23.49100
351.8763, 22.80759
352.3584, 21.77550
352.8405, 21.10314
353.3226, 20.78771
353.8047, 20.88365
354.2868, 21.87281
354.7690, 22.78676
355.2511, 22.81308
355.7332, 22.15810
356.2153, 21.73873
356.6974, 22.52485
357.1795, 24.08724
357.6617, 24.63980
358.1438, 23.73893
358.6259, 22.69683
359.1080, 22.28492
359.5901, 22.22641
360.0722, 22.05356
360.5544, 21.42851
361.0365, 20.81761
361.5186, 21.08301
362.0007, 22.37966
362.4828, 23.31029
362.9649, 23.09415
363.4471, 22.31524
363.9292, 21.56540
364.4113, 20.86037
364.8934, 20.37650
365.3755, 20.30703
365.8576, 20.60017
366.3398, 20.99743
366.8219, 21.52030
367.3040, 22.01192
367.7861, 22.38799
368.2682, 22.64658
368.7503, 22.60223
369.2325, 21.76206
369.7146, 20.69359
370.1967, 20.47903
370.6788, 21.31449
371.1609, 22.36227
371.6430, 23.09622
372.1252, 23.52893
372.6073, 23.69283
373.0894, 23.38387
373.5715, 22.96975
374.0536, 22.75539
374.5357, 22.70759
375.0179, 22.62531
375.5000, 22.42053
375.9821, 22.11214
376.4642, 21.68565
376.9463, 20.90797
377.4284, 20.54199
377.9106, 21.37644
378.3927, 22.69930
378.8748, 23.18097
379.3569, 22.41403
379.8390, 21.18000
380.3211, 20.41292
380.8033, 20.16689
381.2854, 20.16418
381.7675, 20.66142
382.2496, 21.20034
382.7317, 21.42758
383.2138, 21.32881
383.6960, 21.05210
384.1781, 20.65941
384.6602, 20.17536
385.1423, 19.94062
385.6244, 20.01206
386.1065, 20.21426
386.5887, 20.70629
387.0708, 21.25190
387.5529, 21.39462
388.0350, 20.91746
388.5171, 20.12912
388.9992, 19.70195
389.4814, 19.79080
389.9635, 20.05543
390.4456, 20.80650
390.9277, 21.52664
391.4098, 21.69736
391.8919, 21.30987
392.3741, 20.82458
392.8562, 20.71767
393.3383, 21.03106
393.8204, 21.41240
394.3025, 22.10875
394.7846, 22.61533
395.2668, 22.75381
395.7489, 22.57676
396.2310, 22.10014
396.7131, 21.27665
397.1952, 20.36608
397.6773, 20.33135
398.1595, 21.93616
398.6416, 23.17055
399.1237, 23.69242
399.6058, 23.83764
400.0879, 23.77808
400.5700, 23.59823
401.0522, 23.49358
401.5343, 23.75585
402.0164, 24.46365
402.4985, 25.07381
402.9806, 25.81823
403.4627, 26.19349
403.9449, 25.65103
404.4270, 24.53672
404.9091, 23.73891
405.3912, 23.92916
405.8733, 24.77275
406.3554, 25.32340
406.8376, 25.73983
407.3197, 25.45303
407.8018, 23.13973
408.2839, 20.52298
408.7660, 19.63177
409.2481, 21.17103
409.7303, 23.16971
410.2124, 23.49541
410.6945, 22.26984
411.1766, 21.44679
411.6587, 21.63565
412.1408, 22.09786
412.6230, 22.18175
413.1051, 21.91919
413.5872, 21.50532
414.0693, 20.73771
414.5514, 19.97369
415.0335, 19.98954
415.5157, 20.91646
415.9978, 21.62043
416.4799, 21.17210
416.9620, 19.96254
417.4441, 19.26993
417.9262, 19.41679
418.4084, 19.71758
418.8905, 19.83320
419.3726, 19.80451
419.8547, 19.65805
420.3368, 19.33516
420.8189, 19.13283
421.3011, 19.67440
421.7832, 21.25931
422.2653, 22.27041
422.7474, 22.08243
423.2295, 21.55680
423.7116, 21.43765
424.1938, 21.76016
424.6759, 22.13685
425.1580, 22.27031
425.6401, 22.17402
426.1222, 22.10149
426.6043, 22.04922
427.0865, 22.02033
427.5686, 22.10271
428.0507, 22.18149
428.5328, 22.06193
429.0149, 21.67408
429.4970, 21.17977
429.9792, 20.86158
430.4613, 20.78906
430.9434, 20.74898
431.4255, 20.90673
431.9076, 20.95033
432.3897, 20.50267
432.8719, 19.73937
433.3540, 19.26478
433.8361, 19.64530
434.3182, 20.70899
434.8003, 21.16978
435.2824, 20.52244
435.7646, 20.03152
436.2467, 20.15017
436.7288, 20.49923
437.2109, 20.67248
437.6930, 20.54185
438.1751, 20.29070
438.6573, 20.10960
439.1394, 19.99490
439.6215, 20.03158
440.1036, 20.43759
440.5857, 20.76348
441.0678, 20.50688
441.5500, 19.87375
442.0321, 19.64087
442.5142, 20.52826
442.9963, 21.93277
443.4784, 22.81972
443.9605, 23.17665
444.4427, 23.08051
444.9248, 22.24689
445.4069, 21.13018
445.8890, 20.54070
446.3711, 20.64764
446.8532, 20.89423
447.3354, 20.96578
447.8175, 20.95722
448.2996, 21.17000
448.7817, 21.72579
449.2638, 22.14561
449.7459, 21.80679
450.2281, 20.64979
450.7102, 19.81089
451.1923, 19.08687
451.6744, 18.90802
452.1565, 19.95879
452.6386, 21.83972
453.1208, 23.36006
453.6029, 23.88507
454.0850, 23.72403
454.5671, 23.73174
455.0492, 24.13827
455.5313, 24.40257
456.0135, 24.44221
456.4956, 24.38922
456.9777, 24.30047
457.4598, 24.21376
457.9419, 24.23088
458.4240, 24.51414
458.9062, 25.07356
459.3883, 25.09344
459.8704, 23.35297
460.3525, 22.47437
460.8346, 23.72847
461.3167, 25.90267
461.7989, 27.46661
462.2810, 27.84019
462.7631, 27.55010
463.2452, 27.34241
463.7273, 27.21949
464.2094, 27.16616
464.6916, 27.22217
465.1737, 27.31228
465.6558, 27.43913
466.1379, 27.57130
466.6200, 27.60945
467.1021, 27.42283
467.5843, 27.14089
468.0664, 27.03826
468.5485, 27.13613
469.0306, 27.26324
469.5127, 27.39305
469.9948, 27.47478
470.4770, 27.42535
470.9591, 27.21152
471.4412, 26.98254
471.9233, 26.77489
472.4054, 26.61160
472.8875, 26.71109
473.3697, 27.15286
473.8518, 27.16821
474.3339, 25.80051
474.8160, 23.08861
475.2981, 21.49780
475.7802, 22.01121
476.2624, 22.58290
476.7445, 22.07238
477.2266, 21.00177
477.7087, 20.48013
478.1908, 20.95176
478.6729, 21.86827
479.1551, 22.24350
479.6372, 21.85571
480.1193, 21.40987
480.6014, 20.48287
481.0835, 19.87793
481.5656, 20.39256
482.0478, 21.64460
482.5299, 22.57547
483.0120, 22.46807
483.4941, 21.55711
483.9762, 20.67615
484.4583, 19.68606
484.9405, 19.02781
485.4226, 18.95678
485.9047, 19.10284
486.3868, 19.20746
486.8689, 19.23060
487.3510, 19.25938
487.8332, 19.34650
488.3153, 19.49588
488.7974, 19.79644
489.2795, 20.39723
489.7616, 20.78592
490.2437, 20.48772
490.7259, 19.80839
491.2080, 19.14701
491.6901, 18.47801
492.1722, 18.03488
492.6543, 18.14175
493.1364, 18.61926
493.6186, 18.90104
494.1007, 18.79870
494.5828, 18.68228
495.0649, 19.06933
495.5470, 20.03443
496.0291, 20.53796
496.5113, 20.06794
496.9934, 19.57563
497.4755, 19.75706
497.9576, 20.36287
498.4397, 20.67553
498.9218, 20.33068
499.4040, 19.69057
499.8861, 19.61980
500.3682, 20.92536
500.8503, 21.28080
501.3324, 19.93702
501.8145, 18.39924
502.2967, 17.43006
502.7788, 17.09415
503.2609, 17.22356
503.7430, 17.77677
504.2251, 18.61635
504.7072, 19.17710
505.1894, 19.30515
505.6715, 19.51202
506.1536, 20.30728
506.6357, 20.98384
507.1178, 20.71543
507.5999, 19.47565
508.0821, 18.49081
508.5642, 18.92506
509.0463, 20.30548
509.5284, 21.29087
510.0105, 21.80533
510.4926, 21.89280
510.9748, 21.23094
511.4569, 20.24630
511.9390, 19.93930
512.4211, 20.59146
512.9032, 21.51037
513.3853, 22.77033
513.8674, 23.96108
514.3495, 24.20932
514.8317, 23.32541
515.3138, 22.11028
515.7959, 21.31338
516.2780, 20.94166
516.7601, 20.97601
517.2422, 21.77889
517.7244, 22.51279
518.2065, 22.86595
518.6886, 22.98471
519.1707, 23.22453
519.6528, 23.68143
520.1349, 23.89396
520.6171, 22.90336
521.0992, 20.09886
521.5813, 18.58876
522.0634, 19.56034
522.5455, 20.71466
523.0276, 21.36469
523.5098, 21.58077
523.9919, 21.57226
524.4740, 21.40677
524.9561, 21.13050
525.4382, 20.81728
525.9203, 20.47010
526.4025, 19.95143
526.8846, 18.99585
527.3667, 18.18099
527.8488, 18.17918
528.3309, 18.86516
528.8130, 19.45814
529.2952, 19.53990
529.7773, 19.57700
530.2594, 20.23399
530.7415, 21.30833
531.2236, 21.82292
531.7057, 21.28696
532.1879, 20.13317
532.6700, 19.16796
533.1521, 18.42222
533.6342, 17.81134
534.1163, 16.93236
534.5984, 16.53257
535.0806, 17.67757
535.5627, 19.77509
536.0448, 21.07578
536.5269, 20.41739
537.0090, 18.55049
537.4911, 17.83414
537.9733, 18.99079
538.4554, 19.69760
538.9375, 19.15866
539.4196, 18.54210
539.9017, 18.72474
540.3839, 19.56336
540.8660, 20.16476
541.3481, 19.76206
541.8302, 18.84463
542.3123, 18.53942
542.7944, 18.90815
543.2766, 19.38584
543.7587, 20.01672
544.2408, 20.40743
544.7229, 19.85284
545.2050, 18.20461
545.6871, 16.97116
546.1693, 16.88652
546.6514, 17.34151
547.1335, 17.79967
547.6156, 18.18229
548.0977, 18.40164
548.5798, 18.38485
549.0620, 18.19576
549.5441, 18.05097
550.0262, 18.13435
550.5083, 18.00719
550.9904, 17.15651
551.4725, 16.48188
551.9547, 16.99415
552.4368, 18.42089
552.9189, 19.47959
553.4010, 19.09235
553.8831, 17.73206
554.3652, 17.46260
554.8474, 18.98336
555.3295, 19.82910
555.8116, 18.48288
556.2937, 16.84641
556.7758, 16.35312
557.2579, 17.04334
557.7401, 17.86159
558.2222, 18.21941
558.7043, 18.29797
559.1864, 18.34240
559.6685, 18.35884
560.1506, 18.60481
560.6328, 19.39458
561.1149, 20.30794
561.5970, 20.30791
562.0791, 19.09146
562.5612, 18.13441
563.0433, 17.67447
563.5255, 17.60237
564.0076, 18.08144
564.4897, 18.91790
564.9718, 19.45872
565.4539, 19.25769
565.9360, 18.55228
566.4182, 18.13802
566.9003, 18.09659
567.3824, 18.20284
567.8645, 18.44318
568.3466, 18.80377
568.8287, 19.48317
569.3109, 20.31323
569.7930, 20.73272
570.2751, 20.24756
570.7572, 19.29139
571.2393, 18.75832
571.7214, 18.66916
572.2036, 18.77723
572.6857, 19.14328
573.1678, 19.52682
573.6499, 19.59261
574.1320, 19.35051
574.6141, 19.21874
575.0963, 19.51692
575.5784, 19.80755
576.0605, 19.67645
576.5426, 19.20068
577.0247, 18.58660
577.5068, 17.88522
577.9890, 17.39238
578.4711, 17.76837
578.9532, 19.81364
579.4353, 20.65059
579.9174, 19.47985
580.3995, 18.06229
580.8817, 16.88576
581.3638, 16.15646
581.8459, 16.22514
582.3280, 17.32035
582.8101, 18.76922
583.2922, 19.43540
583.7744, 19.25749
584.2565, 19.21285
584.7386, 19.71024
585.2207, 19.94946
585.7029, 18.91216
586.1850, 17.18983
586.6671, 16.34384
587.1492, 17.09897
587.6313, 18.35506
588.1135, 19.64615
588.5956, 20.79763
589.0777, 21.28093
589.5598, 20.94824
590.0419, 20.39784
590.5240, 20.25677
591.0062, 20.54565
591.4883, 20.77781
591.9704, 21.10433
592.4525, 21.20170
592.9346, 20.77935
593.4167, 20.19309
593.8989, 19.77470
594.3810, 19.63193
594.8631, 19.78745
595.3452, 20.41641
595.8273, 21.44320
596.3094, 21.96315
596.7916, 21.79285
597.2737, 21.53917
597.7558, 21.39519
598.2379, 21.33302
598.7200, 21.32478
599.2021, 21.36449
599.6843, 21.48740
600.1664, 21.84468
600.6485, 22.23083
601.1306, 22.23769
601.6127, 21.89649
602.0948, 21.81196
602.5770, 22.43369
603.0591, 23.36876
603.5412, 23.51264
604.0233, 21.98214
604.5054, 21.10143
604.9875, 21.30879
605.4697, 21.76718
605.9518, 22.02842
606.4339, 22.08397
606.9160, 22.00789
607.3981, 21.79548
607.8802, 21.68659
608.3624, 22.41353
608.8445, 24.19391
609.3266, 24.99372
609.8087, 23.87211
610.2908, 22.50086
610.7729, 22.12058
611.2551, 22.48509
611.7372, 22.89094
612.2193, 23.30802
612.7014, 23.53020
613.1835, 23.29451
613.6656, 22.77152
614.1478, 22.30371
614.6299, 21.97851
615.1120, 21.77138
615.5941, 21.64861
616.0762, 21.60992
616.5583, 21.78353
617.0405, 22.64063
617.5226, 23.11844
618.0047, 22.65057
618.4868, 21.96536
618.9689, 21.86532
619.4510, 22.40373
619.9332, 22.93661
620.4153, 22.93050
620.8974, 22.48589
621.3795, 21.85375
621.8616, 20.93559
622.3438, 20.36900
622.8259, 20.51532
623.3080, 21.03058
623.7901, 21.48839
624.2722, 21.89355
624.7543, 22.19425
625.2365, 22.50300
625.7186, 22.59913
626.2007, 22.11776
626.6828, 21.26496
627.1649, 20.58813
627.6470, 20.31300
628.1292, 20.35959
628.6113, 20.66407
629.0934, 21.39167
629.5755, 21.68360
630.0576, 21.06332
630.5397, 20.50079
631.0219, 20.29209
631.5040, 20.30412
631.9861, 20.41278
632.4682, 20.59237
632.9503, 20.58236
633.4324, 19.74322
633.9146, 18.52254
634.3967, 18.62223
634.8788, 20.33076
635.3609, 21.85540
635.8430, 22.07952
636.3251, 21.42358
636.8073, 21.05439
637.2894, 20.95494
637.7715, 21.11090
638.2536, 21.84968
638.7357, 22.57357
639.2178, 22.72766
639.7000, 22.45153
640.1821, 22.22293
640.6642, 22.29441
641.1463, 22.62346
641.6284, 23.26974
642.1105, 24.41095
642.5927, 24.85316
643.0748, 23.87243
643.5569, 22.96707
644.0390, 23.13983
644.5211, 23.94627
645.0032, 24.47938
645.4854, 24.44924
645.9675, 24.30279
646.4496, 24.32700
646.9317, 24.44480
647.4138, 24.55013
647.8959, 24.61817
648.3781, 24.53163
648.8602, 24.14399
649.3423, 23.58611
649.8244, 23.50333
650.3065, 24.56696
650.7886, 25.09399
651.2708, 24.55393
651.7529, 23.89357
652.2350, 23.73890
652.7171, 24.01773
653.1992, 24.33418
653.6813, 24.46995
654.1635, 24.56927
654.6456, 25.00325
655.1277, 25.71049
655.6098, 25.80838
656.0919, 24.92048
656.5740, 23.99183
657.0562, 23.80871
657.5383, 24.32614
658.0204, 24.95670
658.5025, 26.09841
658.9846, 26.85131
659.4667, 26.65924
659.9489, 26.12535
660.4310, 25.94958
660.9131, 26.13972
661.3952, 26.14481
661.8773, 25.49389
662.3594, 24.47823
662.8416, 24.11837
663.3237, 24.62544
663.8058, 25.01037
664.2879, 25.07767
664.7700, 24.99136
665.2521, 24.78546
665.7343, 24.52195
666.2164, 24.41327
666.6985, 24.63518
667.1806, 24.87298
667.6627, 24.86633
668.1448, 24.72789
668.6270, 24.67881
669.1091, 24.76004
669.5912, 24.86057
670.0733, 24.86981
670.5554, 24.81816
671.0375, 24.95984
671.5197, 25.76578
672.0018, 25.96854
672.4839, 24.65961
672.9660, 23.41668
673.4481, 23.58780
673.9302, 24.83518
674.4124, 25.78389
674.8945, 25.73775
675.3766, 25.07919
675.8587, 23.91066
676.3408, 22.45932
676.8229, 21.90580
677.3051, 22.60160
677.7872, 23.60022
678.2693, 24.14886
678.7514, 24.25696
679.2335, 24.01196
679.7156, 22.85496
680.1978, 22.13014
680.6799, 22.14725
681.1620, 22.57660
681.6441, 23.36706
682.1262, 24.33368
682.6083, 24.98306
683.0905, 24.92311
683.5726, 24.57973
684.0547, 24.95070
684.5368, 26.03221
685.0189, 26.36841
685.5010, 25.42399
685.9832, 24.26531
686.4653, 23.69773
686.9474, 23.67715
687.4295, 23.89447
687.9116, 24.63513
688.3937, 25.21040
688.8759, 25.36314
689.3580, 25.29514
689.8401, 25.10935
690.3222, 24.88695
690.8043, 24.82285
691.2864, 25.07172
691.7686, 25.45506
692.2507, 25.49167
692.7328, 25.10121
693.2149, 24.90029
693.6970, 25.14700
694.1791, 25.34290
694.6613, 24.87933
695.1434, 24.13702
695.6255, 24.04650
696.1076, 25.15811
696.5897, 26.09070
697.0718, 25.94973
697.5540, 25.44312
698.0361, 25.54226
698.5182, 26.19319
699.0003, 26.63090
699.4824, 26.38481
699.9645, 25.63890
700.4467, 24.68343
700.9288, 23.20734
701.4109, 22.74520
701.8930, 24.31875
702.3751, 25.77679
702.8572, 25.91256
703.3394, 25.28282
703.8215, 24.78337
704.3036, 24.57369
704.7857, 24.59890
705.2678, 24.97624
705.7499, 25.49144
706.2321, 25.99109
706.7142, 26.38160
707.1963, 26.18686
707.6784, 25.06779
708.1605, 23.80325
708.6426, 24.12602
709.1248, 26.83701
709.6069, 28.25221
710.0890, 27.07696
710.5711, 26.11430
711.0532, 26.83154
711.5353, 28.07376
712.0175, 28.07814
712.4996, 26.43737
712.9817, 25.16829
713.4638, 25.94004
713.9459, 27.57290
714.4280, 28.56700
714.9102, 28.88861
715.3923, 28.69471
715.8744, 28.00357
716.3565, 27.20400
716.8386, 26.87686
717.3207, 27.08950
717.8029, 27.28981
718.2850, 27.21957
718.7671, 27.47151
719.2492, 28.79128
719.7313, 30.10280
720.2134, 30.07615
720.6956, 28.70178
721.1777, 27.55350
721.6598, 27.80071
722.1419, 28.61270
722.6240, 29.08362
723.1061, 29.20579
723.5883, 28.78240
724.0704, 27.70788
724.5525, 26.82679
725.0346, 27.11388
725.5167, 28.52808
725.9988, 29.49192
726.4810, 29.80307
726.9631, 29.93751
727.4452, 29.87384
727.9273, 29.73034
728.4094, 29.65335
728.8915, 29.58749
729.3737, 29.25613
729.8558, 28.24737
730.3379, 27.40823
730.8200, 27.95462
731.3021, 29.36817
731.7842, 30.21771
732.2664, 30.25344
732.7485, 29.91374
733.2306, 29.46229
733.7127, 28.96841
734.1948, 28.71583
734.6769, 28.87365
735.1591, 28.96773
735.6412, 28.84065
736.1233, 28.79663
736.6054, 29.18778
737.0875, 29.72503
737.5696, 29.81004
738.0518, 29.18841
738.5339, 28.50286
739.0160, 28.21292
739.4981, 28.22625
739.9802, 28.48764
740.4623, 28.93943
740.9445, 29.18826
741.4266, 29.00583
741.9087, 28.65986
742.3908, 28.63940
742.8729, 29.02479
743.3550, 29.39215
743.8372, 29.94032
744.3193, 30.21975
744.8014, 29.97706
745.2835, 29.48447
745.7656, 28.99815
746.2477, 28.56371
746.7299, 28.19253
747.2120, 27.54006
747.6941, 27.21344
748.1762, 28.58278
748.6583, 30.89812
749.1404, 31.52706
749.6226, 29.74785
750.1047, 27.54485
750.5868, 26.96417
751.0689, 27.85065
751.5510, 28.48716
752.0331, 28.72494
752.5153, 28.99381
752.9974, 29.41418
753.4795, 29.84275
753.9616, 30.34057
754.4437, 30.77897
754.9258, 30.75085
755.4080, 29.90443
755.8901, 29.00757
756.3722, 28.50314
756.8543, 28.31598
757.3364, 28.44747
757.8185, 28.82216
758.3007, 29.11334
758.7828, 29.10831
759.2649, 28.99448
759.7470, 29.23002
760.2291, 29.94941
760.7112, 30.34368
761.1934, 30.08189
761.6755, 29.98495
762.1576, 30.71661
762.6397, 31.69991
763.1218, 32.11485
763.6039, 31.81241
764.0861, 31.73998
764.5682, 32.40662
765.0503, 33.25669
765.5324, 34.00673
766.0145, 34.57079
766.4966, 34.77430
766.9788, 34.59997
767.4609, 34.31336
767.9430, 34.10750
768.4251, 34.04979
768.9072, 34.58240
769.3893, 35.84651
769.8715, 36.98641
770.3536, 37.92878
770.8357, 38.48815
771.3178, 38.18078
771.7999, 37.24575
772.2820, 36.93476
772.7642, 37.53918
773.2463, 38.47876
773.7284, 39.68478
774.2105, 41.09313
774.6926, 42.94981
775.1747, 44.95205
775.6569, 46.19955
776.1390, 46.18542
776.6211, 45.84918
777.1032, 46.63881
777.5853, 48.30815
778.0674, 49.24657
778.5496, 49.19456
779.0317, 49.80891
779.5138, 52.15634
779.9959, 55.25374
780.4780, 57.37444
780.9601, 58.26809
781.4423, 59.16035
781.9244, 59.95539
782.4065, 60.86158
782.8886, 62.21912
783.3707, 63.55139
783.8528, 64.19485
784.3350, 64.18769
784.8171, 64.37190
785.2992, 65.46899
785.7813, 66.79049
786.2634, 67.44581
786.7455, 67.57021
787.2277, 67.48792
787.7098, 67.27548
788.1919, 67.34628
788.6740, 68.11771
789.1561, 69.27734
789.6382, 69.64074
790.1204, 68.87683
790.6025, 68.11845
791.0846, 67.67014
791.5667, 66.94744
792.0488, 65.66801
792.5309, 63.96586
793.0131, 61.92513
793.4952, 59.47293
793.9773, 57.32984
794.4594, 56.03790
794.9415, 55.02996
795.4236, 53.70589
795.9058, 52.24707
796.3879, 51.22965
796.8700, 50.78775
797.3521, 50.35833
797.8342, 49.34022
798.3163, 47.83215
798.7985, 46.25816
799.2806, 44.52171
799.7627, 43.29292
800.2448, 42.89748
800.7269, 42.75023
801.2090, 42.29667
801.6912, 41.64490
802.1733, 41.36080
802.6554, 41.61316
803.1375, 41.96645
803.6196, 42.76807
804.1017, 43.25972
804.5839, 42.40352
805.0660, 40.90142
805.5481, 40.42440
806.0302, 41.59635
806.5123, 42.87268
806.9944, 42.29744
807.4766, 40.78368
807.9587, 40.56724
808.4408, 41.64577
808.9229, 43.20431
809.4050, 45.02348
809.8871, 46.68981
810.3693, 47.63702
810.8514, 47.87631
811.3335, 48.58291
811.8156, 50.53123
812.2977, 51.64738
812.7798, 50.59734
813.2620, 49.58213
813.7441, 50.21223
814.2262, 52.06294
814.7083, 53.77910
815.1904, 55.01304
815.6725, 56.03823
816.1547, 56.84851
816.6368, 57.64795
817.1189, 58.77579
817.6010, 60.11579
818.0831, 61.18343
818.5652, 61.78112
819.0474, 62.32484
819.5295, 63.35668
820.0116, 64.83916
820.4937, 66.55776
820.9758, 68.63684
821.4579, 70.17513
821.9401, 70.77204
822.4222, 70.92488
822.9043, 71.15412
823.3864, 71.44421
823.8685, 71.46975
824.3506, 70.71410
824.8328, 70.42871
825.3149, 71.82645
825.7970, 72.84705
826.2791, 71.78708
826.7612, 69.16561
827.2433, 66.31232
827.7255, 63.62011
828.2076, 61.36607
828.6897, 59.96831
829.1718, 59.06247
829.6539, 58.10439
830.1360, 57.07174
830.6182, 56.11584
831.1003, 55.30009
831.5824, 54.20610
832.0645, 52.21503
832.5466, 49.44558
833.0287, 47.58721
833.5109, 46.98522
833.9930, 46.22718
834.4751, 44.51058
834.9572, 43.18085
835.4393, 43.94173
835.9214, 45.97377
836.4036, 46.83959
836.8857, 45.82771
837.3678, 44.72001
837.8499, 43.85736
838.3320, 43.13318
838.8141, 42.45539
839.2963, 41.86916
839.7784, 41.47865
840.2605, 41.31227
840.7426, 41.26222
841.2247, 41.20878
841.7068, 41.21510
842.1890, 41.59643
842.6711, 42.21561
843.1532, 42.19086
843.6353, 41.27614
844.1174, 40.21568
844.5995, 39.67385
845.0817, 39.52947
845.5638, 39.22280
846.0459, 38.56100
846.5280, 38.30298
847.0101, 38.96875
847.4922, 39.43829
847.9744, 38.84190
848.4565, 37.81740
848.9386, 37.44734
849.4207, 37.95970
849.9028, 38.05601
850.3849, 36.80632
850.8671, 35.66988
851.3492, 35.60425
851.8313, 36.13218
852.3134, 36.76582
852.7955, 37.28905
853.2776, 37.35435
853.7598, 36.57102
854.2419, 35.55449
854.7240, 35.41595
855.2061, 35.87185
855.6882, 35.63067
856.1703, 34.55265
856.6525, 33.82433
857.1346, 34.20675
857.6167, 34.96387
858.0988, 34.61343
858.5809, 32.89494
859.0630, 31.79797
859.5452, 31.45940
860.0273, 31.50799
860.5094, 32.45161
860.9915, 33.24742
861.4736, 32.73273
861.9557, 31.13948
862.4379, 29.93405
862.9200, 29.46779
863.4021, 29.29648
863.8842, 29.31833
864.3663, 29.53016
864.8484, 30.17139
865.3306, 30.96195
865.8127, 31.32704
866.2948, 31.04659
866.7769, 30.28841
867.2590, 28.71240
867.7411, 26.98326
868.2233, 26.72155
868.7054, 27.70558
869.1875, 28.58490
869.6696, 28.97345
870.1517, 29.23679
870.6339, 29.78904
871.1160, 30.41747
871.5981, 29.96049
872.0802, 27.81011
872.5623, 26.85064
873.0444, 28.04776
873.5266, 29.32831
874.0087, 29.64124
874.4908, 29.24851
874.9729, 28.58594
875.4550, 27.59247
875.9371, 26.69003
876.4193, 25.63149
876.9014, 25.03824
877.3835, 25.56119
877.8656, 26.42652
878.3477, 26.87871
878.8298, 26.84488
879.3120, 26.53844
879.7941, 25.92522
880.2762, 25.44616
880.7583, 25.74428
881.2404, 26.37408
881.7225, 26.50409
882.2047, 26.16379
882.6868, 25.89101
883.1689, 25.91719
883.6510, 25.90502
884.1331, 25.31166
884.6152, 24.28173
885.0974, 24.04250
885.5795, 24.73075
886.0616, 25.20864
886.5437, 25.15992
887.0258, 24.96577
887.5079, 24.90435
887.9901, 24.95691
888.4722, 25.06455
888.9543, 25.51388
889.4364, 25.46181
889.9185, 24.17865
890.4006, 23.25102
890.8828, 23.71428
891.3649, 24.63825
891.8470, 24.78405
892.3291, 24.06998
892.8112, 23.54700
893.2933, 24.07046
893.7755, 24.41717
894.2576, 23.22167
894.7397, 21.78721
895.2218, 22.12583
895.7039, 23.86660
896.1860, 24.93033
896.6682, 24.29751
897.1503, 23.27514
897.6324, 23.53451
898.1145, 24.66261
898.5966, 25.65497
899.0787, 26.42187
899.5609, 26.33106
900.0430, 25.13546
900.5251, 23.66257
901.0072, 22.64219
901.4893, 22.08552
901.9714, 22.16131
902.4536, 23.13479
902.9357, 23.73244
903.4178, 23.56751
903.8999, 23.53285
904.3820, 24.47750
904.8641, 25.62573
905.3463, 25.41471
905.8284, 23.59293
906.3105, 22.57059
906.7926, 23.05786
907.2747, 23.67350
907.7568, 24.08941
908.2390, 24.38360
908.7211, 24.70219
909.2032, 24.97436
909.6853, 24.96196
910.1674, 24.53796
910.6495, 23.99348
911.1317, 23.49850
911.6138, 22.99908
912.0959, 22.23929
912.5780, 21.46527
913.0601, 21.22336
913.5422, 21.65956
914.0244, 22.63427
914.5065, 24.25460
914.9886, 25.94649
915.4707, 26.43921
915.9528, 25.86740
916.4349, 24.93719
916.9171, 23.73842
917.3992, 22.73459
917.8813, 22.14664
918.3634, 22.03532
918.8455, 22.63711
919.3276, 24.03869
919.8098, 24.52360
920.2919, 23.58664
920.7740, 23.04585
921.2561, 23.56023
921.7382, 24.30335
922.2203, 24.71253
922.7025, 24.79408
923.1846, 24.57800
923.6667, 23.80551
924.1488, 23.30119
924.6309, 23.37104
925.1130, 23.46219
925.5952, 23.18324
926.0773, 22.86762
926.5594, 23.06952
927.0415, 23.74380
927.5236, 24.10004
928.0057, 23.52985
928.4879, 22.95921
928.9700, 23.09423
929.4521, 23.48770
929.9342, 23.62159
930.4163, 23.53246
930.8984, 23.48727
931.3806, 23.58538
931.8627, 23.70645
932.3448, 23.73641
932.8269, 23.70174
933.3090, 23.62526
933.7911, 23.52895
934.2733, 23.54937
934.7554, 23.70131
935.2375, 23.78157
935.7196, 23.66205
936.2017, 23.34549
936.6838, 22.69305
937.1660, 21.65224
937.6481, 21.42184
938.1302, 22.21057
938.6123, 22.90581
939.0944, 23.15690
939.5765, 23.12462
940.0587, 22.80214
940.5408, 22.32190
941.0229, 22.71765
941.5050, 25.24969
941.9871, 26.34683
942.4692, 24.49414
942.9514, 22.79236
943.4335, 22.47934
943.9156, 22.99510
944.3977, 23.79122
944.8798, 24.81217
945.3619, 25.55287
945.8441, 25.96497
946.3262, 26.00032
946.8083, 25.14297
947.2904, 24.33325
947.7725, 24.49930
948.2546, 25.32866
948.7368, 25.98630
949.2189, 26.21949
949.7010, 26.41367
950.1831, 26.88023
950.6652, 27.38120
951.1473, 27.77092
951.6295, 27.98272
952.1116, 27.67069
952.5937, 26.99532
953.0758, 26.88362
953.5579, 27.92040
954.0400, 29.25539
954.5222, 29.72832
955.0043, 29.57190
955.4864, 29.30292
955.9685, 29.01437
956.4506, 29.28714
956.9327, 30.29186
957.4149, 31.22921
957.8970, 31.32964
958.3791, 30.96452
958.8612, 31.33642
959.3433, 32.50347
959.8254, 33.54679
960.3076, 34.38762
960.7897, 35.20359
961.2718, 36.09989
961.7539, 36.94594
962.2360, 37.61707
962.7181, 38.10328
963.2003, 38.07814
963.6824, 37.03975
964.1645, 36.54478
964.6466, 37.32249
965.1287, 37.94346
965.6108, 37.47172
966.0930, 36.45440
966.5751, 35.70248
967.0572, 35.26991
967.5393, 34.69765
968.0214, 33.68400
968.5035, 32.86864
968.9857, 32.91103
969.4678, 32.77248
969.9499, 31.22885
970.4320, 28.97040
970.9141, 27.62313
971.3962, 27.64377
971.8784, 27.91096
972.3605, 28.22344
972.8426, 28.28318
973.3247, 27.59817
973.8068, 26.71894
974.2889, 26.47927
974.7711, 26.76162
975.2532, 26.71247
975.7353, 25.89853
976.2174, 24.94835
976.6995, 24.40323
977.1816, 24.08462
977.6638, 23.86211
978.1459, 23.63040
978.6280, 23.03208
979.1101, 22.08547
979.5922, 21.41882
980.0743, 21.50241
980.5565, 21.96998
981.0386, 22.43544
981.5207, 22.77060
982.0028, 22.26459
982.4849, 21.02250
982.9670, 20.28948
983.4492, 20.48979
983.9313, 21.05149
984.4134, 21.48679
984.8955, 21.75675
985.3776, 21.72004
985.8597, 21.37083
986.3419, 20.76210
986.8240, 19.76361
987.3061, 19.41758
987.7882, 20.29325
988.2703, 21.68925
988.7524, 22.88372
989.2346, 23.82590
989.7167, 23.84725
990.1988, 22.53374
990.6809, 21.52657
991.1630, 20.86515
991.6451, 20.76688
992.1273, 21.65757
992.6094, 22.90405
993.0915, 23.64927
993.5736, 23.89924
994.0557, 23.54831
994.5378, 21.47553
995.0200, 20.46625
995.5021, 21.80345
995.9842, 23.17820
996.4663, 23.26098
996.9484, 22.61070
997.4305, 22.15930
997.9127, 21.99265
998.3948, 21.80747
998.8769, 21.66413
999.3590, 21.34711
999.8411, 20.60901
1000.323, 19.83698
1000.805, 19.13332
1001.287, 18.68689
1001.770, 18.92171
1002.252, 19.96289
1002.734, 20.99625
1003.216, 21.89557
1003.698, 22.43821
1004.180, 22.35438
1004.662, 21.94450
1005.144, 21.25700
1005.627, 20.57470
1006.109, 20.62513
1006.591, 21.70093
1007.073, 22.65034
1007.555, 22.60975
1008.037, 22.13331
1008.519, 21.54276
1009.001, 20.98762
1009.483, 20.63508
1009.966, 20.53185
1010.448, 20.81075
1010.930, 21.55684
1011.412, 22.19482
1011.894, 22.04388
1012.376, 21.48665
1012.858, 20.87837
1013.340, 20.40756
1013.823, 20.78003
1014.305, 21.88095
1014.787, 22.39762
1015.269, 21.53650
1015.751, 20.37809
1016.233, 20.65870
1016.715, 20.07903
1017.197, 19.80902
1017.679, 20.23029
1018.162, 19.78093
1018.644, 20.46131
1019.126, 21.22346
1019.608, 21.37691
1020.090, 21.17349
1020.572, 20.96371
1021.054, 20.77179
1021.536, 20.80267
1022.018, 21.04879
1022.501, 21.22174
1022.983, 21.24403
1023.465, 21.40161
1023.947, 21.96161
1024.429, 22.57734
1024.911, 22.36444
1025.393, 21.29229
1025.875, 20.99007
1026.358, 21.59279
1026.840, 21.75550
1027.322, 20.99570
1027.804, 20.37077
1028.286, 20.77827
1028.768, 21.75745
1029.250, 22.12034
1029.732, 21.76385
1030.214, 21.58240
1030.697, 21.62111
1031.179, 21.71833
1031.661, 21.95336
1032.143, 21.94151
1032.625, 21.30868
1033.107, 20.25203
1033.589, 19.22585
1034.071, 17.94650
1034.553, 18.10434
1035.036, 20.68198
1035.518, 22.56138
1036.000, 22.78821
1036.482, 22.30190
1036.964, 21.60708
1037.446, 20.84897
1037.928, 20.46621
1038.410, 20.50753
1038.893, 20.76501
1039.375, 21.59497
1039.857, 22.06816
1040.339, 21.70554
1040.821, 21.18460
1041.303, 20.91543
1041.785, 20.89707
1042.267, 21.20362
1042.750, 22.06934
1043.232, 22.47763
1043.714, 22.01166
1044.196, 21.63628
1044.678, 21.55023
1045.160, 21.64466
1045.642, 21.88914
1046.124, 22.24200
1046.606, 22.63953
1047.089, 23.12424
1047.571, 23.44734
1048.053, 23.88059
1048.535, 23.74797
1049.017, 22.05300
1049.499, 20.47827
1049.981, 20.59586
1050.463, 21.73090
1050.945, 22.25480
1051.428, 21.86365
1051.910, 21.67482
1052.392, 22.00592
1052.874, 22.42191
1053.356, 22.89633
1053.838, 23.30097
1054.320, 23.69865
1054.802, 23.90308
1055.285, 23.39454
1055.767, 22.00749
1056.249, 21.12608
1056.731, 21.58202
1057.213, 21.98112
1057.695, 21.59903
1058.177, 21.17338
1058.659, 21.62340
1059.141, 22.32687
1059.624, 21.78638
1060.106, 19.74806
1060.588, 18.59229
1061.070, 19.82893
1061.552, 21.07980
1062.034, 21.42528
1062.516, 21.41150
1062.998, 21.41224
1063.480, 21.38941
1063.963, 21.07625
1064.445, 20.47738
1064.927, 20.32975
1065.409, 21.39691
1065.891, 22.29640
1066.373, 22.63946
1066.855, 22.42819
1067.337, 20.93844
1067.820, 19.26092
1068.302, 19.31817
1068.784, 21.16570
1069.266, 22.60096
1069.748, 22.62675
1070.230, 22.38460
1070.712, 22.40714
1071.194, 22.31853
1071.677, 21.53123
1072.159, 20.62090
1072.641, 20.55939
1073.123, 21.29956
1073.605, 21.83955
1074.087, 21.86053
1074.569, 21.52541
1075.051, 20.48515
1075.533, 19.56205
1076.016, 19.39573
1076.498, 19.67015
1076.980, 20.12256
1077.462, 20.58504
1077.944, 20.62460
1078.426, 19.92023
1078.908, 19.42029
1079.390, 19.69422
1079.873, 20.17297
1080.355, 20.66608
1080.837, 21.02266
1081.319, 21.04938
1081.801, 20.80272
1082.283, 20.47385
1082.765, 20.09640
1083.247, 19.77908
1083.729, 19.37791
1084.212, 19.28058
1084.694, 20.05387
1085.176, 20.96974
1085.658, 21.21385
1086.140, 20.98552
1086.622, 20.94653
1087.104, 21.26529
1087.586, 21.50021
1088.068, 21.26374
1088.551, 21.15636
1089.033, 21.97065
1089.515, 22.59316
1089.997, 21.48417
1090.479, 19.66636
1090.961, 19.23753
1091.443, 20.51491
1091.925, 21.84867
1092.408, 23.37986
1092.890, 23.81475
1093.372, 21.41491
1093.854, 18.98825
1094.336, 18.84114
1094.818, 19.84519
1095.300, 20.14252
1095.782, 19.60320
1096.265, 19.35641
1096.747, 20.02272
1097.229, 20.44598
1097.711, 19.98807
1098.193, 19.46413
1098.675, 19.33653
1099.157, 19.41694
1099.639, 19.43614
1100.121, 19.42463
1100.604, 19.61435
1101.086, 20.07944
1101.568, 20.66783
1102.050, 21.83841
1102.532, 22.50071
1103.014, 21.60877
1103.496, 20.49191
1103.978, 20.51767
1104.460, 21.28376
1104.943, 21.60061
1105.425, 21.29608
1105.907, 20.59244
1106.389, 18.54647
1106.871, 17.45676
1107.353, 18.83096
1107.835, 20.53111
1108.317, 21.28881
1108.800, 21.27471
1109.282, 20.78710
1109.764, 19.83348
1110.246, 18.81939
1110.728, 17.04892
1111.210, 16.31924
1111.692, 17.81214
1112.174, 19.30277
1112.656, 19.62056
1113.139, 19.42762
1113.621, 19.63239
1114.103, 20.16414
1114.585, 20.12695
1115.067, 18.84455
1115.549, 18.20893
1116.031, 18.68403
1116.513, 19.15167
1116.995, 19.28103
1117.478, 19.24614
1117.960, 19.05632
1118.442, 18.85855
1118.924, 19.19959
1119.406, 20.39635
1119.888, 20.84221
1120.370, 20.10175
1120.852, 19.53193
1121.335, 19.55820
1121.817, 19.54524
1122.299, 18.92898
1122.781, 18.20070
1123.263, 18.39339
1123.745, 19.54271
1124.227, 19.61425
1124.709, 18.15215
1125.192, 17.24502
1125.674, 17.22504
1126.156, 17.59673
1126.638, 18.27768
1127.120, 18.86675
1127.602, 18.80141
1128.084, 19.29619
1128.566, 19.50361
1129.048, 19.50762
1129.531, 19.94963
1130.013, 19.62807
1130.495, 19.76987
1130.977, 20.88413
1131.459, 21.66128
1131.941, 20.93789
1132.423, 19.47578
1132.905, 18.99678
1133.387, 19.42156
1133.870, 19.35117
1134.352, 18.82041
1134.834, 19.05386
1135.316, 20.26565
1135.798, 20.78435
1136.280, 19.65345
1136.762, 18.14635
1137.244, 17.94358
1137.727, 18.60857
1138.209, 18.90176
1138.691, 18.87635
1139.173, 18.57890
1139.655, 18.13928
1140.137, 18.42210
1140.619, 19.63582
1141.101, 20.43815
1141.583, 19.60795
1142.066, 18.19424
1142.548, 17.70349
1143.030, 17.86187
1143.512, 18.29529
1143.994, 18.85461
1144.476, 19.30969
1144.958, 19.56955
1145.440, 19.43038
1145.922, 18.75693
1146.405, 18.16737
1146.887, 18.50679
1147.369, 18.98154
1147.851, 18.56931
1148.333, 17.77288
1148.815, 17.24286
1149.297, 17.04946
1149.779, 17.14428
1150.262, 17.49459
1150.744, 17.96745
1151.226, 18.76628
1151.708, 19.19624
1152.190, 18.24751
1152.672, 17.30006
1153.154, 17.92045
1153.636, 19.07221
1154.119, 19.00534
1154.601, 17.84574
1155.083, 17.17305
1155.565, 17.50844
1156.047, 18.03638
1156.529, 18.80505
1157.011, 19.30599
1157.493, 19.03155
1157.975, 18.66157
1158.458, 18.79169
1158.940, 19.24807
1159.422, 19.79197
1159.904, 20.46850
1160.386, 20.19101
1160.868, 17.48119
1161.350, 15.95582
1161.832, 16.89062
1162.314, 17.89893
1162.797, 17.77892
1163.279, 17.51075
1163.761, 18.36924
1164.243, 19.96572
1164.725, 20.42294
1165.207, 19.43142
1165.689, 18.29431
1166.171, 16.71032
1166.654, 15.92576
1167.136, 16.38059
1167.618, 17.31078
1168.100, 18.32927
1168.582, 19.26543
1169.064, 19.85637
1169.546, 20.09056
1170.028, 19.67842
1170.510, 18.59216
1170.993, 18.18722
1171.475, 18.62077
1171.957, 18.59049
1172.439, 17.58500
1172.921, 16.58282
1173.403, 16.47723
1173.885, 16.91005
1174.367, 17.20327
1174.849, 17.42935
1175.332, 17.94633
1175.814, 18.08588
1176.296, 18.26971
1176.778, 18.57180
1177.260, 18.45879
1177.742, 18.79873
1178.224, 18.89461
1178.706, 17.72949
1179.189, 16.34388
1179.671, 16.06408
1180.153, 16.45037
1180.635, 17.18917
1181.117, 17.93250
1181.599, 17.96174
1182.081, 17.26878
1182.563, 16.69627
1183.046, 16.66521
1183.528, 16.73410
1184.010, 16.43186
1184.492, 16.38682
1184.974, 17.57214
1185.456, 18.78240
1185.938, 18.43777
1186.420, 17.15544
1186.902, 16.68624
1187.385, 17.35976
1187.867, 17.76507
1188.349, 17.22718
1188.831, 17.00498
1189.313, 17.85618
1189.795, 18.44459
1190.277, 17.72648
1190.759, 16.77388
1191.241, 16.75964
1191.724, 16.44578
1192.206, 16.43668
1192.688, 16.93338
1193.170, 17.01722
1193.652, 18.15470
1194.134, 18.93924
1194.616, 19.15742
1195.098, 18.66681
1195.581, 17.16903
1196.063, 15.61003
1196.545, 15.33774
1197.027, 16.06209
1197.509, 16.62485
1197.991, 17.01619
1198.473, 16.89090
1198.955, 16.29419
1199.438, 16.08306
1199.920, 16.47644
1200.402, 17.04220
1200.884, 17.49362
1201.366, 17.96017
1201.848, 18.96382
1202.330, 19.87044
1202.812, 18.98196
1203.294, 17.29437
1203.776, 16.96324
1204.259, 17.75974
1204.741, 18.31528
1205.223, 18.25191
1205.705, 18.06962
1206.187, 18.00404
1206.669, 18.02597
1207.151, 18.23973
1207.633, 18.39738
1208.116, 18.11445
1208.598, 17.81177
1209.080, 18.09981
1209.562, 18.76829
1210.044, 19.19436
1210.526, 19.26856
1211.008, 19.10523
1211.490, 18.47224
1211.973, 17.98753
1212.455, 17.68068
1212.937, 17.66119
1213.419, 18.30550
1213.901, 18.89520
1214.383, 18.51824
1214.865, 17.58541
1215.347, 17.57884
1215.829, 18.72471
1216.312, 19.26629
1216.794, 19.18370
1217.276, 18.43655
1217.758, 16.86370
1218.240, 15.62703
1218.722, 15.29323
1219.204, 15.50527
1219.686, 15.92365
1220.168, 16.44395
1220.651, 16.72679
1221.133, 16.88805
1221.615, 17.60107
1222.097, 18.64089
1222.579, 18.97217
1223.061, 18.47267
1223.543, 17.63947
1224.025, 16.71293
1224.508, 15.98887
1224.990, 15.73903
1225.472, 15.80011
1225.954, 16.12601
1226.436, 16.57489
1226.918, 17.03891
1227.400, 17.47393
1227.882, 18.00085
1228.365, 18.47502
1228.847, 18.11796
1229.329, 16.24847
1229.811, 15.53353
1230.293, 18.14678
1230.775, 20.02376
1231.257, 19.31041
1231.739, 18.02601
1232.221, 17.36787
1232.703, 16.94086
1233.186, 16.03478
1233.668, 16.28665
1234.150, 14.89463
1234.632, 16.65426
1235.114, 17.61957
1235.596, 17.63452
1236.078, 17.43214
1236.560, 17.10916
1237.043, 17.10915
1237.525, 17.72410
1238.007, 18.57453
1238.489, 19.24152
1238.971, 19.66006
1239.453, 19.54918
1239.935, 19.06319
1240.417, 18.72798
1240.900, 18.51100
1241.382, 18.22686
1241.864, 17.78948
1242.346, 16.90056
1242.828, 15.37578
1243.310, 14.35586
1243.792, 15.19165
1244.274, 16.37064
1244.756, 16.80810
1245.239, 16.88726
1245.721, 16.89184
1246.203, 16.85488
1246.685, 16.69820
1247.167, 16.48235
1247.649, 16.53336
1248.131, 17.03518
1248.613, 17.37388
1249.095, 17.21104
1249.578, 17.30577
1250.060, 18.15351
1250.542, 18.67447
1251.024, 18.14801
1251.506, 17.31414
1251.988, 17.07217
1252.470, 17.25000
1252.952, 17.17814
1253.435, 16.84961
1253.917, 16.39189
1254.399, 15.83282
1254.881, 16.22319
1255.363, 17.65201
1255.845, 18.49358
1256.327, 18.00962
1256.809, 17.32667
1257.292, 17.57518
1257.774, 17.08128
1258.256, 17.60540
1258.738, 16.88844
1259.220, 16.88997
1259.702, 17.21756
1260.184, 17.14151
1260.666, 16.66278
1261.148, 16.04778
1261.630, 15.36479
1262.113, 15.10133
1262.595, 15.93599
1263.077, 16.45988
1263.559, 15.93544
1264.041, 15.42958
1264.523, 15.28893
1265.005, 15.57694
1265.487, 16.57753
1265.970, 17.89333
1266.452, 18.63504
1266.934, 18.80262
1267.416, 18.47615
1267.898, 17.56977
1268.380, 16.71119
1268.862, 15.92684
1269.344, 15.96275
1269.827, 17.07037
1270.309, 18.21357
1270.791, 18.66781
1271.273, 18.53595
1271.755, 17.53747
1272.237, 16.36627
1272.719, 16.68543
1273.201, 17.54581
1273.683, 16.84855
1274.166, 15.35676
1274.648, 15.40329
1275.130, 17.09568
1275.612, 18.34142
1276.094, 18.33550
1276.576, 17.96004
1277.058, 17.20557
1277.540, 16.64252
1278.022, 16.61320
1278.505, 16.71393
1278.987, 16.78099
1279.469, 16.74430
1279.951, 16.38848
1280.433, 15.90122
1280.915, 16.14977
1281.397, 17.30468
1281.879, 17.82912
1282.362, 17.66035
1282.844, 17.59822
1283.326, 17.77503
1283.808, 17.76717
1284.290, 17.39765
1284.772, 16.96896
1285.254, 16.71550
1285.736, 16.63508
##END=



