##NAMES=Schorl
##RRUFFID=R050304
##IDEAL CHEMISTRY=NaFe^2+^_3_Al_6_(Si_6_O_18_)(BO_3_)_3_(OH)_3_OH
##LOCALITY=Erongo Mountains, Namibia
##OWNER=RRUFF
##SOURCE=Eugene Schlepp
##DESCRIPTION=Black prismatic crystal associated with quartz and orthoclase
##STATUS=The identification of this mineral has been confirmed by X-ray diffraction and chemical analysis
##URL=rruff.info/R050304
##MEASURED CHEMISTRY=(Na_0.86_[box]_0.14_)_Σ=1_(Fe^2+^_2.68_Mg_0.22_Al_0.06_Ti_0.04_)_Σ=3_Al_6.00_(BO_3_)_3_Si_6.00_O_18_(OH)_4_
91.87140, 0.0000000E+00
92.35352, 5.852682
92.83563, 6.044785
93.31775, 6.126822
93.79987, 6.020830
94.28198, 5.794451
94.76410, 5.637859
95.24622, 5.582712
95.72833, 5.622763
96.21045, 5.757816
96.69257, 5.990322
97.17468, 6.283725
97.65680, 6.627161
98.13892, 7.020608
98.62103, 7.383660
99.10315, 7.659973
99.58527, 7.876640
100.0674, 8.226974
100.5495, 8.746767
101.0316, 9.314988
101.5137, 9.737996
101.9958, 9.943523
102.4780, 10.26843
102.9601, 10.82784
103.4422, 11.64827
103.9243, 12.52507
104.4064, 13.46122
104.8885, 14.45621
105.3707, 15.53326
105.8528, 16.68662
106.3349, 17.91825
106.8170, 19.24317
107.2991, 20.81405
107.7813, 22.18679
108.2634, 23.28430
108.7455, 24.17830
109.2276, 25.07055
109.7097, 25.93241
110.1918, 26.82206
110.6740, 27.76511
111.1561, 28.78706
111.6382, 29.83453
112.1203, 30.85024
112.6024, 31.86812
113.0845, 33.03867
113.5667, 34.45540
114.0488, 35.98853
114.5309, 37.56757
115.0130, 39.17371
115.4951, 40.81230
115.9772, 42.47131
116.4594, 44.16683
116.9415, 45.94991
117.4236, 47.97707
117.9057, 50.05935
118.3878, 51.98626
118.8699, 53.44952
119.3521, 54.93013
119.8342, 56.75577
120.3163, 58.96993
120.7984, 61.26554
121.2805, 63.52031
121.7626, 65.72587
122.2448, 67.86790
122.7269, 70.24445
123.2090, 72.40691
123.6911, 73.85356
124.1732, 74.45255
124.6553, 74.66644
125.1375, 74.65962
125.6196, 74.55055
126.1017, 74.71415
126.5838, 75.44938
127.0659, 76.59687
127.5480, 77.88646
128.0302, 79.30533
128.5123, 80.81531
128.9944, 82.32499
129.4765, 83.84885
129.9586, 85.52174
130.4407, 87.73792
130.9229, 90.27311
131.4050, 92.13850
131.8871, 92.84956
132.3692, 93.00262
132.8513, 93.95121
133.3334, 95.58945
133.8156, 97.07687
134.2977, 98.03767
134.7798, 98.82028
135.2619, 99.67486
135.7440, 100.6566
136.2261, 101.7458
136.7083, 102.9113
137.1904, 104.1248
137.6725, 105.5112
138.1546, 107.4541
138.6367, 110.1966
139.1188, 112.2135
139.6010, 113.0163
140.0831, 112.6077
140.5652, 112.1825
141.0473, 111.6552
141.5294, 111.2137
142.0115, 111.1563
142.4937, 111.6620
142.9758, 112.1135
143.4579, 112.2998
143.9400, 112.1337
144.4221, 112.1005
144.9042, 112.1732
145.3864, 112.3826
145.8685, 112.8167
146.3506, 113.7804
146.8327, 114.5557
147.3148, 114.8736
147.7969, 114.4408
148.2791, 114.2116
148.7612, 114.2806
149.2433, 114.5419
149.7254, 114.7545
150.2075, 114.8408
150.6896, 114.9482
151.1718, 115.1319
151.6539, 115.4539
152.1360, 115.7637
152.6181, 115.9763
153.1002, 116.1621
153.5823, 116.5298
154.0645, 117.5900
154.5466, 118.4799
155.0287, 118.7912
155.5108, 117.8858
155.9929, 117.1231
156.4750, 116.7480
156.9572, 116.6882
157.4393, 116.6690
157.9214, 116.6735
158.4035, 116.6731
158.8856, 116.6501
159.3677, 116.5423
159.8499, 116.4698
160.3320, 116.4425
160.8141, 116.4674
161.2962, 116.5941
161.7783, 116.9882
162.2604, 117.4235
162.7426, 117.7135
163.2247, 117.7173
163.7068, 117.6415
164.1889, 117.5429
164.6710, 117.4273
165.1531, 117.3509
165.6353, 117.4340
166.1174, 117.5389
166.5995, 117.5174
167.0816, 117.1247
167.5637, 116.7285
168.0458, 116.5146
168.5280, 116.4886
169.0101, 116.6911
169.4922, 117.4487
169.9743, 118.3921
170.4564, 119.0000
170.9385, 118.6622
171.4207, 118.1355
171.9028, 118.1570
172.3849, 118.7759
172.8670, 119.4394
173.3491, 119.5820
173.8312, 119.4720
174.3134, 119.6249
174.7955, 120.5116
175.2776, 121.6803
175.7597, 122.5460
176.2418, 123.0515
176.7239, 123.5611
177.2061, 124.4798
177.6882, 125.7001
178.1703, 126.9087
178.6524, 128.0374
179.1345, 129.0526
179.6166, 129.8345
180.0988, 130.3521
180.5809, 130.8114
181.0630, 131.4347
181.5451, 132.2031
182.0272, 133.0145
182.5093, 133.8516
182.9915, 134.7003
183.4736, 135.4805
183.9557, 136.1647
184.4378, 136.8839
184.9199, 137.9048
185.4020, 139.1671
185.8842, 140.3836
186.3663, 141.3372
186.8484, 142.1017
187.3305, 142.9226
187.8126, 143.8505
188.2947, 144.7803
188.7769, 145.4426
189.2590, 145.8588
189.7411, 146.4668
190.2232, 147.7353
190.7053, 149.5170
191.1874, 150.8559
191.6696, 151.6187
192.1517, 152.0505
192.6338, 152.5316
193.1159, 153.0585
193.5980, 153.7322
194.0801, 154.8599
194.5623, 156.3664
195.0444, 157.1416
195.5265, 156.9361
196.0086, 156.1544
196.4907, 155.5431
196.9728, 155.0888
197.4550, 154.9009
197.9371, 155.1546
198.4192, 155.8584
198.9013, 156.5029
199.3834, 157.1755
199.8655, 157.6320
200.3477, 157.0689
200.8298, 155.2614
201.3119, 153.4539
201.7940, 152.4118
202.2761, 152.1937
202.7582, 152.0915
203.2404, 152.0746
203.7225, 152.1148
204.2046, 152.0947
204.6867, 151.9622
205.1688, 151.9529
205.6509, 152.2050
206.1331, 152.7278
206.6152, 153.4640
207.0973, 154.4444
207.5794, 155.6168
208.0615, 156.8110
208.5436, 157.9968
209.0258, 159.2890
209.5079, 160.7436
209.9900, 162.3540
210.4721, 164.1058
210.9542, 165.9576
211.4363, 167.9609
211.9185, 170.3545
212.4006, 173.2937
212.8827, 176.3062
213.3648, 178.9837
213.8469, 181.1914
214.3290, 183.6501
214.8112, 186.4024
215.2933, 189.4346
215.7754, 192.8251
216.2575, 196.6468
216.7396, 200.7012
217.2217, 204.8974
217.7039, 209.3223
218.1860, 213.5750
218.6681, 217.5451
219.1502, 221.3116
219.6323, 225.0875
220.1144, 228.7664
220.5966, 232.5845
221.0787, 236.7138
221.5608, 241.3829
222.0429, 245.7240
222.5250, 249.6418
223.0071, 253.1982
223.4893, 256.4607
223.9714, 259.4599
224.4535, 262.1722
224.9356, 264.5875
225.4177, 266.5681
225.8998, 268.5538
226.3820, 270.5679
226.8641, 272.6092
227.3462, 274.6096
227.8283, 276.5732
228.3104, 278.4824
228.7925, 280.2675
229.2747, 281.7899
229.7568, 283.5898
230.2389, 285.9334
230.7210, 288.5418
231.2031, 290.3778
231.6852, 290.9024
232.1674, 291.4468
232.6495, 292.7159
233.1316, 295.2083
233.6137, 297.3212
234.0958, 299.0148
234.5779, 300.2867
235.0601, 301.0857
235.5422, 301.3319
236.0243, 301.2347
236.5064, 300.8261
236.9885, 299.8313
237.4706, 299.1905
237.9528, 299.3052
238.4349, 299.6735
238.9170, 299.0268
239.3991, 297.0972
239.8812, 294.5522
240.3633, 291.6364
240.8455, 288.3100
241.3276, 284.7087
241.8097, 280.8262
242.2918, 276.7188
242.7739, 272.5455
243.2560, 268.3372
243.7382, 264.0158
244.2203, 259.5340
244.7024, 254.8234
245.1845, 250.1417
245.6666, 245.4462
246.1487, 240.8108
246.6309, 236.2606
247.1130, 231.7047
247.5951, 227.3661
248.0772, 223.4101
248.5593, 219.9411
249.0414, 216.3744
249.5236, 212.5853
250.0057, 208.7806
250.4878, 205.2667
250.9699, 202.2419
251.4520, 199.1322
251.9341, 195.7091
252.4163, 191.8063
252.8984, 188.3507
253.3805, 185.5322
253.8626, 182.9913
254.3447, 180.2652
254.8268, 177.1866
255.3090, 174.1860
255.7911, 171.4448
256.2732, 168.9904
256.7553, 166.4237
257.2374, 163.5850
257.7195, 160.7827
258.2017, 158.4195
258.6838, 156.6351
259.1659, 154.9235
259.6480, 153.1151
260.1301, 151.2143
260.6122, 149.5418
261.0944, 148.1773
261.5765, 146.9362
262.0586, 145.5946
262.5407, 144.0735
263.0228, 142.6868
263.5049, 141.5466
263.9871, 140.6337
264.4692, 139.6890
264.9513, 138.6781
265.4334, 137.6784
265.9155, 136.7152
266.3976, 135.7640
266.8798, 135.0132
267.3619, 134.6205
267.8440, 134.4982
268.3261, 133.8805
268.8082, 132.5451
269.2903, 131.1846
269.7725, 130.4299
270.2546, 130.4440
270.7367, 130.3410
271.2188, 129.9599
271.7009, 129.3783
272.1830, 128.8857
272.6652, 128.4575
273.1473, 128.1956
273.6294, 128.2589
274.1115, 128.7387
274.5936, 128.9635
275.0757, 128.8201
275.5579, 128.4144
276.0400, 128.0588
276.5221, 127.7763
277.0042, 127.4464
277.4863, 126.9204
277.9684, 126.1650
278.4506, 125.7048
278.9327, 125.6601
279.4148, 125.8214
279.8969, 125.7451
280.3790, 125.4082
280.8611, 125.0029
281.3433, 124.5546
281.8254, 124.0647
282.3075, 123.8791
282.7896, 124.0948
283.2717, 124.4223
283.7538, 124.4480
284.2360, 124.1716
284.7181, 123.6244
285.2002, 122.6445
285.6823, 121.3109
286.1644, 120.3467
286.6465, 119.7844
287.1287, 119.5005
287.6108, 119.4767
288.0929, 119.6902
288.5750, 119.7267
289.0571, 119.3393
289.5392, 118.6470
290.0214, 118.1675
290.5035, 117.9289
290.9856, 117.6872
291.4677, 117.1120
291.9498, 116.2654
292.4319, 115.5444
292.9141, 115.0431
293.3962, 114.7523
293.8783, 114.7303
294.3604, 114.9821
294.8425, 115.2421
295.3246, 115.2951
295.8068, 115.1742
296.2889, 114.9629
296.7710, 114.5977
297.2531, 114.2505
297.7352, 114.3136
298.2173, 114.7368
298.6995, 115.0921
299.1816, 114.9855
299.6637, 114.5908
300.1458, 114.2579
300.6279, 114.0256
301.1100, 113.9165
301.5922, 113.9595
302.0743, 114.1498
302.5564, 114.4709
303.0385, 115.0463
303.5206, 115.7014
304.0027, 116.2345
304.4849, 116.6396
304.9670, 116.8109
305.4491, 116.3431
305.9312, 115.5330
306.4133, 115.0930
306.8954, 115.6347
307.3776, 116.5841
307.8597, 117.4625
308.3418, 118.2649
308.8239, 118.7771
309.3060, 118.6959
309.7881, 118.2481
310.2703, 117.7941
310.7524, 117.3668
311.2345, 117.0668
311.7166, 117.1164
312.1987, 117.4948
312.6808, 117.6467
313.1630, 117.1341
313.6451, 116.2763
314.1272, 115.4122
314.6093, 114.7753
315.0914, 114.0502
315.5735, 112.9563
316.0557, 111.5837
316.5378, 110.4153
317.0199, 109.8384
317.5020, 109.4411
317.9841, 108.9031
318.4662, 108.0161
318.9484, 107.2054
319.4305, 106.5499
319.9126, 106.0711
320.3947, 105.8243
320.8768, 106.0814
321.3589, 106.3817
321.8411, 106.4652
322.3232, 106.1538
322.8053, 105.9816
323.2874, 106.0755
323.7695, 106.3650
324.2516, 106.7384
324.7338, 107.2561
325.2159, 107.7830
325.6980, 108.2661
326.1801, 108.6833
326.6622, 109.1516
327.1443, 109.5815
327.6265, 110.1106
328.1086, 110.8839
328.5907, 112.2465
329.0728, 113.4581
329.5549, 114.3622
330.0370, 114.9592
330.5192, 115.5870
331.0013, 116.1475
331.4834, 116.8266
331.9655, 117.7803
332.4476, 119.2431
332.9297, 120.5706
333.4119, 121.5719
333.8940, 122.3758
334.3761, 123.5790
334.8582, 125.3704
335.3403, 127.2142
335.8224, 128.8067
336.3046, 130.0140
336.7867, 131.3728
337.2688, 132.9104
337.7509, 134.5977
338.2330, 136.4474
338.7151, 138.5005
339.1973, 140.5452
339.6794, 142.4749
340.1615, 144.2585
340.6436, 146.2737
341.1257, 148.5234
341.6078, 150.9577
342.0900, 153.4880
342.5721, 156.0580
343.0542, 158.9460
343.5363, 162.3393
344.0184, 166.0771
344.5005, 169.4046
344.9827, 172.2117
345.4648, 175.2225
345.9469, 179.1512
346.4290, 183.9473
346.9111, 188.7841
347.3932, 193.5580
347.8754, 198.2671
348.3575, 202.7617
348.8396, 207.0365
349.3217, 211.3144
349.8038, 215.5962
350.2859, 219.9549
350.7681, 224.5695
351.2502, 229.4593
351.7323, 234.5963
352.2144, 240.1038
352.6965, 245.8903
353.1786, 251.5176
353.6608, 256.5072
354.1429, 261.3515
354.6250, 266.6735
355.1071, 272.5096
355.5892, 278.5923
356.0714, 284.8209
356.5535, 291.1467
357.0356, 297.4994
357.5177, 304.0384
357.9998, 310.4769
358.4819, 316.4735
358.9641, 322.0818
359.4462, 327.4416
359.9283, 332.8247
360.4104, 337.8830
360.8925, 342.3646
361.3746, 346.3846
361.8568, 349.5143
362.3389, 351.6046
362.8210, 352.6599
363.3031, 352.7512
363.7852, 351.7330
364.2673, 349.8824
364.7495, 347.4095
365.2316, 344.4895
365.7137, 340.3600
366.1958, 334.3211
366.6779, 327.2321
367.1600, 320.0475
367.6422, 312.8790
368.1243, 305.6243
368.6064, 298.3050
369.0885, 290.8992
369.5706, 283.2693
370.0527, 274.9830
370.5349, 266.7683
371.0170, 258.9929
371.4991, 251.9120
371.9812, 244.9780
372.4633, 238.1123
372.9454, 231.3457
373.4276, 224.9172
373.9097, 218.7506
374.3918, 212.9319
374.8739, 207.6756
375.3560, 203.0455
375.8381, 198.3826
376.3203, 193.6277
376.8024, 188.9825
377.2845, 184.8237
377.7666, 181.2601
378.2487, 177.7361
378.7308, 174.0305
379.2130, 170.2049
379.6951, 167.1073
380.1772, 164.7883
380.6593, 162.7962
381.1414, 160.7088
381.6235, 158.5584
382.1057, 156.4526
382.5878, 154.3891
383.0699, 152.4438
383.5520, 150.8114
384.0341, 149.4585
384.5162, 148.1931
384.9984, 146.8024
385.4805, 145.4102
385.9626, 144.3196
386.4447, 143.6018
386.9268, 142.9610
387.4089, 142.0280
387.8911, 140.9349
388.3732, 140.0004
388.8553, 139.4009
389.3374, 138.9991
389.8195, 138.6921
390.3016, 138.4799
390.7838, 138.3443
391.2659, 138.4080
391.7480, 138.4898
392.2301, 138.3765
392.7122, 137.7480
393.1943, 137.2784
393.6765, 137.4005
394.1586, 137.9538
394.6407, 138.4756
395.1228, 138.9367
395.6049, 139.2305
396.0870, 139.2126
396.5692, 138.6712
397.0513, 138.4670
397.5334, 139.0542
398.0155, 139.9749
398.4976, 140.6475
398.9797, 140.7592
399.4619, 140.8954
399.9440, 141.2332
400.4261, 141.7691
400.9082, 142.0521
401.3903, 141.9015
401.8724, 141.6653
402.3546, 141.5698
402.8367, 141.7045
403.3188, 141.7998
403.8009, 141.9137
404.2830, 141.9479
404.7651, 141.6160
405.2473, 140.8277
405.7294, 139.9468
406.2115, 139.1725
406.6936, 138.5249
407.1757, 137.4925
407.6578, 135.9916
408.1400, 134.3272
408.6221, 132.8413
409.1042, 131.5293
409.5863, 130.1573
410.0684, 128.6332
410.5505, 127.0366
411.0327, 125.5322
411.5148, 124.1066
411.9969, 122.5630
412.4790, 120.5408
412.9611, 118.2881
413.4432, 116.4806
413.9254, 115.2570
414.4075, 114.2180
414.8896, 113.0701
415.3717, 111.7769
415.8538, 110.2535
416.3359, 108.1386
416.8181, 105.9919
417.3002, 104.3784
417.7823, 103.2794
418.2644, 102.3546
418.7465, 101.5397
419.2286, 100.7104
419.7108, 99.75455
420.1929, 98.58086
420.6750, 97.34035
421.1571, 95.90788
421.6392, 94.42892
422.1213, 93.32088
422.6035, 93.07433
423.0856, 92.89674
423.5677, 92.41507
424.0498, 91.46470
424.5319, 90.71999
425.0140, 90.35683
425.4962, 90.16098
425.9783, 89.92370
426.4604, 89.71593
426.9425, 89.36061
427.4246, 88.77128
427.9067, 87.98927
428.3889, 87.33662
428.8710, 86.83826
429.3531, 86.42676
429.8352, 86.04379
430.3173, 85.66885
430.7994, 85.48898
431.2816, 85.58787
431.7637, 85.75362
432.2458, 85.59468
432.7279, 85.08762
433.2100, 84.62772
433.6921, 84.32589
434.1743, 84.18060
434.6564, 84.26120
435.1385, 84.57675
435.6206, 84.86442
436.1027, 84.84071
436.5848, 84.61202
437.0670, 84.50206
437.5491, 84.63902
438.0312, 84.74382
438.5133, 84.34638
438.9954, 83.63734
439.4775, 83.14484
439.9597, 83.39340
440.4418, 83.82122
440.9239, 83.92832
441.4060, 83.68641
441.8881, 83.32547
442.3702, 82.85107
442.8524, 82.38309
443.3345, 82.03496
443.8166, 81.93534
444.2987, 81.84332
444.7808, 81.64780
445.2629, 81.39738
445.7451, 81.23470
446.2272, 81.38599
446.7093, 81.45992
447.1914, 81.28368
447.6735, 80.76258
448.1556, 80.27515
448.6378, 79.81299
449.1199, 79.39421
449.6020, 79.04560
450.0841, 78.82171
450.5662, 78.56567
451.0483, 78.23231
451.5305, 77.84937
452.0126, 77.54380
452.4947, 77.31443
452.9768, 77.15800
453.4589, 77.07970
453.9410, 77.08022
454.4232, 77.15503
454.9053, 77.35051
455.3874, 77.46776
455.8695, 77.15419
456.3516, 76.47305
456.8337, 75.89909
457.3159, 75.56526
457.7980, 75.43777
458.2801, 75.52086
458.7622, 75.78842
459.2443, 76.06017
459.7264, 76.23071
460.2086, 76.32468
460.6907, 76.36819
461.1728, 76.36430
461.6549, 76.31989
462.1370, 76.17899
462.6191, 76.01465
463.1013, 75.93721
463.5834, 75.91423
464.0655, 76.05411
464.5476, 76.51185
465.0297, 77.23701
465.5118, 77.83573
465.9940, 78.11716
466.4761, 78.29284
466.9582, 78.47129
467.4403, 78.65842
467.9224, 78.85304
468.4045, 78.99390
468.8867, 79.16557
469.3688, 79.51302
469.8509, 80.16687
470.3330, 80.74304
470.8151, 81.10503
471.2972, 81.28880
471.7794, 81.71099
472.2615, 82.47720
472.7436, 83.20782
473.2257, 83.59021
473.7078, 83.61868
474.1899, 83.74281
474.6721, 84.00134
475.1542, 84.35049
475.6363, 84.73307
476.1184, 85.15018
476.6005, 85.61223
477.0826, 86.14612
477.5648, 86.71253
478.0469, 87.34208
478.5290, 88.00739
479.0111, 88.45918
479.4932, 88.29913
479.9753, 87.92277
480.4575, 87.83450
480.9396, 88.21506
481.4217, 88.58623
481.9038, 88.55920
482.3859, 88.35326
482.8680, 88.29066
483.3502, 88.77009
483.8323, 89.12508
484.3144, 89.00281
484.7965, 88.44041
485.2786, 88.05514
485.7607, 88.11282
486.2429, 88.23448
486.7250, 88.24720
487.2071, 88.19331
487.6892, 87.92673
488.1713, 87.32919
488.6534, 86.60368
489.1356, 86.06124
489.6177, 85.79813
490.0998, 85.42215
490.5819, 84.78542
491.0640, 83.95951
491.5461, 83.32973
492.0283, 82.91071
492.5104, 82.56059
492.9925, 82.29247
493.4746, 82.04118
493.9567, 81.41214
494.4388, 80.30228
494.9210, 79.16874
495.4031, 78.56421
495.8852, 78.33894
496.3673, 78.10167
496.8494, 77.69324
497.3315, 77.22475
497.8137, 76.77645
498.2958, 76.34879
498.7779, 75.96577
499.2600, 75.65382
499.7421, 75.37529
500.2242, 75.11970
500.7064, 74.90012
501.1885, 74.62613
501.6706, 74.17726
502.1527, 73.70547
502.6348, 73.37211
503.1169, 73.38457
503.5991, 73.31731
504.0812, 73.15015
504.5633, 72.87663
505.0454, 72.43443
505.5275, 71.69509
506.0096, 71.02284
506.4918, 70.59429
506.9739, 70.43250
507.4560, 70.15834
507.9381, 69.72058
508.4202, 69.30720
508.9023, 69.15512
509.3845, 69.24703
509.8666, 69.27751
510.3487, 69.17510
510.8308, 69.01424
511.3129, 68.95415
511.7950, 68.96118
512.2772, 68.87679
512.7593, 68.48189
513.2414, 68.02225
513.7235, 67.77591
514.2056, 67.74731
514.6877, 67.86332
515.1699, 68.34739
515.6520, 68.81363
516.1341, 68.87681
516.6162, 68.26566
517.0983, 67.61143
517.5804, 66.98253
518.0626, 66.46583
518.5447, 66.20411
519.0268, 66.53631
519.5089, 66.78654
519.9910, 66.75883
520.4731, 66.47588
520.9553, 66.30524
521.4374, 66.33765
521.9195, 66.35058
522.4016, 66.18276
522.8837, 65.76894
523.3658, 65.54656
523.8480, 65.56106
524.3301, 65.68067
524.8122, 65.74667
525.2943, 65.76115
525.7764, 65.74175
526.2585, 65.66998
526.7407, 65.59490
527.2228, 65.61768
527.7049, 65.72556
528.1870, 65.84130
528.6691, 65.97438
529.1512, 66.06150
529.6334, 65.97726
530.1155, 65.70470
530.5976, 65.50139
531.0797, 65.61032
531.5618, 65.81905
532.0439, 65.91166
532.5261, 65.72533
533.0082, 65.57551
533.4903, 65.57042
533.9724, 65.65219
534.4545, 65.69711
534.9366, 65.65669
535.4188, 65.62331
535.9009, 65.63897
536.3830, 65.70112
536.8651, 65.67638
537.3472, 65.56785
537.8293, 65.37064
538.3115, 65.01023
538.7936, 64.45831
539.2757, 64.20235
539.7578, 64.32320
540.2399, 64.58588
540.7220, 64.68911
541.2042, 64.65373
541.6863, 64.61356
542.1684, 64.63614
542.6505, 64.64122
543.1326, 64.45341
543.6147, 64.12945
544.0969, 63.88346
544.5790, 63.90856
545.0611, 64.02319
545.5432, 64.11997
546.0253, 64.19413
546.5074, 64.13371
546.9896, 63.66205
547.4717, 63.16541
547.9538, 62.96518
548.4359, 63.56443
548.9180, 63.84377
549.4001, 63.42045
549.8823, 62.71967
550.3644, 62.50099
550.8465, 63.12197
551.3286, 63.53857
551.8107, 63.41071
552.2928, 62.83615
552.7750, 62.58363
553.2571, 62.71937
553.7392, 62.84465
554.2213, 62.65453
554.7034, 62.21094
555.1855, 61.84234
555.6677, 61.55815
556.1498, 61.39209
556.6319, 61.48246
557.1140, 61.70803
557.5961, 61.80413
558.0782, 61.61610
558.5604, 61.40823
559.0425, 61.47514
559.5246, 61.68524
560.0067, 61.74453
560.4888, 61.31102
560.9709, 60.90078
561.4531, 60.80436
561.9352, 61.02891
562.4173, 61.15015
562.8994, 60.97709
563.3815, 60.79667
563.8636, 60.75859
564.3458, 60.93048
564.8279, 61.07708
565.3100, 61.23661
565.7921, 61.32581
566.2742, 61.15876
566.7563, 60.68537
567.2385, 60.47541
567.7206, 60.75470
568.2027, 61.23707
568.6848, 61.24469
569.1669, 60.83505
569.6490, 60.43402
570.1312, 60.30400
570.6133, 60.30086
571.0954, 60.20778
571.5775, 60.02616
572.0596, 59.87333
572.5417, 59.87536
573.0239, 59.90778
573.5060, 59.83468
573.9881, 59.54381
574.4702, 59.39097
574.9523, 59.59222
575.4344, 59.94933
575.9166, 60.20919
576.3987, 60.29085
576.8808, 60.36387
577.3629, 60.45956
577.8450, 60.55835
578.3271, 60.58979
578.8093, 60.53269
579.2914, 60.46964
579.7735, 60.43744
580.2556, 60.42992
580.7377, 60.40195
581.2198, 60.35282
581.7020, 60.28186
582.1841, 60.19138
582.6662, 60.07821
583.1483, 59.90117
583.6304, 59.63294
584.1125, 59.43823
584.5947, 59.46676
585.0768, 59.66272
585.5589, 59.94900
586.0410, 60.49040
586.5231, 60.90454
587.0052, 60.93550
587.4874, 60.71072
587.9695, 60.57061
588.4516, 60.56919
588.9337, 60.67687
589.4158, 60.92389
589.8979, 61.31181
590.3801, 61.60469
590.8622, 61.76660
591.3443, 61.89639
591.8264, 62.07067
592.3085, 62.29829
592.7906, 62.42534
593.2728, 62.44106
593.7549, 62.37086
594.2370, 62.12217
594.7191, 61.78617
595.2012, 61.73209
595.6833, 62.10002
596.1655, 62.68043
596.6476, 63.42813
597.1297, 64.20896
597.6118, 64.73008
598.0939, 64.65919
598.5760, 64.47086
599.0582, 64.34071
599.5403, 64.29600
600.0224, 64.45731
600.5045, 65.02011
600.9866, 65.65337
601.4688, 66.20877
601.9509, 66.65878
602.4330, 67.15919
602.9151, 67.74520
603.3972, 68.32824
603.8793, 68.80430
604.3615, 69.15816
604.8436, 69.55824
605.3257, 69.97794
605.8078, 70.54690
606.2899, 71.52070
606.7720, 72.84311
607.2542, 74.22334
607.7363, 75.63030
608.2184, 76.96301
608.7005, 77.97691
609.1826, 78.77814
609.6647, 79.69853
610.1469, 80.83737
610.6290, 82.22545
611.1111, 83.94837
611.5932, 86.04026
612.0753, 88.05782
612.5574, 89.82345
613.0396, 91.58591
613.5217, 93.47703
614.0038, 95.53578
614.4859, 97.67599
614.9680, 99.90735
615.4501, 102.2060
615.9323, 104.5288
616.4144, 106.8602
616.8965, 109.3232
617.3786, 111.9469
617.8607, 114.6620
618.3428, 117.2583
618.8250, 119.8119
619.3071, 122.6447
619.7892, 126.1351
620.2713, 129.8143
620.7534, 133.2069
621.2355, 136.3869
621.7177, 139.5490
622.1998, 142.9702
622.6819, 146.2617
623.1640, 149.1062
623.6461, 151.3601
624.1282, 154.0391
624.6104, 157.9040
625.0925, 161.6588
625.5746, 164.4554
626.0567, 166.0161
626.5388, 167.4750
627.0209, 168.8488
627.5031, 170.1040
627.9852, 171.2930
628.4673, 172.3844
628.9494, 172.9268
629.4315, 172.6942
629.9136, 172.0739
630.3958, 171.6444
630.8779, 171.3275
631.3600, 170.8947
631.8421, 170.2504
632.3242, 169.4384
632.8063, 168.4796
633.2885, 167.3853
633.7706, 166.1612
634.2527, 164.7445
634.7348, 163.2590
635.2169, 161.7286
635.6990, 160.1537
636.1812, 158.6325
636.6633, 157.2464
637.1454, 155.8032
637.6275, 154.1860
638.1096, 152.3708
638.5917, 150.3759
639.0739, 148.0902
639.5560, 145.9010
640.0381, 144.4191
640.5202, 143.4697
641.0023, 142.2971
641.4844, 140.5916
641.9666, 138.8007
642.4487, 137.2932
642.9308, 136.0297
643.4129, 134.9453
643.8950, 134.2509
644.3771, 133.4846
644.8593, 132.2384
645.3414, 130.6621
645.8235, 129.4977
646.3056, 129.3977
646.7877, 129.1885
647.2698, 128.3360
647.7520, 126.7849
648.2341, 126.1429
648.7162, 126.6383
649.1983, 127.4111
649.6804, 127.8673
650.1625, 128.0358
650.6447, 128.1153
651.1268, 128.0783
651.6089, 128.2448
652.0910, 129.1043
652.5731, 130.3591
653.0552, 131.4705
653.5374, 132.2071
654.0195, 133.0135
654.5016, 134.3799
654.9837, 135.9511
655.4658, 137.2136
655.9479, 137.7410
656.4301, 138.2848
656.9122, 138.8177
657.3943, 139.4884
657.8764, 140.7617
658.3585, 142.9128
658.8406, 145.0340
659.3228, 146.8092
659.8049, 148.3273
660.2870, 149.9867
660.7691, 151.7902
661.2512, 153.5842
661.7333, 155.3755
662.2155, 157.0367
662.6976, 158.2259
663.1797, 158.9419
663.6618, 159.5942
664.1439, 160.4400
664.6260, 161.3651
665.1082, 162.3316
665.5903, 163.4319
666.0724, 164.2037
666.5545, 164.5513
667.0366, 164.5065
667.5187, 164.1243
668.0009, 163.3890
668.4830, 162.3302
668.9651, 160.8502
669.4472, 159.1852
669.9293, 157.7230
670.4114, 156.4677
670.8936, 155.1003
671.3757, 153.5454
671.8578, 151.8136
672.3399, 149.7627
672.8220, 147.4876
673.3041, 145.3532
673.7863, 143.5457
674.2684, 141.9363
674.7505, 140.4653
675.2326, 139.1178
675.7147, 137.8719
676.1968, 136.7511
676.6790, 135.6778
677.1611, 134.5841
677.6432, 133.4420
678.1253, 132.6384
678.6074, 132.2891
679.0895, 132.0757
679.5717, 131.6773
680.0538, 131.0917
680.5359, 131.3188
681.0180, 132.4579
681.5001, 133.7776
681.9822, 134.4039
682.4644, 134.7023
682.9465, 135.4364
683.4286, 136.8215
683.9107, 138.3450
684.3928, 139.6579
684.8749, 140.9069
685.3571, 142.2883
685.8392, 143.8810
686.3213, 145.5861
686.8034, 147.4360
687.2855, 149.3901
687.7676, 151.4321
688.2498, 153.7396
688.7319, 155.7001
689.2140, 157.0147
689.6961, 158.0765
690.1782, 160.1483
690.6603, 163.1610
691.1425, 165.7456
691.6246, 167.1947
692.1067, 167.9209
692.5888, 168.3715
693.0709, 168.6108
693.5530, 168.9206
694.0352, 170.1475
694.5173, 170.9175
694.9994, 170.1987
695.4815, 167.8967
695.9636, 165.5331
696.4457, 163.5521
696.9279, 161.3329
697.4100, 158.5974
697.8921, 155.3208
698.3742, 151.6480
698.8563, 147.5263
699.3384, 143.1715
699.8206, 138.7388
700.3027, 134.2539
700.7848, 129.5905
701.2669, 124.7058
701.7490, 119.8911
702.2311, 115.3237
702.7133, 111.0359
703.1954, 107.0865
703.6775, 103.5421
704.1596, 100.2132
704.6417, 96.92749
705.1238, 93.80621
705.6060, 91.08466
706.0881, 88.99142
706.5702, 86.85934
707.0523, 84.52408
707.5344, 82.18282
708.0165, 80.28875
708.4987, 78.86501
708.9808, 77.62303
709.4629, 76.50159
709.9450, 75.48706
710.4271, 74.65140
710.9092, 73.92878
711.3914, 73.04256
711.8735, 71.59798
712.3556, 70.16733
712.8377, 69.16733
713.3198, 68.53807
713.8019, 67.97227
714.2841, 67.33382
714.7662, 66.79140
715.2483, 66.45818
715.7304, 66.32283
716.2125, 66.01134
716.6946, 65.43558
717.1768, 64.91891
717.6589, 64.69769
718.1410, 64.72462
718.6231, 64.65488
719.1052, 64.48598
719.5873, 64.27854
720.0695, 64.03416
720.5516, 63.79883
721.0337, 63.64460
721.5158, 63.59118
721.9979, 63.52018
722.4800, 63.33643
722.9622, 63.13613
723.4443, 62.99364
723.9264, 62.91719
724.4085, 62.89886
724.8906, 62.94599
725.3727, 63.04227
725.8549, 63.17109
726.3370, 63.33291
726.8191, 63.52470
727.3012, 63.73214
727.7833, 64.00831
728.2654, 64.50112
728.7476, 65.10823
729.2297, 65.55822
729.7118, 65.65933
730.1939, 65.82745
730.6760, 66.47483
731.1581, 67.33456
731.6403, 68.00553
732.1224, 68.31098
732.6045, 68.50912
733.0866, 68.50753
733.5687, 68.47372
734.0508, 68.78850
734.5330, 69.53210
735.0151, 70.31423
735.4972, 71.07799
735.9793, 71.77629
736.4614, 72.26283
736.9435, 72.57054
737.4257, 72.86851
737.9078, 73.04397
738.3899, 73.40199
738.8720, 74.39886
739.3541, 75.84988
739.8362, 77.09339
740.3184, 77.81346
740.8005, 78.36073
741.2826, 78.77963
741.7647, 79.10558
742.2468, 79.60474
742.7289, 80.32256
743.2111, 81.09789
743.6932, 81.92892
744.1753, 82.76329
744.6574, 83.19024
745.1395, 83.22106
745.6216, 83.36345
746.1038, 84.12190
746.5859, 85.10940
747.0680, 85.88618
747.5501, 86.43031
748.0322, 86.78929
748.5143, 86.82981
748.9965, 86.81460
749.4786, 86.90034
749.9607, 87.11353
750.4428, 87.34813
750.9249, 87.60152
751.4070, 87.88577
751.8892, 88.17162
752.3713, 88.46447
752.8534, 89.03587
753.3355, 89.93820
753.8176, 90.73119
754.2997, 90.79554
754.7819, 90.55765
755.2640, 90.73588
755.7461, 91.50741
756.2282, 92.24181
756.7103, 92.47395
757.1924, 92.59733
757.6746, 92.96323
758.1567, 93.84533
758.6388, 94.51503
759.1209, 94.96645
759.6030, 95.21928
760.0851, 95.17977
760.5673, 94.82670
761.0494, 94.88742
761.5315, 95.51454
762.0136, 96.25269
762.4957, 96.49329
762.9778, 96.46396
763.4600, 96.65096
763.9421, 97.35244
764.4242, 97.84001
764.9063, 97.59692
765.3884, 96.96079
765.8705, 96.34151
766.3527, 95.67392
766.8348, 95.23093
767.3169, 95.14767
767.7990, 95.17859
768.2811, 94.94218
768.7632, 94.42753
769.2454, 93.88671
769.7275, 93.39536
770.2096, 92.84757
770.6917, 91.90611
771.1738, 90.81236
771.6559, 90.11635
772.1381, 90.39061
772.6202, 90.58498
773.1023, 90.08035
773.5844, 89.13412
774.0665, 88.19874
774.5486, 87.36793
775.0308, 86.48656
775.5129, 85.45581
775.9950, 84.41544
776.4771, 83.70166
776.9592, 83.31646
777.4413, 83.06018
777.9235, 82.89563
778.4056, 82.79021
778.8877, 82.82468
779.3698, 82.88223
779.8519, 82.66048
780.3340, 81.77194
780.8162, 80.83621
781.2983, 80.12224
781.7804, 79.57555
782.2625, 79.04052
782.7446, 78.42734
783.2267, 77.95660
783.7089, 77.69539
784.1910, 77.59206
784.6731, 77.58131
785.1552, 77.66037
785.6373, 77.47007
786.1194, 76.71363
786.6016, 75.78874
787.0837, 75.35547
787.5658, 75.24892
788.0479, 75.01474
788.5300, 74.35556
789.0121, 73.61877
789.4943, 73.01366
789.9764, 72.46591
790.4585, 71.65533
790.9406, 70.31691
791.4227, 69.24358
791.9048, 68.70170
792.3870, 68.55701
792.8691, 68.33916
793.3512, 68.06662
793.8333, 68.06900
794.3154, 68.95036
794.7975, 69.80611
795.2797, 69.28540
795.7618, 67.76242
796.2439, 66.45914
796.7260, 66.10839
797.2081, 65.81237
797.6902, 65.13875
798.1724, 64.22954
798.6545, 63.68721
799.1366, 63.68147
799.6187, 63.59215
800.1008, 63.17005
800.5829, 62.55198
801.0651, 62.14876
801.5472, 61.93773
802.0293, 61.76369
802.5114, 61.60447
802.9935, 61.39846
803.4756, 61.13192
803.9578, 60.77864
804.4399, 60.25751
804.9220, 59.17293
805.4041, 58.33560
805.8862, 58.13237
806.3683, 58.35612
806.8505, 58.09905
807.3326, 57.25715
807.8147, 56.43340
808.2968, 55.84948
808.7789, 55.42622
809.2610, 55.02496
809.7432, 54.63625
810.2253, 54.22107
810.7074, 53.73041
811.1895, 53.23420
811.6716, 52.78694
812.1537, 52.37031
812.6359, 51.91711
813.1180, 51.51717
813.6001, 50.92587
814.0822, 49.97094
814.5643, 48.81437
815.0464, 48.06766
815.5286, 47.73692
816.0107, 47.57491
816.4928, 47.57628
816.9749, 47.59157
817.4570, 47.37299
817.9391, 46.97774
818.4213, 46.56388
818.9034, 46.16686
819.3855, 45.80677
819.8676, 45.54892
820.3497, 45.33915
820.8318, 44.97265
821.3140, 44.27530
821.7961, 43.85194
822.2782, 43.91656
822.7603, 44.28508
823.2424, 44.61444
823.7245, 44.87680
824.2067, 44.87707
824.6888, 44.38808
825.1709, 43.79203
825.6530, 43.38791
826.1351, 43.14236
826.6172, 42.99075
827.0994, 42.97177
827.5815, 42.96902
828.0636, 42.93143
828.5457, 42.90604
829.0278, 43.06054
829.5099, 43.46291
829.9921, 43.54215
830.4742, 43.05392
830.9563, 42.38479
831.4384, 42.13684
831.9205, 42.20577
832.4026, 42.32914
832.8848, 42.49379
833.3669, 42.57196
833.8490, 42.31386
834.3311, 41.97332
834.8132, 42.03288
835.2953, 42.97016
835.7775, 43.37503
836.2596, 42.89090
836.7417, 42.08838
837.2238, 41.98767
837.7059, 42.49425
838.1880, 42.72622
838.6702, 42.43090
839.1523, 41.98299
839.6344, 41.65065
840.1165, 41.44804
840.5986, 41.40801
841.0807, 41.62532
841.5629, 41.86527
842.0450, 42.19178
842.5271, 42.44288
843.0092, 42.41679
843.4913, 42.05239
843.9734, 41.75715
844.4556, 41.57328
844.9377, 41.43960
845.4198, 41.26131
845.9019, 41.08390
846.3840, 41.00960
846.8661, 41.07298
847.3483, 41.16594
847.8304, 41.25661
848.3125, 41.33181
848.7946, 41.38534
849.2767, 41.44640
849.7589, 41.39429
850.2410, 41.17928
850.7231, 40.94472
851.2052, 40.81098
851.6873, 40.76989
852.1694, 40.75455
852.6516, 40.75904
853.1337, 40.82999
853.6158, 41.11899
854.0979, 41.42082
854.5800, 41.51336
855.0621, 41.34470
855.5443, 41.19959
856.0264, 41.18661
856.5085, 41.15524
856.9906, 41.00083
857.4727, 40.72386
857.9548, 40.65327
858.4370, 40.80926
858.9191, 40.95576
859.4012, 40.87889
859.8833, 40.71104
860.3654, 40.64876
860.8475, 40.69495
861.3297, 40.80675
861.8118, 41.12445
862.2939, 41.35262
862.7760, 41.25135
863.2581, 40.88618
863.7402, 40.77035
864.2224, 40.98430
864.7045, 41.17527
865.1866, 41.18321
865.6687, 41.07574
866.1508, 41.03680
866.6329, 41.04247
867.1151, 40.99180
867.5972, 40.71759
868.0793, 40.48147
868.5614, 40.45068
869.0435, 40.58288
869.5256, 40.75597
870.0078, 41.04717
870.4899, 41.21164
870.9720, 41.18612
871.4541, 41.02879
871.9362, 40.81411
872.4183, 40.56184
872.9005, 40.44363
873.3826, 40.57067
873.8647, 40.72688
874.3468, 40.65145
874.8289, 40.48262
875.3110, 40.43061
875.7932, 40.73806
876.2753, 40.91176
876.7574, 40.84933
877.2395, 40.69814
877.7216, 40.62291
878.2037, 40.62628
878.6859, 40.68380
879.1680, 40.80682
879.6501, 40.91292
880.1322, 40.87527
880.6143, 40.77930
881.0964, 40.75132
881.5786, 40.82377
882.0607, 40.92229
882.5428, 41.09984
883.0249, 41.22956
883.5070, 41.21075
883.9891, 41.00867
884.4713, 40.86420
884.9534, 40.77821
885.4355, 40.74985
885.9176, 40.79057
886.3997, 40.88502
886.8818, 41.01330
887.3640, 41.17097
887.8461, 41.32273
888.3282, 41.49768
888.8103, 41.61544
889.2924, 41.59471
889.7745, 41.44833
890.2567, 41.38049
890.7388, 41.42700
891.2209, 41.44112
891.7030, 41.32803
892.1851, 41.16359
892.6672, 41.14592
893.1494, 41.25593
893.6315, 41.40897
894.1136, 41.72344
894.5957, 41.90804
895.0778, 41.62299
895.5599, 41.09322
896.0421, 40.93010
896.5242, 41.43504
897.0063, 41.71192
897.4884, 41.54557
897.9705, 41.18600
898.4526, 41.08141
898.9348, 41.19019
899.4169, 41.33365
899.8990, 41.49231
900.3811, 41.60015
900.8632, 41.56244
901.3453, 41.46600
901.8275, 41.41151
902.3096, 41.46087
902.7917, 41.46148
903.2738, 41.33723
903.7559, 41.27525
904.2380, 41.52622
904.7202, 42.04020
905.2023, 42.27665
905.6844, 42.19573
906.1665, 42.10109
906.6486, 42.29902
907.1307, 42.55542
907.6129, 42.64637
908.0950, 42.54098
908.5771, 42.43716
909.0592, 42.32944
909.5413, 42.27981
910.0234, 42.34661
910.5056, 42.49709
910.9877, 42.49392
911.4698, 41.90024
911.9519, 42.46045
912.4340, 42.80506
912.9161, 42.94566
913.3983, 42.27125
913.8804, 42.64926
914.3625, 42.60550
914.8446, 42.54446
915.3267, 43.07061
915.8088, 42.51471
916.2910, 43.03157
916.7731, 43.12018
917.2552, 43.40479
917.7373, 43.26502
918.2194, 43.25632
918.7015, 43.67214
919.1837, 43.85292
919.6658, 43.66429
920.1479, 43.96135
920.6300, 43.39064
921.1121, 43.94197
921.5942, 44.47483
922.0764, 44.94473
922.5585, 45.05034
923.0406, 44.77210
923.5227, 44.77267
924.0048, 45.08384
924.4869, 45.43330
924.9691, 45.65051
925.4512, 45.75574
925.9333, 45.68630
926.4154, 45.45971
926.8975, 45.42350
927.3796, 45.96721
927.8618, 46.38412
928.3439, 46.38340
928.8260, 46.06647
929.3081, 45.98849
929.7902, 46.14403
930.2723, 46.25566
930.7545, 46.10317
931.2366, 45.96111
931.7187, 46.20568
932.2008, 46.69383
932.6829, 47.12995
933.1650, 47.36756
933.6472, 47.63375
934.1293, 47.98067
934.6114, 48.34804
935.0935, 48.63408
935.5756, 48.84228
936.0577, 49.07578
936.5399, 49.34349
937.0220, 49.65308
937.5041, 50.03069
937.9862, 50.44019
938.4683, 50.85694
938.9504, 51.30038
939.4326, 51.60938
939.9147, 51.60619
940.3968, 51.65432
940.8789, 51.97833
941.3610, 52.54982
941.8431, 52.97535
942.3253, 53.26580
942.8074, 53.63985
943.2895, 54.42820
943.7716, 55.20177
944.2537, 55.47943
944.7358, 55.39010
945.2180, 55.43925
945.7001, 55.79718
946.1822, 56.22871
946.6643, 56.72259
947.1464, 57.25242
947.6285, 57.75899
948.1107, 58.24751
948.5928, 58.75290
949.0749, 59.30512
949.5570, 59.80659
950.0391, 60.12338
950.5212, 60.36596
951.0034, 60.65823
951.4855, 61.05339
951.9676, 61.44106
952.4497, 61.86809
952.9318, 62.20070
953.4139, 62.23629
953.8961, 62.05974
954.3782, 62.23675
954.8603, 62.75267
955.3424, 63.23055
955.8245, 63.44183
956.3066, 63.50429
956.7888, 63.38106
957.2709, 63.13560
957.7530, 63.22561
958.2351, 63.90306
958.7172, 64.33067
959.1993, 64.20871
959.6815, 63.80851
960.1636, 63.75013
960.6457, 63.91590
961.1278, 63.91302
961.6099, 63.51130
962.0920, 63.12110
962.5742, 62.93059
963.0563, 62.90129
963.5384, 63.01653
964.0205, 63.40538
964.5026, 63.52238
964.9847, 63.30629
965.4669, 63.02082
965.9490, 62.93037
966.4311, 62.93987
966.9132, 62.78277
967.3953, 62.46894
967.8774, 62.32043
968.3596, 62.71624
968.8417, 63.10150
969.3238, 63.23134
969.8059, 63.12891
970.2880, 62.81519
970.7701, 62.23981
971.2523, 61.86924
971.7344, 61.91385
972.2165, 62.14282
972.6986, 62.34457
973.1807, 62.46012
973.6628, 62.35978
974.1450, 61.67601
974.6271, 61.32320
975.1092, 61.70522
975.5913, 62.26310
976.0734, 62.46649
976.5555, 62.30610
977.0377, 62.29068
977.5198, 62.45216
978.0019, 62.61091
978.4840, 62.61644
978.9661, 62.55135
979.4482, 62.47670
979.9304, 62.40157
980.4125, 62.36728
980.8946, 62.23560
981.3767, 62.40088
981.8588, 63.13769
982.3409, 64.12872
982.8231, 64.42294
983.3052, 64.12916
983.7873, 63.79535
984.2694, 63.52098
984.7515, 63.44973
985.2336, 63.83702
985.7158, 64.41821
986.1979, 64.83684
986.6800, 64.93737
987.1621, 65.18958
987.6442, 65.63074
988.1263, 66.12035
988.6085, 66.50809
989.0906, 66.85068
989.5727, 67.31626
990.0548, 67.89617
990.5369, 68.38856
991.0190, 68.69926
991.5012, 68.88396
991.9833, 68.85117
992.4654, 68.71813
992.9475, 68.95449
993.4296, 69.61037
993.9117, 70.10882
994.3939, 70.17010
994.8760, 70.24373
995.3581, 71.18686
995.8402, 72.47092
996.3223, 73.21825
996.8044, 72.77184
997.2866, 72.75692
997.7687, 73.59426
998.2508, 74.68980
998.7329, 75.68490
999.2150, 76.56644
999.6971, 77.15171
1000.179, 77.44067
1000.661, 77.72204
1001.143, 78.19682
1001.626, 78.73764
1002.108, 79.16402
1002.590, 79.54979
1003.072, 80.32853
1003.554, 81.75727
1004.036, 82.93604
1004.518, 83.60298
1005.000, 84.06504
1005.483, 84.82922
1005.965, 85.80265
1006.447, 86.72202
1006.929, 87.51699
1007.411, 88.28930
1007.893, 89.12660
1008.375, 89.93491
1008.857, 90.62234
1009.339, 91.17568
1009.822, 91.88626
1010.304, 92.76253
1010.786, 93.67471
1011.268, 94.50654
1011.750, 95.32717
1012.232, 96.36778
1012.714, 97.47953
1013.196, 98.24794
1013.679, 98.22508
1014.161, 98.27193
1014.643, 98.52287
1015.125, 98.87724
1015.607, 99.19568
1016.089, 99.48447
1016.571, 99.84044
1017.053, 100.2961
1017.535, 100.5878
1018.018, 100.3950
1018.500, 100.0507
1018.982, 99.80508
1019.464, 99.67861
1019.946, 99.58481
1020.428, 99.57452
1020.910, 99.39761
1021.392, 98.84767
1021.875, 98.17327
1022.357, 97.92410
1022.839, 97.93353
1023.321, 97.81394
1023.803, 97.32262
1024.285, 96.82816
1024.767, 96.44445
1025.249, 96.06894
1025.731, 95.59494
1026.214, 95.01884
1026.696, 94.47026
1027.178, 93.95077
1027.660, 93.56059
1028.142, 93.46492
1028.624, 93.45806
1029.106, 93.28868
1029.588, 93.00365
1030.071, 93.04578
1030.553, 93.62041
1031.035, 94.07436
1031.517, 94.22962
1031.999, 94.22242
1032.481, 94.21851
1032.963, 94.26039
1033.445, 94.46197
1033.927, 94.86968
1034.410, 95.36863
1034.892, 95.84846
1035.374, 96.46030
1035.856, 97.36507
1036.338, 98.57951
1036.820, 99.37766
1037.302, 99.73908
1037.784, 100.1145
1038.266, 100.8575
1038.749, 101.6710
1039.231, 102.1688
1039.713, 102.5047
1040.195, 103.0462
1040.677, 104.0499
1041.159, 104.9094
1041.641, 105.5331
1042.123, 106.0980
1042.605, 106.8244
1043.088, 107.6722
1043.570, 108.5592
1044.052, 109.4759
1044.534, 110.2263
1045.016, 110.6413
1045.498, 110.9185
1045.980, 111.1120
1046.462, 111.2558
1046.945, 111.5499
1047.427, 112.0096
1047.909, 112.2669
1048.391, 112.2013
1048.873, 111.8859
1049.355, 111.2016
1049.837, 110.3966
1050.319, 109.8132
1050.802, 109.6509
1051.284, 109.4248
1051.766, 109.1718
1052.248, 108.7642
1052.730, 108.1217
1053.212, 107.2532
1053.694, 106.1066
1054.176, 104.7361
1054.658, 103.3925
1055.141, 102.1217
1055.623, 100.9921
1056.105, 100.1408
1056.587, 99.36595
1057.069, 98.36414
1057.551, 97.12973
1058.033, 95.87064
1058.515, 94.61481
1058.998, 93.27378
1059.480, 91.65129
1059.962, 89.97106
1060.444, 88.48833
1060.926, 87.23524
1061.408, 85.73924
1061.890, 83.84190
1062.372, 82.10114
1062.854, 80.75711
1063.337, 79.62013
1063.819, 78.39612
1064.301, 77.11380
1064.783, 75.86407
1065.265, 74.74894
1065.747, 73.47031
1066.229, 71.55090
1066.711, 69.80310
1067.193, 68.90761
1067.676, 68.79697
1068.158, 67.85900
1068.640, 66.14365
1069.122, 64.47137
1069.604, 63.35440
1070.086, 62.41888
1070.568, 61.38102
1071.050, 60.32594
1071.532, 59.46063
1072.015, 58.82764
1072.497, 58.23644
1072.979, 57.68032
1073.461, 57.08887
1073.943, 56.29256
1074.425, 55.46531
1074.907, 54.90415
1075.389, 54.62102
1075.872, 54.19615
1076.354, 53.38759
1076.836, 52.61713
1077.318, 51.96584
1077.800, 51.46299
1078.282, 51.30370
1078.764, 51.34939
1079.246, 51.03630
1079.729, 50.09539
1080.211, 49.21507
1080.693, 48.78709
1081.175, 48.56080
1081.657, 48.39294
1082.139, 48.28180
1082.621, 47.89835
1083.103, 47.23346
1083.585, 46.66504
1084.068, 46.44145
1084.550, 46.35855
1085.032, 46.34708
1085.514, 46.30455
1085.996, 46.01798
1086.478, 45.24046
1086.960, 44.74639
1087.442, 44.61348
1087.925, 44.59628
1088.407, 44.49765
1088.889, 44.34143
1089.371, 44.18059
1089.853, 44.00872
1090.335, 43.76949
1090.817, 43.25119
1091.299, 42.93222
1091.781, 43.02245
1092.264, 43.25912
1092.746, 43.10970
1093.228, 42.66430
1093.710, 42.36330
1094.192, 42.29175
1094.674, 42.27135
1095.156, 42.18384
1095.638, 42.11123
1096.120, 42.11465
1096.603, 42.18364
1097.085, 42.29372
1097.567, 42.45243
1098.049, 42.43023
1098.531, 42.08628
1099.013, 41.64705
1099.495, 41.18721
1099.977, 40.85044
1100.459, 40.87495
1100.942, 41.53405
1101.424, 41.77124
1101.906, 41.49474
1102.388, 41.09356
1102.870, 40.74682
1103.352, 40.48420
1103.834, 40.40558
1104.316, 40.45702
1104.799, 40.48878
1105.281, 40.38428
1105.763, 40.36403
1106.245, 40.54128
1106.727, 40.68607
1107.209, 40.51179
1107.691, 40.08121
1108.173, 39.59159
1108.656, 39.07031
1109.138, 38.74068
1109.620, 38.90061
1110.102, 39.09108
1110.584, 39.09784
1111.066, 38.98703
1111.548, 38.88579
1112.030, 38.79344
1112.512, 38.75422
1112.995, 38.79708
1113.477, 38.74300
1113.959, 38.27763
1114.441, 37.76798
1114.923, 37.58464
1115.405, 37.72734
1115.887, 37.69317
1116.369, 37.46514
1116.852, 37.13357
1117.334, 36.67591
1117.816, 36.24278
1118.298, 36.06858
1118.780, 36.03521
1119.262, 35.95702
1119.744, 35.72692
1120.226, 35.71227
1120.708, 36.04269
1121.191, 36.29408
1121.673, 36.18169
1122.155, 35.83438
1122.637, 35.49302
1123.119, 35.17628
1123.601, 34.93570
1124.083, 34.81826
1124.565, 34.74467
1125.047, 34.69479
1125.530, 34.68642
1126.012, 34.79661
1126.494, 34.97475
1126.976, 34.88320
1127.458, 34.54712
1127.940, 34.26543
1128.422, 34.23400
1128.904, 34.26653
1129.386, 34.32037
1129.869, 34.36379
1130.351, 34.30741
1130.833, 34.15553
1131.315, 34.21222
1131.797, 34.52650
1132.279, 34.80558
1132.761, 34.79115
1133.243, 34.67812
1133.726, 34.60926
1134.208, 34.56941
1134.690, 34.44432
1135.172, 34.22260
1135.654, 33.99748
1136.136, 33.79124
1136.618, 33.57932
1137.100, 33.23367
1137.583, 32.92949
1138.065, 32.91359
1138.547, 33.27322
1139.029, 33.42065
1139.511, 33.27711
1139.993, 33.17173
1140.475, 33.23993
1140.957, 33.40694
1141.439, 33.55619
1141.922, 33.71930
1142.404, 34.00316
1142.886, 34.65657
1143.368, 34.73667
1143.850, 33.94592
1144.332, 33.11705
1144.814, 32.74806
1145.296, 32.72743
1145.779, 32.90127
1146.261, 33.17721
1146.743, 33.29008
1147.225, 32.94796
1147.707, 32.69007
1148.189, 32.59470
1148.671, 32.60228
1149.153, 32.71391
1149.635, 32.88861
1150.118, 32.90521
1150.600, 32.77882
1151.082, 32.65257
1151.564, 32.57118
1152.046, 32.54045
1152.528, 32.58142
1153.010, 32.65912
1153.492, 32.76925
1153.974, 32.89617
1154.457, 32.79847
1154.939, 32.46014
1155.421, 32.19948
1155.903, 32.28529
1156.385, 32.45908
1156.867, 32.60956
1157.349, 32.72417
1157.831, 32.74224
1158.313, 32.66061
1158.796, 32.77882
1159.278, 33.19411
1159.760, 33.41698
1160.242, 32.71317
1160.724, 31.90664
1161.206, 31.71783
1161.688, 32.08755
1162.170, 32.43134
1162.653, 32.76942
1163.135, 32.85295
1163.617, 32.54480
1164.099, 32.18779
1164.581, 32.14733
1165.063, 32.24144
1165.545, 32.28161
1166.027, 32.24215
1166.510, 32.21980
1166.992, 32.22556
1167.474, 32.17354
1167.956, 31.97534
1168.438, 31.79852
1168.920, 31.92879
1169.402, 32.18991
1169.884, 32.32847
1170.366, 32.25740
1170.849, 32.18346
1171.331, 32.10875
1171.813, 32.02102
1172.295, 31.87237
1172.777, 31.74490
1173.259, 31.82989
1173.741, 32.02457
1174.223, 32.12211
1174.706, 31.96530
1175.188, 31.90768
1175.670, 32.01042
1176.152, 32.06231
1176.634, 31.75382
1177.116, 31.35786
1177.598, 31.53220
1178.080, 32.08562
1178.563, 32.42849
1179.045, 32.19698
1179.527, 32.00686
1180.009, 31.94227
1180.491, 31.85384
1180.973, 31.48102
1181.455, 31.01374
1181.937, 30.95163
1182.419, 31.23807
1182.901, 31.50847
1183.384, 31.71084
1183.866, 31.73233
1184.348, 31.46545
1184.830, 31.17709
1185.312, 31.29148
1185.794, 31.63165
1186.276, 31.67794
1186.758, 31.42517
1187.240, 31.26417
1187.723, 31.48455
1188.205, 31.65923
1188.687, 31.69355
1189.169, 31.62108
1189.651, 31.43071
1190.133, 31.18402
1190.615, 31.07698
1191.097, 31.13522
1191.580, 31.28233
1192.062, 31.62570
1192.544, 31.87814
1193.026, 31.95325
1193.508, 31.87883
1193.990, 31.61478
1194.472, 31.25042
1194.954, 31.15011
1195.437, 31.41369
1195.919, 31.60676
1196.401, 31.41147
1196.883, 31.24880
1197.365, 31.32460
1197.847, 31.53216
1198.329, 31.53728
1198.811, 31.39670
1199.293, 31.34971
1199.776, 31.48953
1200.258, 31.56387
1200.740, 31.38099
1201.222, 31.17705
1201.704, 31.05772
1202.186, 31.01536
1202.668, 31.05627
1203.150, 31.15566
1203.633, 31.20673
1204.115, 31.14638
1204.597, 31.11998
1205.079, 31.22853
1205.561, 31.35780
1206.043, 31.42522
1206.525, 31.45821
1207.007, 31.65216
1207.490, 31.95184
1207.972, 32.10121
1208.454, 31.88849
1208.936, 31.73335
1209.418, 31.91908
1209.900, 32.12537
1210.382, 32.14930
1210.864, 32.00977
1211.346, 31.76986
1211.828, 31.46823
1212.311, 31.30545
1212.793, 31.41407
1213.275, 31.61064
1213.757, 31.92314
1214.239, 32.20638
1214.721, 32.33813
1215.203, 32.33569
1215.685, 32.32656
1216.167, 32.30855
1216.650, 32.26984
1217.132, 32.16050
1217.614, 32.08897
1218.096, 32.12163
1218.578, 32.17085
1219.060, 32.17266
1219.542, 32.12526
1220.024, 31.97779
1220.507, 31.75638
1220.989, 31.60377
1221.471, 31.58996
1221.953, 31.66200
1222.435, 31.84224
1222.917, 32.05173
1223.399, 32.22731
1223.881, 32.36458
1224.364, 32.44683
1224.846, 32.47018
1225.328, 32.41161
1225.810, 32.11008
1226.292, 31.93054
1226.774, 31.97311
1227.256, 32.13953
1227.738, 32.38360
1228.220, 32.65022
1228.703, 32.70798
1229.185, 32.57513
1229.667, 32.46204
1230.149, 32.45451
1230.631, 32.49966
1231.113, 32.60917
1231.595, 32.72324
1232.077, 32.71137
1232.560, 32.65310
1233.042, 32.86624
1233.524, 33.31483
1234.006, 33.54487
1234.488, 33.00584
1234.970, 32.77251
1235.452, 33.18865
1235.934, 33.72578
1236.417, 33.58757
1236.899, 33.05757
1237.381, 32.71732
1237.863, 32.61781
1238.345, 32.69666
1238.827, 33.19122
1239.309, 33.45879
1239.791, 33.34638
1240.273, 33.07639
1240.755, 32.85000
1241.238, 32.71970
1241.720, 32.85599
1242.202, 33.24144
1242.684, 33.49570
1243.166, 33.50155
1243.648, 33.46463
1244.130, 33.41116
1244.612, 33.35821
1245.094, 33.28762
1245.577, 33.25295
1246.059, 33.35649
1246.541, 33.59741
1247.023, 33.82352
1247.505, 34.03468
1247.987, 34.19283
1248.469, 34.29087
1248.951, 34.32940
1249.434, 34.28796
1249.916, 34.19952
1250.398, 34.07177
1250.880, 33.91896
1251.362, 33.88445
1251.844, 34.00818
1252.326, 34.08521
1252.808, 34.06715
1253.291, 34.00555
1253.773, 33.86751
1254.255, 33.78116
1254.737, 33.94633
1255.219, 34.32744
1255.701, 34.47910
1256.183, 34.37541
1256.665, 34.25466
1257.147, 34.15974
1257.630, 34.12224
1258.112, 34.25424
1258.594, 34.38836
1259.076, 34.36377
1259.558, 34.21250
1260.040, 34.05506
1260.522, 33.89341
1261.004, 33.81100
1261.487, 33.83760
1261.969, 33.86636
1262.451, 33.71129
1262.933, 33.64206
1263.415, 33.94458
1263.897, 34.43854
1264.379, 34.45025
1264.861, 34.05491
1265.344, 33.83224
1265.826, 33.93550
1266.308, 33.99022
1266.790, 33.59382
1267.272, 33.31466
1267.754, 33.48650
1268.236, 33.90501
1268.718, 34.03729
1269.200, 33.95222
1269.682, 33.89184
1270.165, 33.90468
1270.647, 33.92382
1271.129, 33.94538
1271.611, 33.93684
1272.093, 33.88792
1272.575, 33.80199
1273.057, 33.60430
1273.539, 33.39463
1274.021, 33.45271
1274.504, 33.85763
1274.986, 34.09976
1275.468, 34.01300
1275.950, 33.92321
1276.432, 33.92442
1276.914, 33.97332
1277.396, 34.05180
1277.878, 34.10857
1278.361, 34.02034
1278.843, 33.76311
1279.325, 33.71553
1279.807, 33.97661
1280.289, 34.10729
1280.771, 33.93418
1281.253, 33.76027
1281.735, 34.10228
1282.218, 34.53637
1282.700, 34.51263
1283.182, 34.03864
1283.664, 33.90666
1284.146, 34.15466
1284.628, 34.29165
1285.110, 34.17717
1285.592, 34.01723
1286.074, 33.94027
1286.557, 33.94103
1287.039, 34.07594
1287.521, 34.27816
1288.003, 34.24413
1288.485, 34.00789
1288.967, 34.04625
1289.449, 34.51243
1289.931, 34.81729
1290.414, 34.40174
1290.896, 33.94083
1291.378, 33.75211
1291.860, 33.76426
1292.342, 33.86641
1292.824, 34.01400
1293.306, 34.00232
1293.788, 33.77776
1294.271, 33.71990
1294.753, 34.20367
1295.235, 34.58401
1295.717, 34.68663
1296.199, 34.60429
1296.681, 34.38066
1297.163, 34.13265
1297.645, 34.14199
1298.127, 34.44201
1298.609, 34.50226
1299.092, 34.14173
1299.574, 33.90124
1300.056, 33.93414
1300.538, 34.02823
1301.020, 33.83723
1301.502, 33.62414
1301.984, 33.76069
1302.466, 34.22493
1302.948, 34.48389
1303.431, 34.51229
1303.913, 34.49998
1304.395, 34.48363
##END=



