##NAMES=Schorlomite
##RRUFFID=R060349
##IDEAL CHEMISTRY=Ca_3_Ti^4+^_2_(Fe^3+^_2_Si)O_12_
##LOCALITY=Sundsvall, Medelpad, Sweden
##OWNER=RRUFF
##SOURCE=Marcus Origlieri
##DESCRIPTION=Black massive, intimately associated with andradite
##STATUS=The identification of this mineral is confirmed by single-crystal X-ray diffraction and chemical analysis.
##URL=rruff.info/R060349
93.30109, 0.0000000E+00
93.78320, 56.39238
94.26532, 58.00027
94.74744, 58.13949
95.22955, 56.65287
95.71167, 54.58654
96.19379, 53.25008
96.67590, 52.81540
97.15803, 52.76610
97.64014, 53.34640
98.12226, 54.20402
98.60438, 54.76793
99.08649, 54.91833
99.56861, 54.61488
100.0507, 53.71091
100.5328, 51.89648
101.0150, 50.34791
101.4971, 49.93166
101.9792, 50.64985
102.4613, 51.85276
102.9434, 53.56776
103.4255, 55.54361
103.9077, 57.79728
104.3898, 60.47239
104.8719, 63.06133
105.3540, 64.62691
105.8361, 65.36736
106.3182, 64.53140
106.8004, 61.35232
107.2825, 56.96989
107.7646, 52.59002
108.2467, 48.88806
108.7288, 45.85994
109.2109, 43.61681
109.6931, 42.49052
110.1752, 41.76838
110.6573, 41.38291
111.1394, 41.26865
111.6215, 41.38155
112.1037, 41.75386
112.5858, 42.46788
113.0679, 42.53011
113.5500, 41.47270
114.0321, 40.15760
114.5142, 39.20205
114.9964, 38.70387
115.4785, 38.35039
115.9606, 37.69861
116.4427, 36.76520
116.9248, 36.17424
117.4069, 36.15852
117.8891, 36.57969
118.3712, 37.26642
118.8533, 38.47997
119.3354, 39.45487
119.8175, 39.43383
120.2996, 38.49577
120.7818, 37.37235
121.2639, 36.52915
121.7460, 35.97044
122.2281, 35.56989
122.7102, 35.49772
123.1923, 35.46010
123.6745, 35.36882
124.1566, 35.19106
124.6387, 34.85272
125.1208, 34.15604
125.6029, 32.70246
126.0850, 31.76602
126.5672, 31.61533
127.0493, 31.81562
127.5314, 32.07716
128.0135, 32.27733
128.4956, 32.40557
128.9778, 32.43292
129.4599, 32.36344
129.9420, 32.17191
130.4241, 31.77580
130.9062, 31.26766
131.3883, 30.75728
131.8705, 30.28664
132.3526, 29.88279
132.8347, 29.69118
133.3168, 29.86537
133.7989, 30.04539
134.2810, 30.10072
134.7632, 30.03716
135.2453, 29.88704
135.7274, 29.61001
136.2095, 29.27117
136.6916, 29.08475
137.1737, 29.14565
137.6559, 29.31194
138.1380, 29.45085
138.6201, 29.56082
139.1022, 29.65064
139.5843, 29.79259
140.0664, 29.91358
140.5486, 29.87878
141.0307, 29.56365
141.5128, 29.06313
141.9949, 28.66745
142.4770, 28.44675
142.9591, 28.22978
143.4413, 27.90044
143.9234, 27.52229
144.4055, 27.21131
144.8876, 27.06245
145.3697, 27.07667
145.8518, 27.09656
146.3340, 27.17425
146.8161, 27.20990
147.2982, 27.15168
147.7803, 27.01718
148.2624, 26.86296
148.7445, 26.74519
149.2267, 26.67914
149.7088, 26.58892
150.1909, 26.43564
150.6730, 26.29367
151.1551, 26.19473
151.6372, 26.14722
152.1194, 26.15613
152.6015, 26.24091
153.0836, 26.46756
153.5657, 26.57206
154.0478, 26.45237
154.5300, 26.25946
155.0121, 26.17184
155.4942, 26.24324
155.9763, 26.32809
156.4584, 26.15444
156.9405, 25.69620
157.4227, 25.32225
157.9048, 25.15829
158.3869, 25.14662
158.8690, 25.17798
159.3511, 25.24796
159.8332, 25.31470
160.3154, 25.33657
160.7975, 25.31589
161.2796, 25.25489
161.7617, 25.12484
162.2438, 24.93335
162.7259, 24.79269
163.2081, 24.76914
163.6902, 24.77540
164.1723, 24.72705
164.6544, 24.61700
165.1365, 24.53395
165.6186, 24.59559
166.1008, 24.84245
166.5829, 25.05067
167.0650, 25.23675
167.5471, 25.34052
168.0292, 25.27109
168.5113, 25.01718
168.9935, 24.70564
169.4756, 24.55795
169.9577, 24.69003
170.4398, 24.76984
170.9219, 24.74435
171.4040, 24.68004
171.8862, 24.62399
172.3683, 24.59509
172.8504, 24.59139
173.3325, 24.60869
173.8146, 24.65808
174.2967, 24.71850
174.7789, 24.86310
175.2610, 24.99508
175.7431, 24.95736
176.2252, 24.66832
176.7073, 24.24877
177.1894, 24.10963
177.6716, 24.55441
178.1537, 24.87467
178.6358, 24.86961
179.1179, 24.65184
179.6000, 24.42839
180.0822, 24.29211
180.5643, 24.22952
181.0464, 24.19118
181.5285, 24.15806
182.0106, 24.16809
182.4927, 24.25701
182.9749, 24.41155
183.4570, 24.57456
183.9391, 24.72845
184.4212, 24.86622
184.9033, 24.97498
185.3854, 25.03347
185.8676, 25.09770
186.3497, 25.27184
186.8318, 25.56312
187.3139, 25.70426
187.7960, 25.40277
188.2781, 24.95984
188.7603, 24.71841
189.2424, 24.78867
189.7245, 24.97375
190.2066, 24.97537
190.6887, 24.69902
191.1708, 24.59058
191.6530, 25.03667
192.1351, 25.61155
192.6172, 25.93307
193.0993, 25.84574
193.5814, 25.52536
194.0635, 25.30985
194.5457, 25.21681
195.0278, 25.20760
195.5099, 25.29838
195.9920, 25.43935
196.4741, 25.59809
196.9562, 25.76333
197.4384, 25.91102
197.9205, 25.96573
198.4026, 25.82250
198.8847, 25.72559
199.3668, 25.69427
199.8489, 25.72612
200.3311, 25.82915
200.8132, 26.00928
201.2953, 26.24388
201.7774, 26.44106
202.2595, 26.60232
202.7417, 26.72001
203.2238, 26.77096
203.7059, 26.78275
204.1880, 26.78752
204.6701, 26.80021
205.1522, 26.82563
205.6344, 26.88797
206.1165, 26.96633
206.5986, 27.10018
207.0807, 27.39787
207.5628, 27.75238
208.0449, 27.93337
208.5271, 27.78623
209.0092, 27.42755
209.4913, 27.34701
209.9734, 27.75726
210.4555, 28.12686
210.9376, 28.20626
211.4198, 28.08848
211.9019, 28.03735
212.3840, 28.20090
212.8661, 28.50553
213.3482, 28.73647
213.8303, 28.88433
214.3125, 28.98282
214.7946, 29.05936
215.2767, 29.10665
215.7588, 29.07394
216.2409, 28.89691
216.7230, 28.65265
217.2052, 28.46928
217.6873, 28.33228
218.1694, 28.29442
218.6515, 28.44087
219.1336, 28.76493
219.6157, 29.07308
220.0979, 29.30148
220.5800, 29.46983
221.0621, 29.60768
221.5442, 29.72150
222.0263, 29.78943
222.5084, 29.75925
222.9906, 29.61716
223.4727, 29.52810
223.9548, 29.61805
224.4369, 29.73703
224.9190, 29.76143
225.4011, 29.66463
225.8833, 29.54501
226.3654, 29.54656
226.8475, 29.71423
227.3296, 29.78432
227.8117, 29.54002
228.2939, 29.28373
228.7760, 29.23252
229.2581, 29.42410
229.7402, 29.69355
230.2223, 29.80636
230.7044, 29.69084
231.1866, 29.64923
231.6687, 29.83658
232.1508, 30.01612
232.6329, 30.02118
233.1150, 29.82963
233.5971, 29.55970
234.0793, 29.36657
234.5614, 29.25635
235.0435, 29.21774
235.5256, 29.32033
236.0077, 29.43161
236.4898, 29.46177
236.9720, 29.39974
237.4541, 29.30336
237.9362, 29.24963
238.4183, 29.25295
238.9004, 29.26871
239.3825, 29.40262
239.8647, 29.47099
240.3468, 29.28274
240.8289, 28.85062
241.3110, 28.40777
241.7931, 28.26031
242.2752, 28.58496
242.7574, 28.69563
243.2395, 28.36540
243.7216, 28.02329
244.2037, 27.98969
244.6858, 28.27624
245.1679, 28.63165
245.6501, 28.78232
246.1322, 28.68164
246.6143, 28.51357
247.0964, 28.16328
247.5785, 27.83771
248.0606, 27.70382
248.5428, 27.75996
249.0249, 27.85489
249.5070, 27.83944
249.9891, 27.68996
250.4712, 27.59497
250.9533, 27.58172
251.4355, 27.59774
251.9176, 27.63016
252.3997, 27.66967
252.8818, 27.66978
253.3639, 27.57084
253.8461, 27.37422
254.3282, 27.28165
254.8103, 27.45827
255.2924, 27.60711
255.7745, 27.45642
256.2566, 27.03114
256.7387, 26.64502
257.2209, 26.53588
257.7030, 26.67257
258.1851, 26.73935
258.6672, 26.58724
259.1493, 26.48507
259.6314, 26.72131
260.1136, 27.25006
260.5957, 27.63512
261.0778, 27.56105
261.5599, 27.15766
262.0420, 26.89699
262.5241, 26.83124
263.0063, 26.85056
263.4884, 26.94895
263.9705, 27.10580
264.4526, 27.11715
264.9348, 26.76912
265.4169, 26.29457
265.8990, 26.14948
266.3811, 26.46922
266.8632, 26.83364
267.3453, 26.89197
267.8275, 26.69066
268.3096, 26.60499
268.7917, 26.82143
269.2738, 27.17822
269.7559, 27.46511
270.2380, 27.68167
270.7202, 27.81519
271.2023, 27.80714
271.6844, 27.68291
272.1665, 27.62894
272.6486, 27.76940
273.1307, 27.90810
273.6129, 27.81267
274.0950, 27.48546
274.5771, 27.20923
275.0592, 27.17166
275.5413, 27.34709
276.0234, 27.60719
276.5056, 28.03258
276.9877, 28.40314
277.4698, 28.51486
277.9519, 28.41458
278.4340, 28.34126
278.9161, 28.48905
279.3983, 28.79671
279.8804, 28.98370
280.3625, 28.98105
280.8446, 28.93292
281.3267, 28.86994
281.8088, 28.82864
282.2910, 28.90237
282.7731, 29.20307
283.2552, 29.65466
283.7373, 30.02350
284.2194, 30.34644
284.7015, 30.50036
285.1837, 30.33648
285.6658, 30.00940
286.1479, 29.74625
286.6300, 29.65775
287.1121, 29.68879
287.5942, 29.70401
288.0764, 29.65573
288.5585, 29.71091
289.0406, 30.05317
289.5227, 30.47141
290.0048, 30.73012
290.4869, 30.73228
290.9691, 30.60297
291.4512, 30.55795
291.9333, 30.62917
292.4154, 30.68395
292.8975, 30.69522
293.3796, 30.67318
293.8618, 30.59293
294.3439, 30.44879
294.8260, 30.33433
295.3081, 30.41210
295.7902, 30.74621
296.2723, 30.96662
296.7545, 30.90111
297.2366, 30.78067
297.7187, 30.70499
298.2008, 30.69432
298.6829, 30.74862
299.1650, 30.90762
299.6472, 31.19412
300.1293, 31.37008
300.6114, 31.32014
301.0935, 31.23990
301.5756, 31.22020
302.0577, 31.24848
302.5399, 31.25903
303.0220, 31.18583
303.5041, 31.03445
303.9862, 30.92743
304.4683, 30.88331
304.9504, 30.86814
305.4326, 30.91296
305.9147, 30.97312
306.3968, 30.95837
306.8789, 30.78576
307.3610, 30.51315
307.8431, 30.41351
308.3253, 30.66748
308.8074, 30.80810
309.2895, 30.58590
309.7716, 30.23583
310.2537, 30.07251
310.7358, 30.25391
311.2180, 30.58884
311.7001, 30.63477
312.1822, 30.24551
312.6643, 29.88352
313.1465, 29.62430
313.6286, 29.43100
314.1107, 29.26672
314.5928, 29.12291
315.0749, 29.03329
315.5570, 29.07795
316.0392, 29.32062
316.5213, 29.46262
317.0034, 29.44995
317.4855, 29.34795
317.9676, 29.14951
318.4497, 28.87457
318.9319, 28.59739
319.4140, 28.37728
319.8961, 28.21155
320.3782, 28.13168
320.8603, 28.16819
321.3424, 28.27366
321.8246, 28.52550
322.3067, 28.84004
322.7888, 29.02366
323.2709, 28.89425
323.7530, 28.50415
324.2351, 28.25289
324.7173, 28.25423
325.1994, 28.24008
325.6815, 28.02812
326.1636, 27.77478
326.6457, 27.73384
327.1278, 28.07011
327.6100, 28.58258
328.0921, 28.75012
328.5742, 28.36565
329.0563, 28.07997
329.5384, 28.08286
330.0205, 28.21579
330.5027, 28.38197
330.9848, 28.55260
331.4669, 28.67000
331.9490, 28.62833
332.4311, 28.38214
332.9132, 28.17724
333.3954, 28.04195
333.8775, 27.96485
334.3596, 27.95590
334.8417, 28.00997
335.3238, 28.10063
335.8059, 28.23357
336.2881, 28.41111
336.7702, 28.49119
337.2523, 28.36846
337.7344, 28.26030
338.2165, 28.31513
338.6986, 28.46294
339.1808, 28.52828
339.6629, 28.35178
340.1450, 28.02397
340.6271, 27.90860
341.1092, 28.14013
341.5913, 28.32595
342.0735, 28.27326
342.5556, 28.10999
343.0377, 27.99182
343.5198, 27.98364
344.0019, 28.02058
344.4840, 27.97489
344.9662, 27.80589
345.4483, 27.73163
345.9304, 27.92838
346.4125, 28.18352
346.8946, 28.36877
347.3767, 28.46383
347.8589, 28.47526
348.3410, 28.37943
348.8231, 28.17919
349.3052, 27.99820
349.7873, 27.81364
350.2694, 27.70418
350.7516, 27.76870
351.2337, 27.96412
351.7158, 28.10995
352.1979, 28.07715
352.6800, 27.91034
353.1621, 27.74952
353.6443, 27.58950
354.1264, 27.45299
354.6085, 27.35462
355.0906, 27.28644
355.5727, 27.23575
356.0548, 27.17597
356.5370, 27.15885
357.0191, 27.32165
357.5012, 27.69370
357.9833, 27.90473
358.4654, 27.64134
358.9475, 27.22830
359.4297, 27.07340
359.9118, 27.25557
360.3939, 27.48357
360.8760, 27.53784
361.3581, 27.44944
361.8402, 27.37653
362.3224, 27.35482
362.8045, 27.35966
363.2866, 27.39070
363.7687, 27.44171
364.2509, 27.42794
364.7330, 27.24289
365.2151, 26.99424
365.6972, 26.87131
366.1793, 26.90203
366.6614, 26.98056
367.1436, 27.02118
367.6257, 27.04823
368.1078, 27.13830
368.5899, 27.42874
369.0720, 27.68046
369.5541, 27.61054
370.0363, 27.27694
370.5184, 27.08002
371.0005, 27.25257
371.4826, 27.63824
371.9647, 27.88132
372.4468, 27.95807
372.9290, 27.97466
373.4111, 27.92642
373.8932, 27.85334
374.3753, 27.81468
374.8574, 27.81921
375.3395, 27.90380
375.8217, 28.16994
376.3038, 28.65682
376.7859, 28.95192
377.2680, 28.83689
377.7501, 28.63629
378.2322, 28.62261
378.7144, 28.80656
379.1965, 29.06320
379.6786, 29.31789
380.1607, 29.56532
380.6428, 29.76365
381.1249, 29.92452
381.6071, 30.03135
382.0892, 30.00151
382.5713, 29.92276
383.0534, 29.96836
383.5355, 30.21798
384.0176, 30.59481
384.4998, 30.94101
384.9819, 31.30329
385.4640, 31.54703
385.9461, 31.57395
386.4282, 31.53957
386.9103, 31.54396
387.3925, 31.61716
387.8746, 31.78728
388.3567, 32.10276
388.8388, 32.60097
389.3209, 32.96946
389.8030, 33.10783
390.2852, 33.24377
390.7673, 33.52027
391.2494, 33.85714
391.7315, 34.06107
392.2136, 34.00526
392.6957, 33.78666
393.1779, 33.78792
393.6600, 34.26120
394.1421, 34.60205
394.6242, 34.61959
395.1063, 34.56904
395.5884, 34.71623
396.0706, 35.11147
396.5527, 35.55351
397.0348, 35.74152
397.5169, 35.56365
397.9990, 35.57434
398.4811, 36.02207
398.9633, 36.43562
399.4454, 36.67632
399.9275, 36.72786
400.4096, 36.58937
400.8917, 36.21177
401.3738, 35.66805
401.8560, 35.27203
402.3381, 35.05990
402.8202, 34.93715
403.3023, 34.89096
403.7844, 34.89878
404.2665, 34.96392
404.7487, 35.09425
405.2308, 35.19948
405.7129, 35.14951
406.1950, 34.93528
406.6771, 34.73640
407.1592, 34.61963
407.6414, 34.48910
408.1235, 34.23959
408.6056, 33.89884
409.0877, 33.62003
409.5698, 33.55952
410.0519, 33.61396
410.5341, 33.52492
411.0162, 33.25620
411.4983, 32.96157
411.9804, 32.73955
412.4626, 32.55150
412.9447, 32.33184
413.4268, 32.04691
413.9089, 31.76787
414.3910, 31.57288
414.8731, 31.44164
415.3553, 31.26458
415.8374, 30.98053
416.3195, 30.68060
416.8016, 30.51302
417.2837, 30.47966
417.7658, 30.44639
418.2480, 30.45279
418.7301, 30.40163
419.2122, 30.10872
419.6943, 29.57091
420.1764, 29.09051
420.6585, 28.94074
421.1407, 29.08141
421.6228, 29.02984
422.1049, 28.63567
422.5870, 28.23424
423.0691, 27.88199
423.5512, 27.62559
424.0334, 27.60616
424.5155, 27.89343
424.9976, 28.26158
425.4797, 28.27582
425.9618, 27.66903
426.4439, 27.22865
426.9261, 27.01763
427.4082, 26.91534
427.8903, 26.87541
428.3724, 26.87086
428.8545, 26.85583
429.3366, 26.78988
429.8188, 26.67578
430.3009, 26.58132
430.7830, 26.55306
431.2651, 26.49198
431.7472, 26.35219
432.2293, 26.18270
432.7115, 26.03113
433.1936, 25.91678
433.6757, 25.85419
434.1578, 25.89496
434.6399, 26.09735
435.1220, 26.19499
435.6042, 26.08960
436.0863, 25.93810
436.5684, 25.78259
437.0505, 25.64058
437.5326, 25.54028
438.0147, 25.52010
438.4969, 25.55148
438.9790, 25.51867
439.4611, 25.37576
439.9432, 25.28545
440.4253, 25.40434
440.9074, 25.57010
441.3896, 25.58400
441.8717, 25.37772
442.3538, 25.17729
442.8359, 25.25787
443.3180, 25.55437
443.8001, 25.64016
444.2823, 25.33624
444.7644, 24.98457
445.2465, 24.96185
445.7286, 25.19477
446.2107, 25.37598
446.6928, 25.42843
447.1750, 25.38715
447.6571, 25.24245
448.1392, 25.01100
448.6213, 24.82485
449.1034, 24.76242
449.5855, 24.78500
450.0677, 24.78729
450.5498, 24.77004
451.0319, 24.73652
451.5140, 24.66805
451.9961, 24.59248
452.4782, 24.56337
452.9604, 24.58466
453.4425, 24.57647
453.9246, 24.43949
454.4067, 24.14874
454.8888, 24.00217
455.3709, 24.05085
455.8531, 24.15992
456.3352, 24.33549
456.8173, 24.52685
457.2994, 24.67811
457.7815, 24.76339
458.2636, 24.75768
458.7458, 24.57426
459.2279, 24.00571
459.7100, 23.70221
460.1921, 23.82732
460.6742, 24.06271
461.1564, 24.28727
461.6385, 24.46079
462.1206, 24.53664
462.6027, 24.44688
463.0848, 24.23618
463.5670, 24.15408
464.0491, 24.28995
464.5312, 24.37239
465.0133, 24.25752
465.4954, 24.07383
465.9775, 23.94425
466.4597, 23.89683
466.9418, 23.89096
467.4239, 23.90551
467.9060, 23.93456
468.3881, 23.94320
468.8702, 23.93653
469.3524, 23.88840
469.8345, 23.70523
470.3166, 23.45153
470.7987, 23.33384
471.2808, 23.50453
471.7629, 23.75365
472.2451, 23.90807
472.7272, 23.97855
473.2093, 24.02563
473.6914, 24.08284
474.1735, 24.11449
474.6556, 24.01785
475.1378, 23.71800
475.6199, 23.55936
476.1020, 23.68649
476.5841, 23.91151
477.0662, 24.09906
477.5483, 24.22460
478.0305, 24.28609
478.5126, 24.27141
478.9947, 24.19345
479.4768, 24.16770
479.9589, 24.24295
480.4410, 24.31120
480.9232, 24.31610
481.4053, 24.32961
481.8874, 24.46771
482.3695, 24.73905
482.8516, 24.99081
483.3337, 25.01489
483.8159, 24.77534
484.2980, 24.61527
484.7801, 24.59089
485.2622, 24.58764
485.7443, 24.55374
486.2264, 24.51706
486.7086, 24.52628
487.1907, 24.60513
487.6728, 24.72513
488.1549, 24.85273
488.6370, 24.98865
489.1191, 25.12640
489.6013, 25.30700
490.0834, 25.43740
490.5655, 25.39160
491.0476, 25.20259
491.5297, 25.09934
492.0118, 25.27294
492.4940, 25.52636
492.9761, 25.59177
493.4582, 25.47235
493.9403, 25.33595
494.4224, 25.24691
494.9045, 25.21464
495.3867, 25.27384
495.8688, 25.45301
496.3509, 25.63231
496.8330, 25.79783
497.3151, 25.94224
497.7972, 26.05511
498.2794, 26.13642
498.7615, 26.19957
499.2436, 26.26243
499.7257, 26.32001
500.2078, 26.28287
500.6899, 25.97757
501.1721, 25.78777
501.6542, 25.84535
502.1363, 26.01419
502.6184, 26.15357
503.1005, 26.22384
503.5826, 26.26727
504.0648, 26.34594
504.5469, 26.47029
505.0290, 26.52496
505.5111, 26.47837
505.9932, 26.39683
506.4753, 26.26005
506.9575, 26.12015
507.4396, 26.06796
507.9217, 26.15287
508.4038, 26.28086
508.8859, 26.33531
509.3680, 26.32030
509.8502, 26.31362
510.3323, 26.34689
510.8144, 26.36890
511.2965, 26.31114
511.7787, 26.18985
512.2607, 26.09176
512.7429, 26.05548
513.2250, 26.03731
513.7071, 26.01647
514.1892, 25.98461
514.6713, 25.90582
515.1534, 25.75662
515.6356, 25.57229
516.1177, 25.41735
516.5998, 25.27320
517.0819, 25.20630
517.5640, 25.30709
518.0461, 25.41324
518.5283, 25.38807
519.0104, 25.26223
519.4925, 25.15867
519.9746, 25.15690
520.4567, 25.24203
520.9388, 25.37626
521.4210, 25.67424
521.9031, 25.79836
522.3852, 25.59032
522.8673, 25.30878
523.3494, 25.13261
523.8315, 25.06997
524.3137, 25.02557
524.7958, 24.92414
525.2779, 24.78447
525.7600, 24.66306
526.2421, 24.54783
526.7242, 24.49866
527.2064, 24.60079
527.6885, 24.75351
528.1706, 24.82179
528.6527, 24.78070
529.1348, 24.74288
529.6169, 24.83786
530.0991, 24.94781
530.5812, 24.83165
531.0633, 24.46459
531.5454, 24.10106
532.0275, 23.91963
532.5096, 23.90299
532.9918, 23.93703
533.4739, 24.08270
533.9560, 24.19243
534.4381, 24.25093
534.9202, 24.25071
535.4024, 24.14813
535.8845, 23.95531
536.3666, 23.77353
536.8488, 23.70253
537.3309, 23.74180
537.8130, 23.84756
538.2951, 24.10792
538.7772, 24.31933
539.2593, 24.42866
539.7415, 24.47240
540.2236, 24.47632
540.7057, 24.44917
541.1878, 24.42260
541.6699, 24.39708
542.1520, 24.38709
542.6342, 24.52779
543.1163, 24.90462
543.5984, 25.24523
544.0805, 25.32710
544.5626, 25.25829
545.0447, 25.23524
545.5269, 25.30392
546.0090, 25.38150
546.4911, 25.45144
546.9732, 25.49016
547.4553, 25.42967
547.9374, 25.25434
548.4196, 25.06584
548.9017, 24.96060
549.3838, 24.93986
549.8659, 24.93125
550.3480, 25.06069
550.8301, 25.05191
551.3123, 24.67660
551.7944, 24.18922
552.2765, 23.93124
552.7586, 23.97841
553.2407, 24.10161
553.7228, 23.99597
554.2050, 23.63831
554.6871, 23.49003
555.1692, 23.71691
555.6513, 23.92254
556.1334, 23.93984
556.6155, 23.86503
557.0977, 23.81957
557.5798, 23.83627
558.0619, 23.87746
558.5440, 23.95989
559.0261, 24.04521
559.5082, 23.95809
559.9904, 23.63829
560.4725, 23.30789
560.9546, 23.10826
561.4367, 23.04645
561.9188, 23.09332
562.4009, 23.37237
562.8831, 23.60485
563.3652, 23.63286
563.8473, 23.57547
564.3294, 23.61106
564.8115, 23.77065
565.2936, 23.93982
565.7758, 23.99515
566.2579, 23.93625
566.7400, 23.96332
567.2221, 24.19821
567.7042, 24.37368
568.1863, 24.40200
568.6685, 24.37371
569.1506, 24.36872
569.6327, 24.40885
570.1148, 24.48892
570.5969, 24.65860
571.0790, 24.88354
571.5612, 24.90117
572.0433, 24.61054
572.5254, 24.39801
573.0075, 24.54392
573.4896, 24.85359
573.9717, 25.02807
574.4539, 25.00489
574.9360, 24.99042
575.4181, 25.08133
575.9002, 25.23948
576.3823, 25.44103
576.8644, 25.67323
577.3466, 25.85044
577.8287, 25.89913
578.3108, 25.85321
578.7929, 25.87948
579.2750, 26.09105
579.7571, 26.22650
580.2393, 26.20499
580.7214, 26.15200
581.2035, 26.15529
581.6856, 26.22461
582.1677, 26.33492
582.6498, 26.47652
583.1320, 26.63480
583.6141, 26.75449
584.0962, 26.82620
584.5783, 26.89310
585.0604, 26.97857
585.5425, 27.05408
586.0247, 27.08218
586.5068, 27.06793
586.9889, 27.07716
587.4710, 27.15828
587.9531, 27.26498
588.4352, 27.29169
588.9174, 27.27198
589.3995, 27.44157
589.8816, 27.94822
590.3637, 28.55572
590.8458, 28.84270
591.3279, 28.64374
591.8101, 28.58193
592.2922, 28.77160
592.7743, 28.98273
593.2564, 29.09375
593.7385, 29.13421
594.2206, 29.18283
594.7028, 29.27545
595.1849, 29.37294
595.6670, 29.36069
596.1491, 29.19218
596.6312, 29.27883
597.1133, 29.85900
597.5955, 30.42501
598.0776, 30.68475
598.5597, 30.74450
599.0418, 30.80712
599.5239, 30.94093
600.0060, 31.05626
600.4882, 31.04500
600.9703, 30.96487
601.4524, 30.94511
601.9345, 31.00880
602.4166, 31.16911
602.8987, 31.45687
603.3809, 31.86143
603.8630, 32.20895
604.3451, 32.54613
604.8272, 32.77694
605.3093, 32.82336
605.7914, 32.79185
606.2736, 32.79056
606.7557, 32.82918
607.2378, 32.83791
607.7199, 32.74171
608.2020, 32.57270
608.6841, 32.48909
609.1663, 32.49949
609.6484, 32.57119
610.1305, 32.72628
610.6126, 32.91934
611.0947, 33.12590
611.5768, 33.34243
612.0590, 33.53318
612.5411, 33.68304
613.0232, 33.80173
613.5053, 33.91454
613.9874, 34.01083
614.4695, 34.02474
614.9517, 33.91515
615.4338, 33.77099
615.9159, 33.74312
616.3980, 33.88202
616.8801, 33.96598
617.3622, 33.97636
617.8444, 33.95872
618.3265, 33.87809
618.8086, 33.79911
619.2907, 33.85322
619.7728, 34.08417
620.2549, 34.31508
620.7371, 34.26714
621.2192, 33.95624
621.7013, 33.80907
622.1834, 33.89845
622.6655, 34.03341
623.1476, 34.14849
623.6298, 34.22384
624.1119, 34.19788
624.5940, 34.00224
625.0761, 33.90046
625.5582, 34.19028
626.0403, 34.54393
626.5225, 34.48134
627.0046, 34.01645
627.4867, 33.55601
627.9688, 33.36308
628.4509, 33.35244
628.9330, 33.23400
629.4152, 32.89095
629.8973, 32.65588
630.3794, 32.58215
630.8615, 32.56288
631.3436, 32.56789
631.8257, 32.57581
632.3079, 32.56285
632.7900, 32.53165
633.2721, 32.43536
633.7542, 32.13572
634.2364, 31.66900
634.7185, 31.39434
635.2006, 31.42018
635.6827, 31.53309
636.1649, 31.57754
636.6470, 31.55017
637.1291, 31.46505
637.6112, 31.25953
638.0933, 31.07256
638.5754, 30.96345
639.0576, 30.88947
639.5397, 30.82078
640.0218, 30.74078
640.5039, 30.59904
640.9860, 30.32389
641.4681, 29.98015
641.9503, 29.92844
642.4324, 30.36691
642.9145, 30.59974
643.3966, 30.34892
643.8787, 29.94056
644.3608, 29.50027
644.8430, 29.07233
645.3251, 28.80107
645.8072, 28.84562
646.2893, 28.98166
646.7714, 28.96107
647.2535, 28.83935
647.7357, 28.82073
648.2178, 28.97222
648.6999, 29.13862
649.1820, 29.14900
649.6641, 28.99848
650.1462, 28.79361
650.6284, 28.39149
651.1105, 28.11485
651.5926, 28.10639
652.0747, 28.20751
652.5568, 28.26973
653.0389, 28.26787
653.5211, 28.25518
654.0032, 28.27587
654.4853, 28.31695
654.9674, 28.35518
655.4495, 28.39550
655.9316, 28.37338
656.4138, 28.25316
656.8959, 28.07818
657.3780, 27.86097
657.8601, 27.60091
658.3422, 27.47900
658.8243, 27.70228
659.3065, 27.88176
659.7886, 27.70131
660.2707, 27.36533
660.7528, 27.25645
661.2349, 27.46761
661.7170, 27.71521
662.1992, 27.64334
662.6813, 27.27414
663.1634, 27.15839
663.6455, 27.43856
664.1276, 27.69025
664.6097, 27.78782
665.0919, 27.79029
665.5740, 27.70369
666.0561, 27.53762
666.5382, 27.43317
667.0203, 27.52342
667.5024, 27.65426
667.9846, 27.68459
668.4667, 27.61476
668.9488, 27.43043
669.4309, 27.11762
669.9130, 26.80690
670.3951, 26.68178
670.8773, 26.77215
671.3594, 26.80540
671.8415, 26.66764
672.3236, 26.60844
672.8057, 26.77435
673.2878, 26.99058
673.7700, 27.05622
674.2521, 26.94857
674.7342, 26.82956
675.2163, 26.84933
675.6984, 26.93151
676.1805, 26.90625
676.6627, 26.77723
677.1448, 26.66452
677.6269, 26.61911
678.1090, 26.59126
678.5911, 26.49158
679.0732, 26.28331
679.5554, 26.23620
680.0375, 26.46644
680.5196, 26.71916
681.0017, 26.95750
681.4838, 27.13492
681.9659, 27.17841
682.4481, 27.08324
682.9302, 26.93902
683.4123, 26.79386
683.8944, 26.67386
684.3765, 26.69719
684.8586, 26.88287
685.3408, 27.12126
685.8229, 27.48487
686.3050, 27.76199
686.7871, 27.57397
687.2692, 26.93928
687.7513, 26.52194
688.2335, 26.53904
688.7156, 26.67124
689.1977, 26.83631
689.6798, 26.97168
690.1619, 26.95823
690.6440, 26.78714
691.1262, 26.61462
691.6083, 26.59812
692.0904, 26.71910
692.5725, 26.85592
693.0546, 27.02753
693.5367, 27.15887
694.0189, 27.22901
694.5010, 27.24876
694.9831, 27.19828
695.4652, 27.09295
695.9473, 27.04816
696.4294, 27.14512
696.9116, 27.26602
697.3937, 27.30242
697.8758, 27.31322
698.3579, 27.44500
698.8400, 27.71462
699.3221, 27.94557
699.8043, 27.95571
700.2864, 27.78076
700.7685, 27.69411
701.2506, 27.72641
701.7327, 27.78138
702.2148, 27.81957
702.6970, 27.89286
703.1791, 28.08245
703.6612, 28.34632
704.1433, 28.52591
704.6254, 28.54386
705.1075, 28.48104
705.5897, 28.33794
706.0718, 28.17669
706.5539, 28.14403
707.0360, 28.26192
707.5181, 28.42048
708.0002, 28.52973
708.4824, 28.60643
708.9645, 28.73985
709.4466, 28.98240
709.9287, 29.18293
710.4108, 29.32459
710.8929, 29.42688
711.3751, 29.53563
711.8572, 29.61161
712.3393, 29.52400
712.8214, 29.13501
713.3035, 28.81055
713.7856, 28.91299
714.2678, 29.30042
714.7499, 29.70288
715.2320, 30.07639
715.7141, 30.42602
716.1962, 30.75793
716.6783, 31.05766
717.1605, 31.27679
717.6426, 31.37102
718.1247, 31.46836
718.6068, 31.55422
719.0889, 31.65803
719.5710, 31.82168
720.0532, 32.00447
720.5353, 32.13232
721.0174, 32.17825
721.4995, 32.21024
721.9816, 32.26905
722.4637, 32.35728
722.9459, 32.48959
723.4280, 32.66349
723.9101, 32.83113
724.3922, 32.96117
724.8743, 33.10585
725.3564, 33.38319
725.8386, 33.88838
726.3207, 34.18354
726.8028, 34.07652
727.2849, 33.99049
727.7670, 34.06181
728.2491, 34.22108
728.7313, 34.37683
729.2134, 34.51348
729.6955, 34.67882
730.1776, 34.98186
730.6597, 35.29371
731.1418, 35.34871
731.6240, 35.19872
732.1061, 35.17109
732.5882, 35.38941
733.0704, 35.69212
733.5525, 35.88733
734.0346, 35.97091
734.5167, 36.04736
734.9988, 35.98885
735.4810, 36.09731
735.9631, 36.65128
736.4452, 37.21161
736.9273, 37.37676
737.4094, 37.17780
737.8915, 36.95269
738.3737, 36.83152
738.8558, 36.82028
739.3379, 36.99868
739.8200, 37.29235
740.3021, 37.45978
740.7842, 37.45313
741.2664, 37.40870
741.7485, 37.42279
742.2306, 37.50050
742.7127, 37.67783
743.1948, 38.10066
743.6769, 38.35416
744.1591, 38.23577
744.6412, 38.12980
745.1233, 38.30334
745.6054, 38.62642
746.0875, 38.79880
746.5696, 38.69330
747.0518, 38.56734
747.5339, 38.63013
748.0160, 38.79729
748.4981, 38.94002
748.9802, 39.04624
749.4623, 39.13068
749.9445, 39.20392
750.4266, 39.24538
750.9087, 39.19928
751.3908, 39.01763
751.8729, 38.98252
752.3550, 39.25663
752.8372, 39.46208
753.3193, 39.46117
753.8014, 39.34661
754.2835, 39.20478
754.7656, 39.04752
755.2477, 38.89112
755.7299, 38.70879
756.2120, 38.55877
756.6941, 38.51142
757.1762, 38.53883
757.6583, 38.59715
758.1404, 38.66711
758.6226, 38.67986
759.1047, 38.56211
759.5868, 38.32979
760.0689, 38.07489
760.5510, 37.77252
761.0331, 37.52529
761.5153, 37.49113
761.9974, 37.37276
762.4795, 36.79048
762.9616, 35.94505
763.4437, 35.51187
763.9258, 35.91219
764.4080, 36.23674
764.8901, 35.90124
765.3722, 35.35273
765.8543, 35.11565
766.3364, 35.17591
766.8185, 35.23979
767.3007, 35.14787
767.7828, 34.97461
768.2649, 34.86544
768.7470, 34.82640
769.2291, 34.69151
769.7112, 34.45394
770.1934, 34.10627
770.6755, 33.53267
771.1576, 32.91886
771.6397, 32.61376
772.1218, 32.66432
772.6039, 32.63921
773.0861, 32.43351
773.5682, 32.17509
774.0503, 31.90079
774.5324, 31.63036
775.0145, 31.36676
775.4966, 31.12276
775.9788, 30.96397
776.4609, 31.00426
776.9430, 31.11205
777.4251, 30.91749
777.9072, 30.43012
778.3893, 30.04930
778.8715, 29.87789
779.3536, 29.78588
779.8357, 29.67092
780.3178, 29.53701
780.7999, 29.41370
781.2820, 29.27737
781.7642, 29.18473
782.2463, 29.19320
782.7284, 29.19394
783.2105, 29.11487
783.6926, 28.97579
784.1747, 28.82367
784.6569, 28.67158
785.1390, 28.52648
785.6211, 28.38074
786.1032, 28.25085
786.5853, 28.17981
787.0674, 28.16245
787.5496, 28.14976
788.0317, 28.12268
788.5138, 28.07789
788.9959, 28.01002
789.4780, 27.91841
789.9601, 27.81050
790.4423, 27.64261
790.9244, 27.53012
791.4065, 27.59352
791.8886, 27.64806
792.3707, 27.51723
792.8528, 27.22786
793.3350, 26.96753
793.8171, 26.74338
794.2992, 26.63320
794.7813, 26.74946
795.2634, 26.97497
795.7455, 27.18336
796.2277, 27.33882
796.7098, 27.39060
797.1919, 27.29915
797.6740, 27.15171
798.1561, 27.16006
798.6382, 27.33702
799.1204, 27.27999
799.6025, 26.85982
800.0846, 26.51558
800.5667, 26.50280
801.0488, 26.66601
801.5309, 26.74397
802.0131, 26.74234
802.4952, 26.65302
802.9773, 26.30807
803.4594, 26.06702
803.9415, 26.17472
804.4236, 26.41901
804.9058, 26.54585
805.3879, 26.52305
805.8700, 26.48473
806.3521, 26.55831
806.8342, 26.61231
807.3163, 26.36914
807.7985, 25.91789
808.2806, 25.64143
808.7627, 25.61052
809.2448, 25.69331
809.7269, 25.83329
810.2090, 25.95931
810.6912, 25.81856
811.1733, 25.15597
811.6554, 24.83485
812.1375, 25.11272
812.6196, 25.44509
813.1017, 25.71348
813.5839, 25.87470
814.0660, 25.84316
814.5481, 25.60253
815.0302, 25.35688
815.5123, 25.12612
815.9944, 24.98690
816.4766, 25.11567
816.9587, 25.34261
817.4408, 25.28605
817.9229, 24.91350
818.4050, 24.63734
818.8871, 24.84431
819.3693, 25.30930
819.8514, 25.34799
820.3335, 24.93096
820.8156, 24.85146
821.2977, 25.35240
821.7798, 25.83219
822.2620, 25.89566
822.7441, 25.64180
823.2262, 25.33997
823.7083, 24.87470
824.1904, 24.62883
824.6725, 24.79037
825.1547, 24.97540
825.6368, 25.03913
826.1189, 25.00747
826.6010, 24.92752
827.0831, 24.80832
827.5652, 24.63366
828.0474, 24.31324
828.5295, 23.99412
829.0116, 23.85901
829.4937, 23.86709
829.9758, 23.92599
830.4579, 24.01207
830.9401, 24.11361
831.4222, 24.22332
831.9044, 24.33821
832.3865, 24.45857
832.8686, 24.59608
833.3507, 24.68714
833.8328, 24.77882
834.3149, 24.71896
834.7971, 24.24301
835.2792, 23.64954
835.7613, 23.53008
836.2434, 24.00294
836.7255, 24.28235
837.2076, 24.01537
837.6898, 23.78571
838.1719, 23.91709
838.6540, 24.22127
839.1361, 24.49533
839.6182, 24.68737
840.1003, 24.79403
840.5825, 24.79097
841.0646, 24.74057
841.5467, 24.72563
842.0288, 24.73464
842.5109, 24.72544
842.9930, 24.69378
843.4752, 24.67550
843.9573, 24.69242
844.4394, 24.73595
844.9215, 24.78481
845.4036, 24.83238
845.8857, 24.92854
846.3679, 25.14042
846.8500, 25.28074
847.3321, 25.18407
847.8142, 25.05121
848.2963, 25.15376
848.7784, 25.47367
849.2606, 25.60947
849.7427, 25.24145
850.2248, 24.98040
850.7069, 25.19149
851.1890, 25.53487
851.6711, 25.66977
852.1533, 25.60857
852.6354, 25.53472
853.1175, 25.53603
853.5996, 25.55808
854.0817, 25.47831
854.5638, 25.38350
855.0460, 25.57029
855.5281, 26.01895
856.0102, 26.35894
856.4923, 26.43732
856.9744, 26.40136
857.4565, 26.43617
857.9387, 26.53830
858.4208, 26.61794
858.9029, 26.71391
859.3850, 26.68381
859.8671, 26.33761
860.3492, 26.03608
860.8314, 26.07711
861.3135, 26.36504
861.7956, 26.66225
862.2777, 27.01398
862.7598, 27.21569
863.2419, 27.07515
863.7241, 26.90406
864.2062, 26.88367
864.6883, 26.99315
865.1704, 27.22696
865.6525, 27.55779
866.1346, 27.78306
866.6168, 27.66644
867.0989, 27.41250
867.5810, 27.32712
868.0631, 27.38159
868.5452, 27.49927
869.0273, 27.66034
869.5095, 27.81117
869.9916, 27.91132
870.4737, 27.97909
870.9558, 28.08411
871.4379, 28.26184
871.9200, 28.25643
872.4022, 27.96906
872.8843, 27.69453
873.3664, 27.52554
873.8485, 27.46550
874.3306, 27.57588
874.8127, 27.86721
875.2949, 28.02251
875.7770, 27.85547
876.2591, 27.76484
876.7412, 28.01100
877.2233, 28.26298
877.7054, 28.13709
878.1876, 27.76218
878.6697, 27.60019
879.1518, 27.88955
879.6339, 28.16695
880.1160, 27.96957
880.5981, 27.59519
881.0803, 27.43180
881.5624, 27.47486
882.0445, 27.64004
882.5266, 27.88680
883.0087, 28.10365
883.4908, 28.16129
883.9730, 28.10379
884.4551, 28.13232
884.9372, 28.25923
885.4193, 28.22845
885.9014, 27.94858
886.3835, 27.67117
886.8657, 27.59439
887.3478, 27.62686
887.8299, 27.50118
888.3120, 27.08847
888.7941, 26.86486
889.2762, 27.06082
889.7584, 27.16323
890.2405, 26.86983
890.7226, 26.51160
891.2047, 26.46472
891.6868, 26.71697
892.1689, 26.92588
892.6511, 27.00269
893.1332, 26.98498
893.6153, 26.82761
894.0974, 26.63202
894.5795, 26.49020
895.0616, 26.41088
895.5438, 26.40397
896.0259, 26.47301
896.5080, 26.50350
896.9901, 26.31639
897.4722, 26.01996
897.9543, 25.86622
898.4365, 25.84327
898.9186, 25.88623
899.4007, 25.97798
899.8828, 26.00160
900.3649, 25.83710
900.8470, 25.55257
901.3292, 25.41500
901.8113, 25.47801
902.2934, 25.40188
902.7755, 25.06531
903.2576, 24.80404
903.7397, 24.80552
904.2219, 24.96634
904.7040, 25.16982
905.1861, 25.44939
905.6682, 25.49932
906.1503, 25.08707
906.6324, 24.74564
907.1146, 24.63525
907.5967, 24.61744
908.0788, 24.60921
908.5609, 24.59185
909.0430, 24.54176
909.5251, 24.43730
910.0073, 24.35730
910.4894, 24.40257
910.9715, 24.44783
911.4536, 24.32649
911.9357, 24.11676
912.4178, 24.01707
912.9000, 24.05869
913.3821, 24.05554
913.8642, 23.81135
914.3463, 23.50389
914.8284, 23.53353
915.3105, 23.80729
915.7927, 23.89198
916.2748, 23.73207
916.7569, 23.48705
917.2390, 23.22801
917.7211, 23.01349
918.2032, 22.94642
918.6854, 23.03217
919.1675, 23.14853
919.6496, 23.32871
920.1317, 23.44188
920.6138, 23.48653
921.0959, 23.40248
921.5781, 23.06417
922.0602, 22.54523
922.5423, 22.20855
923.0244, 22.09738
923.5065, 22.07520
923.9886, 22.25637
924.4708, 22.38995
924.9529, 22.34634
925.4350, 22.20341
925.9171, 22.00725
926.3992, 21.78743
926.8813, 21.71931
927.3635, 22.10131
927.8456, 22.37911
928.3277, 22.09266
928.8098, 21.63707
929.2919, 21.45198
929.7740, 21.50469
930.2562, 21.56808
930.7383, 21.54983
931.2205, 21.47986
931.7026, 21.33569
932.1847, 21.18698
932.6668, 21.22011
933.1489, 21.36966
933.6310, 21.34888
934.1132, 21.10873
934.5953, 20.91613
935.0774, 20.98314
935.5595, 21.17817
936.0416, 21.16113
936.5237, 20.92898
937.0059, 20.88780
937.4880, 21.09939
937.9701, 21.23917
938.4522, 21.15853
938.9343, 21.00423
939.4164, 20.96261
939.8986, 21.02072
940.3807, 20.93899
940.8628, 20.59197
941.3449, 20.35352
941.8270, 20.29514
942.3091, 20.30922
942.7913, 20.39653
943.2734, 20.49460
943.7555, 20.48873
944.2376, 20.35732
944.7197, 20.26084
945.2018, 20.29703
945.6840, 20.28242
946.1661, 20.05232
946.6482, 19.81830
947.1303, 19.80243
947.6124, 19.95509
948.0945, 20.08463
948.5767, 20.13205
949.0588, 20.12266
949.5409, 20.02046
950.0230, 19.91430
950.5051, 19.94196
950.9872, 20.01484
951.4694, 19.92272
951.9515, 19.65658
952.4336, 19.42931
952.9157, 19.37573
953.3978, 19.46647
953.8799, 19.76533
954.3621, 20.15209
954.8442, 20.28424
955.3263, 20.16071
955.8084, 19.96976
956.2905, 19.78614
956.7726, 19.59406
957.2548, 19.35900
957.7369, 19.11214
958.2190, 19.00337
958.7011, 19.04016
959.1832, 19.04985
959.6653, 18.99587
960.1475, 18.98076
960.6296, 19.09135
961.1117, 19.21978
961.5938, 19.13972
962.0759, 18.80639
962.5580, 18.71463
963.0402, 19.02443
963.5223, 19.23832
964.0044, 19.21171
964.4865, 19.10474
964.9686, 19.03194
965.4507, 18.97421
965.9329, 18.86185
966.4150, 18.63884
966.8971, 18.51342
967.3792, 18.56068
967.8613, 18.63325
968.3434, 18.68945
968.8256, 18.73654
969.3077, 18.81061
969.7898, 18.88993
970.2719, 18.87058
970.7540, 18.67295
971.2361, 18.48640
971.7183, 18.39365
972.2004, 18.33724
972.6825, 18.26211
973.1646, 18.19715
973.6467, 18.21757
974.1288, 18.32025
974.6110, 18.38655
975.0931, 18.36657
975.5752, 18.25047
976.0573, 17.87821
976.5394, 17.49155
977.0215, 17.53010
977.5037, 17.89361
977.9858, 18.18329
978.4679, 18.24997
978.9500, 18.16365
979.4321, 17.92326
979.9142, 17.64393
980.3964, 17.58118
980.8785, 17.68175
981.3606, 17.76941
981.8427, 17.81411
982.3248, 17.81657
982.8069, 17.77607
983.2891, 17.71006
983.7712, 17.62543
984.2533, 17.53598
984.7354, 17.56087
985.2175, 17.70443
985.6996, 17.80477
986.1818, 17.82295
986.6639, 17.83374
987.1460, 17.90669
987.6281, 17.96856
988.1102, 17.82971
988.5923, 17.44598
989.0745, 17.18400
989.5566, 17.05383
990.0387, 17.02023
990.5208, 17.10661
991.0029, 17.23151
991.4850, 17.33781
991.9672, 17.42089
992.4493, 17.45944
992.9314, 17.41548
993.4135, 17.41878
993.8956, 17.52359
994.3777, 17.60250
994.8599, 17.61340
995.3420, 17.58314
995.8241, 17.47858
996.3062, 17.33782
996.7883, 17.37612
997.2704, 17.75689
997.7526, 18.05468
998.2347, 18.24821
998.7168, 18.30680
999.1989, 18.07013
999.6810, 17.78070
1000.163, 17.78041
1000.645, 18.05480
1001.127, 18.22981
1001.609, 18.13485
1002.092, 18.01814
1002.574, 17.95234
1003.056, 17.92817
1003.538, 17.95930
1004.020, 18.01874
1004.502, 18.06446
1004.984, 18.08949
1005.466, 18.11801
1005.949, 18.15297
1006.431, 18.20951
1006.913, 18.34031
1007.395, 18.46822
1007.877, 18.49840
1008.359, 18.44647
1008.841, 18.33006
1009.323, 18.17235
1009.805, 18.13102
1010.288, 18.41466
1010.770, 18.77523
1011.252, 18.90302
1011.734, 18.89402
1012.216, 18.92023
1012.698, 18.98522
1013.180, 18.99496
1013.662, 18.91538
1014.145, 18.86050
1014.627, 18.97846
1015.109, 19.17242
1015.591, 19.23944
1016.073, 19.21570
1016.555, 19.22206
1017.037, 19.26949
1017.519, 19.28930
1018.001, 19.24592
1018.484, 19.21203
1018.966, 19.31342
1019.448, 19.48820
1019.930, 19.49589
1020.412, 19.35323
1020.894, 19.16718
1021.376, 18.96076
1021.858, 18.97325
1022.341, 19.36838
1022.823, 19.87635
1023.305, 20.04729
1023.787, 19.92508
1024.269, 19.97198
1024.751, 20.20174
1025.233, 20.31754
1025.715, 20.24398
1026.198, 20.18120
1026.680, 20.26346
1027.162, 20.41134
1027.644, 20.47454
1028.126, 20.45132
1028.608, 20.40099
1029.090, 20.28241
1029.572, 20.35398
1030.054, 20.72657
1030.536, 21.14050
1031.019, 21.43920
1031.501, 21.63465
1031.983, 21.75002
1032.465, 21.77676
1032.947, 21.77391
1033.429, 21.69719
1033.911, 21.71408
1034.393, 21.91137
1034.876, 22.12170
1035.358, 22.22784
1035.840, 22.26072
1036.322, 22.28572
1036.804, 22.28790
1037.286, 22.34973
1037.768, 22.41824
1038.250, 22.65406
1038.733, 23.31500
1039.215, 23.88063
1039.697, 23.87432
1040.179, 23.52602
1040.661, 23.41688
1041.143, 23.60000
1041.625, 23.82354
1042.107, 24.24904
1042.589, 24.49213
1043.072, 24.27788
1043.554, 24.04877
1044.036, 24.18533
1044.518, 24.52483
1045.000, 24.63286
1045.482, 24.38030
1045.964, 24.36406
1046.446, 24.85041
1046.928, 25.27139
1047.411, 25.42093
1047.893, 25.51343
1048.375, 25.72209
1048.857, 25.99551
1049.339, 26.19201
1049.821, 26.28156
1050.303, 26.38378
1050.785, 26.54703
1051.268, 26.68551
1051.750, 26.70261
1052.232, 26.74714
1052.714, 26.98009
1053.196, 27.32045
1053.678, 27.56741
1054.160, 27.67366
1054.642, 27.81174
1055.125, 28.07470
1055.607, 28.30646
1056.089, 28.42682
1056.571, 28.51249
1057.053, 28.57784
1057.535, 28.67251
1058.017, 28.92818
1058.499, 29.39327
1058.981, 29.72501
1059.464, 29.65216
1059.946, 29.64191
1060.428, 29.94033
1060.910, 30.33017
1061.392, 30.63964
1061.874, 30.89096
1062.356, 31.17781
1062.838, 31.52189
1063.320, 31.80793
1063.803, 31.90565
1064.285, 32.05236
1064.767, 32.39931
1065.249, 32.79694
1065.731, 33.11840
1066.213, 33.38933
1066.695, 33.69647
1067.177, 34.05444
1067.660, 34.34568
1068.142, 34.38751
1068.624, 34.52790
1069.106, 35.00128
1069.588, 35.57161
1070.070, 36.07095
1070.552, 36.50786
1071.034, 36.92611
1071.516, 37.33570
1071.999, 37.76534
1072.481, 38.21195
1072.963, 38.70054
1073.445, 39.37265
1073.927, 39.97080
1074.409, 40.12151
1074.891, 40.12411
1075.373, 40.53261
1075.855, 41.39304
1076.338, 42.18540
1076.820, 42.68873
1077.302, 43.10957
1077.784, 43.42754
1078.266, 43.81847
1078.748, 44.44851
1079.230, 45.23002
1079.713, 46.04480
1080.195, 46.86047
1080.677, 47.62562
1081.159, 48.26012
1081.641, 48.96460
1082.123, 49.90208
1082.605, 50.86393
1083.087, 51.68681
1083.569, 52.44024
1084.052, 53.23960
1084.534, 54.08319
1085.016, 54.86271
1085.498, 55.47948
1085.980, 56.21264
1086.462, 57.37234
1086.944, 58.48551
1087.426, 59.18904
1087.908, 59.71226
1088.391, 60.32990
1088.873, 61.04120
1089.355, 61.66270
1089.837, 62.06908
1090.319, 62.71717
1090.801, 64.12241
1091.283, 65.42905
1091.765, 66.01760
1092.248, 66.38392
1092.730, 67.00970
1093.212, 67.87737
1093.694, 68.83768
1094.176, 69.88224
1094.658, 70.77608
1095.140, 71.28543
1095.622, 71.81089
1096.104, 72.57084
1096.587, 73.39315
1097.069, 74.05950
1097.551, 74.69038
1098.033, 75.61417
1098.515, 76.90225
1098.997, 78.00429
1099.479, 78.73486
1099.961, 79.29147
1100.443, 79.52003
1100.926, 79.82594
1101.408, 80.54407
1101.890, 81.50436
1102.372, 82.47060
1102.854, 83.40081
1103.336, 84.16591
1103.818, 84.52140
1104.300, 85.01965
1104.783, 86.04899
1105.265, 86.94719
1105.747, 87.19804
1106.229, 87.21954
1106.711, 87.56591
1107.193, 88.21684
1107.675, 88.74388
1108.157, 88.89937
1108.640, 89.30811
1109.122, 90.33274
1109.604, 91.26950
1110.086, 91.84822
1110.568, 92.21370
1111.050, 92.44532
1111.532, 92.58437
1112.014, 92.76457
1112.496, 92.98522
1112.979, 93.26704
1113.461, 93.84666
1113.943, 94.16413
1114.425, 93.87217
1114.907, 93.49194
1115.389, 93.38061
1115.871, 93.44920
1116.353, 93.51823
1116.835, 93.60810
1117.318, 93.57374
1117.800, 93.31238
1118.282, 93.11476
1118.764, 93.00843
1119.246, 93.00853
1119.728, 93.24243
1120.210, 93.47240
1120.692, 93.30091
1121.175, 92.73726
1121.657, 92.27702
1122.139, 91.88448
1122.621, 91.70300
1123.103, 91.82551
1123.585, 91.98196
1124.067, 92.13689
1124.549, 92.11604
1125.031, 91.66785
1125.514, 90.90731
1125.996, 90.40169
1126.478, 90.22366
1126.960, 89.89613
1127.442, 89.38088
1127.924, 88.79508
1128.406, 88.11337
1128.888, 87.65051
1129.370, 87.73751
1129.853, 88.02419
1130.335, 87.64013
1130.817, 86.58611
1131.299, 85.77271
1131.781, 85.20908
1132.263, 84.53188
1132.745, 83.64816
1133.227, 82.98897
1133.710, 82.82971
1134.192, 82.81375
1134.674, 82.38386
1135.156, 81.69353
1135.638, 81.52058
1136.120, 81.74179
1136.602, 81.29344
1137.084, 80.11829
1137.567, 78.96535
1138.049, 78.13438
1138.531, 77.56792
1139.013, 77.27453
1139.495, 77.05264
1139.977, 76.45763
1140.459, 75.62663
1140.941, 74.92656
1141.423, 74.35783
1141.906, 73.84052
1142.388, 73.34225
1142.870, 72.80976
1143.352, 72.20090
1143.834, 71.56931
1144.316, 70.91628
1144.798, 70.32511
1145.280, 70.07746
1145.762, 69.92027
1146.245, 69.24402
1146.727, 68.13864
1147.209, 67.21355
1147.691, 66.70161
1148.173, 66.33186
1148.655, 66.05980
1149.137, 65.65650
1149.619, 64.72991
1150.102, 63.71868
1150.584, 63.21000
1151.066, 63.00273
1151.548, 62.60357
1152.030, 61.92814
1152.512, 61.22866
1152.994, 60.51999
1153.476, 60.00915
1153.958, 60.05365
1154.441, 60.05053
1154.923, 59.44498
1155.405, 58.66333
1155.887, 58.33150
1156.369, 58.32055
1156.851, 57.95137
1157.333, 56.99328
1157.815, 56.07367
1158.297, 55.16808
1158.780, 54.54095
1159.262, 54.46746
1159.744, 54.51191
1160.226, 54.47499
1160.708, 54.29482
1161.190, 53.82420
1161.672, 53.04162
1162.154, 52.34829
1162.637, 51.62980
1163.119, 51.23824
1163.601, 51.48922
1164.083, 51.54926
1164.565, 50.96322
1165.047, 50.20890
1165.529, 49.78676
1166.011, 49.61489
1166.494, 49.36010
1166.976, 48.99652
1167.458, 48.68796
1167.940, 48.46053
1168.422, 48.12754
1168.904, 47.60769
1169.386, 47.17468
1169.868, 47.02338
1170.350, 47.02956
1170.833, 47.04165
1171.315, 47.01382
1171.797, 46.59190
1172.279, 45.82319
1172.761, 45.19030
1173.243, 44.76067
1173.725, 44.67443
1174.207, 44.97190
1174.689, 45.22906
1175.172, 45.04888
1175.654, 44.63717
1176.136, 44.34129
1176.618, 44.08665
1177.100, 43.63062
1177.582, 43.08325
1178.064, 42.80428
1178.547, 42.80835
1179.029, 42.80165
1179.511, 42.64336
1179.993, 42.38231
1180.475, 41.88814
1180.957, 41.48841
1181.439, 41.68345
1181.921, 42.02760
1182.403, 41.95057
1182.885, 41.55190
1183.368, 41.13769
1183.850, 40.78499
1184.332, 40.46686
1184.814, 40.15285
1185.296, 39.90705
1185.778, 39.76648
1186.260, 39.69067
1186.742, 39.71284
1187.225, 39.74282
1187.707, 39.66684
1188.189, 39.51505
1188.671, 39.42654
1189.153, 39.45974
1189.635, 39.37834
1190.117, 39.01513
1190.599, 38.76967
1191.082, 38.78074
1191.564, 38.80510
1192.046, 38.67482
1192.528, 38.53663
1193.010, 38.63698
1193.492, 38.92108
1193.974, 38.89620
1194.456, 38.47997
1194.938, 38.18030
1195.421, 38.01846
1195.903, 38.02864
1196.385, 38.25723
1196.867, 38.38827
1197.349, 38.16618
1197.831, 37.79042
1198.313, 37.63482
1198.795, 37.64426
1199.277, 37.48442
1199.760, 37.23368
1200.242, 37.45399
1200.724, 38.08789
1201.206, 38.28313
1201.688, 37.75222
1202.170, 37.16329
1202.652, 37.08109
1203.134, 37.17339
1203.617, 37.04538
1204.099, 36.80790
1204.581, 36.57747
1205.063, 36.38063
1205.545, 36.25232
1206.027, 36.18647
1206.509, 36.16355
1206.991, 36.18721
1207.474, 36.11788
1207.956, 35.74139
1208.438, 35.43739
1208.920, 35.46714
1209.402, 35.58183
1209.884, 35.58598
1210.366, 35.54060
1210.848, 35.57063
1211.330, 35.67293
1211.813, 35.71954
1212.295, 35.67027
1212.777, 35.61920
1213.259, 35.57713
1213.741, 35.52004
1214.223, 35.43600
1214.705, 35.33892
1215.187, 35.20606
1215.669, 35.10873
1216.152, 35.19111
1216.634, 35.44149
1217.116, 35.69571
1217.598, 35.97155
1218.080, 35.98568
1218.562, 35.33154
1219.044, 35.67562
1219.526, 35.82221
1220.009, 35.78220
1220.491, 34.97181
1220.973, 35.17636
1221.455, 34.98633
1221.937, 34.78841
1222.419, 35.16062
1222.901, 34.50690
1223.383, 34.88754
1223.865, 34.86742
1224.348, 35.04330
1224.830, 34.82215
1225.312, 34.73499
1225.794, 35.06241
1226.276, 35.17375
1226.758, 34.94056
1227.240, 35.18044
1227.722, 34.59926
1228.204, 34.75484
1228.687, 35.23335
1229.169, 35.06392
1229.651, 35.35458
1230.133, 35.48199
1230.615, 34.83675
1231.097, 35.55897
1231.579, 35.70221
1232.061, 35.25077
1232.544, 35.95266
1233.026, 35.60177
1233.508, 35.63835
1233.990, 35.96864
1234.472, 36.01045
1234.954, 36.19964
1235.436, 36.25118
1235.918, 36.17811
1236.401, 35.94484
1236.883, 36.04456
1237.365, 36.59922
1237.847, 36.93587
1238.329, 36.68425
1238.811, 36.33275
1239.293, 36.45559
1239.775, 36.84117
1240.257, 37.13466
1240.740, 37.30823
1241.222, 37.17664
1241.704, 36.89996
1242.186, 37.02368
1242.668, 37.50234
1243.150, 37.59932
1243.632, 36.95594
1244.114, 36.44308
1244.596, 36.81553
1245.079, 37.28010
1245.561, 37.24401
1246.043, 37.17470
1246.525, 37.64066
1247.007, 38.24210
1247.489, 38.29447
1247.971, 37.83626
1248.453, 37.51024
1248.936, 37.32457
1249.418, 37.43922
1249.900, 38.17778
1250.382, 38.56267
1250.864, 38.21983
1251.346, 37.87431
1251.828, 37.93625
1252.310, 38.19431
1252.792, 38.37129
1253.275, 38.50356
1253.757, 38.81554
1254.239, 39.26786
1254.721, 39.26244
1255.203, 38.84843
1255.685, 38.64829
1256.167, 38.79170
1256.649, 39.07088
1257.131, 39.37949
1257.614, 39.75838
1258.096, 40.43192
1258.578, 40.96979
1259.060, 40.63085
1259.542, 40.06378
1260.024, 40.11247
1260.506, 40.51379
1260.988, 40.69482
1261.471, 40.65096
1261.953, 40.80558
1262.435, 41.35993
1262.917, 41.68223
1263.399, 41.35734
1263.881, 41.15291
1264.363, 41.27077
1264.845, 41.57343
1265.328, 42.12610
1265.810, 42.67350
1266.292, 42.91853
1266.774, 42.92112
1267.256, 42.89762
1267.738, 42.83474
1268.220, 42.89419
1268.702, 43.07850
1269.184, 43.31723
1269.667, 43.59339
1270.149, 43.77354
1270.631, 43.79899
1271.113, 43.87293
1271.595, 44.22180
1272.077, 44.64647
1272.559, 44.82895
1273.041, 44.91058
1273.523, 45.14643
1274.006, 45.41741
1274.488, 45.40135
1274.970, 45.21489
1275.452, 45.32591
1275.934, 45.86031
1276.416, 46.40303
1276.898, 46.84757
1277.380, 47.20528
1277.863, 47.39341
1278.345, 47.59985
1278.827, 48.01274
1279.309, 48.37500
1279.791, 48.42009
1280.273, 48.30759
1280.755, 48.40489
1281.237, 48.70823
1281.719, 48.83815
1282.202, 48.75891
1282.684, 49.06987
1283.166, 49.82709
1283.648, 50.56919
1284.130, 51.14593
1284.612, 51.59819
##END=



