##NAMES=Schorl
##RRUFFID=R050304
##IDEAL CHEMISTRY=NaFe^2+^_3_Al_6_(Si_6_O_18_)(BO_3_)_3_(OH)_3_OH
##LOCALITY=Erongo Mountains, Namibia
##OWNER=RRUFF
##SOURCE=Eugene Schlepp
##DESCRIPTION=Black prismatic crystal associated with quartz and orthoclase
##STATUS=The identification of this mineral has been confirmed by X-ray diffraction and chemical analysis
##URL=rruff.info/R050304
##MEASURED CHEMISTRY=(Na_0.86_[box]_0.14_)_Σ=1_(Fe^2+^_2.68_Mg_0.22_Al_0.06_Ti_0.04_)_Σ=3_Al_6.00_(BO_3_)_3_Si_6.00_O_18_(OH)_4_
92.52344, 143.9468
93.00555, 143.1207
93.48767, 143.2968
93.96979, 147.3344
94.45190, 151.6463
94.93402, 155.6616
95.41614, 157.4357
95.89825, 157.7704
96.38037, 157.9762
96.86249, 158.0347
97.34460, 158.0024
97.82672, 158.0863
98.30884, 158.1726
98.79095, 158.4444
99.27307, 158.5346
99.75519, 157.9781
100.2373, 156.9206
100.7194, 155.6204
101.2015, 154.7396
101.6837, 154.4370
102.1658, 154.3001
102.6479, 153.9251
103.1300, 153.2505
103.6121, 152.7974
104.0942, 153.2321
104.5764, 154.1212
105.0585, 154.8192
105.5406, 154.9472
106.0227, 154.6968
106.5048, 154.6756
106.9869, 155.0412
107.4691, 155.3215
107.9512, 155.2186
108.4333, 154.8438
108.9154, 154.4826
109.3975, 154.3725
109.8796, 154.5398
110.3618, 154.7489
110.8439, 155.0448
111.3260, 155.3357
111.8081, 155.5507
112.2902, 155.6958
112.7723, 155.8519
113.2544, 156.1447
113.7366, 156.7326
114.2187, 157.1583
114.7008, 157.3279
115.1829, 157.3969
115.6650, 157.5085
116.1471, 157.7148
116.6293, 157.9580
117.1114, 158.1088
117.5935, 158.2207
118.0756, 158.1702
118.5577, 157.6775
119.0398, 156.9742
119.5220, 156.6528
120.0041, 157.1030
120.4862, 158.0148
120.9683, 158.6294
121.4504, 158.8289
121.9325, 158.9354
122.4147, 159.2567
122.8968, 159.8219
123.3789, 160.2378
123.8610, 160.1776
124.3431, 159.8981
124.8252, 159.5974
125.3074, 159.2969
125.7895, 159.0545
126.2716, 159.0073
126.7537, 159.2478
127.2358, 159.5344
127.7179, 159.8713
128.2001, 160.1821
128.6822, 160.3773
129.1643, 160.4060
129.6464, 160.2691
130.1285, 159.9716
130.6107, 159.1883
131.0928, 158.5475
131.5749, 158.2150
132.0570, 158.1558
132.5391, 158.2731
133.0212, 158.5109
133.5034, 158.9199
133.9855, 159.0761
134.4676, 158.7654
134.9497, 158.4308
135.4318, 158.3717
135.9139, 158.5949
136.3960, 158.8377
136.8782, 158.7707
137.3603, 158.3028
137.8424, 158.0196
138.3245, 158.1448
138.8066, 158.3980
139.2887, 158.4466
139.7709, 158.2040
140.2530, 157.8108
140.7351, 157.4029
141.2172, 156.9831
141.6993, 156.5865
142.1814, 156.2085
142.6636, 155.8631
143.1457, 155.6188
143.6278, 155.5916
144.1099, 155.5552
144.5920, 155.3078
145.0741, 154.8508
145.5563, 154.3415
146.0384, 153.9175
146.5205, 153.5918
147.0026, 153.2522
147.4847, 152.9617
147.9668, 152.5957
148.4490, 151.9879
148.9311, 151.1314
149.4132, 150.2715
149.8953, 149.8264
150.3774, 150.0983
150.8595, 150.1694
151.3417, 149.8661
151.8238, 149.4291
152.3059, 149.0383
152.7880, 148.7649
153.2701, 148.5649
153.7522, 148.3334
154.2344, 148.1567
154.7165, 147.8325
155.1986, 147.1873
155.6807, 146.4333
156.1628, 145.8392
156.6449, 145.5453
157.1271, 145.4884
157.6092, 145.4230
158.0913, 145.3000
158.5734, 145.2233
159.0555, 145.3966
159.5376, 145.6679
160.0198, 145.5997
160.5019, 144.8569
160.9840, 143.6288
161.4661, 142.6891
161.9482, 142.0535
162.4303, 141.6615
162.9125, 141.6257
163.3946, 141.9267
163.8767, 142.0833
164.3588, 141.6906
164.8409, 140.9961
165.3230, 140.4256
165.8052, 140.1235
166.2873, 139.9065
166.7694, 139.5458
167.2515, 139.0175
167.7336, 138.4183
168.2157, 137.5818
168.6979, 136.7583
169.1800, 136.2905
169.6621, 136.4273
170.1442, 136.9393
170.6263, 137.1965
171.1084, 137.1664
171.5906, 136.8885
172.0727, 136.2400
172.5548, 135.4211
173.0369, 134.6991
173.5190, 134.2358
174.0011, 134.0114
174.4833, 133.8627
174.9654, 133.8329
175.4475, 133.8454
175.9296, 134.0462
176.4117, 134.2748
176.8938, 134.2292
177.3760, 133.6418
177.8581, 132.4903
178.3402, 131.6738
178.8223, 131.3971
179.3044, 131.2115
179.7865, 131.0244
180.2687, 130.8059
180.7508, 130.5170
181.2329, 130.1030
181.7150, 129.5415
182.1971, 129.1982
182.6792, 129.1662
183.1614, 129.2384
183.6435, 129.4039
184.1256, 129.6202
184.6077, 129.6633
185.0898, 129.2538
185.5719, 128.3607
186.0541, 127.7721
186.5362, 127.7479
187.0183, 127.8939
187.5004, 127.8173
187.9825, 127.4647
188.4646, 127.1173
188.9468, 127.1211
189.4289, 127.3754
189.9110, 127.4587
190.3931, 127.1543
190.8752, 126.6604
191.3573, 126.3118
191.8395, 126.2001
192.3216, 126.0380
192.8037, 125.4836
193.2858, 124.7020
193.7679, 124.0744
194.2500, 123.8452
194.7322, 123.9105
195.2143, 123.9400
195.6964, 123.9342
196.1785, 123.8770
196.6606, 123.7699
197.1427, 123.6154
197.6249, 123.4150
198.1070, 123.1152
198.5891, 122.7405
199.0712, 122.5570
199.5533, 122.7905
200.0354, 122.9718
200.5176, 122.9088
200.9997, 122.6532
201.4818, 122.3336
201.9639, 122.0372
202.4460, 121.7628
202.9281, 121.5361
203.4103, 121.2418
203.8924, 121.1126
204.3745, 121.3722
204.8566, 121.8863
205.3387, 122.3233
205.8208, 122.3750
206.3030, 121.9877
206.7851, 121.7177
207.2672, 121.7630
207.7493, 121.7305
208.2314, 121.3901
208.7135, 120.8078
209.1957, 120.2283
209.6778, 119.8753
210.1599, 119.7815
210.6420, 119.6866
211.1241, 119.6202
211.6062, 119.5277
212.0884, 119.3307
212.5705, 119.0577
213.0526, 118.8515
213.5347, 118.8706
214.0168, 119.1544
214.4989, 119.2050
214.9811, 118.7999
215.4632, 118.3553
215.9453, 118.1371
216.4274, 118.1599
216.9095, 118.3049
217.3916, 118.5372
217.8737, 118.8401
218.3559, 118.8737
218.8380, 118.4330
219.3201, 117.8508
219.8022, 117.4079
220.2843, 117.1255
220.7664, 116.8685
221.2486, 116.4777
221.7307, 116.0135
222.2128, 115.7438
222.6949, 115.8548
223.1770, 116.1015
223.6591, 116.2902
224.1413, 116.4442
224.6234, 116.3353
225.1055, 115.4771
225.5876, 114.2516
226.0697, 113.3688
226.5518, 113.1190
227.0340, 113.2596
227.5161, 113.5022
227.9982, 113.8973
228.4803, 114.2149
228.9624, 114.3189
229.4445, 114.2661
229.9267, 114.0906
230.4088, 113.7360
230.8909, 113.3222
231.3730, 113.1069
231.8551, 113.1798
232.3372, 113.2274
232.8194, 113.1004
233.3015, 112.8836
233.7836, 112.6750
234.2657, 112.5256
234.7478, 112.3914
235.2299, 112.1540
235.7121, 111.7244
236.1942, 111.3731
236.6763, 111.2554
237.1584, 111.2143
237.6405, 111.0541
238.1227, 110.6689
238.6048, 110.1966
239.0869, 110.0286
239.5690, 110.4706
240.0511, 110.6726
240.5332, 110.3247
241.0154, 109.7646
241.4975, 109.3187
241.9796, 109.1264
242.4617, 109.1095
242.9438, 109.0975
243.4259, 109.2292
243.9081, 109.1212
244.3902, 108.5422
244.8723, 107.8237
245.3544, 107.2710
245.8365, 107.0013
246.3186, 106.9318
246.8008, 106.8819
247.2829, 106.9514
247.7650, 106.8821
248.2471, 106.5779
248.7292, 106.1841
249.2113, 105.8030
249.6935, 105.4762
250.1756, 105.2266
250.6577, 105.1097
251.1398, 105.3694
251.6219, 105.3974
252.1040, 104.9040
252.5862, 104.3428
253.0683, 104.2089
253.5504, 104.6209
254.0325, 105.1969
254.5146, 105.3055
254.9967, 104.6193
255.4789, 104.0235
255.9610, 103.5207
256.4431, 103.1082
256.9252, 102.7669
257.4073, 102.4964
257.8894, 102.3476
258.3716, 102.4220
258.8537, 102.9112
259.3358, 103.0852
259.8179, 102.6843
260.3000, 102.1254
260.7821, 101.7225
261.2643, 101.5389
261.7464, 101.5519
262.2285, 101.7986
262.7106, 102.3775
263.1927, 102.6273
263.6748, 102.3442
264.1570, 101.8496
264.6391, 101.3269
265.1212, 100.8141
265.6033, 100.4370
266.0854, 100.3596
266.5675, 100.6013
267.0497, 100.7449
267.5318, 100.7503
268.0139, 100.6755
268.4960, 100.5316
268.9781, 100.3269
269.4602, 100.1426
269.9424, 100.0423
270.4245, 100.0230
270.9066, 100.0125
271.3887, 100.1197
271.8708, 100.1522
272.3529, 99.85156
272.8351, 99.25422
273.3172, 98.81963
273.7993, 98.93089
274.2814, 99.39429
274.7635, 99.54509
275.2456, 99.15601
275.7278, 98.69289
276.2099, 98.54370
276.6920, 98.66051
277.1741, 98.61729
277.6562, 98.06878
278.1383, 97.33639
278.6205, 97.07984
279.1026, 97.46430
279.5847, 97.96043
280.0668, 98.24825
280.5489, 98.35049
281.0310, 98.39015
281.5132, 98.39063
281.9953, 98.36252
282.4774, 98.36205
282.9595, 98.41798
283.4416, 98.34007
283.9237, 97.86382
284.4059, 97.11466
284.8880, 96.63184
285.3701, 96.61635
285.8522, 96.82716
286.3343, 97.06739
286.8164, 97.33279
287.2986, 97.44981
287.7807, 97.23739
288.2628, 96.79209
288.7449, 96.42329
289.2270, 96.16671
289.7091, 96.00768
290.1913, 96.01405
290.6734, 96.12444
291.1555, 96.10123
291.6376, 95.66480
292.1197, 95.03232
292.6018, 94.74239
293.0840, 94.91519
293.5661, 95.21269
294.0482, 95.49231
294.5303, 95.72871
295.0124, 95.86607
295.4945, 95.89275
295.9767, 95.80035
296.4588, 95.50676
296.9409, 94.91707
297.4230, 94.45374
297.9051, 94.53601
298.3872, 94.80962
298.8694, 94.82777
299.3515, 94.36330
299.8336, 93.77058
300.3157, 93.54475
300.7978, 93.74526
301.2799, 93.94604
301.7621, 93.88906
302.2442, 93.81178
302.7263, 93.96358
303.2084, 94.41991
303.6905, 94.92277
304.1726, 95.27235
304.6548, 95.47156
305.1369, 95.38769
305.6190, 94.59383
306.1011, 93.82781
306.5832, 93.77852
307.0653, 94.46416
307.5475, 95.14664
308.0296, 95.16434
308.5117, 94.57761
308.9938, 94.09579
309.4759, 93.75219
309.9580, 93.62035
310.4402, 93.84550
310.9223, 94.33244
311.4044, 94.72786
311.8865, 94.75026
312.3686, 94.48198
312.8507, 94.27725
313.3329, 94.13893
313.8150, 94.07349
314.2971, 94.17005
314.7792, 94.32487
315.2613, 94.32922
315.7434, 93.99430
316.2256, 93.51153
316.7077, 93.32322
317.1898, 93.53210
317.6719, 93.74719
318.1540, 93.77443
318.6361, 93.72365
319.1183, 93.72761
319.6004, 93.85369
320.0825, 93.96751
320.5646, 93.82612
321.0467, 93.36757
321.5288, 93.04967
322.0110, 93.08440
322.4931, 93.28700
322.9752, 93.61513
323.4573, 94.06910
323.9394, 94.36874
324.4215, 94.08174
324.9037, 93.22778
325.3858, 92.76279
325.8679, 93.15958
326.3500, 93.69438
326.8321, 93.78713
327.3142, 93.49938
327.7964, 93.28524
328.2785, 93.52939
328.7606, 94.12753
329.2427, 94.57594
329.7248, 94.82677
330.2069, 94.95577
330.6891, 94.97335
331.1712, 94.91877
331.6533, 94.87015
332.1354, 94.83780
332.6175, 94.84602
333.0996, 94.97958
333.5818, 95.29925
334.0639, 95.54897
334.5460, 95.56602
335.0281, 95.45158
335.5102, 95.26961
335.9923, 94.97435
336.4745, 94.75709
336.9566, 94.95309
337.4387, 95.59871
337.9208, 96.01611
338.4029, 95.82696
338.8850, 95.41236
339.3671, 95.12704
339.8492, 95.00022
340.3314, 94.95569
340.8135, 94.95318
341.2956, 94.98963
341.7777, 95.02998
342.2598, 95.00433
342.7419, 95.08303
343.2241, 95.54227
343.7062, 96.28450
344.1883, 96.78691
344.6704, 96.55232
345.1525, 95.94485
345.6346, 95.79947
346.1168, 96.26482
346.5989, 96.84732
347.0810, 97.24760
347.5631, 97.51353
348.0452, 97.71028
348.5273, 97.87575
349.0095, 97.95979
349.4916, 97.81734
349.9737, 97.44061
350.4558, 97.24036
350.9379, 97.56072
351.4200, 98.08336
351.9022, 98.28024
352.3843, 98.04446
352.8664, 97.71407
353.3485, 97.40202
353.8306, 97.15340
354.3127, 97.17856
354.7949, 97.61478
355.2770, 98.21781
355.7591, 98.74763
356.2412, 99.21540
356.7233, 99.47440
357.2054, 99.26852
357.6876, 98.88522
358.1697, 98.82601
358.6518, 99.19062
359.1339, 99.61867
359.6160, 99.78620
360.0981, 99.73933
360.5803, 99.72885
361.0624, 99.82641
361.5445, 99.93936
362.0266, 99.97681
362.5087, 99.94900
362.9908, 99.97957
363.4730, 100.2447
363.9551, 100.5397
364.4372, 100.2370
364.9193, 98.86578
365.4014, 97.72961
365.8835, 97.60564
366.3657, 98.07381
366.8478, 98.26189
367.3299, 97.85526
367.8120, 97.19146
368.2941, 96.82045
368.7762, 96.84207
369.2584, 96.69473
369.7405, 96.11256
370.2226, 95.43885
370.7047, 95.05198
371.1868, 94.98265
371.6689, 94.94384
372.1511, 94.67262
372.6332, 94.15438
373.1153, 93.69143
373.5974, 93.28800
374.0795, 92.92571
374.5616, 92.56993
375.0438, 92.24563
375.5259, 92.04072
376.0080, 92.02720
376.4901, 92.11423
376.9722, 91.97393
377.4543, 91.28831
377.9365, 90.78835
378.4186, 90.57307
378.9007, 90.56773
379.3828, 90.80916
379.8649, 91.27452
380.3470, 91.66933
380.8292, 91.55250
381.3113, 90.67381
381.7934, 90.01048
382.2755, 89.65405
382.7576, 89.40109
383.2397, 89.15234
383.7219, 88.90286
384.2040, 88.67500
384.6861, 88.46845
385.1682, 88.29692
385.6503, 88.39186
386.1324, 89.37154
386.6146, 89.92883
387.0967, 89.49441
387.5788, 88.62038
388.0609, 88.00767
388.5430, 87.95618
389.0251, 88.24403
389.5073, 88.44488
389.9894, 88.57349
390.4715, 88.56960
390.9536, 88.37469
391.4357, 88.11045
391.9178, 87.81649
392.4000, 87.51796
392.8821, 87.25555
393.3642, 87.04542
393.8463, 86.88358
394.3284, 86.91415
394.8105, 87.35998
395.2927, 87.74609
395.7748, 87.89237
396.2569, 87.87589
396.7390, 87.84276
397.2211, 87.87759
397.7032, 87.91115
398.1854, 87.73486
398.6675, 87.21549
399.1496, 86.89260
399.6317, 87.19793
400.1138, 87.58595
400.5959, 87.61005
401.0781, 87.19950
401.5602, 86.68475
402.0423, 86.25420
402.5244, 85.93021
403.0065, 86.03405
403.4886, 86.94527
403.9708, 87.78794
404.4529, 87.88235
404.9350, 87.42647
405.4171, 86.96265
405.8992, 86.68201
406.3813, 86.54765
406.8635, 86.55174
407.3456, 86.71654
407.8277, 86.80952
408.3098, 86.67094
408.7919, 86.40750
409.2740, 86.20329
409.7562, 86.07847
410.2383, 85.98559
410.7204, 85.92537
411.2025, 85.87592
411.6846, 85.75023
412.1667, 85.49637
412.6489, 85.24696
413.1310, 85.21136
413.6131, 85.38289
414.0952, 85.45548
414.5773, 85.35728
415.0594, 85.15120
415.5416, 84.80305
416.0237, 84.35091
416.5058, 84.05521
416.9879, 84.11313
417.4700, 84.46221
417.9521, 84.75436
418.4343, 85.07901
418.9164, 85.25366
419.3985, 85.12634
419.8806, 84.84859
420.3627, 84.62418
420.8448, 84.51868
421.3270, 84.51942
421.8091, 84.63596
422.2912, 85.00161
422.7733, 85.06773
423.2554, 84.53933
423.7375, 83.99236
424.2197, 83.74922
424.7018, 83.79832
425.1839, 84.01680
425.6660, 84.35147
426.1481, 84.74597
426.6302, 84.80506
427.1124, 84.09785
427.5945, 83.57314
428.0766, 83.49866
428.5587, 83.58166
429.0408, 83.47649
429.5229, 83.09580
430.0051, 82.68687
430.4872, 82.62599
430.9693, 83.00879
431.4514, 83.33958
431.9335, 83.74300
432.4156, 83.96311
432.8978, 83.77827
433.3799, 83.31517
433.8620, 82.88620
434.3441, 82.68472
434.8262, 82.65283
435.3083, 82.62424
435.7905, 82.57936
436.2726, 82.59301
436.7547, 82.76170
437.2368, 82.96445
437.7189, 83.07279
438.2010, 83.05515
438.6832, 83.05733
439.1653, 83.27770
439.6474, 83.65286
440.1295, 83.83070
440.6116, 83.71976
441.0938, 83.47212
441.5759, 83.12064
442.0580, 82.72236
442.5401, 82.47757
443.0222, 82.48540
443.5043, 82.64288
443.9865, 82.91796
444.4686, 83.28738
444.9507, 83.56960
445.4328, 83.69367
445.9149, 83.66051
446.3970, 83.43401
446.8792, 82.91161
447.3613, 82.52225
447.8434, 82.44486
448.3255, 82.53504
448.8076, 82.61774
449.2897, 82.66365
449.7719, 82.75263
450.2540, 82.99647
450.7361, 83.41304
451.2182, 83.53426
451.7003, 83.15670
452.1824, 82.75567
452.6646, 82.43450
453.1467, 82.22033
453.6288, 82.17124
454.1109, 82.31300
454.5930, 82.54717
455.0751, 82.68468
455.5573, 82.72460
456.0394, 82.65618
456.5215, 82.38573
457.0036, 82.10462
457.4857, 81.91882
457.9678, 81.82714
458.4500, 81.76127
458.9321, 81.64361
459.4142, 81.51775
459.8963, 81.67640
460.3784, 82.37439
460.8605, 82.89875
461.3427, 82.99170
461.8248, 82.88597
462.3069, 82.78458
462.7890, 82.73876
463.2711, 82.72967
463.7532, 82.71587
464.2354, 82.70493
464.7175, 82.84598
465.1996, 83.32887
465.6817, 83.68378
466.1638, 83.45325
466.6459, 82.84321
467.1281, 82.36552
467.6102, 82.22704
468.0923, 82.25945
468.5744, 82.29239
469.0565, 82.33125
469.5386, 82.45647
470.0208, 82.76865
470.5029, 83.09417
470.9850, 83.06466
471.4671, 82.60654
471.9492, 82.28510
472.4313, 82.32377
472.9135, 82.52065
473.3956, 82.70858
473.8777, 82.85373
474.3598, 82.88222
474.8419, 82.68715
475.3240, 82.32099
475.8062, 82.31342
476.2883, 83.09400
476.7704, 83.65617
477.2525, 83.67223
477.7346, 83.41688
478.2167, 83.22067
478.6989, 83.17158
479.1810, 83.13067
479.6631, 82.89236
480.1452, 82.38394
480.6273, 82.06007
481.1094, 81.96932
481.5916, 82.01822
482.0737, 82.30116
482.5558, 82.68221
483.0379, 82.94408
483.5200, 82.97960
484.0021, 82.86446
484.4843, 82.73154
484.9664, 82.57748
485.4485, 82.41393
485.9306, 82.14725
486.4127, 81.95964
486.8948, 82.01038
487.3770, 82.26934
487.8591, 82.54466
488.3412, 82.79050
488.8233, 82.96046
489.3054, 82.92597
489.7875, 82.66776
490.2697, 82.38966
490.7518, 82.15437
491.2339, 81.99220
491.7160, 81.95064
492.1981, 82.07072
492.6802, 82.19157
493.1624, 82.28304
493.6445, 82.31938
494.1266, 82.23372
494.6087, 82.01803
495.0908, 81.77937
495.5729, 81.58514
496.0551, 81.44021
496.5372, 81.49440
497.0193, 81.95876
497.5014, 82.34511
497.9835, 82.47672
498.4656, 82.45055
498.9478, 82.38161
499.4299, 82.31508
499.9120, 82.28472
500.3941, 82.36572
500.8762, 82.63701
501.3583, 82.70346
501.8405, 82.27220
502.3226, 81.93359
502.8047, 81.99662
503.2868, 82.29084
503.7689, 82.48300
504.2510, 82.40049
504.7331, 82.18378
505.2152, 82.07734
505.6974, 82.08805
506.1795, 82.17184
506.6616, 82.42607
507.1437, 82.64809
507.6258, 82.68668
508.1079, 82.55873
508.5901, 82.37119
509.0722, 82.05537
509.5543, 81.76998
510.0364, 81.80950
510.5185, 82.16930
511.0006, 82.48958
511.4828, 82.58342
511.9649, 82.55241
512.4470, 82.64519
512.9291, 82.95628
513.4113, 83.06232
513.8934, 82.63821
514.3755, 82.08644
514.8576, 81.83292
515.3397, 81.90112
515.8218, 82.08338
516.3040, 82.24300
516.7861, 82.37329
517.2682, 82.42454
517.7503, 82.33725
518.2324, 82.24184
518.7145, 82.11327
519.1967, 82.00276
519.6788, 82.00325
520.1609, 82.10243
520.6430, 82.14336
521.1251, 81.92455
521.6072, 81.45773
522.0894, 81.20116
522.5715, 81.22095
523.0536, 81.35648
523.5357, 81.62733
524.0178, 81.93346
524.4999, 82.17513
524.9821, 82.33130
525.4642, 82.38015
525.9463, 82.18306
526.4284, 81.83328
526.9105, 81.80239
527.3926, 82.24998
527.8748, 82.73914
528.3569, 82.99687
528.8390, 83.01969
529.3211, 82.79141
529.8032, 81.97704
530.2853, 81.29044
530.7675, 81.20665
531.2496, 81.51252
531.7317, 81.82317
532.2138, 82.02861
532.6959, 82.15159
533.1780, 82.21895
533.6602, 82.23144
534.1423, 82.17606
534.6244, 82.05543
535.1065, 81.87565
535.5886, 81.56021
536.0707, 81.21054
536.5529, 80.97327
537.0350, 80.90771
537.5171, 80.96436
537.9992, 81.11032
538.4813, 81.39645
538.9634, 81.50761
539.4456, 81.33109
539.9277, 81.07868
540.4098, 80.86024
540.8919, 80.63962
541.3740, 80.31008
541.8561, 79.75780
542.3383, 79.23514
542.8204, 79.09131
543.3025, 79.29205
543.7846, 79.53030
544.2667, 79.77617
544.7488, 79.94828
545.2310, 79.90457
545.7131, 79.67216
546.1952, 79.49171
546.6773, 79.51807
547.1594, 79.49747
547.6415, 79.09871
548.1237, 78.52457
548.6058, 78.37163
549.0879, 78.90043
549.5700, 79.60564
550.0521, 79.60920
550.5342, 78.54052
551.0164, 77.90398
551.4985, 77.93758
551.9806, 78.09290
552.4627, 78.22842
552.9448, 78.28999
553.4269, 78.20264
553.9091, 77.92170
554.3912, 77.57007
554.8733, 77.34274
555.3554, 77.23719
555.8375, 77.28372
556.3196, 77.67482
556.8018, 77.99797
557.2839, 77.92086
557.7660, 77.57178
558.2481, 77.32457
558.7302, 77.43196
559.2123, 77.55288
559.6945, 77.24293
560.1766, 76.61440
560.6587, 76.18979
561.1408, 76.15260
561.6229, 76.29122
562.1050, 76.38394
562.5872, 76.43758
563.0693, 76.32176
563.5514, 75.75858
564.0335, 75.30434
564.5156, 75.33483
564.9977, 75.65791
565.4799, 75.93294
565.9620, 76.02103
566.4441, 75.96727
566.9262, 75.81709
567.4083, 75.52043
567.8904, 75.33031
568.3726, 75.37101
568.8547, 75.39255
569.3368, 75.35159
569.8189, 75.22336
570.3010, 74.93810
570.7831, 74.43433
571.2653, 73.94247
571.7474, 73.76161
572.2295, 73.85668
572.7116, 73.93365
573.1937, 73.93455
573.6758, 73.94113
574.1580, 74.06810
574.6401, 74.26489
575.1222, 74.33012
575.6043, 74.14381
576.0864, 73.93759
576.5685, 73.88927
577.0507, 73.87859
577.5328, 73.64303
578.0149, 73.13377
578.4970, 72.64832
578.9791, 72.54052
579.4612, 72.83621
579.9434, 72.86225
580.4255, 72.29755
580.9076, 71.83647
581.3897, 71.58546
581.8718, 71.50967
582.3539, 71.65263
582.8361, 71.98634
583.3182, 72.24369
583.8003, 72.06783
584.2824, 71.53671
584.7645, 71.25741
585.2466, 71.31324
585.7288, 71.38472
586.2108, 71.27814
586.6929, 71.11175
587.1750, 71.06966
587.6572, 71.19559
588.1393, 71.30788
588.6214, 71.31625
589.1035, 71.26700
589.5856, 71.23015
590.0677, 71.20618
590.5499, 71.12650
591.0320, 70.93151
591.5141, 70.66879
591.9962, 70.51849
592.4783, 70.63303
592.9604, 70.64807
593.4426, 70.47871
593.9247, 70.27789
594.4068, 70.16613
594.8889, 70.12420
595.3710, 70.04520
595.8531, 69.84925
596.3353, 69.59792
596.8174, 69.44263
597.2995, 69.40328
597.7816, 69.35650
598.2637, 69.31264
598.7458, 69.20905
599.2280, 68.92600
599.7101, 68.51447
600.1922, 68.25166
600.6743, 68.37780
601.1564, 68.55412
601.6385, 68.44880
602.1207, 68.15659
602.6028, 67.95972
603.0849, 67.95279
603.5670, 68.06523
604.0491, 68.22630
604.5313, 68.46121
605.0134, 68.58096
605.4955, 68.51523
605.9776, 68.43167
606.4597, 68.34136
606.9418, 68.28197
607.4240, 68.34779
607.9061, 68.54728
608.3882, 68.69456
608.8703, 68.53893
609.3524, 68.10639
609.8345, 67.69634
610.3167, 67.22282
610.7988, 67.00042
611.2809, 67.42640
611.7630, 68.09120
612.2451, 68.41007
612.7272, 68.26182
613.2094, 68.12014
613.6915, 68.25687
614.1736, 68.48708
614.6557, 68.60340
615.1378, 68.58560
615.6199, 68.42665
616.1021, 68.09157
616.5842, 67.69255
617.0663, 67.56368
617.5484, 67.97207
618.0305, 68.19830
618.5126, 68.06764
618.9948, 67.93356
619.4769, 68.03201
619.9590, 68.28831
620.4411, 68.48165
620.9232, 68.48684
621.4053, 68.43907
621.8875, 68.58067
622.3696, 68.90710
622.8517, 69.17365
623.3338, 69.37402
623.8159, 69.43772
624.2980, 69.21305
624.7802, 68.79375
625.2623, 68.48477
625.7444, 68.31242
626.2265, 68.26674
626.7086, 68.43919
627.1907, 68.69457
627.6729, 68.83977
628.1550, 68.84177
628.6371, 68.78751
629.1192, 68.75838
629.6013, 68.74024
630.0834, 68.61165
630.5656, 68.26987
631.0477, 67.98675
631.5298, 67.81551
632.0119, 67.69917
632.4940, 67.58636
632.9761, 67.48308
633.4583, 67.44647
633.9404, 67.59211
634.4225, 67.75526
634.9046, 67.63456
635.3867, 67.25084
635.8688, 66.85721
636.3510, 66.49215
636.8331, 66.24848
637.3152, 66.30400
637.7973, 66.70522
638.2794, 66.84721
638.7615, 66.43664
639.2437, 66.08540
639.7258, 66.19431
640.2079, 66.45638
640.6900, 66.37058
641.1721, 65.84269
641.6542, 65.27052
642.1364, 65.11420
642.6185, 65.32952
643.1006, 65.31483
643.5827, 64.92451
644.0648, 64.62671
644.5469, 64.72385
645.0291, 64.90135
645.5112, 64.83594
645.9933, 64.50896
646.4754, 64.26498
646.9575, 64.34367
647.4396, 64.52131
647.9218, 64.59912
648.4039, 64.56492
648.8860, 64.38634
649.3681, 64.03703
649.8502, 63.63561
650.3323, 63.35436
650.8145, 63.20178
651.2966, 63.13474
651.7787, 63.14894
652.2608, 63.24893
652.7429, 63.57621
653.2250, 63.92650
653.7072, 64.02085
654.1893, 63.79721
654.6714, 63.48024
655.1535, 63.29222
655.6356, 63.18044
656.1177, 62.87562
656.5999, 62.31583
657.0820, 62.08287
657.5641, 62.62352
658.0462, 63.48103
658.5283, 63.75866
659.0104, 63.35411
659.4926, 63.04094
659.9747, 62.93169
660.4568, 62.93851
660.9389, 63.10258
661.4210, 63.32271
661.9031, 63.38729
662.3853, 63.21857
662.8674, 62.98400
663.3495, 62.92702
663.8316, 63.06064
664.3137, 63.17011
664.7958, 63.28222
665.2780, 63.31992
665.7601, 63.13650
666.2422, 62.91422
666.7243, 62.91265
667.2064, 63.19381
667.6885, 63.37850
668.1707, 63.19350
668.6528, 62.88443
669.1349, 62.72969
669.6170, 62.71706
670.0991, 62.70820
670.5812, 62.63700
671.0634, 62.55874
671.5455, 62.57939
672.0276, 62.74347
672.5097, 62.83754
672.9918, 63.02063
673.4739, 62.94930
673.9561, 62.21822
674.4382, 61.30361
674.9203, 60.86169
675.4024, 61.05620
675.8845, 61.36542
676.3666, 61.33107
676.8488, 61.12142
677.3309, 61.12476
677.8130, 61.35545
678.2951, 61.60175
678.7772, 61.79553
679.2593, 61.88743
679.7415, 61.74415
680.2236, 61.17080
680.7057, 60.98908
681.1878, 61.62249
681.6699, 62.18357
682.1520, 62.20417
682.6342, 61.91883
683.1163, 61.69337
683.5984, 61.64138
684.0805, 61.65975
684.5626, 61.62129
685.0447, 61.55169
685.5269, 61.61657
686.0090, 61.84959
686.4911, 62.05087
686.9732, 62.17168
687.4553, 62.17962
687.9374, 61.91117
688.4196, 61.29023
688.9017, 61.07398
689.3838, 61.79072
689.8659, 62.53242
690.3480, 62.70400
690.8301, 62.53431
691.3123, 62.46988
691.7944, 62.64901
692.2765, 62.86918
692.7586, 62.87268
693.2407, 62.68315
693.7228, 62.67850
694.2050, 62.99702
694.6871, 63.11944
695.1692, 62.69645
695.6513, 62.11320
696.1334, 61.77487
696.6155, 61.68575
697.0977, 61.64939
697.5798, 61.71337
698.0619, 61.70936
698.5440, 61.40693
699.0261, 60.96554
699.5082, 60.75777
699.9904, 60.87374
700.4725, 61.02435
700.9546, 60.89060
701.4367, 60.49228
701.9188, 60.10210
702.4009, 59.64107
702.8831, 59.34948
703.3652, 59.49122
703.8473, 59.67089
704.3294, 59.53475
704.8115, 59.12995
705.2936, 58.84311
705.7758, 58.95278
706.2579, 59.11640
706.7400, 59.04955
707.2221, 58.82191
707.7042, 58.54229
708.1863, 58.24780
708.6685, 58.06413
709.1506, 58.13337
709.6327, 58.40474
710.1148, 58.48071
710.5969, 58.18496
711.0790, 58.01765
711.5612, 58.26240
712.0433, 58.45617
712.5254, 58.16586
713.0075, 57.56346
713.4896, 57.22955
713.9717, 57.49342
714.4539, 57.89735
714.9360, 58.09023
715.4181, 58.10592
715.9002, 57.95245
716.3823, 57.64815
716.8644, 57.45008
717.3466, 57.57693
717.8287, 57.90887
718.3108, 57.98989
718.7929, 57.60351
719.2750, 57.37638
719.7571, 57.35648
720.2393, 57.45908
720.7214, 57.82985
721.2035, 58.25101
721.6856, 58.26557
722.1677, 57.64779
722.6498, 57.02055
723.1320, 56.98096
723.6141, 57.27989
724.0962, 57.37148
724.5783, 57.23357
725.0604, 57.25430
725.5425, 57.69255
726.0247, 58.26339
726.5068, 58.36608
726.9889, 57.80940
727.4710, 57.36475
727.9531, 56.99491
728.4352, 56.77831
728.9174, 56.76601
729.3995, 56.91280
729.8816, 57.25756
730.3637, 57.79054
730.8458, 58.13531
731.3279, 57.84700
731.8101, 57.29708
732.2922, 57.09851
732.7743, 57.22068
733.2564, 57.36394
733.7385, 57.41430
734.2206, 57.49001
734.7028, 57.77069
735.1849, 58.28386
735.6670, 58.58436
736.1491, 58.52997
736.6312, 58.43602
737.1133, 58.24220
737.5955, 58.10942
738.0776, 58.23626
738.5597, 58.58246
739.0418, 58.87429
739.5239, 58.96245
740.0060, 58.94348
740.4882, 58.88844
740.9703, 58.81915
741.4524, 58.81201
741.9345, 58.88246
742.4166, 58.96713
742.8987, 59.00515
743.3809, 59.01971
743.8630, 59.13634
744.3451, 59.47967
744.8272, 59.69564
745.3093, 59.74467
745.7914, 59.68964
746.2736, 59.41878
746.7557, 59.09655
747.2378, 59.10015
747.7199, 59.64363
748.2020, 60.10893
748.6841, 59.84872
749.1663, 59.27405
749.6484, 59.13851
750.1305, 59.43965
750.6126, 59.69941
751.0947, 59.66884
751.5768, 59.50095
752.0590, 59.48253
752.5411, 59.67299
753.0232, 59.72710
753.5053, 59.48765
753.9874, 59.32322
754.4695, 59.46487
754.9517, 59.66096
755.4338, 59.61520
755.9159, 59.30327
756.3980, 58.99442
756.8801, 58.73426
757.3622, 58.60042
757.8444, 58.77686
758.3265, 59.12333
758.8086, 59.30352
759.2907, 59.23252
759.7728, 59.04705
760.2549, 58.85871
760.7371, 58.68472
761.2192, 58.63311
761.7013, 58.70369
762.1834, 58.91087
762.6655, 59.54029
763.1476, 60.00732
763.6298, 59.78474
764.1119, 59.10577
764.5940, 58.62473
765.0761, 58.53247
765.5582, 58.53635
766.0403, 58.51261
766.5225, 58.49943
767.0046, 58.55639
767.4867, 58.66778
767.9688, 58.76310
768.4509, 58.80643
768.9330, 58.82155
769.4152, 58.85621
769.8973, 58.91310
770.3794, 58.90361
770.8615, 58.79690
771.3436, 58.69667
771.8257, 58.59137
772.3079, 58.56070
772.7900, 58.82590
773.2721, 59.44058
773.7542, 59.65627
774.2363, 59.03069
774.7184, 58.33995
775.2006, 57.87569
775.6827, 57.63194
776.1648, 57.71470
776.6469, 58.04278
777.1290, 58.16731
777.6111, 57.64244
778.0933, 56.82249
778.5754, 56.55012
779.0575, 56.80493
779.5396, 57.05762
780.0217, 57.22687
780.5038, 57.30183
780.9860, 57.23330
781.4681, 57.07227
781.9502, 57.04851
782.4323, 57.39057
782.9144, 57.48710
783.3965, 57.03604
783.8787, 56.60721
784.3608, 56.63088
784.8429, 56.87482
785.3250, 56.83653
785.8071, 56.35532
786.2892, 55.94539
786.7714, 56.23930
787.2535, 56.81628
787.7356, 56.78202
788.2177, 56.21473
788.6998, 55.89368
789.1819, 56.12590
789.6641, 56.47181
790.1462, 56.36202
790.6283, 55.79983
791.1104, 55.54753
791.5925, 55.84045
792.0746, 56.04884
792.5568, 55.92912
793.0389, 55.80911
793.5210, 56.00432
794.0031, 56.40290
794.4852, 56.59463
794.9673, 56.39228
795.4495, 56.09005
795.9316, 55.82797
796.4137, 55.59790
796.8958, 55.40883
797.3779, 55.24400
797.8600, 55.01652
798.3422, 54.67640
798.8243, 54.36194
799.3064, 54.36239
799.7885, 54.69519
800.2706, 54.78373
800.7527, 54.54222
801.2349, 54.30799
801.7170, 54.20006
802.1991, 54.17817
802.6812, 54.19087
803.1633, 54.23604
803.6454, 54.33691
804.1276, 54.69361
804.6097, 54.86544
805.0918, 54.45967
805.5739, 53.94403
806.0560, 53.88568
806.5381, 54.22863
807.0203, 54.44120
807.5024, 54.16329
807.9845, 53.77391
808.4666, 53.93482
808.9487, 54.44875
809.4308, 54.44372
809.9130, 53.80907
810.3951, 53.26331
810.8772, 53.23781
811.3593, 53.50240
811.8414, 53.59049
812.3235, 53.45060
812.8057, 53.32736
813.2878, 53.26899
813.7699, 53.16472
814.2520, 52.96161
814.7341, 52.71413
815.2162, 52.44232
815.6984, 52.16393
816.1805, 51.98211
816.6626, 51.94210
817.1447, 52.00901
817.6268, 52.28891
818.1089, 52.60172
818.5911, 52.62635
819.0732, 52.35554
819.5553, 52.01855
820.0374, 51.75136
820.5195, 51.57426
821.0016, 51.53516
821.4838, 51.63586
821.9659, 51.85370
822.4480, 52.27670
822.9301, 52.50787
823.4122, 52.25764
823.8943, 51.77327
824.3765, 51.45483
824.8586, 51.29487
825.3407, 51.34526
825.8228, 51.90836
826.3049, 52.31802
826.7870, 52.26673
827.2692, 52.00383
827.7513, 51.69466
828.2334, 51.42573
828.7155, 51.39347
829.1976, 51.83854
829.6797, 52.30989
830.1619, 52.17951
830.6440, 51.71027
831.1261, 51.60906
831.6082, 51.91027
832.0903, 52.02294
832.5724, 51.57674
833.0546, 50.91633
833.5367, 50.75605
834.0188, 51.19561
834.5009, 51.41789
834.9830, 51.29574
835.4651, 51.21465
835.9473, 51.38330
836.4294, 51.60449
836.9115, 51.66553
837.3936, 51.57079
837.8757, 51.43119
838.3578, 51.16249
838.8400, 50.97913
839.3221, 51.07096
839.8042, 51.20599
840.2863, 51.09572
840.7684, 50.80712
841.2505, 50.65078
841.7327, 50.79463
842.2148, 50.99221
842.6969, 50.90936
843.1790, 50.65294
843.6611, 50.50440
844.1432, 50.48250
844.6254, 50.61134
845.1075, 50.92747
845.5896, 51.23405
846.0717, 51.25127
846.5538, 50.97745
847.0359, 50.79361
847.5181, 50.72780
848.0002, 50.70147
848.4823, 50.81686
848.9644, 50.85472
849.4465, 50.56121
849.9286, 50.07011
850.4108, 49.78839
850.8929, 49.84404
851.3750, 49.96943
851.8571, 50.14872
852.3392, 50.29160
852.8214, 50.27932
853.3035, 50.18396
853.7856, 50.15881
854.2677, 50.25005
854.7498, 50.37890
855.2319, 50.54782
855.7141, 50.66150
856.1962, 50.39109
856.6783, 49.81350
857.1604, 49.50301
857.6425, 49.61538
858.1246, 49.80708
858.6068, 49.79650
859.0889, 49.63635
859.5710, 49.52098
860.0531, 49.45647
860.5352, 49.42182
861.0173, 49.43435
861.4995, 49.45301
861.9816, 49.40745
862.4637, 49.38342
862.9458, 49.58551
863.4279, 50.05645
863.9100, 50.19659
864.3922, 49.55025
864.8743, 48.88314
865.3564, 48.56131
865.8385, 48.46908
866.3206, 48.46720
866.8027, 48.53770
867.2849, 48.76821
867.7670, 49.26712
868.2491, 49.71096
868.7312, 49.58455
869.2133, 49.07810
869.6954, 48.70211
870.1776, 48.50064
870.6597, 48.44828
871.1418, 48.54683
871.6239, 48.68010
872.1060, 48.67120
872.5881, 48.52209
873.0703, 48.52422
873.5524, 48.79725
874.0345, 48.91142
874.5166, 48.69265
874.9987, 48.37889
875.4808, 48.10785
875.9630, 47.89281
876.4451, 47.78630
876.9272, 47.83166
877.4093, 47.89854
877.8914, 48.04479
878.3735, 48.11974
878.8557, 47.93868
879.3378, 47.66489
879.8199, 47.55548
880.3020, 47.66040
880.7841, 47.83600
881.2662, 48.06345
881.7484, 48.23555
882.2305, 48.17750
882.7126, 47.96922
883.1947, 47.74114
883.6768, 47.54528
884.1589, 47.58357
884.6411, 48.02134
885.1232, 48.54156
885.6053, 48.42194
886.0874, 47.63909
886.5695, 47.19784
887.0516, 47.21727
887.5338, 47.15874
888.0159, 46.73096
888.4980, 46.28334
888.9801, 46.28048
889.4622, 46.72088
889.9443, 46.96842
890.4265, 46.86994
890.9086, 46.80141
891.3907, 46.84566
891.8728, 46.88171
892.3549, 46.82324
892.8370, 46.70475
893.3192, 46.61110
893.8013, 46.56948
894.2834, 46.47314
894.7655, 46.13046
895.2476, 45.84408
895.7297, 45.98371
896.2119, 46.31246
896.6940, 46.36609
897.1761, 46.10930
897.6582, 45.92864
898.1403, 46.11401
898.6224, 46.45318
899.1046, 46.68272
899.5867, 46.77021
900.0688, 46.46066
900.5509, 45.74765
901.0330, 45.27775
901.5151, 45.38303
901.9973, 45.72182
902.4794, 45.79174
902.9615, 45.59246
903.4436, 45.44880
903.9257, 45.38212
904.4078, 45.30970
904.8900, 45.16944
905.3721, 45.07805
905.8542, 45.18434
906.3363, 45.40682
906.8184, 45.48237
907.3005, 45.31721
907.7827, 45.22669
908.2648, 45.28098
908.7469, 45.38280
909.2290, 45.57846
909.7111, 45.74024
910.1932, 45.69781
910.6754, 45.44874
911.1575, 45.14304
911.6396, 44.73968
912.1217, 44.47649
912.6038, 44.71692
913.0859, 45.11715
913.5681, 45.12031
914.0502, 44.79909
914.5323, 44.64146
915.0144, 44.85704
915.4965, 45.12129
915.9786, 44.94886
916.4607, 44.52422
916.9428, 44.61266
917.4249, 45.16209
917.9070, 45.39447
918.3892, 45.09205
918.8713, 44.78761
919.3534, 44.92674
919.8355, 45.34055
920.3176, 45.50469
920.7997, 45.35233
921.2819, 45.19971
921.7640, 45.03733
922.2461, 44.89683
922.7282, 44.72590
923.2103, 44.63673
923.6924, 44.88303
924.1746, 45.43377
924.6567, 45.64367
925.1388, 45.13233
925.6209, 44.77647
926.1030, 44.87834
926.5851, 45.04327
927.0673, 44.99040
927.5494, 44.81019
928.0315, 44.69772
928.5136, 44.70089
928.9957, 44.72807
929.4778, 44.74374
929.9600, 44.75217
930.4421, 44.79786
930.9242, 44.81872
931.4063, 44.63073
931.8884, 44.29702
932.3705, 44.18396
932.8527, 44.52195
933.3348, 44.97719
933.8169, 45.11934
934.2990, 45.03691
934.7811, 44.91668
935.2632, 44.78921
935.7454, 44.83436
936.2275, 45.11275
936.7096, 45.29919
937.1917, 45.03819
937.6738, 44.48229
938.1559, 44.21111
938.6381, 44.24476
939.1202, 44.44584
939.6023, 44.87005
940.0844, 45.23237
940.5665, 45.39246
941.0486, 45.40004
941.5308, 45.30001
942.0129, 45.06807
942.4950, 44.99746
942.9771, 45.31792
943.4592, 45.45055
943.9413, 45.06979
944.4235, 44.72355
944.9056, 44.87193
945.3877, 45.27842
945.8698, 45.37674
946.3519, 44.99598
946.8340, 44.77076
947.3162, 45.03801
947.7983, 45.29890
948.2804, 45.23586
948.7625, 45.06349
949.2446, 45.06398
949.7267, 45.21760
950.2089, 45.29414
950.6910, 45.17759
951.1731, 45.00934
951.6552, 44.91899
952.1373, 44.82653
952.6194, 44.53574
953.1016, 44.17539
953.5837, 44.09327
954.0658, 44.36364
954.5479, 44.73745
955.0300, 45.04729
955.5121, 45.26898
955.9943, 45.31046
956.4764, 45.22343
956.9585, 45.25942
957.4406, 45.42601
957.9227, 45.39875
958.4048, 45.00812
958.8870, 44.62121
959.3691, 44.78820
959.8512, 45.40300
960.3333, 45.56211
960.8154, 45.19287
961.2975, 44.90150
961.7797, 44.80471
962.2618, 44.76435
962.7439, 44.68340
963.2260, 44.61472
963.7081, 44.69719
964.1902, 45.00137
964.6724, 45.07361
965.1545, 44.74191
965.6366, 44.46284
966.1187, 44.29740
966.6008, 44.26320
967.0829, 44.45781
967.5651, 44.78881
968.0472, 44.96936
968.5293, 44.94582
969.0114, 44.87391
969.4935, 44.67879
969.9756, 44.55219
970.4578, 44.65297
970.9399, 44.81379
971.4220, 44.83524
971.9041, 44.73133
972.3862, 44.67155
972.8683, 44.74073
973.3505, 44.80103
973.8326, 44.74574
974.3147, 44.68351
974.7968, 44.72874
975.2789, 44.83245
975.7610, 44.92836
976.2432, 44.98338
976.7253, 44.91722
977.2074, 44.60439
977.6895, 44.27863
978.1716, 44.21164
978.6537, 44.29903
979.1359, 44.37827
979.6180, 44.43774
980.1001, 44.52251
980.5822, 44.64594
981.0643, 44.74622
981.5464, 44.75118
982.0286, 44.69920
982.5107, 44.70234
982.9928, 44.73335
983.4749, 44.62655
983.9570, 44.37059
984.4391, 44.13655
984.9213, 44.00644
985.4034, 44.03029
985.8855, 44.30695
986.3676, 44.80830
986.8497, 45.35110
987.3318, 45.96889
987.8140, 46.17767
988.2961, 45.81005
988.7782, 45.37136
989.2603, 45.19354
989.7424, 45.15011
990.2245, 44.96515
990.7067, 44.60799
991.1888, 44.34570
991.6709, 44.12854
992.1530, 44.14581
992.6351, 44.61226
993.1172, 45.07075
993.5994, 45.13704
994.0815, 44.93444
994.5636, 44.85004
995.0457, 44.97737
995.5278, 44.95769
996.0099, 44.53877
996.4921, 44.30220
996.9742, 44.65708
997.4563, 45.03125
997.9384, 44.81151
998.4205, 44.19453
998.9026, 43.92867
999.3848, 44.24649
999.8669, 44.54853
1000.349, 44.77240
1000.831, 44.89411
1001.313, 44.87318
1001.795, 44.76463
1002.277, 44.62049
1002.760, 44.44713
1003.242, 44.20935
1003.724, 43.79607
1004.206, 43.57844
1004.688, 43.83741
1005.170, 44.24677
1005.652, 44.68038
1006.134, 45.03223
1006.617, 45.15084
1007.099, 45.04285
1007.581, 44.86501
1008.063, 44.65730
1008.545, 44.49757
1009.027, 44.48736
1009.509, 44.52863
1009.991, 44.52537
1010.473, 44.47203
1010.956, 44.33557
1011.438, 44.13784
1011.920, 44.05143
1012.402, 44.23802
1012.884, 44.47839
1013.366, 44.47349
1013.848, 44.34267
1014.330, 44.31673
1014.813, 44.38116
1015.295, 44.41184
1015.777, 44.37341
1016.259, 44.33783
1016.741, 44.37174
1017.223, 44.43572
1017.705, 44.45806
1018.187, 44.44833
1018.669, 44.45121
1019.152, 44.46198
1019.634, 44.40034
1020.116, 44.23890
1020.598, 44.09352
1021.080, 44.09186
1021.562, 44.18116
1022.044, 44.21366
1022.526, 44.19453
1023.008, 44.15794
1023.491, 44.10703
1023.973, 44.14782
1024.455, 44.33720
1024.937, 44.50819
1025.419, 44.44444
1025.901, 44.22231
1026.383, 44.24277
1026.865, 44.53538
1027.348, 44.59708
1027.830, 44.35072
1028.312, 44.00982
1028.794, 43.61561
1029.276, 43.36401
1029.758, 43.56063
1030.240, 44.11442
1030.722, 44.23430
1031.204, 43.74776
1031.687, 43.64085
1032.169, 44.14429
1032.651, 44.64554
1033.133, 44.92352
1033.615, 44.93623
1034.097, 44.54497
1034.579, 43.79580
1035.061, 43.43311
1035.544, 43.62061
1036.026, 43.76982
1036.508, 43.79852
1036.990, 43.85067
1037.472, 43.99872
1037.954, 44.20075
1038.436, 44.43367
1038.918, 44.69118
1039.401, 44.78365
1039.883, 44.55086
1040.365, 44.45624
1040.847, 44.70051
1041.329, 44.85604
1041.811, 44.70374
1042.293, 44.38189
1042.775, 43.98546
1043.257, 43.52451
1043.740, 43.35556
1044.222, 43.73127
1044.704, 44.00839
1045.186, 44.09138
1045.668, 44.14455
1046.150, 44.25591
1046.632, 44.36632
1047.114, 44.41113
1047.596, 44.38795
1048.079, 44.30029
1048.561, 44.07004
1049.043, 43.89500
1049.525, 43.87416
1050.007, 43.82616
1050.489, 43.58842
1050.971, 43.32467
1051.453, 43.25535
1051.936, 43.36744
1052.418, 43.43867
1052.900, 43.28083
1053.382, 43.34278
1053.864, 44.10525
1054.346, 44.65952
1054.828, 44.35564
1055.310, 43.70161
1055.792, 43.28773
1056.275, 43.13081
1056.757, 42.98240
1057.239, 42.83488
1057.721, 42.59358
1058.203, 42.02236
1058.685, 41.58990
1059.167, 41.68645
1059.649, 41.97551
1060.131, 42.05055
1060.614, 41.92514
1061.096, 41.87976
1061.578, 42.06569
1062.060, 42.12539
1062.542, 41.81839
1063.024, 41.48781
1063.506, 41.33165
1063.988, 41.25574
1064.471, 41.11749
1064.953, 40.94600
1065.435, 40.91845
1065.917, 41.14721
1066.399, 41.28586
1066.881, 41.12262
1067.363, 40.91735
1067.845, 40.83167
1068.328, 40.77639
1068.810, 40.58449
1069.292, 40.33148
1069.774, 40.31071
1070.256, 40.66031
1070.738, 40.90769
1071.220, 40.79901
1071.702, 40.58820
1072.184, 40.34165
1072.667, 40.13133
1073.149, 40.05540
1073.631, 40.07194
1074.113, 40.04280
1074.595, 39.92076
1075.077, 39.88942
1075.559, 40.20616
1076.041, 40.42367
1076.523, 40.19704
1077.006, 39.83076
1077.488, 39.57740
1077.970, 39.44404
1078.452, 39.40470
1078.934, 39.45227
1079.416, 39.41962
1079.898, 39.15456
1080.380, 38.88914
1080.862, 38.61214
1081.345, 38.50587
1081.827, 38.94142
1082.309, 39.58915
1082.791, 39.77110
1083.273, 39.39481
1083.755, 39.11145
1084.237, 39.28323
1084.719, 39.48249
1085.202, 39.54696
1085.684, 39.51854
1086.166, 39.35540
1086.648, 39.16163
1087.130, 39.11373
1087.612, 39.21337
1088.094, 39.26146
1088.576, 39.14887
1089.058, 39.04415
1089.541, 39.07930
1090.023, 39.08484
1090.505, 38.85372
1090.987, 38.57552
1091.469, 38.57264
1091.951, 38.78989
1092.433, 38.79148
1092.915, 38.30016
1093.397, 38.00909
1093.880, 38.47596
1094.362, 38.89138
1094.844, 38.65043
1095.326, 38.20199
1095.808, 38.06865
1096.290, 38.19146
1096.772, 38.20294
1097.254, 37.97720
1097.737, 37.83794
1098.219, 37.95563
1098.701, 38.10552
1099.183, 38.26026
1099.665, 38.33760
1100.147, 38.18560
1100.629, 37.92548
1101.111, 37.87239
1101.594, 38.10699
1102.076, 38.13958
1102.558, 37.56987
1103.040, 37.15393
1103.522, 37.29053
1104.004, 37.50975
1104.486, 37.46961
1104.968, 37.29297
1105.450, 37.18457
1105.932, 37.16766
1106.415, 37.23280
1106.897, 37.44497
1107.379, 37.63921
1107.861, 37.89190
1108.343, 37.99537
1108.825, 37.63291
1109.307, 37.20224
1109.789, 37.29775
1110.272, 37.83212
1110.754, 38.01736
1111.236, 37.56288
1111.718, 37.18101
1112.200, 36.87095
1112.682, 36.72399
1113.164, 36.94666
1113.646, 37.19566
1114.129, 37.12718
1114.611, 36.83238
1115.093, 36.62042
1115.575, 36.49294
1116.057, 36.45877
1116.539, 36.59853
1117.021, 36.70774
1117.503, 36.67405
1117.985, 36.68921
1118.468, 36.97797
1118.950, 37.33903
1119.432, 37.34410
1119.914, 36.94521
1120.396, 36.78711
1120.878, 37.06232
1121.360, 37.15105
1121.842, 36.86068
1122.324, 36.60009
1122.807, 36.58069
1123.289, 36.67944
1123.771, 36.77405
1124.253, 36.84618
1124.735, 36.71372
1125.217, 36.25674
1125.699, 36.02542
1126.181, 36.09700
1126.664, 36.24270
1127.146, 36.41289
1127.628, 36.55022
1128.110, 36.58436
1128.592, 36.56858
1129.074, 36.70897
1129.556, 37.05331
1130.038, 36.96902
1130.521, 36.36845
1131.003, 35.97589
1131.485, 35.97378
1131.967, 36.07524
1132.449, 36.10342
1132.931, 36.10442
1133.413, 36.16553
1133.895, 36.26781
1134.377, 36.28478
1134.859, 36.21662
1135.342, 36.02464
1135.824, 35.70797
1136.306, 35.51794
1136.788, 35.56449
1137.270, 35.76578
1137.752, 36.07062
1138.234, 36.39307
1138.716, 36.49001
1139.199, 36.41690
1139.681, 36.45557
1140.163, 36.57795
1140.645, 36.47211
1141.127, 36.08121
1141.609, 35.71278
1142.091, 35.57402
1142.573, 35.59136
1143.056, 35.72734
1143.538, 35.90910
1144.020, 36.00538
1144.502, 36.01799
1144.984, 35.90594
1145.466, 35.71773
1145.948, 35.67765
1146.430, 35.87638
1146.912, 36.05952
1147.395, 35.96107
1147.877, 35.78078
1148.359, 35.76894
1148.841, 35.80091
1149.323, 35.61817
1149.805, 35.35313
1150.287, 35.39832
1150.769, 35.78272
1151.251, 36.05658
1151.734, 35.98091
1152.216, 35.74550
1152.698, 35.30520
1153.180, 34.93314
1153.662, 34.87298
1154.144, 35.01231
1154.626, 35.27956
1155.108, 35.58813
1155.591, 35.73781
1156.073, 35.65533
1156.555, 35.54372
1157.037, 35.43446
1157.519, 35.36338
1158.001, 35.40934
1158.483, 35.43559
1158.965, 35.27734
1159.448, 35.05562
1159.930, 35.00250
1160.412, 35.13325
1160.894, 35.21165
1161.376, 35.14575
1161.858, 35.13107
1162.340, 35.19906
1162.822, 35.30299
1163.304, 35.49956
1163.786, 35.65060
1164.269, 35.59959
1164.751, 35.40491
1165.233, 35.27079
1165.715, 35.22425
1166.197, 35.11444
1166.679, 34.90644
1167.161, 34.71992
1167.643, 34.53358
1168.126, 34.51375
1168.608, 34.81804
1169.090, 35.20520
1169.572, 35.29458
1170.054, 35.14145
1170.536, 35.20739
1171.018, 35.51239
1171.500, 35.51200
1171.983, 35.14463
1172.465, 34.97174
1172.947, 35.19641
1173.429, 35.45834
1173.911, 35.45227
1174.393, 35.30969
1174.875, 35.27782
1175.357, 35.32291
1175.839, 35.33990
1176.322, 35.31383
1176.804, 35.12014
1177.286, 34.79780
1177.768, 34.71535
1178.250, 35.03131
1178.732, 35.36308
1179.214, 35.31860
1179.696, 35.12815
1180.178, 35.12954
1180.661, 35.17178
1181.143, 34.88696
1181.625, 34.48898
1182.107, 34.59372
1182.589, 35.20226
1183.071, 35.61965
1183.553, 35.48774
1184.035, 35.22849
1184.518, 35.03660
1185.000, 34.89174
1185.482, 34.83773
1185.964, 34.77532
1186.446, 34.48305
1186.928, 34.13316
1187.410, 34.19758
1187.892, 34.76760
1188.375, 35.12053
1188.857, 34.92598
1189.339, 34.74028
1189.821, 34.66574
1190.303, 34.64086
1190.785, 34.63838
1191.267, 34.66847
1191.749, 34.76993
1192.231, 34.91143
1192.714, 34.97303
1193.196, 34.94899
1193.678, 34.85366
1194.160, 34.62059
1194.642, 34.52066
1195.124, 34.68290
1195.606, 34.74484
1196.088, 34.44767
1196.570, 34.07958
1197.053, 34.04725
1197.535, 34.29241
1198.017, 34.57404
1198.499, 34.88683
1198.981, 35.01622
1199.463, 34.95107
1199.945, 34.72326
1200.427, 34.35125
1200.910, 34.06008
1201.392, 33.99948
1201.874, 34.13241
1202.356, 34.57848
1202.838, 35.07891
1203.320, 34.99110
1203.802, 34.54650
1204.284, 34.22356
1204.766, 34.07119
1205.249, 34.00345
1205.731, 33.99495
1206.213, 34.10305
1206.695, 34.44126
1207.177, 34.71943
1207.659, 34.68826
1208.141, 34.52654
1208.623, 34.27180
1209.105, 34.06785
1209.588, 34.13480
1210.070, 34.39494
1210.552, 34.58014
1211.034, 34.63161
1211.516, 34.64014
1211.998, 34.59399
1212.480, 34.55654
1212.962, 34.58649
1213.445, 34.57802
1213.927, 34.38148
1214.409, 34.19559
1214.891, 34.27143
1215.373, 34.54106
1215.855, 34.69713
1216.337, 34.70915
1216.819, 34.75076
1217.302, 34.86158
1217.784, 34.81825
1218.266, 34.52922
1218.748, 34.30099
1219.230, 34.30575
1219.712, 34.43848
1220.194, 34.58176
1220.676, 34.71614
1221.158, 34.78947
1221.641, 34.79860
1222.123, 34.66660
1222.605, 34.44255
1223.087, 34.43624
1223.569, 34.67633
1224.051, 34.78877
1224.533, 34.55473
1225.015, 34.33161
1225.497, 34.59450
1225.980, 34.94944
1226.462, 34.89430
1226.944, 34.68034
1227.426, 34.65521
1227.908, 34.73706
1228.390, 34.67177
1228.872, 34.44730
1229.354, 34.30603
1229.837, 34.35577
1230.319, 34.42010
1230.801, 34.42002
1231.283, 34.44718
1231.765, 34.55973
1232.247, 34.69579
1232.729, 34.86325
1233.211, 34.99099
1233.693, 34.91847
1234.176, 34.65782
1234.658, 34.57564
1235.140, 34.76340
1235.622, 34.84041
1236.104, 34.74705
1236.586, 34.70341
1237.068, 34.77892
1237.550, 34.91129
1238.032, 35.07795
1238.515, 35.17202
1238.997, 34.96403
1239.479, 34.56040
1239.961, 34.39850
1240.443, 34.43404
1240.925, 34.47905
1241.407, 34.51816
1241.889, 34.60630
1242.372, 34.74500
1242.854, 34.84023
1243.336, 34.84100
1243.818, 34.73830
1244.300, 34.42125
1244.782, 34.10437
1245.264, 33.94494
1245.746, 33.94985
1246.229, 34.24035
1246.711, 34.64601
1247.193, 34.81130
1247.675, 34.70616
1248.157, 34.69061
1248.639, 35.02295
1249.121, 35.10384
1249.603, 34.44936
1250.085, 34.05899
1250.568, 34.48446
1251.050, 34.96590
1251.532, 34.98011
1252.014, 34.76887
1252.496, 34.75298
1252.978, 34.89977
1253.460, 34.81042
1253.942, 34.44858
1254.424, 34.24786
1254.907, 34.23737
1255.389, 34.34784
1255.871, 34.55708
1256.353, 34.71203
1256.835, 34.70667
1257.317, 34.71129
1257.799, 35.04400
1258.281, 35.43388
1258.764, 35.30721
1259.246, 34.93264
1259.728, 34.79479
1260.210, 34.82660
1260.692, 34.70527
1261.174, 34.44514
1261.656, 34.49782
1262.138, 35.16194
1262.620, 35.49424
1263.103, 34.65953
1263.585, 33.93451
1264.067, 33.93225
1264.549, 34.19191
1265.031, 34.54234
1265.513, 34.84582
1265.995, 34.91799
1266.477, 34.79182
1266.959, 34.62246
1267.442, 34.35435
1267.924, 34.29108
1268.406, 34.48871
1268.888, 34.61943
1269.370, 34.60787
1269.852, 34.66954
1270.334, 34.93080
1270.816, 35.08595
1271.299, 34.77076
1271.781, 34.23835
1272.263, 33.93840
1272.745, 33.85344
1273.227, 34.04360
1273.709, 34.37301
1274.191, 34.50846
1274.673, 34.45707
1275.156, 34.43075
1275.638, 34.50142
1276.120, 34.62067
1276.602, 34.80563
1277.084, 34.95633
1277.566, 35.07314
1278.048, 35.08002
1278.530, 34.81848
1279.012, 34.52238
1279.495, 34.43777
1279.977, 34.49573
1280.459, 34.50060
1280.941, 34.44777
1281.423, 34.47050
1281.905, 34.62925
1282.387, 34.63948
1282.869, 34.45320
1283.351, 34.28231
1283.834, 34.18421
1284.316, 34.18386
1284.798, 34.30831
1285.280, 34.44767
1285.762, 34.47169
1286.244, 34.39734
##END=



