##NAMES=Schoepite
##RRUFFID=R100188
##IDEAL CHEMISTRY=(U^6+^O_2_)_4_O(OH)_6_(H_2_O)_6_
##LOCALITY=Shinkolobwe mine, Katanga, Congo
##OWNER=RRUFF
##SOURCE=William W Pinch
##DESCRIPTION=Lemon-yellow tabular to blocky crystals associated with orange-yellow fourmarierite (R100187) and soddyite
##STATUS=The identification of this mineral has been confirmed by single-crystal X-ray diffraction.
##URL=rruff.info/R100188
195.6546, 13024.67
196.1367, 13022.57
196.6188, 13023.18
197.1009, 13026.14
197.5831, 13032.62
198.0652, 13042.60
198.5473, 13048.82
199.0294, 13049.38
199.5115, 13047.77
199.9937, 13050.73
200.4758, 13058.12
200.9579, 13069.21
201.4400, 13085.87
201.9221, 13108.86
202.4042, 13124.65
202.8864, 13131.01
203.3685, 13131.04
203.8506, 13131.69
204.3327, 13132.91
204.8148, 13134.52
205.2969, 13136.62
205.7791, 13139.36
206.2612, 13141.47
206.7433, 13143.05
207.2254, 13143.79
207.7075, 13143.75
208.1896, 13144.17
208.6718, 13140.26
209.1539, 13126.94
209.6360, 13101.04
210.1181, 13083.36
210.6002, 13077.32
211.0823, 13079.14
211.5645, 13077.60
212.0466, 13070.94
212.5287, 13065.86
213.0108, 13066.72
213.4929, 13075.45
213.9750, 13083.51
214.4572, 13091.44
214.9393, 13098.11
215.4214, 13099.00
215.9035, 13090.38
216.3856, 13083.39
216.8678, 13085.84
217.3499, 13103.08
217.8320, 13110.88
218.3141, 13104.40
218.7962, 13088.32
219.2783, 13077.29
219.7605, 13071.41
220.2426, 13069.74
220.7247, 13072.71
221.2068, 13082.82
221.6889, 13090.03
222.1710, 13093.68
222.6532, 13094.26
223.1353, 13092.90
223.6174, 13089.32
224.0995, 13084.69
224.5816, 13079.55
225.0637, 13073.64
225.5459, 13068.14
226.0280, 13062.58
226.5101, 13057.69
226.9922, 13056.43
227.4743, 13062.40
227.9564, 13066.39
228.4386, 13063.34
228.9207, 13049.74
229.4028, 13037.42
229.8849, 13026.54
230.3670, 13016.83
230.8492, 13007.49
231.3313, 12999.05
231.8134, 12990.24
232.2955, 12979.91
232.7776, 12966.06
233.2597, 12956.51
233.7419, 12953.70
234.2240, 12954.87
234.7061, 12952.25
235.1882, 12943.06
235.6703, 12934.85
236.1524, 12930.95
236.6346, 12933.16
237.1167, 12936.31
237.5988, 12941.96
238.0809, 12948.06
238.5630, 12948.94
239.0451, 12939.48
239.5273, 12932.20
240.0094, 12932.76
240.4915, 12945.17
240.9736, 12954.11
241.4557, 12958.36
241.9378, 12959.32
242.4200, 12960.30
242.9021, 12962.95
243.3842, 12962.62
243.8663, 12956.75
244.3484, 12942.47
244.8306, 12930.87
245.3127, 12921.55
245.7948, 12915.21
246.2769, 12914.33
246.7590, 12924.30
247.2411, 12930.78
247.7233, 12928.39
248.2054, 12915.07
248.6875, 12900.63
249.1696, 12883.27
249.6517, 12866.33
250.1338, 12855.96
250.6160, 12856.24
251.0981, 12856.01
251.5802, 12852.11
252.0623, 12844.37
252.5444, 12833.32
253.0265, 12815.36
253.5087, 12797.23
253.9908, 12790.07
254.4729, 12800.72
254.9550, 12808.48
255.4371, 12806.32
255.9192, 12792.58
256.4014, 12783.10
256.8835, 12779.44
257.3656, 12778.48
257.8477, 12775.99
258.3298, 12770.25
258.8120, 12766.98
259.2941, 12769.32
259.7762, 12777.97
260.2583, 12777.63
260.7404, 12762.52
261.2225, 12745.19
261.7047, 12740.38
262.1868, 12754.60
262.6689, 12763.28
263.1510, 12758.55
263.6331, 12740.93
264.1152, 12732.36
264.5974, 12737.11
265.0795, 12744.35
265.5616, 12743.21
266.0437, 12731.10
266.5258, 12719.47
267.0079, 12709.74
267.4901, 12702.25
267.9722, 12701.44
268.4543, 12712.35
268.9364, 12720.62
269.4185, 12711.75
269.9006, 12680.27
270.3828, 12656.47
270.8649, 12646.38
271.3470, 12647.12
271.8291, 12645.00
272.3112, 12638.90
272.7933, 12631.93
273.2755, 12625.87
273.7576, 12620.32
274.2397, 12616.64
274.7218, 12616.15
275.2039, 12616.66
275.6860, 12611.19
276.1682, 12598.54
276.6503, 12584.32
277.1324, 12571.90
277.6145, 12561.71
278.0966, 12552.29
278.5787, 12544.33
279.0609, 12537.07
279.5430, 12528.57
280.0251, 12519.16
280.5072, 12509.06
280.9893, 12497.76
281.4715, 12485.52
281.9536, 12474.75
282.4357, 12464.58
282.9178, 12457.69
283.3999, 12460.81
283.8820, 12474.32
284.3642, 12486.88
284.8463, 12493.52
285.3284, 12494.14
285.8105, 12488.33
286.2926, 12473.66
286.7747, 12459.02
287.2569, 12457.75
287.7390, 12469.30
288.2211, 12483.14
288.7032, 12499.01
289.1853, 12514.25
289.6674, 12514.51
290.1496, 12498.03
290.6317, 12478.97
291.1138, 12477.42
291.5959, 12490.20
292.0780, 12494.08
292.5602, 12476.30
293.0423, 12446.68
293.5244, 12430.79
294.0065, 12429.23
294.4886, 12431.92
294.9707, 12431.55
295.4529, 12428.22
295.9350, 12421.79
296.4171, 12410.44
296.8992, 12397.64
297.3813, 12390.06
297.8634, 12387.40
298.3456, 12385.89
298.8277, 12383.79
299.3098, 12380.69
299.7919, 12374.96
300.2740, 12364.50
300.7561, 12354.53
301.2383, 12353.91
301.7204, 12360.84
302.2025, 12367.12
302.6846, 12365.25
303.1667, 12360.16
303.6488, 12360.85
304.1310, 12371.07
304.6131, 12379.67
305.0952, 12371.36
305.5773, 12351.81
306.0594, 12336.43
306.5415, 12335.52
307.0237, 12341.66
307.5058, 12348.26
307.9879, 12355.05
308.4700, 12359.11
308.9521, 12357.88
309.4343, 12352.38
309.9164, 12344.50
310.3985, 12330.02
310.8806, 12316.73
311.3627, 12312.18
311.8448, 12316.73
312.3270, 12321.10
312.8091, 12318.37
313.2912, 12312.81
313.7733, 12309.47
314.2554, 12312.51
314.7375, 12316.22
315.2197, 12317.29
315.7018, 12316.08
316.1839, 12315.67
316.6660, 12318.40
317.1481, 12322.07
317.6302, 12325.02
318.1124, 12328.78
318.5945, 12329.35
319.0766, 12322.84
319.5587, 12311.42
320.0408, 12302.56
320.5229, 12301.57
321.0051, 12301.65
321.4872, 12299.03
321.9693, 12292.54
322.4514, 12284.50
322.9335, 12271.81
323.4156, 12258.16
323.8978, 12250.64
324.3799, 12257.08
324.8620, 12264.13
325.3441, 12267.03
325.8262, 12264.31
326.3083, 12260.98
326.7905, 12256.50
327.2726, 12251.91
327.7547, 12248.54
328.2368, 12247.09
328.7189, 12246.13
329.2010, 12245.89
329.6832, 12246.60
330.1653, 12245.79
330.6474, 12244.64
331.1295, 12241.18
331.6116, 12233.42
332.0938, 12217.13
332.5759, 12203.17
333.0580, 12193.23
333.5401, 12186.83
334.0222, 12181.63
334.5043, 12179.41
334.9865, 12175.84
335.4686, 12167.08
335.9507, 12148.57
336.4328, 12137.86
336.9149, 12139.36
337.3970, 12147.44
337.8792, 12146.11
338.3613, 12131.82
338.8434, 12118.23
339.3255, 12112.28
339.8076, 12115.36
340.2898, 12116.33
340.7719, 12115.58
341.2540, 12112.47
341.7361, 12104.10
342.2182, 12089.75
342.7003, 12079.38
343.1825, 12079.70
343.6646, 12087.95
344.1467, 12082.90
344.6288, 12061.95
345.1109, 12040.32
345.5930, 12034.61
346.0752, 12043.41
346.5573, 12052.42
347.0394, 12058.87
347.5215, 12062.63
348.0036, 12062.67
348.4857, 12059.00
348.9679, 12054.86
349.4500, 12052.97
349.9321, 12052.46
350.4142, 12051.09
350.8963, 12048.67
351.3784, 12044.93
351.8606, 12038.59
352.3427, 12030.43
352.8248, 12023.15
353.3069, 12018.79
353.7890, 12016.18
354.2711, 12013.88
354.7533, 12011.85
355.2354, 12009.95
355.7175, 12011.13
356.1996, 12012.08
356.6817, 12006.96
357.1638, 11984.17
357.6460, 11960.99
358.1281, 11952.84
358.6102, 11958.68
359.0923, 11963.40
359.5744, 11957.86
360.0565, 11947.31
360.5387, 11936.69
361.0208, 11926.05
361.5029, 11917.23
361.9850, 11911.83
362.4671, 11909.11
362.9492, 11906.88
363.4314, 11905.67
363.9135, 11903.86
364.3956, 11900.29
364.8777, 11893.69
365.3598, 11888.12
365.8419, 11884.75
366.3241, 11882.92
366.8062, 11881.62
367.2883, 11882.61
367.7704, 11882.25
368.2526, 11879.67
368.7347, 11874.76
369.2168, 11867.63
369.6989, 11854.93
370.1810, 11842.00
370.6631, 11833.13
371.1453, 11830.80
371.6274, 11828.84
372.1095, 11826.21
372.5916, 11823.23
373.0737, 11822.35
373.5558, 11826.10
374.0380, 11828.18
374.5201, 11823.70
375.0022, 11808.64
375.4843, 11801.00
375.9664, 11803.75
376.4485, 11812.10
376.9307, 11816.92
377.4128, 11817.72
377.8949, 11816.75
378.3770, 11814.73
378.8591, 11811.65
379.3412, 11807.71
379.8234, 11803.36
380.3055, 11796.64
380.7876, 11783.30
381.2697, 11763.80
381.7518, 11748.59
382.2339, 11741.61
382.7161, 11739.86
383.1982, 11736.46
383.6803, 11731.54
384.1624, 11726.85
384.6445, 11723.94
385.1266, 11722.32
385.6088, 11720.80
386.0909, 11719.20
386.5730, 11717.76
387.0551, 11717.81
387.5372, 11718.44
388.0193, 11716.95
388.5015, 11709.27
388.9836, 11700.11
389.4657, 11694.29
389.9478, 11692.04
390.4299, 11692.18
390.9120, 11697.45
391.3942, 11703.50
391.8763, 11704.85
392.3584, 11693.51
392.8405, 11682.89
393.3226, 11682.31
393.8047, 11689.33
394.2869, 11692.58
394.7690, 11684.90
395.2511, 11674.05
395.7332, 11664.42
396.2154, 11655.68
396.6975, 11650.44
397.1796, 11651.10
397.6617, 11655.33
398.1438, 11659.12
398.6259, 11661.92
399.1081, 11664.16
399.5902, 11666.96
400.0723, 11671.12
400.5544, 11669.21
401.0365, 11654.30
401.5186, 11638.15
402.0008, 11631.03
402.4829, 11639.30
402.9650, 11644.11
403.4471, 11643.06
403.9292, 11636.86
404.4113, 11628.03
404.8935, 11614.85
405.3756, 11602.87
405.8577, 11595.79
406.3398, 11594.70
406.8219, 11592.00
407.3040, 11588.45
407.7862, 11582.15
408.2683, 11569.04
408.7504, 11549.09
409.2325, 11529.12
409.7146, 11510.83
410.1967, 11494.82
410.6789, 11481.00
411.1610, 11469.42
411.6431, 11461.86
412.1252, 11461.69
412.6073, 11466.97
413.0894, 11472.69
413.5716, 11478.70
414.0537, 11482.69
414.5358, 11479.55
415.0179, 11471.31
415.5000, 11464.63
415.9821, 11465.66
416.4643, 11468.45
416.9464, 11466.22
417.4285, 11458.02
417.9106, 11448.89
418.3927, 11441.21
418.8748, 11434.50
419.3570, 11428.42
419.8391, 11420.27
420.3212, 11415.09
420.8033, 11417.61
421.2854, 11425.95
421.7675, 11431.01
422.2497, 11426.01
422.7318, 11420.28
423.2139, 11419.83
423.6960, 11430.97
424.1781, 11435.58
424.6602, 11427.83
425.1424, 11413.67
425.6245, 11401.67
426.1066, 11393.23
426.5887, 11385.43
427.0709, 11376.16
427.5530, 11365.38
428.0351, 11363.15
428.5172, 11375.26
428.9993, 11387.72
429.4814, 11388.81
429.9636, 11373.79
430.4457, 11366.33
430.9278, 11371.66
431.4099, 11382.21
431.8920, 11378.62
432.3741, 11358.37
432.8563, 11343.19
433.3384, 11347.61
433.8205, 11367.52
434.3026, 11373.36
434.7847, 11364.00
435.2668, 11350.22
435.7490, 11342.57
436.2311, 11339.58
436.7132, 11336.09
437.1953, 11330.08
437.6774, 11323.86
438.1595, 11321.93
438.6417, 11323.01
439.1238, 11321.82
439.6059, 11311.59
440.0880, 11299.39
440.5701, 11293.50
441.0522, 11295.62
441.5344, 11298.63
442.0165, 11299.01
442.4986, 11297.44
442.9807, 11294.71
443.4628, 11293.69
443.9449, 11288.97
444.4271, 11275.41
444.9092, 11254.89
445.3913, 11238.25
445.8734, 11229.17
446.3555, 11224.07
446.8376, 11221.80
447.3198, 11225.28
447.8019, 11225.31
448.2840, 11218.20
448.7661, 11208.99
449.2482, 11205.10
449.7303, 11210.90
450.2125, 11214.83
450.6946, 11214.94
451.1767, 11211.25
451.6588, 11203.01
452.1409, 11187.97
452.6230, 11173.64
453.1052, 11166.65
453.5873, 11167.71
454.0694, 11165.89
454.5515, 11160.12
455.0337, 11151.55
455.5158, 11139.93
455.9979, 11125.62
456.4800, 11116.29
456.9621, 11119.09
457.4442, 11127.88
457.9264, 11127.81
458.4085, 11119.18
458.8906, 11107.96
459.3727, 11098.45
459.8548, 11089.87
460.3369, 11080.68
460.8191, 11069.40
461.3012, 11060.23
461.7833, 11057.55
462.2654, 11059.50
462.7475, 11062.14
463.2296, 11068.23
463.7118, 11070.87
464.1939, 11064.38
464.6760, 11048.21
465.1581, 11032.94
465.6402, 11018.85
466.1223, 11008.49
466.6045, 11003.83
467.0866, 11013.30
467.5687, 11017.97
468.0508, 11013.12
468.5329, 11003.00
469.0150, 10997.15
469.4972, 10997.90
469.9793, 10999.55
470.4614, 11001.25
470.9435, 11003.27
471.4256, 11000.89
471.9077, 10992.88
472.3899, 10983.29
472.8720, 10975.07
473.3541, 10968.09
473.8362, 10964.92
474.3183, 10967.62
474.8004, 10971.57
475.2826, 10965.95
475.7647, 10951.43
476.2468, 10937.82
476.7289, 10931.60
477.2110, 10929.38
477.6931, 10922.83
478.1753, 10911.82
478.6574, 10902.16
479.1395, 10900.96
479.6216, 10903.49
480.1037, 10902.76
480.5858, 10896.38
481.0680, 10887.54
481.5501, 10878.30
482.0322, 10868.36
482.5143, 10857.08
482.9964, 10838.97
483.4786, 10824.21
483.9607, 10820.08
484.4428, 10828.05
484.9249, 10832.00
485.4070, 10825.85
485.8892, 10816.59
486.3713, 10809.08
486.8534, 10803.84
487.3355, 10799.88
487.8176, 10797.69
488.2997, 10796.55
488.7819, 10794.59
489.2640, 10790.61
489.7461, 10788.38
490.2282, 10790.05
490.7103, 10795.12
491.1924, 10795.97
491.6746, 10792.04
492.1567, 10785.76
492.6388, 10778.03
493.1209, 10769.10
493.6030, 10762.60
494.0851, 10758.95
494.5673, 10757.42
495.0494, 10758.61
495.5315, 10761.45
496.0136, 10762.21
496.4957, 10758.55
496.9778, 10752.34
497.4600, 10744.70
497.9421, 10735.93
498.4242, 10728.05
498.9063, 10722.37
499.3884, 10718.08
499.8705, 10714.85
500.3527, 10713.81
500.8348, 10710.91
501.3169, 10703.37
501.7990, 10693.59
502.2811, 10684.91
502.7632, 10681.31
503.2454, 10675.46
503.7275, 10663.42
504.2096, 10646.30
504.6917, 10635.62
505.1738, 10636.52
505.6559, 10637.32
506.1381, 10631.31
506.6202, 10616.10
507.1023, 10604.02
507.5844, 10594.91
508.0665, 10589.45
508.5486, 10590.54
509.0308, 10598.38
509.5129, 10602.82
509.9950, 10599.41
510.4771, 10592.48
510.9592, 10592.13
511.4413, 10597.58
511.9235, 10602.83
512.4056, 10605.12
512.8877, 10604.21
513.3698, 10597.60
513.8519, 10584.45
514.3340, 10574.76
514.8162, 10581.07
515.2983, 10593.15
515.7804, 10598.71
516.2625, 10590.71
516.7446, 10580.11
517.2267, 10571.14
517.7089, 10563.11
518.1910, 10554.15
518.6731, 10542.81
519.1552, 10531.78
519.6373, 10521.54
520.1194, 10511.79
520.6016, 10505.49
521.0837, 10503.22
521.5658, 10503.64
522.0479, 10506.44
522.5300, 10512.89
523.0121, 10516.97
523.4943, 10518.82
523.9764, 10517.27
524.4585, 10507.81
524.9406, 10490.32
525.4227, 10476.56
525.9048, 10471.57
526.3870, 10472.90
526.8691, 10476.61
527.3513, 10482.36
527.8334, 10484.16
528.3155, 10474.73
528.7976, 10459.84
529.2797, 10446.75
529.7618, 10435.79
530.2440, 10429.89
530.7261, 10438.19
531.2082, 10450.57
531.6903, 10453.90
532.1724, 10432.17
532.6545, 10413.16
533.1367, 10408.15
533.6188, 10413.41
534.1009, 10415.33
534.5830, 10409.10
535.0651, 10401.94
535.5472, 10395.78
536.0294, 10390.37
536.5115, 10388.02
536.9936, 10390.87
537.4757, 10393.87
537.9578, 10392.08
538.4399, 10384.32
538.9221, 10379.70
539.4042, 10380.26
539.8863, 10382.24
540.3684, 10378.11
540.8505, 10368.37
541.3326, 10359.18
541.8148, 10353.67
542.2969, 10349.89
542.7790, 10344.74
543.2611, 10338.25
543.7432, 10330.40
544.2253, 10318.51
544.7075, 10306.74
545.1896, 10300.35
545.6717, 10301.14
546.1538, 10301.20
546.6359, 10295.80
547.1180, 10288.00
547.6002, 10281.08
548.0823, 10274.87
548.5644, 10270.69
549.0465, 10270.68
549.5286, 10272.90
550.0107, 10271.73
550.4929, 10265.10
550.9750, 10258.02
551.4571, 10252.56
551.9392, 10248.65
552.4213, 10240.28
552.9034, 10225.68
553.3856, 10211.83
553.8677, 10205.82
554.3498, 10206.80
554.8319, 10204.45
555.3140, 10197.32
555.7961, 10188.27
556.2783, 10180.64
556.7604, 10174.16
557.2425, 10168.14
557.7246, 10162.63
558.2067, 10157.27
558.6888, 10153.49
559.1710, 10150.11
559.6531, 10142.94
560.1352, 10122.30
560.6173, 10103.52
561.0994, 10098.22
561.5815, 10109.28
562.0637, 10115.94
562.5458, 10111.44
563.0279, 10102.79
563.5100, 10095.06
563.9921, 10088.46
564.4742, 10082.07
564.9564, 10075.43
565.4385, 10069.09
565.9206, 10064.33
566.4027, 10061.40
566.8848, 10058.05
567.3669, 10052.81
567.8491, 10047.04
568.3312, 10046.70
568.8133, 10051.54
569.2954, 10055.06
569.7775, 10054.31
570.2596, 10049.08
570.7418, 10036.73
571.2239, 10016.77
571.7060, 9998.710
572.1881, 9989.534
572.6702, 9986.322
573.1523, 9986.676
573.6345, 9994.778
574.1166, 9997.739
574.5987, 9985.139
575.0808, 9965.432
575.5629, 9952.432
576.0450, 9958.754
576.5272, 9960.479
577.0093, 9951.419
577.4914, 9933.441
577.9735, 9918.157
578.4556, 9905.803
578.9377, 9896.108
579.4199, 9889.452
579.9020, 9886.061
580.3841, 9883.075
580.8662, 9880.919
581.3483, 9877.676
581.8304, 9870.364
582.3126, 9860.303
582.7947, 9851.566
583.2768, 9844.448
583.7589, 9840.225
584.2410, 9841.577
584.7231, 9846.607
585.2053, 9851.605
585.6874, 9856.181
586.1696, 9858.875
586.6517, 9858.306
587.1338, 9854.740
587.6159, 9850.000
588.0980, 9841.731
588.5801, 9834.515
589.0623, 9831.362
589.5444, 9833.479
590.0265, 9830.905
590.5086, 9821.549
590.9907, 9810.321
591.4728, 9801.065
591.9550, 9794.380
592.4371, 9787.517
592.9192, 9780.450
593.4013, 9773.616
593.8834, 9768.690
594.3655, 9765.219
594.8477, 9759.063
595.3298, 9747.069
595.8119, 9734.447
596.2940, 9729.665
596.7761, 9730.593
597.2582, 9729.920
597.7404, 9720.044
598.2225, 9709.832
598.7046, 9706.076
599.1867, 9708.974
599.6688, 9711.433
600.1509, 9711.248
600.6331, 9709.709
601.1152, 9707.791
601.5973, 9706.896
602.0794, 9702.082
602.5615, 9692.230
603.0436, 9679.558
603.5258, 9665.642
604.0079, 9649.540
604.4900, 9638.667
604.9721, 9636.143
605.4542, 9637.130
605.9363, 9630.104
606.4185, 9616.410
606.9006, 9606.696
607.3827, 9610.248
607.8648, 9618.123
608.3469, 9616.333
608.8290, 9606.360
609.3112, 9596.537
609.7933, 9590.738
610.2754, 9587.562
610.7575, 9585.942
611.2396, 9585.741
611.7217, 9586.828
612.2039, 9593.658
612.6860, 9598.682
613.1681, 9595.626
613.6502, 9575.516
614.1323, 9562.681
614.6144, 9559.710
615.0966, 9561.976
615.5787, 9563.719
616.0608, 9565.365
616.5429, 9563.808
617.0250, 9558.104
617.5071, 9549.260
617.9893, 9538.281
618.4714, 9525.667
618.9535, 9515.051
619.4356, 9509.281
619.9177, 9506.009
620.3998, 9502.897
620.8820, 9499.812
621.3641, 9495.634
621.8462, 9486.608
622.3283, 9478.295
622.8104, 9476.068
623.2925, 9483.078
623.7747, 9485.491
624.2568, 9474.940
624.7389, 9462.263
625.2210, 9456.650
625.7031, 9463.518
626.1852, 9464.800
626.6674, 9457.446
627.1495, 9446.442
627.6316, 9440.598
628.1137, 9440.178
628.5958, 9438.191
629.0779, 9431.358
629.5601, 9423.396
630.0422, 9423.610
630.5243, 9430.172
631.0064, 9434.078
631.4885, 9428.173
631.9706, 9418.937
632.4528, 9412.158
632.9349, 9407.985
633.4170, 9404.274
633.8991, 9400.495
634.3812, 9396.694
634.8633, 9392.875
635.3455, 9389.151
635.8276, 9385.121
636.3097, 9379.339
636.7918, 9374.498
637.2739, 9372.923
637.7560, 9375.020
638.2382, 9378.620
638.7203, 9384.096
639.2024, 9389.454
639.6845, 9391.620
640.1666, 9390.703
640.6487, 9388.311
641.1309, 9383.815
641.6130, 9379.286
642.0951, 9378.197
642.5772, 9379.471
643.0594, 9380.333
643.5415, 9382.919
644.0236, 9381.614
644.5057, 9369.936
644.9879, 9349.342
645.4700, 9333.926
645.9521, 9333.089
646.4342, 9332.821
646.9163, 9327.330
647.3984, 9316.260
647.8806, 9303.013
648.3627, 9285.890
648.8448, 9270.190
649.3269, 9261.051
649.8090, 9258.598
650.2911, 9254.661
650.7733, 9248.419
651.2554, 9241.734
651.7375, 9235.152
652.2196, 9229.802
652.7017, 9228.675
653.1838, 9233.848
653.6660, 9240.690
654.1481, 9248.022
654.6302, 9253.946
655.1123, 9255.253
655.5944, 9243.876
656.0765, 9234.700
656.5587, 9233.560
657.0408, 9238.621
657.5229, 9241.437
658.0050, 9241.348
658.4871, 9239.590
658.9692, 9236.015
659.4514, 9230.825
659.9335, 9226.632
660.4156, 9223.446
660.8977, 9221.264
661.3798, 9222.297
661.8619, 9224.243
662.3441, 9220.090
662.8262, 9209.390
663.3083, 9197.111
663.7904, 9186.522
664.2725, 9176.974
664.7546, 9167.652
665.2368, 9158.088
665.7189, 9149.966
666.2010, 9145.499
666.6831, 9142.162
667.1652, 9137.011
667.6473, 9128.876
668.1295, 9120.786
668.6116, 9112.095
669.0937, 9104.239
669.5758, 9101.351
670.0579, 9104.244
670.5400, 9103.625
671.0222, 9095.000
671.5043, 9082.908
671.9864, 9075.524
672.4685, 9072.651
672.9506, 9073.826
673.4327, 9084.658
673.9149, 9094.885
674.3970, 9093.851
674.8791, 9082.634
675.3612, 9071.083
675.8433, 9059.344
676.3254, 9051.335
676.8076, 9051.629
677.2897, 9063.028
677.7718, 9065.285
678.2539, 9052.526
678.7360, 9039.225
679.2181, 9036.335
679.7003, 9045.408
680.1824, 9050.185
680.6645, 9049.845
681.1466, 9047.129
681.6287, 9044.792
682.1108, 9042.401
682.5930, 9038.601
683.0751, 9032.607
683.5572, 9026.357
684.0393, 9021.113
684.5214, 9016.478
685.0035, 9011.908
685.4857, 9005.607
685.9678, 9000.936
686.4499, 8999.049
686.9320, 8999.291
687.4141, 9000.476
687.8962, 9004.594
688.3784, 9005.833
688.8605, 9002.489
689.3426, 8995.675
689.8247, 8988.938
690.3068, 8982.317
690.7889, 8975.355
691.2711, 8967.659
691.7532, 8959.601
692.2353, 8953.140
692.7174, 8947.724
693.1995, 8939.415
693.6816, 8920.372
694.1638, 8901.573
694.6459, 8893.069
695.1280, 8896.091
695.6101, 8897.089
696.0922, 8890.854
696.5743, 8883.439
697.0565, 8878.520
697.5386, 8877.476
698.0207, 8872.595
698.5028, 8861.670
698.9849, 8851.830
699.4670, 8851.397
699.9492, 8859.293
700.4313, 8864.238
700.9135, 8864.816
701.3956, 8862.598
701.8777, 8857.825
702.3598, 8851.526
702.8419, 8845.470
703.3240, 8839.845
703.8062, 8834.580
704.2883, 8829.932
704.7704, 8825.376
705.2525, 8820.335
705.7346, 8813.251
706.2167, 8807.565
706.6989, 8804.226
707.1810, 8802.372
707.6631, 8800.266
708.1452, 8798.240
708.6273, 8795.144
709.1094, 8790.417
709.5916, 8784.915
710.0737, 8780.802
710.5558, 8777.812
711.0379, 8774.076
711.5200, 8767.185
712.0021, 8760.107
712.4843, 8755.019
712.9664, 8751.777
713.4485, 8749.778
713.9306, 8751.495
714.4127, 8751.748
714.8948, 8747.160
715.3770, 8737.593
715.8591, 8730.248
716.3412, 8726.855
716.8233, 8722.341
717.3054, 8713.737
717.7875, 8701.146
718.2697, 8686.619
718.7518, 8669.694
719.2339, 8656.396
719.7160, 8656.037
720.1981, 8661.259
720.6802, 8659.882
721.1624, 8650.080
721.6445, 8638.301
722.1266, 8625.482
722.6087, 8614.113
723.0908, 8606.923
723.5729, 8608.171
724.0551, 8605.653
724.5372, 8596.025
725.0193, 8585.126
725.5014, 8579.429
725.9835, 8580.038
726.4656, 8578.799
726.9478, 8574.131
727.4299, 8569.343
727.9120, 8572.085
728.3941, 8578.919
728.8762, 8578.044
729.3583, 8563.265
729.8405, 8546.122
730.3226, 8533.896
730.8047, 8526.244
731.2868, 8522.974
731.7689, 8529.387
732.2510, 8533.736
732.7332, 8533.479
733.2153, 8529.447
733.6974, 8522.358
734.1795, 8510.534
734.6616, 8500.381
735.1437, 8493.537
735.6259, 8489.450
736.1080, 8487.462
736.5901, 8487.336
737.0722, 8487.126
737.5543, 8485.497
738.0364, 8483.505
738.5186, 8483.379
739.0007, 8484.129
739.4828, 8482.325
739.9649, 8476.089
740.4470, 8467.358
740.9291, 8455.158
741.4113, 8440.179
741.8934, 8429.649
742.3755, 8425.022
742.8576, 8422.551
743.3397, 8421.944
743.8218, 8422.593
744.3040, 8418.022
744.7861, 8408.188
745.2682, 8398.237
745.7503, 8392.404
746.2324, 8388.354
746.7145, 8382.459
747.1967, 8374.598
747.6788, 8366.405
748.1609, 8356.514
748.6430, 8348.271
749.1251, 8344.508
749.6072, 8346.661
750.0894, 8347.044
750.5715, 8344.979
751.0536, 8341.776
751.5357, 8338.496
752.0178, 8335.299
752.4999, 8329.482
752.9821, 8320.563
753.4642, 8312.233
753.9463, 8307.057
754.4284, 8305.261
754.9105, 8309.912
755.3926, 8322.572
755.8748, 8329.183
756.3569, 8312.327
756.8390, 8290.173
757.3211, 8279.705
757.8032, 8291.704
758.2853, 8297.159
758.7675, 8290.814
759.2496, 8281.013
759.7318, 8275.433
760.2139, 8274.888
760.6960, 8272.989
761.1781, 8269.228
761.6602, 8264.426
762.1423, 8257.476
762.6245, 8250.515
763.1066, 8249.985
763.5887, 8259.769
764.0708, 8267.876
764.5529, 8265.450
765.0350, 8256.776
765.5172, 8246.886
765.9993, 8231.760
766.4814, 8222.470
766.9635, 8221.238
767.4456, 8224.411
767.9277, 8228.369
768.4099, 8233.819
768.8920, 8234.379
769.3741, 8228.253
769.8562, 8218.570
770.3383, 8208.816
770.8204, 8199.201
771.3026, 8190.225
771.7847, 8181.688
772.2668, 8174.693
772.7489, 8171.632
773.2310, 8170.344
773.7131, 8167.439
774.1953, 8161.070
774.6774, 8154.651
775.1595, 8147.133
775.6416, 8140.811
776.1237, 8141.269
776.6058, 8149.847
777.0880, 8154.713
777.5701, 8152.353
778.0522, 8146.020
778.5343, 8140.671
779.0164, 8135.755
779.4985, 8129.675
779.9807, 8119.081
780.4628, 8110.306
780.9449, 8107.264
781.4270, 8108.785
781.9091, 8112.425
782.3912, 8122.359
782.8734, 8128.381
783.3555, 8128.498
783.8376, 8124.174
784.3197, 8117.638
784.8018, 8108.369
785.2839, 8104.243
785.7661, 8111.201
786.2482, 8119.577
786.7303, 8108.138
787.2124, 8084.188
787.6945, 8068.200
788.1766, 8079.789
788.6588, 8091.603
789.1409, 8085.433
789.6230, 8068.525
790.1051, 8062.088
790.5872, 8077.446
791.0693, 8088.845
791.5515, 8090.786
792.0336, 8085.737
792.5157, 8079.460
792.9978, 8071.968
793.4799, 8066.709
793.9620, 8065.750
794.4442, 8066.762
794.9263, 8067.079
795.4084, 8066.531
795.8905, 8064.675
796.3726, 8060.777
796.8547, 8055.976
797.3369, 8048.851
797.8190, 8040.938
798.3011, 8037.388
798.7832, 8039.974
799.2653, 8043.142
799.7474, 8045.584
800.2296, 8047.551
800.7117, 8050.651
801.1938, 8054.564
801.6759, 8056.059
802.1580, 8054.556
802.6401, 8049.237
803.1223, 8036.544
803.6044, 8019.265
804.0865, 8004.780
804.5686, 7995.236
805.0507, 7989.693
805.5328, 7991.701
806.0150, 7997.377
806.4971, 7995.321
806.9792, 7981.750
807.4613, 7973.454
807.9434, 7977.476
808.4255, 7986.856
808.9077, 7983.875
809.3898, 7971.239
809.8719, 7961.446
810.3540, 7963.039
810.8361, 7966.162
811.3182, 7962.033
811.8004, 7953.444
812.2825, 7947.030
812.7646, 7945.201
813.2467, 7944.883
813.7288, 7945.871
814.2109, 7947.872
814.6931, 7950.533
815.1752, 7954.218
815.6573, 7956.190
816.1394, 7955.297
816.6215, 7953.158
817.1037, 7950.267
817.5858, 7948.269
818.0679, 7951.399
818.5500, 7967.102
819.0322, 7982.162
819.5143, 7987.417
819.9964, 7987.576
820.4785, 7992.744
820.9606, 8007.341
821.4427, 8019.118
821.9249, 8025.838
822.4070, 8029.060
822.8891, 8031.660
823.3712, 8033.628
823.8533, 8034.615
824.3354, 8033.972
824.8176, 8033.732
825.2997, 8034.701
825.7818, 8038.144
826.2639, 8046.111
826.7460, 8066.255
827.2281, 8082.833
827.7103, 8090.798
828.1924, 8094.195
828.6745, 8097.801
829.1566, 8101.224
829.6387, 8107.099
830.1208, 8117.476
830.6030, 8126.079
831.0851, 8120.492
831.5672, 8105.128
832.0493, 8092.832
832.5314, 8089.188
833.0135, 8083.574
833.4957, 8066.391
833.9778, 8044.283
834.4599, 8024.765
834.9420, 8015.310
835.4241, 8000.300
835.9063, 7978.047
836.3884, 7952.529
836.8705, 7929.361
837.3526, 7908.435
837.8347, 7882.099
838.3168, 7847.777
838.7990, 7815.405
839.2811, 7798.010
839.7632, 7787.383
840.2453, 7772.139
840.7274, 7748.714
841.2095, 7724.250
841.6917, 7697.506
842.1738, 7673.219
842.6559, 7655.435
843.1380, 7647.188
843.6201, 7633.514
844.1022, 7612.739
844.5844, 7592.297
845.0665, 7580.441
845.5486, 7574.331
846.0307, 7565.870
846.5128, 7554.272
846.9949, 7544.005
847.4771, 7539.479
847.9592, 7536.567
848.4413, 7532.516
848.9234, 7527.151
849.4055, 7518.892
849.8876, 7503.820
850.3698, 7492.185
850.8519, 7490.873
851.3340, 7499.054
851.8161, 7508.500
852.2982, 7519.116
852.7803, 7526.979
853.2625, 7527.839
853.7446, 7525.260
854.2267, 7522.640
854.7088, 7520.168
855.1909, 7517.622
855.6730, 7515.068
856.1552, 7512.483
856.6373, 7510.649
857.1194, 7509.174
857.6015, 7504.923
858.0836, 7498.206
858.5657, 7486.619
859.0479, 7467.280
859.5300, 7443.479
860.0121, 7420.680
860.4942, 7398.972
860.9763, 7378.775
861.4584, 7360.437
861.9406, 7344.072
862.4227, 7330.725
862.9048, 7319.606
863.3869, 7308.007
863.8690, 7294.538
864.3511, 7283.666
864.8333, 7276.395
865.3154, 7272.058
865.7975, 7271.223
866.2796, 7272.354
866.7617, 7268.437
867.2438, 7253.584
867.7260, 7238.565
868.2081, 7232.515
868.6902, 7231.202
869.1723, 7227.891
869.6544, 7219.718
870.1365, 7211.347
870.6187, 7202.881
871.1008, 7194.537
871.5829, 7186.708
872.0650, 7179.438
872.5471, 7172.964
873.0292, 7167.600
873.5114, 7161.875
873.9935, 7153.767
874.4756, 7144.680
874.9577, 7136.405
875.4399, 7129.378
875.9220, 7122.709
876.4041, 7115.414
876.8862, 7109.155
877.3683, 7105.486
877.8505, 7105.005
878.3326, 7102.253
878.8147, 7096.848
879.2968, 7091.514
879.7789, 7089.290
880.2610, 7088.444
880.7432, 7087.008
881.2253, 7084.703
881.7074, 7079.067
882.1895, 7064.291
882.6716, 7050.159
883.1537, 7043.219
883.6359, 7043.026
884.1180, 7039.374
884.6001, 7031.748
885.0822, 7022.996
885.5643, 7013.841
886.0464, 7004.959
886.5286, 6997.917
887.0107, 6992.579
887.4928, 6988.289
887.9749, 6985.201
888.4570, 6982.646
888.9391, 6981.946
889.4213, 6981.491
889.9034, 6975.911
890.3855, 6961.697
890.8676, 6950.911
891.3497, 6946.999
891.8318, 6946.166
892.3140, 6940.119
892.7961, 6930.479
893.2782, 6923.809
893.7603, 6922.792
894.2424, 6923.656
894.7245, 6926.842
895.2067, 6928.910
895.6888, 6925.508
896.1709, 6910.505
896.6530, 6898.898
897.1351, 6891.784
897.6172, 6886.501
898.0994, 6880.046
898.5815, 6872.823
899.0636, 6868.983
899.5457, 6869.237
900.0278, 6868.124
900.5099, 6858.288
900.9921, 6846.917
901.4742, 6841.200
901.9563, 6842.896
902.4384, 6842.941
902.9205, 6839.239
903.4026, 6835.350
903.8848, 6833.250
904.3669, 6832.538
904.8490, 6829.765
905.3311, 6824.941
905.8132, 6819.094
906.2953, 6811.257
906.7775, 6803.806
907.2596, 6799.728
907.7417, 6798.077
908.2238, 6795.419
908.7059, 6790.078
909.1880, 6784.537
909.6702, 6779.295
910.1523, 6774.228
910.6344, 6768.995
911.1165, 6763.632
911.5986, 6758.411
912.0807, 6753.417
912.5629, 6748.698
913.0450, 6745.058
913.5271, 6741.506
914.0092, 6736.334
914.4913, 6727.647
914.9734, 6720.101
915.4556, 6714.680
915.9377, 6710.332
916.4198, 6706.597
916.9019, 6703.604
917.3840, 6697.757
917.8661, 6688.344
918.3483, 6680.899
918.8304, 6683.442
919.3125, 6689.072
919.7946, 6689.562
920.2767, 6684.050
920.7589, 6675.847
921.2410, 6659.799
921.7231, 6648.001
922.2052, 6647.036
922.6873, 6655.128
923.1694, 6655.846
923.6516, 6648.932
924.1337, 6642.312
924.6158, 6641.349
925.0979, 6641.526
925.5800, 6635.748
926.0621, 6626.361
926.5443, 6619.213
927.0264, 6619.749
927.5085, 6618.351
927.9906, 6612.398
928.4727, 6604.044
928.9548, 6596.388
929.4370, 6589.456
929.9191, 6584.539
930.4012, 6582.096
930.8833, 6581.108
931.3654, 6582.583
931.8475, 6583.889
932.3297, 6580.659
932.8118, 6570.241
933.2939, 6561.897
933.7761, 6559.590
934.2582, 6557.954
934.7403, 6553.667
935.2224, 6546.544
935.7045, 6541.820
936.1866, 6539.603
936.6688, 6534.836
937.1509, 6520.128
937.6330, 6503.661
938.1151, 6494.942
938.5972, 6493.213
939.0793, 6493.251
939.5615, 6499.968
940.0436, 6500.137
940.5257, 6488.086
941.0078, 6469.052
941.4899, 6457.524
941.9720, 6453.265
942.4542, 6449.422
942.9363, 6443.877
943.4184, 6438.178
943.9005, 6432.985
944.3826, 6428.990
944.8647, 6427.313
945.3469, 6431.124
945.8290, 6431.341
946.3111, 6426.345
946.7932, 6418.803
947.2753, 6409.994
947.7574, 6400.015
948.2396, 6393.905
948.7217, 6391.863
949.2038, 6389.749
949.6859, 6383.205
950.1680, 6376.111
950.6501, 6372.494
951.1323, 6372.365
951.6144, 6371.003
952.0965, 6367.485
952.5786, 6363.501
953.0607, 6359.784
953.5428, 6353.797
954.0250, 6349.185
954.5071, 6340.452
954.9892, 6331.979
955.4713, 6323.509
955.9534, 6317.648
956.4355, 6319.758
956.9177, 6324.441
957.3998, 6323.692
957.8819, 6312.794
958.3640, 6303.404
958.8461, 6295.358
959.3282, 6289.729
959.8104, 6290.370
960.2925, 6294.521
960.7746, 6290.699
961.2567, 6278.056
961.7388, 6267.959
962.2209, 6272.035
962.7031, 6277.437
963.1852, 6273.849
963.6673, 6261.593
964.1494, 6255.610
964.6315, 6258.058
965.1136, 6259.274
965.5958, 6255.495
966.0779, 6248.247
966.5600, 6237.769
967.0421, 6226.385
967.5242, 6220.959
968.0063, 6229.752
968.4885, 6237.188
968.9706, 6238.779
969.4527, 6235.069
969.9348, 6225.825
970.4169, 6209.183
970.8990, 6196.394
971.3812, 6188.141
971.8633, 6183.685
972.3454, 6185.353
972.8275, 6188.970
973.3096, 6188.530
973.7917, 6183.428
974.2739, 6175.919
974.7560, 6161.984
975.2381, 6151.184
975.7202, 6148.260
976.2023, 6151.316
976.6844, 6151.101
977.1666, 6147.653
977.6487, 6141.993
978.1308, 6133.230
978.6129, 6124.793
979.0950, 6120.220
979.5771, 6118.519
980.0593, 6117.963
980.5414, 6123.581
981.0235, 6121.422
981.5056, 6106.154
981.9877, 6089.948
982.4698, 6087.523
982.9520, 6095.876
983.4341, 6094.953
983.9162, 6083.534
984.3983, 6072.086
984.8804, 6068.916
985.3625, 6067.788
985.8447, 6064.493
986.3268, 6058.807
986.8089, 6052.853
987.2910, 6046.297
987.7731, 6040.530
988.2552, 6035.744
988.7374, 6032.474
989.2195, 6034.043
989.7016, 6037.981
990.1837, 6037.490
990.6658, 6028.163
991.1479, 6018.381
991.6301, 6010.672
992.1122, 6004.818
992.5944, 6000.834
993.0765, 5999.384
993.5586, 5996.137
994.0407, 5990.847
994.5228, 5985.042
995.0049, 5979.860
995.4871, 5974.938
995.9692, 5968.934
996.4513, 5962.258
996.9334, 5958.083
997.4155, 5961.788
997.8976, 5962.437
998.3798, 5956.087
998.8619, 5946.032
999.3440, 5939.603
999.8261, 5936.644
1000.308, 5936.553
1000.790, 5940.407
1001.272, 5942.842
1001.755, 5938.227
1002.237, 5930.420
1002.719, 5923.602
1003.201, 5918.805
1003.683, 5913.159
1004.165, 5906.271
1004.647, 5899.526
1005.129, 5894.204
1005.612, 5889.630
1006.094, 5883.229
1006.576, 5875.505
1007.058, 5868.346
1007.540, 5862.528
1008.022, 5857.903
1008.504, 5854.912
1008.986, 5852.867
1009.468, 5850.351
1009.951, 5847.116
1010.433, 5845.658
1010.915, 5846.615
1011.397, 5847.827
1011.879, 5848.056
1012.361, 5846.392
1012.843, 5840.464
1013.325, 5829.039
1013.807, 5821.267
1014.290, 5820.835
1014.772, 5820.986
1015.254, 5819.180
1015.736, 5815.603
1016.218, 5810.896
1016.700, 5805.063
1017.182, 5798.044
1017.664, 5788.643
1018.147, 5779.555
1018.629, 5772.374
1019.111, 5766.736
1019.593, 5761.724
1020.075, 5756.521
1020.557, 5755.548
1021.039, 5760.749
1021.521, 5763.249
1022.003, 5750.366
1022.486, 5730.699
1022.968, 5719.662
1023.450, 5717.649
1023.932, 5718.026
1024.414, 5723.080
1024.896, 5724.134
1025.378, 5716.603
1025.860, 5704.219
1026.343, 5696.974
1026.825, 5694.862
1027.307, 5697.516
1027.789, 5706.854
1028.271, 5714.373
1028.753, 5711.523
1029.235, 5703.167
1029.717, 5694.373
1030.199, 5685.405
1030.682, 5677.270
1031.164, 5670.011
1031.646, 5663.273
1032.128, 5657.134
1032.610, 5651.143
1033.092, 5642.248
1033.574, 5632.135
1034.056, 5627.292
1034.539, 5637.372
1035.021, 5644.933
1035.503, 5642.154
1035.985, 5635.461
1036.467, 5634.114
1036.949, 5638.343
1037.431, 5638.198
1037.913, 5632.400
1038.396, 5624.041
1038.878, 5613.730
1039.360, 5603.666
1039.842, 5595.378
1040.324, 5589.170
1040.806, 5586.514
1041.288, 5590.709
1041.770, 5590.244
1042.252, 5579.756
1042.734, 5564.744
1043.217, 5555.321
1043.699, 5550.608
1044.181, 5548.449
1044.663, 5549.240
1045.145, 5549.897
1045.627, 5551.119
1046.109, 5549.998
1046.591, 5542.985
1047.074, 5529.614
1047.556, 5524.084
1048.038, 5526.391
1048.520, 5527.994
1049.002, 5522.700
1049.484, 5514.739
1049.966, 5506.448
1050.448, 5498.460
1050.931, 5492.375
1051.413, 5488.787
1051.895, 5486.048
1052.377, 5484.367
1052.859, 5482.544
1053.341, 5479.141
1053.823, 5474.423
1054.305, 5467.735
1054.787, 5458.999
1055.270, 5453.914
1055.752, 5460.976
1056.234, 5465.478
1056.716, 5459.083
1057.198, 5445.888
1057.680, 5443.846
1058.162, 5452.032
1058.644, 5456.123
1059.126, 5450.818
1059.609, 5441.594
1060.091, 5430.007
1060.573, 5419.122
1061.055, 5413.285
1061.537, 5414.818
1062.019, 5413.226
1062.501, 5408.009
1062.983, 5401.747
1063.466, 5396.978
1063.948, 5392.041
1064.430, 5381.422
1064.912, 5367.766
1065.394, 5358.866
1065.876, 5362.071
1066.358, 5364.741
1066.840, 5364.615
1067.323, 5365.085
1067.805, 5362.259
1068.287, 5361.667
1068.769, 5359.089
1069.251, 5354.289
1069.733, 5350.218
1070.215, 5350.079
1070.697, 5350.169
1071.179, 5347.449
1071.661, 5342.666
1072.144, 5340.250
1072.626, 5341.097
1073.108, 5337.549
1073.590, 5326.461
1074.072, 5314.125
1074.554, 5308.321
1075.036, 5306.408
1075.518, 5305.662
1076.001, 5306.673
1076.483, 5303.943
1076.965, 5295.735
1077.447, 5287.125
1077.929, 5280.417
1078.411, 5275.478
1078.893, 5272.417
1079.375, 5270.746
1079.858, 5268.974
1080.340, 5266.736
1080.822, 5263.655
1081.304, 5259.638
1081.786, 5254.396
1082.268, 5246.288
1082.750, 5235.159
1083.232, 5231.601
1083.714, 5235.733
1084.197, 5239.571
1084.679, 5237.675
1085.161, 5233.127
1085.643, 5227.403
1086.125, 5221.095
1086.607, 5215.206
1087.089, 5209.537
1087.571, 5206.286
1088.054, 5206.718
1088.536, 5206.237
1089.018, 5197.227
1089.500, 5184.861
1089.982, 5177.091
1090.464, 5174.773
1090.946, 5171.796
1091.428, 5165.502
1091.911, 5160.642
1092.393, 5159.135
1092.875, 5159.415
1093.357, 5158.494
1093.839, 5156.220
1094.321, 5151.979
1094.803, 5145.252
1095.285, 5137.724
1095.767, 5129.427
1096.250, 5121.424
1096.732, 5114.003
1097.214, 5107.355
1097.696, 5103.875
1098.178, 5103.506
1098.660, 5104.810
1099.142, 5107.859
1099.624, 5111.346
1100.106, 5117.319
1100.589, 5121.832
1101.071, 5118.054
1101.553, 5102.445
1102.035, 5089.758
1102.517, 5080.075
1102.999, 5074.194
1103.481, 5075.247
1103.963, 5078.925
1104.446, 5079.567
1104.928, 5077.632
1105.410, 5076.009
1105.892, 5077.667
1106.374, 5075.138
1106.856, 5066.067
1107.338, 5054.924
1107.820, 5046.602
1108.302, 5041.133
1108.785, 5039.657
1109.267, 5042.271
1109.749, 5042.150
1110.231, 5033.123
1110.713, 5024.532
1111.195, 5019.361
1111.677, 5017.278
1112.159, 5019.500
1112.641, 5024.695
1113.124, 5023.285
1113.606, 5011.194
1114.088, 4999.613
1114.570, 4997.644
1115.052, 4998.057
1115.534, 4995.380
1116.016, 4989.682
1116.498, 4982.217
1116.981, 4972.767
1117.463, 4966.446
1117.945, 4966.151
1118.427, 4968.794
1118.909, 4974.675
1119.391, 4980.043
1119.873, 4978.757
1120.355, 4966.866
1120.838, 4958.708
1121.320, 4954.670
1121.802, 4952.438
1122.284, 4951.865
1122.766, 4951.155
1123.248, 4946.401
1123.730, 4939.253
1124.212, 4934.126
1124.694, 4935.692
1125.177, 4934.411
1125.659, 4929.305
1126.141, 4922.037
1126.623, 4911.779
1127.105, 4901.314
1127.587, 4900.116
1128.069, 4907.114
1128.551, 4911.118
1129.033, 4903.728
1129.516, 4896.917
1129.998, 4894.615
1130.480, 4893.967
1130.962, 4890.061
1131.444, 4883.398
1131.926, 4876.366
1132.408, 4869.268
1132.890, 4862.491
1133.373, 4855.589
1133.855, 4849.899
1134.337, 4846.337
1134.819, 4844.557
1135.301, 4844.705
1135.783, 4846.628
1136.265, 4843.532
1136.747, 4832.475
1137.229, 4820.900
1137.712, 4814.104
1138.194, 4810.425
1138.676, 4809.474
1139.158, 4811.027
1139.640, 4809.255
1140.122, 4803.730
1140.604, 4798.567
1141.086, 4795.247
1141.569, 4793.236
1142.051, 4793.142
1142.533, 4793.305
1143.015, 4790.750
1143.497, 4782.536
1143.979, 4782.190
1144.461, 4792.579
1144.943, 4799.284
1145.426, 4790.077
1145.908, 4774.600
1146.390, 4768.387
1146.872, 4767.944
1147.354, 4765.896
1147.836, 4757.268
1148.318, 4751.765
1148.800, 4750.807
1149.282, 4750.208
1149.765, 4746.275
1150.247, 4740.243
1150.729, 4734.297
1151.211, 4728.680
1151.693, 4723.861
1152.175, 4719.412
1152.657, 4717.374
1153.139, 4720.250
1153.621, 4722.255
1154.104, 4713.914
1154.586, 4699.172
1155.068, 4692.493
1155.550, 4693.935
1156.032, 4694.122
1156.514, 4684.961
1156.996, 4678.185
1157.478, 4678.374
1157.961, 4681.864
1158.443, 4681.679
1158.925, 4678.713
1159.407, 4678.898
1159.889, 4683.164
1160.371, 4685.839
1160.853, 4682.861
1161.335, 4677.864
1161.818, 4672.248
1162.300, 4666.297
1162.782, 4660.285
1163.264, 4654.364
1163.746, 4650.615
1164.228, 4649.742
1164.710, 4649.321
1165.192, 4649.900
1165.674, 4648.175
1166.156, 4640.190
1166.639, 4627.503
1167.121, 4619.396
1167.603, 4615.937
1168.085, 4615.089
1168.567, 4617.511
1169.049, 4618.536
1169.531, 4611.538
1170.013, 4602.957
1170.496, 4600.230
1170.978, 4603.603
1171.460, 4602.150
1171.942, 4595.571
1172.424, 4588.552
1172.906, 4581.661
1173.388, 4577.840
1173.870, 4585.085
1174.353, 4594.720
1174.835, 4593.602
1175.317, 4578.214
1175.799, 4570.909
1176.281, 4572.803
1176.763, 4573.688
1177.245, 4566.476
1177.727, 4556.766
1178.209, 4549.900
1178.692, 4545.368
1179.174, 4542.455
1179.656, 4541.897
1180.138, 4540.464
1180.620, 4538.039
1181.102, 4535.069
1181.584, 4532.037
1182.066, 4528.463
1182.548, 4522.311
1183.031, 4515.338
1183.513, 4511.909
1183.995, 4515.311
1184.477, 4516.121
1184.959, 4513.748
1185.441, 4509.678
1185.923, 4503.705
1186.405, 4497.938
1186.888, 4496.071
1187.370, 4497.101
1187.852, 4497.412
1188.334, 4497.858
1188.816, 4493.441
1189.298, 4482.092
1189.780, 4471.284
1190.262, 4470.380
1190.745, 4474.040
1191.227, 4474.493
1191.709, 4471.806
1192.191, 4469.009
1192.673, 4467.550
1193.155, 4464.001
1193.637, 4457.088
1194.119, 4450.138
1194.601, 4448.302
1195.084, 4448.429
1195.566, 4444.220
1196.048, 4443.380
1196.530, 4442.886
1197.012, 4437.810
1197.494, 4439.544
1197.976, 4433.319
1198.458, 4424.937
1198.941, 4422.120
1199.423, 4423.000
1199.905, 4425.810
1200.387, 4430.154
1200.869, 4430.604
1201.351, 4425.646
1201.833, 4417.218
1202.315, 4403.626
1202.797, 4391.227
1203.280, 4394.295
1203.762, 4404.287
1204.244, 4405.692
1204.726, 4395.856
1205.208, 4386.436
1205.690, 4378.763
1206.172, 4373.144
1206.654, 4369.703
1207.136, 4368.241
1207.619, 4370.800
1208.101, 4374.125
1208.583, 4370.977
1209.065, 4358.561
1209.547, 4352.427
1210.029, 4358.050
1210.511, 4362.127
1210.993, 4359.286
1211.476, 4353.242
1211.958, 4349.972
1212.440, 4348.733
1212.922, 4348.712
1213.404, 4350.270
1213.886, 4350.000
1214.368, 4347.170
1214.850, 4343.787
1215.333, 4340.885
1215.815, 4337.710
1216.297, 4333.137
1216.779, 4327.151
1217.261, 4319.064
1217.743, 4307.257
1218.225, 4299.634
1218.707, 4298.028
1219.189, 4297.256
1219.672, 4295.411
1220.154, 4292.243
1220.636, 4285.299
1221.118, 4277.337
1221.600, 4273.727
1222.082, 4277.935
1222.564, 4279.655
1223.046, 4278.371
1223.528, 4274.500
1224.011, 4265.970
1224.493, 4257.713
1224.975, 4260.961
1225.457, 4269.670
1225.939, 4273.168
1226.421, 4266.820
1226.903, 4260.887
1227.385, 4255.494
1227.868, 4250.372
1228.350, 4244.982
1228.832, 4240.153
1229.314, 4237.907
1229.796, 4236.908
1230.278, 4234.815
1230.760, 4230.338
1231.242, 4227.254
1231.724, 4225.749
1232.207, 4224.693
1232.689, 4224.554
1233.171, 4223.271
1233.653, 4217.353
1234.135, 4208.737
1234.617, 4200.271
1235.099, 4191.283
1235.581, 4186.875
1236.063, 4187.883
1236.546, 4188.337
1237.028, 4183.952
1237.510, 4177.898
1237.992, 4172.376
1238.474, 4167.897
1238.956, 4165.755
1239.438, 4166.907
1239.920, 4165.698
1240.403, 4161.954
1240.885, 4158.171
1241.367, 4155.231
1241.849, 4153.595
1242.331, 4154.944
1242.813, 4157.170
1243.295, 4157.022
1243.777, 4153.832
1244.260, 4151.515
1244.742, 4150.024
1245.224, 4147.939
1245.706, 4142.396
1246.188, 4138.120
1246.670, 4140.852
1247.152, 4145.337
1247.634, 4143.975
1248.116, 4136.159
1248.599, 4132.641
1249.081, 4133.144
1249.563, 4131.888
1250.045, 4122.407
1250.527, 4113.808
1251.009, 4112.525
1251.491, 4113.399
1251.973, 4111.208
1252.455, 4106.060
1252.938, 4100.356
1253.420, 4094.314
1253.902, 4089.433
1254.384, 4087.854
1254.866, 4085.867
1255.348, 4081.098
1255.830, 4076.414
1256.313, 4074.893
1256.795, 4075.919
1257.277, 4075.298
1257.759, 4073.352
1258.241, 4071.875
1258.723, 4071.969
1259.205, 4072.349
1259.687, 4073.398
1260.169, 4073.610
1260.651, 4071.118
1261.134, 4066.773
1261.616, 4062.343
1262.098, 4058.444
1262.580, 4057.047
1263.062, 4062.945
1263.544, 4064.974
1264.026, 4061.930
1264.508, 4055.710
1264.991, 4045.540
1265.473, 4034.664
1265.955, 4029.518
1266.437, 4028.848
1266.919, 4029.234
1267.401, 4031.341
1267.883, 4032.097
1268.365, 4031.904
1268.848, 4028.852
1269.330, 4017.793
1269.812, 4006.004
1270.294, 4003.902
1270.776, 4007.992
1271.258, 4010.597
1271.740, 4010.484
1272.222, 4010.590
1272.704, 4011.135
1273.187, 4009.562
1273.669, 4001.761
1274.151, 3993.319
1274.633, 3988.870
1275.115, 3987.252
1275.597, 3986.912
1276.079, 3988.541
1276.561, 3985.295
1277.043, 3977.370
1277.526, 3970.038
1278.008, 3966.789
1278.490, 3964.991
1278.972, 3965.146
1279.454, 3964.602
1279.936, 3959.644
1280.418, 3950.631
1280.900, 3946.953
1281.383, 3947.694
1281.865, 3947.009
1282.347, 3940.455
1282.829, 3933.923
1283.311, 3927.049
1283.793, 3923.492
1284.275, 3928.865
1284.757, 3939.621
1285.240, 3941.292
1285.722, 3935.385
1286.204, 3926.539
1286.686, 3912.121
1287.168, 3903.304
1287.650, 3902.770
1288.132, 3904.161
1288.614, 3902.905
1289.096, 3900.899
1289.578, 3902.971
1290.061, 3907.047
1290.543, 3908.896
1291.025, 3907.203
1291.507, 3902.987
1291.989, 3895.618
1292.471, 3888.284
1292.953, 3881.951
1293.435, 3877.634
1293.918, 3878.125
1294.400, 3880.636
1294.882, 3881.363
1295.364, 3880.306
1295.846, 3875.564
1296.328, 3867.124
1296.810, 3861.052
1297.292, 3861.500
1297.775, 3862.207
1298.257, 3859.476
1298.739, 3854.507
1299.221, 3847.773
1299.703, 3839.711
1300.185, 3836.720
1300.667, 3837.817
1301.149, 3836.360
1301.631, 3827.965
1302.114, 3820.315
1302.596, 3820.182
##END=



