##NAMES=Schorlomite
##RRUFFID=R060125
##IDEAL CHEMISTRY=Ca_3_Ti^4+^_2_(Fe^3+^_2_Si)O_12_
##LOCALITY=Magnet Cove, Arkansas, USA
##OWNER=RRUFF
##SOURCE=University of Arizona Mineral Museum
##DESCRIPTION=Black massive
##STATUS=The identification of this mineral has been confirmed by X-ray diffraction and chemical analysis
##URL=rruff.info/R060125
##MEASURED CHEMISTRY=Ca_3.00_(Ti^4+^_0.74_Zr_0.44_Fe^3+^_0.38_Al_0.21_Mg_0.20_Mn_0.03_)_Σ=2_[(Si_0.68_Fe^3+^_0.32_)_Σ=1_O_4_]_3_
93.30109, 0.0000000E+00
93.78320, 101.7526
94.26532, 102.2980
94.74744, 102.6653
95.22955, 102.5954
95.71167, 102.4656
96.19379, 102.3388
96.67590, 102.5641
97.15802, 102.4507
97.64014, 101.6865
98.12225, 100.5586
98.60437, 99.55672
99.08649, 98.85696
99.56860, 98.41669
100.0507, 98.17133
100.5328, 98.03545
101.0150, 97.75903
101.4971, 97.10989
101.9792, 96.07565
102.4613, 95.10876
102.9434, 94.34301
103.4255, 93.70841
103.9077, 93.16809
104.3898, 92.70424
104.8719, 92.33292
105.3540, 92.09390
105.8361, 92.02064
106.3182, 92.01981
106.8004, 92.24849
107.2825, 92.47490
107.7646, 92.39433
108.2467, 91.79430
108.7288, 90.71874
109.2109, 89.78279
109.6931, 89.00517
110.1752, 88.32941
110.6573, 87.69508
111.1394, 87.13894
111.6215, 86.76698
112.1036, 86.69413
112.5858, 86.97286
113.0679, 87.19196
113.5500, 87.25803
114.0321, 87.33088
114.5142, 87.59292
114.9964, 88.07165
115.4785, 88.51055
115.9606, 88.54536
116.4427, 88.20208
116.9248, 87.88306
117.4069, 87.61436
117.8891, 87.43620
118.3712, 87.45812
118.8533, 87.78498
119.3354, 88.19426
119.8175, 88.50915
120.2996, 88.73245
120.7818, 88.84370
121.2639, 88.71850
121.7460, 88.33913
122.2281, 88.20839
122.7102, 88.65975
123.1923, 89.23833
123.6745, 89.79846
124.1566, 90.29308
124.6387, 90.63100
125.1208, 90.61851
125.6029, 89.94743
126.0850, 89.58620
126.5672, 89.74548
127.0493, 90.10654
127.5314, 90.44762
128.0135, 90.67725
128.4956, 90.80296
128.9777, 90.84715
129.4599, 90.60172
129.9420, 90.50826
130.4241, 90.79212
130.9062, 91.21918
131.3883, 91.41160
131.8704, 91.13087
132.3526, 90.49099
132.8347, 90.14259
133.3168, 90.23038
133.7989, 90.38859
134.2810, 90.47586
134.7632, 90.50301
135.2453, 90.54267
135.7274, 90.66617
136.2095, 90.83375
136.6916, 90.91090
137.1737, 90.80593
137.6559, 90.65909
138.1380, 90.61562
138.6201, 90.68926
139.1022, 90.80210
139.5843, 90.92976
140.0664, 91.06056
140.5486, 91.17603
141.0307, 91.28087
141.5128, 91.36378
141.9949, 91.38466
142.4770, 91.30922
142.9591, 91.21764
143.4413, 91.11152
143.9234, 91.01662
144.4055, 90.97366
144.8876, 90.99915
145.3697, 91.09216
145.8518, 91.32035
146.3340, 92.04395
146.8161, 92.58481
147.2982, 92.52577
147.7803, 92.03933
148.2624, 91.65607
148.7445, 91.96047
149.2267, 93.23566
149.7088, 93.99570
150.1909, 94.00049
150.6730, 93.81062
151.1551, 93.70279
151.6372, 93.72832
152.1194, 93.80233
152.6015, 93.81377
153.0836, 93.70463
153.5657, 93.70684
154.0478, 93.86621
154.5299, 94.11404
155.0121, 94.40104
155.4942, 94.71806
155.9763, 95.03298
156.4584, 95.27235
156.9405, 95.42089
157.4226, 95.63380
157.9048, 96.10433
158.3869, 96.66256
158.8690, 96.92039
159.3511, 96.69492
159.8332, 96.25311
160.3153, 95.89450
160.7975, 95.61248
161.2796, 95.43533
161.7617, 95.37778
162.2438, 95.43972
162.7259, 95.63514
163.2081, 96.16602
163.6902, 96.66954
164.1723, 96.89491
164.6544, 96.81872
165.1365, 96.53060
165.6186, 96.06017
166.1008, 95.34375
166.5829, 94.74557
167.0650, 94.24651
167.5471, 93.93147
168.0292, 93.99002
168.5113, 94.44014
168.9935, 94.97342
169.4756, 95.03362
169.9577, 94.24310
170.4398, 93.69402
170.9219, 93.66663
171.4040, 93.76855
171.8862, 93.62743
172.3683, 93.11442
172.8504, 92.43647
173.3325, 92.08842
173.8146, 92.67376
174.2967, 92.87526
174.7789, 92.36349
175.2610, 91.54716
175.7431, 90.93372
176.2252, 90.75639
176.7073, 90.84604
177.1894, 90.63737
177.6716, 89.64584
178.1537, 88.97464
178.6358, 89.06565
179.1179, 89.61027
179.6000, 90.01260
180.0821, 89.96574
180.5643, 89.59996
181.0464, 89.33350
181.5285, 89.20406
182.0106, 89.09432
182.4927, 88.95362
182.9748, 88.78697
183.4570, 88.61087
183.9391, 88.41057
184.4212, 88.22442
184.9033, 88.11441
185.3854, 88.08604
185.8675, 88.12635
186.3497, 88.28404
186.8318, 88.56541
187.3139, 88.74018
187.7960, 88.60648
188.2781, 88.34970
188.7602, 88.15891
189.2424, 88.06458
189.7245, 88.05568
190.2066, 88.15092
190.6887, 88.39437
191.1708, 88.57951
191.6530, 88.57570
192.1351, 88.50895
192.6172, 88.49004
193.0993, 88.56394
193.5814, 88.67813
194.0635, 88.69368
194.5457, 88.45322
195.0278, 88.44670
195.5099, 89.03149
195.9920, 89.74812
196.4741, 90.11244
196.9562, 89.89672
197.4384, 89.31042
197.9205, 88.96597
198.4026, 89.15041
198.8847, 89.19418
199.3668, 88.80876
199.8489, 88.31448
200.3311, 88.10783
200.8132, 88.39637
201.2953, 89.03565
201.7774, 89.45012
202.2595, 89.38472
202.7416, 89.36353
203.2238, 89.47955
203.7059, 89.66216
204.1880, 89.79194
204.6701, 89.79773
205.1522, 89.72965
205.6343, 89.81871
206.1165, 90.23171
206.5986, 90.59409
207.0807, 90.83996
207.5628, 90.97993
208.0449, 91.01945
208.5270, 90.94428
209.0092, 90.79453
209.4913, 90.73811
209.9734, 90.81087
210.4555, 90.90982
210.9376, 90.95187
211.4197, 90.98357
211.9019, 91.16226
212.3840, 91.62266
212.8661, 92.23047
213.3482, 92.61729
213.8303, 92.74369
214.3124, 92.74075
214.7946, 92.49048
215.2767, 92.08398
215.7588, 92.07377
216.2409, 92.95117
216.7230, 94.20275
217.2052, 94.87167
217.6873, 94.75710
218.1694, 94.45551
218.6515, 94.42590
219.1336, 94.65601
219.6157, 94.81069
220.0979, 94.63437
220.5800, 94.40836
221.0621, 94.45161
221.5442, 94.83379
222.0263, 95.34113
222.5084, 95.82180
222.9906, 96.28859
223.4727, 96.60384
223.9548, 96.47613
224.4369, 96.32666
224.9190, 96.54228
225.4011, 97.21296
225.8833, 97.93212
226.3654, 98.12998
226.8475, 97.64445
227.3296, 97.41733
227.8117, 97.98980
228.2938, 98.66247
228.7760, 98.98486
229.2581, 98.87058
229.7402, 98.57464
230.2223, 98.37789
230.7044, 98.21803
231.1865, 98.37455
231.6687, 99.30320
232.1508, 100.2356
232.6329, 100.6241
233.1150, 100.4001
233.5971, 99.96387
234.0792, 99.90698
234.5614, 100.4801
235.0435, 100.8115
235.5256, 100.7158
236.0077, 100.5335
236.4898, 100.4746
236.9719, 100.5736
237.4541, 100.7201
237.9362, 100.7321
238.4183, 100.4118
238.9004, 100.4687
239.3825, 101.1432
239.8646, 101.9396
240.3468, 102.5762
240.8289, 102.9997
241.3110, 103.2936
241.7931, 103.5753
242.2752, 103.9043
242.7573, 104.0042
243.2395, 103.6017
243.7216, 103.2078
244.2037, 103.1996
244.6858, 103.5926
245.1679, 104.0903
245.6501, 104.3505
246.1322, 104.2693
246.6143, 104.3815
247.0964, 104.8783
247.5785, 105.4041
248.0606, 105.7019
248.5428, 105.7628
249.0249, 105.7683
249.5070, 105.8879
249.9891, 106.1429
250.4712, 106.4106
250.9533, 106.8634
251.4355, 107.1993
251.9176, 107.1139
252.3997, 106.6391
252.8818, 106.1704
253.3639, 106.0582
253.8460, 106.3154
254.3282, 106.4439
254.8103, 106.2282
255.2924, 106.0559
255.7745, 106.3453
256.2566, 107.0415
256.7387, 107.5365
257.2209, 107.3195
257.7030, 106.4887
258.1851, 105.9173
258.6672, 105.6062
259.1493, 105.5529
259.6314, 105.9576
260.1136, 106.7496
260.5957, 107.2865
261.0778, 107.0613
261.5599, 106.3230
262.0420, 105.9332
262.5241, 106.1096
263.0063, 106.3842
263.4884, 106.4925
263.9705, 106.4347
264.4526, 106.1857
264.9347, 105.6009
265.4168, 104.9010
265.8990, 104.5065
266.3811, 104.5095
266.8632, 104.6218
267.3453, 104.6433
267.8274, 104.5888
268.3095, 104.5795
268.7917, 104.6915
269.2738, 104.8415
269.7559, 104.9261
270.2380, 104.9424
270.7201, 104.9039
271.2022, 104.7769
271.6844, 104.5819
272.1665, 104.4784
272.6486, 104.6197
273.1307, 104.7367
273.6128, 104.4291
274.0949, 103.7034
274.5771, 103.2586
275.0592, 103.8119
275.5413, 105.1535
276.0234, 106.0086
276.5055, 105.8946
276.9876, 105.6338
277.4698, 105.8674
277.9519, 106.5272
278.4340, 107.2668
278.9161, 107.9716
279.3982, 108.6084
279.8803, 109.0039
280.3625, 108.9766
280.8446, 108.9706
281.3267, 109.2773
281.8088, 109.8050
282.2909, 110.3455
282.7730, 110.7799
283.2552, 111.1399
283.7373, 111.5001
284.2194, 111.7661
284.7015, 112.2259
285.1836, 113.3025
285.6658, 114.5845
286.1479, 115.4082
286.6300, 115.3121
287.1121, 114.7296
287.5942, 114.6785
288.0764, 115.3911
288.5585, 116.0973
289.0406, 116.4959
289.5227, 116.7506
290.0048, 117.0141
290.4869, 117.3410
290.9691, 117.7088
291.4512, 118.0644
291.9333, 118.3708
292.4154, 118.7878
292.8975, 119.5477
293.3796, 120.3220
293.8618, 120.8368
294.3439, 121.0230
294.8260, 121.0550
295.3081, 121.1301
295.7902, 121.2435
296.2723, 121.4239
296.7545, 121.8152
297.2366, 122.1758
297.7187, 122.3022
298.2008, 122.2041
298.6829, 122.1201
299.1650, 122.3352
299.6472, 122.8906
300.1293, 123.3515
300.6114, 123.6452
301.0935, 123.8718
301.5756, 124.0794
302.0577, 124.2586
302.5399, 124.3675
303.0220, 124.3244
303.5041, 124.1423
303.9862, 124.1275
304.4683, 124.4241
304.9504, 124.7346
305.4326, 124.9966
305.9147, 125.1922
306.3968, 125.2881
306.8789, 125.2365
307.3610, 125.0871
307.8431, 125.0473
308.3253, 125.1254
308.8074, 125.3191
309.2895, 125.6396
309.7716, 126.0517
310.2537, 126.5449
310.7358, 127.1340
311.2180, 127.7177
311.7001, 128.0283
312.1822, 127.8820
312.6643, 127.8744
313.1464, 128.0857
313.6285, 128.4786
314.1107, 129.0855
314.5928, 129.9045
315.0749, 130.7862
315.5570, 131.5045
316.0391, 132.0093
316.5212, 132.5289
317.0034, 132.9508
317.4855, 133.5003
317.9676, 134.3853
318.4497, 135.5772
318.9318, 136.8112
319.4139, 137.7166
319.8961, 138.2110
320.3782, 139.1843
320.8603, 141.1551
321.3424, 143.1452
321.8245, 144.7026
322.3066, 145.9658
322.7888, 147.3455
323.2709, 149.1324
323.7530, 151.2881
324.2351, 153.4550
324.7172, 155.4823
325.1993, 157.7652
325.6815, 160.6519
326.1636, 163.7882
326.6457, 166.7121
327.1278, 169.1724
327.6099, 171.3168
328.0920, 173.4765
328.5742, 175.5562
329.0563, 177.8828
329.5384, 180.6486
330.0205, 183.5981
330.5026, 186.5719
330.9847, 189.5345
331.4669, 192.3823
331.9490, 194.9476
332.4311, 197.1704
332.9132, 199.3745
333.3953, 201.5068
333.8774, 203.7163
334.3596, 206.0601
334.8417, 208.5513
335.3238, 211.1763
335.8059, 214.0098
336.2880, 217.0650
336.7701, 219.8323
337.2523, 222.1611
337.7344, 224.3320
338.2165, 226.5029
338.6986, 228.6304
339.1807, 230.6278
339.6628, 232.4441
340.1450, 234.0859
340.6271, 235.5970
341.1092, 236.9881
341.5913, 238.2048
342.0735, 239.3353
342.5556, 240.2710
343.0377, 240.8557
343.5198, 241.0080
344.0019, 240.8586
344.4840, 240.5987
344.9662, 240.2256
345.4483, 239.7493
345.9304, 239.2233
346.4125, 238.5526
346.8946, 237.6510
347.3767, 236.5000
347.8589, 235.1693
348.3410, 233.6804
348.8231, 232.0317
349.3052, 230.3975
349.7873, 228.7610
350.2694, 227.1850
350.7516, 225.7565
351.2337, 224.4348
351.7158, 223.0806
352.1979, 221.5003
352.6800, 219.8072
353.1621, 218.4404
353.6443, 217.5621
354.1264, 216.6548
354.6085, 215.2594
355.0906, 213.6607
355.5727, 212.3535
356.0548, 211.6732
356.5370, 211.1451
357.0191, 210.1640
357.5012, 208.7230
357.9833, 206.9837
358.4654, 204.8287
358.9475, 202.5071
359.4297, 200.3720
359.9118, 198.5046
360.3939, 196.5547
360.8760, 194.1881
361.3581, 191.4924
361.8402, 188.8490
362.3224, 186.3309
362.8045, 183.9392
363.2866, 181.7867
363.7687, 179.8393
364.2508, 177.6462
364.7329, 174.9150
365.2151, 171.8523
365.6972, 168.7630
366.1793, 165.6473
366.6614, 162.5754
367.1435, 159.5655
367.6256, 156.6410
368.1078, 153.8873
368.5899, 151.3862
369.0720, 148.9827
369.5541, 146.5198
370.0362, 144.0224
370.5183, 141.7083
371.0005, 139.7419
371.4826, 137.9704
371.9647, 136.0307
372.4468, 133.8806
372.9289, 131.7141
373.4110, 129.6271
373.8932, 127.5706
374.3753, 125.4669
374.8574, 123.2834
375.3395, 121.1281
375.8216, 119.1333
376.3037, 117.2971
376.7859, 115.6798
377.2680, 114.5242
377.7501, 113.4281
378.2322, 111.9709
378.7143, 110.1720
379.1964, 108.4418
379.6786, 107.1016
380.1607, 106.1136
380.6428, 104.9619
381.1249, 103.5009
381.6070, 102.0725
382.0891, 100.7634
382.5713, 99.57101
383.0534, 98.53103
383.5355, 97.66783
384.0176, 96.85485
384.4997, 95.79970
384.9818, 94.22424
385.4640, 92.85574
385.9461, 91.85612
386.4282, 90.98191
386.9103, 89.99455
387.3924, 88.88327
387.8745, 87.83704
388.3567, 87.08540
388.8388, 86.67901
389.3209, 86.20723
389.8030, 85.71456
390.2851, 85.12132
390.7672, 84.30270
391.2494, 83.36574
391.7315, 82.51122
392.2136, 81.85859
392.6957, 81.37178
393.1778, 80.92398
393.6599, 80.50040
394.1421, 80.14487
394.6242, 79.83792
395.1063, 79.60547
395.5884, 79.53140
396.0706, 79.61134
396.5527, 79.68120
397.0348, 79.48329
397.5169, 78.90941
397.9990, 78.50314
398.4811, 78.42675
398.9633, 78.37804
399.4454, 78.22783
399.9275, 78.00443
400.4096, 77.80750
400.8917, 77.71793
401.3738, 77.70266
401.8560, 77.60876
402.3381, 77.37389
402.8202, 77.18087
403.3023, 77.10049
403.7844, 77.07668
404.2665, 77.06651
404.7487, 77.06072
405.2308, 77.02939
405.7129, 76.89218
406.1950, 76.63541
406.6771, 76.53168
407.1592, 76.81240
407.6414, 77.06919
408.1235, 76.93584
408.6056, 76.48158
409.0877, 76.10862
409.5698, 76.09075
410.0519, 76.31086
410.5341, 76.49352
411.0162, 76.61563
411.4983, 76.76431
411.9804, 77.09516
412.4625, 77.45993
412.9446, 77.58898
413.4268, 77.35863
413.9089, 77.02113
414.3910, 76.67453
414.8731, 76.35981
415.3552, 76.33189
415.8373, 76.79494
416.3195, 77.37322
416.8016, 77.44238
417.2837, 76.98246
417.7658, 76.62929
418.2479, 76.61565
418.7300, 76.76189
419.2122, 76.86384
419.6943, 76.90068
420.1764, 76.96096
420.6585, 77.13091
421.1406, 77.39382
421.6227, 77.55627
422.1049, 77.57483
422.5870, 77.55366
423.0691, 77.54038
423.5512, 77.51492
424.0333, 77.40965
424.5154, 77.19218
424.9976, 76.96438
425.4797, 76.92535
425.9618, 77.22043
426.4439, 77.42158
426.9260, 77.47578
427.4081, 77.48284
427.8903, 77.53867
428.3724, 77.62747
428.8545, 77.63088
429.3366, 77.42676
429.8187, 77.03275
430.3008, 76.85311
430.7830, 77.16492
431.2651, 77.39501
431.7472, 77.41683
432.2293, 77.32253
432.7114, 77.17852
433.1935, 77.01639
433.6757, 76.93718
434.1578, 77.15266
434.6399, 77.77802
435.1220, 78.28374
435.6041, 78.61744
436.0862, 78.82565
436.5684, 78.88611
437.0505, 78.82760
437.5326, 78.72618
438.0147, 78.62132
438.4968, 78.51662
438.9789, 78.41707
439.4611, 78.30273
439.9432, 78.24527
440.4253, 78.40535
440.9074, 78.57859
441.3895, 78.48949
441.8716, 78.03130
442.3538, 77.59910
442.8359, 77.66735
443.3180, 78.12607
443.8001, 78.28687
444.2822, 77.93151
444.7643, 77.40956
445.2465, 77.02596
445.7286, 76.75664
446.2107, 76.54017
446.6928, 76.41167
447.1749, 76.29287
447.6570, 76.07726
448.1392, 75.77815
448.6213, 75.54067
449.1034, 75.47690
449.5855, 75.49495
450.0677, 75.33233
450.5498, 74.95156
451.0319, 74.51380
451.5140, 74.01904
451.9961, 73.50742
452.4782, 72.97841
452.9604, 72.44640
453.4425, 72.06483
453.9246, 72.03105
454.4067, 72.40042
454.8888, 72.52567
455.3709, 72.31237
455.8531, 72.00647
456.3352, 71.54904
456.8173, 71.09087
457.2994, 70.89601
457.7815, 71.08977
458.2636, 71.48811
458.7458, 71.71974
459.2279, 71.79147
459.7100, 71.66401
460.1921, 71.15781
460.6742, 70.63062
461.1563, 70.25501
461.6385, 70.04814
462.1206, 69.97694
462.6027, 70.04410
463.0848, 70.21928
463.5669, 70.33991
464.0490, 70.36534
464.5312, 70.41627
465.0133, 70.57494
465.4954, 70.75535
465.9775, 70.86089
466.4596, 70.86536
466.9417, 70.85593
467.4239, 70.95593
467.9060, 71.13425
468.3881, 71.15429
468.8702, 70.89822
469.3523, 70.64336
469.8344, 70.62545
470.3166, 70.79462
470.7987, 71.03773
471.2808, 71.39559
471.7629, 71.76350
472.2450, 72.09201
472.7271, 72.36382
473.2093, 72.43935
473.6914, 72.18032
474.1735, 71.84037
474.6556, 71.96786
475.1377, 72.71048
475.6198, 73.33566
476.1020, 73.72210
476.5841, 73.95662
477.0662, 74.07334
477.5483, 74.09846
478.0304, 74.09516
478.5125, 74.09121
478.9947, 74.10692
479.4768, 74.32483
479.9589, 75.17254
480.4410, 75.69904
480.9231, 75.49745
481.4052, 75.06373
481.8874, 74.92603
482.3695, 75.20137
482.8516, 75.61278
483.3337, 75.80167
483.8158, 75.72056
484.2979, 75.83229
484.7801, 76.42668
485.2622, 76.88441
485.7443, 76.90088
486.2264, 76.66448
486.7085, 76.48221
487.1906, 76.48617
487.6728, 76.57751
488.1549, 76.61012
488.6370, 76.57866
489.1191, 76.59095
489.6012, 76.76660
490.0833, 76.87915
490.5655, 76.65044
491.0476, 76.14224
491.5297, 75.78413
492.0118, 75.80799
492.4939, 76.04130
492.9760, 76.29362
493.4582, 76.55938
493.9403, 76.82622
494.4224, 77.07417
494.9045, 77.33231
495.3866, 77.66509
495.8687, 78.04517
496.3509, 78.54390
496.8330, 79.21893
497.3151, 79.99816
497.7972, 80.81424
498.2793, 81.65304
498.7614, 82.52940
499.2436, 83.47538
499.7257, 84.47330
500.2078, 85.26389
500.6899, 85.42887
501.1720, 85.89475
501.6541, 86.96169
502.1363, 88.32766
502.6184, 89.71098
503.1005, 91.02023
503.5826, 92.27706
504.0647, 93.56595
504.5468, 94.93131
505.0290, 95.85240
505.5111, 95.81375
505.9932, 95.97703
506.4753, 96.90243
506.9575, 98.28211
507.4396, 99.65739
507.9217, 100.8962
508.4038, 101.9565
508.8859, 102.6543
509.3680, 103.0221
509.8502, 103.6575
510.3323, 104.8275
510.8144, 106.0833
511.2965, 107.0909
511.7786, 107.8453
512.2607, 108.2174
512.7429, 108.0475
513.2250, 107.5835
513.7071, 106.9344
514.1892, 106.1519
514.6713, 105.4296
515.1534, 104.8698
515.6356, 104.3611
516.1177, 103.7030
516.5998, 102.9598
517.0819, 101.8674
517.5640, 100.2500
518.0461, 98.42025
518.5283, 96.39711
519.0104, 94.32930
519.4925, 92.61992
519.9746, 91.57373
520.4567, 90.96520
520.9388, 89.92212
521.4210, 88.07564
521.9031, 86.48360
522.3852, 85.42697
522.8673, 84.50825
523.3494, 83.42944
523.8315, 82.19498
524.3137, 81.02593
524.7958, 80.14529
525.2779, 79.46358
525.7600, 78.68860
526.2421, 77.81417
526.7242, 76.87045
527.2064, 75.76046
527.6885, 74.65141
528.1706, 73.74008
528.6527, 73.05233
529.1348, 72.51259
529.6169, 72.13172
530.0991, 71.85484
530.5812, 71.60657
531.0633, 71.37673
531.5454, 71.14713
532.0275, 70.92878
532.5096, 70.69875
532.9918, 70.29759
533.4739, 69.54014
533.9560, 68.88026
534.4381, 68.39218
534.9202, 68.05722
535.4023, 67.92902
535.8845, 67.97654
536.3666, 67.99801
536.8487, 67.78625
537.3308, 67.34167
537.8129, 66.86831
538.2950, 66.27126
538.7772, 65.77415
539.2593, 65.40733
539.7414, 65.16938
540.2235, 65.09957
540.7056, 65.20147
541.1877, 65.32557
541.6699, 65.29133
542.1520, 65.13029
542.6341, 65.10359
543.1162, 65.32854
543.5983, 65.44232
544.0804, 65.07801
544.5626, 64.46510
545.0447, 64.03587
545.5268, 63.93042
546.0089, 63.85588
546.4910, 63.65378
546.9731, 63.36030
547.4553, 63.01295
547.9374, 62.61638
548.4195, 62.28466
548.9016, 62.14785
549.3837, 62.21180
549.8658, 62.16883
550.3480, 62.01026
550.8301, 61.77644
551.3122, 61.42010
551.7943, 61.02113
552.2764, 60.70309
552.7585, 60.48640
553.2407, 60.24011
553.7228, 59.76423
554.2049, 59.03432
554.6870, 58.53986
555.1691, 58.48897
555.6512, 58.38153
556.1334, 57.95028
556.6155, 57.40129
557.0976, 57.00328
557.5797, 56.83628
558.0618, 56.75364
558.5439, 56.65050
559.0261, 56.52573
559.5082, 56.36406
559.9903, 56.15450
560.4724, 55.94700
560.9545, 55.74594
561.4366, 55.58125
561.9188, 55.55996
562.4009, 55.82121
562.8830, 56.05274
563.3651, 56.10929
563.8472, 56.07973
564.3293, 56.10701
564.8115, 56.21244
565.2936, 56.26883
565.7757, 56.11747
566.2578, 55.75640
566.7399, 55.66953
567.2220, 56.22388
567.7042, 56.61604
568.1863, 56.54086
568.6684, 56.33519
569.1505, 56.34468
569.6326, 56.64036
570.1147, 57.04886
570.5969, 57.45671
571.0790, 57.84735
571.5611, 58.08740
572.0432, 58.12294
572.5253, 58.16023
573.0074, 58.33472
573.4896, 58.56082
573.9717, 58.71431
574.4538, 58.77715
574.9359, 58.79612
575.4180, 58.66180
575.9001, 58.55735
576.3823, 58.84370
576.8644, 59.51737
577.3465, 60.10239
577.8286, 60.24131
578.3107, 60.03115
578.7928, 59.94895
579.2750, 60.13433
579.7571, 60.26750
580.2392, 60.40562
580.7213, 60.43182
581.2034, 60.13647
581.6855, 59.60446
582.1677, 59.19460
582.6498, 59.19370
583.1319, 59.50330
583.6140, 59.81205
584.0961, 60.14935
584.5782, 60.38737
585.0604, 60.46130
585.5425, 60.44061
586.0246, 60.37345
586.5067, 60.26397
586.9889, 60.12952
587.4710, 59.90673
587.9531, 59.70998
588.4352, 59.70567
588.9174, 59.86633
589.3995, 60.02124
589.8816, 60.09764
590.3637, 60.13017
590.8458, 60.18162
591.3279, 60.27421
591.8101, 60.31743
592.2922, 60.23303
592.7743, 60.17623
593.2564, 60.26831
593.7385, 60.44228
594.2206, 60.57418
594.7028, 60.60744
595.1849, 60.55247
595.6670, 60.42358
596.1491, 60.21946
596.6312, 59.93584
597.1133, 59.42303
597.5955, 59.02903
598.0776, 59.01006
598.5597, 59.21441
599.0418, 59.37207
599.5239, 59.45255
600.0060, 59.37977
600.4882, 58.90014
600.9703, 58.24092
601.4524, 58.01416
601.9345, 58.34998
602.4166, 58.83675
602.8987, 59.15792
603.3809, 59.31251
603.8630, 59.25950
604.3451, 58.80525
604.8272, 58.42099
605.3093, 58.12231
605.7914, 57.97714
606.2736, 58.12371
606.7557, 58.52604
607.2378, 58.94199
607.7199, 59.17958
608.2020, 59.25474
608.6841, 59.21176
609.1663, 58.97174
609.6484, 58.84454
610.1305, 59.05838
610.6126, 59.32661
611.0947, 59.36911
611.5768, 59.18917
612.0590, 59.06841
612.5411, 59.11961
613.0232, 59.29563
613.5053, 59.60952
613.9874, 60.01905
614.4695, 60.34146
614.9517, 60.49770
615.4338, 60.55153
615.9159, 60.59817
616.3980, 60.61443
616.8801, 60.70829
617.3622, 60.90754
617.8444, 61.14600
618.3265, 61.44505
618.8086, 61.74907
619.2907, 61.96601
619.7728, 62.06445
620.2549, 62.11705
620.7371, 62.18114
621.2192, 62.26107
621.7013, 62.49965
622.1834, 62.97415
622.6655, 63.44677
623.1476, 63.79533
623.6298, 64.04621
624.1119, 64.21938
624.5940, 64.28139
625.0761, 64.37649
625.5582, 64.53004
626.0403, 64.77403
626.5225, 65.25931
627.0046, 65.93015
627.4867, 66.40899
627.9688, 66.44506
628.4509, 66.14327
628.9330, 65.82062
629.4152, 65.25819
629.8973, 65.09452
630.3794, 65.63277
630.8615, 66.25600
631.3436, 66.65334
631.8257, 66.84689
632.3079, 66.97032
632.7900, 67.07894
633.2721, 67.17278
633.7542, 67.21487
634.2363, 67.22160
634.7184, 67.36531
635.2006, 67.71664
635.6827, 68.10214
636.1648, 68.41182
636.6469, 68.62611
637.1290, 68.67048
637.6111, 68.30969
638.0933, 68.06335
638.5754, 68.13896
639.0575, 68.39520
639.5396, 68.73563
640.0217, 69.10503
640.5038, 69.37685
640.9860, 69.42139
641.4681, 69.31052
641.9502, 69.42097
642.4323, 69.85986
642.9144, 70.25073
643.3965, 70.61218
643.8787, 70.81602
644.3608, 70.66091
644.8429, 70.22792
645.3250, 69.91592
645.8071, 69.92021
646.2892, 70.09071
646.7714, 70.38113
647.2535, 70.71986
647.7356, 70.81110
648.2177, 70.55086
648.6998, 70.27334
649.1819, 70.38142
649.6641, 70.90380
650.1462, 71.22849
650.6283, 71.31345
651.1104, 71.26637
651.5925, 70.96015
652.0746, 70.62122
652.5568, 70.47627
653.0389, 70.55070
653.5210, 70.71964
654.0031, 70.94111
654.4852, 71.15525
654.9673, 71.14748
655.4495, 70.89120
655.9316, 70.72568
656.4137, 70.83776
656.8958, 70.99864
657.3779, 70.87187
657.8600, 70.46975
658.3422, 70.11775
658.8243, 69.85616
659.3064, 69.65899
659.7885, 69.50578
660.2706, 69.40859
660.7527, 69.44548
661.2349, 69.61533
661.7170, 69.70958
662.1991, 69.44728
662.6812, 68.85142
663.1633, 68.49059
663.6454, 68.49246
664.1276, 68.47210
664.6097, 68.24976
665.0918, 67.98708
665.5739, 67.85560
666.0560, 67.85699
666.5381, 67.78462
667.0203, 67.48534
667.5024, 67.11100
667.9845, 66.77127
668.4666, 66.49254
668.9487, 66.36926
669.4308, 66.44524
669.9130, 66.58620
670.3951, 66.64159
670.8772, 66.63683
671.3593, 66.34206
671.8414, 65.15681
672.3235, 64.39450
672.8057, 64.67890
673.2878, 65.32263
673.7699, 65.59010
674.2520, 65.37457
674.7341, 65.11702
675.2162, 65.21246
675.6984, 65.47126
676.1805, 65.51534
676.6626, 65.34706
677.1447, 65.04234
677.6268, 64.58683
678.1089, 64.10020
678.5911, 63.71392
679.0732, 63.40522
679.5553, 63.39579
680.0374, 63.98390
680.5195, 64.52000
681.0016, 64.74926
681.4838, 64.79180
681.9659, 64.79549
682.4480, 64.80009
682.9301, 64.76972
683.4122, 64.62225
683.8943, 64.42034
684.3765, 64.45798
684.8586, 64.78718
685.3407, 65.03721
685.8228, 65.02874
686.3049, 64.94583
686.7870, 65.05407
687.2692, 65.34586
687.7513, 65.53337
688.2334, 65.35885
688.7155, 65.29726
689.1976, 65.80122
689.6797, 66.51067
690.1619, 66.83168
690.6440, 66.64415
691.1261, 66.29741
691.6082, 66.08997
692.0903, 66.03880
692.5724, 66.32719
693.0546, 67.12777
693.5367, 67.76004
694.0188, 67.99171
694.5009, 68.01370
694.9830, 67.93407
695.4651, 67.77870
695.9473, 67.71941
696.4294, 67.75749
696.9116, 67.95661
697.3937, 68.49837
697.8758, 69.19341
698.3579, 69.69126
698.8400, 69.91532
699.3221, 70.00986
699.8043, 70.08447
700.2864, 70.15978
700.7685, 70.40894
701.2506, 70.92207
701.7327, 71.41568
702.2148, 71.77280
702.6970, 72.14134
703.1791, 72.61952
703.6612, 73.19218
704.1433, 73.80063
704.6254, 74.47037
705.1075, 75.09814
705.5897, 75.49962
706.0718, 75.81678
706.5539, 76.40064
707.0360, 77.29989
707.5181, 78.15565
708.0002, 78.64589
708.4824, 78.88709
708.9645, 79.49426
709.4466, 80.77326
709.9287, 81.84010
710.4108, 82.40891
710.8929, 82.95190
711.3751, 83.74853
711.8572, 84.73446
712.3393, 85.67184
712.8214, 86.41402
713.3035, 87.25726
713.7856, 88.51591
714.2678, 90.04528
714.7499, 91.61945
715.2320, 93.18465
715.7141, 94.61377
716.1962, 95.78826
716.6783, 96.81253
717.1605, 98.00197
717.6426, 99.49570
718.1247, 100.8737
718.6068, 101.8000
719.0889, 102.9589
719.5710, 104.8494
720.0532, 107.1341
720.5353, 109.2400
721.0174, 110.9906
721.4995, 112.5915
721.9816, 114.1341
722.4637, 115.6758
722.9459, 117.3377
723.4280, 119.1278
723.9101, 121.0217
724.3922, 123.0630
724.8743, 125.0716
725.3564, 126.6551
725.8386, 127.5822
726.3207, 128.9364
726.8028, 131.2064
727.2849, 133.3406
727.7670, 134.9762
728.2491, 136.3317
728.7313, 137.6037
729.2134, 138.8625
729.6955, 140.2813
730.1776, 142.1298
730.6597, 144.1359
731.1418, 145.7999
731.6240, 147.1899
732.1061, 148.8446
732.5882, 150.9955
733.0703, 153.0779
733.5524, 154.3359
734.0345, 154.7186
734.5167, 155.5184
734.9988, 157.1137
735.4809, 158.6480
735.9630, 160.0725
736.4451, 161.3196
736.9272, 162.1839
737.4094, 162.7755
737.8915, 163.6192
738.3736, 165.0817
738.8557, 166.7742
739.3378, 168.2616
739.8199, 169.6324
740.3021, 171.2689
740.7842, 173.2433
741.2663, 175.0094
741.7484, 176.0637
742.2305, 176.6123
742.7126, 177.6652
743.1948, 179.5576
743.6769, 181.3499
744.1590, 183.1240
744.6411, 184.6553
745.1232, 185.5732
745.6053, 186.1968
746.0875, 187.1876
746.5696, 188.7922
747.0517, 190.5894
747.5338, 192.5559
748.0159, 194.3604
748.4980, 195.1562
748.9802, 195.0683
749.4623, 195.3427
749.9444, 196.6653
750.4265, 198.4345
750.9086, 199.5112
751.3907, 199.6983
751.8729, 200.1474
752.3550, 201.4108
752.8371, 202.1960
753.3192, 201.7390
753.8013, 200.8384
754.2834, 200.4196
754.7656, 200.5764
755.2477, 200.6092
755.7298, 200.2265
756.2119, 199.5399
756.6940, 198.5958
757.1761, 197.4400
757.6583, 196.1552
758.1404, 194.7664
758.6225, 193.2897
759.1046, 191.6994
759.5867, 190.0479
760.0688, 188.7194
760.5510, 188.0714
761.0331, 186.7987
761.5152, 184.2564
761.9973, 181.4038
762.4794, 178.7893
762.9615, 176.4369
763.4437, 174.4341
763.9258, 173.0604
764.4079, 171.5745
764.8900, 169.5935
765.3721, 167.3362
765.8542, 164.8965
766.3364, 162.4044
766.8185, 160.2282
767.3006, 158.5843
767.7827, 157.1338
768.2648, 155.2381
768.7469, 152.8819
769.2291, 150.6744
769.7112, 148.6755
770.1933, 146.6890
770.6754, 144.5940
771.1575, 142.4691
771.6396, 140.4821
772.1218, 138.6414
772.6039, 136.7633
773.0860, 134.7534
773.5681, 132.7697
774.0502, 130.8190
774.5323, 128.9816
775.0145, 127.4177
775.4966, 126.1303
775.9787, 124.9199
776.4608, 123.6333
776.9429, 122.3006
777.4250, 121.0167
777.9072, 119.7771
778.3893, 118.3630
778.8714, 116.6775
779.3535, 114.9563
779.8356, 113.3623
780.3177, 111.9053
780.7999, 110.6758
781.2820, 109.9466
781.7641, 109.0373
782.2462, 107.6658
782.7283, 106.3311
783.2104, 105.4103
783.6926, 104.7577
784.1747, 104.0555
784.6568, 103.1904
785.1389, 102.2079
785.6210, 100.9990
786.1031, 99.75469
786.5853, 98.89751
787.0674, 98.40637
787.5495, 97.96455
788.0316, 97.45164
788.5137, 96.83512
788.9958, 96.02201
789.4780, 94.97388
789.9601, 94.30991
790.4422, 94.39259
790.9243, 94.27632
791.4064, 93.43547
791.8885, 92.55287
792.3707, 92.28350
792.8528, 92.52378
793.3349, 92.52650
793.8170, 91.82958
794.2991, 91.12806
794.7813, 90.90437
795.2634, 90.90945
795.7455, 90.81632
796.2276, 90.58929
796.7097, 90.33726
797.1918, 90.12742
797.6740, 89.91166
798.1561, 89.54307
798.6382, 89.00735
799.1203, 88.73528
799.6024, 88.86330
800.0845, 88.90970
800.5667, 88.51635
801.0488, 87.98110
801.5309, 87.90906
802.0130, 88.38811
802.4951, 88.67524
802.9772, 88.52372
803.4594, 88.37685
803.9415, 88.49211
804.4236, 88.67873
804.9057, 88.70510
805.3878, 88.54173
805.8699, 88.28573
806.3521, 87.92016
806.8342, 87.61695
807.3163, 87.80014
807.7985, 88.30447
808.2806, 88.35795
808.7627, 87.81491
809.2448, 87.23186
809.7269, 87.00362
810.2090, 87.02345
810.6912, 86.96582
811.1733, 86.80946
811.6554, 86.62732
812.1375, 86.42885
812.6196, 86.19130
813.1017, 85.81320
813.5839, 85.43665
814.0660, 85.32372
814.5481, 85.52097
815.0302, 85.53632
815.5123, 84.93784
815.9944, 84.28896
816.4766, 84.00943
816.9587, 84.01498
817.4408, 84.23437
817.9229, 84.59037
818.4050, 84.79012
818.8871, 84.55215
819.3693, 84.05583
819.8514, 83.80672
820.3335, 83.81972
820.8156, 83.71690
821.2977, 83.40003
821.7798, 83.08354
822.2620, 82.90170
822.7441, 82.82674
823.2262, 82.78201
823.7083, 82.78628
824.1904, 82.77620
824.6725, 82.76547
825.1547, 82.72276
825.6368, 82.58213
826.1189, 82.42725
826.6010, 82.37163
827.0831, 82.43285
827.5652, 82.53146
828.0474, 82.65332
828.5295, 82.75658
829.0116, 82.75581
829.4937, 82.70010
829.9758, 82.70177
830.4579, 82.78970
830.9401, 82.98081
831.4222, 83.29829
831.9043, 83.70290
832.3864, 84.10790
832.8685, 84.54623
833.3506, 84.77722
833.8328, 84.62298
834.3149, 84.55964
834.7970, 84.94736
835.2791, 85.53999
835.7612, 85.88517
836.2433, 85.94018
836.7255, 85.98064
837.2076, 85.86855
837.6897, 85.95335
838.1718, 86.61605
838.6539, 87.44872
839.1360, 87.95744
839.6182, 88.08688
840.1003, 88.07698
840.5824, 87.98323
841.0645, 87.99828
841.5466, 88.47297
842.0287, 89.27599
842.5109, 90.04626
842.9930, 90.71889
843.4751, 91.08670
843.9572, 90.97183
844.4393, 90.67246
844.9214, 90.87259
845.4036, 91.73318
845.8857, 92.24528
846.3678, 92.10493
846.8499, 92.16288
847.3320, 93.05930
847.8141, 94.06505
848.2963, 94.32020
848.7784, 93.85712
849.2605, 93.56911
849.7426, 93.67278
850.2247, 93.91593
850.7068, 94.24336
851.1890, 94.63119
851.6711, 95.09322
852.1532, 95.59557
852.6353, 96.04958
853.1174, 96.40960
853.5995, 96.73495
854.0817, 97.10803
854.5638, 97.49976
855.0459, 97.81397
855.5280, 98.05423
856.0101, 98.29476
856.4922, 98.56400
856.9744, 98.86133
857.4565, 99.18156
857.9386, 99.52660
858.4207, 99.92923
858.9028, 100.4153
859.3849, 100.8997
859.8671, 101.4599
860.3492, 101.9058
860.8313, 102.0038
861.3134, 101.8867
861.7955, 101.9165
862.2776, 102.1543
862.7598, 102.4760
863.2419, 103.0809
863.7240, 103.5323
864.2061, 103.3149
864.6882, 102.8198
865.1703, 102.8382
865.6525, 103.5070
866.1346, 103.9933
866.6167, 103.4211
867.0988, 102.4546
867.5809, 102.1764
868.0630, 102.4077
868.5452, 102.5772
869.0273, 102.5643
869.5094, 102.4130
869.9915, 102.1431
870.4736, 101.7954
870.9557, 101.4904
871.4379, 101.2539
871.9200, 100.8883
872.4021, 100.3186
872.8842, 99.76834
873.3663, 99.32886
873.8484, 98.96471
874.3306, 98.64960
874.8127, 98.38578
875.2948, 98.08686
875.7769, 97.92308
876.2590, 97.49732
876.7411, 96.65067
877.2233, 95.53357
877.7054, 93.99353
878.1875, 92.32496
878.6696, 91.30936
879.1517, 91.40728
879.6339, 91.55091
880.1160, 90.83548
880.5981, 89.68621
881.0802, 88.60130
881.5623, 87.62294
882.0444, 86.73779
882.5266, 85.93928
883.0087, 85.16192
883.4908, 84.33884
883.9729, 83.48190
884.4550, 82.64245
884.9371, 81.82153
885.4193, 81.06188
885.9014, 80.39323
886.3835, 79.70924
886.8656, 78.93455
887.3477, 78.09109
887.8298, 77.21310
888.3120, 76.21103
888.7941, 75.42561
889.2762, 74.99365
889.7583, 74.60861
890.2404, 74.24515
890.7225, 73.84184
891.2047, 73.23936
891.6868, 72.48827
892.1689, 72.00818
892.6510, 72.24009
893.1331, 72.36550
893.6152, 71.83883
894.0974, 71.09170
894.5795, 70.54289
895.0616, 70.20061
895.5437, 69.94501
896.0258, 69.72392
896.5079, 69.49917
896.9901, 69.19693
897.4722, 68.87253
897.9543, 68.67090
898.4364, 68.57640
898.9185, 68.47825
899.4006, 68.34594
899.8828, 68.24468
900.3649, 68.23219
900.8470, 68.29381
901.3291, 68.38454
901.8112, 68.51297
902.2933, 68.64427
902.7755, 68.84867
903.2576, 68.88242
903.7397, 68.49491
904.2218, 67.96446
904.7039, 67.75337
905.1860, 67.90755
905.6682, 68.05228
906.1503, 68.21864
906.6324, 68.32913
907.1145, 68.29618
907.5966, 68.25990
908.0787, 68.36716
908.5609, 68.56722
909.0430, 68.69229
909.5251, 68.67833
910.0072, 68.63361
910.4893, 68.61697
910.9714, 68.60157
911.4536, 68.53330
911.9357, 68.45177
912.4178, 68.45545
912.8999, 68.55767
913.3820, 68.64684
913.8641, 68.58443
914.3463, 68.53288
914.8284, 68.95760
915.3105, 69.68926
915.7926, 69.85279
916.2748, 69.34953
916.7569, 68.92489
917.2390, 68.99546
917.7211, 69.31626
918.2032, 69.47464
918.6854, 69.45973
919.1675, 69.59338
919.6496, 69.97559
920.1317, 70.18933
920.6138, 70.06954
921.0959, 69.83212
921.5781, 69.60235
922.0602, 69.40732
922.5423, 69.39378
923.0244, 69.76324
923.5065, 69.93067
923.9886, 69.78357
924.4708, 69.53218
924.9529, 69.18496
925.4350, 68.83442
925.9171, 68.60718
926.3992, 68.50732
926.8813, 68.39353
927.3635, 68.21564
927.8456, 68.00364
928.3277, 67.66948
928.8098, 67.38554
929.2919, 67.46622
929.7740, 67.76254
930.2562, 67.78630
930.7383, 67.33981
931.2204, 66.85290
931.7025, 66.80501
932.1846, 66.97404
932.6667, 66.98224
933.1489, 66.83971
933.6310, 66.54609
934.1131, 66.12334
934.5952, 65.83629
935.0773, 65.91286
935.5594, 66.13492
936.0416, 65.93132
936.5237, 65.29635
937.0058, 64.91190
937.4879, 64.83035
937.9700, 64.90340
938.4521, 65.15197
938.9343, 65.33396
939.4164, 65.10278
939.8985, 64.49880
940.3806, 64.24741
940.8627, 64.60719
941.3448, 64.81265
941.8270, 64.74339
942.3091, 64.56546
942.7912, 64.22163
943.2733, 63.88911
943.7554, 63.91690
944.2375, 64.38502
944.7197, 64.66631
945.2018, 64.63396
945.6839, 64.42767
946.1660, 63.84574
946.6481, 63.31590
947.1302, 63.33319
947.6124, 63.74186
948.0945, 63.99497
948.5766, 63.89590
949.0587, 63.68920
949.5408, 63.46770
950.0229, 63.26194
950.5051, 63.13558
950.9872, 63.03453
951.4693, 62.83505
951.9514, 62.53031
952.4335, 62.24799
952.9156, 62.07647
953.3978, 61.96836
953.8799, 61.86762
954.3620, 61.77363
954.8441, 61.71673
955.3262, 61.67808
955.8083, 61.47973
956.2905, 61.05095
956.7726, 60.67793
957.2547, 60.72745
957.7368, 61.07077
958.2189, 61.13588
958.7010, 60.91231
959.1832, 60.59954
959.6653, 60.20269
960.1474, 59.83129
960.6295, 59.55383
961.1116, 59.31932
961.5938, 59.00138
962.0759, 58.55603
962.5580, 58.48748
963.0401, 59.13398
963.5222, 59.43077
964.0043, 58.92210
964.4865, 58.27338
964.9686, 58.07114
965.4507, 58.11963
965.9328, 57.74958
966.4149, 56.61825
966.8970, 55.99865
967.3792, 56.45486
967.8613, 56.85084
968.3434, 56.69352
968.8255, 56.33806
969.3076, 56.16234
969.7897, 56.14270
970.2719, 56.01752
970.7540, 55.69781
971.2361, 55.30230
971.7182, 54.76936
972.2003, 54.28447
972.6824, 54.00464
973.1646, 53.87125
973.6467, 53.85032
974.1288, 53.88819
974.6109, 53.74183
975.0930, 53.17250
975.5751, 52.52562
976.0573, 52.05689
976.5394, 51.75137
977.0215, 51.70345
977.5036, 51.79268
977.9857, 51.64116
978.4678, 51.12585
978.9500, 50.55222
979.4321, 50.20927
979.9142, 50.01783
980.3963, 49.87981
980.8784, 49.75887
981.3605, 49.49158
981.8427, 49.07115
982.3248, 48.68225
982.8069, 48.42453
983.2890, 48.23190
983.7711, 48.04225
984.2532, 47.83214
984.7354, 47.34271
985.2175, 46.55856
985.6996, 46.10171
986.1817, 46.15440
986.6638, 46.21546
987.1459, 45.93407
987.6281, 45.42511
988.1102, 44.94518
988.5923, 44.50129
989.0744, 43.99377
989.5565, 43.34980
990.0386, 42.86280
990.5208, 42.66850
991.0029, 42.56821
991.4850, 42.42717
991.9671, 42.23309
992.4492, 41.92033
992.9313, 41.34736
993.4135, 40.99926
993.8956, 40.97818
994.3777, 41.04740
994.8598, 41.30873
995.3419, 41.49273
995.8240, 41.25058
996.3062, 40.67245
996.7883, 40.29644
997.2704, 40.30907
997.7525, 40.26702
998.2346, 40.02729
998.7167, 39.81319
999.1989, 39.79369
999.6810, 39.82566
1000.163, 39.63247
1000.645, 39.25761
1001.127, 39.22002
1001.609, 40.06720
1002.092, 40.63989
1002.574, 40.23891
1003.056, 39.61249
1003.538, 39.24026
1004.020, 39.10841
1004.502, 39.17957
1004.984, 39.40784
1005.466, 39.54672
1005.948, 39.40310
1006.431, 39.21572
1006.913, 39.21280
1007.395, 39.22357
1007.877, 39.04836
1008.359, 38.71101
1008.841, 38.25756
1009.323, 37.72871
1009.805, 37.35136
1010.288, 37.40118
1010.770, 37.57945
1011.252, 37.54247
1011.734, 37.36562
1012.216, 37.17163
1012.698, 36.97517
1013.180, 36.76440
1013.662, 36.53296
1014.144, 36.24097
1014.627, 35.77574
1015.109, 35.28492
1015.591, 35.14149
1016.073, 35.22478
1016.555, 35.11617
1017.037, 34.78659
1017.519, 34.47947
1018.001, 34.31738
1018.484, 34.25062
1018.966, 34.25080
1019.448, 34.27790
1019.930, 34.15411
1020.412, 33.90191
1020.894, 33.74308
1021.376, 33.71438
1021.858, 33.64868
1022.340, 33.44160
1022.823, 33.20418
1023.305, 33.11111
1023.787, 33.15210
1024.269, 33.28362
1024.751, 33.52478
1025.233, 33.42811
1025.715, 32.85097
1026.197, 32.32533
1026.680, 32.19208
1027.162, 32.30472
1027.644, 32.41082
1028.126, 32.51207
1028.608, 32.52305
1029.090, 32.42034
1029.572, 32.33856
1030.054, 32.30539
1030.536, 32.30864
1031.019, 32.36587
1031.501, 32.41571
1031.983, 32.30091
1032.465, 31.97708
1032.947, 31.85037
1033.429, 31.98904
1033.911, 32.15314
1034.393, 32.33312
1034.875, 32.44830
1035.358, 32.40151
1035.840, 32.27675
1036.322, 32.28515
1036.804, 32.47169
1037.286, 32.57835
1037.768, 32.62598
1038.250, 32.54928
1038.732, 32.21367
1039.215, 31.89488
1039.697, 31.79989
1040.179, 31.86612
1040.661, 31.96341
1041.143, 32.16082
1041.625, 32.13430
1042.107, 31.59893
1042.589, 31.23207
1043.072, 31.15411
1043.554, 31.29550
1044.036, 31.84207
1044.518, 32.52808
1045.000, 32.68111
1045.482, 32.13683
1045.964, 31.64029
1046.446, 31.13924
1046.928, 30.82876
1047.411, 30.78429
1047.893, 30.92295
1048.375, 31.31042
1048.857, 31.80658
1049.339, 32.10141
1049.821, 32.15400
1050.303, 32.07170
1050.785, 31.81476
1051.267, 31.49837
1051.750, 30.94395
1052.232, 30.54029
1052.714, 30.78198
1053.196, 31.36535
1053.678, 31.57088
1054.160, 31.23953
1054.642, 30.91543
1055.124, 30.55408
1055.607, 30.44314
1056.089, 30.95730
1056.571, 31.52326
1057.053, 31.67884
1057.535, 31.51730
1058.017, 31.27255
1058.499, 30.97121
1058.981, 30.75974
1059.464, 30.70759
1059.946, 30.72261
1060.428, 30.84281
1060.910, 30.94702
1061.392, 30.89217
1061.874, 30.75713
1062.356, 30.73284
1062.838, 30.86216
1063.320, 30.93244
1063.802, 30.84856
1064.285, 30.71520
1064.767, 30.43812
1065.249, 30.25837
1065.731, 30.51909
1066.213, 30.98519
1066.695, 31.16827
1067.177, 30.97567
1067.659, 30.77044
1068.142, 30.60909
1068.624, 30.57960
1069.106, 30.86495
1069.588, 31.16769
1070.070, 31.21547
1070.552, 31.10498
1071.034, 31.03024
1071.516, 31.03066
1071.999, 31.06886
1072.481, 31.22872
1072.963, 31.29133
1073.445, 31.00112
1073.927, 30.71914
1074.409, 30.80285
1074.891, 31.07749
1075.373, 31.26639
1075.855, 31.30952
1076.338, 31.20750
1076.820, 30.82135
1077.302, 30.52031
1077.784, 30.60394
1078.266, 30.72200
1078.748, 30.50968
1079.230, 30.19650
1079.712, 30.19989
1080.194, 30.52117
1080.677, 30.75578
1081.159, 30.70334
1081.641, 30.64355
1082.123, 30.80228
1082.605, 30.90195
1083.087, 30.57625
1083.569, 30.16682
1084.052, 30.20940
1084.534, 30.65713
1085.016, 30.97826
1085.498, 30.99831
1085.980, 30.86147
1086.462, 30.47396
1086.944, 30.12384
1087.426, 29.95715
1087.908, 29.96296
1088.391, 30.21176
1088.873, 30.60958
1089.355, 30.85778
1089.837, 30.84671
1090.319, 30.79448
1090.801, 30.75180
1091.283, 30.73688
1091.765, 30.84890
1092.247, 30.92302
1092.730, 30.74940
1093.212, 30.40082
1093.694, 30.06439
1094.176, 29.75904
1094.658, 29.67257
1095.140, 30.00361
1095.622, 30.40010
1096.104, 30.91146
1096.587, 31.23429
1097.069, 30.93361
1097.551, 30.30372
1098.033, 29.95574
1098.515, 30.00126
1098.997, 30.15465
1099.479, 30.51666
1099.961, 30.72243
1100.443, 30.53782
1100.926, 30.26808
1101.408, 30.08706
1101.890, 29.98835
1102.372, 29.96405
1102.854, 30.00618
1103.336, 30.00468
1103.818, 29.92151
1104.300, 29.81334
1104.782, 29.61510
1105.265, 29.48223
1105.747, 29.54981
1106.229, 29.69682
1106.711, 29.78929
1107.193, 29.81769
1107.675, 29.78889
1108.157, 29.60021
1108.639, 29.55469
1109.122, 29.81843
1109.604, 30.07208
1110.086, 30.22934
1110.568, 30.28931
1111.050, 30.22384
1111.532, 30.06158
1112.014, 29.89310
1112.496, 29.65922
1112.979, 29.59400
1113.461, 29.88314
1113.943, 30.10126
1114.425, 30.06825
1114.907, 30.01202
1115.389, 30.13963
1115.871, 30.34453
1116.353, 30.38978
1116.835, 30.26204
1117.318, 30.04824
1117.800, 29.65056
1118.282, 29.34652
1118.764, 29.17928
1119.246, 29.11252
1119.728, 29.15779
1120.210, 29.26314
1120.692, 29.35322
1121.174, 29.42861
1121.657, 29.51346
1122.139, 29.67588
1122.621, 29.63183
1123.103, 29.21847
1123.585, 28.95463
1124.067, 29.13147
1124.549, 29.40516
1125.031, 29.37240
1125.514, 29.12105
1125.996, 29.08417
1126.478, 29.31831
1126.960, 29.45393
1127.442, 29.46368
1127.924, 29.45148
1128.406, 29.44633
1128.888, 29.43623
1129.370, 29.41446
1129.853, 29.37316
1130.335, 29.26846
1130.817, 29.10063
1131.299, 29.14048
1131.781, 29.40540
1132.263, 29.47436
1132.745, 29.25027
1133.227, 29.06083
1133.709, 29.10131
1134.192, 29.22397
1134.674, 29.20442
1135.156, 29.09450
1135.638, 29.12362
1136.120, 29.27187
1136.602, 29.40271
1137.084, 29.49406
1137.566, 29.48873
1138.049, 29.36649
1138.531, 29.22166
1139.013, 29.13054
1139.495, 29.10772
1139.977, 29.25142
1140.459, 29.46757
1140.941, 29.45964
1141.423, 29.26841
1141.906, 29.11181
1142.388, 29.04282
1142.870, 28.97633
1143.352, 28.84699
1143.834, 28.77908
1144.316, 29.01751
1144.798, 29.33699
1145.280, 29.39528
1145.762, 29.26881
1146.245, 29.04284
1146.727, 28.80708
1147.209, 28.79284
1147.691, 29.08751
1148.173, 29.40186
1148.655, 29.60397
1149.137, 29.63703
1149.619, 29.29918
1150.101, 28.88705
1150.584, 28.70577
1151.066, 28.74302
1151.548, 28.99190
1152.030, 29.39402
1152.512, 29.59225
1152.994, 29.33334
1153.476, 29.04069
1153.958, 28.86529
1154.441, 28.78665
1154.923, 28.84160
1155.405, 28.94853
1155.887, 29.01998
1156.369, 29.05510
1156.851, 29.08596
1157.333, 29.11244
1157.815, 29.16024
1158.297, 29.28255
1158.780, 29.36210
1159.262, 29.28161
1159.744, 29.22560
1160.226, 29.37166
1160.708, 29.61569
1161.190, 29.74810
1161.672, 29.75493
1162.154, 29.82710
1162.636, 30.14999
1163.119, 30.17290
1163.601, 29.63982
1164.083, 29.18065
1164.565, 29.04796
1165.047, 29.10552
1165.529, 29.24056
1166.011, 29.43080
1166.493, 29.59976
1166.976, 29.77275
1167.458, 29.78014
1167.940, 29.58502
1168.422, 29.39611
1168.904, 29.25200
1169.386, 29.19080
1169.868, 29.25016
1170.350, 29.35962
1170.833, 29.39127
1171.315, 29.37099
1171.797, 29.45840
1172.279, 29.64522
1172.761, 29.87692
1173.243, 30.13242
1173.725, 30.23347
1174.207, 30.11409
1174.689, 29.90187
1175.172, 29.69751
1175.654, 29.51548
1176.136, 29.37787
1176.618, 29.28267
1177.100, 29.22424
1177.582, 29.20600
1178.064, 29.24042
1178.546, 29.32661
1179.028, 29.45783
1179.511, 29.63464
1179.993, 29.79769
1180.475, 29.93821
1180.957, 29.99877
1181.439, 29.85962
1181.921, 29.65585
1182.403, 29.53737
1182.885, 29.50358
1183.368, 29.53243
1183.850, 29.60888
1184.332, 29.65325
1184.814, 29.59491
1185.296, 29.56822
1185.778, 29.71705
1186.260, 29.81107
1186.742, 29.66931
1187.224, 29.43292
1187.707, 29.19279
1188.189, 29.00007
1188.671, 29.01332
1189.153, 29.34251
1189.635, 29.50391
1190.117, 29.34832
1190.599, 29.20532
1191.081, 29.14324
1191.564, 29.07064
1192.046, 28.88442
1192.528, 28.72853
1193.010, 28.84357
1193.492, 29.17711
1193.974, 29.26483
1194.456, 29.04200
1194.938, 28.92453
1195.421, 28.95307
1195.903, 28.95404
1196.385, 28.86885
1196.867, 28.80593
1197.349, 28.85933
1197.831, 28.92185
1198.313, 28.72966
1198.795, 28.38513
1199.277, 28.48042
1199.760, 28.90149
1200.242, 29.01473
1200.724, 28.79149
1201.206, 28.62701
1201.688, 28.66574
1202.170, 28.71332
1202.652, 28.59641
1203.134, 28.44456
1203.616, 28.40422
1204.099, 28.44479
1204.581, 28.56022
1205.063, 28.70527
1205.545, 28.84587
1206.027, 28.93926
1206.509, 28.86359
1206.991, 28.56080
1207.473, 28.27291
1207.956, 28.08772
1208.438, 28.00464
1208.920, 28.08758
1209.402, 28.20855
1209.884, 28.29177
1210.366, 28.33174
1210.848, 28.32092
1211.330, 28.26452
1211.813, 28.20870
1212.295, 28.16221
1212.777, 28.10674
1213.259, 27.98040
1213.741, 27.95120
1214.223, 28.13886
1214.705, 28.30679
1215.187, 28.25962
1215.669, 28.13430
1216.151, 28.20213
1216.634, 28.44320
1217.116, 28.49964
1217.598, 28.35436
1218.080, 28.24743
1218.562, 28.20617
1219.044, 28.05398
1219.526, 27.71985
1220.008, 27.63310
1220.491, 28.21184
1220.973, 28.87899
1221.455, 28.39137
1221.937, 27.32361
1222.419, 27.27345
1222.901, 27.86642
1223.383, 28.03370
1223.865, 27.74447
1224.348, 27.54248
1224.830, 27.60762
1225.312, 27.64639
1225.794, 27.37750
1226.276, 27.16985
1226.758, 27.37060
1227.240, 27.69011
1227.722, 27.96729
1228.204, 28.13617
1228.687, 28.08995
1229.169, 27.88106
1229.651, 27.68754
1230.133, 27.54312
1230.615, 27.41254
1231.097, 27.33145
1231.579, 27.20217
1232.061, 26.90031
1232.543, 26.68233
1233.026, 26.69549
1233.508, 26.81551
1233.990, 26.92258
1234.472, 27.01088
1234.954, 27.05429
1235.436, 27.05161
1235.918, 26.98775
1236.400, 26.84565
1236.883, 26.85632
1237.365, 27.07583
1237.847, 27.23548
1238.329, 27.19141
1238.811, 27.05752
1239.293, 26.94358
1239.775, 26.86803
1240.257, 26.90717
1240.740, 26.99675
1241.222, 26.93341
1241.704, 26.79999
1242.186, 26.89055
1242.668, 27.19455
1243.150, 27.40801
1243.632, 27.39898
1244.114, 27.29409
1244.596, 27.13466
1245.078, 26.96084
1245.561, 26.73420
1246.043, 26.56738
1246.525, 26.67978
1247.007, 26.84062
1247.489, 26.58840
1247.971, 25.99872
1248.453, 25.80876
1248.935, 26.27459
1249.418, 26.70586
1249.900, 27.25556
1250.382, 27.43119
1250.864, 26.93872
1251.346, 26.48023
1251.828, 26.46938
1252.310, 26.64608
1252.792, 26.66315
1253.275, 26.57627
1253.757, 26.65196
1254.239, 26.86614
1254.721, 26.88218
1255.203, 26.71335
1255.685, 26.60708
1256.167, 26.61028
1256.649, 26.59493
1257.131, 26.49331
1257.614, 26.41936
1258.096, 26.51869
1258.578, 26.66308
1259.060, 26.71511
1259.542, 26.71420
1260.024, 26.64896
1260.506, 26.59845
1260.988, 26.77033
1261.470, 27.09118
1261.953, 27.15225
1262.435, 26.78063
1262.917, 26.45875
1263.399, 26.26801
1263.881, 26.19881
1264.363, 26.34875
1264.845, 26.50068
1265.327, 26.55172
1265.810, 26.54512
1266.292, 26.53004
1266.774, 26.49901
1267.256, 26.41455
1267.738, 26.26946
1268.220, 26.10188
1268.702, 25.90279
1269.184, 26.09222
1269.667, 26.72704
1270.149, 27.09480
1270.631, 26.87182
1271.113, 26.48006
1271.595, 26.29200
1272.077, 26.23547
1272.559, 26.24476
1273.041, 26.28296
1273.523, 26.23139
1274.005, 26.20250
1274.488, 26.52546
1274.970, 27.04448
1275.452, 27.17304
1275.934, 26.75359
1276.416, 26.40834
1276.898, 26.50121
1277.380, 26.49933
1277.862, 26.03234
1278.345, 25.72287
1278.827, 26.08842
1279.309, 26.51058
1279.791, 26.43471
1280.273, 26.09755
1280.755, 26.02362
1281.237, 26.21013
1281.719, 26.44136
1282.202, 26.73057
1282.684, 26.82318
1283.166, 26.69668
1283.648, 26.65365
1284.130, 26.78517
1284.612, 26.90017
1285.094, 26.86689
1285.576, 26.75903
1286.058, 26.43730
1286.541, 26.30386
1287.023, 26.82130
##END=



