##NAMES=Schorlomite
##RRUFFID=R060125
##IDEAL CHEMISTRY=Ca_3_Ti^4+^_2_(Fe^3+^_2_Si)O_12_
##LOCALITY=Magnet Cove, Arkansas, USA
##OWNER=RRUFF
##SOURCE=University of Arizona Mineral Museum
##DESCRIPTION=Black massive
##STATUS=The identification of this mineral has been confirmed by X-ray diffraction and chemical analysis
##URL=rruff.info/R060125
##MEASURED CHEMISTRY=Ca_3.00_(Ti^4+^_0.74_Zr_0.44_Fe^3+^_0.38_Al_0.21_Mg_0.20_Mn_0.03_)_Σ=2_[(Si_0.68_Fe^3+^_0.32_)_Σ=1_O_4_]_3_
90.52570, 0.0000000E+00
91.00781, 5.381804
91.48993, 5.646255
91.97205, 5.752164
92.45416, 5.579023
92.93628, 5.252925
93.41840, 5.054793
93.90051, 5.048409
94.38263, 5.152413
94.86475, 5.277205
95.34686, 5.421958
95.82898, 5.508173
96.31110, 5.418486
96.79321, 5.174471
97.27533, 5.017636
97.75745, 5.040700
98.23956, 5.188184
98.72168, 5.205661
99.20380, 5.058304
99.68591, 4.889535
100.1680, 4.859757
100.6501, 4.990179
101.1323, 5.160398
101.6144, 5.362092
102.0965, 5.606668
102.5786, 5.721855
103.0607, 5.631346
103.5428, 5.479407
104.0250, 5.511697
104.5071, 5.801034
104.9892, 6.152960
105.4713, 6.513511
105.9534, 6.951995
106.4355, 7.239115
106.9177, 7.270638
107.3998, 7.146297
107.8819, 7.183227
108.3640, 7.478699
108.8461, 7.856776
109.3282, 8.242283
109.8104, 8.400250
110.2925, 8.823356
110.7746, 9.650411
111.2567, 10.82491
111.7388, 11.94180
112.2209, 12.92206
112.7031, 13.83939
113.1852, 14.75580
113.6673, 15.64090
114.1494, 16.55587
114.6315, 17.53843
115.1136, 18.60067
115.5958, 19.64019
116.0779, 20.65198
116.5600, 21.61712
117.0421, 22.51056
117.5242, 23.41598
118.0063, 24.18893
118.4885, 24.67397
118.9706, 24.78370
119.4527, 25.01903
119.9348, 25.59832
120.4169, 26.49135
120.8990, 27.65717
121.3812, 29.20581
121.8633, 30.95615
122.3454, 32.75091
122.8275, 34.62264
123.3096, 36.42293
123.7917, 38.10687
124.2739, 39.63851
124.7560, 40.88597
125.2381, 41.40743
125.7202, 41.64461
126.2023, 42.36794
126.6844, 43.88478
127.1666, 45.78337
127.6487, 47.57154
128.1308, 49.25714
128.6129, 50.83875
129.0950, 52.37601
129.5771, 53.83659
130.0593, 55.10801
130.5414, 56.13346
131.0235, 56.94730
131.5056, 57.52015
131.9877, 57.62319
132.4698, 57.41049
132.9520, 57.29309
133.4341, 57.27130
133.9162, 57.40351
134.3983, 57.76742
134.8804, 58.32418
135.3625, 58.75200
135.8447, 58.99681
136.3268, 59.25702
136.8089, 59.81033
137.2910, 60.67658
137.7731, 61.70838
138.2552, 62.92731
138.7374, 64.37191
139.2195, 65.67413
139.7016, 66.93349
140.1837, 67.98564
140.6658, 68.37129
141.1479, 67.81550
141.6301, 67.24522
142.1122, 67.06313
142.5943, 67.31446
143.0764, 67.84312
143.5585, 68.80937
144.0406, 70.03083
144.5228, 70.84451
145.0049, 70.83730
145.4870, 70.92896
145.9691, 71.68282
146.4512, 73.93891
146.9333, 75.49437
147.4155, 76.03130
147.8976, 75.66181
148.3797, 75.35838
148.8618, 74.92277
149.3439, 74.68850
149.8260, 74.86623
150.3082, 75.90122
150.7903, 76.85101
151.2724, 77.63217
151.7545, 78.23731
152.2366, 78.80943
152.7188, 79.31949
153.2009, 79.81428
153.6830, 80.32529
154.1651, 81.02739
154.6472, 81.57853
155.1293, 81.81270
155.6115, 81.67652
156.0936, 81.67022
156.5757, 82.01861
157.0578, 82.49187
157.5399, 82.83427
158.0220, 82.69766
158.5042, 82.67358
158.9863, 83.03451
159.4684, 83.88166
159.9505, 84.71296
160.4326, 85.30226
160.9147, 85.79099
161.3969, 86.38860
161.8790, 87.34420
162.3611, 88.30147
162.8432, 89.06557
163.3253, 89.56837
163.8074, 89.98597
164.2896, 90.33376
164.7717, 90.64997
165.2538, 91.01194
165.7359, 91.66870
166.2180, 92.25951
166.7001, 92.44186
167.1823, 91.94766
167.6644, 91.50004
168.1465, 91.73699
168.6286, 92.41978
169.1107, 92.87816
169.5928, 92.55336
170.0750, 91.89772
170.5571, 91.39995
171.0392, 91.30373
171.5213, 91.17941
172.0034, 90.57195
172.4855, 89.57933
172.9677, 88.64962
173.4498, 88.07183
173.9319, 87.72547
174.4140, 87.43900
174.8961, 87.15288
175.3782, 86.92564
175.8604, 86.90126
176.3425, 87.04637
176.8246, 87.08548
177.3067, 86.67439
177.7888, 86.01242
178.2709, 85.52125
178.7531, 85.40724
179.2352, 85.45522
179.7173, 85.36729
180.1994, 85.14592
180.6815, 84.84094
181.1636, 84.37540
181.6458, 83.83957
182.1279, 83.52441
182.6100, 83.60530
183.0921, 83.92713
183.5742, 84.23401
184.0563, 84.52577
184.5385, 84.70477
185.0206, 84.54954
185.5027, 84.14188
185.9848, 83.89095
186.4669, 84.05476
186.9490, 84.46599
187.4312, 84.58616
187.9133, 84.37849
188.3954, 84.10963
188.8775, 84.14676
189.3596, 84.45078
189.8417, 84.64928
190.3239, 84.55399
190.8060, 84.22221
191.2881, 83.88768
191.7702, 83.51637
192.2523, 83.28678
192.7344, 83.56711
193.2166, 84.35593
193.6987, 84.99429
194.1808, 85.13106
194.6629, 84.81909
195.1450, 84.70502
195.6271, 84.82507
196.1093, 85.05000
196.5914, 85.21293
197.0735, 85.31351
197.5556, 85.35352
198.0377, 85.24519
198.5198, 84.98413
199.0020, 85.08169
199.4841, 85.65894
199.9662, 86.37952
200.4483, 86.66711
200.9304, 86.45710
201.4125, 86.20596
201.8947, 86.04295
202.3768, 85.95017
202.8589, 86.23701
203.3410, 87.05765
203.8231, 88.06043
204.3052, 88.52760
204.7874, 88.34907
205.2695, 88.11868
205.7516, 88.09680
206.2337, 88.30900
206.7158, 88.55802
207.1979, 88.84203
207.6801, 89.16391
208.1622, 89.54787
208.6443, 90.03493
209.1264, 90.46593
209.6085, 90.74931
210.0906, 90.84618
210.5728, 90.97758
211.0549, 91.15988
211.5370, 91.36819
212.0191, 91.50479
212.5012, 91.48493
212.9833, 91.60529
213.4655, 92.08485
213.9476, 93.11141
214.4297, 93.78397
214.9118, 93.95049
215.3939, 93.82381
215.8760, 93.95716
216.3581, 94.46362
216.8403, 94.99425
217.3224, 95.36026
217.8045, 95.48232
218.2866, 95.68703
218.7687, 95.98030
219.2508, 96.35723
219.7330, 96.82686
220.2151, 97.47857
220.6972, 98.05083
221.1793, 98.33506
221.6614, 98.05583
222.1435, 98.28513
222.6257, 99.33503
223.1078, 100.8140
223.5899, 101.6113
224.0720, 101.3688
224.5541, 101.0212
225.0362, 101.0108
225.5184, 101.5026
226.0005, 101.9289
226.4826, 102.2678
226.9647, 102.5421
227.4468, 102.8194
227.9289, 103.0914
228.4111, 103.3816
228.8932, 103.7261
229.3753, 104.2314
229.8574, 104.5265
230.3395, 104.4904
230.8216, 104.2668
231.3038, 104.2751
231.7859, 104.6949
232.2680, 105.0805
232.7501, 105.2020
233.2322, 104.8552
233.7143, 104.6995
234.1965, 104.7562
234.6786, 105.0003
235.1607, 105.3877
235.6428, 106.0452
236.1249, 106.6585
236.6070, 107.0741
237.0892, 107.1732
237.5713, 107.3335
238.0534, 107.5742
238.5355, 107.8697
239.0176, 108.1519
239.4997, 108.4068
239.9819, 108.6742
240.4640, 108.9778
240.9461, 109.3655
241.4282, 109.6788
241.9103, 109.8909
242.3924, 110.0384
242.8746, 110.2039
243.3567, 110.3790
243.8388, 110.5860
244.3209, 110.7908
244.8030, 110.8354
245.2851, 111.3480
245.7673, 112.6829
246.2494, 114.3437
246.7315, 115.1992
247.2136, 114.7796
247.6957, 114.3036
248.1778, 114.2757
248.6600, 114.9242
249.1421, 115.3055
249.6242, 115.2364
250.1063, 114.9997
250.5884, 115.1765
251.0705, 116.0059
251.5527, 116.8419
252.0348, 117.4272
252.5169, 117.6770
252.9990, 118.0005
253.4811, 118.4212
253.9632, 118.9025
254.4454, 119.3532
254.9275, 119.6854
255.4096, 120.1619
255.8917, 120.9426
256.3738, 122.1535
256.8560, 123.0600
257.3381, 123.6101
257.8202, 123.9077
258.3023, 124.0797
258.7844, 124.0210
259.2665, 124.0684
259.7487, 124.3888
260.2308, 125.0569
260.7129, 125.4591
261.1950, 125.5371
261.6771, 125.4133
262.1592, 125.1934
262.6414, 124.7573
263.1235, 124.5486
263.6056, 124.8192
264.0877, 125.6351
264.5698, 125.9290
265.0519, 125.5393
265.5341, 124.8514
266.0162, 124.2824
266.4983, 123.8421
266.9804, 123.5082
267.4625, 123.2981
267.9446, 123.2114
268.4268, 123.0658
268.9089, 122.7956
269.3910, 122.5873
269.8731, 122.6948
270.3552, 123.2283
270.8373, 123.6330
271.3195, 123.8037
271.8016, 123.7424
272.2837, 123.4411
272.7658, 122.7946
273.2479, 122.1344
273.7300, 121.7365
274.2122, 121.6108
274.6943, 121.7034
275.1764, 122.0683
275.6585, 122.6451
276.1406, 123.0872
276.6227, 123.3476
277.1049, 123.6324
277.5870, 124.1639
278.0691, 124.9755
278.5512, 125.6441
279.0333, 126.0637
279.5154, 126.3147
279.9976, 126.6745
280.4797, 127.1648
280.9618, 127.6569
281.4439, 128.0252
281.9260, 128.2651
282.4081, 128.6544
282.8903, 129.2532
283.3724, 129.9916
283.8545, 130.6754
284.3366, 131.2886
284.8187, 132.0159
285.3008, 133.0882
285.7830, 134.4663
286.2651, 135.5311
286.7472, 136.1625
287.2293, 136.5994
287.7114, 137.3176
288.1935, 138.3134
288.6757, 139.2457
289.1578, 139.7240
289.6399, 139.9061
290.1220, 140.6946
290.6041, 142.2810
291.0862, 144.0247
291.5684, 144.9191
292.0505, 145.0484
292.5326, 145.1776
293.0147, 145.7201
293.4968, 146.5528
293.9789, 147.3663
294.4611, 148.1608
294.9432, 148.8450
295.4253, 149.1531
295.9074, 149.2014
296.3895, 149.4787
296.8716, 150.4970
297.3538, 151.8182
297.8359, 152.4555
298.3180, 152.3889
298.8001, 152.2163
299.2822, 152.5051
299.7643, 153.1338
300.2465, 153.7895
300.7286, 154.4807
301.2107, 155.0596
301.6928, 155.2433
302.1749, 155.0533
302.6570, 154.8401
303.1392, 154.7659
303.6213, 154.8749
304.1034, 155.2841
304.5855, 156.2808
305.0676, 157.2945
305.5497, 157.6954
306.0319, 157.5716
306.5140, 157.4012
306.9961, 157.4301
307.4782, 157.6110
307.9603, 157.9360
308.4424, 158.5408
308.9246, 159.0194
309.4067, 158.8599
309.8888, 158.2811
310.3709, 157.9087
310.8530, 158.3707
311.3351, 159.0276
311.8173, 159.2973
312.2994, 158.9817
312.7815, 158.6142
313.2636, 158.5104
313.7457, 158.5776
314.2278, 158.6494
314.7100, 158.5609
315.1921, 158.5276
315.6742, 158.7517
316.1563, 159.3156
316.6384, 159.7450
317.1205, 159.6418
317.6027, 159.3354
318.0848, 159.2436
318.5669, 159.6687
319.0490, 160.1788
319.5311, 160.5713
320.0132, 160.8269
320.4954, 161.2122
320.9775, 161.7497
321.4596, 162.4684
321.9417, 163.3868
322.4238, 164.6119
322.9059, 165.9285
323.3881, 167.2952
323.8702, 168.7029
324.3523, 170.1929
324.8344, 171.7541
325.3165, 173.4094
325.7986, 175.1869
326.2808, 177.1331
326.7629, 179.1517
327.2450, 181.1992
327.7271, 183.3054
328.2092, 185.5888
328.6913, 188.0000
329.1735, 190.6299
329.6556, 193.5942
330.1377, 197.2453
330.6198, 200.5386
331.1019, 203.1179
331.5840, 205.4341
332.0662, 208.4455
332.5483, 212.7244
333.0304, 216.8955
333.5125, 220.3488
333.9946, 222.8940
334.4767, 225.9169
334.9589, 229.4851
335.4410, 233.4214
335.9231, 237.5644
336.4052, 242.0009
336.8873, 246.3054
337.3694, 250.2293
337.8515, 253.8026
338.3336, 257.9738
338.8158, 263.0225
339.2979, 268.1068
339.7800, 272.4981
340.2621, 276.0702
340.7442, 279.6270
341.2263, 283.2682
341.7085, 286.9583
342.1906, 290.4508
342.6727, 293.8034
343.1548, 296.7915
343.6369, 299.3793
344.1190, 301.5312
344.6012, 302.9858
345.0833, 303.6138
345.5654, 303.6912
346.0475, 303.7313
346.5296, 303.7139
347.0117, 303.3234
347.4939, 302.3104
347.9760, 300.7888
348.4581, 299.0070
348.9402, 296.9287
349.4223, 294.8684
349.9044, 293.0244
350.3866, 291.4331
350.8687, 290.1979
351.3508, 289.7414
351.8329, 289.4874
352.3150, 288.2288
352.7971, 286.0015
353.2793, 284.1772
353.7614, 284.0927
354.2435, 285.0458
354.7256, 285.9094
355.2077, 286.3759
355.6898, 286.6100
356.1720, 286.7659
356.6541, 286.8190
357.1362, 286.6733
357.6183, 286.0990
358.1004, 285.3934
358.5826, 284.8931
359.0647, 284.8471
359.5468, 284.5276
360.0289, 283.3730
360.5110, 281.6795
360.9931, 280.0037
361.4753, 279.3473
361.9574, 278.1600
362.4395, 275.4450
362.9216, 270.8845
363.4037, 266.2982
363.8858, 262.0545
364.3680, 258.1276
364.8501, 254.4750
365.3322, 251.7744
365.8143, 248.7021
366.2964, 244.8024
366.7785, 240.0742
367.2607, 235.4405
367.7428, 230.9406
368.2249, 226.5613
368.7070, 222.2843
369.1891, 218.3399
369.6712, 214.2367
370.1534, 209.8615
370.6355, 205.2934
371.1176, 200.7641
371.5997, 196.1122
372.0818, 191.6911
372.5639, 187.6029
373.0461, 183.8404
373.5282, 180.3821
374.0103, 177.3071
374.4924, 174.3864
374.9745, 171.2616
375.4566, 167.7649
375.9388, 164.5485
376.4209, 161.9919
376.9030, 159.9938
377.3851, 157.3358
377.8672, 153.8137
378.3493, 150.1917
378.8315, 147.2578
379.3136, 144.9998
379.7957, 142.8725
380.2778, 140.7583
380.7599, 138.7085
381.2420, 136.8092
381.7242, 135.0914
382.2063, 133.3902
382.6884, 131.6280
383.1705, 129.8037
383.6526, 127.9607
384.1347, 126.0937
384.6169, 124.2454
385.0990, 122.4606
385.5811, 120.7541
386.0632, 119.2623
386.5453, 118.3340
387.0274, 117.5208
387.5096, 116.1009
387.9917, 114.0818
388.4738, 112.1630
388.9559, 110.9702
389.4380, 110.2233
389.9201, 109.5619
390.4023, 109.0033
390.8844, 108.3595
391.3665, 107.4326
391.8486, 106.2901
392.3307, 105.2111
392.8128, 104.2846
393.2950, 103.4955
393.7771, 102.8190
394.2592, 102.2408
394.7413, 101.8035
395.2234, 101.7154
395.7055, 101.7410
396.1877, 101.5165
396.6698, 100.5770
397.1519, 99.74258
397.6340, 99.35703
398.1161, 99.50842
398.5982, 99.40244
399.0804, 98.63954
399.5625, 97.81471
400.0446, 97.37025
400.5267, 97.70562
401.0088, 97.83218
401.4909, 97.52077
401.9731, 96.92791
402.4552, 96.72956
402.9373, 97.19197
403.4194, 97.61601
403.9015, 97.64129
404.3836, 97.14998
404.8658, 96.71741
405.3479, 96.34386
405.8300, 96.03178
406.3121, 95.75713
406.7942, 95.50146
407.2763, 95.41093
407.7585, 95.59695
408.2406, 95.99368
408.7227, 96.23427
409.2048, 96.30939
409.6869, 96.29402
410.1690, 96.19632
410.6512, 96.04639
411.1333, 95.98361
411.6154, 96.02989
412.0975, 96.18434
412.5796, 96.49868
413.0617, 96.94337
413.5439, 97.37405
414.0260, 97.80376
414.5081, 98.13897
414.9902, 98.19852
415.4723, 97.95219
415.9544, 97.64304
416.4366, 97.36121
416.9187, 97.16798
417.4008, 97.15458
417.8829, 97.58712
418.3650, 98.00896
418.8471, 98.12434
419.3293, 97.97423
419.8114, 97.81778
420.2935, 97.75283
420.7756, 97.72754
421.2577, 97.69812
421.7398, 97.59330
422.2220, 97.60747
422.7041, 97.92797
423.1862, 98.37411
423.6683, 98.62212
424.1504, 98.47115
424.6325, 98.28178
425.1147, 98.16250
425.5968, 98.12935
426.0789, 97.85614
426.5610, 98.07121
427.0431, 98.20118
427.5252, 98.25060
428.0074, 97.97829
428.4895, 98.12144
428.9716, 98.09810
429.4537, 98.06792
429.9358, 98.26954
430.4179, 98.51582
430.9001, 98.64825
431.3822, 98.52547
431.8643, 98.14099
432.3464, 97.96896
432.8285, 98.05351
433.3106, 98.21088
433.7928, 98.19141
434.2749, 98.01827
434.7570, 97.89096
435.2391, 97.90366
435.7212, 97.97437
436.2033, 97.90952
436.6855, 97.72655
437.1676, 97.59075
437.6497, 97.55785
438.1318, 97.66707
438.6139, 98.05370
439.0960, 98.83552
439.5782, 99.53978
440.0603, 99.63731
440.5424, 99.39200
441.0245, 99.29642
441.5066, 99.71856
441.9887, 100.2208
442.4709, 100.5885
442.9530, 100.8115
443.4351, 100.8964
443.9172, 100.6751
444.3993, 100.4147
444.8814, 100.3262
445.3636, 100.8735
445.8457, 101.0143
446.3278, 100.2773
446.8099, 99.03390
447.2920, 98.19158
447.7741, 98.08410
448.2563, 98.03013
448.7384, 97.87301
449.2205, 97.62109
449.7026, 97.17719
450.1847, 96.41325
450.6668, 95.62736
451.1490, 95.13381
451.6311, 95.03358
452.1132, 94.82993
452.5953, 94.43035
453.0774, 93.89711
453.5595, 93.36020
454.0417, 92.81477
454.5238, 92.28880
455.0059, 91.76358
455.4880, 91.25944
455.9701, 90.86736
456.4522, 90.59715
456.9344, 90.40297
457.4165, 90.33298
457.8986, 90.30785
458.3807, 90.09181
458.8628, 89.48064
459.3449, 88.78909
459.8271, 88.35389
460.3092, 88.14595
460.7913, 88.02862
461.2734, 88.08046
461.7555, 88.09365
462.2376, 87.80135
462.7198, 87.06133
463.2019, 86.53415
463.6840, 86.85176
464.1661, 87.45042
464.6482, 87.64799
465.1303, 86.75292
465.6125, 85.97212
466.0946, 85.65230
466.5767, 85.75573
467.0588, 85.91051
467.5409, 86.10824
468.0230, 86.33591
468.5052, 86.59529
468.9873, 86.91665
469.4694, 87.19913
469.9515, 87.45251
470.4336, 87.65967
470.9157, 87.79143
471.3979, 87.83152
471.8800, 87.83866
472.3621, 87.76393
472.8442, 87.67415
473.3263, 87.94585
473.8084, 88.61876
474.2906, 89.34341
474.7727, 89.94236
475.2548, 90.39584
475.7369, 90.50971
476.2190, 90.16846
476.7011, 89.86916
477.1833, 90.42370
477.6654, 91.52834
478.1475, 92.34708
478.6296, 92.28643
479.1117, 91.94395
479.5938, 91.90154
480.0760, 92.12846
480.5581, 92.41475
481.0402, 92.58479
481.5223, 92.79874
482.0044, 93.22716
482.4865, 94.01157
482.9687, 94.69722
483.4508, 95.08659
483.9329, 95.29807
484.4150, 95.49561
484.8971, 95.62627
485.3792, 95.83510
485.8614, 96.18859
486.3435, 96.67484
486.8256, 97.13184
487.3077, 97.54375
487.7898, 97.93881
488.2719, 98.36843
488.7541, 98.92442
489.2362, 99.17064
489.7183, 99.01421
490.2004, 98.66705
490.6825, 98.39916
491.1646, 98.20232
491.6468, 98.17346
492.1289, 98.39198
492.6110, 98.77044
493.0931, 99.08046
493.5752, 99.32316
494.0573, 99.51861
494.5395, 99.63164
495.0216, 99.71730
495.5037, 99.87171
495.9858, 100.0899
496.4679, 100.4544
496.9500, 101.1406
497.4322, 102.0074
497.9143, 102.8086
498.3964, 103.2427
498.8785, 103.7701
499.3606, 104.6313
499.8427, 105.8115
500.3249, 107.1732
500.8070, 108.7730
501.2891, 110.4735
501.7712, 112.1637
502.2533, 113.7348
502.7354, 115.5649
503.2176, 117.8350
503.6997, 120.2879
504.1818, 122.6527
504.6639, 124.7586
505.1460, 127.0878
505.6281, 129.7005
506.1103, 132.5944
506.5924, 135.6808
507.0745, 138.9712
507.5566, 142.4052
508.0387, 146.0660
508.5208, 149.9263
509.0030, 153.3961
509.4851, 156.4273
509.9672, 159.3359
510.4493, 162.3675
510.9314, 165.5430
511.4135, 169.0426
511.8957, 173.1754
512.3778, 177.1262
512.8599, 179.8743
513.3420, 181.6340
513.8242, 183.0204
514.3063, 184.5887
514.7884, 185.7656
515.2705, 186.1283
515.7526, 185.6503
516.2347, 184.4933
516.7169, 182.5912
517.1990, 180.1083
517.6811, 177.1558
518.1632, 173.4211
518.6453, 169.6624
519.1274, 166.0570
519.6096, 162.4330
520.0917, 158.4982
520.5738, 153.9857
521.0559, 149.6232
521.5380, 145.5739
522.0201, 141.8353
522.5023, 138.4033
522.9844, 135.3383
523.4665, 132.3747
523.9486, 129.2151
524.4307, 125.8764
524.9128, 123.0663
525.3950, 120.9482
525.8771, 119.0770
526.3592, 116.7360
526.8413, 114.1294
527.3234, 111.9444
527.8055, 110.7732
528.2877, 109.8508
528.7698, 108.1288
529.2519, 105.8171
529.7340, 103.7428
530.2161, 102.4757
530.6982, 101.5612
531.1804, 100.6648
531.6625, 99.76206
532.1446, 98.88979
532.6267, 98.18828
533.1088, 97.46890
533.5909, 96.56918
534.0731, 94.99995
534.5552, 93.83058
535.0373, 93.29832
535.5194, 93.18886
536.0015, 92.93154
536.4836, 92.45144
536.9658, 91.98396
537.4479, 91.65701
537.9300, 91.45637
538.4121, 90.96513
538.8942, 90.11274
539.3763, 89.27092
539.8585, 88.77370
540.3406, 88.57220
540.8227, 88.39035
541.3048, 88.18666
541.7869, 88.01083
542.2690, 87.97570
542.7512, 88.01884
543.2333, 87.98263
543.7154, 87.70256
544.1975, 87.39979
544.6796, 87.34371
545.1617, 87.45409
545.6439, 87.37831
546.1260, 86.73254
546.6081, 86.02332
547.0902, 85.55473
547.5723, 85.41654
548.0544, 85.30094
548.5366, 85.23633
549.0187, 85.13409
549.5008, 84.91274
549.9829, 84.49702
550.4650, 84.10049
550.9471, 83.74822
551.4293, 83.42262
551.9114, 83.10029
552.3935, 82.80820
552.8756, 82.38259
553.3577, 81.68367
553.8398, 80.80117
554.3220, 80.16899
554.8041, 79.79076
555.2862, 79.49584
555.7683, 79.15329
556.2504, 78.79404
556.7325, 78.50047
557.2147, 78.30605
557.6968, 78.05114
558.1789, 77.56282
558.6610, 76.93449
559.1431, 76.30945
559.6252, 75.72104
560.1074, 75.16453
560.5895, 74.56916
561.0716, 73.98989
561.5537, 73.62148
562.0358, 73.59673
562.5179, 73.69611
563.0001, 73.88615
563.4822, 74.18559
563.9643, 74.35682
564.4464, 74.36871
564.9285, 74.29662
565.4106, 74.14214
565.8928, 73.85765
566.3749, 73.84260
566.8570, 74.19071
567.3391, 74.67829
567.8212, 74.94949
568.3033, 75.03707
568.7855, 75.16446
569.2676, 75.42484
569.7497, 75.75047
570.2318, 76.01113
570.7139, 76.23528
571.1960, 76.56973
571.6782, 77.22160
572.1603, 77.93400
572.6424, 78.51685
573.1245, 78.95982
573.6066, 79.25002
574.0887, 79.23286
574.5709, 79.15477
575.0530, 79.21005
575.5351, 79.55078
576.0172, 79.84661
576.4993, 80.09990
576.9814, 80.29992
577.4636, 80.40926
577.9457, 80.37682
578.4278, 80.39854
578.9099, 80.56051
579.3920, 80.79774
579.8741, 80.83295
580.3563, 80.65136
580.8384, 80.45963
581.3205, 80.36318
581.8026, 80.35172
582.2847, 80.42478
582.7668, 80.58363
583.2490, 80.73547
583.7311, 80.81947
584.2131, 80.84340
584.6953, 80.81087
585.1774, 80.70318
585.6595, 80.58559
586.1416, 80.47087
586.6237, 80.37379
587.1058, 80.31451
587.5880, 80.34286
588.0701, 80.36087
588.5522, 80.30363
589.0343, 80.20549
589.5164, 80.24995
589.9985, 80.56697
590.4807, 80.80408
590.9628, 80.77316
591.4449, 80.46559
591.9270, 80.36010
592.4091, 80.50846
592.8912, 80.63377
593.3734, 80.36360
593.8555, 79.81856
594.3376, 79.60761
594.8197, 79.86147
595.3018, 80.26387
595.7839, 80.61955
596.2661, 80.85738
596.7482, 80.83346
597.2303, 80.20974
597.7124, 79.60097
598.1945, 79.39500
598.6766, 79.49483
599.1588, 79.62256
599.6409, 79.73711
600.1230, 79.82781
600.6051, 79.87857
601.0872, 79.88557
601.5693, 79.93101
602.0515, 80.10265
602.5336, 80.19130
603.0157, 80.00645
603.4978, 79.46145
603.9799, 79.20211
604.4620, 79.30458
604.9442, 79.51892
605.4263, 79.49564
605.9084, 79.28410
606.3905, 79.18891
606.8726, 79.32510
607.3547, 79.51987
607.8369, 79.50345
608.3190, 79.37135
608.8011, 79.36671
609.2832, 79.84482
609.7653, 80.28196
610.2474, 80.18584
610.7296, 79.65218
611.2117, 79.47688
611.6938, 80.28120
612.1759, 81.15462
612.6580, 81.64649
613.1401, 81.68249
613.6223, 81.64108
614.1044, 81.41947
614.5865, 81.25887
615.0686, 81.43055
615.5507, 81.98972
616.0328, 82.39570
616.5150, 82.58971
616.9971, 82.62926
617.4792, 82.49238
617.9613, 82.24303
618.4434, 82.18559
618.9255, 82.50593
619.4077, 82.96451
619.8898, 83.29951
620.3719, 83.54647
620.8540, 83.82211
621.3361, 84.14641
621.8182, 84.54498
622.3004, 85.06554
622.7825, 85.70455
623.2646, 86.30666
623.7467, 86.80588
624.2288, 87.28537
624.7109, 87.81919
625.1931, 88.51035
625.6752, 88.86971
626.1573, 88.78146
626.6394, 88.55586
627.1215, 88.49744
627.6036, 88.60695
628.0858, 88.77042
628.5679, 88.95128
629.0500, 89.22903
629.5321, 89.81869
630.0142, 90.62113
630.4963, 91.29855
630.9785, 91.63630
631.4606, 91.88301
631.9427, 92.30639
632.4248, 92.82813
632.9069, 93.19735
633.3890, 93.04789
633.8712, 92.95710
634.3533, 93.25811
634.8354, 94.00285
635.3175, 94.54385
635.7996, 94.77947
636.2817, 94.89900
636.7639, 94.95715
637.2460, 94.89204
637.7281, 95.12706
638.2102, 95.75467
638.6923, 96.41780
639.1744, 96.73999
639.6566, 96.74736
640.1387, 96.56712
640.6208, 96.16035
641.1029, 95.77560
641.5850, 95.63615
642.0671, 95.74058
642.5493, 96.08361
643.0314, 96.97810
643.5135, 97.80269
643.9956, 98.24521
644.4777, 98.36253
644.9598, 98.34061
645.4420, 98.07702
645.9241, 97.83206
646.4062, 97.66581
646.8883, 97.57997
647.3704, 97.60757
647.8525, 97.77773
648.3347, 97.99831
648.8168, 98.23879
649.2989, 98.49870
649.7810, 98.67484
650.2631, 98.76594
650.7452, 98.77283
651.2274, 98.68112
651.7095, 98.50661
652.1916, 98.25533
652.6737, 97.90251
653.1558, 97.58945
653.6379, 97.37919
654.1201, 97.28197
654.6022, 97.30936
655.0843, 97.67177
655.5664, 97.91904
656.0485, 97.85629
656.5306, 97.61581
657.0128, 97.50954
657.4949, 97.64149
657.9770, 97.71577
658.4591, 97.67653
658.9412, 97.52176
659.4233, 97.23103
659.9055, 96.79800
660.3876, 96.28522
660.8697, 95.61864
661.3518, 94.91448
661.8339, 94.53001
662.3160, 94.44511
662.7982, 94.32275
663.2803, 93.89531
663.7624, 93.32960
664.2445, 92.76955
664.7266, 92.22213
665.2087, 91.74004
665.6909, 91.48769
666.1730, 91.22109
666.6551, 90.71296
667.1372, 89.57114
667.6193, 88.89889
668.1014, 88.95989
668.5836, 89.22944
669.0657, 88.95650
669.5478, 88.09844
670.0299, 87.21033
670.5120, 86.37183
670.9941, 85.61781
671.4763, 85.02040
671.9584, 84.56580
672.4405, 84.18982
672.9226, 83.90344
673.4047, 83.64673
673.8868, 83.41535
674.3690, 83.18118
674.8511, 82.83675
675.3332, 82.09199
675.8153, 81.45976
676.2974, 81.25920
676.7795, 81.51801
677.2617, 81.45090
677.7438, 80.86605
678.2259, 80.24560
678.7080, 79.86770
679.1901, 79.75383
679.6722, 79.39977
680.1544, 78.74385
680.6365, 78.18153
681.1186, 78.27790
681.6007, 78.73454
682.0828, 78.72818
682.5649, 78.07844
683.0471, 77.33897
683.5292, 76.92321
684.0113, 76.70892
684.4934, 76.56270
684.9755, 76.45263
685.4576, 76.39784
685.9398, 76.53908
686.4219, 76.69480
686.9040, 76.55784
687.3861, 75.91519
687.8682, 75.41214
688.3503, 75.18307
688.8325, 75.13205
689.3146, 75.02519
689.7967, 74.86278
690.2788, 74.71115
690.7609, 74.61143
691.2430, 74.53111
691.7252, 74.40737
692.2073, 74.24609
692.6894, 74.07826
693.1715, 73.82121
693.6536, 73.64236
694.1357, 73.69576
694.6179, 73.97803
695.1000, 74.26150
695.5821, 74.56974
696.0642, 74.78992
696.5463, 74.84459
697.0284, 74.69453
697.5106, 74.65179
697.9927, 74.75876
698.4748, 74.87576
698.9569, 74.84517
699.4390, 74.69866
699.9211, 74.75024
700.4033, 75.05379
700.8854, 75.31241
701.3675, 75.12181
701.8496, 74.72034
702.3317, 74.47926
702.8138, 74.50419
703.2960, 74.65578
703.7781, 74.92665
704.2602, 75.26057
704.7423, 75.58852
705.2244, 75.99104
705.7065, 76.25185
706.1887, 76.26138
706.6708, 76.17249
707.1529, 76.27726
707.6350, 76.60085
708.1171, 76.96700
708.5992, 77.34774
709.0814, 77.72242
709.5635, 78.01451
710.0456, 78.25545
710.5277, 78.58663
711.0098, 78.98591
711.4919, 79.57719
711.9741, 80.76424
712.4562, 82.31053
712.9383, 83.31505
713.4204, 82.74984
713.9025, 82.24094
714.3846, 82.62498
714.8668, 83.85084
715.3489, 84.62514
715.8310, 84.56591
716.3131, 84.83904
716.7952, 86.30434
717.2773, 88.81911
717.7595, 90.44575
718.2416, 91.14137
718.7237, 91.52924
719.2058, 91.75278
719.6879, 92.12937
720.1700, 93.32946
720.6522, 95.47620
721.1343, 97.52186
721.6164, 98.95609
722.0985, 99.98363
722.5806, 100.7442
723.0627, 100.9648
723.5449, 101.5951
724.0270, 102.8383
724.5091, 104.3513
724.9912, 105.8554
725.4733, 107.3856
725.9554, 108.7766
726.4376, 109.9766
726.9197, 111.1645
727.4018, 112.6146
727.8839, 114.2420
728.3660, 115.7561
728.8481, 117.0414
729.3303, 118.3354
729.8124, 119.8210
730.2945, 121.4444
730.7766, 123.1084
731.2587, 125.0768
731.7408, 126.7650
732.2230, 127.8261
732.7051, 128.5747
733.1872, 129.6020
733.6693, 131.0163
734.1514, 132.3844
734.6335, 133.6538
735.1157, 134.7686
735.5978, 135.4665
736.0799, 135.8051
736.5620, 136.2658
737.0441, 137.1684
737.5262, 138.2316
738.0084, 139.1818
738.4905, 140.0343
738.9726, 140.8405
739.4547, 141.6929
739.9368, 142.4355
740.4189, 143.0294
740.9011, 143.4592
741.3832, 143.6110
741.8653, 143.2398
742.3474, 143.0361
742.8295, 143.3352
743.3116, 144.0680
743.7938, 144.7356
744.2759, 145.3398
744.7580, 145.7838
745.2401, 145.7658
745.7222, 145.6444
746.2043, 146.1269
746.6865, 147.2029
747.1686, 148.0517
747.6507, 148.0547
748.1328, 147.8144
748.6149, 147.6867
749.0970, 147.7065
749.5792, 147.9250
750.0613, 148.5845
750.5434, 149.1364
751.0255, 149.0825
751.5076, 148.3145
751.9897, 148.3668
752.4719, 149.3934
752.9540, 150.4535
753.4361, 150.6199
753.9182, 150.1980
754.4003, 149.7896
754.8824, 149.4811
755.3646, 149.1572
755.8467, 148.7731
756.3288, 148.3210
756.8109, 147.7925
757.2930, 147.0896
757.7751, 146.5034
758.2573, 146.1245
758.7394, 145.7898
759.2215, 145.3654
759.7036, 144.8556
760.1857, 144.1498
760.6678, 143.1893
761.1500, 142.2327
761.6321, 141.7427
762.1142, 141.5236
762.5963, 141.0897
763.0784, 140.3177
763.5605, 139.3306
764.0427, 138.0136
764.5248, 136.6091
765.0069, 135.4209
765.4890, 134.6485
765.9711, 133.9456
766.4532, 133.4473
766.9354, 132.8895
767.4175, 131.8040
767.8996, 130.0741
768.3817, 128.5326
768.8638, 127.3210
769.3459, 126.3440
769.8281, 125.5250
770.3102, 124.8372
770.7923, 124.2094
771.2744, 123.6661
771.7565, 123.0956
772.2386, 122.2648
772.7208, 121.3795
773.2029, 120.7978
773.6850, 121.2067
774.1671, 121.1341
774.6492, 120.1045
775.1313, 118.6129
775.6135, 117.7651
776.0956, 117.6675
776.5777, 117.4868
777.0598, 116.9697
777.5419, 116.3001
778.0240, 115.7248
778.5062, 115.2602
778.9883, 114.9610
779.4704, 115.2466
779.9525, 115.3091
780.4346, 114.3084
780.9167, 112.7150
781.3989, 111.6734
781.8810, 111.9327
782.3631, 112.1404
782.8452, 112.0735
783.3273, 111.7944
783.8094, 111.4450
784.2916, 111.0110
784.7737, 110.6538
785.2558, 110.4641
785.7379, 110.3427
786.2200, 110.1692
786.7021, 109.9164
787.1843, 109.5054
787.6664, 108.6262
788.1485, 107.8333
788.6306, 107.4804
789.1127, 107.4787
789.5948, 107.4972
790.0770, 107.4618
790.5591, 107.4961
791.0412, 107.6424
791.5233, 107.8728
792.0054, 108.1724
792.4875, 108.5449
792.9697, 108.6364
793.4518, 108.1433
793.9339, 107.4034
794.4160, 106.8330
794.8981, 106.4597
795.3802, 106.3748
795.8624, 106.8885
796.3445, 107.4353
796.8266, 107.7920
797.3087, 107.9559
797.7908, 107.9786
798.2729, 107.7876
798.7551, 107.5850
799.2372, 107.3425
799.7193, 107.1683
800.2014, 107.6093
800.6835, 108.6106
801.1656, 109.4113
801.6478, 109.4205
802.1299, 109.1736
802.6120, 109.2785
803.0941, 109.6577
803.5762, 110.0688
804.0583, 110.4288
804.5405, 110.7826
805.0226, 111.2421
805.5047, 111.7231
805.9868, 111.8019
806.4689, 111.2584
806.9510, 111.0034
807.4332, 111.4417
807.9153, 112.3145
808.3974, 112.9746
808.8795, 113.4180
809.3616, 113.6207
809.8438, 113.3703
810.3259, 113.0436
810.8080, 112.9587
811.2901, 113.0551
811.7722, 113.1232
812.2543, 113.0308
812.7365, 113.0015
813.2186, 113.1521
813.7007, 113.3972
814.1828, 113.3864
814.6649, 113.0786
815.1470, 112.8485
815.6292, 112.9298
816.1113, 113.0690
816.5934, 112.6671
817.0755, 111.8909
817.5576, 111.3027
818.0397, 111.4417
818.5219, 111.5706
819.0040, 111.1619
819.4861, 110.4278
819.9682, 110.1034
820.4503, 110.5589
820.9324, 110.8174
821.4146, 110.5621
821.8967, 110.0685
822.3788, 110.1814
822.8609, 110.8466
823.3430, 111.2141
823.8251, 110.8324
824.3073, 110.1905
824.7894, 109.8123
825.2715, 109.6281
825.7536, 109.4683
826.2357, 109.2212
826.7178, 109.0491
827.2000, 109.0119
827.6821, 109.0785
828.1642, 109.2293
828.6463, 109.5297
829.1284, 109.6474
829.6105, 109.4185
830.0927, 109.1434
830.5748, 109.4657
831.0569, 110.2237
831.5390, 110.8554
832.0211, 111.1033
832.5032, 111.2899
832.9854, 111.6552
833.4675, 112.1035
833.9496, 112.4820
834.4317, 112.6785
834.9138, 112.9104
835.3959, 113.1721
835.8781, 113.4891
836.3602, 113.9464
836.8423, 114.5375
837.3244, 115.0378
837.8065, 115.3924
838.2886, 115.6807
838.7708, 116.0237
839.2529, 116.3594
839.7350, 116.5619
840.2171, 116.4418
840.6992, 116.5032
841.1813, 117.0482
841.6635, 117.7788
842.1456, 118.3929
842.6277, 118.8712
843.1098, 119.2555
843.5919, 119.5073
844.0740, 119.7783
844.5562, 120.3208
845.0383, 121.0282
845.5204, 121.5263
846.0025, 121.7197
846.4846, 121.9879
846.9667, 122.7630
847.4489, 123.6522
847.9310, 124.2466
848.4131, 124.3038
848.8952, 124.6097
849.3773, 125.3828
849.8594, 126.1294
850.3416, 126.3105
850.8237, 125.9542
851.3058, 126.3700
851.7879, 127.6520
852.2700, 129.0060
852.7521, 129.8550
853.2343, 130.3772
853.7164, 130.7616
854.1985, 131.0245
854.6806, 131.1710
855.1627, 130.7063
855.6448, 130.6170
856.1270, 131.5910
856.6091, 133.6703
857.0912, 134.7248
857.5733, 134.5749
858.0554, 134.3544
858.5375, 134.8379
859.0197, 135.7440
859.5018, 136.4547
859.9839, 136.9962
860.4660, 137.5884
860.9481, 138.5713
861.4302, 139.4322
861.9124, 139.7662
862.3945, 139.6310
862.8766, 139.8631
863.3587, 140.6323
863.8408, 141.3640
864.3229, 141.8275
864.8051, 142.1341
865.2872, 142.6470
865.7693, 143.3230
866.2514, 143.8819
866.7335, 144.1840
867.2156, 144.3133
867.6978, 144.1169
868.1799, 143.8059
868.6620, 143.8632
869.1441, 144.8949
869.6262, 145.6608
870.1083, 145.9942
870.5905, 145.9830
871.0726, 145.6946
871.5547, 145.1380
872.0368, 144.8225
872.5189, 144.9449
873.0010, 145.1559
873.4832, 145.0626
873.9653, 144.7789
874.4474, 144.4945
874.9295, 144.2991
875.4116, 144.0403
875.8937, 143.7309
876.3759, 143.3045
876.8580, 142.6601
877.3401, 141.7401
877.8222, 140.9471
878.3043, 140.3392
878.7864, 139.7092
879.2686, 138.8645
879.7507, 137.8234
880.2328, 136.5695
880.7149, 135.0785
881.1970, 133.6194
881.6791, 132.3042
882.1613, 131.0914
882.6434, 129.9836
883.1255, 129.0215
883.6076, 127.8289
884.0897, 126.3575
884.5718, 124.8162
885.0540, 123.3804
885.5361, 121.9702
886.0182, 120.2937
886.5003, 118.3883
886.9824, 116.6676
887.4645, 115.5035
887.9467, 114.4922
888.4288, 113.4069
888.9109, 112.2486
889.3930, 111.0861
889.8751, 109.9509
890.3572, 108.7522
890.8394, 107.4080
891.3215, 106.0376
891.8036, 105.0822
892.2857, 104.4675
892.7678, 103.7285
893.2499, 102.4337
893.7321, 101.2329
894.2142, 100.7679
894.6963, 100.7053
895.1784, 100.4117
895.6605, 99.52721
896.1426, 98.71836
896.6248, 97.86626
897.1069, 97.13169
897.5890, 97.12907
898.0711, 97.02338
898.5532, 96.82011
899.0353, 96.22717
899.5175, 96.13736
899.9996, 95.84596
900.4817, 95.97989
900.9638, 95.87727
901.4459, 95.28571
901.9280, 94.88219
902.4102, 94.84492
902.8923, 94.87443
903.3744, 94.72847
903.8565, 94.39854
904.3386, 94.30067
904.8207, 94.44321
905.3029, 94.63132
905.7850, 94.75262
906.2671, 94.81129
906.7492, 94.79965
907.2313, 94.72176
907.7134, 94.62774
908.1956, 94.42913
908.6777, 94.34166
909.1598, 94.48502
909.6419, 94.79507
910.1240, 94.92518
910.6061, 94.87176
911.0883, 94.87382
911.5704, 95.09029
912.0525, 95.34743
912.5346, 95.39219
913.0167, 95.30914
913.4988, 95.28311
913.9810, 95.54162
914.4631, 95.71500
914.9452, 95.80785
915.4273, 95.57896
915.9094, 95.76554
916.3915, 95.78561
916.8737, 95.79888
917.3558, 96.04393
917.8379, 95.86185
918.3200, 96.10323
918.8021, 96.17557
919.2842, 96.32527
919.7664, 96.34660
920.2485, 96.66805
920.7306, 97.12138
921.2127, 97.44363
921.6948, 97.39265
922.1769, 96.91827
922.6591, 96.92734
923.1412, 97.47509
923.6233, 97.95060
924.1054, 97.87186
924.5875, 97.49551
925.0696, 97.09998
925.5518, 96.71844
926.0339, 96.46101
926.5160, 96.48127
926.9981, 96.51594
927.4802, 96.46409
927.9623, 96.36482
928.4445, 96.37808
928.9266, 96.52496
929.4087, 96.52560
929.8908, 96.29925
930.3729, 95.88320
930.8550, 95.10845
931.3372, 94.22978
931.8193, 93.74080
932.3014, 94.12038
932.7835, 94.33979
933.2656, 94.06233
933.7477, 93.60078
934.2299, 93.19786
934.7120, 92.85322
935.1941, 92.61523
935.6762, 92.49661
936.1583, 92.40371
936.6404, 92.32228
937.1226, 92.17736
937.6047, 91.79472
938.0868, 91.16177
938.5689, 90.69314
939.0510, 90.67308
939.5331, 90.68314
940.0153, 90.53798
940.4974, 90.27527
940.9795, 90.18811
941.4616, 90.27820
941.9437, 90.32949
942.4258, 90.14793
942.9080, 89.98397
943.3901, 90.27503
943.8722, 90.80219
944.3543, 91.09565
944.8364, 90.75700
945.3185, 90.51408
945.8007, 90.54716
946.2828, 90.65482
946.7649, 90.46785
947.2470, 90.00371
947.7291, 90.02864
948.2112, 90.71284
948.6934, 91.37935
949.1755, 91.27674
949.6576, 90.87138
950.1397, 90.66564
950.6218, 90.75307
951.1039, 90.90069
951.5861, 91.17138
952.0682, 91.35464
952.5503, 91.31525
953.0324, 91.09224
953.5145, 90.98702
953.9966, 90.98360
954.4788, 90.88388
954.9609, 90.29649
955.4430, 89.81812
955.9251, 90.15841
956.4072, 90.97958
956.8893, 91.36012
957.3715, 90.87593
957.8536, 90.43912
958.3357, 90.14846
958.8178, 89.97852
959.2999, 89.94740
959.7820, 90.01476
960.2642, 90.00333
960.7463, 89.87762
961.2284, 89.67648
961.7105, 89.34228
962.1926, 89.00102
962.6747, 88.76589
963.1569, 88.66393
963.6390, 88.58370
964.1211, 88.53492
964.6032, 88.47921
965.0853, 88.37853
965.5674, 88.25859
966.0496, 88.25187
966.5317, 88.31631
967.0138, 88.24686
967.4959, 87.88712
967.9780, 87.41872
968.4601, 86.81999
968.9423, 86.20173
969.4244, 85.83018
969.9065, 85.74707
970.3886, 85.75566
970.8707, 85.87045
971.3528, 85.92220
971.8350, 85.65989
972.3171, 85.17768
972.7992, 84.61237
973.2813, 83.95220
973.7634, 83.37161
974.2455, 82.89040
974.7277, 82.55688
975.2098, 82.43348
975.6919, 82.52345
976.1740, 82.59525
976.6561, 82.65632
977.1382, 82.53066
977.6204, 81.94515
978.1025, 81.22773
978.5846, 80.76267
979.0667, 80.49595
979.5488, 80.25050
980.0309, 79.99288
980.5131, 79.74141
980.9952, 79.53465
981.4773, 79.29841
981.9594, 78.89827
982.4415, 78.34933
982.9236, 77.73600
983.4058, 77.06626
983.8879, 76.43429
984.3700, 75.92953
984.8521, 75.49642
985.3342, 75.12939
985.8163, 74.88171
986.2985, 74.32563
986.7806, 73.26514
987.2627, 72.34773
987.7448, 72.00536
988.2269, 72.01653
988.7090, 71.72830
989.1912, 71.18169
989.6733, 70.54438
990.1554, 69.86295
990.6375, 69.14819
991.1196, 68.33888
991.6017, 67.53786
992.0839, 66.95679
992.5660, 66.67412
993.0481, 66.22762
993.5302, 65.51790
994.0123, 64.81789
994.4944, 64.56906
994.9766, 64.47330
995.4587, 64.00777
995.9408, 63.08086
996.4229, 62.29217
996.9050, 61.98943
997.3871, 61.70667
997.8693, 61.23309
998.3514, 60.61230
998.8335, 60.17828
999.3156, 59.91698
999.7977, 59.52056
1000.280, 58.68012
1000.762, 57.89341
1001.244, 57.66708
1001.726, 57.80524
1002.208, 57.97915
1002.690, 58.18952
1003.173, 58.31904
1003.655, 58.32594
1004.137, 58.32862
1004.619, 58.45024
1005.101, 58.66869
1005.583, 58.90623
1006.065, 59.15916
1006.547, 59.41930
1007.029, 59.90511
1007.512, 60.18879
1007.994, 59.84325
1008.476, 59.04895
1008.958, 58.64234
1009.440, 58.70956
1009.922, 58.60361
1010.404, 58.06342
1010.886, 57.41046
1011.369, 57.06178
1011.851, 56.92160
1012.333, 56.86187
1012.815, 57.01565
1013.297, 56.82621
1013.779, 55.98603
1014.261, 55.04840
1014.743, 54.37367
1015.225, 53.94865
1015.708, 53.68983
1016.190, 53.58000
1016.672, 53.32895
1017.154, 52.60082
1017.636, 51.80127
1018.118, 51.26324
1018.600, 50.89662
1019.082, 50.35271
1019.565, 49.48746
1020.047, 48.79597
1020.529, 48.37360
1021.011, 48.10283
1021.493, 47.80030
1021.975, 47.52507
1022.457, 47.46010
1022.939, 47.67397
1023.421, 47.74813
1023.904, 47.41105
1024.386, 46.96098
1024.868, 46.48526
1025.350, 46.01507
1025.832, 45.92699
1026.314, 46.21590
1026.796, 46.39066
1027.278, 46.12226
1027.760, 45.77239
1028.243, 45.77441
1028.725, 45.92462
1029.207, 45.87794
1029.689, 45.31596
1030.171, 44.99635
1030.653, 44.99132
1031.135, 45.09737
1031.617, 45.13098
1032.100, 45.11363
1032.582, 45.09430
1033.064, 45.07998
1033.546, 45.11103
1034.028, 45.38536
1034.510, 45.52113
1034.992, 45.17635
1035.474, 44.58319
1035.957, 44.49302
1036.439, 44.94586
1036.921, 45.14468
1037.403, 44.84356
1037.885, 44.43591
1038.367, 44.37474
1038.849, 44.46521
1039.331, 44.47086
1039.813, 44.33387
1040.296, 44.17023
1040.778, 43.93666
1041.260, 43.78336
1041.742, 43.82762
1042.224, 44.00439
1042.706, 44.09072
1043.188, 44.10811
1043.670, 44.14603
1044.152, 44.37109
1044.635, 44.47973
1045.117, 44.19711
1045.599, 43.80762
1046.081, 43.70623
1046.563, 43.94801
1047.045, 44.00328
1047.527, 43.82465
1048.009, 43.62370
1048.492, 43.55128
1048.974, 43.58271
1049.456, 43.78148
1049.938, 44.11509
1050.420, 44.18491
1050.902, 43.75634
1051.384, 43.48910
1051.866, 43.61557
1052.349, 43.87877
1052.831, 43.68453
1053.313, 43.22755
1053.795, 43.09732
1054.277, 43.54205
1054.759, 43.87822
1055.241, 43.73312
1055.723, 43.40812
1056.205, 43.03955
1056.688, 42.63556
1057.170, 42.61580
1057.652, 42.98085
1058.134, 43.27301
1058.616, 43.18685
1059.098, 42.99572
1059.580, 42.91780
1060.062, 42.92629
1060.544, 42.97807
1061.027, 43.13343
1061.509, 43.17302
1061.991, 43.04203
1062.473, 42.92702
1062.955, 43.07581
1063.437, 43.35287
1063.919, 43.45411
1064.401, 43.37875
1064.884, 43.28533
1065.366, 43.32397
1065.848, 43.24181
1066.330, 42.87230
1066.812, 42.40609
1067.294, 42.29140
1067.776, 42.49938
1068.258, 42.73108
1068.740, 42.93373
1069.223, 43.09669
1069.705, 43.24609
1070.187, 43.32878
1070.669, 43.26634
1071.151, 43.04901
1071.633, 42.91141
1072.115, 42.86289
1072.597, 42.84529
1073.079, 42.84677
1073.562, 42.84605
1074.044, 42.77238
1074.526, 42.68165
1075.008, 42.68036
1075.490, 42.87826
1075.972, 43.03528
1076.454, 43.16835
1076.936, 43.20056
1077.419, 42.99458
1077.901, 42.62832
1078.383, 42.50697
1078.865, 42.59542
1079.347, 42.62698
1079.829, 42.20097
1080.311, 41.96310
1080.793, 42.43351
1081.275, 43.17631
1081.758, 43.52292
1082.240, 43.46068
1082.722, 43.21282
1083.204, 42.77758
1083.686, 42.42480
1084.168, 42.42188
1084.650, 42.58381
1085.132, 42.81715
1085.615, 43.09230
1086.097, 43.12104
1086.579, 42.82238
1087.061, 42.50533
1087.543, 42.23011
1088.025, 42.04652
1088.507, 42.15295
1088.989, 42.38003
1089.471, 42.38706
1089.953, 42.00248
1090.436, 41.76934
1090.918, 41.90267
1091.400, 42.07993
1091.882, 42.14815
1092.364, 42.12368
1092.846, 42.06170
1093.328, 41.97124
1093.810, 41.89459
1094.293, 41.84361
1094.775, 41.82028
1095.257, 41.83563
1095.739, 41.87282
1096.221, 41.91328
1096.703, 41.95631
1097.185, 42.01339
1097.667, 42.08538
1098.150, 42.15291
1098.632, 42.21252
1099.114, 42.25068
1099.596, 42.24682
1100.078, 42.21135
1100.560, 42.18121
1101.042, 42.17041
1101.524, 42.14330
1102.006, 42.11169
1102.489, 42.00364
1102.971, 41.63972
1103.453, 41.19013
1103.935, 40.90151
1104.417, 40.79591
1104.899, 40.83833
1105.381, 41.14024
1105.863, 41.42046
1106.345, 41.64295
1106.828, 41.75774
1107.310, 41.52630
1107.792, 41.09458
1108.274, 40.93904
1108.756, 41.21903
1109.238, 41.54018
1109.720, 41.81881
1110.202, 41.96903
1110.685, 41.92730
1111.167, 41.71427
1111.649, 41.45613
1112.131, 41.16240
1112.613, 40.92252
1113.095, 40.81252
1113.577, 40.71138
1114.059, 40.51267
1114.542, 40.28904
1115.024, 40.08937
1115.506, 39.84443
1115.988, 40.09672
1116.470, 40.91890
1116.952, 41.50430
1117.434, 40.98658
1117.916, 40.21217
1118.398, 40.14644
1118.880, 40.54921
1119.363, 40.81784
1119.845, 40.77991
1120.327, 40.81282
1120.809, 40.97518
1121.291, 41.10025
1121.773, 40.93644
1122.255, 40.66021
1122.737, 40.63224
1123.220, 40.82172
1123.702, 40.90115
1124.184, 40.68322
1124.666, 40.43822
1125.148, 40.19206
1125.630, 39.97060
1126.112, 39.77799
1126.594, 39.64693
1127.077, 39.71640
1127.559, 40.01378
1128.041, 40.29382
1128.523, 40.53335
1129.005, 40.61016
1129.487, 40.43202
1129.969, 40.08796
1130.451, 39.83246
1130.933, 39.66048
1131.416, 39.52801
1131.898, 39.40124
1132.380, 39.39650
1132.862, 39.80362
1133.344, 40.18579
1133.826, 40.12317
1134.308, 39.65049
1134.790, 39.49998
1135.272, 39.67864
1135.755, 39.87696
1136.237, 40.02976
1136.719, 40.04388
1137.201, 39.59927
1137.683, 39.08031
1138.165, 39.06752
1138.647, 39.78483
1139.129, 40.06307
1139.612, 39.83644
1140.094, 39.61181
1140.576, 39.83711
1141.058, 40.13496
1141.540, 39.91752
1142.022, 39.42443
1142.504, 39.17367
1142.986, 39.50865
1143.469, 39.59769
1143.951, 39.36145
1144.433, 39.06340
1144.915, 38.90441
1145.397, 38.85106
1145.879, 38.86461
1146.361, 38.93077
1146.843, 39.00058
1147.325, 39.04906
1147.807, 39.12417
1148.290, 39.26050
1148.772, 39.37173
1149.254, 39.32731
1149.736, 39.17955
1150.218, 39.05726
1150.700, 38.96852
1151.182, 38.89067
1151.664, 38.74215
1152.147, 38.71295
1152.629, 38.93068
1153.111, 39.20588
1153.593, 39.13907
1154.075, 38.81461
1154.557, 38.54739
1155.039, 38.38199
1155.521, 38.34744
1156.004, 38.62670
1156.486, 38.85695
1156.968, 38.84903
1157.450, 38.68151
1157.932, 38.60683
1158.414, 38.60686
1158.896, 38.52538
1159.378, 38.29148
1159.860, 38.13667
1160.343, 38.24438
1160.825, 38.46944
1161.307, 38.76185
1161.789, 39.08718
1162.271, 39.14622
1162.753, 38.95113
1163.235, 38.78407
1163.717, 38.74866
1164.199, 38.76192
1164.682, 38.77696
1165.164, 38.79350
1165.646, 38.81165
1166.128, 38.83115
1166.610, 38.87024
1167.092, 38.93261
1167.574, 38.88395
1168.056, 38.52038
1168.539, 38.22276
1169.021, 38.47020
1169.503, 38.93399
1169.985, 39.13919
1170.467, 38.99555
1170.949, 38.91451
1171.431, 38.90241
1171.913, 38.90648
1172.396, 38.88232
1172.878, 38.86815
1173.360, 38.86826
1173.842, 38.91698
1174.324, 39.12105
1174.806, 39.70262
1175.288, 39.75638
1175.770, 39.18144
1176.252, 39.39805
1176.734, 39.51157
1177.217, 39.52750
1177.699, 39.15375
1178.181, 39.28324
1178.663, 39.21106
1179.145, 39.13060
1179.627, 39.33092
1180.109, 39.01386
1180.591, 39.20973
1181.074, 39.20081
1181.556, 39.28563
1182.038, 39.16753
1182.520, 39.11211
1183.002, 39.25968
1183.484, 39.29485
1183.966, 39.15340
1184.448, 39.24418
1184.931, 38.91999
1185.413, 38.84284
1185.895, 38.90385
1186.377, 39.02035
1186.859, 39.17555
1187.341, 39.21582
1187.823, 39.06189
1188.305, 38.88902
1188.787, 38.71362
1189.270, 38.56698
1189.752, 38.50375
1190.234, 38.49430
1190.716, 38.47184
1191.198, 38.43269
1191.680, 38.49183
1192.162, 38.83710
1192.644, 38.95156
1193.126, 38.64000
1193.609, 38.18671
1194.091, 38.02907
1194.573, 38.07371
1195.055, 38.18877
1195.537, 38.36136
1196.019, 38.44403
1196.501, 38.33299
1196.983, 38.26640
1197.466, 38.33733
1197.948, 38.45182
1198.430, 38.42278
1198.912, 38.31213
1199.394, 38.26136
1199.876, 38.31547
1200.358, 38.26305
1200.840, 37.89951
1201.323, 37.73863
1201.805, 38.07172
1202.287, 38.57013
1202.769, 38.50450
1203.251, 38.09137
1203.733, 37.78308
1204.215, 37.68746
1204.697, 37.65733
1205.179, 37.67782
1205.661, 37.73178
1206.144, 37.84409
1206.626, 37.94934
1207.108, 37.83258
1207.590, 37.60440
1208.072, 37.52084
1208.554, 37.71604
1209.036, 37.83572
1209.518, 37.82543
1210.001, 37.73440
1210.483, 37.52777
1210.965, 37.31030
1211.447, 37.39002
1211.929, 37.65147
1212.411, 37.84687
1212.893, 37.89541
1213.375, 37.89176
1213.858, 37.83349
1214.340, 37.76863
1214.822, 37.75820
1215.304, 37.73294
1215.786, 37.45778
1216.268, 37.04763
1216.750, 36.69609
1217.232, 36.92579
1217.714, 37.05239
1218.197, 37.08144
1218.679, 36.72079
1219.161, 36.86337
1219.643, 36.80428
1220.125, 36.73692
1220.607, 36.95033
1221.089, 36.64636
1221.571, 36.85532
1222.053, 36.85953
1222.536, 36.95743
1223.018, 36.85243
1223.500, 36.81010
1223.982, 36.97076
1224.464, 37.01903
1224.946, 36.55281
1225.428, 36.46498
1225.910, 36.44962
1226.393, 36.38803
1226.875, 36.25640
1227.357, 36.14845
1227.839, 36.15756
1228.321, 36.21893
1228.803, 36.22673
1229.285, 36.20013
1229.767, 36.18285
1230.250, 36.17287
1230.732, 36.20145
1231.214, 36.27750
1231.696, 36.35884
1232.178, 36.46589
1232.660, 36.51997
1233.142, 36.31688
1233.624, 35.98896
1234.106, 35.86879
1234.589, 36.16596
1235.071, 36.21459
1235.553, 35.96170
1236.035, 35.66405
1236.517, 35.49852
1236.999, 35.41454
1237.481, 35.39854
1237.963, 35.41282
1238.445, 35.37317
1238.928, 35.27016
1239.410, 35.10919
1239.892, 34.87495
1240.374, 34.70539
1240.856, 34.67264
1241.338, 34.78138
1241.820, 35.18697
1242.302, 35.69220
1242.785, 35.87257
1243.267, 35.63796
1243.749, 35.54090
1244.231, 35.61032
1244.713, 35.62593
1245.195, 35.31574
1245.677, 35.00482
1246.159, 35.01723
1246.641, 35.16546
1247.124, 35.05611
1247.606, 34.63913
1248.088, 34.61859
1248.570, 35.01752
1249.052, 35.38694
1249.534, 35.47682
1250.016, 35.39353
1250.498, 35.00243
1250.980, 34.59712
1251.463, 34.62131
1251.945, 35.06640
1252.427, 35.28859
1252.909, 35.27423
1253.391, 35.16998
1253.873, 35.00641
1254.355, 34.84324
1254.837, 34.74297
1255.320, 34.62362
1255.802, 34.28268
1256.284, 33.81076
1256.766, 33.93068
1257.248, 34.57409
1257.730, 35.05297
1258.212, 34.87712
1258.694, 34.66040
1259.177, 34.53923
1259.659, 34.48570
1260.141, 34.49876
1260.623, 34.55261
1261.105, 34.52025
1261.587, 34.43400
1262.069, 34.46214
1262.551, 34.86532
1263.033, 35.09403
1263.516, 35.04714
1263.998, 34.89249
1264.480, 34.79299
1264.962, 34.70523
1265.444, 34.45374
1265.926, 34.12419
1266.408, 34.03474
1266.890, 34.52430
1267.372, 34.76272
1267.855, 34.64124
1268.337, 34.48838
1268.819, 34.63493
1269.301, 34.89132
1269.783, 35.00268
1270.265, 35.00325
1270.747, 35.00106
1271.229, 35.01065
1271.712, 35.02299
1272.194, 35.04364
1272.676, 35.01908
1273.158, 34.84506
1273.640, 34.66361
1274.122, 34.66445
1274.604, 34.16717
1275.086, 34.38802
1275.568, 34.50579
1276.051, 34.52597
1276.533, 34.15648
1277.015, 34.29021
1277.497, 34.22228
1277.979, 34.14607
1278.461, 34.35063
1278.943, 34.03782
1279.425, 34.23793
1279.907, 34.23329
1280.390, 34.32232
1280.872, 34.47344
1281.354, 34.47919
1281.836, 34.89763
1282.318, 35.11465
1282.800, 34.77509
1283.282, 34.30121
1283.764, 33.99004
1284.247, 33.84719
1284.729, 34.00946
1285.211, 34.39209
1285.693, 34.67758
1286.175, 34.65622
1286.657, 34.64301
1287.139, 34.66455
1287.621, 34.72692
1288.104, 34.91781
1288.586, 35.10622
1289.068, 34.86764
1289.550, 34.42698
1290.032, 34.31337
1290.514, 35.01300
1290.996, 35.36082
1291.478, 35.30723
1291.960, 35.10506
1292.443, 34.84175
1292.925, 34.59462
1293.407, 34.43201
1293.889, 34.36140
1294.371, 34.43742
1294.853, 34.71471
1295.335, 34.77055
1295.817, 34.60144
1296.299, 34.35061
1296.782, 33.93214
1297.264, 33.71331
1297.746, 34.21973
1298.228, 34.87258
1298.710, 35.07117
1299.192, 34.84648
1299.674, 34.72121
1300.156, 34.68758
1300.639, 34.69035
1301.121, 34.72919
1301.603, 34.75488
1302.085, 34.68527
1302.567, 34.67280
1303.049, 34.79051
1303.531, 35.03184
##END=



