##NAMES=Schrockingerite
##RRUFFID=R050565
##IDEAL CHEMISTRY=NaCa_3_(U^6+^O_2_)(S^6+^O_4_)(CO_3_)_3_F&#183;10H_2_O
##LOCALITY=Lost Creek, Sweetwater County, Wyoming, USA
##OWNER=RRUFF
##SOURCE=Dave Bunk Minerals
##DESCRIPTION=Scaly aggregate of pale green micaceous crystals
##STATUS=The identification of this mineral has been confirmed by X-ray diffraction and chemical analysis
##URL=rruff.info/R050565
##MEASURED CHEMISTRY=Na_1.00_Ca_3.00_(U_1.00_O_2_)(S_1.00_O_4_)(CO_3_)_3_F_1.00_Â·12H_2_O ; C and H not measured but estimated by stoichiometry
92.06543, 367.5812
92.54755, 367.7510
93.02966, 369.5633
93.51178, 370.5589
93.99390, 368.7719
94.47601, 364.6837
94.95813, 358.9858
95.44025, 352.1442
95.92236, 344.3065
96.40448, 335.2079
96.88660, 328.0264
97.36871, 323.7439
97.85082, 320.4357
98.33294, 316.9528
98.81506, 312.9422
99.29717, 308.1110
99.77929, 303.4529
100.2614, 299.0379
100.7435, 294.7567
101.2256, 290.6151
101.7078, 286.5027
102.1899, 282.1328
102.6720, 276.9711
103.1541, 272.1650
103.6362, 268.6560
104.1183, 266.4005
104.6005, 264.6718
105.0826, 263.0709
105.5647, 261.6452
106.0468, 259.8430
106.5289, 257.0742
107.0110, 254.0908
107.4931, 251.1017
107.9753, 248.1700
108.4574, 245.6645
108.9395, 244.4254
109.4216, 245.6233
109.9037, 246.2870
110.3858, 246.0084
110.8680, 245.1262
111.3501, 243.9185
111.8322, 242.5139
112.3143, 240.9809
112.7964, 239.7487
113.2785, 239.2500
113.7607, 238.5637
114.2428, 237.2916
114.7249, 235.6089
115.2070, 233.9387
115.6891, 232.5264
116.1712, 231.4335
116.6534, 230.9256
117.1355, 231.5275
117.6176, 232.3138
118.0997, 232.5576
118.5818, 232.1825
119.0639, 231.6033
119.5461, 230.8990
120.0282, 230.2153
120.5103, 230.1764
120.9924, 231.3351
121.4745, 233.2538
121.9566, 234.9812
122.4388, 236.5279
122.9209, 237.6710
123.4030, 238.1866
123.8851, 238.2080
124.3672, 238.2058
124.8493, 238.6010
125.3315, 239.4337
125.8136, 240.0671
126.2957, 239.9099
126.7778, 239.9519
127.2599, 240.9126
127.7420, 242.7155
128.2242, 244.5423
128.7063, 245.2244
129.1884, 244.1012
129.6705, 243.1131
130.1526, 241.9776
130.6347, 241.1233
131.1169, 240.9467
131.5990, 241.5597
132.0811, 242.6982
132.5632, 243.7896
133.0453, 245.0131
133.5274, 245.9637
134.0096, 246.3596
134.4917, 246.5203
134.9738, 246.9522
135.4559, 247.9432
135.9380, 249.2516
136.4201, 250.0018
136.9023, 249.6712
137.3844, 249.5882
137.8665, 250.6389
138.3486, 252.5606
138.8307, 254.1329
139.3128, 254.5314
139.7950, 254.1398
140.2771, 253.9622
140.7592, 254.1201
141.2413, 254.4367
141.7234, 254.7641
142.2055, 255.1083
142.6877, 255.4224
143.1698, 255.5071
143.6519, 255.5850
144.1340, 255.9642
144.6161, 256.8831
145.0982, 258.1089
145.5803, 258.9792
146.0625, 259.0941
146.5446, 259.5038
147.0267, 260.8266
147.5088, 262.6128
147.9909, 264.1827
148.4730, 265.0731
148.9552, 265.3146
149.4373, 265.5192
149.9194, 265.1974
150.4015, 265.3135
150.8836, 266.4637
151.3657, 268.3180
151.8479, 270.1073
152.3300, 271.1122
152.8121, 271.1865
153.2942, 271.3975
153.7763, 272.1941
154.2584, 272.7287
154.7406, 272.4920
155.2227, 271.4984
155.7048, 270.1354
156.1869, 268.7372
156.6690, 267.1712
157.1511, 266.3192
157.6333, 266.7816
158.1154, 267.6041
158.5975, 267.9460
159.0796, 267.6257
159.5617, 266.9846
160.0438, 266.3818
160.5260, 265.8026
161.0081, 265.3810
161.4902, 265.5391
161.9723, 265.8257
162.4544, 265.3107
162.9365, 263.5643
163.4187, 261.4066
163.9008, 259.8149
164.3829, 258.7652
164.8650, 257.7323
165.3471, 256.4169
165.8292, 254.8567
166.3113, 253.2752
166.7935, 251.4301
167.2756, 249.8900
167.7577, 249.2760
168.2398, 249.5672
168.7219, 249.8438
169.2040, 249.2561
169.6862, 247.7380
170.1683, 245.8082
170.6504, 242.9035
171.1325, 240.0384
171.6146, 237.7088
172.0967, 236.0326
172.5789, 234.8592
173.0610, 234.0656
173.5431, 233.9432
174.0252, 233.5287
174.5073, 232.6582
174.9894, 231.5893
175.4716, 230.4039
175.9537, 229.1619
176.4358, 228.0063
176.9179, 227.2579
177.4000, 227.5004
177.8821, 227.3534
178.3643, 226.4518
178.8464, 225.3077
179.3285, 224.4917
179.8106, 224.2356
180.2927, 224.2810
180.7748, 223.9197
181.2570, 222.6229
181.7391, 221.5782
182.2212, 221.1001
182.7033, 220.9210
183.1854, 220.6209
183.6675, 219.9853
184.1497, 219.1578
184.6318, 218.6046
185.1139, 218.3873
185.5960, 218.2607
186.0781, 218.2603
186.5602, 218.3062
187.0423, 218.1683
187.5245, 217.7270
188.0066, 217.0254
188.4887, 216.1856
188.9708, 215.0495
189.4529, 214.0520
189.9350, 213.4763
190.4172, 213.3049
190.8993, 213.3692
191.3814, 213.9014
191.8635, 214.4443
192.3456, 214.3347
192.8277, 213.3230
193.3099, 212.0178
193.7920, 210.9138
194.2741, 209.9942
194.7562, 209.3961
195.2383, 209.6225
195.7204, 210.0155
196.2026, 209.9714
196.6847, 209.2574
197.1668, 208.2942
197.6489, 207.7166
198.1310, 207.6253
198.6131, 207.6531
199.0953, 208.1086
199.5774, 208.4397
200.0595, 207.9847
200.5416, 206.4264
201.0237, 204.3761
201.5058, 203.2908
201.9880, 203.9940
202.4701, 204.1812
202.9522, 202.8903
203.4343, 201.1904
203.9164, 200.2624
204.3985, 200.6601
204.8807, 201.8419
205.3628, 202.1477
205.8449, 200.5233
206.3270, 199.3572
206.8091, 199.0908
207.2912, 199.3369
207.7733, 199.7467
208.2555, 200.1576
208.7376, 200.4709
209.2197, 200.3114
209.7018, 198.5109
210.1839, 197.5581
210.6660, 198.3748
211.1482, 200.0541
211.6303, 201.3768
212.1124, 201.7223
212.5945, 201.2580
213.0766, 200.6237
213.5587, 199.3168
214.0409, 198.4327
214.5230, 198.2660
215.0051, 198.6614
215.4872, 199.4516
215.9693, 200.6511
216.4514, 202.0286
216.9336, 202.6455
217.4157, 202.1791
217.8978, 201.5828
218.3799, 201.1035
218.8620, 200.7237
219.3441, 200.3912
219.8263, 200.0786
220.3084, 199.8087
220.7905, 199.6570
221.2726, 199.7796
221.7547, 199.7500
222.2368, 199.1562
222.7190, 198.1648
223.2011, 197.4759
223.6832, 197.4793
224.1653, 197.9027
224.6474, 198.1577
225.1295, 198.1806
225.6117, 198.1909
226.0938, 198.5023
226.5759, 199.0395
227.0580, 199.0735
227.5401, 197.7993
228.0222, 196.3107
228.5043, 196.1027
228.9865, 197.5403
229.4686, 199.0833
229.9507, 199.2330
230.4328, 198.0032
230.9149, 197.1676
231.3970, 197.7735
231.8792, 198.6231
232.3613, 198.6432
232.8434, 197.6716
233.3255, 196.4074
233.8076, 195.3944
234.2897, 194.6179
234.7719, 194.2788
235.2540, 195.0592
235.7361, 195.8736
236.2182, 196.0966
236.7003, 195.6317
237.1824, 194.6664
237.6646, 193.0431
238.1467, 190.4367
238.6288, 188.9816
239.1109, 190.2840
239.5930, 191.9180
240.0751, 192.5520
240.5573, 192.0686
241.0394, 191.3242
241.5215, 191.4561
242.0036, 192.8506
242.4857, 193.5292
242.9678, 192.6981
243.4500, 191.6811
243.9321, 191.0396
244.4142, 190.8687
244.8963, 191.0083
245.3784, 191.2981
245.8605, 191.7488
246.3427, 192.3197
246.8248, 192.6413
247.3069, 193.3717
247.7890, 195.5497
248.2711, 198.7760
248.7532, 201.2905
249.2354, 200.9465
249.7175, 196.6660
250.1996, 194.1827
250.6817, 194.5480
251.1638, 195.5246
251.6459, 196.4747
252.1281, 197.1523
252.6102, 197.3294
253.0923, 196.7274
253.5744, 195.1966
254.0565, 193.8032
254.5386, 192.4829
255.0208, 191.3221
255.5029, 190.5079
255.9850, 189.9260
256.4671, 189.2230
256.9492, 188.0712
257.4313, 186.4271
257.9135, 184.8451
258.3956, 182.7811
258.8777, 181.2668
259.3598, 181.2750
259.8419, 182.3262
260.3240, 182.9304
260.8062, 181.8588
261.2883, 179.1246
261.7704, 177.3215
262.2525, 176.6737
262.7346, 176.4651
263.2167, 176.6474
263.6989, 177.0673
264.1810, 177.4148
264.6631, 177.5061
265.1452, 177.3475
265.6273, 176.9908
266.1094, 176.0738
266.5916, 175.3848
267.0737, 175.3521
267.5558, 175.7746
268.0379, 176.1799
268.5200, 176.3189
269.0021, 176.2409
269.4843, 176.1496
269.9664, 176.0657
270.4485, 175.9476
270.9306, 175.7578
271.4127, 175.5242
271.8948, 175.2712
272.3770, 174.9719
272.8591, 174.7284
273.3412, 174.8783
273.8233, 175.6721
274.3054, 176.2550
274.7875, 176.2473
275.2697, 175.8622
275.7518, 175.5225
276.2339, 175.4050
276.7160, 175.3133
277.1981, 174.7886
277.6802, 173.7323
278.1623, 172.8334
278.6444, 172.2020
279.1266, 171.8657
279.6087, 172.0211
280.0908, 172.8372
280.5729, 173.7060
281.0550, 173.5983
281.5371, 172.5128
282.0193, 171.7229
282.5014, 171.9729
282.9835, 172.5663
283.4656, 172.3266
283.9477, 170.9275
284.4298, 169.4344
284.9120, 169.1165
285.3941, 169.8069
285.8762, 170.4135
286.3583, 170.6527
286.8404, 170.7195
287.3225, 170.7415
287.8047, 170.6957
288.2868, 170.9534
288.7689, 172.2798
289.2510, 174.2247
289.7331, 175.1756
290.2152, 173.6589
290.6974, 171.7575
291.1795, 171.8976
291.6616, 174.1822
292.1437, 176.4534
292.6258, 177.3016
293.1079, 177.1982
293.5901, 177.3385
294.0722, 177.9998
294.5543, 178.7529
295.0364, 179.0824
295.5185, 179.0312
296.0006, 179.4084
296.4828, 180.9300
296.9649, 182.9071
297.4470, 184.0823
297.9291, 184.1491
298.4112, 184.0428
298.8933, 184.3462
299.3755, 185.0240
299.8576, 185.9354
300.3397, 187.2887
300.8218, 188.5665
301.3039, 188.9856
301.7860, 188.4111
302.2682, 187.9907
302.7503, 188.5333
303.2324, 189.7732
303.7145, 190.8233
304.1966, 191.5661
304.6787, 191.9391
305.1609, 191.8636
305.6430, 191.3812
306.1251, 190.6833
306.6072, 189.8093
307.0893, 188.7839
307.5714, 187.7477
308.0536, 186.8508
308.5357, 185.5649
309.0178, 182.9512
309.4999, 179.5184
309.9820, 176.6711
310.4641, 175.4126
310.9463, 174.7895
311.4284, 173.3058
311.9105, 170.7824
312.3926, 168.2593
312.8747, 166.3666
313.3568, 164.9597
313.8390, 163.8894
314.3211, 163.5589
314.8032, 163.1050
315.2853, 161.4636
315.7674, 158.6153
316.2495, 155.7004
316.7317, 153.0617
317.2138, 150.7556
317.6959, 148.8401
318.1780, 147.3616
318.6601, 146.1658
319.1422, 145.1695
319.6243, 144.3650
320.1064, 143.7401
320.5886, 143.3358
321.0707, 143.0727
321.5528, 142.9267
322.0349, 142.9281
322.5170, 142.6734
322.9991, 141.7321
323.4813, 140.3590
323.9634, 139.2599
324.4455, 138.5804
324.9276, 138.1730
325.4097, 138.0639
325.8918, 138.1742
326.3740, 138.0498
326.8561, 137.4644
327.3382, 136.5725
327.8203, 135.4586
328.3024, 134.0186
328.7845, 132.9270
329.2667, 133.1060
329.7488, 134.0340
330.2309, 134.4018
330.7130, 133.4275
331.1951, 132.1735
331.6772, 131.7780
332.1594, 132.2270
332.6415, 132.6772
333.1236, 132.7608
333.6057, 132.5038
334.0878, 131.9895
334.5699, 130.9754
335.0521, 130.1562
335.5342, 130.1883
336.0163, 130.8615
336.4984, 131.2429
336.9805, 130.9260
337.4626, 130.2901
337.9448, 129.8469
338.4269, 129.5428
338.9090, 129.6006
339.3911, 130.6115
339.8732, 131.9563
340.3553, 132.2945
340.8375, 131.1983
341.3196, 129.7610
341.8017, 129.3678
342.2838, 129.8964
342.7659, 129.9005
343.2480, 128.2307
343.7302, 126.3983
344.2123, 126.4089
344.6944, 128.3789
345.1765, 130.1813
345.6586, 130.1418
346.1407, 128.5010
346.6229, 127.3821
347.1050, 126.9991
347.5871, 126.9678
348.0692, 127.2872
348.5513, 127.8276
349.0334, 128.0840
349.5156, 127.7435
349.9977, 127.0264
350.4798, 126.5579
350.9619, 126.5139
351.4440, 126.3257
351.9261, 125.4829
352.4083, 124.4553
352.8904, 124.1259
353.3725, 124.8154
353.8546, 125.8781
354.3367, 126.4128
354.8188, 126.3397
355.3010, 126.0544
355.7831, 125.1928
356.2652, 124.3805
356.7473, 124.3219
357.2294, 125.0417
357.7115, 125.8471
358.1937, 126.1475
358.6758, 125.9108
359.1579, 125.6078
359.6400, 124.8772
360.1221, 124.4306
360.6042, 124.8606
361.0863, 125.8838
361.5685, 126.7644
362.0506, 127.1088
362.5327, 126.9726
363.0148, 126.5562
363.4969, 125.3590
363.9790, 124.5268
364.4612, 124.4301
364.9433, 124.7048
365.4254, 124.9570
365.9075, 125.0515
366.3896, 125.0206
366.8717, 124.9131
367.3539, 124.7188
367.8360, 124.4553
368.3181, 123.7862
368.8002, 123.3076
369.2823, 123.6430
369.7644, 124.6732
370.2466, 125.6604
370.7287, 125.9370
371.2108, 125.4695
371.6929, 124.8032
372.1750, 123.2851
372.6571, 122.2730
373.1393, 122.5081
373.6214, 123.4756
374.1035, 124.2791
374.5856, 124.4181
375.0677, 124.0880
375.5498, 123.9139
376.0320, 123.9189
376.5141, 124.0709
376.9962, 124.4965
377.4783, 124.9779
377.9604, 125.4940
378.4425, 125.9726
378.9247, 126.0579
379.4068, 125.0278
379.8889, 122.2680
380.3710, 120.5587
380.8531, 120.5571
381.3352, 121.0178
381.8174, 121.7301
382.2995, 122.4864
382.7816, 122.9188
383.2637, 122.6702
383.7458, 121.8561
384.2279, 121.2519
384.7101, 120.7940
385.1922, 120.6847
385.6743, 121.1414
386.1564, 121.8635
386.6385, 122.5550
387.1206, 123.1256
387.6028, 123.4683
388.0849, 123.2933
388.5670, 122.4428
389.0491, 121.8318
389.5312, 121.7471
390.0133, 121.9299
390.4955, 122.2562
390.9776, 122.7073
391.4597, 123.2640
391.9418, 124.2771
392.4239, 125.5264
392.9060, 125.4931
393.3882, 123.3240
393.8703, 121.1900
394.3524, 120.6208
394.8345, 121.1132
395.3166, 121.6512
395.7987, 121.9423
396.2809, 122.0275
396.7630, 121.8743
397.2451, 121.4592
397.7272, 121.1698
398.2093, 121.3382
398.6914, 121.6340
399.1736, 121.4679
399.6557, 120.6278
400.1378, 119.9572
400.6199, 120.3244
401.1020, 121.2538
401.5841, 121.2743
402.0662, 119.8014
402.5483, 118.1065
403.0305, 117.7669
403.5126, 118.6825
403.9947, 119.7371
404.4768, 121.2047
404.9589, 122.4174
405.4410, 122.4636
405.9232, 121.4318
406.4053, 120.5225
406.8874, 120.5804
407.3695, 121.3887
407.8516, 121.7843
408.3337, 121.3334
408.8159, 121.0315
409.2980, 121.5244
409.7801, 122.2858
410.2622, 122.3609
410.7443, 121.4066
411.2264, 120.0442
411.7086, 119.2574
412.1907, 119.2916
412.6728, 119.3690
413.1549, 119.4657
413.6370, 119.6219
414.1191, 119.9340
414.6013, 120.3530
415.0834, 120.6809
415.5655, 120.7381
416.0476, 120.5496
416.5297, 120.5548
417.0118, 121.1338
417.4940, 121.4709
417.9761, 121.3036
418.4582, 120.8641
418.9403, 120.4138
419.4224, 120.0558
419.9045, 119.7819
420.3867, 119.5946
420.8688, 119.5591
421.3509, 119.4387
421.8330, 118.8054
422.3151, 118.4435
422.7972, 119.0494
423.2794, 120.3966
423.7615, 121.5805
424.2436, 121.8049
424.7257, 121.2380
425.2078, 121.0962
425.6899, 121.8764
426.1721, 122.1907
426.6542, 121.0535
427.1363, 119.4270
427.6184, 118.4651
428.1005, 118.5672
428.5826, 119.2090
429.0648, 119.9425
429.5469, 120.7792
430.0290, 121.1719
430.5111, 120.6784
430.9932, 120.0539
431.4753, 119.9574
431.9575, 120.3456
432.4396, 120.8582
432.9217, 121.4245
433.4038, 121.9717
433.8859, 122.4372
434.3680, 122.8380
434.8502, 122.9341
435.3323, 122.4259
435.8144, 121.5166
436.2965, 120.7840
436.7786, 120.1044
437.2607, 119.8175
437.7429, 120.4628
438.2250, 121.6218
438.7071, 122.2932
439.1892, 122.1372
439.6713, 121.5850
440.1534, 121.1557
440.6356, 120.8058
441.1177, 120.8509
441.5998, 121.8076
442.0819, 122.7713
442.5640, 122.9723
443.0461, 122.5252
443.5282, 122.0954
444.0103, 122.1325
444.4925, 122.5533
444.9746, 122.8949
445.4567, 123.1115
445.9388, 123.3028
446.4209, 123.4484
446.9030, 123.5878
447.3852, 123.7300
447.8673, 123.8899
448.3494, 124.1415
448.8315, 124.6198
449.3136, 125.4131
449.7957, 125.9838
450.2779, 126.1734
450.7600, 126.2923
451.2421, 126.5198
451.7242, 126.7436
452.2063, 126.6877
452.6884, 126.1396
453.1706, 125.3955
453.6527, 125.2163
454.1348, 125.8036
454.6169, 126.3214
455.0990, 126.3674
455.5811, 126.4038
456.0633, 126.8142
456.5454, 127.6126
457.0275, 128.4044
457.5096, 128.9088
457.9917, 129.1758
458.4738, 129.3760
458.9560, 129.5016
459.4381, 129.6110
459.9202, 129.6851
460.4023, 129.7788
460.8844, 130.0148
461.3665, 130.4746
461.8487, 130.9923
462.3308, 131.4475
462.8129, 131.8571
463.2950, 132.2861
463.7771, 132.7656
464.2592, 133.2486
464.7414, 133.6534
465.2235, 133.9597
465.7056, 134.3396
466.1877, 134.9456
466.6698, 135.5354
467.1519, 135.9694
467.6341, 136.2199
468.1162, 136.2201
468.5983, 135.8991
469.0804, 135.3377
469.5625, 134.9186
470.0446, 134.6858
470.5268, 134.5484
471.0089, 134.8132
471.4910, 134.9915
471.9731, 134.3801
472.4552, 132.9864
472.9373, 131.7297
473.4195, 131.8194
473.9016, 133.4510
474.3837, 133.7607
474.8658, 131.5059
475.3479, 129.2215
475.8300, 127.3283
476.3122, 125.9315
476.7943, 125.2330
477.2764, 125.3937
477.7585, 125.7937
478.2406, 125.3897
478.7227, 124.0724
479.2049, 122.9563
479.6870, 122.3353
480.1691, 121.8811
480.6512, 121.4191
481.1333, 120.9281
481.6154, 120.3334
482.0976, 119.3170
482.5797, 118.3007
483.0618, 118.1151
483.5439, 118.7920
484.0260, 119.3086
484.5081, 119.1216
484.9902, 118.4886
485.4724, 117.9667
485.9545, 117.5468
486.4366, 117.2475
486.9187, 117.0495
487.4008, 116.9852
487.8829, 117.1456
488.3651, 117.5307
488.8472, 117.9802
489.3293, 118.3865
489.8114, 118.7503
490.2935, 118.8278
490.7756, 118.3512
491.2578, 117.9559
491.7399, 118.0169
492.2220, 118.1909
492.7041, 117.8773
493.1862, 116.9158
493.6683, 115.8992
494.1505, 115.7969
494.6326, 116.9854
495.1147, 117.5966
495.5968, 117.0224
496.0789, 116.4500
496.5610, 116.3074
497.0432, 116.4856
497.5253, 116.7315
498.0074, 116.9299
498.4895, 117.0888
498.9716, 117.2832
499.4537, 117.5674
499.9359, 117.5223
500.4180, 116.7789
500.9001, 115.9051
501.3822, 115.3336
501.8643, 115.0623
502.3464, 114.9682
502.8286, 115.0768
503.3107, 115.2880
503.7928, 115.3712
504.2749, 115.3211
504.7570, 115.5870
505.2391, 116.6178
505.7213, 117.9738
506.2034, 118.4536
506.6855, 117.7709
507.1676, 117.0196
507.6497, 116.3780
508.1318, 115.8756
508.6140, 115.5796
509.0961, 115.4842
509.5782, 115.4935
510.0603, 115.5385
510.5424, 115.6150
511.0245, 115.6406
511.5067, 115.4422
511.9888, 115.4034
512.4709, 115.8588
512.9530, 116.3702
513.4351, 116.2744
513.9172, 115.4820
514.3994, 114.7739
514.8815, 115.3814
515.3636, 117.4984
515.8457, 118.2370
516.3278, 116.0798
516.8099, 114.5808
517.2921, 116.1508
517.7742, 118.9755
518.2563, 120.0766
518.7384, 118.1314
519.2205, 115.3962
519.7026, 114.4529
520.1848, 115.0554
520.6669, 115.1815
521.1490, 114.1319
521.6311, 113.0738
522.1132, 113.4542
522.5953, 114.9875
523.0775, 116.1894
523.5596, 116.7136
524.0417, 116.9086
524.5238, 116.9167
525.0059, 116.7848
525.4880, 116.6012
525.9702, 116.3942
526.4523, 116.2082
526.9344, 116.1312
527.4165, 116.2616
527.8986, 116.2382
528.3807, 115.9071
528.8629, 115.5795
529.3450, 115.4174
529.8271, 115.4003
530.3092, 115.4756
530.7913, 115.6288
531.2734, 115.7698
531.7556, 115.6172
532.2377, 114.9739
532.7198, 114.5996
533.2019, 114.9846
533.6840, 115.3547
534.1661, 115.0988
534.6483, 114.3798
535.1304, 113.9737
535.6125, 114.5083
536.0946, 115.5086
536.5767, 116.1963
537.0588, 116.5722
537.5410, 116.5816
538.0231, 116.0788
538.5052, 115.3085
538.9873, 114.5673
539.4694, 113.7931
539.9515, 113.4191
540.4337, 113.8670
540.9158, 114.5671
541.3979, 115.0434
541.8800, 115.2449
542.3621, 115.1316
542.8442, 114.6057
543.3264, 113.8884
543.8085, 113.7407
544.2906, 114.8073
544.7726, 115.5655
545.2548, 115.9521
545.7369, 116.0628
546.2190, 115.8243
546.7011, 115.3481
547.1832, 114.9547
547.6653, 114.9168
548.1475, 115.1274
548.6296, 115.1466
549.1117, 114.8908
549.5938, 114.6643
550.0759, 114.3406
550.5580, 114.2272
551.0402, 114.7945
551.5223, 116.0115
552.0044, 116.9152
552.4865, 116.7851
552.9686, 116.0409
553.4507, 115.4104
553.9329, 114.9245
554.4150, 114.3392
554.8971, 113.4268
555.3792, 112.4108
555.8613, 111.8917
556.3434, 111.9561
556.8256, 112.1773
557.3077, 112.6373
557.7898, 113.1068
558.2719, 113.2984
558.7540, 113.2625
559.2361, 113.3626
559.7183, 113.9015
560.2004, 114.6797
560.6825, 114.8359
561.1646, 113.9620
561.6467, 113.1398
562.1288, 112.1300
562.6110, 111.4653
563.0931, 111.8760
563.5752, 113.1202
564.0573, 113.9774
564.5394, 113.3577
565.0215, 111.8766
565.5037, 111.1231
565.9858, 111.1734
566.4679, 111.4536
566.9500, 111.8661
567.4321, 112.3182
567.9142, 112.7942
568.3964, 113.3290
568.8785, 113.4231
569.3606, 112.5347
569.8427, 111.3803
570.3248, 110.5759
570.8069, 110.1727
571.2891, 110.2300
571.7712, 110.8726
572.2533, 111.7208
572.7354, 111.7912
573.2175, 110.2259
573.6996, 109.4006
574.1818, 109.7941
574.6639, 110.4512
575.1460, 110.9260
575.6281, 111.1639
576.1102, 111.1701
576.5923, 110.9049
577.0745, 110.5572
577.5566, 110.6718
578.0387, 111.4263
578.5208, 111.6446
579.0029, 110.6614
579.4850, 109.5284
579.9672, 109.0275
580.4493, 109.0664
580.9314, 109.2161
581.4135, 109.3074
581.8956, 109.4543
582.3777, 109.7635
582.8599, 110.2227
583.3420, 110.9179
583.8241, 111.9728
584.3062, 112.7948
584.7883, 112.4136
585.2704, 110.3585
585.7526, 109.5062
586.2347, 110.9154
586.7168, 112.3075
587.1989, 112.6865
587.6810, 112.4015
588.1631, 112.0467
588.6453, 111.8513
589.1274, 111.7404
589.6095, 111.5611
590.0916, 111.2743
590.5737, 111.3316
591.0558, 112.1186
591.5380, 112.6899
592.0201, 112.2831
592.5022, 111.5039
592.9843, 111.3147
593.4664, 112.0612
593.9485, 112.9848
594.4307, 113.6924
594.9128, 114.1162
595.3949, 114.0324
595.8770, 113.3934
596.3591, 112.4921
596.8412, 111.3938
597.3234, 110.2124
597.8055, 109.8229
598.2876, 110.9723
598.7697, 111.7964
599.2518, 111.7234
599.7339, 111.3677
600.2161, 111.2628
600.6982, 111.4872
601.1803, 111.8920
601.6624, 112.4001
602.1445, 112.9546
602.6266, 113.2624
603.1088, 113.2230
603.5909, 113.1949
604.0730, 113.4378
604.5551, 113.5938
605.0372, 113.1424
605.5193, 112.1923
606.0015, 111.7774
606.4836, 112.8148
606.9657, 114.3776
607.4478, 115.6594
607.9299, 116.5337
608.4120, 115.9995
608.8942, 113.2613
609.3763, 110.2912
609.8584, 110.4136
610.3405, 115.0979
610.8226, 117.4090
611.3047, 115.4926
611.7869, 113.2504
612.2690, 112.1820
612.7511, 112.1066
613.2332, 112.6643
613.7153, 113.6939
614.1974, 114.8108
614.6796, 115.6177
615.1617, 116.1364
615.6438, 115.8333
616.1259, 114.1006
616.6080, 112.5676
617.0901, 112.2575
617.5723, 112.5892
618.0544, 112.7464
618.5365, 112.5274
619.0186, 112.3859
619.5007, 112.7647
619.9828, 113.3147
620.4650, 113.3679
620.9471, 112.8991
621.4292, 112.5779
621.9113, 112.9222
622.3934, 113.6779
622.8755, 113.8616
623.3577, 112.9731
623.8398, 112.2054
624.3219, 111.6572
624.8040, 111.1662
625.2861, 110.5824
625.7682, 109.9625
626.2504, 109.4514
626.7325, 109.0982
627.2145, 109.0009
627.6967, 109.5433
628.1788, 110.7739
628.6609, 111.5119
629.1430, 111.5330
629.6251, 110.9971
630.1072, 109.5474
630.5894, 107.5432
631.0715, 106.3847
631.5536, 106.7972
632.0357, 107.5255
632.5178, 108.0632
632.9999, 108.4580
633.4821, 108.7809
633.9642, 109.0486
634.4463, 109.2868
634.9284, 109.5802
635.4105, 109.8824
635.8926, 109.4580
636.3748, 107.7626
636.8569, 106.1982
637.3390, 104.7421
637.8211, 103.6859
638.3032, 103.4498
638.7853, 103.9435
639.2675, 104.4465
639.7496, 104.4879
640.2317, 104.2820
640.7138, 104.2127
641.1959, 104.2567
641.6780, 104.0629
642.1602, 103.4270
642.6423, 102.7132
643.1244, 102.3464
643.6065, 102.3465
644.0886, 102.7636
644.5707, 104.4024
645.0529, 105.5637
645.5350, 105.1864
646.0171, 104.0476
646.4992, 103.2314
646.9813, 103.0468
647.4634, 103.1066
647.9456, 102.9372
648.4277, 102.5907
648.9098, 102.8052
649.3919, 103.9276
649.8740, 104.7001
650.3561, 104.3265
650.8383, 103.5425
651.3204, 103.1761
651.8025, 103.2889
652.2846, 103.3887
652.7667, 103.3515
653.2488, 103.1687
653.7310, 102.6375
654.2131, 101.9322
654.6952, 101.6567
655.1773, 102.0776
655.6594, 102.8159
656.1415, 103.3279
656.6237, 103.6670
657.1058, 103.5227
657.5879, 102.1595
658.0700, 101.1187
658.5521, 100.9395
659.0342, 101.2561
659.5164, 101.7009
659.9985, 102.1769
660.4806, 102.4693
660.9627, 102.2892
661.4448, 101.8230
661.9269, 101.5314
662.4091, 101.4381
662.8912, 101.2163
663.3733, 100.5746
663.8554, 99.91556
664.3375, 100.1577
664.8196, 101.9409
665.3018, 102.7408
665.7839, 101.4104
666.2660, 100.1839
666.7481, 100.5705
667.2302, 101.8132
667.7123, 102.4330
668.1945, 101.8963
668.6766, 101.0084
669.1587, 100.7982
669.6408, 101.2176
670.1229, 101.4990
670.6050, 101.5518
671.0872, 101.6837
671.5693, 102.1795
672.0514, 102.7721
672.5335, 103.0013
673.0156, 102.8037
673.4977, 102.5266
673.9799, 102.1187
674.4620, 101.7952
674.9441, 101.8235
675.4262, 102.0916
675.9083, 102.2681
676.3904, 102.2062
676.8726, 102.0401
677.3547, 102.0056
677.8368, 102.1450
678.3189, 102.1271
678.8010, 101.8129
679.2831, 101.5435
679.7653, 101.5649
680.2474, 101.6499
680.7295, 101.4402
681.2116, 100.8435
681.6937, 100.4322
682.1758, 100.7731
682.6580, 101.3276
683.1401, 101.2751
683.6222, 100.7192
684.1043, 100.3746
684.5864, 100.5711
685.0685, 101.1535
685.5507, 101.9085
686.0328, 102.9736
686.5149, 103.6509
686.9970, 103.5653
687.4791, 103.5023
687.9612, 103.8191
688.4434, 104.2229
688.9255, 104.2245
689.4076, 103.7283
689.8897, 103.4227
690.3718, 104.1639
690.8539, 105.3456
691.3361, 105.5491
691.8182, 104.8096
692.3003, 104.6335
692.7824, 105.8397
693.2645, 107.4632
693.7466, 107.8786
694.2288, 106.5971
694.7109, 106.1467
695.1930, 106.9719
695.6751, 108.0455
696.1572, 109.2936
696.6393, 110.4490
697.1215, 111.1545
697.6036, 111.3567
698.0857, 111.3999
698.5678, 111.5895
699.0499, 111.8556
699.5320, 111.9013
700.0142, 111.7028
700.4963, 111.8023
700.9784, 112.3821
701.4605, 113.3839
701.9426, 114.9309
702.4247, 117.1807
702.9069, 118.5377
703.3890, 118.1677
703.8711, 117.8402
704.3532, 118.3099
704.8353, 119.1667
705.3174, 120.0675
705.7996, 120.8293
706.2817, 121.1289
706.7638, 120.6969
707.2459, 119.5709
707.7280, 117.5958
708.2101, 114.6243
708.6923, 112.2889
709.1743, 111.3140
709.6564, 110.7147
710.1385, 109.3130
710.6207, 107.2019
711.1028, 105.5969
711.5849, 104.4489
712.0670, 103.9637
712.5491, 104.6919
713.0313, 105.8530
713.5134, 106.6241
713.9955, 106.8733
714.4776, 106.7960
714.9597, 106.4513
715.4418, 106.0550
715.9240, 106.3383
716.4061, 107.4280
716.8882, 108.0182
717.3703, 107.5574
717.8524, 107.0244
718.3345, 107.2693
718.8167, 108.1107
719.2988, 108.9570
719.7809, 109.9274
720.2630, 110.6431
720.7451, 110.7630
721.2272, 110.7145
721.7094, 110.7450
722.1915, 111.0078
722.6736, 111.8262
723.1557, 113.4244
723.6378, 115.4906
724.1199, 117.3470
724.6021, 118.9611
725.0842, 120.9640
725.5663, 123.6291
726.0484, 126.2443
726.5305, 128.3534
727.0126, 130.1117
727.4948, 131.7811
727.9769, 133.3690
728.4590, 134.9000
728.9411, 136.3316
729.4232, 137.7512
729.9053, 139.2619
730.3875, 140.8055
730.8696, 142.1748
731.3517, 143.2880
731.8338, 144.4221
732.3159, 145.9575
732.7980, 147.8922
733.2802, 150.0558
733.7623, 152.4013
734.2444, 155.1413
734.7265, 158.7344
735.2086, 162.5058
735.6907, 165.4772
736.1729, 167.5845
736.6550, 169.6684
737.1371, 171.7704
737.6192, 174.0396
738.1013, 176.8715
738.5834, 179.8302
739.0656, 182.4139
739.5477, 184.4294
740.0298, 185.5784
740.5119, 185.5860
740.9940, 184.5033
741.4761, 182.6162
741.9583, 180.0314
742.4404, 175.9391
742.9225, 169.5030
743.4046, 162.3661
743.8867, 155.9127
744.3688, 150.1034
744.8510, 144.8447
745.3331, 140.1629
745.8152, 135.9913
746.2973, 132.3472
746.7794, 129.1785
747.2615, 126.6312
747.7437, 124.5450
748.2258, 122.3203
748.7079, 119.5503
749.1900, 116.7159
749.6721, 114.8668
750.1542, 113.9789
750.6364, 112.6290
751.1185, 110.4771
751.6006, 108.4503
752.0827, 107.2615
752.5648, 106.5459
753.0469, 105.2055
753.5291, 102.7979
754.0112, 100.9926
754.4933, 100.4075
754.9754, 100.0770
755.4575, 99.47245
755.9396, 98.67111
756.4218, 97.79707
756.9039, 96.91225
757.3860, 96.29422
757.8681, 96.53593
758.3502, 97.27735
758.8323, 97.10050
759.3145, 95.95723
759.7966, 94.91533
760.2787, 94.35510
760.7608, 94.08564
761.2429, 93.87209
761.7250, 93.70752
762.2072, 93.70325
762.6893, 94.07113
763.1714, 94.31519
763.6535, 94.39585
764.1356, 94.24915
764.6177, 93.54375
765.0999, 92.49583
765.5820, 91.98003
766.0641, 92.65696
766.5462, 93.78587
767.0283, 94.53030
767.5104, 94.91026
767.9926, 94.95370
768.4747, 94.66288
768.9568, 94.13659
769.4389, 93.37354
769.9210, 92.52217
770.4031, 92.11185
770.8853, 92.46623
771.3674, 92.62836
771.8495, 92.34036
772.3316, 92.14721
772.8137, 92.25037
773.2958, 92.60867
773.7780, 93.23449
774.2601, 94.15064
774.7422, 94.90251
775.2243, 95.15182
775.7064, 95.10741
776.1885, 94.84539
776.6707, 94.51194
777.1528, 94.67156
777.6349, 95.51936
778.1170, 96.40800
778.5991, 96.53142
779.0812, 95.93238
779.5634, 95.46508
780.0455, 95.07217
780.5276, 94.94851
781.0097, 95.48978
781.4918, 95.99976
781.9739, 95.67256
782.4561, 94.79579
782.9382, 94.61653
783.4203, 95.89388
783.9024, 97.20295
784.3845, 97.78918
784.8666, 98.09354
785.3488, 98.72166
785.8309, 99.59110
786.3130, 100.0811
786.7951, 99.82327
787.2772, 99.34395
787.7593, 99.63262
788.2415, 100.6643
788.7236, 101.3790
789.2057, 101.6792
789.6878, 101.8018
790.1699, 101.6415
790.6520, 101.5598
791.1342, 102.2453
791.6162, 103.8174
792.0983, 105.3777
792.5804, 106.9128
793.0626, 108.3879
793.5447, 109.6707
794.0268, 110.9613
794.5089, 112.3746
794.9910, 114.0058
795.4731, 116.1256
795.9553, 118.9748
796.4374, 122.3191
796.9195, 125.6114
797.4016, 129.0453
797.8837, 133.3924
798.3658, 138.8084
798.8480, 145.1594
799.3301, 152.6164
799.8122, 160.5739
800.2943, 166.7590
800.7764, 170.0245
801.2585, 174.0272
801.7407, 179.4249
802.2228, 184.8763
802.7049, 189.6875
803.1870, 194.3016
803.6691, 199.3565
804.1512, 204.9581
804.6334, 210.6573
805.1155, 215.9860
805.5976, 221.4708
806.0797, 227.4909
806.5618, 234.0539
807.0439, 241.3255
807.5261, 249.2685
808.0082, 257.5075
808.4903, 265.5874
808.9724, 273.7262
809.4545, 282.8356
809.9366, 293.1330
810.4188, 303.1867
810.9009, 312.6954
811.3830, 321.9569
811.8651, 331.6224
812.3472, 341.1440
812.8293, 348.8765
813.3115, 355.7144
813.7936, 358.8864
814.2757, 357.7985
814.7578, 353.1203
815.2399, 344.9445
815.7220, 333.5691
816.2042, 318.7412
816.6863, 300.6450
817.1684, 281.6517
817.6505, 263.5215
818.1326, 246.1841
818.6147, 229.1496
819.0969, 212.6722
819.5790, 198.2190
820.0611, 186.2297
820.5432, 175.8372
821.0253, 166.2304
821.5074, 157.4602
821.9896, 150.0566
822.4717, 144.3851
822.9538, 139.1171
823.4359, 133.9765
823.9180, 129.4043
824.4001, 125.7986
824.8823, 122.8917
825.3644, 120.2244
825.8465, 117.7831
826.3286, 115.3938
826.8107, 112.5822
827.2928, 110.1503
827.7750, 108.9251
828.2571, 108.5465
828.7392, 108.4549
829.2213, 108.3976
829.7034, 107.9514
830.1855, 106.4867
830.6677, 104.4958
831.1498, 103.4825
831.6319, 103.4222
832.1140, 103.2702
832.5961, 102.7625
833.0782, 102.2850
833.5604, 102.2366
834.0425, 102.4366
834.5246, 102.0684
835.0067, 100.2128
835.4888, 99.37764
835.9709, 100.4693
836.4531, 101.5240
836.9352, 101.6534
837.4173, 101.2232
837.8994, 100.7397
838.3815, 100.2968
838.8636, 100.0477
839.3458, 100.1821
839.8279, 100.4421
840.3100, 100.5049
840.7921, 100.5420
841.2742, 101.1346
841.7563, 102.2535
842.2385, 102.8537
842.7206, 101.9572
843.2027, 100.2940
843.6848, 99.85446
844.1669, 100.6712
844.6490, 101.0781
845.1312, 100.8399
845.6133, 100.2781
846.0954, 99.53163
846.5775, 98.62820
847.0596, 97.56946
847.5417, 96.13270
848.0239, 95.26805
848.5060, 95.40406
848.9881, 95.56538
849.4702, 95.53391
849.9523, 95.30502
850.4344, 94.78266
850.9166, 94.03352
851.3987, 93.45501
851.8808, 93.55683
852.3629, 93.43203
852.8450, 91.85754
853.3271, 89.77177
853.8093, 88.77937
854.2914, 88.89867
854.7735, 89.12906
855.2556, 88.91971
855.7377, 88.59600
856.2198, 88.84071
856.7020, 88.58177
857.1841, 88.27977
857.6662, 88.56541
858.1483, 87.86117
858.6304, 88.10126
859.1125, 88.62314
859.5947, 88.67799
860.0768, 88.26305
860.5589, 87.67851
861.0410, 86.47990
861.5231, 85.74290
862.0052, 85.84194
862.4874, 86.20239
862.9695, 86.60429
863.4516, 86.93038
863.9337, 86.97134
864.4158, 86.62599
864.8979, 86.25475
865.3801, 86.08302
865.8622, 85.99422
866.3443, 85.78126
866.8264, 85.56043
867.3085, 85.77878
867.7906, 86.48424
868.2728, 86.92813
868.7549, 86.25743
869.2370, 84.99889
869.7191, 84.85574
870.2012, 85.81567
870.6833, 86.16356
871.1655, 85.52222
871.6476, 84.69698
872.1297, 84.21347
872.6118, 83.93832
873.0939, 83.50082
873.5760, 82.64759
874.0581, 82.38268
874.5402, 83.13719
875.0223, 83.97425
875.5045, 84.94051
875.9866, 85.66456
876.4687, 85.60857
876.9508, 84.85940
877.4329, 84.34138
877.9150, 84.68168
878.3972, 84.90414
878.8793, 84.23628
879.3614, 83.35302
879.8435, 83.04590
880.3256, 83.23913
880.8077, 83.47396
881.2899, 83.54762
881.7720, 83.45930
882.2541, 83.08775
882.7362, 82.57600
883.2183, 82.40323
883.7004, 82.53838
884.1826, 82.56493
884.6647, 82.34293
885.1468, 82.08609
885.6289, 81.95299
886.1110, 82.00200
886.5931, 82.66914
887.0753, 84.40993
887.5574, 85.37107
888.0395, 85.05515
888.5216, 84.43214
889.0037, 83.63402
889.4858, 83.03181
889.9680, 83.43627
890.4501, 85.12302
890.9322, 86.14832
891.4143, 85.81814
891.8964, 85.28633
892.3785, 84.87537
892.8607, 84.60874
893.3428, 84.47607
893.8249, 84.48605
894.3070, 84.71485
894.7891, 85.29163
895.2712, 85.81046
895.7534, 85.84373
896.2355, 85.61765
896.7176, 85.49162
897.1997, 85.44787
897.6818, 85.19314
898.1639, 84.63857
898.6461, 84.30283
899.1282, 84.89126
899.6103, 86.13547
900.0924, 86.88069
900.5745, 87.10909
901.0566, 87.17194
901.5388, 87.10831
902.0209, 86.99432
902.5030, 86.82938
902.9851, 86.71034
903.4672, 86.96284
903.9493, 87.92970
904.4315, 88.29219
904.9136, 87.52009
905.3957, 86.81969
905.8778, 86.80521
906.3599, 86.85427
906.8420, 86.20405
907.3242, 84.94120
907.8063, 84.02879
908.2884, 84.04167
908.7705, 83.96970
909.2526, 83.42712
909.7347, 82.64690
910.2169, 81.55433
910.6990, 80.45546
911.1811, 80.03686
911.6632, 80.51695
912.1453, 81.02662
912.6274, 80.73924
913.1096, 80.10765
913.5917, 79.78498
914.0738, 79.69920
914.5559, 79.64983
915.0380, 79.57960
915.5201, 79.41096
916.0023, 79.06279
916.4844, 78.68620
916.9665, 78.71960
917.4486, 79.15496
917.9307, 78.99642
918.4128, 78.04314
918.8950, 77.47009
919.3771, 77.91230
919.8592, 78.55415
920.3413, 78.28765
920.8234, 77.14626
921.3055, 76.70429
921.7877, 77.41324
922.2698, 78.02512
922.7519, 78.61193
923.2340, 78.85684
923.7161, 78.19083
924.1982, 77.20473
924.6804, 77.07613
925.1625, 78.10495
925.6446, 78.74688
926.1267, 78.34740
926.6088, 77.79266
927.0909, 77.40504
927.5731, 77.17884
928.0552, 77.15414
928.5373, 77.26904
929.0194, 77.37219
929.5015, 77.45713
929.9836, 77.27576
930.4658, 76.26552
930.9479, 75.07612
931.4300, 74.57488
931.9121, 74.73849
932.3942, 75.46648
932.8763, 76.64994
933.3585, 77.72913
933.8406, 78.17011
934.3227, 78.15445
934.8048, 78.07973
935.2869, 77.95071
935.7690, 77.85393
936.2512, 77.81213
936.7333, 77.51340
937.2154, 76.73643
937.6975, 75.79330
938.1796, 75.18953
938.6617, 74.93054
939.1439, 74.93261
939.6260, 75.41000
940.1081, 75.52611
940.5902, 74.78687
941.0723, 74.08006
941.5544, 74.20293
942.0366, 74.89668
942.5187, 75.25234
943.0008, 75.05527
943.4829, 75.05769
943.9650, 75.65678
944.4471, 76.01750
944.9293, 75.53139
945.4114, 74.85751
945.8935, 74.83549
946.3756, 75.37287
946.8577, 75.51889
947.3398, 74.70588
947.8220, 73.94626
948.3041, 73.61458
948.7862, 73.64704
949.2683, 74.07876
949.7504, 74.80223
950.2325, 75.79617
950.7147, 76.98352
951.1968, 77.77637
951.6789, 77.46303
952.1610, 76.83719
952.6431, 77.01945
953.1252, 77.60717
953.6074, 77.62529
954.0895, 77.08958
954.5716, 76.84806
955.0537, 77.33386
955.5358, 77.95426
956.0179, 77.85816
956.5000, 77.20052
956.9821, 76.59608
957.4642, 76.05406
957.9464, 75.87808
958.4285, 76.14772
958.9106, 76.73471
959.3927, 77.61608
959.8748, 78.57072
960.3569, 78.91954
960.8391, 78.48974
961.3212, 78.42319
961.8033, 78.78361
962.2854, 79.34321
962.7675, 80.11597
963.2496, 80.92155
963.7318, 81.56625
964.2139, 82.07363
964.6960, 82.62728
965.1781, 83.09495
965.6602, 83.82757
966.1423, 84.42159
966.6245, 85.73843
967.1066, 88.52543
967.5887, 92.00387
968.0708, 95.20232
968.5529, 98.08313
969.0350, 101.1789
969.5172, 104.6245
969.9993, 108.2723
970.4814, 112.5213
970.9635, 116.5293
971.4456, 119.5116
971.9277, 121.7801
972.4099, 123.9326
972.8920, 126.1182
973.3741, 128.3253
973.8562, 130.2036
974.3383, 132.4643
974.8204, 135.7973
975.3026, 139.7784
975.7847, 143.8428
976.2668, 147.9650
976.7489, 152.3708
977.2310, 157.1446
977.7131, 162.3305
978.1953, 168.1274
978.6774, 174.2703
979.1595, 180.1376
979.6416, 186.0349
980.1237, 193.2254
980.6058, 201.6934
981.0880, 209.6316
981.5701, 216.0290
982.0522, 220.0105
982.5343, 220.3128
983.0164, 216.8529
983.4985, 208.4339
983.9807, 195.2016
984.4628, 180.1987
984.9449, 164.2165
985.4270, 148.3549
985.9091, 133.2849
986.3912, 119.6525
986.8734, 109.5538
987.3555, 103.3171
987.8376, 97.99721
988.3197, 93.46634
988.8018, 89.95679
989.2839, 87.76723
989.7661, 86.18295
990.2482, 84.42747
990.7303, 82.57822
991.2124, 81.17471
991.6945, 80.39590
992.1766, 79.63183
992.6588, 78.70683
993.1409, 78.01746
993.6230, 77.85425
994.1051, 77.92936
994.5872, 77.86984
995.0693, 77.67852
995.5515, 77.58411
996.0336, 78.11152
996.5157, 77.96155
996.9978, 76.20158
997.4799, 74.57595
997.9620, 74.06657
998.4442, 74.25511
998.9263, 74.60582
999.4084, 75.05310
999.8905, 75.29544
1000.373, 75.29187
1000.855, 75.02708
1001.337, 73.93677
1001.819, 73.09408
1002.301, 73.84416
1002.783, 75.33301
1003.265, 75.73641
1003.747, 74.64237
1004.230, 73.60741
1004.712, 73.60612
1005.194, 73.67731
1005.676, 73.00994
1006.158, 72.19492
1006.640, 72.06516
1007.122, 72.39485
1007.604, 72.26768
1008.086, 71.36800
1008.569, 70.73496
1009.051, 71.56831
1009.533, 72.71350
1010.015, 72.83297
1010.497, 72.39958
1010.979, 72.18103
1011.461, 72.27639
1011.943, 72.58602
1012.426, 73.06653
1012.908, 73.36970
1013.390, 72.92411
1013.872, 72.16402
1014.354, 71.86715
1014.836, 71.94198
1015.318, 72.18327
1015.800, 72.50986
1016.282, 72.74709
1016.765, 72.79808
1017.247, 72.68081
1017.729, 72.38950
1018.211, 71.95425
1018.693, 71.35580
1019.175, 70.67454
1019.657, 70.56756
1020.139, 71.14027
1020.622, 71.49097
1021.104, 70.98029
1021.586, 71.44138
1022.068, 70.40394
1022.550, 71.42747
1023.032, 71.76114
1023.514, 71.39290
1023.996, 71.12450
1024.478, 71.15002
1024.961, 71.29659
1025.443, 71.44504
1025.925, 71.61987
1026.407, 71.95378
1026.889, 71.84803
1027.371, 72.39635
1027.853, 71.57925
1028.335, 70.86539
1028.818, 70.41649
1029.300, 70.34177
1029.782, 70.83157
1030.264, 71.60872
1030.746, 71.96225
1031.228, 71.88756
1031.710, 71.30242
1032.192, 69.79749
1032.674, 69.03152
1033.156, 69.69994
1033.639, 70.75506
1034.121, 71.50381
1034.603, 71.91039
1035.085, 71.83078
1035.567, 71.10037
1036.049, 70.48162
1036.531, 69.81760
1037.013, 69.59461
1037.496, 70.25908
1037.978, 70.99950
1038.460, 71.14722
1038.942, 70.86546
1039.424, 70.64864
1039.906, 70.48560
1040.388, 70.42640
1040.870, 70.55305
1041.353, 70.66488
1041.835, 70.78439
1042.317, 70.80561
1042.799, 70.49015
1043.281, 70.02309
1043.763, 69.98191
1044.245, 70.54590
1044.727, 71.01150
1045.209, 71.39582
1045.692, 71.61924
1046.174, 71.73081
1046.656, 71.60979
1047.138, 70.86060
1047.620, 69.84251
1048.102, 69.58071
1048.584, 70.41872
1049.066, 71.00742
1049.548, 70.90941
1050.031, 70.88150
1050.513, 71.38348
1050.995, 71.85612
1051.477, 71.76932
1051.959, 71.30000
1052.441, 70.92407
1052.923, 70.69509
1053.405, 70.62000
1053.888, 70.95882
1054.370, 71.11748
1054.852, 70.63657
1055.334, 70.09652
1055.816, 70.01103
1056.298, 70.25175
1056.780, 70.49239
1057.262, 70.70319
1057.745, 70.70691
1058.227, 70.21043
1058.709, 69.81165
1059.191, 69.90232
1059.673, 70.06616
1060.155, 69.87150
1060.637, 69.48495
1061.119, 69.24631
1061.601, 69.20561
1062.083, 69.59802
1062.566, 71.07336
1063.048, 72.26540
1063.530, 72.35948
1064.012, 72.11190
1064.494, 72.14725
1064.976, 72.36517
1065.458, 72.37395
1065.940, 72.09795
1066.423, 72.11815
1066.905, 72.97434
1067.387, 73.76527
1067.869, 74.16164
1068.351, 74.24472
1068.833, 73.95238
1069.315, 73.45300
1069.797, 72.74064
1070.280, 71.90408
1070.762, 72.14680
1071.244, 75.36004
1071.726, 77.91751
1072.208, 77.50378
1072.690, 76.39898
1073.172, 76.22193
1073.654, 76.79243
1074.136, 77.66467
1074.619, 78.70443
1075.101, 79.64543
1075.583, 79.89362
1076.065, 80.84404
1076.547, 83.73565
1077.029, 87.01511
1077.511, 89.21411
1077.993, 91.15250
1078.475, 94.04881
1078.958, 98.07907
1079.440, 103.0049
1079.922, 109.5799
1080.404, 115.1739
1080.886, 117.5308
1081.368, 119.5566
1081.850, 123.7842
1082.332, 128.7056
1082.814, 132.1230
1083.297, 134.0585
1083.779, 135.9353
1084.261, 137.9753
1084.743, 140.8463
1085.225, 145.3349
1085.707, 150.2044
1086.189, 154.5957
1086.671, 158.9581
1087.154, 163.7774
1087.636, 169.1133
1088.118, 174.9234
1088.600, 181.2090
1089.082, 187.9381
1089.564, 195.1457
1090.046, 202.8308
1090.528, 212.0435
1091.010, 220.8534
1091.493, 228.4368
1091.975, 233.7427
1092.457, 235.0000
1092.939, 231.8837
1093.421, 223.8591
1093.903, 209.2280
1094.385, 191.6104
1094.867, 169.4935
1095.349, 148.0909
1095.832, 131.2454
1096.314, 118.5556
1096.796, 108.9641
1097.278, 102.2678
1097.760, 96.68298
1098.242, 91.61777
1098.724, 87.64434
1099.206, 85.30640
1099.689, 83.70402
1100.171, 82.49754
1100.653, 81.47707
1101.135, 80.43410
1101.617, 79.34192
1102.099, 78.19933
1102.581, 76.70848
1103.063, 75.68876
1103.546, 75.67186
1104.028, 75.77283
1104.510, 75.69853
1104.992, 75.37438
1105.474, 74.54207
1105.956, 73.37366
1106.438, 72.69209
1106.920, 72.92447
1107.402, 72.86752
1107.885, 72.06926
1108.367, 71.29286
1108.849, 70.87825
1109.331, 70.53977
1109.813, 69.93217
1110.295, 69.20895
1110.777, 68.84244
1111.259, 68.95603
1111.741, 69.03464
1112.224, 69.16966
1112.706, 69.08933
1113.188, 68.42015
1113.670, 67.84633
1114.152, 67.93134
1114.634, 68.35017
1115.116, 68.55632
1115.598, 68.54636
1116.081, 68.36484
1116.563, 68.03455
1117.045, 67.48415
1117.527, 66.50932
1118.009, 65.57858
1118.491, 64.68558
1118.973, 64.17347
1119.455, 64.69943
1119.938, 66.08613
1120.420, 66.63991
1120.902, 65.87607
1121.384, 65.48774
1121.866, 65.67670
1122.348, 65.89675
1122.830, 65.94263
1123.312, 66.02081
1123.794, 66.46590
1124.276, 66.97710
1124.759, 66.45572
1125.241, 64.52805
1125.723, 63.73675
1126.205, 64.26571
1126.687, 65.41613
1127.169, 67.42956
1127.651, 68.52829
1128.133, 67.22966
1128.616, 64.98996
1129.098, 64.48035
1129.580, 65.59039
1130.062, 66.46427
1130.544, 67.11021
1131.026, 67.34140
1131.508, 67.11802
1131.990, 66.54391
1132.473, 65.61536
1132.955, 64.70101
1133.437, 64.21602
1133.919, 64.12545
1134.401, 64.45152
1134.883, 65.13248
1135.365, 65.39446
1135.847, 65.20325
1136.329, 64.89032
1136.812, 64.56413
1137.294, 64.26163
1137.776, 63.96367
1138.258, 63.95357
1138.740, 65.12520
1139.222, 66.91946
1139.704, 67.30982
1140.186, 66.58439
1140.668, 66.02563
1141.151, 65.89793
1141.633, 66.15235
1142.115, 66.76943
1142.597, 67.26689
1143.079, 66.94196
1143.561, 66.30717
1144.043, 66.43125
1144.525, 66.79098
1145.008, 66.06819
1145.490, 64.58341
1145.972, 63.69851
1146.454, 63.80463
1146.936, 64.30193
1147.418, 64.92229
1147.900, 65.44759
1148.382, 65.59789
1148.865, 65.60027
1149.347, 65.74969
1149.829, 65.93232
1150.311, 65.91029
1150.793, 65.68132
1151.275, 65.40027
1151.757, 65.11268
1152.239, 64.86550
1152.721, 64.61018
1153.203, 64.49228
1153.686, 64.69765
1154.168, 65.01373
1154.650, 65.21035
1155.132, 65.34068
1155.614, 65.73723
1156.096, 66.46909
1156.578, 66.41786
1157.060, 63.92107
1157.543, 62.54964
1158.025, 64.46849
1158.507, 66.45969
1158.989, 66.43751
1159.471, 65.57034
1159.953, 65.34712
1160.435, 65.74284
1160.917, 66.07470
1161.400, 66.36936
1161.882, 66.46008
1162.364, 66.25819
1162.846, 65.98391
1163.328, 65.61404
1163.810, 65.28851
1164.292, 65.07923
1164.774, 65.00822
1165.256, 65.16139
1165.739, 65.56198
1166.221, 65.74552
1166.703, 65.62922
1167.185, 65.58632
1167.667, 65.63300
1168.149, 65.95811
1168.631, 66.81230
1169.113, 67.34547
1169.595, 66.42039
1170.078, 67.11589
1170.560, 64.79721
1171.042, 66.64700
1171.524, 66.84400
1172.006, 65.31876
1172.488, 64.42850
1172.970, 64.76295
1173.452, 65.28161
1173.934, 65.31623
1174.417, 65.13015
1174.899, 65.18460
1175.381, 65.26761
1175.863, 64.54848
1176.345, 64.59740
1176.827, 64.46877
1177.309, 63.97796
1177.791, 64.24243
1178.274, 63.68830
1178.756, 63.20538
1179.238, 63.55197
1179.720, 63.17538
1180.202, 63.73640
1180.684, 63.24852
1181.166, 63.24560
1181.648, 63.58001
1182.130, 64.02145
1182.613, 64.46483
1183.095, 64.82750
1183.577, 65.11793
1184.059, 64.96114
1184.541, 63.51950
1185.023, 62.39668
1185.505, 62.55269
1185.987, 63.30533
1186.469, 64.66677
1186.952, 65.91731
1187.434, 65.73586
1187.916, 64.11497
1188.398, 62.88755
1188.880, 62.42460
1189.362, 62.21704
1189.844, 62.57531
1190.326, 62.69778
1190.809, 61.90332
1191.291, 61.24706
1191.773, 61.69757
1192.255, 62.84522
1192.737, 63.78654
1193.219, 64.54914
1193.701, 64.72446
1194.183, 64.16843
1194.666, 63.53508
1195.148, 62.86424
1195.630, 62.29054
1196.112, 61.82597
1196.594, 61.77341
1197.076, 62.61084
1197.558, 62.06876
1198.040, 63.54011
1198.522, 62.06785
1199.005, 61.62022
1199.487, 62.17984
1199.969, 63.15723
1200.451, 64.30807
1200.933, 64.67554
1201.415, 63.71784
1201.897, 62.59126
1202.379, 62.62162
1202.861, 63.23786
1203.344, 63.72866
1203.826, 64.02798
1204.308, 63.93969
1204.790, 63.58045
1205.272, 63.15913
1205.754, 62.78276
1206.236, 62.68105
1206.718, 63.03903
1207.201, 63.41553
1207.683, 63.48677
1208.165, 63.54537
1208.647, 64.00872
1209.129, 64.37170
1209.611, 63.88748
1210.093, 62.97137
1210.575, 62.58935
1211.057, 62.88335
1211.540, 63.24147
1212.022, 63.84261
1212.504, 64.08363
1212.986, 63.77061
1213.468, 63.24431
1213.950, 62.49535
1214.432, 61.71119
1214.914, 60.90112
1215.396, 60.30738
1215.879, 60.71893
1216.361, 62.26738
1216.843, 63.03269
1217.325, 62.89640
1217.807, 62.77300
1218.289, 62.80499
1218.771, 62.79631
1219.253, 62.65344
1219.736, 62.49778
1220.218, 62.46253
1220.700, 62.48030
1221.182, 62.33825
1221.664, 62.14080
1222.146, 62.36040
1222.628, 62.82706
1223.110, 62.79428
1223.593, 62.28588
1224.075, 62.18696
1224.557, 62.87561
1225.039, 63.34587
1225.521, 62.41999
1226.003, 61.39994
1226.485, 61.71879
1226.967, 61.00768
1227.449, 61.81962
1227.932, 60.93690
1228.414, 60.88904
1228.896, 61.60600
1229.378, 61.94236
1229.860, 61.43331
1230.342, 61.28691
1230.824, 62.09333
1231.306, 62.85344
1231.788, 63.68368
1232.271, 63.89909
1232.753, 62.57040
1233.235, 60.92146
1233.717, 60.68587
1234.199, 61.60196
1234.681, 61.87255
1235.163, 61.23142
1235.645, 61.42752
1236.128, 62.77183
1236.610, 62.91322
1237.092, 61.12569
1237.574, 59.89420
1238.056, 60.75676
1238.538, 62.42982
1239.020, 63.37198
1239.502, 63.67631
1239.984, 63.32245
1240.467, 62.61420
1240.949, 62.36547
1241.431, 62.59039
1241.913, 63.38754
1242.395, 64.52451
1242.877, 64.82893
1243.359, 63.64719
1243.841, 62.32031
1244.323, 61.50149
1244.806, 61.30950
1245.288, 62.49882
1245.770, 63.72615
1246.252, 63.46783
1246.734, 62.50378
1247.216, 62.30308
1247.698, 62.86077
1248.180, 62.89306
1248.662, 61.79688
1249.145, 61.22531
1249.627, 61.41535
1250.109, 61.92213
1250.591, 62.90748
1251.073, 63.74229
1251.555, 64.04605
1252.037, 64.05635
1252.519, 64.12465
1253.002, 64.15993
1253.484, 63.59665
1253.966, 62.45907
1254.448, 61.99725
1254.930, 62.20932
1255.412, 62.26824
1255.894, 62.01755
1256.376, 61.91896
1256.859, 62.21860
1257.341, 62.70538
1257.823, 63.41586
1258.305, 63.82789
1258.787, 62.73835
1259.269, 61.32391
1259.751, 61.28231
1260.233, 62.06352
1260.715, 62.70154
1261.198, 62.95838
1261.680, 62.59051
1262.162, 61.32698
1262.644, 60.86774
1263.126, 62.84113
1263.608, 64.09315
1264.090, 62.94501
1264.572, 61.73935
1265.054, 61.84840
1265.537, 62.39390
1266.019, 62.44958
1266.501, 62.20372
1266.983, 62.33492
1267.465, 62.90826
1267.947, 63.11586
1268.429, 62.93015
1268.911, 62.70511
1269.394, 62.49549
1269.876, 62.14086
1270.358, 61.57206
1270.840, 61.04765
1271.322, 60.76650
1271.804, 60.77782
1272.286, 61.40082
1272.768, 62.19044
1273.250, 62.30320
1273.733, 62.06012
1274.215, 62.06774
1274.697, 62.29419
1275.179, 62.45755
1275.661, 62.47121
1276.143, 62.25713
1276.625, 61.56813
1277.107, 61.07549
1277.589, 61.13099
1278.072, 61.25311
1278.554, 60.95969
1279.036, 60.94844
1279.518, 62.23988
1280.000, 63.75953
1280.482, 63.47352
1280.964, 63.81657
1281.446, 63.73908
1281.929, 62.61962
1282.411, 62.72375
1282.893, 61.30887
1283.375, 60.34256
1283.857, 60.31519
1284.339, 61.03170
1284.821, 62.40902
1285.303, 63.57386
1285.786, 63.70269
1286.268, 62.77880
##END=



