##NAMES=Schreibersite
##RRUFFID=R070239
##IDEAL CHEMISTRY=(Fe,Ni,Cr)_3_P
##LOCALITY=Sao Juliao de Moreira meteorite, Ponte de Lima, Viana do Castelo district, Portugal
##OWNER=RRUFF
##SOURCE=Michael Scott
##DESCRIPTION=Silvery fragments with slightly brassy luster, co-type specimen
##STATUS=The identification of this mineral has been confirmed by X-ray diffraction.
##URL=rruff.info/R070239
141.7504, 1631.490
142.2325, 1621.095
142.7147, 1623.087
143.1968, 1651.238
143.6789, 1706.229
144.1610, 1749.304
144.6431, 1775.200
145.1252, 1795.083
145.6074, 1810.412
146.0895, 1823.300
146.5716, 1843.526
147.0537, 1882.164
147.5358, 1939.090
148.0179, 1980.586
148.5001, 1996.841
148.9822, 2005.275
149.4643, 2019.408
149.9464, 2039.718
150.4285, 2056.703
150.9106, 2062.542
151.3928, 2057.179
151.8749, 2048.667
152.3570, 2035.236
152.8391, 2020.144
153.3212, 2006.043
153.8033, 1993.153
154.2855, 1981.068
154.7676, 1971.481
155.2497, 1962.766
155.7318, 1948.076
156.2139, 1921.786
156.6960, 1891.211
157.1782, 1862.808
157.6603, 1836.289
158.1424, 1816.101
158.6245, 1810.480
159.1066, 1814.456
159.5887, 1816.571
160.0709, 1812.028
160.5530, 1804.747
161.0351, 1799.733
161.5172, 1796.844
161.9993, 1797.293
162.4814, 1806.391
162.9636, 1819.434
163.4457, 1827.459
163.9278, 1821.190
164.4099, 1809.670
164.8920, 1811.790
165.3741, 1833.189
165.8563, 1852.327
166.3384, 1852.706
166.8205, 1842.085
167.3026, 1833.094
167.7847, 1833.614
168.2668, 1838.087
168.7490, 1833.346
169.2311, 1815.454
169.7132, 1797.058
170.1953, 1783.619
170.6774, 1774.194
171.1595, 1767.909
171.6417, 1765.565
172.1238, 1765.613
172.6059, 1765.314
173.0880, 1767.717
173.5701, 1762.990
174.0522, 1738.370
174.5344, 1706.186
175.0165, 1685.968
175.4986, 1692.517
175.9807, 1713.790
176.4628, 1714.398
176.9449, 1681.005
177.4271, 1651.134
177.9092, 1638.617
178.3913, 1637.876
178.8734, 1642.469
179.3555, 1650.939
179.8376, 1661.203
180.3197, 1666.684
180.8019, 1663.973
181.2840, 1662.417
181.7661, 1667.313
182.2482, 1674.233
182.7303, 1676.755
183.2124, 1670.432
183.6946, 1659.890
184.1767, 1659.606
184.6588, 1678.275
185.1409, 1692.012
185.6230, 1689.967
186.1051, 1681.874
186.5873, 1679.595
187.0694, 1689.412
187.5515, 1705.975
188.0336, 1715.204
188.5157, 1713.823
188.9978, 1709.942
189.4800, 1701.796
189.9621, 1693.959
190.4442, 1691.920
190.9263, 1698.502
191.4084, 1709.896
191.8905, 1716.885
192.3727, 1717.575
192.8548, 1716.872
193.3369, 1714.809
193.8190, 1712.409
194.3011, 1711.494
194.7832, 1712.851
195.2654, 1713.891
195.7475, 1707.865
196.2296, 1686.821
196.7117, 1673.896
197.1938, 1676.244
197.6759, 1684.197
198.1581, 1689.486
198.6402, 1689.326
199.1223, 1686.620
199.6044, 1687.128
200.0865, 1693.998
200.5686, 1697.687
201.0508, 1695.929
201.5329, 1692.204
202.0150, 1688.617
202.4971, 1685.898
202.9792, 1684.304
203.4613, 1684.488
203.9435, 1687.620
204.4256, 1689.910
204.9077, 1693.943
205.3898, 1695.420
205.8719, 1689.377
206.3540, 1675.745
206.8362, 1660.712
207.3183, 1652.720
207.8004, 1653.977
208.2825, 1657.245
208.7646, 1669.834
209.2467, 1678.643
209.7289, 1673.344
210.2110, 1654.314
210.6931, 1631.419
211.1752, 1615.349
211.6573, 1606.419
212.1395, 1603.972
212.6216, 1614.019
213.1037, 1624.935
213.5858, 1632.419
214.0679, 1635.623
214.5500, 1634.711
215.0322, 1628.286
215.5143, 1614.297
215.9964, 1608.853
216.4785, 1621.005
216.9606, 1633.159
217.4427, 1639.565
217.9249, 1640.246
218.4070, 1637.318
218.8891, 1631.623
219.3712, 1622.951
219.8533, 1619.165
220.3354, 1625.731
220.8176, 1632.130
221.2997, 1635.653
221.7818, 1636.824
222.2639, 1637.152
222.7460, 1637.581
223.2281, 1638.127
223.7103, 1638.992
224.1924, 1642.675
224.6745, 1643.765
225.1566, 1640.760
225.6387, 1634.562
226.1208, 1625.758
226.6030, 1614.180
227.0851, 1601.475
227.5672, 1594.594
228.0493, 1595.881
228.5314, 1600.593
229.0135, 1611.296
229.4957, 1623.481
229.9778, 1632.296
230.4599, 1635.558
230.9420, 1634.344
231.4241, 1630.653
231.9062, 1620.684
232.3884, 1615.073
232.8705, 1616.734
233.3526, 1621.751
233.8347, 1627.160
234.3168, 1631.906
234.7989, 1636.150
235.2811, 1640.691
235.7632, 1647.615
236.2453, 1649.592
236.7274, 1642.464
237.2095, 1633.337
237.6916, 1626.212
238.1738, 1622.131
238.6559, 1620.478
239.1380, 1621.616
239.6201, 1627.491
240.1022, 1628.806
240.5843, 1618.268
241.0665, 1608.812
241.5486, 1607.711
242.0307, 1614.474
242.5128, 1623.130
242.9949, 1628.456
243.4770, 1630.331
243.9592, 1630.300
244.4413, 1626.469
244.9234, 1622.388
245.4055, 1618.974
245.8876, 1616.354
246.3697, 1614.367
246.8519, 1612.081
247.3340, 1610.040
247.8161, 1613.712
248.2982, 1628.964
248.7803, 1642.208
249.2624, 1649.882
249.7446, 1652.513
250.2267, 1650.617
250.7088, 1643.448
251.1909, 1633.048
251.6730, 1624.376
252.1551, 1614.839
252.6373, 1612.835
253.1194, 1628.497
253.6015, 1649.130
254.0836, 1660.223
254.5657, 1655.501
255.0478, 1643.463
255.5300, 1637.568
256.0121, 1639.399
256.4942, 1641.467
256.9763, 1640.228
257.4584, 1639.268
257.9406, 1642.592
258.4227, 1651.229
258.9048, 1659.016
259.3869, 1659.115
259.8690, 1651.237
260.3511, 1641.637
260.8333, 1625.895
261.3154, 1614.001
261.7975, 1615.367
262.2796, 1629.401
262.7617, 1643.429
263.2438, 1649.318
263.7260, 1647.709
264.2081, 1641.103
264.6902, 1625.028
265.1723, 1611.424
265.6544, 1610.355
266.1365, 1618.865
266.6187, 1627.499
267.1008, 1632.296
267.5829, 1634.119
268.0650, 1633.982
268.5471, 1630.943
269.0292, 1629.108
269.5114, 1634.570
269.9935, 1642.940
270.4756, 1646.195
270.9577, 1638.650
271.4398, 1628.112
271.9219, 1624.547
272.4041, 1628.211
272.8862, 1629.308
273.3683, 1619.673
273.8504, 1606.042
274.3325, 1601.427
274.8146, 1609.814
275.2968, 1621.088
275.7789, 1631.222
276.2610, 1639.347
276.7431, 1641.014
277.2252, 1632.453
277.7073, 1619.599
278.1895, 1611.440
278.6716, 1607.326
279.1537, 1608.569
279.6358, 1620.559
280.1179, 1637.159
280.6000, 1647.031
281.0822, 1647.139
281.5643, 1644.051
282.0464, 1647.001
282.5285, 1657.105
283.0106, 1658.744
283.4927, 1639.136
283.9749, 1617.299
284.4570, 1612.274
284.9391, 1624.741
285.4212, 1640.805
285.9033, 1650.106
286.3854, 1652.380
286.8676, 1651.893
287.3497, 1645.169
287.8318, 1639.307
288.3139, 1638.532
288.7960, 1641.490
289.2781, 1644.219
289.7603, 1644.420
290.2424, 1642.902
290.7245, 1643.086
291.2066, 1646.417
291.6887, 1649.533
292.1708, 1651.736
292.6530, 1653.526
293.1351, 1655.700
293.6172, 1658.521
294.0993, 1661.339
294.5814, 1662.960
295.0635, 1662.630
295.5457, 1662.444
296.0278, 1662.687
296.5099, 1662.863
296.9920, 1662.630
297.4741, 1661.948
297.9562, 1660.990
298.4384, 1659.957
298.9205, 1658.905
299.4026, 1657.341
299.8847, 1651.526
300.3668, 1648.917
300.8489, 1655.239
301.3310, 1666.802
301.8131, 1675.542
302.2953, 1675.714
302.7774, 1669.275
303.2595, 1666.573
303.7416, 1672.443
304.2237, 1674.813
304.7058, 1670.037
305.1880, 1661.427
305.6701, 1650.271
306.1522, 1636.734
306.6343, 1627.024
307.1164, 1635.736
307.5985, 1671.505
308.0807, 1693.266
308.5628, 1675.693
309.0449, 1654.323
309.5270, 1652.792
310.0091, 1672.075
310.4912, 1692.489
310.9734, 1697.083
311.4555, 1687.041
311.9376, 1674.167
312.4197, 1655.325
312.9018, 1639.624
313.3839, 1633.298
313.8661, 1634.113
314.3482, 1636.539
314.8303, 1638.756
315.3124, 1640.764
315.7945, 1642.551
316.2766, 1644.105
316.7588, 1645.537
317.2409, 1647.492
317.7230, 1649.104
318.2051, 1648.870
318.6872, 1646.067
319.1693, 1642.353
319.6515, 1636.273
320.1336, 1629.469
320.6157, 1630.584
321.0978, 1645.527
321.5799, 1664.950
322.0620, 1672.806
322.5442, 1667.428
323.0263, 1664.060
323.5084, 1670.958
323.9905, 1680.578
324.4726, 1681.607
324.9547, 1672.199
325.4369, 1661.837
325.9190, 1660.581
326.4011, 1669.644
326.8832, 1671.423
327.3653, 1655.471
327.8474, 1642.068
328.3296, 1645.440
328.8117, 1661.434
329.2938, 1676.670
329.7759, 1683.523
330.2580, 1683.329
330.7401, 1681.895
331.2223, 1674.179
331.7044, 1671.505
332.1865, 1681.001
332.6686, 1693.397
333.1507, 1697.768
333.6328, 1691.120
334.1150, 1679.973
334.5971, 1674.132
335.0792, 1676.237
335.5613, 1676.639
336.0434, 1676.232
336.5255, 1673.598
337.0077, 1663.863
337.4898, 1650.444
337.9719, 1643.785
338.4540, 1654.998
338.9361, 1680.841
339.4182, 1690.843
339.9004, 1670.934
340.3825, 1655.638
340.8646, 1657.552
341.3467, 1668.402
341.8288, 1677.613
342.3109, 1681.005
342.7931, 1682.604
343.2752, 1692.048
343.7573, 1712.420
344.2394, 1717.734
344.7215, 1685.821
345.2036, 1649.164
345.6858, 1634.560
346.1679, 1642.963
346.6500, 1655.694
347.1321, 1662.949
347.6142, 1665.522
348.0963, 1665.393
348.5785, 1662.487
349.0606, 1657.583
349.5427, 1648.229
350.0248, 1636.960
350.5069, 1632.004
350.9890, 1639.022
351.4712, 1649.525
351.9533, 1658.096
352.4354, 1664.557
352.9175, 1668.083
353.3996, 1667.977
353.8817, 1665.046
354.3639, 1660.622
354.8460, 1651.897
355.3281, 1647.633
355.8102, 1655.305
356.2923, 1665.985
356.7744, 1666.843
357.2566, 1655.788
357.7387, 1644.222
358.2208, 1646.260
358.7029, 1666.626
359.1850, 1673.622
359.6671, 1653.165
360.1493, 1635.343
360.6314, 1636.456
361.1135, 1650.687
361.5956, 1664.326
362.0777, 1669.595
362.5598, 1667.458
363.0420, 1660.488
363.5241, 1639.186
364.0062, 1628.951
364.4883, 1640.405
364.9704, 1658.022
365.4525, 1669.658
365.9347, 1672.433
366.4168, 1670.266
366.8989, 1664.565
367.3810, 1654.521
367.8631, 1654.898
368.3452, 1677.129
368.8274, 1696.893
369.3095, 1699.710
369.7916, 1690.804
370.2737, 1683.142
370.7558, 1684.237
371.2379, 1688.847
371.7201, 1686.633
372.2022, 1676.513
372.6843, 1670.227
373.1664, 1675.326
373.6485, 1685.656
374.1306, 1691.515
374.6128, 1691.567
375.0949, 1690.943
375.5770, 1691.674
376.0591, 1693.693
376.5412, 1698.252
377.0233, 1706.220
377.5055, 1711.668
377.9876, 1706.417
378.4697, 1688.959
378.9518, 1680.803
379.4339, 1691.536
379.9160, 1703.258
380.3982, 1706.398
380.8803, 1701.721
381.3624, 1691.598
381.8445, 1676.431
382.3266, 1659.817
382.8087, 1652.609
383.2909, 1663.918
383.7730, 1673.402
384.2551, 1678.855
384.7372, 1683.457
385.2193, 1692.081
385.7014, 1704.145
386.1836, 1712.344
386.6657, 1707.282
387.1478, 1687.955
387.6299, 1675.248
388.1120, 1674.142
388.5941, 1674.239
389.0763, 1672.609
389.5584, 1669.799
390.0405, 1666.965
390.5226, 1664.657
391.0047, 1662.279
391.4868, 1657.771
391.9690, 1650.529
392.4511, 1647.205
392.9332, 1651.035
393.4153, 1658.400
393.8974, 1666.514
394.3795, 1675.287
394.8617, 1682.560
395.3438, 1687.426
395.8259, 1690.075
396.3080, 1690.551
396.7901, 1688.794
397.2722, 1685.825
397.7544, 1682.056
398.2365, 1677.621
398.7186, 1673.317
399.2007, 1669.861
399.6828, 1665.786
400.1649, 1659.382
400.6471, 1652.260
401.1292, 1645.702
401.6113, 1640.086
402.0934, 1639.187
402.5755, 1649.924
403.0576, 1679.891
403.5398, 1697.823
404.0219, 1695.305
404.5040, 1690.499
404.9861, 1694.983
405.4682, 1705.164
405.9503, 1709.257
406.4325, 1698.628
406.9146, 1679.102
407.3967, 1673.350
407.8788, 1693.285
408.3609, 1702.285
408.8430, 1679.895
409.3252, 1653.532
409.8073, 1647.333
410.2894, 1664.037
410.7715, 1683.490
411.2536, 1686.735
411.7357, 1677.290
412.2179, 1673.274
412.7000, 1677.014
413.1821, 1683.410
413.6642, 1691.169
414.1463, 1698.950
414.6284, 1703.632
415.1106, 1704.821
415.5927, 1702.569
416.0748, 1693.479
416.5569, 1680.552
417.0390, 1673.794
417.5211, 1677.254
418.0033, 1685.827
418.4854, 1692.286
418.9675, 1696.153
419.4496, 1699.194
419.9317, 1701.776
420.4138, 1703.248
420.8960, 1702.677
421.3781, 1700.532
421.8602, 1698.415
422.3423, 1697.475
422.8244, 1697.085
423.3065, 1694.545
423.7887, 1688.882
424.2708, 1682.407
424.7529, 1671.501
425.2350, 1662.498
425.7171, 1663.026
426.1992, 1672.834
426.6814, 1682.151
427.1635, 1679.301
427.6456, 1665.763
428.1277, 1659.986
428.6098, 1664.720
429.0919, 1672.052
429.5741, 1681.217
430.0562, 1689.469
430.5383, 1691.884
431.0204, 1685.595
431.5025, 1676.973
431.9846, 1668.090
432.4668, 1660.705
432.9489, 1663.459
433.4310, 1681.177
433.9131, 1700.586
434.3952, 1704.941
434.8773, 1692.405
435.3595, 1682.964
435.8416, 1677.486
436.3237, 1675.540
436.8058, 1678.297
437.2879, 1684.368
437.7701, 1691.293
438.2522, 1698.053
438.7343, 1703.254
439.2164, 1702.789
439.6985, 1690.285
440.1806, 1683.581
440.6628, 1691.487
441.1449, 1697.629
441.6270, 1686.515
442.1091, 1662.268
442.5912, 1643.800
443.0733, 1647.528
443.5555, 1667.340
444.0376, 1679.184
444.5197, 1680.313
445.0018, 1681.199
445.4839, 1688.226
445.9660, 1695.686
446.4482, 1697.719
446.9303, 1693.248
447.4124, 1686.160
447.8945, 1675.795
448.3766, 1665.073
448.8587, 1662.138
449.3409, 1668.703
449.8230, 1673.467
450.3051, 1665.277
450.7872, 1646.396
451.2693, 1639.373
451.7514, 1656.531
452.2336, 1670.260
452.7157, 1665.078
453.1978, 1653.342
453.6799, 1655.843
454.1620, 1677.464
454.6441, 1700.700
455.1263, 1700.843
455.6084, 1671.515
456.0905, 1655.305
456.5726, 1665.227
457.0547, 1675.639
457.5368, 1679.547
458.0190, 1678.703
458.5011, 1675.318
458.9832, 1669.303
459.4653, 1666.063
459.9474, 1677.587
460.4295, 1704.205
460.9117, 1719.465
461.3938, 1714.177
461.8759, 1701.559
462.3580, 1691.259
462.8401, 1683.380
463.3222, 1679.159
463.8044, 1682.521
464.2865, 1686.840
464.7686, 1684.107
465.2507, 1676.620
465.7328, 1675.198
466.2149, 1685.822
466.6971, 1700.325
467.1792, 1702.229
467.6613, 1682.060
468.1434, 1668.943
468.6255, 1664.445
469.1076, 1665.425
469.5898, 1673.703
470.0719, 1686.022
470.5540, 1694.864
471.0361, 1695.341
471.5182, 1689.673
472.0003, 1684.048
472.4825, 1678.470
472.9646, 1673.024
473.4467, 1666.389
473.9288, 1660.939
474.4109, 1658.186
474.8930, 1658.222
475.3752, 1660.433
475.8573, 1667.081
476.3394, 1674.647
476.8215, 1677.029
477.3036, 1674.056
477.7857, 1667.656
478.2679, 1656.131
478.7500, 1643.970
479.2321, 1643.005
479.7142, 1656.858
480.1963, 1670.647
480.6784, 1684.168
481.1606, 1694.668
481.6427, 1699.104
482.1248, 1697.717
482.6069, 1692.322
483.0890, 1683.234
483.5711, 1672.403
484.0533, 1671.466
484.5354, 1691.822
485.0175, 1703.150
485.4996, 1694.910
485.9817, 1681.512
486.4638, 1674.748
486.9460, 1675.544
487.4281, 1676.558
487.9102, 1671.849
488.3923, 1662.956
488.8744, 1652.634
489.3565, 1639.467
489.8387, 1633.642
490.3208, 1643.439
490.8029, 1662.584
491.2850, 1678.255
491.7671, 1691.752
492.2492, 1698.368
492.7314, 1691.896
493.2135, 1680.207
493.6956, 1671.609
494.1777, 1667.110
494.6598, 1664.076
495.1419, 1660.333
495.6241, 1656.476
496.1062, 1656.478
496.5883, 1665.957
497.0704, 1671.352
497.5525, 1668.714
498.0346, 1663.494
498.5168, 1659.731
498.9989, 1658.102
499.4810, 1657.452
499.9631, 1655.823
500.4452, 1654.444
500.9273, 1659.327
501.4095, 1672.449
501.8916, 1683.458
502.3737, 1687.015
502.8558, 1686.255
503.3379, 1685.808
503.8200, 1685.282
504.3022, 1687.090
504.7843, 1698.416
505.2664, 1708.952
505.7485, 1701.289
506.2306, 1677.554
506.7127, 1661.148
507.1949, 1669.289
507.6770, 1694.874
508.1591, 1706.573
508.6412, 1690.929
509.1233, 1680.740
509.6054, 1680.445
510.0876, 1683.865
510.5697, 1686.986
511.0518, 1689.410
511.5339, 1692.806
512.0161, 1700.031
512.4982, 1708.027
512.9803, 1706.783
513.4624, 1694.418
513.9445, 1684.129
514.4266, 1679.993
514.9088, 1680.768
515.3909, 1686.155
515.8730, 1696.861
516.3551, 1703.240
516.8372, 1701.139
517.3193, 1694.395
517.8015, 1684.654
518.2836, 1673.164
518.7657, 1662.531
519.2478, 1653.842
519.7299, 1648.406
520.2120, 1650.364
520.6942, 1669.880
521.1763, 1677.058
521.6584, 1660.604
522.1405, 1643.884
522.6226, 1640.681
523.1047, 1647.644
523.5869, 1653.092
524.0690, 1649.154
524.5511, 1644.522
525.0332, 1658.803
525.5153, 1691.786
525.9974, 1708.546
526.4796, 1695.234
526.9617, 1672.258
527.4438, 1659.018
527.9259, 1654.641
528.4080, 1655.905
528.8901, 1668.973
529.3723, 1681.068
529.8544, 1683.469
530.3365, 1679.672
530.8186, 1676.805
531.3007, 1677.283
531.7828, 1678.383
532.2650, 1676.039
532.7471, 1669.354
533.2292, 1664.772
533.7113, 1663.847
534.1934, 1663.319
534.6755, 1660.786
535.1577, 1658.595
535.6398, 1661.396
536.1219, 1671.246
536.6040, 1679.255
537.0861, 1671.866
537.5682, 1655.784
538.0504, 1656.133
538.5325, 1678.127
539.0146, 1698.762
539.4967, 1701.237
539.9788, 1688.808
540.4609, 1678.229
540.9431, 1666.170
541.4252, 1660.072
541.9073, 1666.663
542.3894, 1676.497
542.8715, 1678.773
543.3536, 1673.938
543.8358, 1672.319
544.3179, 1683.722
544.8000, 1703.442
545.2821, 1708.765
545.7642, 1691.872
546.2463, 1682.101
546.7285, 1694.901
547.2106, 1711.647
547.6926, 1719.940
548.1747, 1719.148
548.6569, 1711.017
549.1390, 1686.420
549.6211, 1661.811
550.1032, 1657.151
550.5853, 1669.321
551.0674, 1685.140
551.5496, 1700.459
552.0317, 1711.920
552.5138, 1713.909
552.9959, 1704.198
553.4780, 1692.156
553.9601, 1670.919
554.4423, 1654.927
554.9244, 1651.388
555.4065, 1656.465
555.8886, 1664.646
556.3707, 1674.036
556.8528, 1683.313
557.3350, 1692.314
557.8171, 1700.441
558.2992, 1702.037
558.7813, 1695.157
559.2634, 1686.057
559.7455, 1676.654
560.2277, 1668.554
560.7098, 1666.198
561.1919, 1671.982
561.6740, 1679.333
562.1561, 1689.932
562.6382, 1698.814
563.1204, 1698.624
563.6025, 1690.353
564.0846, 1682.766
564.5667, 1682.472
565.0488, 1687.360
565.5309, 1688.952
566.0131, 1685.850
566.4952, 1682.989
566.9773, 1682.653
567.4594, 1681.579
567.9415, 1676.528
568.4236, 1668.500
568.9058, 1662.339
569.3879, 1660.875
569.8700, 1661.427
570.3521, 1663.117
570.8342, 1664.736
571.3163, 1660.519
571.7985, 1648.070
572.2806, 1635.861
572.7627, 1634.930
573.2448, 1647.014
573.7269, 1653.897
574.2090, 1649.774
574.6912, 1647.735
575.1733, 1653.544
575.6554, 1661.817
576.1375, 1667.046
576.6196, 1667.823
577.1017, 1665.115
577.5839, 1656.080
578.0660, 1644.299
578.5481, 1643.564
579.0302, 1655.325
579.5123, 1667.399
579.9944, 1676.214
580.4766, 1680.370
580.9587, 1674.237
581.4408, 1653.246
581.9229, 1642.391
582.4050, 1652.722
582.8871, 1667.379
583.3693, 1677.088
583.8514, 1681.932
584.3335, 1684.323
584.8156, 1685.307
585.2977, 1684.724
585.7798, 1682.199
586.2620, 1677.660
586.7441, 1671.246
587.2262, 1658.747
587.7083, 1651.307
588.1904, 1660.004
588.6725, 1676.639
589.1547, 1688.111
589.6368, 1691.961
590.1189, 1692.634
590.6010, 1692.530
591.0831, 1690.310
591.5652, 1682.670
592.0474, 1670.485
592.5295, 1659.014
593.0116, 1651.483
593.4937, 1648.015
593.9758, 1649.832
594.4579, 1661.254
594.9401, 1667.653
595.4222, 1661.317
595.9043, 1655.591
596.3864, 1656.773
596.8685, 1663.915
597.3506, 1674.716
597.8328, 1691.808
598.3149, 1705.391
598.7970, 1703.849
599.2791, 1692.140
599.7612, 1682.303
600.2433, 1676.615
600.7255, 1674.471
601.2076, 1676.181
601.6897, 1680.916
602.1718, 1681.813
602.6539, 1670.674
603.1360, 1667.096
603.6182, 1681.282
604.1003, 1696.536
604.5824, 1698.129
605.0645, 1688.279
605.5466, 1681.203
606.0287, 1687.107
606.5109, 1697.380
606.9930, 1698.435
607.4751, 1691.382
607.9572, 1684.725
608.4393, 1680.209
608.9214, 1678.167
609.4036, 1680.651
609.8857, 1687.658
610.3678, 1685.466
610.8499, 1659.618
611.3320, 1643.749
611.8141, 1655.880
612.2963, 1675.250
612.7784, 1680.362
613.2605, 1669.612
613.7426, 1655.279
614.2247, 1643.447
614.7068, 1637.229
615.1890, 1649.102
615.6711, 1680.278
616.1532, 1701.273
616.6353, 1700.404
617.1174, 1692.097
617.5995, 1694.040
618.0817, 1706.489
618.5638, 1708.233
619.0459, 1691.283
619.5280, 1671.831
620.0101, 1649.738
620.4922, 1631.815
620.9744, 1627.460
621.4565, 1637.481
621.9386, 1654.188
622.4207, 1673.723
622.9028, 1693.132
623.3849, 1699.053
623.8671, 1689.427
624.3492, 1677.892
624.8313, 1666.564
625.3134, 1657.279
625.7955, 1653.368
626.2776, 1654.470
626.7598, 1654.880
627.2419, 1647.512
627.7240, 1646.097
628.2061, 1665.263
628.6882, 1691.674
629.1703, 1704.839
629.6525, 1700.720
630.1346, 1691.061
630.6167, 1687.435
631.0988, 1688.109
631.5809, 1681.140
632.0630, 1662.186
632.5452, 1653.124
633.0273, 1667.175
633.5094, 1687.609
633.9915, 1695.401
634.4736, 1691.244
634.9557, 1687.500
635.4379, 1692.571
635.9200, 1682.047
636.4021, 1693.787
636.8842, 1699.165
637.3663, 1698.532
637.8484, 1673.312
638.3306, 1680.276
638.8127, 1674.609
639.2948, 1668.607
639.7769, 1680.646
640.2590, 1659.982
640.7411, 1672.118
641.2233, 1671.428
641.7054, 1676.885
642.1875, 1669.633
642.6696, 1666.555
643.1517, 1676.573
643.6339, 1679.636
644.1160, 1671.660
644.5981, 1678.639
645.0802, 1659.429
645.5623, 1663.558
646.0444, 1677.864
646.5266, 1671.489
647.0087, 1679.656
647.4908, 1682.548
647.9729, 1660.790
648.4550, 1682.422
648.9371, 1678.086
649.4193, 1678.070
649.9014, 1670.874
650.3835, 1650.333
650.8656, 1620.013
651.3477, 1606.343
651.8298, 1625.104
652.3120, 1648.428
652.7941, 1668.641
653.2762, 1683.061
653.7583, 1685.103
654.2404, 1675.988
654.7225, 1667.725
655.2047, 1671.027
655.6868, 1681.204
656.1689, 1681.734
656.6510, 1670.766
657.1331, 1661.419
657.6152, 1656.142
658.0974, 1653.674
658.5795, 1656.390
659.0616, 1661.951
659.5437, 1659.068
660.0258, 1635.188
660.5079, 1617.079
660.9901, 1615.233
661.4722, 1622.746
661.9543, 1636.520
662.4364, 1653.027
662.9185, 1663.469
663.4006, 1660.773
663.8828, 1651.965
664.3649, 1653.862
664.8470, 1666.966
665.3291, 1673.573
665.8112, 1668.860
666.2933, 1662.265
666.7755, 1659.970
667.2576, 1661.599
667.7397, 1665.169
668.2218, 1675.959
668.7039, 1680.140
669.1860, 1666.454
669.6682, 1652.245
670.1503, 1653.551
670.6324, 1666.407
671.1145, 1676.885
671.5966, 1678.177
672.0787, 1673.960
672.5609, 1664.591
673.0430, 1652.498
673.5251, 1659.866
674.0072, 1693.354
674.4893, 1718.690
674.9714, 1712.426
675.4536, 1686.688
675.9357, 1673.143
676.4178, 1679.107
676.8999, 1681.229
677.3820, 1676.898
677.8641, 1670.667
678.3463, 1662.248
678.8284, 1654.476
679.3105, 1652.617
679.7926, 1658.333
680.2747, 1664.557
680.7568, 1662.992
681.2390, 1657.398
681.7211, 1657.764
682.2032, 1664.107
682.6853, 1669.235
683.1674, 1670.261
683.6495, 1667.803
684.1317, 1662.068
684.6138, 1651.546
685.0959, 1645.869
685.5780, 1649.779
686.0601, 1652.828
686.5422, 1654.640
687.0244, 1653.076
687.5065, 1641.421
687.9886, 1620.909
688.4707, 1610.184
688.9528, 1628.484
689.4349, 1655.315
689.9171, 1669.938
690.3992, 1673.605
690.8813, 1668.131
691.3634, 1654.331
691.8455, 1640.245
692.3276, 1633.737
692.8098, 1634.373
693.2919, 1639.431
693.7740, 1653.320
694.2561, 1661.716
694.7382, 1653.627
695.2203, 1646.845
695.7025, 1658.888
696.1846, 1683.425
696.6667, 1695.665
697.1488, 1680.585
697.6309, 1665.374
698.1130, 1666.023
698.5952, 1673.848
699.0773, 1682.079
699.5594, 1687.232
700.0415, 1680.519
700.5236, 1655.035
701.0057, 1622.391
701.4879, 1607.333
701.9700, 1610.620
702.4521, 1614.731
702.9342, 1618.056
703.4163, 1622.510
703.8984, 1630.660
704.3806, 1640.127
704.8627, 1644.200
705.3448, 1638.296
705.8269, 1640.432
706.3090, 1668.297
706.7911, 1689.685
707.2733, 1676.154
707.7554, 1645.900
708.2375, 1631.388
708.7196, 1642.083
709.2017, 1659.802
709.6838, 1669.853
710.1660, 1673.227
710.6481, 1669.636
711.1302, 1659.773
711.6123, 1655.686
712.0944, 1662.443
712.5765, 1673.286
713.0587, 1680.306
713.5408, 1683.438
714.0229, 1684.111
714.5050, 1682.901
714.9871, 1678.257
715.4692, 1665.857
715.9514, 1653.195
716.4335, 1645.604
716.9156, 1643.359
717.3977, 1645.238
717.8798, 1654.079
718.3619, 1662.094
718.8441, 1663.033
719.3262, 1658.965
719.8083, 1650.600
720.2904, 1639.775
720.7725, 1635.195
721.2546, 1643.527
721.7368, 1658.531
722.2189, 1664.511
722.7010, 1659.854
723.1831, 1657.755
723.6652, 1661.490
724.1473, 1663.166
724.6295, 1655.588
725.1116, 1644.083
725.5937, 1641.351
726.0758, 1653.067
726.5579, 1653.669
727.0400, 1620.643
727.5222, 1593.395
728.0043, 1602.914
728.4864, 1631.298
728.9685, 1648.532
729.4506, 1646.671
729.9327, 1638.967
730.4149, 1637.196
730.8970, 1638.138
731.3791, 1632.583
731.8612, 1621.646
732.3433, 1617.245
732.8254, 1623.775
733.3076, 1630.953
733.7897, 1626.334
734.2718, 1611.829
734.7539, 1613.643
735.2360, 1650.183
735.7181, 1672.153
736.2003, 1663.660
736.6824, 1649.257
737.1645, 1644.613
737.6466, 1646.308
738.1287, 1642.317
738.6108, 1625.733
739.0930, 1612.098
739.5751, 1614.037
740.0572, 1620.989
740.5393, 1618.839
741.0214, 1609.984
741.5035, 1606.418
741.9857, 1613.811
742.4678, 1626.086
742.9499, 1636.414
743.4320, 1644.500
743.9141, 1646.039
744.3962, 1640.269
744.8784, 1630.837
745.3605, 1615.607
745.8426, 1602.711
746.3247, 1605.507
746.8068, 1626.785
747.2889, 1637.370
747.7711, 1627.234
748.2532, 1620.131
748.7353, 1625.388
749.2174, 1633.222
749.6995, 1633.277
750.1816, 1626.971
750.6638, 1624.170
751.1459, 1630.566
751.6280, 1640.098
752.1101, 1650.090
752.5922, 1658.226
753.0743, 1658.455
753.5565, 1651.249
754.0386, 1644.317
754.5207, 1642.385
755.0028, 1641.914
755.4849, 1635.571
755.9670, 1622.674
756.4492, 1608.706
756.9313, 1589.084
757.4134, 1580.939
757.8955, 1599.977
758.3776, 1628.383
758.8597, 1637.833
759.3419, 1626.748
759.8240, 1617.471
760.3061, 1610.208
760.7882, 1606.890
761.2703, 1610.902
761.7524, 1617.473
762.2346, 1622.609
762.7167, 1625.313
763.1988, 1625.160
763.6809, 1621.247
764.1630, 1615.567
764.6451, 1608.931
765.1273, 1602.572
765.6094, 1599.889
766.0915, 1601.137
766.5736, 1603.415
767.0557, 1604.706
767.5378, 1607.009
768.0200, 1617.695
768.5021, 1641.024
768.9842, 1643.923
769.4663, 1612.152
769.9484, 1589.898
770.4305, 1606.134
770.9127, 1635.653
771.3948, 1640.170
771.8769, 1617.631
772.3590, 1600.054
772.8411, 1590.518
773.3232, 1587.242
773.8054, 1594.571
774.2875, 1604.493
774.7696, 1608.322
775.2517, 1606.024
775.7338, 1603.541
776.2159, 1604.779
776.6981, 1605.768
777.1802, 1598.731
777.6623, 1588.850
778.1444, 1590.158
778.6265, 1602.844
779.1086, 1615.419
779.5908, 1621.844
780.0729, 1621.476
780.5550, 1609.697
781.0371, 1583.928
781.5192, 1574.972
782.0013, 1590.263
782.4835, 1602.212
782.9656, 1596.791
783.4477, 1586.406
783.9298, 1588.690
784.4119, 1604.049
784.8940, 1612.471
785.3762, 1603.670
785.8583, 1600.073
786.3404, 1617.745
786.8225, 1635.135
787.3046, 1628.659
787.7867, 1604.554
788.2689, 1588.893
788.7510, 1594.492
789.2331, 1604.929
789.7152, 1609.058
790.1973, 1607.633
790.6794, 1597.894
791.1616, 1583.080
791.6437, 1576.061
792.1258, 1582.350
792.6079, 1594.845
793.0900, 1605.009
793.5721, 1612.801
794.0543, 1617.276
794.5364, 1617.908
795.0185, 1618.727
795.5006, 1621.217
795.9827, 1623.589
796.4648, 1624.378
796.9470, 1623.545
797.4291, 1620.660
797.9112, 1616.331
798.3933, 1608.984
798.8754, 1589.397
799.3575, 1575.842
799.8397, 1583.997
800.3218, 1604.241
800.8039, 1618.253
801.2860, 1621.508
801.7681, 1620.803
802.2502, 1618.715
802.7324, 1614.861
803.2145, 1607.238
803.6966, 1598.111
804.1787, 1590.273
804.6608, 1585.162
805.1429, 1586.615
805.6251, 1601.690
806.1072, 1620.245
806.5893, 1615.724
807.0714, 1592.105
807.5535, 1580.347
808.0356, 1586.091
808.5178, 1598.376
808.9999, 1611.894
809.4820, 1622.980
809.9641, 1621.204
810.4462, 1602.126
810.9283, 1585.989
811.4105, 1570.336
811.8926, 1561.634
812.3747, 1568.544
812.8568, 1579.689
813.3389, 1581.186
813.8210, 1572.962
814.3032, 1567.024
814.7853, 1567.677
815.2674, 1567.615
815.7495, 1560.542
816.2316, 1554.641
816.7137, 1560.040
817.1959, 1573.415
817.6780, 1582.758
818.1601, 1582.485
818.6422, 1579.812
819.1243, 1580.052
819.6064, 1582.322
820.0886, 1586.923
820.5707, 1592.394
821.0528, 1592.931
821.5349, 1586.752
822.0170, 1580.836
822.4991, 1583.889
822.9813, 1593.048
823.4634, 1595.554
823.9455, 1591.086
824.4276, 1586.541
824.9097, 1582.918
825.3918, 1580.991
825.8740, 1581.118
826.3561, 1583.575
826.8382, 1590.187
827.3203, 1608.586
827.8024, 1613.300
828.2845, 1591.091
828.7667, 1571.371
829.2488, 1563.705
829.7309, 1564.688
830.2130, 1574.384
830.6951, 1592.413
831.1772, 1599.956
831.6594, 1579.707
832.1415, 1563.778
832.6236, 1572.070
833.1057, 1587.001
833.5878, 1590.135
834.0699, 1582.815
834.5521, 1576.771
835.0342, 1577.470
835.5163, 1579.273
835.9984, 1573.467
836.4805, 1567.237
836.9626, 1577.300
837.4448, 1598.375
837.9269, 1608.194
838.4090, 1599.594
838.8911, 1584.729
839.3732, 1575.760
839.8553, 1571.311
840.3375, 1565.604
840.8196, 1558.541
841.3017, 1556.270
841.7838, 1561.053
842.2659, 1563.918
842.7480, 1556.126
843.2302, 1545.816
843.7123, 1556.155
844.1944, 1600.671
844.6765, 1619.570
845.1586, 1592.595
845.6407, 1570.215
846.1229, 1576.758
846.6050, 1590.443
847.0871, 1587.083
847.5692, 1568.421
848.0513, 1560.296
848.5334, 1580.178
849.0156, 1592.045
849.4977, 1577.154
849.9798, 1558.673
850.4619, 1554.737
850.9440, 1561.557
851.4261, 1568.932
851.9083, 1574.057
852.3904, 1575.071
852.8725, 1565.552
853.3546, 1555.721
853.8367, 1559.724
854.3188, 1570.787
854.8010, 1572.479
855.2831, 1563.286
855.7652, 1557.900
856.2473, 1568.560
856.7294, 1584.759
857.2115, 1588.404
857.6937, 1581.317
858.1758, 1568.381
858.6579, 1550.661
859.1400, 1541.422
859.6221, 1547.390
860.1042, 1560.604
860.5864, 1570.949
861.0685, 1578.235
861.5506, 1576.619
862.0327, 1561.151
862.5148, 1557.505
862.9969, 1577.433
863.4791, 1598.827
863.9612, 1605.865
864.4433, 1600.235
864.9254, 1587.007
865.4075, 1554.657
865.8896, 1538.837
866.3718, 1548.950
866.8539, 1563.551
867.3360, 1582.093
867.8181, 1596.886
868.3002, 1595.771
868.7823, 1579.690
869.2645, 1570.101
869.7466, 1579.132
870.2287, 1586.977
870.7108, 1586.911
871.1929, 1581.753
871.6750, 1569.563
872.1572, 1555.338
872.6393, 1549.772
873.1214, 1556.660
873.6035, 1566.416
874.0856, 1572.500
874.5677, 1577.531
875.0499, 1587.608
875.5320, 1598.047
876.0141, 1595.330
876.4962, 1579.938
876.9783, 1570.854
877.4604, 1582.622
877.9426, 1600.298
878.4247, 1596.702
878.9068, 1578.427
879.3889, 1571.366
879.8710, 1576.366
880.3531, 1581.039
880.8353, 1580.613
881.3174, 1573.956
881.7995, 1556.763
882.2816, 1533.247
882.7637, 1534.746
883.2458, 1566.536
883.7280, 1581.745
884.2101, 1567.598
884.6922, 1553.534
885.1743, 1560.405
885.6564, 1577.488
886.1385, 1580.696
886.6207, 1565.883
887.1028, 1555.853
887.5849, 1552.151
888.0670, 1550.882
888.5491, 1555.013
889.0313, 1557.681
889.5134, 1549.447
889.9955, 1533.965
890.4776, 1528.210
890.9597, 1539.744
891.4418, 1549.382
891.9240, 1558.415
892.4061, 1560.747
892.8882, 1544.461
893.3703, 1524.228
893.8524, 1522.489
894.3345, 1540.635
894.8167, 1555.157
895.2988, 1557.584
895.7809, 1552.890
896.2630, 1538.103
896.7451, 1521.795
897.2272, 1511.308
897.7094, 1507.472
898.1915, 1509.867
898.6736, 1518.350
899.1557, 1530.798
899.6378, 1552.724
900.1199, 1571.898
900.6021, 1567.778
901.0842, 1550.763
901.5663, 1543.544
902.0484, 1548.998
902.5305, 1556.526
903.0126, 1559.987
903.4948, 1559.393
903.9769, 1550.474
904.4590, 1538.109
904.9411, 1541.834
905.4232, 1559.426
905.9053, 1567.642
906.3875, 1550.296
906.8696, 1560.622
907.3517, 1565.908
907.8338, 1566.423
908.3159, 1547.879
908.7980, 1553.945
909.2802, 1550.149
909.7623, 1545.948
910.2444, 1555.478
910.7265, 1539.706
911.2086, 1549.019
911.6907, 1548.318
912.1729, 1552.200
912.6550, 1546.159
913.1371, 1543.182
913.6192, 1550.133
914.1013, 1551.587
914.5834, 1544.403
915.0656, 1548.576
915.5477, 1532.458
916.0298, 1534.146
916.5119, 1543.516
916.9940, 1536.831
917.4761, 1541.186
917.9583, 1541.336
918.4404, 1546.329
918.9225, 1562.217
919.4046, 1567.876
919.8867, 1565.728
920.3688, 1565.620
920.8510, 1572.603
921.3331, 1572.003
921.8152, 1552.558
922.2973, 1535.691
922.7794, 1534.168
923.2615, 1538.644
923.7437, 1538.094
924.2258, 1532.094
924.7079, 1526.503
925.1900, 1519.827
925.6721, 1519.182
926.1542, 1536.101
926.6364, 1552.098
927.1185, 1548.773
927.6006, 1535.246
928.0827, 1530.255
928.5648, 1536.963
929.0469, 1539.503
929.5291, 1519.716
930.0112, 1503.337
930.4933, 1519.104
930.9754, 1542.903
931.4575, 1539.164
931.9396, 1516.172
932.4218, 1508.396
932.9039, 1527.974
933.3860, 1547.534
933.8681, 1540.989
934.3502, 1523.221
934.8323, 1508.556
935.3145, 1499.085
935.7966, 1503.234
936.2787, 1518.147
936.7608, 1525.428
937.2429, 1514.681
937.7250, 1503.211
938.2072, 1517.607
938.6893, 1544.793
939.1714, 1552.658
939.6535, 1545.556
940.1356, 1543.933
940.6177, 1551.734
941.0999, 1556.861
941.5820, 1549.909
942.0641, 1540.113
942.5462, 1547.135
943.0283, 1566.658
943.5104, 1574.737
943.9926, 1571.344
944.4747, 1571.816
944.9568, 1581.112
945.4389, 1584.341
945.9210, 1565.994
946.4031, 1536.698
946.8853, 1528.902
947.3674, 1542.447
947.8495, 1543.344
948.3316, 1527.460
948.8137, 1525.251
949.2958, 1551.797
949.7780, 1578.953
950.2601, 1573.143
950.7422, 1542.045
951.2243, 1527.449
951.7064, 1532.179
952.1885, 1535.289
952.6707, 1534.700
953.1528, 1532.932
953.6349, 1530.955
954.1170, 1528.694
954.5991, 1525.591
955.0812, 1521.843
955.5634, 1522.391
956.0455, 1531.086
956.5276, 1530.816
957.0097, 1512.008
957.4918, 1499.985
957.9739, 1511.359
958.4561, 1534.587
958.9382, 1553.307
959.4203, 1568.457
959.9024, 1564.916
960.3845, 1527.370
960.8666, 1501.764
961.3488, 1496.596
961.8309, 1502.656
962.3130, 1521.444
962.7951, 1544.169
963.2772, 1552.589
963.7593, 1543.390
964.2415, 1537.635
964.7236, 1540.067
965.2057, 1539.038
965.6878, 1527.043
966.1699, 1516.398
966.6520, 1514.677
967.1342, 1520.120
967.6163, 1531.017
968.0984, 1552.267
968.5805, 1558.926
969.0626, 1537.223
969.5447, 1517.689
970.0269, 1511.032
970.5090, 1506.490
970.9911, 1486.984
971.4732, 1464.162
971.9553, 1473.176
972.4374, 1531.152
972.9196, 1570.955
973.4017, 1580.863
973.8838, 1574.838
974.3659, 1541.800
974.8480, 1508.226
975.3301, 1498.042
975.8123, 1506.930
976.2944, 1518.768
976.7765, 1532.772
977.2586, 1543.720
977.7407, 1553.032
978.2228, 1555.848
978.7050, 1542.548
979.1871, 1527.502
979.6692, 1527.148
980.1513, 1537.870
980.6334, 1543.172
981.1155, 1537.922
981.5977, 1532.182
982.0798, 1528.090
982.5619, 1525.221
983.0440, 1523.648
983.5261, 1522.926
984.0082, 1520.540
984.4904, 1518.407
984.9725, 1525.082
985.4546, 1548.635
985.9367, 1563.659
986.4188, 1553.571
986.9009, 1540.842
987.3831, 1538.004
987.8652, 1540.268
988.3473, 1541.542
988.8294, 1541.762
989.3115, 1544.798
989.7936, 1554.308
990.2758, 1559.281
990.7579, 1553.670
991.2400, 1543.712
991.7221, 1528.469
992.2042, 1514.489
992.6863, 1509.361
993.1685, 1512.917
993.6506, 1520.668
994.1327, 1533.496
994.6148, 1543.343
995.0969, 1543.436
995.5790, 1542.757
996.0612, 1552.034
996.5433, 1561.172
997.0254, 1553.612
997.5075, 1532.327
997.9896, 1517.747
998.4717, 1518.146
998.9539, 1521.984
999.4360, 1526.667
999.9181, 1530.027
1000.400, 1531.714
1000.882, 1530.399
1001.364, 1520.488
1001.847, 1505.458
1002.329, 1501.481
1002.811, 1519.611
1003.293, 1531.962
1003.775, 1517.640
1004.257, 1501.539
1004.739, 1499.251
1005.221, 1506.351
1005.703, 1522.682
1006.186, 1542.354
1006.668, 1546.136
1007.150, 1522.043
1007.632, 1500.347
1008.114, 1497.578
1008.596, 1498.736
1009.078, 1491.804
1009.560, 1484.768
1010.043, 1492.416
1010.525, 1510.047
1011.007, 1514.606
1011.489, 1493.977
1011.971, 1478.866
1012.453, 1487.552
1012.935, 1499.867
1013.417, 1503.845
1013.899, 1504.522
1014.382, 1508.814
1014.864, 1515.607
1015.346, 1518.180
1015.828, 1513.022
1016.310, 1510.852
1016.792, 1520.188
1017.274, 1528.375
1017.756, 1525.228
1018.239, 1520.075
1018.721, 1524.279
1019.203, 1535.033
1019.685, 1541.818
1020.167, 1542.243
1020.649, 1538.498
1021.131, 1525.587
1021.613, 1515.735
1022.095, 1517.426
1022.578, 1522.275
1023.060, 1523.601
1023.542, 1521.320
1024.024, 1515.416
1024.506, 1504.159
1024.988, 1500.803
1025.470, 1518.908
1025.952, 1532.243
1026.435, 1528.594
1026.917, 1518.583
1027.399, 1507.447
1027.881, 1497.698
1028.363, 1494.251
1028.845, 1498.856
1029.327, 1499.973
1029.809, 1486.646
1030.292, 1481.885
1030.774, 1503.061
1031.256, 1523.514
1031.738, 1521.535
1032.220, 1507.725
1032.702, 1501.751
1033.184, 1505.515
1033.666, 1510.050
1034.148, 1521.505
1034.630, 1523.345
1035.113, 1503.082
1035.595, 1483.199
1036.077, 1474.330
1036.559, 1474.417
1037.041, 1482.854
1037.523, 1499.970
1038.005, 1510.797
1038.487, 1512.989
1038.970, 1512.420
1039.452, 1505.201
1039.934, 1500.847
1040.416, 1506.497
1040.898, 1514.611
1041.380, 1515.823
1041.862, 1510.797
1042.344, 1506.723
1042.826, 1502.429
1043.309, 1502.067
1043.791, 1509.024
1044.273, 1513.975
1044.755, 1514.109
1045.237, 1509.467
1045.719, 1496.094
1046.201, 1478.943
1046.683, 1483.911
1047.166, 1525.412
1047.648, 1537.066
1048.130, 1505.526
1048.612, 1482.928
1049.094, 1487.256
1049.576, 1499.097
1050.058, 1502.657
1050.540, 1500.925
1051.022, 1501.372
1051.505, 1503.722
1051.987, 1512.689
1052.469, 1530.442
1052.951, 1540.718
1053.433, 1539.410
1053.915, 1530.634
1054.397, 1515.490
1054.879, 1499.787
1055.361, 1494.705
1055.844, 1499.350
1056.326, 1503.576
1056.808, 1507.404
1057.290, 1507.935
1057.772, 1504.591
1058.254, 1506.590
1058.736, 1519.172
1059.218, 1534.573
1059.701, 1543.066
1060.183, 1545.626
1060.665, 1545.889
1061.147, 1543.340
1061.629, 1531.995
1062.111, 1513.150
1062.593, 1502.478
1063.075, 1505.809
1063.557, 1513.572
1064.040, 1517.810
1064.522, 1518.161
1065.004, 1511.333
1065.486, 1500.998
1065.968, 1494.209
1066.450, 1492.567
1066.932, 1502.513
1067.414, 1523.124
1067.896, 1536.309
1068.379, 1527.903
1068.861, 1513.938
1069.343, 1514.961
1069.825, 1519.808
1070.307, 1510.064
1070.789, 1493.004
1071.271, 1484.858
1071.753, 1486.528
1072.236, 1487.741
1072.718, 1483.625
1073.200, 1480.208
1073.682, 1479.041
1074.164, 1483.406
1074.646, 1507.875
1075.128, 1530.874
1075.610, 1518.896
1076.093, 1483.431
1076.575, 1461.159
1077.057, 1461.963
1077.539, 1467.477
1078.021, 1472.229
1078.503, 1476.715
1078.985, 1484.177
1079.467, 1488.482
1079.949, 1482.239
1080.432, 1470.867
1080.914, 1462.245
1081.396, 1457.514
1081.878, 1457.919
1082.360, 1467.995
1082.842, 1476.608
1083.324, 1482.042
1083.806, 1485.713
1084.288, 1486.070
1084.771, 1486.592
1085.253, 1492.718
1085.735, 1502.560
1086.217, 1506.665
1086.699, 1502.723
1087.181, 1498.983
1087.663, 1494.322
1088.145, 1492.495
1088.628, 1496.519
1089.110, 1499.749
1089.592, 1496.837
1090.074, 1490.255
1090.556, 1484.205
1091.038, 1478.337
1091.520, 1486.005
1092.002, 1511.449
1092.484, 1520.734
1092.967, 1505.908
1093.449, 1490.940
1093.931, 1487.430
1094.413, 1492.465
1094.895, 1503.802
1095.377, 1518.790
1095.859, 1529.592
1096.341, 1535.417
1096.823, 1526.204
1097.306, 1503.238
1097.788, 1483.293
1098.270, 1472.386
1098.752, 1475.770
1099.234, 1500.730
1099.716, 1529.169
1100.198, 1532.853
1100.680, 1520.074
1101.163, 1503.226
1101.645, 1485.686
1102.127, 1473.327
1102.609, 1467.116
1103.091, 1465.091
1103.573, 1466.350
1104.055, 1472.327
1104.537, 1489.100
1105.020, 1505.866
1105.502, 1514.732
1105.984, 1516.203
1106.466, 1508.008
1106.948, 1494.157
1107.430, 1480.032
1107.912, 1467.622
1108.394, 1465.919
1108.876, 1491.256
1109.359, 1508.720
1109.841, 1498.689
1110.323, 1484.292
1110.805, 1476.109
1111.287, 1474.013
1111.769, 1478.627
1112.251, 1488.606
1112.733, 1498.751
1113.215, 1514.301
1113.698, 1515.330
1114.180, 1486.465
1114.662, 1466.872
1115.144, 1468.421
1115.626, 1477.438
1116.108, 1488.605
1116.590, 1497.268
1117.072, 1493.446
1117.555, 1477.045
1118.037, 1464.569
1118.519, 1453.988
1119.001, 1462.497
1119.483, 1496.249
1119.965, 1521.486
1120.447, 1523.593
1120.929, 1514.482
1121.411, 1505.268
1121.894, 1496.721
1122.376, 1492.342
1122.858, 1490.707
1123.340, 1482.077
1123.822, 1468.337
1124.304, 1461.277
1124.786, 1463.418
1125.268, 1472.380
1125.750, 1487.426
1126.233, 1498.144
1126.715, 1484.507
1127.197, 1466.568
1127.679, 1476.339
1128.161, 1498.495
1128.643, 1510.335
1129.125, 1511.547
1129.607, 1507.094
1130.090, 1499.522
1130.572, 1498.032
1131.054, 1513.004
1131.536, 1524.845
1132.018, 1522.011
1132.500, 1514.137
1132.982, 1502.190
1133.464, 1493.074
1133.947, 1500.485
1134.429, 1518.022
1134.911, 1517.001
1135.393, 1484.699
1135.875, 1465.911
1136.357, 1475.200
1136.839, 1481.893
1137.321, 1478.004
1137.803, 1474.507
1138.286, 1477.244
1138.768, 1484.505
1139.250, 1494.560
1139.732, 1506.848
1140.214, 1517.203
1140.696, 1526.456
1141.178, 1525.606
1141.660, 1512.815
1142.142, 1505.229
1142.625, 1508.736
1143.107, 1511.169
1143.589, 1502.351
1144.071, 1490.739
1144.553, 1496.083
1145.035, 1508.940
1145.517, 1491.120
1145.999, 1457.382
1146.482, 1459.347
1146.964, 1494.670
1147.446, 1523.501
1147.928, 1530.735
1148.410, 1529.325
1148.892, 1527.336
1149.374, 1523.160
1149.856, 1513.179
1150.339, 1502.438
1150.821, 1496.340
1151.303, 1492.712
1151.785, 1487.910
1152.267, 1481.801
1152.749, 1475.347
1153.231, 1467.060
1153.713, 1465.463
1154.195, 1485.374
1154.677, 1494.282
1155.160, 1465.246
1155.642, 1441.530
1156.124, 1455.597
1156.606, 1485.947
1157.088, 1502.959
1157.570, 1507.198
1158.052, 1503.603
1158.534, 1488.190
1159.017, 1485.202
1159.499, 1498.968
1159.981, 1504.914
1160.463, 1494.460
1160.945, 1486.561
1161.427, 1496.286
1161.909, 1509.487
1162.391, 1497.826
1162.874, 1471.740
1163.356, 1469.276
1163.838, 1482.276
1164.320, 1479.814
1164.802, 1465.742
1165.284, 1475.359
1165.766, 1516.165
1166.248, 1545.981
1166.730, 1531.746
1167.213, 1510.336
1167.695, 1514.230
1168.177, 1522.318
1168.659, 1513.059
1169.141, 1498.687
1169.623, 1495.961
1170.105, 1502.744
1170.587, 1508.176
1171.069, 1510.343
1171.552, 1511.247
1172.034, 1513.465
1172.516, 1510.852
1172.998, 1497.434
1173.480, 1486.326
1173.962, 1483.564
1174.444, 1485.039
1174.926, 1487.406
1175.409, 1489.808
1175.891, 1487.457
1176.373, 1479.160
1176.855, 1487.054
1177.337, 1511.814
1177.819, 1520.365
1178.301, 1507.049
1178.783, 1497.453
1179.266, 1504.051
1179.748, 1515.790
1180.230, 1522.206
1180.712, 1524.401
1181.194, 1522.991
1181.676, 1519.301
1182.158, 1514.942
1182.640, 1510.446
1183.122, 1506.838
1183.604, 1503.861
1184.087, 1499.586
1184.569, 1492.949
1185.051, 1487.915
1185.533, 1491.094
1186.015, 1489.715
1186.497, 1466.816
1186.979, 1449.827
1187.461, 1465.546
1187.944, 1493.823
1188.426, 1506.493
1188.908, 1505.215
1189.390, 1500.278
1189.872, 1489.017
1190.354, 1484.182
1190.836, 1487.703
1191.318, 1488.846
1191.801, 1484.981
1192.283, 1480.306
1192.765, 1477.020
1193.247, 1475.902
1193.729, 1479.568
1194.211, 1483.560
1194.693, 1472.459
1195.175, 1454.479
1195.657, 1452.644
1196.140, 1463.575
1196.622, 1477.455
1197.104, 1488.969
1197.586, 1484.708
1198.068, 1456.295
1198.550, 1437.823
1199.032, 1459.363
1199.514, 1485.646
1199.996, 1502.593
1200.479, 1510.192
1200.961, 1504.849
1201.443, 1492.724
1201.925, 1476.698
1202.407, 1460.593
1202.889, 1468.921
1203.371, 1519.174
1203.853, 1535.032
1204.336, 1502.405
1204.818, 1482.083
1205.300, 1488.712
1205.782, 1496.980
1206.264, 1493.413
1206.746, 1484.919
1207.228, 1478.523
1207.710, 1475.565
1208.193, 1480.908
1208.675, 1491.903
1209.157, 1504.024
1209.639, 1514.143
1210.121, 1510.223
1210.603, 1495.444
1211.085, 1492.583
1211.567, 1511.002
1212.049, 1524.217
1212.531, 1508.989
1213.014, 1493.700
1213.496, 1493.776
1213.978, 1498.573
1214.460, 1506.565
1214.942, 1510.689
1215.424, 1494.736
1215.906, 1468.524
1216.388, 1471.117
1216.871, 1511.202
1217.353, 1524.148
1217.835, 1501.630
1218.317, 1487.908
1218.799, 1490.156
1219.281, 1494.111
1219.763, 1494.059
1220.245, 1490.969
1220.728, 1484.997
1221.210, 1479.493
1221.692, 1484.708
1222.174, 1492.045
1222.656, 1476.602
1223.138, 1452.770
1223.620, 1454.732
1224.102, 1476.101
1224.584, 1485.459
1225.067, 1475.927
1225.549, 1472.309
1226.031, 1493.803
1226.513, 1505.613
1226.995, 1481.957
1227.477, 1464.547
1227.959, 1481.552
1228.441, 1501.218
1228.923, 1498.125
1229.406, 1483.980
1229.888, 1479.406
1230.370, 1482.999
1230.852, 1478.623
1231.334, 1465.788
1231.816, 1456.014
1232.298, 1450.276
1232.780, 1456.323
1233.263, 1474.767
1233.745, 1490.049
1234.227, 1493.491
1234.709, 1487.650
1235.191, 1467.083
1235.673, 1448.071
1236.155, 1450.553
1236.637, 1462.584
1237.120, 1478.114
1237.602, 1489.176
1238.084, 1480.599
1238.566, 1457.186
1239.048, 1443.246
1239.530, 1443.609
1240.012, 1449.937
1240.494, 1465.906
1240.976, 1478.766
1241.458, 1485.979
1241.941, 1492.694
1242.423, 1500.893
1242.905, 1509.841
##END=



