##NAMES=Schreibersite
##RRUFFID=R070239
##IDEAL CHEMISTRY=(Fe,Ni,Cr)_3_P
##LOCALITY=Sao Juliao de Moreira meteorite, Ponte de Lima, Viana do Castelo district, Portugal
##OWNER=RRUFF
##SOURCE=Michael Scott
##DESCRIPTION=Silvery fragments with slightly brassy luster, co-type specimen
##STATUS=The identification of this mineral has been confirmed by X-ray diffraction.
##URL=rruff.info/R070239
156.8936, 939.0436
157.3757, 950.1982
157.8578, 962.9681
158.3399, 981.0228
158.8221, 995.4135
159.3042, 1000.411
159.7863, 978.1829
160.2684, 962.4585
160.7505, 969.8456
161.2326, 997.1974
161.7148, 1019.716
162.1969, 1024.369
162.6790, 1020.188
163.1611, 1015.882
163.6432, 1013.684
164.1253, 1012.587
164.6075, 1010.607
165.0896, 1007.623
165.5717, 1009.403
166.0538, 1027.831
166.5359, 1051.544
167.0180, 1064.412
167.5002, 1045.603
167.9823, 1022.407
168.4644, 1017.933
168.9465, 1036.231
169.4286, 1056.833
169.9107, 1065.108
170.3929, 1064.628
170.8750, 1063.119
171.3571, 1063.944
171.8392, 1065.985
172.3213, 1068.601
172.8034, 1072.268
173.2856, 1074.578
173.7677, 1071.715
174.2498, 1065.098
174.7319, 1059.655
175.2140, 1057.063
175.6961, 1057.785
176.1783, 1063.713
176.6604, 1077.654
177.1425, 1092.332
177.6246, 1098.397
178.1067, 1096.642
178.5888, 1092.576
179.0710, 1087.627
179.5531, 1083.314
180.0352, 1084.067
180.5173, 1094.379
180.9994, 1106.700
181.4815, 1105.644
181.9637, 1091.651
182.4458, 1078.751
182.9279, 1082.424
183.4100, 1098.130
183.8921, 1108.319
184.3742, 1104.051
184.8564, 1092.789
185.3385, 1093.652
185.8206, 1107.472
186.3027, 1123.370
186.7848, 1129.446
187.2669, 1126.959
187.7491, 1125.837
188.2312, 1131.309
188.7133, 1140.894
189.1954, 1144.482
189.6775, 1141.028
190.1596, 1136.133
190.6418, 1136.764
191.1239, 1142.819
191.6060, 1149.803
192.0881, 1158.189
192.5702, 1167.116
193.0524, 1167.611
193.5345, 1157.872
194.0166, 1144.409
194.4987, 1136.982
194.9808, 1135.832
195.4629, 1137.084
195.9451, 1139.696
196.4272, 1143.661
196.9093, 1146.617
197.3914, 1148.078
197.8735, 1149.176
198.3556, 1152.405
198.8378, 1158.102
199.3199, 1163.696
199.8020, 1167.621
200.2841, 1169.719
200.7662, 1172.160
201.2483, 1175.417
201.7305, 1178.764
202.2126, 1180.125
202.6947, 1179.032
203.1768, 1177.697
203.6589, 1177.722
204.1410, 1179.449
204.6232, 1179.678
205.1053, 1176.750
205.5874, 1172.743
206.0695, 1176.074
206.5516, 1189.784
207.0337, 1202.845
207.5159, 1206.773
207.9980, 1199.329
208.4801, 1193.093
208.9622, 1189.727
209.4443, 1188.732
209.9264, 1187.252
210.4086, 1184.214
210.8907, 1182.856
211.3728, 1186.775
211.8549, 1198.495
212.3370, 1206.844
212.8191, 1209.508
213.3013, 1207.155
213.7834, 1205.742
214.2655, 1206.059
214.7476, 1206.037
215.2297, 1203.296
215.7118, 1195.971
216.1940, 1191.033
216.6761, 1189.776
217.1582, 1192.105
217.6403, 1196.791
218.1224, 1205.468
218.6045, 1214.248
219.0867, 1219.161
219.5688, 1218.743
220.0509, 1217.772
220.5330, 1217.043
221.0151, 1216.541
221.4972, 1216.717
221.9794, 1218.720
222.4615, 1220.128
222.9436, 1217.341
223.4257, 1205.915
223.9078, 1199.765
224.3899, 1204.590
224.8721, 1221.980
225.3542, 1229.315
225.8363, 1220.612
226.3184, 1207.590
226.8005, 1204.892
227.2827, 1218.841
227.7648, 1231.149
228.2469, 1237.362
228.7290, 1236.984
229.2111, 1233.922
229.6932, 1225.984
230.1754, 1217.177
230.6575, 1212.805
231.1396, 1214.590
231.6217, 1217.871
232.1038, 1221.527
232.5859, 1225.528
233.0681, 1230.193
233.5502, 1236.250
234.0323, 1242.431
234.5144, 1247.336
234.9965, 1252.392
235.4786, 1253.478
235.9608, 1247.012
236.4429, 1229.099
236.9250, 1222.887
237.4071, 1235.113
237.8892, 1254.925
238.3713, 1264.601
238.8535, 1258.060
239.3356, 1251.596
239.8177, 1251.225
240.2998, 1259.891
240.7819, 1262.857
241.2640, 1256.667
241.7462, 1246.835
242.2283, 1242.886
242.7104, 1246.923
243.1925, 1253.469
243.6746, 1261.934
244.1567, 1274.842
244.6389, 1280.511
245.1210, 1275.436
245.6031, 1265.227
246.0852, 1259.868
246.5673, 1261.423
247.0494, 1264.328
247.5316, 1266.732
248.0137, 1268.406
248.4958, 1270.226
248.9779, 1271.499
249.4600, 1273.305
249.9421, 1278.377
250.4243, 1290.290
250.9064, 1299.139
251.3885, 1300.951
251.8706, 1293.927
252.3527, 1284.927
252.8348, 1270.461
253.3170, 1256.171
253.7991, 1254.746
254.2812, 1274.328
254.7633, 1291.135
255.2454, 1294.300
255.7275, 1277.661
256.2097, 1270.639
256.6918, 1276.660
257.1739, 1290.014
257.6560, 1300.524
258.1381, 1307.683
258.6202, 1313.097
259.1024, 1318.309
259.5845, 1324.967
260.0666, 1323.350
260.5487, 1308.818
261.0308, 1289.538
261.5129, 1280.866
261.9951, 1286.922
262.4772, 1293.911
262.9593, 1295.671
263.4414, 1290.161
263.9235, 1289.797
264.4056, 1296.851
264.8878, 1306.940
265.3699, 1312.562
265.8520, 1312.974
266.3341, 1311.133
266.8162, 1307.095
267.2983, 1299.951
267.7805, 1296.781
268.2626, 1298.207
268.7447, 1302.977
269.2268, 1310.688
269.7089, 1323.592
270.1910, 1331.279
270.6732, 1327.366
271.1553, 1310.032
271.6374, 1299.157
272.1195, 1295.507
272.6016, 1297.189
273.0837, 1302.741
273.5659, 1313.393
274.0480, 1321.725
274.5301, 1323.535
275.0122, 1318.457
275.4943, 1317.906
275.9764, 1323.336
276.4586, 1330.557
276.9407, 1332.235
277.4228, 1327.465
277.9049, 1324.880
278.3870, 1329.920
278.8691, 1341.995
279.3513, 1346.737
279.8334, 1342.763
280.3155, 1335.010
280.7976, 1328.487
281.2798, 1323.108
281.7619, 1322.288
282.2440, 1329.095
282.7261, 1342.357
283.2082, 1353.901
283.6903, 1364.128
284.1725, 1371.162
284.6546, 1371.500
285.1367, 1365.358
285.6188, 1358.391
286.1009, 1351.552
286.5830, 1345.404
287.0652, 1342.587
287.5473, 1343.317
288.0294, 1346.226
288.5115, 1350.434
288.9936, 1355.822
289.4757, 1361.202
289.9579, 1366.238
290.4400, 1370.991
290.9221, 1376.354
291.4042, 1382.486
291.8863, 1387.216
292.3684, 1388.774
292.8506, 1387.161
293.3327, 1382.069
293.8148, 1369.789
294.2969, 1356.009
294.7790, 1353.099
295.2611, 1361.087
295.7433, 1371.365
296.2254, 1375.622
296.7075, 1376.216
297.1896, 1380.225
297.6717, 1394.335
298.1538, 1408.999
298.6360, 1404.839
299.1181, 1383.597
299.6002, 1366.319
300.0823, 1377.722
300.5644, 1403.472
301.0465, 1415.118
301.5287, 1397.073
302.0108, 1372.165
302.4929, 1367.780
302.9750, 1380.927
303.4571, 1394.688
303.9392, 1397.780
304.4214, 1394.625
304.9035, 1390.817
305.3856, 1386.665
305.8677, 1383.975
306.3498, 1383.159
306.8319, 1384.813
307.3141, 1391.132
307.7962, 1412.934
308.2783, 1435.524
308.7604, 1443.379
309.2425, 1428.580
309.7246, 1408.807
310.2068, 1390.285
310.6889, 1374.934
311.1710, 1367.415
311.6531, 1376.543
312.1352, 1390.346
312.6173, 1400.221
313.0995, 1404.219
313.5816, 1405.614
314.0637, 1401.323
314.5458, 1395.769
315.0279, 1397.198
315.5100, 1420.402
315.9922, 1442.659
316.4743, 1449.888
316.9564, 1436.502
317.4385, 1424.564
317.9206, 1422.036
318.4027, 1425.150
318.8849, 1428.639
319.3670, 1432.350
319.8491, 1435.089
320.3312, 1435.205
320.8133, 1431.535
321.2954, 1431.778
321.7776, 1444.874
322.2597, 1459.766
322.7418, 1464.669
323.2239, 1444.409
323.7060, 1427.464
324.1881, 1420.960
324.6703, 1425.780
325.1524, 1432.650
325.6345, 1446.728
326.1166, 1459.488
326.5987, 1464.099
327.0808, 1449.749
327.5630, 1439.916
328.0451, 1437.221
328.5272, 1441.539
329.0093, 1450.942
329.4914, 1474.343
329.9735, 1494.557
330.4557, 1499.458
330.9378, 1477.949
331.4199, 1460.333
331.9020, 1449.169
332.3841, 1443.675
332.8662, 1440.348
333.3484, 1440.292
333.8305, 1440.777
334.3126, 1439.525
334.7947, 1434.206
335.2768, 1435.245
335.7589, 1446.873
336.2411, 1463.083
336.7232, 1466.770
337.2053, 1452.658
337.6874, 1441.370
338.1695, 1445.672
338.6516, 1468.417
339.1338, 1480.319
339.6159, 1477.874
340.0980, 1469.099
340.5801, 1468.673
341.0622, 1477.763
341.5443, 1484.209
342.0265, 1479.086
342.5086, 1464.739
342.9907, 1466.338
343.4728, 1487.368
343.9549, 1510.621
344.4370, 1510.735
344.9192, 1490.398
345.4013, 1475.498
345.8834, 1479.157
346.3655, 1493.777
346.8476, 1498.684
347.3297, 1493.626
347.8119, 1486.159
348.2940, 1483.166
348.7761, 1483.433
349.2582, 1483.023
349.7403, 1478.815
350.2225, 1475.444
350.7046, 1482.625
351.1867, 1498.842
351.6688, 1511.905
352.1509, 1510.371
352.6331, 1500.787
353.1152, 1492.680
353.5973, 1487.844
354.0794, 1485.587
354.5615, 1486.177
355.0436, 1489.028
355.5258, 1492.364
356.0079, 1495.919
356.4900, 1499.135
356.9721, 1500.961
357.4542, 1500.324
357.9363, 1501.395
358.4185, 1509.545
358.9006, 1520.670
359.3827, 1527.668
359.8648, 1523.703
360.3469, 1518.123
360.8290, 1515.467
361.3112, 1516.296
361.7933, 1518.890
362.2754, 1527.919
362.7575, 1536.496
363.2396, 1537.135
363.7217, 1517.183
364.2039, 1500.075
364.6860, 1492.561
365.1681, 1494.865
365.6502, 1498.564
366.1323, 1503.438
366.6144, 1508.959
367.0966, 1514.811
367.5787, 1523.094
368.0608, 1528.983
368.5429, 1530.386
369.0250, 1528.597
369.5071, 1530.504
369.9893, 1540.387
370.4714, 1548.981
370.9535, 1551.360
371.4356, 1543.912
371.9177, 1538.264
372.3998, 1534.149
372.8820, 1532.120
373.3641, 1534.166
373.8462, 1542.161
374.3283, 1549.384
374.8104, 1553.509
375.2925, 1554.577
375.7747, 1551.534
376.2568, 1542.836
376.7389, 1533.033
377.2210, 1527.748
377.7031, 1527.019
378.1852, 1530.605
378.6674, 1540.897
379.1495, 1555.317
379.6316, 1563.180
380.1137, 1564.172
380.5958, 1560.859
381.0779, 1551.403
381.5601, 1538.124
382.0422, 1534.398
382.5243, 1547.726
383.0064, 1566.042
383.4885, 1566.428
383.9706, 1551.240
384.4528, 1537.826
384.9349, 1540.674
385.4170, 1552.267
385.8991, 1561.156
386.3812, 1566.549
386.8633, 1566.376
387.3455, 1552.150
387.8276, 1530.606
388.3097, 1516.985
388.7918, 1525.823
389.2739, 1541.476
389.7560, 1551.382
390.2382, 1554.145
390.7203, 1556.386
391.2024, 1563.361
391.6845, 1571.194
392.1666, 1575.494
392.6487, 1572.001
393.1309, 1567.262
393.6130, 1562.253
394.0951, 1557.358
394.5772, 1556.445
395.0593, 1566.035
395.5414, 1576.415
396.0236, 1581.410
396.5057, 1574.048
396.9878, 1568.541
397.4699, 1567.070
397.9520, 1568.519
398.4341, 1569.402
398.9163, 1569.803
399.3984, 1569.527
399.8805, 1568.036
400.3626, 1563.849
400.8447, 1562.916
401.3268, 1565.994
401.8090, 1571.773
402.2911, 1579.668
402.7732, 1592.538
403.2553, 1599.445
403.7374, 1594.530
404.2195, 1578.918
404.7017, 1574.471
405.1838, 1584.088
405.6659, 1597.090
406.1480, 1603.722
406.6301, 1603.932
407.1122, 1604.227
407.5944, 1606.521
408.0765, 1608.789
408.5586, 1605.203
409.0407, 1595.860
409.5228, 1586.259
410.0049, 1578.533
410.4871, 1573.392
410.9692, 1573.239
411.4513, 1578.816
411.9334, 1587.440
412.4155, 1599.549
412.8976, 1612.880
413.3798, 1620.590
413.8619, 1613.788
414.3440, 1603.348
414.8261, 1601.519
415.3082, 1608.540
415.7903, 1615.855
416.2725, 1617.569
416.7546, 1616.624
417.2367, 1616.402
417.7188, 1619.243
418.2009, 1621.600
418.6830, 1620.952
419.1652, 1618.230
419.6473, 1616.868
420.1294, 1621.429
420.6115, 1625.130
421.0937, 1622.898
421.5758, 1607.153
422.0579, 1600.591
422.5400, 1617.466
423.0221, 1642.922
423.5042, 1652.697
423.9864, 1628.567
424.4685, 1608.252
424.9506, 1600.660
425.4327, 1606.863
425.9148, 1613.776
426.3969, 1622.937
426.8791, 1631.059
427.3612, 1634.848
427.8433, 1632.949
428.3254, 1630.824
428.8075, 1628.759
429.2896, 1627.155
429.7718, 1628.101
430.2539, 1632.267
430.7360, 1635.459
431.2181, 1632.847
431.7002, 1625.258
432.1823, 1625.848
432.6645, 1636.546
433.1466, 1651.203
433.6287, 1662.921
434.1108, 1671.639
434.5929, 1676.896
435.0750, 1677.608
435.5572, 1675.040
436.0393, 1670.394
436.5214, 1663.791
437.0035, 1657.779
437.4856, 1655.614
437.9677, 1654.958
438.4499, 1652.148
438.9320, 1644.154
439.4141, 1637.373
439.8962, 1637.355
440.3783, 1642.207
440.8604, 1647.049
441.3426, 1650.226
441.8247, 1652.353
442.3068, 1653.087
442.7889, 1651.661
443.2710, 1652.400
443.7531, 1659.876
444.2353, 1668.766
444.7174, 1673.310
445.1995, 1663.331
445.6816, 1659.172
446.1637, 1668.858
446.6458, 1690.305
447.1280, 1701.892
447.6101, 1700.824
448.0922, 1692.932
448.5743, 1679.113
449.0564, 1651.219
449.5385, 1639.909
450.0207, 1650.739
450.5028, 1674.064
450.9849, 1694.302
451.4670, 1712.490
451.9491, 1721.129
452.4312, 1713.217
452.9134, 1691.644
453.3955, 1679.024
453.8776, 1675.972
454.3597, 1677.589
454.8418, 1681.811
455.3239, 1687.399
455.8061, 1688.740
456.2882, 1683.514
456.7703, 1675.159
457.2524, 1665.963
457.7345, 1657.065
458.2166, 1653.008
458.6988, 1660.235
459.1809, 1671.920
459.6630, 1681.012
460.1451, 1686.811
460.6272, 1690.491
461.1093, 1691.493
461.5915, 1691.203
462.0736, 1691.321
462.5557, 1693.675
463.0378, 1695.293
463.5199, 1695.272
464.0020, 1693.616
464.4842, 1690.469
464.9663, 1678.298
465.4484, 1670.283
465.9305, 1674.540
466.4126, 1706.776
466.8947, 1723.737
467.3769, 1715.665
467.8590, 1696.595
468.3411, 1689.913
468.8232, 1702.083
469.3053, 1714.073
469.7874, 1721.551
470.2696, 1724.583
470.7517, 1723.228
471.2338, 1715.896
471.7159, 1709.070
472.1980, 1709.620
472.6801, 1717.337
473.1623, 1721.842
473.6444, 1719.969
474.1265, 1717.648
474.6086, 1728.803
475.0907, 1750.896
475.5728, 1767.521
476.0550, 1766.477
476.5371, 1755.645
477.0192, 1747.789
477.5013, 1743.354
477.9834, 1738.099
478.4655, 1725.809
478.9477, 1711.613
479.4298, 1702.285
479.9119, 1699.708
480.3940, 1702.444
480.8761, 1714.674
481.3582, 1732.324
481.8404, 1743.492
482.3225, 1737.937
482.8046, 1730.255
483.2867, 1727.165
483.7688, 1730.550
484.2509, 1733.975
484.7331, 1734.803
485.2152, 1736.532
485.6973, 1742.832
486.1794, 1757.508
486.6615, 1770.538
487.1436, 1781.990
487.6258, 1790.873
488.1079, 1791.036
488.5900, 1779.360
489.0721, 1767.563
489.5542, 1764.556
490.0363, 1770.482
490.5185, 1764.134
491.0006, 1741.525
491.4827, 1718.320
491.9648, 1718.848
492.4470, 1738.827
492.9291, 1754.859
493.4112, 1756.760
493.8933, 1752.036
494.3754, 1750.446
494.8575, 1751.977
495.3397, 1756.618
495.8218, 1769.959
496.3039, 1783.769
496.7860, 1788.655
497.2681, 1782.189
497.7502, 1771.399
498.2324, 1752.207
498.7145, 1733.105
499.1966, 1725.286
499.6787, 1747.048
500.1608, 1765.630
500.6429, 1770.186
501.1251, 1761.250
501.6072, 1751.025
502.0893, 1733.826
502.5714, 1721.179
503.0535, 1719.226
503.5356, 1733.542
504.0178, 1745.288
504.4999, 1753.996
504.9820, 1760.438
505.4641, 1766.857
505.9462, 1774.348
506.4283, 1775.320
506.9105, 1763.522
507.3926, 1744.440
507.8747, 1742.818
508.3568, 1759.582
508.8389, 1776.866
509.3210, 1779.366
509.8032, 1772.290
510.2853, 1771.058
510.7674, 1778.890
511.2495, 1787.020
511.7316, 1785.474
512.2137, 1777.618
512.6959, 1770.361
513.1780, 1765.007
513.6601, 1762.465
514.1422, 1764.179
514.6243, 1769.693
515.1064, 1775.920
515.5886, 1784.094
516.0707, 1790.917
516.5528, 1794.175
517.0349, 1792.409
517.5170, 1789.622
517.9991, 1783.236
518.4813, 1777.192
518.9634, 1777.295
519.4455, 1790.437
519.9276, 1797.470
520.4097, 1791.337
520.8918, 1775.155
521.3740, 1770.344
521.8561, 1780.118
522.3382, 1790.615
522.8203, 1791.155
523.3024, 1782.575
523.7845, 1780.583
524.2667, 1787.458
524.7488, 1795.497
525.2309, 1793.774
525.7130, 1785.008
526.1951, 1778.611
526.6772, 1777.560
527.1594, 1780.679
527.6415, 1787.989
528.1236, 1798.723
528.6057, 1809.737
529.0878, 1823.179
529.5699, 1833.514
530.0521, 1834.726
530.5342, 1823.564
531.0163, 1814.813
531.4984, 1814.303
531.9805, 1818.052
532.4626, 1821.805
532.9448, 1829.459
533.4269, 1831.531
533.9090, 1823.484
534.3911, 1808.707
534.8732, 1800.411
535.3553, 1798.941
535.8375, 1803.392
536.3196, 1816.062
536.8017, 1837.954
537.2838, 1849.606
537.7659, 1849.781
538.2480, 1844.105
538.7302, 1836.183
539.2123, 1826.737
539.6944, 1821.906
540.1765, 1824.734
540.6586, 1829.581
541.1407, 1827.796
541.6229, 1821.026
542.1050, 1815.184
542.5871, 1811.942
543.0692, 1812.020
543.5513, 1818.250
544.0334, 1830.616
544.5156, 1840.150
544.9977, 1840.197
545.4798, 1837.096
545.9619, 1835.841
546.4440, 1838.860
546.9261, 1841.537
547.4083, 1841.728
547.8904, 1841.521
548.3725, 1845.202
548.8546, 1858.477
549.3367, 1866.057
549.8188, 1861.979
550.3010, 1847.655
550.7831, 1840.116
551.2652, 1840.769
551.7473, 1843.521
552.2294, 1842.938
552.7115, 1839.766
553.1937, 1842.575
553.6758, 1853.055
554.1579, 1865.317
554.6400, 1872.600
555.1221, 1875.820
555.6042, 1877.337
556.0864, 1876.220
556.5685, 1875.614
557.0506, 1880.519
557.5327, 1889.067
558.0148, 1894.200
558.4969, 1890.168
558.9791, 1883.387
559.4612, 1877.527
559.9433, 1873.125
560.4254, 1869.004
560.9075, 1860.207
561.3896, 1854.412
561.8718, 1858.693
562.3539, 1883.628
562.8360, 1900.412
563.3181, 1904.307
563.8002, 1899.904
564.2823, 1898.356
564.7645, 1900.536
565.2466, 1901.624
565.7287, 1898.859
566.2108, 1893.380
566.6929, 1891.142
567.1750, 1892.271
567.6572, 1894.243
568.1393, 1896.117
568.6214, 1897.113
569.1035, 1895.115
569.5856, 1889.168
570.0677, 1882.740
570.5499, 1876.351
571.0320, 1871.810
571.5141, 1871.908
571.9962, 1883.790
572.4783, 1894.405
572.9604, 1897.553
573.4426, 1894.479
573.9247, 1892.020
574.4068, 1892.585
574.8889, 1892.703
575.3710, 1890.067
575.8531, 1883.054
576.3353, 1882.696
576.8174, 1892.607
577.2995, 1903.818
577.7816, 1906.372
578.2637, 1899.037
578.7458, 1896.886
579.2280, 1903.727
579.7101, 1913.683
580.1922, 1914.125
580.6743, 1907.131
581.1564, 1904.433
581.6385, 1917.418
582.1207, 1934.592
582.6028, 1940.838
583.0849, 1936.910
583.5670, 1929.208
584.0491, 1913.862
584.5313, 1901.123
585.0134, 1901.055
585.4955, 1920.436
585.9776, 1935.071
586.4597, 1935.607
586.9418, 1929.513
587.4240, 1925.195
587.9061, 1924.430
588.3882, 1923.067
588.8703, 1919.864
589.3524, 1915.997
589.8345, 1916.300
590.3167, 1923.010
590.7988, 1924.945
591.2809, 1913.086
591.7630, 1891.839
592.2451, 1886.866
592.7272, 1898.738
593.2094, 1912.946
593.6915, 1916.749
594.1736, 1914.440
594.6557, 1913.996
595.1378, 1916.755
595.6199, 1921.231
596.1021, 1927.797
596.5842, 1934.993
597.0663, 1940.756
597.5485, 1946.830
598.0306, 1948.707
598.5127, 1938.907
598.9948, 1922.068
599.4769, 1918.583
599.9590, 1946.176
600.4412, 1966.890
600.9233, 1964.100
601.4054, 1935.201
601.8875, 1925.794
602.3696, 1941.574
602.8517, 1963.094
603.3339, 1975.551
603.8160, 1979.282
604.2981, 1973.910
604.7802, 1956.851
605.2623, 1939.870
605.7444, 1941.126
606.2266, 1955.008
606.7087, 1966.490
607.1908, 1970.791
607.6729, 1969.990
608.1550, 1963.024
608.6371, 1951.887
609.1193, 1942.824
609.6014, 1934.868
610.0835, 1932.663
610.5656, 1941.689
611.0477, 1964.697
611.5298, 1978.977
612.0120, 1980.545
612.4941, 1976.443
612.9762, 1969.453
613.4583, 1956.104
613.9404, 1954.293
614.4225, 1969.359
614.9047, 1987.992
615.3868, 1988.657
615.8689, 1972.887
616.3510, 1960.704
616.8331, 1957.751
617.3152, 1961.614
617.7974, 1972.351
618.2795, 1987.689
618.7616, 1999.373
619.2437, 2000.069
619.7258, 1997.415
620.2079, 1997.833
620.6901, 2001.596
621.1722, 2002.289
621.6543, 1992.151
622.1364, 1982.083
622.6185, 1979.706
623.1006, 1989.640
623.5828, 1998.077
624.0649, 2006.653
624.5470, 2012.230
625.0291, 2009.304
625.5112, 1995.489
625.9933, 1986.026
626.4755, 1984.101
626.9576, 1987.502
627.4397, 1994.601
627.9218, 2004.406
628.4039, 2009.343
628.8860, 2002.108
629.3682, 1989.701
629.8503, 1980.235
630.3324, 1973.805
630.8145, 1971.071
631.2966, 1977.174
631.7787, 1983.832
632.2609, 1984.200
632.7430, 1975.117
633.2251, 1968.832
633.7072, 1967.843
634.1893, 1970.631
634.6714, 1976.429
635.1536, 1988.025
635.6357, 1996.277
636.1178, 1999.430
636.5999, 2000.011
637.0820, 2001.662
637.5641, 2004.291
638.0463, 2011.048
638.5284, 2026.389
639.0105, 2043.542
639.4926, 2047.472
639.9747, 2040.059
640.4568, 2032.192
640.9390, 2030.248
641.4211, 2030.991
641.9032, 2031.879
642.3853, 2032.719
642.8674, 2033.042
643.3495, 2033.157
643.8317, 2032.352
644.3138, 2029.887
644.7959, 2023.498
645.2780, 2019.597
645.7601, 2017.676
646.2422, 2018.675
646.7244, 2025.603
647.2065, 2040.813
647.6886, 2049.106
648.1707, 2046.625
648.6528, 2037.511
649.1349, 2026.540
649.6171, 2014.855
650.0992, 2010.079
650.5813, 2020.667
651.0634, 2037.057
651.5455, 2049.027
652.0276, 2056.803
652.5098, 2061.004
652.9919, 2062.795
653.4740, 2060.494
653.9561, 2049.104
654.4382, 2024.339
654.9203, 2014.624
655.4025, 2040.985
655.8846, 2069.109
656.3667, 2074.162
656.8488, 2044.903
657.3309, 2026.260
657.8130, 2020.554
658.2952, 2024.115
658.7773, 2037.634
659.2594, 2059.472
659.7415, 2066.567
660.2236, 2046.216
660.7057, 2019.565
661.1879, 2018.907
661.6700, 2037.105
662.1521, 2054.359
662.6342, 2060.291
663.1163, 2062.882
663.5984, 2067.318
664.0806, 2073.212
664.5627, 2076.346
665.0448, 2073.502
665.5269, 2069.624
666.0090, 2067.745
666.4911, 2068.974
666.9733, 2062.469
667.4554, 2043.135
667.9375, 2026.173
668.4196, 2026.665
668.9017, 2043.963
669.3839, 2057.442
669.8660, 2065.374
670.3481, 2068.684
670.8302, 2066.247
671.3123, 2060.121
671.7944, 2054.356
672.2766, 2048.344
672.7587, 2046.156
673.2408, 2056.362
673.7229, 2071.601
674.2050, 2077.679
674.6871, 2059.651
675.1693, 2043.881
675.6514, 2038.197
676.1335, 2040.847
676.6156, 2043.018
677.0977, 2044.186
677.5798, 2046.140
678.0620, 2050.702
678.5441, 2057.242
679.0262, 2058.781
679.5083, 2055.138
679.9904, 2049.642
680.4725, 2040.551
680.9547, 2032.720
681.4368, 2036.543
681.9189, 2054.246
682.4010, 2073.420
682.8831, 2088.992
683.3652, 2100.092
683.8474, 2105.491
684.3295, 2102.890
684.8116, 2097.782
685.2937, 2089.897
685.7758, 2080.383
686.2579, 2070.193
686.7401, 2057.673
687.2222, 2048.850
687.7043, 2044.277
688.1864, 2044.615
688.6685, 2054.085
689.1506, 2072.018
689.6328, 2087.666
690.1149, 2097.862
690.5970, 2102.036
691.0791, 2096.364
691.5612, 2082.712
692.0433, 2070.796
692.5255, 2062.813
693.0076, 2060.401
693.4897, 2068.116
693.9718, 2087.686
694.4539, 2098.170
694.9360, 2092.235
695.4182, 2080.692
695.9003, 2067.326
696.3824, 2049.825
696.8645, 2041.405
697.3466, 2042.863
697.8287, 2051.314
698.3109, 2067.912
698.7930, 2090.154
699.2751, 2104.458
699.7572, 2107.704
700.2393, 2104.960
700.7214, 2095.178
701.2036, 2084.298
701.6857, 2082.460
702.1678, 2106.049
702.6499, 2124.373
703.1320, 2121.698
703.6141, 2105.418
704.0963, 2094.153
704.5784, 2091.635
705.0605, 2090.000
705.5426, 2087.426
706.0247, 2084.465
706.5068, 2083.305
706.9890, 2083.834
707.4711, 2087.003
707.9532, 2095.298
708.4353, 2106.156
708.9174, 2113.067
709.3995, 2116.183
709.8817, 2116.543
710.3638, 2112.885
710.8459, 2108.050
711.3280, 2105.200
711.8101, 2105.105
712.2922, 2102.625
712.7744, 2092.969
713.2565, 2082.889
713.7386, 2076.955
714.2207, 2077.056
714.7028, 2076.264
715.1849, 2073.877
715.6671, 2071.807
716.1492, 2070.975
716.6313, 2071.701
717.1134, 2079.601
717.5955, 2098.053
718.0776, 2115.875
718.5598, 2116.579
719.0419, 2106.869
719.5240, 2099.746
720.0061, 2101.256
720.4882, 2104.594
720.9703, 2108.017
721.4525, 2110.906
721.9346, 2111.865
722.4167, 2109.109
722.8988, 2106.674
723.3809, 2106.693
723.8630, 2107.452
724.3452, 2098.657
724.8273, 2077.672
725.3094, 2066.513
725.7915, 2083.713
726.2736, 2115.319
726.7557, 2121.685
727.2379, 2105.906
727.7200, 2092.368
728.2021, 2100.592
728.6842, 2115.088
729.1663, 2124.960
729.6484, 2129.229
730.1306, 2127.183
730.6127, 2108.461
731.0948, 2091.891
731.5769, 2088.812
732.0590, 2103.881
732.5411, 2112.675
733.0233, 2113.886
733.5054, 2111.759
733.9875, 2108.692
734.4696, 2105.192
734.9517, 2105.334
735.4338, 2109.793
735.9160, 2116.472
736.3981, 2125.311
736.8802, 2134.342
737.3623, 2140.927
737.8444, 2145.499
738.3266, 2145.306
738.8087, 2131.232
739.2908, 2114.479
739.7729, 2112.353
740.2551, 2137.235
740.7372, 2154.888
741.2193, 2160.375
741.7014, 2157.472
742.1835, 2153.078
742.6656, 2147.195
743.1478, 2140.877
743.6299, 2132.485
744.1120, 2126.255
744.5941, 2134.263
745.0762, 2150.880
745.5583, 2158.865
746.0405, 2137.307
746.5226, 2116.213
747.0047, 2115.187
747.4868, 2130.705
747.9689, 2140.594
748.4510, 2139.095
748.9332, 2135.496
749.4153, 2131.595
749.8974, 2127.685
750.3795, 2126.896
750.8616, 2129.281
751.3438, 2134.265
751.8259, 2144.784
752.3080, 2156.946
752.7901, 2160.681
753.2722, 2156.078
753.7543, 2149.991
754.2365, 2146.818
754.7186, 2144.166
755.2007, 2138.233
755.6828, 2126.512
756.1649, 2124.309
756.6470, 2149.726
757.1292, 2171.588
757.6113, 2168.000
758.0934, 2129.742
758.5755, 2108.001
759.0576, 2104.504
759.5397, 2111.238
760.0219, 2124.720
760.5040, 2141.761
760.9861, 2150.615
761.4682, 2148.071
761.9503, 2144.600
762.4324, 2149.285
762.9146, 2157.394
763.3967, 2163.473
763.8788, 2166.585
764.3609, 2166.960
764.8430, 2163.171
765.3251, 2157.455
765.8073, 2151.946
766.2894, 2146.403
766.7715, 2141.705
767.2536, 2137.265
767.7357, 2135.140
768.2178, 2139.985
768.7000, 2150.512
769.1821, 2161.637
769.6642, 2173.909
770.1463, 2182.761
770.6284, 2181.628
771.1105, 2174.580
771.5927, 2169.490
772.0748, 2169.541
772.5569, 2171.019
773.0390, 2174.864
773.5211, 2179.174
774.0032, 2178.253
774.4854, 2170.239
774.9675, 2164.093
775.4496, 2163.059
775.9317, 2165.108
776.4138, 2164.584
776.8959, 2162.205
777.3781, 2161.820
777.8602, 2169.013
778.3423, 2176.185
778.8244, 2174.975
779.3065, 2167.641
779.7886, 2163.968
780.2708, 2171.598
780.7529, 2178.474
781.2350, 2180.709
781.7171, 2178.680
782.1992, 2176.203
782.6813, 2173.884
783.1635, 2168.703
783.6456, 2155.824
784.1277, 2139.418
784.6098, 2134.203
785.0919, 2139.315
785.5740, 2145.760
786.0562, 2148.207
786.5383, 2149.206
787.0204, 2149.885
787.5025, 2150.408
787.9846, 2153.887
788.4667, 2166.741
788.9489, 2177.146
789.4310, 2179.533
789.9131, 2173.400
790.3952, 2168.049
790.8773, 2163.305
791.3594, 2160.365
791.8416, 2160.316
792.3237, 2162.779
792.8058, 2168.294
793.2879, 2176.812
793.7700, 2182.289
794.2521, 2179.274
794.7343, 2172.317
795.2164, 2163.113
795.6985, 2149.243
796.1806, 2146.116
796.6627, 2164.053
797.1448, 2182.976
797.6270, 2189.634
798.1091, 2182.517
798.5912, 2173.778
799.0733, 2162.456
799.5554, 2154.820
800.0375, 2160.643
800.5197, 2173.512
801.0018, 2180.182
801.4839, 2177.966
801.9660, 2177.022
802.4481, 2188.703
802.9302, 2201.137
803.4124, 2203.270
803.8945, 2184.846
804.3766, 2176.270
804.8587, 2182.298
805.3408, 2191.909
805.8229, 2195.790
806.3051, 2193.953
806.7872, 2187.223
807.2693, 2174.601
807.7514, 2163.534
808.2335, 2160.614
808.7156, 2164.518
809.1978, 2175.777
809.6799, 2199.394
810.1620, 2213.723
810.6441, 2199.766
811.1262, 2177.850
811.6083, 2168.660
812.0905, 2181.334
812.5726, 2185.699
813.0547, 2177.910
813.5368, 2168.001
814.0189, 2169.611
814.5010, 2180.393
814.9832, 2185.506
815.4653, 2181.303
815.9474, 2177.343
816.4295, 2184.092
816.9116, 2195.590
817.3937, 2204.400
817.8759, 2207.344
818.3580, 2210.090
818.8401, 2214.261
819.3222, 2218.358
819.8043, 2220.825
820.2864, 2221.222
820.7686, 2222.157
821.2507, 2224.070
821.7328, 2225.896
822.2149, 2228.630
822.6970, 2230.036
823.1791, 2223.068
823.6613, 2203.607
824.1434, 2184.298
824.6255, 2171.922
825.1076, 2165.137
825.5897, 2162.650
826.0718, 2164.538
826.5540, 2171.399
827.0361, 2188.271
827.5182, 2204.393
828.0003, 2205.139
828.4824, 2190.707
828.9645, 2177.094
829.4467, 2165.574
829.9288, 2160.078
830.4109, 2170.555
830.8930, 2188.246
831.3751, 2199.338
831.8572, 2197.340
832.3394, 2194.985
832.8215, 2198.228
833.3036, 2202.443
833.7857, 2202.409
834.2678, 2196.511
834.7499, 2190.492
835.2321, 2183.616
835.7142, 2179.276
836.1963, 2185.378
836.6784, 2198.112
837.1605, 2201.863
837.6426, 2191.689
838.1248, 2181.245
838.6069, 2181.162
839.0890, 2186.596
839.5711, 2192.083
840.0532, 2193.864
840.5353, 2201.463
841.0175, 2223.014
841.4996, 2242.606
841.9817, 2240.453
842.4638, 2215.366
842.9459, 2199.932
843.4280, 2198.324
843.9102, 2200.776
844.3923, 2194.192
844.8744, 2185.250
845.3565, 2186.535
845.8386, 2204.285
846.3207, 2218.032
846.8029, 2213.387
847.2850, 2205.059
847.7671, 2207.578
848.2492, 2232.106
848.7313, 2234.282
849.2134, 2206.014
849.6956, 2175.996
850.1777, 2176.271
850.6598, 2198.819
851.1419, 2217.394
851.6240, 2229.316
852.1061, 2233.040
852.5883, 2220.318
853.0704, 2203.330
853.5525, 2192.448
854.0346, 2189.163
854.5167, 2194.161
854.9988, 2214.832
855.4810, 2233.835
855.9631, 2235.099
856.4452, 2218.165
856.9273, 2219.063
857.4094, 2239.884
857.8915, 2261.201
858.3737, 2265.114
858.8558, 2259.683
859.3379, 2254.822
859.8200, 2251.896
860.3021, 2246.861
860.7842, 2230.391
861.2664, 2218.672
861.7485, 2223.559
862.2306, 2248.108
862.7127, 2256.648
863.1948, 2246.189
863.6769, 2233.180
864.1591, 2229.661
864.6412, 2232.168
865.1233, 2230.779
865.6054, 2225.818
866.0875, 2225.748
866.5696, 2242.553
867.0518, 2260.078
867.5339, 2268.382
868.0160, 2266.296
868.4981, 2260.091
868.9802, 2246.667
869.4623, 2235.790
869.9445, 2233.199
870.4266, 2236.913
870.9087, 2237.486
871.3908, 2235.277
871.8729, 2234.001
872.3550, 2237.205
872.8372, 2241.247
873.3193, 2243.371
873.8014, 2243.649
874.2835, 2242.917
874.7656, 2237.730
875.2477, 2236.179
875.7299, 2241.909
876.2120, 2252.476
876.6941, 2258.503
877.1762, 2259.986
877.6583, 2259.660
878.1404, 2255.693
878.6226, 2253.688
879.1047, 2267.622
879.5869, 2289.563
880.0690, 2299.463
880.5511, 2276.154
881.0332, 2255.328
881.5153, 2248.018
881.9974, 2249.698
882.4796, 2252.712
882.9617, 2257.987
883.4438, 2258.560
883.9259, 2250.989
884.4080, 2241.667
884.8901, 2241.792
885.3723, 2248.067
885.8544, 2252.571
886.3365, 2249.947
886.8186, 2249.304
887.3007, 2256.894
887.7828, 2267.907
888.2650, 2276.154
888.7471, 2283.019
889.2292, 2281.104
889.7113, 2265.669
890.1934, 2250.671
890.6755, 2260.795
891.1577, 2286.395
891.6398, 2294.906
892.1219, 2276.883
892.6040, 2258.768
893.0861, 2262.669
893.5682, 2273.088
894.0504, 2274.809
894.5325, 2260.031
895.0146, 2251.369
895.4967, 2250.361
895.9788, 2252.624
896.4609, 2253.766
896.9431, 2254.656
897.4252, 2264.344
897.9073, 2283.457
898.3894, 2295.266
898.8715, 2278.635
899.3536, 2255.515
899.8358, 2244.210
900.3179, 2247.309
900.8000, 2253.836
901.2821, 2266.336
901.7642, 2276.146
902.2463, 2278.130
902.7285, 2273.658
903.2106, 2275.192
903.6927, 2282.343
904.1748, 2285.343
904.6569, 2268.853
905.1390, 2252.304
905.6212, 2260.019
906.1033, 2286.320
906.5854, 2305.557
907.0675, 2307.701
907.5496, 2304.836
908.0317, 2298.940
908.5139, 2290.467
908.9960, 2278.188
909.4781, 2262.126
909.9602, 2254.032
910.4423, 2260.240
910.9244, 2272.862
911.4066, 2289.227
911.8887, 2303.800
912.3708, 2306.512
912.8529, 2277.723
913.3350, 2257.489
913.8171, 2256.389
914.2993, 2264.633
914.7814, 2268.595
915.2635, 2267.374
915.7456, 2276.574
916.2277, 2301.361
916.7098, 2324.069
917.1920, 2318.600
917.6741, 2299.818
918.1562, 2289.237
918.6383, 2292.380
919.1204, 2300.101
919.6025, 2320.671
920.0847, 2335.726
920.5668, 2329.940
921.0489, 2298.488
921.5310, 2280.838
922.0131, 2277.836
922.4952, 2281.706
922.9774, 2290.577
923.4595, 2300.216
923.9416, 2303.438
924.4237, 2300.220
924.9058, 2297.059
925.3879, 2299.762
925.8701, 2299.388
926.3522, 2288.228
926.8343, 2269.328
927.3164, 2270.764
927.7985, 2295.056
928.2806, 2316.460
928.7628, 2322.251
929.2449, 2319.005
929.7270, 2315.034
930.2091, 2310.531
930.6912, 2305.902
931.1733, 2294.508
931.6555, 2291.202
932.1376, 2308.380
932.6197, 2333.003
933.1018, 2343.151
933.5839, 2337.342
934.0660, 2327.110
934.5482, 2312.190
935.0303, 2300.615
935.5124, 2305.683
935.9945, 2320.475
936.4766, 2334.046
936.9587, 2347.073
937.4409, 2350.197
937.9230, 2325.874
938.4051, 2301.625
938.8872, 2301.086
939.3693, 2330.664
939.8514, 2345.690
940.3336, 2344.841
940.8157, 2337.567
941.2978, 2327.601
941.7799, 2318.150
942.2620, 2312.904
942.7441, 2312.267
943.2263, 2317.823
943.7084, 2340.617
944.1905, 2358.523
944.6726, 2361.538
945.1547, 2352.037
945.6368, 2344.256
946.1190, 2338.152
946.6011, 2333.531
947.0832, 2331.156
947.5653, 2329.257
948.0474, 2322.650
948.5295, 2314.773
949.0117, 2313.625
949.4938, 2330.642
949.9759, 2343.464
950.4580, 2345.548
950.9401, 2343.217
951.4222, 2347.758
951.9044, 2359.448
952.3865, 2361.603
952.8686, 2350.049
953.3507, 2335.806
953.8328, 2325.043
954.3149, 2321.231
954.7971, 2332.626
955.2792, 2368.640
955.7613, 2388.097
956.2434, 2374.434
956.7255, 2355.503
957.2076, 2347.376
957.6898, 2349.772
958.1719, 2353.599
958.6540, 2358.852
959.1361, 2363.309
959.6182, 2366.953
960.1003, 2367.976
960.5825, 2362.692
961.0646, 2352.494
961.5467, 2345.643
962.0288, 2342.877
962.5109, 2345.208
962.9930, 2354.795
963.4752, 2367.976
963.9573, 2376.033
964.4394, 2379.251
964.9215, 2379.143
965.4036, 2373.667
965.8857, 2370.198
966.3679, 2380.770
966.8500, 2394.352
967.3321, 2395.937
967.8142, 2371.509
968.2963, 2357.767
968.7784, 2358.733
969.2606, 2362.792
969.7427, 2355.506
970.2248, 2341.433
970.7069, 2338.408
971.1890, 2347.662
971.6711, 2358.360
972.1533, 2363.525
972.6354, 2367.569
973.1175, 2374.467
973.5996, 2384.116
974.0817, 2387.448
974.5638, 2381.818
975.0460, 2379.626
975.5281, 2388.743
976.0102, 2402.036
976.4923, 2401.734
976.9744, 2392.586
977.4565, 2388.547
977.9387, 2404.667
978.4208, 2416.435
978.9029, 2412.685
979.3850, 2400.820
979.8671, 2388.870
980.3492, 2375.433
980.8314, 2370.970
981.3135, 2377.125
981.7956, 2390.185
982.2777, 2418.511
982.7598, 2445.612
983.2419, 2442.244
983.7241, 2399.570
984.2062, 2366.010
984.6883, 2360.102
985.1704, 2362.975
985.6525, 2368.352
986.1346, 2375.803
986.6168, 2381.295
987.0989, 2384.792
987.5810, 2385.207
988.0631, 2376.693
988.5452, 2369.187
989.0273, 2373.220
989.5095, 2385.694
989.9916, 2398.854
990.4737, 2415.557
990.9558, 2425.965
991.4379, 2428.588
991.9200, 2424.800
992.4022, 2413.122
992.8843, 2396.254
993.3664, 2385.859
993.8485, 2384.737
994.3306, 2386.652
994.8127, 2389.730
995.2949, 2392.331
995.7770, 2391.682
996.2591, 2386.307
996.7412, 2389.341
997.2233, 2403.274
997.7054, 2416.475
998.1876, 2424.002
998.6697, 2424.958
999.1518, 2411.436
999.6339, 2388.255
1000.116, 2374.446
1000.598, 2388.988
1001.080, 2402.094
1001.562, 2399.814
1002.044, 2391.345
1002.527, 2395.602
1003.009, 2414.056
1003.491, 2421.240
1003.973, 2409.583
1004.455, 2397.781
1004.937, 2412.362
1005.419, 2436.291
1005.901, 2445.935
1006.384, 2431.571
1006.866, 2428.126
1007.348, 2451.596
1007.830, 2468.039
1008.312, 2451.649
1008.794, 2410.888
1009.276, 2396.797
1009.758, 2407.276
1010.240, 2423.875
1010.723, 2446.795
1011.205, 2461.621
1011.687, 2454.214
1012.169, 2431.875
1012.651, 2414.617
1013.133, 2402.566
1013.615, 2396.491
1014.097, 2396.880
1014.580, 2402.278
1015.062, 2412.438
1015.544, 2425.546
1016.026, 2440.067
1016.508, 2457.259
1016.990, 2465.817
1017.472, 2450.746
1017.954, 2435.483
1018.436, 2435.010
1018.919, 2448.343
1019.401, 2452.385
1019.883, 2447.112
1020.365, 2442.316
1020.847, 2442.936
1021.329, 2447.313
1021.811, 2459.038
1022.293, 2472.858
1022.776, 2475.680
1023.258, 2453.649
1023.740, 2439.446
1024.222, 2437.307
1024.704, 2442.247
1025.186, 2450.051
1025.668, 2459.252
1026.150, 2464.165
1026.632, 2463.816
1027.115, 2462.268
1027.597, 2459.242
1028.079, 2458.248
1028.561, 2463.930
1029.043, 2475.668
1029.525, 2476.369
1030.007, 2464.081
1030.489, 2457.281
1030.972, 2469.573
1031.454, 2486.264
1031.936, 2485.220
1032.418, 2473.040
1032.900, 2463.916
1033.382, 2468.228
1033.864, 2465.957
1034.346, 2446.324
1034.828, 2431.079
1035.311, 2456.082
1035.793, 2511.844
1036.275, 2528.042
1036.757, 2498.970
1037.239, 2469.165
1037.721, 2470.046
1038.203, 2481.612
1038.685, 2493.232
1039.167, 2503.659
1039.650, 2508.957
1040.132, 2508.720
1040.614, 2504.001
1041.096, 2492.203
1041.578, 2481.292
1042.060, 2487.771
1042.542, 2503.795
1043.024, 2514.553
1043.507, 2512.350
1043.989, 2511.100
1044.471, 2514.750
1044.953, 2518.541
1045.435, 2518.619
1045.917, 2515.258
1046.399, 2511.480
1046.881, 2507.430
1047.364, 2504.479
1047.846, 2506.747
1048.328, 2507.488
1048.810, 2497.455
1049.292, 2481.386
1049.774, 2480.637
1050.256, 2501.945
1050.738, 2514.130
1051.220, 2508.739
1051.703, 2497.968
1052.185, 2497.762
1052.667, 2504.983
1053.149, 2516.511
1053.631, 2534.456
1054.113, 2543.405
1054.595, 2535.607
1055.077, 2521.624
1055.559, 2503.330
1056.042, 2482.861
1056.524, 2473.778
1057.006, 2475.680
1057.488, 2485.268
1057.970, 2510.761
1058.452, 2533.033
1058.934, 2540.829
1059.416, 2536.803
1059.899, 2525.449
1060.381, 2502.519
1060.863, 2488.492
1061.345, 2485.486
1061.827, 2489.500
1062.309, 2502.717
1062.791, 2517.129
1063.273, 2517.084
1063.755, 2501.886
1064.238, 2494.968
1064.720, 2511.343
1065.202, 2525.813
1065.684, 2530.629
1066.166, 2528.824
1066.648, 2529.504
1067.130, 2531.385
1067.612, 2527.311
1068.094, 2510.370
1068.577, 2498.177
1069.059, 2507.459
1069.541, 2522.438
1070.023, 2527.329
1070.505, 2519.807
1070.987, 2514.174
1071.469, 2510.311
1071.951, 2508.717
1072.434, 2512.764
1072.916, 2517.027
1073.398, 2511.900
1073.880, 2501.100
1074.362, 2497.943
1074.844, 2511.613
1075.326, 2522.463
1075.808, 2528.241
1076.291, 2530.285
1076.773, 2527.807
1077.255, 2523.413
1077.737, 2525.478
1078.219, 2535.430
1078.701, 2545.838
1079.183, 2558.758
1079.665, 2564.596
1080.147, 2556.688
1080.630, 2538.003
1081.112, 2523.643
1081.594, 2513.804
1082.076, 2515.977
1082.558, 2539.625
1083.040, 2563.558
1083.522, 2566.409
1084.004, 2559.104
1084.486, 2556.680
1084.969, 2564.916
1085.451, 2565.450
1085.933, 2556.618
1086.415, 2546.353
1086.897, 2536.636
1087.379, 2531.591
1087.861, 2543.921
1088.343, 2568.833
1088.826, 2585.767
1089.308, 2578.866
1089.790, 2574.392
1090.272, 2578.431
1090.754, 2585.374
1091.236, 2587.867
1091.718, 2585.745
1092.200, 2575.802
1092.682, 2556.807
1093.165, 2542.120
1093.647, 2543.762
1094.129, 2549.229
1094.611, 2551.168
1095.093, 2549.818
1095.575, 2545.246
1096.057, 2536.973
1096.539, 2539.136
1097.022, 2563.445
1097.504, 2587.195
1097.986, 2577.773
1098.468, 2557.076
1098.950, 2557.492
1099.432, 2599.504
1099.914, 2618.967
1100.396, 2611.066
1100.879, 2595.307
1101.361, 2581.763
1101.843, 2571.786
1102.325, 2570.435
1102.807, 2575.245
1103.289, 2577.034
1103.771, 2565.700
1104.253, 2560.481
1104.735, 2566.233
1105.218, 2577.014
1105.700, 2586.909
1106.182, 2594.920
1106.664, 2593.408
1107.146, 2581.355
1107.628, 2572.459
1108.110, 2576.647
1108.592, 2584.954
1109.074, 2596.210
1109.557, 2607.222
1110.039, 2599.939
1110.521, 2573.914
1111.003, 2562.651
1111.485, 2580.425
1111.967, 2602.372
1112.449, 2602.019
1112.931, 2594.482
1113.414, 2597.847
1113.896, 2617.621
1114.378, 2627.058
1114.860, 2623.752
1115.342, 2620.830
1115.824, 2630.280
1116.306, 2640.681
1116.788, 2625.389
1117.271, 2597.789
1117.753, 2587.615
1118.235, 2622.592
1118.717, 2650.492
1119.199, 2673.698
1119.681, 2678.920
1120.163, 2632.118
1120.645, 2559.825
1121.127, 2552.196
1121.609, 2605.489
1122.092, 2646.747
1122.574, 2625.532
1123.056, 2602.599
1123.538, 2598.603
1124.020, 2605.019
1124.502, 2604.306
1124.984, 2597.718
1125.466, 2596.041
1125.949, 2601.412
1126.431, 2610.085
1126.913, 2625.029
1127.395, 2637.482
1127.877, 2638.785
1128.359, 2630.855
1128.841, 2629.230
1129.323, 2634.333
1129.806, 2637.968
1130.288, 2636.336
1130.770, 2633.819
1131.252, 2637.329
1131.734, 2641.447
1132.216, 2637.252
1132.698, 2617.847
1133.180, 2613.575
1133.662, 2627.166
1134.145, 2644.606
1134.627, 2660.361
1135.109, 2672.364
1135.591, 2675.429
1136.073, 2672.089
1136.555, 2668.670
1137.037, 2666.910
1137.519, 2665.205
1138.001, 2663.447
1138.484, 2661.760
1138.966, 2660.709
1139.448, 2659.738
1139.930, 2657.155
1140.412, 2653.063
1140.894, 2649.493
1141.376, 2642.555
1141.858, 2643.682
1142.341, 2662.698
1142.823, 2683.688
1143.305, 2668.266
1143.787, 2627.430
1144.269, 2613.663
1144.751, 2637.947
1145.233, 2664.104
1145.715, 2677.188
1146.198, 2679.975
1146.680, 2669.822
1147.162, 2651.996
1147.644, 2655.364
1148.126, 2677.993
1148.608, 2692.849
1149.090, 2689.056
1149.572, 2681.907
1150.054, 2685.610
1150.536, 2689.430
1151.019, 2679.436
1151.501, 2653.092
1151.983, 2652.451
1152.465, 2678.718
1152.947, 2700.367
1153.429, 2697.784
1153.911, 2685.923
1154.393, 2672.359
1154.876, 2661.436
1155.358, 2662.857
1155.840, 2685.053
1156.322, 2691.504
1156.804, 2678.351
1157.286, 2667.028
1157.768, 2678.656
1158.250, 2699.345
1158.733, 2718.658
1159.215, 2732.403
1159.697, 2725.195
1160.179, 2674.742
1160.661, 2650.426
1161.143, 2665.825
1161.625, 2693.122
1162.107, 2701.076
1162.589, 2698.653
1163.072, 2700.970
1163.554, 2708.875
1164.036, 2714.117
1164.518, 2714.314
1165.000, 2711.776
1165.482, 2705.453
1165.964, 2699.133
1166.446, 2699.462
1166.928, 2705.197
1167.411, 2715.308
1167.893, 2730.930
1168.375, 2740.932
1168.857, 2737.675
1169.339, 2732.913
1169.821, 2729.863
1170.303, 2729.239
1170.785, 2734.830
1171.268, 2744.727
1171.750, 2753.332
1172.232, 2760.311
1172.714, 2761.834
1173.196, 2757.728
1173.678, 2745.033
1174.160, 2713.667
1174.642, 2670.795
1175.125, 2674.421
1175.607, 2716.614
1176.089, 2753.576
1176.571, 2761.566
1177.053, 2764.260
1177.535, 2774.558
1178.017, 2782.130
1178.499, 2774.755
1178.981, 2752.647
1179.464, 2740.460
1179.946, 2737.949
1180.428, 2737.106
1180.910, 2730.322
1181.392, 2726.636
1181.874, 2734.821
1182.356, 2747.230
1182.838, 2751.865
1183.320, 2748.474
1183.803, 2745.351
1184.285, 2743.110
1184.767, 2742.260
1185.249, 2745.601
1185.731, 2748.125
1186.213, 2743.256
1186.695, 2735.302
1187.177, 2738.010
1187.660, 2752.457
1188.142, 2760.141
1188.624, 2757.332
1189.106, 2753.009
1189.588, 2752.449
1190.070, 2755.808
1190.552, 2767.672
1191.034, 2785.065
1191.516, 2785.665
1191.999, 2766.778
1192.481, 2757.621
1192.963, 2766.880
1193.445, 2782.680
1193.927, 2802.905
1194.409, 2817.066
1194.891, 2808.446
1195.373, 2775.725
1195.855, 2764.908
1196.338, 2778.531
1196.820, 2791.803
1197.302, 2795.656
1197.784, 2793.871
1198.266, 2785.095
1198.748, 2775.970
1199.230, 2776.488
1199.712, 2789.857
1200.195, 2797.047
1200.677, 2797.489
1201.159, 2795.426
1201.641, 2789.933
1202.123, 2787.038
1202.605, 2796.700
1203.087, 2812.631
1203.569, 2825.090
1204.052, 2834.228
1204.534, 2835.651
1205.016, 2828.304
1205.498, 2819.622
1205.980, 2815.587
1206.462, 2812.216
1206.944, 2798.155
1207.426, 2782.224
1207.908, 2788.014
1208.391, 2831.318
1208.873, 2853.918
1209.355, 2851.699
1209.837, 2838.942
1210.319, 2820.396
1210.801, 2803.730
1211.283, 2800.075
1211.765, 2806.295
1212.247, 2810.126
1212.730, 2806.855
1213.212, 2815.466
1213.694, 2841.706
1214.176, 2861.441
1214.658, 2837.065
1215.140, 2803.846
1215.622, 2808.292
1216.104, 2844.429
1216.587, 2862.204
1217.069, 2853.091
1217.551, 2844.749
1218.033, 2841.288
1218.515, 2841.154
1218.997, 2844.819
1219.479, 2849.361
1219.961, 2851.572
1220.443, 2851.195
1220.926, 2849.668
1221.408, 2846.556
1221.890, 2844.210
1222.372, 2842.821
1222.854, 2843.639
1223.336, 2851.075
1223.818, 2859.708
1224.300, 2862.022
1224.782, 2856.941
1225.265, 2857.773
1225.747, 2866.143
1226.229, 2873.859
1226.711, 2880.524
1227.193, 2879.694
1227.675, 2846.360
1228.157, 2811.174
1228.639, 2818.877
1229.122, 2879.828
1229.604, 2906.934
1230.086, 2895.749
1230.568, 2881.071
1231.050, 2875.574
1231.532, 2873.828
1232.014, 2870.310
1232.496, 2866.499
1232.979, 2864.695
1233.461, 2865.536
1233.943, 2861.449
1234.425, 2851.185
1234.907, 2849.282
1235.389, 2866.637
1235.871, 2888.787
1236.353, 2909.702
1236.835, 2922.603
1237.318, 2914.117
1237.800, 2879.810
1238.282, 2862.755
1238.764, 2863.518
1239.246, 2872.744
1239.728, 2889.966
1240.210, 2907.518
1240.692, 2922.604
1241.175, 2931.613
1241.657, 2929.229
1242.139, 2913.866
1242.621, 2895.497
1243.103, 2873.845
1243.585, 2862.959
1244.067, 2880.728
1244.549, 2901.762
1245.031, 2907.405
1245.514, 2906.740
1245.996, 2913.369
1246.478, 2928.331
1246.960, 2940.182
1247.442, 2948.576
1247.924, 2949.688
1248.406, 2932.674
1248.888, 2916.903
1249.370, 2910.652
1249.853, 2913.904
1250.335, 2930.723
1250.817, 2960.097
1251.299, 2973.521
1251.781, 2970.685
1252.263, 2966.844
1252.745, 2978.118
1253.227, 2982.238
1253.710, 2961.295
1254.192, 2934.311
1254.674, 2923.453
1255.156, 2927.876
1255.638, 2948.868
1256.120, 2983.834
1256.602, 3004.000
1257.084, 2981.766
1257.567, 2956.107
1258.049, 2937.417
1258.531, 2924.851
1259.013, 2915.247
1259.495, 2910.951
1259.977, 2925.463
1260.459, 2957.585
1260.941, 2983.732
1261.423, 2992.273
1261.906, 2992.688
1262.388, 2982.822
1262.870, 2973.431
1263.352, 2987.550
1263.834, 3011.889
1264.316, 3011.711
1264.798, 2986.207
1265.280, 2966.410
1265.762, 2960.431
1266.245, 2964.931
1266.727, 2983.644
1267.209, 3002.752
1267.691, 2999.590
1268.173, 2985.687
1268.655, 2979.883
1269.137, 2983.492
1269.619, 2988.062
1270.102, 2994.082
1270.584, 2995.731
1271.066, 2990.338
1271.548, 2985.145
1272.030, 2990.336
1272.512, 3000.242
1272.994, 3008.692
1273.476, 3015.093
1273.958, 3023.043
1274.441, 3035.356
1274.923, 3032.526
1275.405, 3005.992
1275.887, 2983.020
1276.369, 3001.719
1276.851, 3030.127
1277.333, 3034.990
1277.815, 3019.714
1278.297, 3017.335
1278.780, 3028.740
1279.262, 3032.789
1279.744, 3022.967
1280.226, 3015.625
1280.708, 3028.416
1281.190, 3044.693
1281.672, 3053.635
1282.154, 3055.894
1282.637, 3051.017
1283.119, 3040.198
1283.601, 3034.798
1284.083, 3037.264
1284.565, 3044.536
1285.047, 3061.167
1285.529, 3074.875
1286.011, 3079.635
1286.494, 3077.651
1286.976, 3072.213
1287.458, 3065.281
1287.940, 3064.744
1288.422, 3073.230
1288.904, 3079.389
1289.386, 3076.715
1289.868, 3074.193
1290.350, 3075.452
1290.833, 3077.429
1291.315, 3048.596
1291.797, 3074.289
1292.279, 3089.053
1292.761, 3093.476
1293.243, 3056.586
1293.725, 3073.044
1294.207, 3068.122
1294.689, 3062.324
1295.172, 3086.292
1295.654, 3055.411
1296.136, 3078.904
1296.618, 3080.693
1297.100, 3092.416
1297.582, 3082.627
1298.064, 3079.482
1298.546, 3097.856
1299.029, 3104.316
1299.511, 3092.051
1299.993, 3104.405
1300.475, 3072.773
1300.957, 3079.739
1301.439, 3103.359
1301.921, 3092.176
1302.403, 3104.923
1302.885, 3108.556
1303.368, 3070.771
1303.850, 3105.017
1304.332, 3108.112
1304.814, 3079.220
1305.296, 3110.999
1305.778, 3086.516
1306.260, 3082.116
1306.742, 3092.828
1307.224, 3081.845
1307.707, 3073.366
1308.189, 3075.857
1308.671, 3103.521
1309.153, 3126.491
1309.635, 3134.535
1310.117, 3130.575
1310.599, 3110.602
1311.081, 3086.261
1311.564, 3085.190
1312.046, 3116.870
1312.528, 3134.647
1313.010, 3128.804
1313.492, 3125.976
1313.974, 3137.512
1314.456, 3149.996
1314.938, 3139.114
##END=



