##NAMES=Schuilingite-(Nd)
##RRUFFID=R100063
##IDEAL CHEMISTRY=Cu^2+^Pb^2+^Nd^3+^(CO_3_)_3_(OH)&#183;1.5H_2_O
##LOCALITY=Kasompi, 70 km. west of Kambove, Katanga, Congo
##OWNER=RRUFF
##SOURCE=William W Pinch
##DESCRIPTION=Azure-blue, prismatic crystals. Same sample as used by Schindler and Hawthorne (1999) for structure determination
##STATUS=The identification of this mineral has been confirmed only by single crystal X-ray diffraction.
##URL=rruff.info/R100063
90.49219, 42.13266
90.97430, 41.60974
91.45642, 41.42518
91.93854, 41.85122
92.42065, 42.53703
92.90277, 43.01567
93.38489, 43.27586
93.86700, 43.27269
94.34912, 42.91179
94.83124, 42.21718
95.31335, 41.32814
95.79547, 40.06377
96.27759, 38.60522
96.75970, 37.64175
97.24182, 37.27861
97.72394, 37.45255
98.20605, 38.28154
98.68817, 39.86906
99.17029, 41.29039
99.65240, 41.67216
100.1345, 40.93365
100.6166, 40.36763
101.0988, 40.28302
101.5809, 40.60879
102.0630, 40.69263
102.5451, 40.41518
103.0272, 40.10913
103.5093, 40.13643
103.9915, 40.54748
104.4736, 41.18052
104.9557, 42.15884
105.4378, 43.68663
105.9199, 44.33592
106.4020, 43.53572
106.8842, 42.14007
107.3663, 41.69117
107.8484, 43.24704
108.3305, 44.52765
108.8126, 44.67970
109.2947, 42.62269
109.7769, 41.23338
110.2590, 40.80482
110.7411, 41.09377
111.2232, 41.35530
111.7053, 41.30204
112.1874, 41.41200
112.6696, 41.90097
113.1517, 43.57542
113.6338, 44.78381
114.1159, 45.16505
114.5980, 44.80587
115.0801, 44.34029
115.5623, 43.48085
116.0444, 42.78027
116.5265, 42.66598
117.0086, 43.81264
117.4907, 45.07046
117.9728, 46.15259
118.4550, 47.05126
118.9371, 47.49778
119.4192, 46.92376
119.9013, 45.92739
120.3834, 45.28034
120.8655, 45.64398
121.3477, 46.24897
121.8298, 46.47795
122.3119, 46.20044
122.7940, 46.00897
123.2761, 46.28621
123.7582, 46.96104
124.2404, 47.87505
124.7225, 48.78215
125.2046, 49.94395
125.6867, 51.77505
126.1688, 54.53777
126.6509, 57.50557
127.1331, 59.53238
127.6152, 60.88384
128.0973, 62.87995
128.5794, 66.62400
129.0615, 71.68957
129.5436, 77.00206
130.0258, 82.13982
130.5079, 87.63151
130.9900, 94.48235
131.4721, 102.6330
131.9542, 111.9343
132.4363, 122.0229
132.9185, 133.0102
133.4006, 145.6659
133.8827, 160.3571
134.3648, 176.7483
134.8469, 194.3534
135.3290, 212.9361
135.8112, 233.8715
136.2933, 258.6054
136.7754, 287.3319
137.2575, 318.3338
137.7396, 351.2280
138.2217, 385.4741
138.7039, 422.9155
139.1860, 464.5714
139.6681, 507.9220
140.1502, 550.0515
140.6323, 590.2653
141.1144, 630.1993
141.5966, 670.9205
142.0787, 712.8622
142.5608, 752.6349
143.0429, 789.8625
143.5250, 825.0590
144.0071, 858.9325
144.4893, 890.4487
144.9714, 921.8480
145.4535, 953.2754
145.9356, 982.8917
146.4177, 1016.781
146.8998, 1054.578
147.3820, 1096.681
147.8641, 1146.837
148.3462, 1208.329
148.8283, 1274.133
149.3104, 1341.221
149.7925, 1406.639
150.2747, 1476.827
150.7568, 1554.172
151.2389, 1637.762
151.7210, 1716.367
152.2031, 1789.192
152.6852, 1856.778
153.1674, 1920.246
153.6495, 1983.056
154.1316, 2037.492
154.6137, 2081.846
155.0958, 2116.033
155.5779, 2143.871
156.0601, 2163.311
156.5422, 2177.771
157.0243, 2189.920
157.5064, 2200.234
157.9885, 2208.297
158.4706, 2212.829
158.9528, 2213.209
159.4349, 2215.406
159.9170, 2220.528
160.3991, 2228.399
160.8812, 2238.810
161.3633, 2249.084
161.8455, 2263.984
162.3276, 2286.528
162.8097, 2317.697
163.2918, 2351.429
163.7739, 2386.004
164.2560, 2418.692
164.7382, 2434.191
165.2203, 2442.798
165.7024, 2453.654
166.1845, 2470.004
166.6666, 2494.042
167.1487, 2517.668
167.6309, 2535.550
168.1130, 2550.048
168.5951, 2565.808
169.0772, 2586.666
169.5593, 2608.989
170.0414, 2629.634
170.5236, 2647.756
171.0057, 2665.015
171.4878, 2683.252
171.9699, 2701.979
172.4520, 2719.312
172.9341, 2732.314
173.4163, 2744.191
173.8984, 2759.116
174.3805, 2779.711
174.8626, 2800.723
175.3447, 2818.971
175.8268, 2834.254
176.3090, 2845.538
176.7911, 2848.316
177.2732, 2847.212
177.7553, 2850.339
178.2374, 2863.116
178.7195, 2877.144
179.2017, 2881.707
179.6838, 2877.387
180.1659, 2868.960
180.6480, 2857.772
181.1301, 2845.230
181.6122, 2834.749
182.0944, 2829.680
182.5765, 2825.470
183.0586, 2813.286
183.5407, 2793.436
184.0228, 2771.280
184.5049, 2751.745
184.9871, 2734.000
185.4692, 2715.795
185.9513, 2695.662
186.4334, 2674.767
186.9155, 2655.239
187.3976, 2637.193
187.8798, 2620.177
188.3619, 2604.668
188.8440, 2590.160
189.3261, 2574.262
189.8082, 2554.834
190.2903, 2533.308
190.7725, 2514.569
191.2546, 2498.481
191.7367, 2484.557
192.2188, 2472.733
192.7009, 2462.777
193.1830, 2452.360
193.6652, 2440.279
194.1473, 2426.788
194.6294, 2414.122
195.1115, 2402.250
195.5936, 2391.267
196.0757, 2381.270
196.5579, 2372.247
197.0400, 2364.286
197.5221, 2357.634
198.0042, 2352.250
198.4863, 2346.787
198.9684, 2340.871
199.4506, 2335.801
199.9327, 2333.996
200.4148, 2335.740
200.8969, 2337.929
201.3790, 2339.136
201.8611, 2339.277
202.3433, 2340.765
202.8254, 2344.238
203.3075, 2347.979
203.7896, 2348.364
204.2717, 2344.522
204.7538, 2341.570
205.2360, 2341.923
205.7181, 2345.913
206.2002, 2349.957
206.6823, 2354.131
207.1644, 2358.247
207.6465, 2362.226
208.1287, 2366.353
208.6108, 2369.302
209.0929, 2369.980
209.5750, 2367.719
210.0571, 2367.127
210.5392, 2368.674
211.0214, 2371.569
211.5035, 2374.058
211.9856, 2375.799
212.4677, 2378.142
212.9498, 2381.670
213.4319, 2386.397
213.9141, 2392.125
214.3962, 2398.766
214.8783, 2406.473
215.3604, 2415.618
215.8425, 2426.683
216.3246, 2438.166
216.8067, 2449.546
217.2889, 2460.645
217.7710, 2471.409
218.2531, 2480.740
218.7352, 2490.187
219.2173, 2504.354
219.6994, 2525.712
220.1816, 2547.109
220.6637, 2565.448
221.1458, 2579.481
221.6279, 2594.222
222.1100, 2610.131
222.5921, 2626.736
223.0743, 2643.081
223.5564, 2658.286
224.0385, 2674.750
224.5206, 2693.665
225.0027, 2717.018
225.4848, 2738.161
225.9670, 2755.802
226.4491, 2771.427
226.9312, 2789.474
227.4133, 2811.354
227.8954, 2833.212
228.3775, 2852.472
228.8597, 2867.578
229.3418, 2884.605
229.8239, 2904.163
230.3060, 2925.460
230.7881, 2945.834
231.2702, 2965.306
231.7524, 2984.026
232.2345, 3001.480
232.7166, 3016.419
233.1987, 3033.715
233.6808, 3054.831
234.1629, 3077.841
234.6451, 3097.781
235.1272, 3112.638
235.6093, 3127.342
236.0914, 3144.410
236.5735, 3166.078
237.0556, 3185.104
237.5378, 3200.186
238.0199, 3213.151
238.5020, 3228.765
238.9841, 3249.565
239.4662, 3269.659
239.9483, 3286.570
240.4305, 3299.040
240.9126, 3311.031
241.3947, 3323.494
241.8768, 3335.126
242.3589, 3342.832
242.8410, 3346.436
243.3232, 3346.266
243.8053, 3342.480
244.2874, 3335.322
244.7695, 3323.720
245.2516, 3307.252
245.7337, 3286.468
246.2159, 3262.560
246.6980, 3235.461
247.1801, 3205.334
247.6622, 3171.901
248.1443, 3134.504
248.6264, 3095.161
249.1086, 3052.172
249.5907, 3007.854
250.0728, 2967.325
250.5549, 2933.017
251.0370, 2898.352
251.5191, 2860.032
252.0013, 2816.172
252.4834, 2776.042
252.9655, 2741.086
253.4476, 2709.275
253.9297, 2677.005
254.4118, 2643.816
254.8940, 2611.583
255.3761, 2580.994
255.8582, 2552.034
256.3403, 2524.220
256.8224, 2497.267
257.3046, 2471.677
257.7867, 2449.022
258.2688, 2429.920
258.7509, 2412.170
259.2330, 2395.606
259.7151, 2380.527
260.1973, 2364.163
260.6794, 2345.548
261.1615, 2326.990
261.6436, 2312.416
262.1257, 2302.589
262.6078, 2294.606
263.0900, 2287.820
263.5721, 2282.192
264.0542, 2277.516
264.5363, 2274.008
265.0184, 2271.073
265.5005, 2267.836
265.9827, 2264.217
266.4648, 2260.450
266.9469, 2256.125
267.4290, 2251.167
267.9111, 2248.919
268.3932, 2250.221
268.8754, 2252.932
269.3575, 2254.744
269.8396, 2255.561
270.3217, 2255.835
270.8038, 2255.194
271.2859, 2253.790
271.7681, 2254.780
272.2502, 2258.797
272.7323, 2263.917
273.2144, 2268.116
273.6965, 2271.257
274.1786, 2274.295
274.6608, 2277.211
275.1429, 2280.162
275.6250, 2284.501
276.1071, 2290.502
276.5892, 2297.108
277.0714, 2303.211
277.5535, 2308.774
278.0356, 2314.625
278.5177, 2321.227
278.9998, 2328.183
279.4819, 2333.868
279.9641, 2338.338
280.4462, 2341.650
280.9283, 2344.077
281.4104, 2345.649
281.8925, 2345.230
282.3746, 2342.226
282.8568, 2337.445
283.3389, 2333.279
283.8210, 2329.852
284.3031, 2325.938
284.7852, 2321.209
285.2673, 2315.583
285.7495, 2306.719
286.2316, 2293.251
286.7137, 2277.853
287.1958, 2267.189
287.6779, 2261.431
288.1600, 2254.204
288.6422, 2239.821
289.1243, 2219.417
289.6064, 2202.647
290.0885, 2190.644
290.5706, 2181.074
291.0527, 2170.254
291.5349, 2158.316
292.0170, 2146.833
292.4991, 2137.429
292.9812, 2129.345
293.4633, 2119.807
293.9454, 2108.324
294.4276, 2096.709
294.9097, 2087.667
295.3918, 2080.812
295.8739, 2074.289
296.3560, 2067.638
296.8381, 2060.635
297.3203, 2052.428
297.8024, 2042.826
298.2845, 2033.763
298.7666, 2027.557
299.2487, 2023.665
299.7308, 2020.279
300.2130, 2017.424
300.6951, 2014.341
301.1772, 2009.248
301.6593, 2002.189
302.1414, 1995.362
302.6235, 1991.136
303.1057, 1988.584
303.5878, 1985.914
304.0699, 1982.095
304.5520, 1978.202
305.0341, 1976.123
305.5162, 1975.580
305.9984, 1974.036
306.4805, 1967.936
306.9626, 1960.146
307.4447, 1955.022
307.9268, 1955.384
308.4089, 1956.418
308.8911, 1952.904
309.3732, 1946.003
309.8553, 1940.551
310.3374, 1941.235
310.8195, 1943.897
311.3016, 1944.209
311.7838, 1940.357
312.2659, 1936.007
312.7480, 1933.953
313.2301, 1933.332
313.7122, 1931.937
314.1943, 1926.883
314.6765, 1921.902
315.1586, 1919.961
315.6407, 1922.260
316.1228, 1924.902
316.6049, 1926.122
317.0870, 1926.459
317.5692, 1926.780
318.0513, 1928.162
318.5334, 1928.942
319.0155, 1927.606
319.4976, 1923.495
319.9797, 1920.985
320.4619, 1922.996
320.9440, 1926.801
321.4261, 1929.325
321.9082, 1928.774
322.3903, 1927.849
322.8724, 1927.399
323.3546, 1927.475
323.8367, 1927.295
324.3188, 1926.491
324.8009, 1925.543
325.2830, 1924.836
325.7651, 1923.538
326.2473, 1923.529
326.7294, 1925.977
327.2115, 1930.493
327.6936, 1933.813
328.1757, 1934.996
328.6578, 1935.500
329.1400, 1936.031
329.6221, 1936.417
330.1042, 1937.053
330.5863, 1938.167
331.0684, 1939.515
331.5505, 1940.398
332.0327, 1940.769
332.5148, 1940.672
332.9969, 1939.953
333.4790, 1938.085
333.9611, 1936.954
334.4432, 1936.410
334.9254, 1936.668
335.4075, 1938.342
335.8896, 1942.459
336.3717, 1945.964
336.8538, 1947.880
337.3359, 1948.142
337.8180, 1947.704
338.3001, 1946.226
338.7823, 1944.611
339.2644, 1944.011
339.7465, 1944.689
340.2286, 1945.246
340.7107, 1945.291
341.1928, 1944.915
341.6750, 1944.793
342.1571, 1944.936
342.6392, 1945.207
343.1213, 1945.693
343.6034, 1946.387
344.0855, 1946.400
344.5677, 1945.617
345.0498, 1943.996
345.5319, 1940.993
346.0140, 1936.547
346.4961, 1932.520
346.9782, 1930.165
347.4604, 1929.287
347.9425, 1929.014
348.4246, 1929.276
348.9067, 1930.175
349.3888, 1932.615
349.8709, 1936.205
350.3531, 1938.658
350.8352, 1938.297
351.3173, 1936.165
351.7994, 1933.756
352.2815, 1931.033
352.7636, 1929.329
353.2458, 1930.518
353.7279, 1933.677
354.2100, 1936.821
354.6921, 1939.198
355.1742, 1941.151
355.6563, 1943.273
356.1385, 1945.459
356.6206, 1946.890
357.1027, 1945.370
357.5848, 1943.358
358.0669, 1944.082
358.5490, 1950.709
359.0312, 1956.768
359.5133, 1956.302
359.9954, 1951.543
360.4775, 1949.441
360.9596, 1956.121
361.4417, 1964.755
361.9239, 1970.575
362.4060, 1971.947
362.8881, 1973.095
363.3702, 1976.566
363.8523, 1980.623
364.3344, 1982.603
364.8166, 1978.906
365.2987, 1975.555
365.7808, 1975.413
366.2629, 1979.107
366.7450, 1981.740
367.2271, 1981.496
367.7093, 1980.422
368.1914, 1980.312
368.6735, 1982.937
369.1556, 1984.793
369.6377, 1984.953
370.1198, 1983.673
370.6020, 1983.103
371.0841, 1983.400
371.5662, 1984.264
372.0483, 1985.542
372.5304, 1987.356
373.0125, 1989.430
373.4947, 1992.207
373.9768, 1995.052
374.4589, 1996.250
374.9410, 1994.748
375.4231, 1993.758
375.9052, 1994.656
376.3874, 1997.725
376.8695, 2000.646
377.3516, 2003.639
377.8337, 2006.182
378.3158, 2007.362
378.7979, 2006.927
379.2801, 2007.157
379.7622, 2008.964
380.2443, 2011.888
380.7264, 2013.596
381.2085, 2013.830
381.6906, 2014.556
382.1728, 2018.019
382.6549, 2023.741
383.1370, 2028.317
383.6191, 2030.766
384.1012, 2032.599
384.5833, 2036.524
385.0655, 2042.344
385.5476, 2048.475
386.0297, 2054.157
386.5118, 2059.570
386.9939, 2065.052
387.4760, 2070.558
387.9582, 2076.465
388.4403, 2083.513
388.9224, 2091.296
389.4045, 2098.900
389.8866, 2105.232
390.3687, 2111.805
390.8509, 2119.874
391.3330, 2129.337
391.8151, 2139.491
392.2972, 2150.494
392.7793, 2161.612
393.2614, 2172.130
393.7436, 2181.143
394.2257, 2190.349
394.7078, 2199.853
395.1899, 2209.971
395.6720, 2221.539
396.1541, 2235.818
396.6363, 2250.844
397.1184, 2265.788
397.6005, 2280.613
398.0826, 2295.258
398.5647, 2309.816
399.0468, 2324.174
399.5290, 2338.188
400.0111, 2351.366
400.4932, 2364.738
400.9753, 2378.492
401.4574, 2392.682
401.9395, 2406.891
402.4217, 2421.069
402.9038, 2435.399
403.3859, 2450.181
403.8680, 2466.208
404.3501, 2480.844
404.8322, 2493.917
405.3144, 2505.389
405.7965, 2514.363
406.2786, 2520.121
406.7607, 2525.926
407.2428, 2533.503
407.7249, 2542.965
408.2071, 2551.687
408.6892, 2559.979
409.1713, 2566.768
409.6534, 2570.332
410.1355, 2570.765
410.6176, 2570.357
411.0998, 2569.666
411.5819, 2568.658
412.0640, 2567.466
412.5461, 2566.073
413.0282, 2563.748
413.5103, 2559.612
413.9925, 2554.213
414.4746, 2548.740
414.9567, 2543.563
415.4388, 2537.772
415.9209, 2529.384
416.4030, 2519.528
416.8852, 2510.768
417.3673, 2504.438
417.8494, 2499.839
418.3315, 2496.840
418.8136, 2495.471
419.2957, 2493.946
419.7779, 2490.057
420.2600, 2486.041
420.7421, 2484.211
421.2242, 2487.210
421.7063, 2490.422
422.1884, 2492.574
422.6706, 2493.814
423.1527, 2494.742
423.6348, 2497.381
424.1169, 2498.258
424.5990, 2495.594
425.0811, 2487.919
425.5633, 2479.809
426.0454, 2471.450
426.5275, 2462.801
427.0096, 2453.718
427.4917, 2444.651
427.9738, 2434.563
428.4560, 2423.251
428.9381, 2410.630
429.4202, 2397.076
429.9023, 2382.675
430.3844, 2367.454
430.8665, 2351.455
431.3487, 2334.515
431.8308, 2317.534
432.3129, 2300.369
432.7950, 2283.451
433.2771, 2268.013
433.7592, 2254.189
434.2414, 2241.285
434.7235, 2229.243
435.2056, 2217.895
435.6877, 2206.182
436.1698, 2194.003
436.6519, 2183.007
437.1341, 2175.857
437.6162, 2171.380
438.0983, 2166.267
438.5804, 2159.297
439.0625, 2151.831
439.5446, 2145.187
440.0268, 2139.339
440.5089, 2134.141
440.9910, 2129.787
441.4731, 2125.927
441.9552, 2122.360
442.4373, 2119.230
442.9195, 2115.714
443.4016, 2110.867
443.8837, 2105.589
444.3658, 2100.974
444.8479, 2097.290
445.3300, 2094.383
445.8122, 2092.148
446.2943, 2090.615
446.7764, 2089.877
447.2585, 2090.906
447.7406, 2091.987
448.2227, 2092.257
448.7049, 2091.370
449.1870, 2090.293
449.6691, 2088.832
450.1512, 2087.280
450.6333, 2086.045
451.1154, 2084.878
451.5976, 2084.587
452.0797, 2085.767
452.5618, 2088.248
453.0439, 2089.308
453.5260, 2088.528
454.0081, 2087.560
454.4903, 2088.059
454.9724, 2089.985
455.4545, 2090.568
455.9366, 2089.017
456.4187, 2086.942
456.9008, 2087.624
457.3830, 2090.679
457.8651, 2093.060
458.3472, 2091.665
458.8293, 2089.183
459.3114, 2091.426
459.7935, 2098.363
460.2757, 2105.135
460.7578, 2107.092
461.2399, 2106.629
461.7220, 2107.018
462.2041, 2109.171
462.6862, 2112.260
463.1684, 2116.540
463.6505, 2121.376
464.1326, 2125.205
464.6147, 2126.771
465.0968, 2127.681
465.5789, 2128.709
466.0611, 2129.972
466.5432, 2130.845
467.0253, 2131.203
467.5074, 2131.081
467.9895, 2130.495
468.4716, 2128.350
468.9538, 2127.166
469.4359, 2127.860
469.9180, 2129.628
470.4001, 2129.669
470.8822, 2126.719
471.3643, 2124.402
471.8465, 2124.848
472.3286, 2128.627
472.8107, 2129.040
473.2928, 2125.234
473.7749, 2120.273
474.2570, 2118.084
474.7392, 2118.653
475.2213, 2117.403
475.7034, 2112.244
476.1855, 2106.045
476.6676, 2106.035
477.1497, 2111.503
477.6319, 2115.778
478.1140, 2113.821
478.5961, 2108.395
479.0782, 2103.621
479.5603, 2099.700
480.0424, 2097.189
480.5246, 2097.552
481.0067, 2099.325
481.4888, 2100.416
481.9709, 2099.556
482.4530, 2098.533
482.9352, 2098.492
483.4173, 2099.066
483.8994, 2099.110
484.3815, 2098.308
484.8636, 2096.819
485.3457, 2094.389
485.8279, 2090.424
486.3100, 2087.710
486.7921, 2087.129
487.2742, 2087.561
487.7563, 2088.173
488.2384, 2089.990
488.7206, 2090.134
489.2027, 2087.542
489.6848, 2083.185
490.1669, 2080.694
490.6490, 2080.659
491.1311, 2080.804
491.6133, 2079.634
492.0954, 2077.202
492.5775, 2077.255
493.0596, 2080.335
493.5417, 2083.663
494.0238, 2083.872
494.5060, 2081.570
494.9881, 2079.552
495.4702, 2078.674
495.9523, 2078.167
496.4344, 2076.522
496.9165, 2074.179
497.3987, 2072.796
497.8808, 2073.994
498.3629, 2076.146
498.8450, 2077.604
499.3271, 2078.204
499.8092, 2079.033
500.2914, 2081.415
500.7735, 2083.917
501.2556, 2085.228
501.7377, 2083.724
502.2198, 2082.498
502.7019, 2082.668
503.1841, 2083.615
503.6662, 2083.660
504.1483, 2082.139
504.6304, 2080.259
505.1125, 2078.169
505.5946, 2075.799
506.0768, 2074.280
506.5589, 2073.847
507.0410, 2073.995
507.5231, 2074.471
508.0052, 2075.397
508.4873, 2075.940
508.9695, 2075.918
509.4516, 2075.632
509.9337, 2075.356
510.4158, 2075.128
510.8979, 2075.748
511.3800, 2078.199
511.8622, 2081.521
512.3443, 2083.823
512.8264, 2085.064
513.3085, 2085.156
513.7906, 2082.482
514.2728, 2079.180
514.7549, 2078.583
515.2370, 2082.463
515.7191, 2085.585
516.2012, 2083.361
516.6833, 2078.552
517.1655, 2075.357
517.6476, 2076.820
518.1297, 2078.477
518.6118, 2078.698
519.0939, 2077.598
519.5760, 2076.822
520.0582, 2077.123
520.5403, 2077.318
521.0224, 2076.801
521.5045, 2075.055
521.9866, 2074.049
522.4688, 2073.805
522.9509, 2074.243
523.4330, 2075.487
523.9151, 2077.763
524.3972, 2079.480
524.8793, 2080.046
525.3615, 2080.017
525.8436, 2081.092
526.3257, 2083.253
526.8078, 2085.112
527.2899, 2085.595
527.7720, 2085.265
528.2542, 2085.435
528.7363, 2086.185
529.2184, 2086.995
529.7005, 2087.670
530.1826, 2088.065
530.6647, 2087.908
531.1469, 2086.765
531.6290, 2085.658
532.1111, 2085.131
532.5932, 2085.046
533.0753, 2085.123
533.5574, 2084.722
534.0396, 2084.980
534.5217, 2086.982
535.0038, 2090.899
535.4859, 2092.635
535.9680, 2090.091
536.4501, 2087.274
536.9323, 2086.508
537.4144, 2088.493
537.8965, 2090.656
538.3786, 2093.194
538.8607, 2095.592
539.3428, 2097.220
539.8250, 2098.146
540.3071, 2097.541
540.7892, 2094.253
541.2713, 2090.061
541.7534, 2090.180
542.2355, 2094.222
542.7177, 2097.968
543.1998, 2098.236
543.6819, 2096.724
544.1640, 2096.025
544.6461, 2096.362
545.1282, 2096.878
545.6104, 2096.690
546.0925, 2096.451
546.5746, 2096.971
547.0567, 2099.629
547.5388, 2101.429
548.0209, 2100.445
548.5031, 2097.910
548.9852, 2096.523
549.4673, 2097.106
549.9494, 2098.474
550.4315, 2100.847
550.9136, 2104.217
551.3958, 2105.809
551.8779, 2104.719
552.3600, 2103.389
552.8421, 2103.484
553.3242, 2105.194
553.8063, 2106.617
554.2885, 2107.760
554.7706, 2108.382
555.2527, 2107.722
555.7348, 2106.045
556.2169, 2104.982
556.6990, 2105.015
557.1812, 2105.921
557.6633, 2108.161
558.1454, 2111.228
558.6275, 2113.219
559.1096, 2111.720
559.5917, 2109.602
560.0739, 2109.389
560.5560, 2111.286
561.0381, 2113.167
561.5202, 2114.489
562.0023, 2115.257
562.4844, 2115.405
562.9666, 2113.817
563.4487, 2113.292
563.9308, 2114.398
564.4129, 2116.416
564.8950, 2118.361
565.3771, 2120.405
565.8593, 2121.812
566.3414, 2121.996
566.8235, 2121.434
567.3056, 2123.038
567.7877, 2127.266
568.2698, 2130.116
568.7520, 2127.685
569.2341, 2121.747
569.7162, 2119.182
570.1983, 2120.333
570.6804, 2123.103
571.1625, 2127.451
571.6447, 2131.651
572.1268, 2132.382
572.6089, 2127.008
573.0910, 2122.110
573.5731, 2123.176
574.0552, 2127.415
574.5374, 2129.964
575.0195, 2126.928
575.5016, 2124.322
575.9837, 2124.813
576.4658, 2128.104
576.9479, 2129.718
577.4301, 2128.205
577.9122, 2126.615
578.3943, 2126.145
578.8764, 2126.842
579.3585, 2128.673
579.8406, 2132.089
580.3228, 2135.625
580.8049, 2137.476
581.2870, 2137.739
581.7691, 2138.620
582.2512, 2140.582
582.7333, 2142.993
583.2155, 2145.561
583.6976, 2147.854
584.1797, 2148.677
584.6617, 2145.168
585.1439, 2141.542
585.6260, 2141.901
586.1081, 2145.677
586.5902, 2150.002
587.0723, 2155.411
587.5544, 2159.498
588.0366, 2160.420
588.5187, 2157.009
589.0008, 2154.754
589.4829, 2155.947
589.9650, 2157.463
590.4471, 2156.753
590.9293, 2152.021
591.4114, 2149.389
591.8935, 2149.765
592.3756, 2151.856
592.8577, 2153.522
593.3398, 2154.751
593.8220, 2155.640
594.3041, 2156.272
594.7862, 2156.538
595.2683, 2155.738
595.7504, 2154.085
596.2325, 2153.090
596.7147, 2154.430
597.1968, 2156.570
597.6789, 2157.595
598.1610, 2157.359
598.6431, 2157.382
599.1252, 2159.435
599.6074, 2161.591
600.0895, 2162.100
600.5716, 2158.821
601.0537, 2157.126
601.5358, 2159.089
602.0179, 2162.585
602.5001, 2164.996
602.9822, 2166.324
603.4643, 2166.372
603.9464, 2164.502
604.4285, 2161.535
604.9106, 2160.242
605.3928, 2160.747
605.8749, 2161.643
606.3570, 2162.112
606.8391, 2162.424
607.3212, 2163.881
607.8033, 2166.405
608.2855, 2168.433
608.7676, 2168.231
609.2497, 2167.028
609.7318, 2166.311
610.2139, 2166.298
610.6960, 2166.799
611.1782, 2168.325
611.6603, 2170.039
612.1424, 2171.071
612.6245, 2170.664
613.1066, 2170.240
613.5887, 2170.192
614.0709, 2170.220
614.5530, 2169.628
615.0351, 2168.016
615.5172, 2166.673
615.9993, 2165.911
616.4814, 2165.712
616.9636, 2166.056
617.4457, 2167.007
617.9278, 2167.948
618.4099, 2169.055
618.8920, 2169.817
619.3741, 2168.159
619.8563, 2163.953
620.3384, 2160.297
620.8205, 2160.306
621.3026, 2162.052
621.7847, 2163.211
622.2668, 2163.139
622.7490, 2162.865
623.2311, 2162.853
623.7132, 2162.885
624.1953, 2162.683
624.6774, 2162.485
625.1595, 2161.625
625.6417, 2159.142
626.1238, 2156.096
626.6059, 2155.865
627.0880, 2159.605
627.5701, 2162.667
628.0522, 2162.977
628.5344, 2161.294
629.0165, 2161.666
629.4986, 2164.144
629.9807, 2166.609
630.4628, 2167.319
630.9449, 2167.022
631.4271, 2166.985
631.9092, 2167.281
632.3913, 2168.051
632.8734, 2169.915
633.3555, 2172.021
633.8376, 2173.544
634.3198, 2174.283
634.8019, 2174.369
635.2840, 2172.963
635.7661, 2171.196
636.2482, 2170.737
636.7303, 2173.258
637.2125, 2174.212
637.6946, 2172.147
638.1767, 2168.483
638.6588, 2167.596
639.1409, 2169.975
639.6230, 2171.760
640.1052, 2170.875
640.5873, 2168.514
641.0694, 2168.668
641.5515, 2171.132
642.0336, 2173.241
642.5157, 2172.533
642.9979, 2170.876
643.4800, 2170.493
643.9621, 2171.635
644.4442, 2172.942
644.9263, 2173.975
645.4084, 2174.753
645.8906, 2175.230
646.3727, 2174.970
646.8548, 2175.082
647.3369, 2175.139
647.8190, 2175.802
648.3011, 2178.171
648.7833, 2183.137
649.2654, 2186.640
649.7475, 2187.842
650.2296, 2187.496
650.7117, 2186.586
651.1938, 2185.246
651.6760, 2185.377
652.1581, 2189.041
652.6402, 2193.626
653.1223, 2195.026
653.6044, 2193.792
654.0865, 2192.261
654.5687, 2191.541
655.0508, 2191.172
655.5329, 2190.880
656.0150, 2190.658
656.4971, 2190.610
656.9792, 2190.498
657.4614, 2190.797
657.9435, 2191.909
658.4256, 2194.335
658.9077, 2195.701
659.3898, 2195.738
659.8719, 2195.138
660.3541, 2194.300
660.8362, 2193.246
661.3183, 2193.202
661.8004, 2194.552
662.2825, 2196.283
662.7646, 2197.355
663.2468, 2197.769
663.7289, 2197.468
664.2110, 2195.781
664.6931, 2194.239
665.1752, 2194.517
665.6573, 2195.790
666.1395, 2196.073
666.6216, 2193.062
667.1037, 2190.769
667.5858, 2190.550
668.0679, 2192.223
668.5500, 2194.957
669.0322, 2199.920
669.5143, 2203.645
669.9964, 2204.332
670.4785, 2202.147
670.9606, 2199.710
671.4427, 2196.900
671.9249, 2194.756
672.4070, 2193.799
672.8891, 2194.131
673.3712, 2196.562
673.8533, 2201.389
674.3354, 2205.730
674.8176, 2207.181
675.2997, 2207.267
675.7818, 2207.537
676.2639, 2208.274
676.7460, 2209.369
677.2281, 2211.755
677.7103, 2214.079
678.1924, 2214.479
678.6745, 2211.418
679.1566, 2209.839
679.6387, 2210.484
680.1208, 2212.855
680.6030, 2216.184
681.0851, 2220.402
681.5672, 2224.851
682.0493, 2229.831
682.5314, 2234.285
683.0135, 2235.385
683.4957, 2233.989
683.9778, 2233.487
684.4599, 2237.095
684.9420, 2241.117
685.4241, 2242.436
685.9063, 2241.238
686.3884, 2241.594
686.8705, 2246.070
687.3526, 2251.000
687.8347, 2254.688
688.3168, 2256.867
688.7990, 2259.703
689.2811, 2262.868
689.7632, 2267.604
690.2453, 2275.619
690.7274, 2286.663
691.2095, 2296.270
691.6917, 2303.942
692.1738, 2311.548
692.6559, 2321.295
693.1380, 2332.051
693.6201, 2341.836
694.1022, 2350.026
694.5844, 2357.505
695.0665, 2364.412
695.5486, 2370.905
696.0307, 2377.224
696.5128, 2387.603
696.9949, 2392.098
697.4771, 2388.141
697.9592, 2378.637
698.4413, 2369.139
698.9234, 2359.703
699.4055, 2350.041
699.8876, 2339.806
700.3698, 2329.542
700.8519, 2319.900
701.3340, 2311.192
701.8161, 2305.773
702.2982, 2306.112
702.7803, 2309.577
703.2625, 2313.345
703.7446, 2317.688
704.2267, 2323.867
704.7088, 2334.091
705.1909, 2344.963
705.6730, 2354.338
706.1552, 2361.945
706.6373, 2371.342
707.1194, 2383.686
707.6015, 2396.222
708.0836, 2407.365
708.5657, 2416.985
709.0479, 2426.186
709.5300, 2434.840
710.0121, 2443.521
710.4942, 2453.660
710.9763, 2464.011
711.4584, 2471.598
711.9406, 2475.701
712.4227, 2479.120
712.9048, 2483.993
713.3869, 2489.255
713.8690, 2494.017
714.3511, 2499.408
714.8333, 2501.868
715.3154, 2498.028
715.7975, 2492.430
716.2796, 2490.377
716.7617, 2494.450
717.2438, 2494.548
717.7260, 2488.802
718.2081, 2479.784
718.6902, 2472.375
719.1723, 2466.116
719.6544, 2457.591
720.1365, 2444.757
720.6187, 2430.725
721.1008, 2418.767
721.5829, 2408.410
722.0650, 2398.253
722.5471, 2386.590
723.0292, 2376.125
723.5114, 2368.181
723.9935, 2362.542
724.4756, 2358.247
724.9577, 2355.547
725.4398, 2353.548
725.9219, 2351.492
726.4041, 2349.900
726.8862, 2352.272
727.3683, 2358.918
727.8504, 2366.600
728.3325, 2374.493
728.8146, 2381.966
729.2968, 2386.385
729.7789, 2388.249
730.2610, 2391.850
730.7431, 2400.746
731.2252, 2411.787
731.7073, 2422.796
732.1895, 2433.515
732.6716, 2444.824
733.1537, 2455.347
733.6358, 2467.848
734.1179, 2484.160
734.6000, 2504.891
735.0822, 2525.807
735.5643, 2547.039
736.0464, 2568.272
736.5285, 2589.671
737.0106, 2610.888
737.4927, 2630.500
737.9749, 2648.315
738.4570, 2665.329
738.9391, 2683.622
739.4212, 2700.917
739.9033, 2715.395
740.3854, 2729.409
740.8676, 2733.893
741.3497, 2722.218
741.8318, 2701.844
742.3139, 2680.700
742.7960, 2660.590
743.2781, 2635.038
743.7603, 2601.792
744.2424, 2565.952
744.7245, 2534.480
745.2066, 2507.252
745.6887, 2481.271
746.1708, 2455.549
746.6530, 2431.270
747.1351, 2409.188
747.6172, 2389.483
748.0993, 2372.705
748.5814, 2360.976
749.0635, 2349.971
749.5457, 2337.974
750.0278, 2325.593
750.5099, 2314.333
750.9920, 2303.564
751.4741, 2295.153
751.9562, 2290.436
752.4384, 2287.652
752.9205, 2282.170
753.4026, 2274.067
753.8847, 2266.185
754.3668, 2259.327
754.8489, 2253.707
755.3311, 2250.012
755.8132, 2247.835
756.2953, 2246.090
756.7774, 2244.844
757.2595, 2243.309
757.7416, 2240.551
758.2238, 2236.990
758.7059, 2234.801
759.1880, 2235.378
759.6701, 2235.200
760.1522, 2232.781
760.6343, 2228.760
761.1165, 2226.659
761.5986, 2226.564
762.0807, 2226.684
762.5628, 2225.975
763.0449, 2224.858
763.5270, 2224.137
764.0092, 2223.715
764.4913, 2223.085
764.9734, 2221.931
765.4555, 2220.515
765.9376, 2218.679
766.4197, 2216.425
766.9019, 2215.372
767.3840, 2215.962
767.8661, 2217.276
768.3482, 2219.524
768.8303, 2222.589
769.3124, 2222.150
769.7946, 2217.897
770.2767, 2214.076
770.7588, 2214.408
771.2409, 2216.937
771.7230, 2218.110
772.2051, 2217.836
772.6873, 2217.674
773.1694, 2218.792
773.6515, 2220.119
774.1336, 2221.089
774.6157, 2221.696
775.0978, 2221.273
775.5800, 2218.831
776.0621, 2216.676
776.5442, 2216.202
777.0263, 2217.465
777.5084, 2219.397
777.9905, 2222.153
778.4727, 2224.124
778.9548, 2223.704
779.4369, 2221.644
779.9190, 2218.762
780.4011, 2215.116
780.8832, 2212.400
781.3654, 2212.267
781.8475, 2213.039
782.3296, 2213.589
782.8117, 2213.851
783.2938, 2213.660
783.7759, 2212.601
784.2581, 2211.729
784.7402, 2211.971
785.2223, 2213.339
785.7044, 2214.899
786.1865, 2216.732
786.6686, 2217.572
787.1508, 2214.882
787.6329, 2210.865
788.1150, 2208.840
788.5971, 2209.369
789.0792, 2211.282
789.5613, 2216.283
790.0435, 2220.884
790.5256, 2221.893
791.0077, 2217.114
791.4898, 2214.284
791.9719, 2213.925
792.4540, 2214.654
792.9362, 2215.530
793.4183, 2216.508
793.9004, 2216.991
794.3825, 2217.002
794.8646, 2216.132
795.3467, 2212.790
795.8289, 2208.866
796.3110, 2207.280
796.7931, 2209.179
797.2752, 2210.559
797.7573, 2209.406
798.2394, 2207.552
798.7216, 2206.443
799.2037, 2205.935
799.6858, 2206.775
800.1679, 2209.424
800.6500, 2212.350
801.1321, 2214.145
801.6143, 2214.901
802.0964, 2214.894
802.5785, 2214.008
803.0606, 2213.563
803.5427, 2216.017
804.0248, 2218.861
804.5070, 2218.884
804.9891, 2213.974
805.4712, 2210.972
805.9533, 2213.696
806.4354, 2217.102
806.9175, 2217.423
807.3997, 2213.816
807.8818, 2210.844
808.3639, 2208.703
808.8460, 2207.067
809.3281, 2205.881
809.8102, 2204.934
810.2924, 2203.416
810.7745, 2201.096
811.2566, 2199.453
811.7387, 2200.284
812.2208, 2201.814
812.7029, 2202.327
813.1851, 2200.800
813.6672, 2200.301
814.1493, 2201.069
814.6314, 2202.701
815.1135, 2205.209
815.5956, 2208.678
816.0778, 2210.893
816.5599, 2211.671
817.0420, 2211.977
817.5241, 2212.887
818.0062, 2213.876
818.4883, 2213.887
818.9705, 2212.614
819.4526, 2211.879
819.9347, 2212.719
820.4168, 2214.289
820.8989, 2216.179
821.3810, 2218.651
821.8632, 2220.204
822.3453, 2220.788
822.8274, 2220.581
823.3095, 2219.355
823.7916, 2217.361
824.2737, 2215.854
824.7559, 2214.876
825.2380, 2214.925
825.7201, 2217.599
826.2022, 2220.764
826.6843, 2222.129
827.1664, 2221.242
827.6486, 2220.445
828.1307, 2219.794
828.6128, 2219.838
829.0949, 2220.898
829.5770, 2223.004
830.0591, 2225.709
830.5413, 2229.085
831.0234, 2232.557
831.5055, 2236.277
831.9876, 2239.587
832.4697, 2240.271
832.9518, 2238.532
833.4340, 2238.438
833.9161, 2244.584
834.3982, 2251.259
834.8803, 2254.476
835.3624, 2253.658
835.8445, 2254.356
836.3267, 2257.053
836.8088, 2260.351
837.2909, 2263.846
837.7730, 2267.411
838.2551, 2269.805
838.7372, 2271.163
839.2194, 2273.288
839.7015, 2278.747
840.1836, 2284.565
840.6657, 2288.041
841.1478, 2289.262
841.6299, 2289.051
842.1121, 2287.088
842.5942, 2284.275
843.0763, 2280.464
843.5584, 2275.983
844.0405, 2273.080
844.5226, 2272.022
845.0048, 2270.355
845.4869, 2267.033
845.9690, 2262.318
846.4511, 2255.507
846.9332, 2247.579
847.4153, 2241.905
847.8975, 2241.828
848.3796, 2242.641
848.8617, 2242.359
849.3438, 2241.162
849.8259, 2239.854
850.3080, 2238.393
850.7902, 2237.038
851.2723, 2235.871
851.7544, 2234.909
852.2365, 2234.071
852.7186, 2233.441
853.2007, 2233.478
853.6829, 2234.809
854.1650, 2236.137
854.6471, 2235.610
855.1292, 2234.465
855.6113, 2234.788
856.0934, 2240.274
856.5756, 2242.874
857.0577, 2239.610
857.5398, 2234.765
858.0219, 2235.438
858.5040, 2242.085
858.9861, 2245.359
859.4683, 2243.210
859.9504, 2239.149
860.4325, 2237.190
860.9146, 2236.441
861.3967, 2235.334
861.8788, 2233.065
862.3610, 2231.545
862.8431, 2232.109
863.3252, 2233.392
863.8073, 2234.128
864.2894, 2234.229
864.7715, 2234.041
865.2537, 2233.488
865.7358, 2232.981
866.2179, 2233.319
866.7000, 2234.016
867.1821, 2233.466
867.6642, 2231.470
868.1464, 2229.717
868.6285, 2228.889
869.1106, 2229.083
869.5927, 2230.548
870.0748, 2233.626
870.5569, 2236.626
871.0391, 2240.105
871.5212, 2242.374
872.0033, 2241.809
872.4854, 2238.874
872.9675, 2237.081
873.4496, 2236.365
873.9318, 2236.654
874.4139, 2238.826
874.8960, 2241.206
875.3781, 2242.455
875.8602, 2242.544
876.3423, 2241.783
876.8245, 2238.730
877.3066, 2236.703
877.7887, 2237.059
878.2708, 2239.081
878.7529, 2239.507
879.2350, 2238.359
879.7172, 2237.770
880.1993, 2239.065
880.6814, 2240.982
881.1635, 2241.946
881.6456, 2242.250
882.1277, 2242.551
882.6099, 2243.577
883.0920, 2244.077
883.5741, 2243.015
884.0562, 2241.563
884.5383, 2241.773
885.0204, 2243.993
885.5026, 2245.627
885.9847, 2246.107
886.4668, 2246.151
886.9489, 2246.322
887.4310, 2246.863
887.9131, 2248.474
888.3953, 2251.877
888.8774, 2254.719
889.3595, 2255.571
889.8416, 2255.578
890.3237, 2255.813
890.8058, 2256.277
891.2880, 2257.168
891.7701, 2258.786
892.2522, 2259.836
892.7343, 2257.962
893.2164, 2254.749
893.6985, 2254.963
894.1807, 2258.940
894.6628, 2263.100
895.1449, 2265.313
895.6270, 2266.744
896.1091, 2268.537
896.5912, 2270.838
897.0734, 2270.284
897.5555, 2264.765
898.0376, 2261.561
898.5197, 2265.801
899.0018, 2274.535
899.4839, 2276.184
899.9661, 2271.963
900.4482, 2268.949
900.9303, 2272.411
901.4124, 2277.122
901.8945, 2279.695
902.3766, 2280.730
902.8588, 2282.534
903.3409, 2286.485
903.8230, 2288.923
904.3051, 2288.519
904.7872, 2287.110
905.2693, 2289.046
905.7515, 2293.614
906.2336, 2296.373
906.7157, 2295.591
907.1978, 2294.039
907.6799, 2293.677
908.1620, 2294.093
908.6442, 2294.802
909.1263, 2295.747
909.6084, 2296.934
910.0905, 2298.416
910.5726, 2300.073
911.0547, 2301.691
911.5369, 2303.351
912.0190, 2306.469
912.5011, 2311.240
912.9832, 2314.675
913.4653, 2311.896
913.9474, 2308.262
914.4296, 2309.544
914.9117, 2316.493
915.3938, 2321.957
915.8759, 2323.912
916.3580, 2325.528
916.8401, 2328.245
917.3223, 2331.635
917.8044, 2333.106
918.2865, 2332.730
918.7686, 2332.270
919.2507, 2332.387
919.7328, 2333.074
920.2150, 2335.034
920.6971, 2337.545
921.1792, 2338.866
921.6613, 2337.105
922.1434, 2336.097
922.6255, 2336.804
923.1077, 2338.187
923.5898, 2338.772
924.0719, 2338.525
924.5540, 2336.374
925.0361, 2331.659
925.5182, 2326.806
926.0004, 2323.264
926.4825, 2321.386
926.9646, 2322.045
927.4467, 2327.067
927.9288, 2329.592
928.4109, 2328.250
928.8931, 2325.142
929.3752, 2321.516
929.8573, 2317.394
930.3394, 2312.362
930.8215, 2306.477
931.3036, 2301.554
931.7858, 2299.731
932.2679, 2299.011
932.7500, 2297.873
933.2321, 2296.187
933.7142, 2293.386
934.1964, 2288.066
934.6785, 2283.409
935.1606, 2280.298
935.6427, 2278.372
936.1248, 2276.999
936.6069, 2276.048
937.0891, 2274.192
937.5712, 2270.280
938.0533, 2266.510
938.5354, 2265.078
939.0175, 2265.103
939.4996, 2265.340
939.9818, 2265.970
940.4639, 2266.035
940.9460, 2265.579
941.4281, 2264.444
941.9102, 2261.985
942.3923, 2258.459
942.8745, 2256.491
943.3566, 2256.300
943.8387, 2256.344
944.3208, 2255.014
944.8029, 2253.640
945.2850, 2253.527
945.7672, 2254.834
946.2493, 2255.974
946.7314, 2257.902
947.2135, 2257.554
947.6956, 2252.509
948.1777, 2244.834
948.6599, 2242.695
949.1420, 2245.312
949.6241, 2248.406
950.1062, 2250.618
950.5883, 2251.873
951.0704, 2251.538
951.5526, 2250.339
952.0347, 2249.723
952.5168, 2250.686
952.9989, 2250.235
953.4810, 2247.490
953.9631, 2244.587
954.4453, 2244.997
954.9274, 2247.531
955.4095, 2247.494
955.8916, 2244.043
956.3737, 2241.226
956.8558, 2242.650
957.3380, 2244.997
957.8201, 2245.656
958.3022, 2244.351
958.7843, 2243.680
959.2664, 2243.681
959.7485, 2244.184
960.2307, 2245.509
960.7128, 2247.000
961.1949, 2246.625
961.6770, 2244.965
962.1591, 2244.054
962.6412, 2246.828
963.1234, 2248.342
963.6055, 2245.546
964.0876, 2240.652
964.5697, 2237.264
965.0518, 2235.672
965.5339, 2234.661
966.0161, 2234.216
966.4982, 2233.949
966.9803, 2232.859
967.4624, 2231.820
967.9445, 2232.795
968.4266, 2236.432
968.9088, 2238.882
969.3909, 2237.534
969.8730, 2235.664
970.3551, 2234.847
970.8372, 2235.031
971.3193, 2235.613
971.8015, 2236.575
972.2836, 2237.591
972.7657, 2238.664
973.2478, 2239.497
973.7299, 2239.403
974.2120, 2238.814
974.6942, 2238.812
975.1763, 2240.945
975.6584, 2241.856
976.1405, 2239.882
976.6226, 2237.882
977.1047, 2241.485
977.5869, 2249.873
978.0690, 2252.741
978.5511, 2248.075
979.0332, 2243.215
979.5153, 2245.306
979.9974, 2249.410
980.4796, 2250.762
980.9617, 2248.358
981.4438, 2247.181
981.9259, 2247.475
982.4080, 2248.928
982.8901, 2252.335
983.3723, 2256.334
983.8544, 2255.652
984.3365, 2251.423
984.8186, 2248.375
985.3007, 2249.874
985.7828, 2251.926
986.2650, 2252.454
986.7471, 2252.339
987.2292, 2253.314
987.7113, 2256.187
988.1934, 2256.706
988.6755, 2253.914
989.1577, 2250.973
989.6398, 2252.554
990.1219, 2255.948
990.6040, 2255.829
991.0861, 2251.546
991.5682, 2248.784
992.0504, 2252.462
992.5325, 2255.396
993.0146, 2253.934
993.4967, 2249.071
993.9788, 2245.962
994.4609, 2244.636
994.9431, 2244.344
995.4252, 2245.518
995.9073, 2246.545
996.3894, 2245.214
996.8715, 2242.686
997.3536, 2240.824
997.8358, 2240.000
998.3179, 2240.208
998.8000, 2241.903
999.2821, 2243.840
999.7642, 2244.178
1000.246, 2243.522
1000.728, 2245.948
1001.211, 2251.498
1001.693, 2256.115
1002.175, 2256.779
1002.657, 2255.922
1003.139, 2254.274
1003.621, 2252.247
1004.103, 2252.310
1004.585, 2255.184
1005.068, 2257.424
1005.550, 2258.120
1006.032, 2257.694
1006.514, 2255.612
1006.996, 2253.207
1007.478, 2253.479
1007.960, 2258.886
1008.442, 2262.922
1008.924, 2262.813
1009.407, 2261.299
1009.889, 2259.716
1010.371, 2258.022
1010.853, 2258.222
1011.335, 2260.337
1011.817, 2262.538
1012.299, 2263.688
1012.781, 2264.298
1013.263, 2264.794
1013.746, 2265.147
1014.228, 2265.198
1014.710, 2264.599
1015.192, 2264.328
1015.674, 2264.600
1016.156, 2265.151
1016.638, 2265.428
1017.120, 2265.656
1017.603, 2266.851
1018.085, 2269.397
1018.567, 2271.053
1019.049, 2268.760
1019.531, 2266.588
1020.013, 2267.932
1020.495, 2272.577
1020.977, 2274.703
1021.459, 2274.118
1021.942, 2272.533
1022.424, 2270.044
1022.906, 2267.821
1023.388, 2267.722
1023.870, 2269.039
1024.352, 2270.372
1024.834, 2271.515
1025.316, 2272.406
1025.799, 2273.126
1026.281, 2273.583
1026.763, 2273.249
1027.245, 2272.440
1027.727, 2273.470
1028.209, 2276.401
1028.691, 2279.313
1029.173, 2280.752
1029.656, 2281.838
1030.138, 2283.038
1030.620, 2284.466
1031.102, 2286.658
1031.584, 2289.875
1032.066, 2292.718
1032.548, 2294.879
1033.030, 2296.387
1033.512, 2295.905
1033.995, 2295.211
1034.477, 2297.982
1034.959, 2306.438
1035.441, 2312.861
1035.923, 2314.554
1036.405, 2314.649
1036.887, 2314.386
1037.369, 2313.901
1037.851, 2314.405
1038.334, 2315.842
1038.816, 2317.561
1039.298, 2318.165
1039.780, 2320.026
1040.262, 2327.271
1040.744, 2336.283
1041.226, 2339.269
1041.708, 2332.193
1042.191, 2331.057
1042.673, 2337.920
1043.155, 2347.257
1043.637, 2353.432
1044.119, 2358.170
1044.601, 2364.302
1045.083, 2372.114
1045.565, 2380.784
1046.047, 2390.901
1046.530, 2400.708
1047.012, 2408.649
1047.494, 2416.398
1047.976, 2429.220
1048.458, 2446.703
1048.940, 2464.076
1049.422, 2480.017
1049.904, 2495.915
1050.386, 2512.438
1050.869, 2529.874
1051.351, 2548.502
1051.833, 2568.125
1052.315, 2589.966
1052.797, 2614.295
1053.279, 2639.808
1053.761, 2666.343
1054.243, 2693.742
1054.726, 2721.521
1055.208, 2750.075
1055.690, 2780.490
1056.172, 2812.439
1056.654, 2847.705
1057.136, 2888.009
1057.618, 2929.774
1058.100, 2969.438
1058.583, 3006.976
1059.065, 3042.764
1059.547, 3076.787
1060.029, 3106.768
1060.511, 3131.213
1060.993, 3150.256
1061.475, 3164.169
1061.957, 3172.563
1062.439, 3173.577
1062.922, 3167.333
1063.404, 3152.812
1063.886, 3129.462
1064.368, 3098.887
1064.850, 3060.712
1065.332, 3017.353
1065.814, 2970.643
1066.296, 2919.388
1066.778, 2874.180
1067.261, 2837.650
1067.743, 2803.341
1068.225, 2766.984
1068.707, 2730.643
1069.189, 2702.147
1069.671, 2680.649
1070.153, 2663.594
1070.635, 2651.284
1071.118, 2641.504
1071.600, 2633.327
1072.082, 2627.719
1072.564, 2625.944
1073.046, 2628.165
1073.528, 2631.822
1074.010, 2636.736
1074.492, 2645.070
1074.974, 2660.497
1075.457, 2678.289
1075.939, 2693.276
1076.421, 2706.739
1076.903, 2725.162
1077.385, 2750.448
1077.867, 2775.499
1078.349, 2798.773
1078.831, 2822.070
1079.313, 2846.484
1079.796, 2873.082
1080.278, 2904.551
1080.760, 2941.749
1081.242, 2978.600
1081.724, 3012.097
1082.206, 3046.285
1082.688, 3082.485
1083.170, 3119.714
1083.652, 3154.806
1084.135, 3187.916
1084.617, 3219.003
1085.099, 3250.336
1085.581, 3273.898
1086.063, 3284.435
1086.545, 3284.725
1087.027, 3277.955
1087.509, 3264.280
1087.992, 3244.299
1088.474, 3217.899
1088.956, 3187.464
1089.438, 3151.683
1089.920, 3114.971
1090.402, 3079.875
1090.884, 3047.249
1091.366, 3019.076
1091.849, 2995.402
1092.331, 2976.104
1092.813, 2960.933
1093.295, 2950.552
1093.777, 2946.139
1094.259, 2946.783
1094.741, 2951.388
1095.223, 2959.523
1095.705, 2968.973
1096.188, 2979.663
1096.670, 2990.578
1097.152, 3001.921
1097.634, 3012.978
1098.116, 3022.982
1098.598, 3031.856
1099.080, 3039.405
1099.562, 3045.982
1100.044, 3047.846
1100.527, 3042.513
1101.009, 3031.497
1101.491, 3015.575
1101.973, 2994.977
1102.455, 2970.291
1102.937, 2941.406
1103.419, 2907.873
1103.901, 2869.017
1104.384, 2827.394
1104.866, 2784.621
1105.348, 2741.849
1105.830, 2700.063
1106.312, 2660.046
1106.794, 2619.120
1107.276, 2576.059
1107.758, 2535.923
1108.240, 2500.219
1108.723, 2469.919
1109.205, 2446.959
1109.687, 2429.587
1110.169, 2413.575
1110.651, 2395.977
1111.133, 2382.219
1111.615, 2373.490
1112.097, 2366.906
1112.579, 2360.372
1113.062, 2353.754
1113.544, 2346.075
1114.026, 2337.560
1114.508, 2330.132
1114.990, 2324.603
1115.472, 2320.584
1115.954, 2318.022
1116.436, 2316.845
1116.919, 2318.156
1117.401, 2321.595
1117.883, 2320.414
1118.365, 2313.671
1118.847, 2307.637
1119.329, 2307.460
1119.811, 2309.214
1120.293, 2310.910
1120.776, 2312.191
1121.258, 2312.066
1121.740, 2310.428
1122.222, 2308.120
1122.704, 2305.140
1123.186, 2302.285
1123.668, 2300.219
1124.150, 2298.780
1124.632, 2298.005
1125.115, 2298.043
1125.597, 2297.127
1126.079, 2294.659
1126.561, 2293.529
1127.043, 2295.870
1127.525, 2298.574
1128.007, 2295.126
1128.489, 2288.844
1128.971, 2285.690
1129.454, 2288.670
1129.936, 2290.424
1130.418, 2290.170
1130.900, 2288.722
1131.382, 2285.837
1131.864, 2282.431
1132.346, 2281.121
1132.828, 2281.575
1133.311, 2282.781
1133.793, 2284.587
1134.275, 2286.736
1134.757, 2289.728
1135.239, 2292.403
1135.721, 2293.793
1136.203, 2293.939
1136.685, 2292.661
1137.167, 2290.220
1137.650, 2288.897
1138.132, 2291.472
1138.614, 2293.827
1139.096, 2294.095
1139.578, 2292.990
1140.060, 2290.882
1140.542, 2287.721
1141.024, 2287.185
1141.506, 2289.629
1141.989, 2291.345
1142.471, 2288.166
1142.953, 2284.567
1143.435, 2284.053
1143.917, 2285.764
1144.399, 2286.331
1144.881, 2285.581
1145.363, 2284.917
1145.846, 2284.520
1146.328, 2284.705
1146.810, 2286.887
1147.292, 2289.021
1147.774, 2288.365
1148.256, 2284.933
1148.738, 2284.634
1149.220, 2288.788
1149.703, 2290.976
1150.185, 2288.972
1150.667, 2285.615
1151.149, 2283.508
1151.631, 2282.940
1152.113, 2284.943
1152.595, 2290.257
1153.077, 2293.284
1153.559, 2293.164
1154.042, 2292.057
1154.524, 2290.343
1155.006, 2288.810
1155.488, 2289.843
1155.970, 2291.903
1156.452, 2291.536
1156.934, 2286.081
1157.416, 2284.171
1157.898, 2288.979
1158.381, 2292.982
1158.863, 2291.355
1159.345, 2286.322
1159.827, 2283.596
1160.309, 2282.891
1160.791, 2283.608
1161.273, 2287.643
1161.755, 2289.271
1162.238, 2286.283
1162.720, 2282.260
1163.202, 2279.203
1163.684, 2277.327
1164.166, 2278.370
1164.648, 2281.688
1165.130, 2284.382
1165.612, 2284.485
1166.094, 2284.389
1166.577, 2284.255
1167.059, 2284.695
1167.541, 2286.821
1168.023, 2290.270
1168.505, 2291.727
1168.987, 2291.256
1169.469, 2290.573
1169.951, 2290.040
1170.433, 2290.203
1170.916, 2292.312
1171.398, 2294.620
1171.880, 2294.805
1172.362, 2292.975
1172.844, 2290.210
1173.326, 2286.696
1173.808, 2284.619
1174.290, 2287.317
1174.773, 2290.134
1175.255, 2289.711
1175.737, 2287.799
1176.219, 2288.234
1176.701, 2291.059
1177.183, 2290.824
1177.665, 2286.664
1178.147, 2282.583
1178.630, 2281.636
1179.112, 2281.996
1179.594, 2282.280
1180.076, 2282.813
1180.558, 2285.479
1181.040, 2290.507
1181.522, 2293.081
1182.004, 2292.116
1182.486, 2289.635
1182.969, 2285.428
1183.451, 2282.079
1183.933, 2282.404
1184.415, 2285.819
1184.897, 2288.181
1185.379, 2289.487
1185.861, 2289.616
1186.343, 2288.259
1186.825, 2286.913
1187.308, 2287.366
1187.790, 2288.347
1188.272, 2288.671
1188.754, 2288.309
1189.236, 2287.917
1189.718, 2287.563
1190.200, 2286.756
1190.682, 2284.852
1191.165, 2283.952
1191.647, 2288.429
1192.129, 2293.749
1192.611, 2294.073
1193.093, 2288.448
1193.575, 2286.591
1194.057, 2288.974
1194.539, 2291.460
1195.021, 2292.287
1195.504, 2292.724
1195.986, 2294.249
1196.468, 2296.185
1196.950, 2297.640
1197.432, 2298.446
1197.914, 2299.204
1198.396, 2299.905
1198.878, 2300.542
1199.360, 2301.340
1199.843, 2301.722
1200.325, 2300.465
1200.807, 2298.634
1201.289, 2297.996
1201.771, 2299.405
1202.253, 2298.610
1202.735, 2295.145
1203.217, 2292.750
1203.700, 2293.998
1204.182, 2296.872
1204.664, 2300.021
1205.146, 2302.852
1205.628, 2304.228
1206.110, 2303.355
1206.592, 2303.802
1207.074, 2305.920
1207.557, 2306.923
1208.039, 2303.741
1208.521, 2299.709
1209.003, 2298.345
1209.485, 2298.806
1209.967, 2299.626
1210.449, 2300.359
1210.931, 2302.440
1211.413, 2306.221
1211.896, 2309.186
1212.378, 2308.610
1212.860, 2307.225
1213.342, 2308.424
1213.824, 2310.892
1214.306, 2311.755
1214.788, 2310.220
1215.270, 2309.376
1215.752, 2309.360
1216.235, 2309.534
1216.717, 2310.222
1217.199, 2310.173
1217.681, 2307.312
1218.163, 2302.928
1218.645, 2299.927
1219.127, 2298.401
1219.609, 2298.735
1220.092, 2301.188
1220.574, 2303.251
1221.056, 2302.234
1221.538, 2300.563
1222.020, 2300.469
1222.502, 2301.466
1222.984, 2302.335
1223.466, 2303.134
1223.948, 2302.967
1224.431, 2301.665
1224.913, 2300.836
1225.395, 2302.490
1225.877, 2304.476
1226.359, 2305.010
1226.841, 2304.481
1227.323, 2304.052
1227.805, 2303.747
1228.287, 2303.455
1228.770, 2303.164
1229.252, 2303.022
1229.734, 2302.538
1230.216, 2302.817
1230.698, 2305.395
1231.180, 2309.156
1231.662, 2311.781
1232.144, 2313.315
1232.627, 2312.556
1233.109, 2309.321
1233.591, 2306.438
1234.073, 2306.856
1234.555, 2307.484
1235.037, 2306.011
1235.519, 2303.450
1236.001, 2301.276
1236.484, 2299.518
1236.966, 2301.334
1237.448, 2306.978
1237.930, 2310.612
1238.412, 2305.512
1238.894, 2300.224
1239.376, 2300.288
1239.858, 2302.922
1240.340, 2303.288
1240.823, 2301.759
1241.305, 2303.984
1241.787, 2310.263
1242.269, 2314.051
1242.751, 2307.433
1243.233, 2301.962
1243.715, 2303.784
1244.197, 2308.615
1244.679, 2309.805
1245.162, 2308.050
1245.644, 2306.733
1246.126, 2306.176
1246.608, 2306.231
1247.090, 2306.165
1247.572, 2307.825
1248.054, 2312.746
1248.536, 2318.075
1249.019, 2319.019
1249.501, 2316.696
1249.983, 2313.692
1250.465, 2310.536
1250.947, 2310.189
1251.429, 2318.419
1251.911, 2323.008
1252.393, 2320.315
1252.875, 2315.104
1253.358, 2313.691
1253.840, 2314.702
1254.322, 2315.365
1254.804, 2315.414
1255.286, 2314.750
1255.768, 2312.964
1256.250, 2310.940
1256.732, 2308.279
1257.214, 2306.921
1257.697, 2311.457
1258.179, 2317.704
1258.661, 2317.870
1259.143, 2312.655
1259.625, 2310.014
1260.107, 2311.968
1260.589, 2313.823
1261.071, 2314.977
1261.554, 2315.678
1262.036, 2316.332
1262.518, 2316.563
1263.000, 2315.427
1263.482, 2313.355
1263.964, 2312.615
1264.446, 2313.660
1264.928, 2314.195
1265.411, 2313.870
1265.893, 2313.363
1266.375, 2313.079
1266.857, 2313.032
1267.339, 2312.868
1267.821, 2313.038
1268.303, 2315.266
1268.785, 2319.934
1269.267, 2321.263
1269.750, 2318.544
1270.232, 2315.421
1270.714, 2314.460
1271.196, 2314.137
1271.678, 2313.521
1272.160, 2312.927
1272.642, 2313.095
1273.124, 2313.943
1273.606, 2313.941
1274.089, 2313.057
1274.571, 2312.783
1275.053, 2315.625
1275.535, 2317.170
1276.017, 2314.981
1276.499, 2311.703
1276.981, 2311.212
1277.463, 2312.628
1277.946, 2312.419
1278.428, 2310.581
1278.910, 2308.812
1279.392, 2308.031
1279.874, 2306.993
1280.356, 2304.812
1280.838, 2303.535
1281.320, 2306.915
1281.802, 2312.153
1282.285, 2312.635
1282.767, 2309.334
1283.249, 2307.748
1283.731, 2311.156
1284.213, 2312.533
1284.695, 2311.022
1285.177, 2308.721
1285.659, 2307.119
1286.141, 2306.199
1286.624, 2306.415
1287.106, 2307.294
1287.588, 2307.371
1288.070, 2306.079
1288.552, 2306.185
1289.034, 2307.941
1289.516, 2309.814
1289.998, 2310.505
1290.481, 2310.951
1290.963, 2312.215
1291.445, 2313.536
1291.927, 2313.258
1292.409, 2311.119
1292.891, 2312.500
1293.373, 2317.214
1293.855, 2320.552
1294.338, 2318.413
1294.820, 2315.722
1295.302, 2314.221
1295.784, 2313.778
1296.266, 2314.767
1296.748, 2316.919
1297.230, 2317.976
1297.712, 2318.345
1298.194, 2319.401
1298.677, 2321.362
1299.159, 2323.560
1299.641, 2326.101
1300.123, 2328.237
1300.605, 2329.919
1301.087, 2330.349
1301.569, 2325.813
1302.051, 2318.258
1302.533, 2312.112
1303.016, 2306.634
##END=



