##NAMES=Schwartzembergite
##RRUFFID=R070429
##IDEAL CHEMISTRY=Pb^2+^_5_H_2_I^3+^O_6_Cl_3_
##LOCALITY=Venado mine, Copiapo, Chile
##OWNER=RRUFF
##SOURCE=Bob Jenkins
##DESCRIPTION=Bright yellow/orange tabular crystals associated with blue diaboleite and colorless cerussite
##STATUS=The identification of this mineral has been confirmed only by single crystal X-ray diffraction.
##URL=rruff.info/R070429
156.1903, 10065.83
156.6724, 10053.80
157.1546, 10051.16
157.6367, 10080.85
158.1188, 10100.15
158.6009, 10090.83
159.0830, 10040.49
159.5651, 9991.904
160.0473, 9959.965
160.5294, 9936.625
161.0115, 9906.845
161.4936, 9859.357
161.9757, 9808.449
162.4578, 9762.127
162.9400, 9724.580
163.4221, 9687.304
163.9042, 9645.292
164.3863, 9600.631
164.8684, 9560.137
165.3505, 9528.847
165.8327, 9502.428
166.3148, 9477.575
166.7969, 9454.008
167.2790, 9431.145
167.7611, 9407.688
168.2433, 9383.912
168.7254, 9363.032
169.2075, 9344.280
169.6896, 9330.133
170.1717, 9323.643
170.6538, 9331.460
171.1360, 9343.768
171.6181, 9351.871
172.1002, 9355.448
172.5823, 9362.162
173.0644, 9376.772
173.5465, 9398.448
174.0287, 9425.938
174.5108, 9464.362
174.9929, 9505.636
175.4750, 9538.939
175.9571, 9561.687
176.4392, 9587.553
176.9214, 9636.361
177.4035, 9699.737
177.8856, 9755.135
178.3677, 9782.728
178.8498, 9796.183
179.3319, 9816.688
179.8141, 9846.773
180.2962, 9884.581
180.7783, 9934.836
181.2604, 9993.820
181.7425, 10046.85
182.2246, 10075.81
182.7068, 10091.33
183.1889, 10118.78
183.6710, 10162.41
184.1531, 10220.02
184.6352, 10294.55
185.1173, 10385.49
185.5995, 10471.34
186.0816, 10527.48
186.5637, 10562.39
187.0458, 10609.21
187.5279, 10678.80
188.0100, 10762.97
188.4922, 10838.93
188.9743, 10906.48
189.4564, 10978.98
189.9385, 11078.98
190.4206, 11201.43
190.9027, 11306.43
191.3849, 11375.47
191.8670, 11418.64
192.3491, 11472.76
192.8312, 11538.30
193.3133, 11615.18
193.7954, 11709.56
194.2776, 11820.98
194.7597, 11926.74
195.2418, 12014.04
195.7239, 12085.71
196.2060, 12169.86
196.6881, 12268.84
197.1703, 12373.23
197.6524, 12469.27
198.1345, 12555.20
198.6166, 12641.28
199.0987, 12730.38
199.5808, 12822.49
200.0630, 12921.44
200.5451, 13033.28
201.0272, 13142.18
201.5093, 13210.24
201.9914, 13226.72
202.4735, 13256.84
202.9557, 13343.02
203.4378, 13491.33
203.9199, 13624.37
204.4020, 13739.35
204.8841, 13836.07
205.3662, 13908.54
205.8484, 13950.12
206.3305, 13990.79
206.8126, 14051.67
207.2947, 14137.39
207.7768, 14213.85
208.2589, 14275.76
208.7411, 14327.19
209.2232, 14382.63
209.7053, 14444.11
210.1874, 14505.40
210.6695, 14562.04
211.1517, 14611.60
211.6338, 14668.64
212.1159, 14741.77
212.5980, 14824.78
213.0801, 14877.10
213.5622, 14886.00
214.0444, 14887.28
214.5265, 14914.26
215.0086, 14981.63
215.4907, 15026.48
215.9728, 15031.01
216.4549, 14999.43
216.9371, 14990.92
217.4192, 15018.57
217.9013, 15050.11
218.3834, 15051.18
218.8655, 15006.89
219.3476, 14973.06
219.8298, 14964.40
220.3119, 14981.26
220.7940, 14990.76
221.2761, 14996.98
221.7582, 14991.04
222.2403, 14958.48
222.7225, 14884.44
223.2046, 14819.86
223.6867, 14782.72
224.1688, 14776.95
224.6509, 14747.70
225.1330, 14682.49
225.6152, 14605.11
226.0973, 14549.37
226.5794, 14531.27
227.0615, 14503.22
227.5436, 14450.29
228.0257, 14366.87
228.5079, 14290.88
228.9900, 14230.28
229.4721, 14170.26
229.9542, 14084.59
230.4363, 13950.98
230.9184, 13833.04
231.4006, 13753.70
231.8827, 13725.72
232.3648, 13685.35
232.8469, 13630.89
233.3290, 13564.60
233.8111, 13488.35
234.2933, 13394.60
234.7754, 13303.52
235.2575, 13223.45
235.7396, 13160.23
236.2217, 13088.48
236.7038, 12999.97
237.1860, 12906.11
237.6681, 12829.22
238.1502, 12774.62
238.6323, 12728.83
239.1144, 12689.58
239.5965, 12667.66
240.0787, 12622.47
240.5608, 12545.48
241.0429, 12448.34
241.5250, 12355.53
242.0071, 12263.42
242.4892, 12180.87
242.9714, 12113.48
243.4535, 12065.57
243.9356, 12021.06
244.4177, 11985.29
244.8998, 11951.58
245.3819, 11899.82
245.8641, 11814.67
246.3462, 11733.81
246.8283, 11677.58
247.3104, 11662.90
247.7925, 11632.18
248.2746, 11577.72
248.7568, 11508.30
249.2389, 11449.45
249.7210, 11407.65
250.2031, 11366.60
250.6852, 11317.20
251.1674, 11253.25
251.6495, 11197.15
252.1316, 11152.87
252.6137, 11116.57
253.0958, 11076.21
253.5779, 11027.63
254.0601, 10981.24
254.5422, 10942.56
255.0243, 10912.49
255.5064, 10889.21
255.9885, 10878.38
256.4706, 10873.45
256.9528, 10848.75
257.4349, 10788.98
257.9170, 10734.61
258.3991, 10708.69
258.8812, 10722.15
259.3633, 10735.98
259.8455, 10754.58
260.3276, 10771.00
260.8097, 10756.26
261.2918, 10692.66
261.7739, 10630.06
262.2560, 10598.23
262.7382, 10608.65
263.2203, 10615.02
263.7024, 10612.76
264.1845, 10604.95
264.6666, 10603.55
265.1487, 10612.87
265.6309, 10619.68
266.1130, 10611.51
266.5951, 10578.01
267.0772, 10568.44
267.5593, 10592.92
268.0414, 10641.29
268.5236, 10680.51
269.0057, 10712.58
269.4878, 10731.54
269.9699, 10725.42
270.4520, 10682.22
270.9341, 10672.08
271.4163, 10710.17
271.8984, 10780.35
272.3805, 10836.51
272.8626, 10880.86
273.3447, 10906.14
273.8268, 10895.87
274.3090, 10839.76
274.7911, 10823.42
275.2732, 10867.20
275.7553, 10946.59
276.2374, 10989.41
276.7195, 10986.51
277.2017, 10984.17
277.6838, 11018.24
278.1659, 11093.28
278.6480, 11145.92
279.1301, 11165.66
279.6122, 11164.43
280.0944, 11167.14
280.5765, 11172.12
281.0586, 11190.96
281.5407, 11235.25
282.0228, 11305.19
282.5049, 11375.71
282.9871, 11447.91
283.4692, 11515.45
283.9513, 11564.62
284.4334, 11594.45
284.9155, 11617.01
285.3976, 11634.84
285.8798, 11648.94
286.3619, 11673.92
286.8440, 11712.92
287.3261, 11760.23
287.8082, 11804.80
288.2903, 11846.56
288.7725, 11893.95
289.2546, 11961.40
289.7367, 12042.27
290.2188, 12098.88
290.7009, 12123.42
291.1830, 12133.45
291.6652, 12153.66
292.1473, 12184.12
292.6294, 12222.92
293.1115, 12275.19
293.5936, 12336.08
294.0757, 12387.32
294.5579, 12425.69
295.0400, 12460.29
295.5221, 12504.86
296.0042, 12558.18
296.4863, 12610.43
296.9684, 12660.50
297.4506, 12706.00
297.9327, 12736.94
298.4148, 12749.82
298.8969, 12761.76
299.3790, 12801.80
299.8611, 12860.63
300.3433, 12904.96
300.8254, 12904.22
301.3075, 12881.39
301.7896, 12873.08
302.2717, 12881.93
302.7538, 12901.25
303.2360, 12929.05
303.7181, 12962.42
304.2002, 12994.91
304.6823, 13033.03
305.1644, 13063.97
305.6465, 13067.17
306.1287, 13039.93
306.6108, 13007.29
307.0929, 12989.69
307.5750, 12981.15
308.0571, 12969.94
308.5392, 12948.37
309.0214, 12923.74
309.5035, 12901.98
309.9856, 12883.46
310.4677, 12865.88
310.9498, 12847.62
311.4319, 12829.30
311.9141, 12811.46
312.3962, 12799.87
312.8783, 12784.39
313.3604, 12754.51
313.8426, 12710.96
314.3247, 12671.09
314.8068, 12653.74
315.2889, 12641.70
315.7710, 12616.82
316.2531, 12552.75
316.7353, 12492.65
317.2174, 12461.72
317.6995, 12457.00
318.1816, 12446.56
318.6637, 12404.98
319.1458, 12359.06
319.6280, 12330.37
320.1101, 12342.90
320.5922, 12354.47
321.0743, 12348.20
321.5564, 12328.32
322.0385, 12318.66
322.5207, 12342.81
323.0028, 12368.14
323.4849, 12374.07
323.9670, 12335.95
324.4491, 12304.10
324.9312, 12288.91
325.4134, 12286.49
325.8955, 12282.20
326.3776, 12271.86
326.8597, 12261.11
327.3418, 12252.53
327.8239, 12248.35
328.3061, 12243.56
328.7882, 12231.29
329.2703, 12218.02
329.7524, 12220.95
330.2345, 12259.19
330.7166, 12294.89
331.1988, 12313.33
331.6809, 12303.78
332.1630, 12300.84
332.6451, 12305.88
333.1272, 12317.10
333.6093, 12331.73
334.0915, 12354.15
334.5736, 12373.22
335.0557, 12383.84
335.5378, 12382.81
336.0199, 12388.20
336.5020, 12401.37
336.9842, 12419.65
337.4663, 12438.86
337.9484, 12457.07
338.4305, 12482.05
338.9126, 12519.52
339.3947, 12569.45
339.8769, 12607.49
340.3590, 12630.39
340.8411, 12648.67
341.3232, 12676.21
341.8053, 12714.71
342.2874, 12746.37
342.7696, 12760.55
343.2517, 12764.02
343.7338, 12794.46
344.2159, 12856.11
344.6980, 12924.21
345.1801, 12980.29
345.6623, 13024.04
346.1444, 13056.50
346.6265, 13072.83
347.1086, 13081.93
347.5907, 13104.97
348.0728, 13141.51
348.5550, 13184.50
349.0371, 13230.90
349.5192, 13279.30
350.0013, 13327.02
350.4834, 13374.91
350.9655, 13418.72
351.4477, 13446.77
351.9298, 13462.74
352.4119, 13482.99
352.8940, 13521.93
353.3761, 13570.66
353.8582, 13612.10
354.3404, 13641.52
354.8225, 13673.93
355.3046, 13733.84
355.7867, 13808.77
356.2688, 13868.76
356.7509, 13881.34
357.2331, 13882.25
357.7152, 13905.19
358.1973, 13954.14
358.6794, 14009.90
359.1615, 14061.10
359.6436, 14111.27
360.1258, 14165.34
360.6079, 14232.74
361.0900, 14298.37
361.5721, 14354.58
362.0542, 14401.16
362.5363, 14441.49
363.0185, 14463.41
363.5006, 14486.10
363.9827, 14526.41
364.4648, 14602.14
364.9469, 14682.28
365.4290, 14765.17
365.9112, 14847.96
366.3933, 14916.82
366.8754, 14956.49
367.3575, 14990.08
367.8396, 15030.22
368.3217, 15083.45
368.8039, 15137.03
369.2860, 15195.67
369.7681, 15254.58
370.2502, 15300.95
370.7323, 15332.97
371.2144, 15354.19
371.6966, 15362.15
372.1787, 15341.67
372.6608, 15346.46
373.1429, 15386.40
373.6250, 15446.21
374.1071, 15504.81
374.5893, 15572.05
375.0714, 15617.97
375.5535, 15628.24
376.0356, 15600.38
376.5177, 15576.85
376.9998, 15560.83
377.4820, 15544.06
377.9641, 15517.12
378.4462, 15479.03
378.9283, 15435.76
379.4104, 15385.93
379.8925, 15332.54
380.3747, 15291.02
380.8568, 15262.47
381.3389, 15237.01
381.8210, 15208.15
382.3031, 15175.77
382.7852, 15136.29
383.2674, 15088.57
383.7495, 15034.40
384.2316, 14978.10
384.7137, 14919.12
385.1958, 14859.27
385.6779, 14797.62
386.1601, 14735.84
386.6422, 14679.42
387.1243, 14628.90
387.6064, 14581.52
388.0885, 14534.94
388.5706, 14488.36
389.0528, 14440.91
389.5349, 14401.65
390.0170, 14356.01
390.4991, 14279.63
390.9812, 14168.86
391.4633, 14070.91
391.9455, 14036.38
392.4276, 14026.99
392.9097, 13994.08
393.3918, 13889.97
393.8739, 13785.95
394.3561, 13715.36
394.8382, 13676.42
395.3203, 13644.07
395.8024, 13627.07
396.2845, 13603.08
396.7667, 13555.80
397.2488, 13444.29
397.7309, 13357.09
398.2130, 13326.79
398.6951, 13335.41
399.1772, 13326.19
399.6594, 13271.97
400.1415, 13217.48
400.6236, 13178.69
401.1057, 13159.68
401.5878, 13148.00
402.0699, 13158.11
402.5521, 13168.49
403.0342, 13143.91
403.5163, 13058.06
403.9984, 12984.16
404.4805, 12943.19
404.9626, 12936.03
405.4448, 12927.43
405.9269, 12919.12
406.4090, 12906.21
406.8911, 12880.29
407.3732, 12837.91
407.8553, 12806.21
408.3375, 12793.55
408.8196, 12792.81
409.3017, 12780.57
409.7838, 12755.70
410.2659, 12731.82
410.7480, 12718.59
411.2302, 12714.69
411.7123, 12715.66
412.1944, 12723.00
412.6765, 12729.39
413.1586, 12726.62
413.6407, 12714.73
414.1229, 12694.32
414.6050, 12653.67
415.0871, 12608.76
415.5692, 12586.79
416.0513, 12589.08
416.5334, 12598.17
417.0156, 12606.37
417.4977, 12611.12
417.9798, 12608.60
418.4619, 12594.46
418.9440, 12575.21
419.4261, 12553.92
419.9083, 12530.92
420.3904, 12505.64
420.8725, 12459.51
421.3546, 12422.50
421.8367, 12419.71
422.3188, 12482.29
422.8010, 12532.70
423.2831, 12543.23
423.7652, 12528.92
424.2473, 12522.79
424.7294, 12536.63
425.2115, 12552.66
425.6937, 12567.22
426.1758, 12582.54
426.6579, 12513.53
427.1400, 12595.03
427.6221, 12639.71
428.1042, 12649.55
428.5864, 12520.20
429.0685, 12570.58
429.5506, 12548.93
430.0327, 12524.33
430.5148, 12600.02
430.9969, 12490.91
431.4791, 12565.00
431.9612, 12565.96
432.4433, 12600.40
432.9254, 12562.35
433.4075, 12546.69
433.8896, 12603.53
434.3718, 12528.07
434.8539, 12525.44
435.3360, 12525.46
435.8181, 12518.94
436.3002, 12509.63
436.7823, 12508.32
437.2645, 12515.51
437.7466, 12527.49
438.2287, 12547.57
438.7108, 12569.59
439.1929, 12578.89
439.6750, 12557.95
440.1572, 12534.47
440.6393, 12542.35
441.1214, 12574.76
441.6035, 12597.88
442.0856, 12577.04
442.5677, 12547.09
443.0499, 12540.14
443.5320, 12573.70
444.0141, 12601.81
444.4962, 12605.02
444.9783, 12591.14
445.4604, 12573.20
445.9426, 12537.24
446.4247, 12513.93
446.9068, 12523.37
447.3889, 12574.18
447.8710, 12595.73
448.3531, 12550.79
448.8353, 12496.79
449.3174, 12476.64
449.7995, 12512.51
450.2816, 12546.13
450.7637, 12576.28
451.2458, 12599.98
451.7280, 12600.86
452.2101, 12568.83
452.6922, 12538.21
453.1743, 12526.68
453.6564, 12535.79
454.1385, 12551.08
454.6207, 12575.21
455.1028, 12599.24
455.5849, 12609.40
456.0670, 12606.36
456.5491, 12602.13
457.0313, 12602.07
457.5134, 12603.13
457.9955, 12593.13
458.4776, 12572.72
458.9597, 12561.02
459.4418, 12587.91
459.9240, 12630.50
460.4061, 12646.74
460.8882, 12618.63
461.3703, 12584.16
461.8524, 12577.64
462.3345, 12590.13
462.8167, 12601.02
463.2988, 12596.38
463.7809, 12590.07
464.2630, 12587.83
464.7451, 12589.42
465.2272, 12603.40
465.7094, 12650.72
466.1915, 12702.86
466.6736, 12734.70
467.1557, 12726.71
467.6378, 12714.53
468.1199, 12696.22
468.6021, 12675.79
469.0842, 12671.84
469.5663, 12691.71
470.0484, 12719.58
470.5305, 12753.15
471.0126, 12801.65
471.4948, 12820.67
471.9769, 12797.55
472.4590, 12760.96
472.9411, 12754.11
473.4232, 12782.68
473.9053, 12803.33
474.3875, 12798.47
474.8696, 12777.49
475.3517, 12779.23
475.8338, 12804.36
476.3159, 12838.16
476.7981, 12878.41
477.2802, 12918.91
477.7623, 12939.07
478.2444, 12933.38
478.7265, 12914.71
479.2086, 12888.09
479.6908, 12859.52
480.1729, 12844.49
480.6550, 12872.18
481.1371, 12901.75
481.6192, 12892.98
482.1013, 12846.09
482.5835, 12801.37
483.0656, 12777.52
483.5477, 12765.94
484.0298, 12759.85
484.5119, 12760.63
484.9940, 12762.89
485.4762, 12769.89
485.9583, 12777.76
486.4404, 12776.52
486.9225, 12751.45
487.4046, 12730.87
487.8867, 12726.82
488.3689, 12745.48
488.8510, 12740.99
489.3331, 12698.58
489.8152, 12650.81
490.2973, 12633.95
490.7794, 12658.83
491.2616, 12666.90
491.7437, 12643.38
492.2258, 12601.69
492.7079, 12577.27
493.1900, 12570.60
493.6721, 12575.33
494.1543, 12599.22
494.6364, 12632.57
495.1185, 12634.32
495.6006, 12598.71
496.0827, 12565.22
496.5648, 12589.63
497.0470, 12644.85
497.5291, 12673.56
498.0112, 12637.54
498.4933, 12587.10
498.9754, 12561.52
499.4576, 12556.72
499.9397, 12559.03
500.4218, 12559.82
500.9039, 12567.01
501.3860, 12589.86
501.8681, 12638.37
502.3503, 12672.88
502.8324, 12675.04
503.3145, 12661.96
503.7966, 12653.83
504.2787, 12647.65
504.7608, 12652.20
505.2430, 12676.42
505.7251, 12715.27
506.2072, 12731.89
506.6893, 12713.36
507.1714, 12695.42
507.6535, 12697.05
508.1357, 12719.59
508.6178, 12754.32
509.0999, 12807.51
509.5820, 12857.48
510.0641, 12869.62
510.5462, 12846.59
511.0284, 12821.42
511.5105, 12802.10
511.9926, 12788.66
512.4747, 12775.10
512.9568, 12763.58
513.4389, 12772.14
513.9210, 12838.60
514.4031, 12921.80
514.8853, 12966.29
515.3674, 12957.04
515.8495, 12940.61
516.3316, 12945.48
516.8137, 12960.55
517.2958, 12970.49
517.7780, 12954.04
518.2601, 12948.13
518.7422, 12970.07
519.2244, 13017.22
519.7065, 13061.33
520.1886, 13116.12
520.6707, 13152.19
521.1528, 13151.33
521.6349, 13087.77
522.1171, 13055.27
522.5992, 13065.57
523.0813, 13095.31
523.5634, 13112.16
524.0455, 13112.54
524.5276, 13119.26
525.0098, 13139.43
525.4919, 13169.47
525.9740, 13200.59
526.4561, 13233.16
526.9382, 13260.17
527.4203, 13272.13
527.9025, 13276.05
528.3846, 13288.17
528.8667, 13310.39
529.3488, 13338.82
529.8309, 13382.32
530.3130, 13426.99
530.7952, 13450.72
531.2773, 13415.99
531.7594, 13384.05
532.2415, 13396.92
532.7236, 13443.92
533.2057, 13478.60
533.6879, 13470.79
534.1700, 13459.79
534.6521, 13468.80
535.1342, 13515.36
535.6163, 13535.90
536.0984, 13504.20
536.5806, 13463.17
537.0627, 13461.24
537.5448, 13519.96
538.0269, 13565.30
538.5090, 13582.33
538.9911, 13579.70
539.4733, 13586.38
539.9554, 13604.50
540.4375, 13616.76
540.9196, 13609.25
541.4017, 13586.82
541.8839, 13569.36
542.3660, 13556.50
542.8481, 13555.94
543.3302, 13584.69
543.8123, 13629.80
544.2944, 13666.71
544.7766, 13690.90
545.2587, 13701.00
545.7408, 13684.46
546.2229, 13652.13
546.7050, 13630.40
547.1871, 13639.15
547.6693, 13653.18
548.1514, 13661.61
548.6335, 13663.47
549.1156, 13661.38
549.5977, 13648.01
550.0798, 13636.03
550.5620, 13634.75
551.0441, 13652.35
551.5262, 13663.40
552.0083, 13660.91
552.4904, 13655.67
552.9725, 13670.31
553.4547, 13707.87
553.9368, 13750.74
554.4189, 13800.29
554.9010, 13849.12
555.3831, 13859.07
555.8652, 13829.39
556.3474, 13798.65
556.8295, 13794.40
557.3116, 13811.35
557.7937, 13843.58
558.2758, 13895.14
558.7579, 13940.45
559.2401, 13948.95
559.7222, 13938.37
560.2043, 13936.00
560.6864, 13963.55
561.1685, 13990.43
561.6506, 14001.67
562.1328, 13999.81
562.6149, 13999.67
563.0970, 14006.06
563.5791, 14012.87
564.0612, 14016.38
564.5433, 14013.39
565.0255, 14019.82
565.5076, 14038.62
565.9897, 14063.23
566.4718, 14087.61
566.9539, 14111.41
567.4360, 14137.56
567.9182, 14169.80
568.4003, 14199.95
568.8824, 14208.25
569.3645, 14195.86
569.8466, 14177.36
570.3287, 14151.29
570.8109, 14127.54
571.2930, 14124.94
571.7751, 14143.20
572.2572, 14170.44
572.7393, 14209.84
573.2214, 14248.62
573.7036, 14273.47
574.1857, 14278.81
574.6678, 14276.61
575.1499, 14259.50
575.6320, 14240.48
576.1141, 14238.42
576.5963, 14279.21
577.0784, 14311.26
577.5605, 14321.83
578.0426, 14314.58
578.5247, 14313.31
579.0068, 14319.36
579.4890, 14328.73
579.9711, 14339.37
580.4532, 14351.14
580.9353, 14369.88
581.4174, 14398.82
581.8995, 14421.34
582.3817, 14407.05
582.8638, 14368.40
583.3459, 14354.66
583.8280, 14388.29
584.3101, 14430.71
584.7922, 14426.37
585.2744, 14394.77
585.7565, 14385.97
586.2386, 14450.97
586.7207, 14523.15
587.2028, 14565.03
587.6849, 14575.35
588.1671, 14573.77
588.6492, 14554.13
589.1313, 14532.02
589.6134, 14515.03
590.0955, 14492.43
590.5776, 14500.28
591.0598, 14555.38
591.5419, 14625.86
592.0240, 14669.10
592.5061, 14680.58
592.9882, 14687.35
593.4703, 14694.50
593.9525, 14700.93
594.4346, 14694.60
594.9167, 14677.89
595.3988, 14684.21
595.8809, 14764.06
596.3630, 14867.52
596.8452, 14902.07
597.3273, 14865.02
597.8094, 14830.52
598.2915, 14854.57
598.7736, 14902.10
599.2557, 14940.27
599.7379, 14961.43
600.2200, 14973.14
600.7021, 14961.58
601.1842, 14945.80
601.6663, 14957.01
602.1484, 15021.24
602.6306, 15078.44
603.1127, 15120.83
603.5948, 15148.59
604.0769, 15155.84
604.5590, 15133.22
605.0411, 15120.90
605.5233, 15142.97
606.0054, 15196.06
606.4875, 15257.16
606.9696, 15327.78
607.4517, 15386.09
607.9338, 15394.84
608.4160, 15377.71
608.8981, 15385.46
609.3802, 15436.89
609.8623, 15493.02
610.3444, 15528.00
610.8265, 15547.33
611.3087, 15560.95
611.7908, 15552.73
612.2729, 15559.06
612.7550, 15602.59
613.2371, 15676.88
613.7192, 15733.86
614.2014, 15752.43
614.6835, 15777.43
615.1656, 15831.69
615.6477, 15920.61
616.1298, 15985.42
616.6119, 16023.55
617.0941, 16043.14
617.5762, 16039.07
618.0583, 16016.95
618.5404, 16026.72
619.0225, 16080.38
619.5046, 16153.89
619.9868, 16229.23
620.4689, 16301.09
620.9510, 16359.24
621.4331, 16381.41
621.9152, 16403.77
622.3973, 16448.72
622.8795, 16513.85
623.3616, 16589.21
623.8437, 16682.35
624.3258, 16775.94
624.8079, 16860.47
625.2900, 16934.62
625.7722, 17009.97
626.2543, 17087.78
626.7364, 17165.20
627.2185, 17237.10
627.7006, 17300.22
628.1827, 17381.03
628.6649, 17483.96
629.1470, 17596.77
629.6291, 17698.68
630.1112, 17793.13
630.5933, 17898.38
631.0754, 18024.88
631.5576, 18160.09
632.0397, 18282.64
632.5218, 18399.08
633.0039, 18529.03
633.4860, 18692.62
633.9681, 18862.36
634.4503, 19017.93
634.9324, 19157.67
635.4145, 19313.67
635.8966, 19483.09
636.3787, 19676.74
636.8608, 19906.87
637.3430, 20199.10
637.8251, 20451.33
638.3072, 20637.71
638.7893, 20819.30
639.2714, 21082.83
639.7535, 21428.19
640.2357, 21745.68
640.7178, 21999.99
641.1999, 22246.74
641.6820, 22583.15
642.1641, 22995.33
642.6462, 23425.14
643.1284, 23845.51
643.6105, 24276.88
644.0926, 24729.54
644.5747, 25204.44
645.0568, 25719.21
645.5389, 26297.08
646.0211, 26902.29
646.5032, 27523.05
646.9853, 28154.21
647.4674, 28807.76
647.9495, 29470.09
648.4316, 30167.20
648.9138, 30930.66
649.3959, 31759.27
649.8780, 32623.32
650.3601, 33514.07
650.8422, 34437.41
651.3243, 35429.15
651.8065, 36475.43
652.2886, 37520.96
652.7707, 38521.75
653.2528, 39546.01
653.7349, 40691.30
654.2170, 41932.44
654.6992, 43163.57
655.1813, 44298.73
655.6634, 45444.57
656.1455, 46678.22
656.6276, 48002.27
657.1097, 49274.98
657.5919, 50438.16
658.0740, 51587.54
658.5561, 52758.45
659.0382, 53961.67
659.5203, 55168.74
660.0024, 56410.25
660.4846, 57600.75
660.9667, 58621.95
661.4488, 59498.60
661.9309, 60392.30
662.4130, 61360.55
662.8951, 62271.09
663.3773, 62927.27
663.8594, 63394.78
664.3415, 63805.76
664.8236, 64274.26
665.3057, 64644.97
665.7878, 64841.27
666.2700, 64871.93
666.7521, 64766.57
667.2342, 64525.58
667.7163, 64151.22
668.1984, 63634.63
668.6805, 62980.55
669.1627, 62266.59
669.6448, 61505.77
670.1269, 60655.34
670.6090, 59681.08
671.0911, 58581.05
671.5732, 57406.43
672.0554, 56161.59
672.5375, 54861.07
673.0196, 53514.20
673.5017, 52127.22
673.9838, 50696.71
674.4659, 49207.26
674.9481, 47744.08
675.4302, 46353.62
675.9123, 45019.62
676.3944, 43695.99
676.8765, 42364.08
677.3586, 41051.07
677.8408, 39743.50
678.3229, 38446.02
678.8050, 37188.29
679.2871, 35968.19
679.7692, 34801.12
680.2513, 33711.92
680.7335, 32683.01
681.2156, 31673.87
681.6977, 30675.89
682.1799, 29722.38
682.6620, 28827.26
683.1441, 27995.14
683.6262, 27228.93
684.1083, 26535.74
684.5905, 25877.47
685.0726, 25235.63
685.5547, 24621.58
686.0368, 24054.92
686.5189, 23552.96
687.0010, 23066.89
687.4832, 22582.11
687.9653, 22113.05
688.4474, 21680.04
688.9295, 21286.44
689.4116, 20924.45
689.8937, 20601.74
690.3759, 20303.34
690.8580, 19992.29
691.3401, 19672.46
691.8222, 19391.70
692.3043, 19180.64
692.7864, 19001.15
693.2686, 18791.43
693.7507, 18562.83
694.2328, 18361.92
694.7149, 18222.48
695.1970, 18103.20
695.6791, 17982.97
696.1613, 17860.57
696.6434, 17740.23
697.1255, 17625.33
697.6076, 17509.94
698.0897, 17386.82
698.5718, 17253.78
699.0540, 17139.68
699.5361, 17045.99
700.0182, 16966.81
700.5003, 16897.57
700.9824, 16838.30
701.4645, 16794.80
701.9467, 16772.80
702.4288, 16741.61
702.9109, 16642.12
703.3930, 16522.19
703.8751, 16456.59
704.3572, 16515.08
704.8394, 16561.01
705.3215, 16529.45
705.8036, 16453.00
706.2857, 16393.61
706.7678, 16357.98
707.2499, 16334.44
707.7321, 16326.75
708.2142, 16328.06
708.6963, 16310.05
709.1784, 16269.25
709.6605, 16242.70
710.1426, 16256.06
710.6248, 16291.46
711.1069, 16306.74
711.5890, 16304.08
712.0711, 16297.67
712.5532, 16299.21
713.0353, 16299.09
713.5175, 16285.83
713.9996, 16257.63
714.4817, 16237.46
714.9638, 16234.06
715.4459, 16238.91
715.9280, 16247.95
716.4102, 16264.87
716.8923, 16274.24
717.3744, 16276.84
717.8565, 16270.54
718.3386, 16248.04
718.8207, 16211.64
719.3029, 16182.59
719.7850, 16162.84
720.2671, 16156.26
720.7492, 16176.26
721.2313, 16211.24
721.7134, 16240.31
722.1956, 16255.97
722.6777, 16265.97
723.1598, 16278.66
723.6419, 16287.58
724.1240, 16280.15
724.6061, 16251.97
725.0883, 16209.53
725.5704, 16144.64
726.0525, 16068.36
726.5346, 16018.72
727.0167, 15998.18
727.4988, 15986.71
727.9810, 15982.59
728.4631, 15978.44
728.9452, 15951.99
729.4273, 15906.52
729.9094, 15863.05
730.3915, 15832.21
730.8737, 15810.63
731.3558, 15798.90
731.8379, 15796.94
732.3200, 15790.45
732.8021, 15775.59
733.2842, 15754.68
733.7664, 15727.73
734.2485, 15692.21
734.7306, 15662.73
735.2127, 15640.54
735.6948, 15621.42
736.1769, 15601.14
736.6591, 15580.27
737.1412, 15563.34
737.6233, 15550.58
738.1054, 15542.38
738.5875, 15541.56
739.0696, 15544.77
739.5518, 15548.03
740.0339, 15553.31
740.5160, 15552.09
740.9981, 15548.55
741.4802, 15533.80
741.9623, 15492.20
742.4445, 15383.31
742.9266, 15325.64
743.4087, 15354.05
743.8908, 15418.43
744.3729, 15407.52
744.8550, 15320.84
745.3372, 15266.41
745.8193, 15288.53
746.3014, 15342.81
746.7835, 15368.72
747.2656, 15370.58
747.7477, 15362.02
748.2299, 15357.78
748.7120, 15337.17
749.1941, 15266.86
749.6762, 15162.12
750.1583, 15107.75
750.6404, 15149.51
751.1226, 15196.81
751.6047, 15225.31
752.0868, 15235.84
752.5689, 15236.65
753.0510, 15226.63
753.5331, 15215.82
754.0153, 15204.61
754.4974, 15198.45
754.9795, 15216.35
755.4616, 15256.97
755.9437, 15293.22
756.4258, 15313.45
756.9080, 15317.56
757.3901, 15301.29
757.8722, 15260.34
758.3543, 15222.60
758.8364, 15191.74
759.3185, 15165.78
759.8007, 15140.88
760.2828, 15111.75
760.7649, 15112.15
761.2470, 15149.06
761.7291, 15192.24
762.2112, 15209.34
762.6934, 15206.87
763.1755, 15203.65
763.6576, 15202.04
764.1397, 15203.20
764.6218, 15216.42
765.1039, 15229.35
765.5861, 15226.63
766.0682, 15190.41
766.5503, 15161.41
767.0324, 15153.21
767.5145, 15151.85
767.9966, 15140.14
768.4788, 15114.26
768.9609, 15092.97
769.4430, 15078.83
769.9251, 15070.86
770.4072, 15068.69
770.8893, 15071.56
771.3715, 15075.80
771.8536, 15077.25
772.3357, 15084.25
772.8178, 15118.51
773.2999, 15161.86
773.7820, 15178.39
774.2642, 15122.41
774.7463, 15078.30
775.2284, 15073.98
775.7105, 15094.38
776.1926, 15099.82
776.6747, 15085.69
777.1569, 15073.42
777.6390, 15068.89
778.1211, 15071.27
778.6032, 15084.26
779.0853, 15104.69
779.5674, 15115.07
780.0496, 15092.98
780.5317, 15067.05
781.0138, 15057.57
781.4959, 15064.56
781.9780, 15085.79
782.4601, 15151.32
782.9423, 15198.39
783.4244, 15200.39
783.9065, 15161.81
784.3886, 15134.43
784.8707, 15120.07
785.3528, 15110.74
785.8350, 15099.19
786.3171, 15089.57
786.7992, 15103.76
787.2813, 15139.07
787.7634, 15163.94
788.2455, 15144.01
788.7277, 15114.28
789.2098, 15103.15
789.6919, 15112.97
790.1740, 15132.48
790.6561, 15190.75
791.1382, 15227.00
791.6204, 15201.38
792.1025, 15104.83
792.5846, 15068.59
793.0667, 15103.98
793.5488, 15151.55
794.0309, 15164.57
794.5131, 15152.99
794.9952, 15140.03
795.4773, 15127.02
795.9594, 15121.90
796.4415, 15137.08
796.9236, 15158.19
797.4058, 15172.04
797.8879, 15174.15
798.3700, 15180.60
798.8521, 15202.61
799.3342, 15219.57
799.8163, 15211.16
800.2985, 15170.62
800.7806, 15162.87
801.2627, 15195.11
801.7448, 15231.07
802.2269, 15230.80
802.7090, 15208.01
803.1912, 15185.28
803.6733, 15163.79
804.1554, 15158.52
804.6375, 15198.37
805.1196, 15247.30
805.6017, 15271.45
806.0839, 15245.44
806.5660, 15233.11
807.0481, 15237.38
807.5302, 15251.75
808.0123, 15275.99
808.4944, 15310.11
808.9766, 15321.25
809.4587, 15302.95
809.9408, 15275.77
810.4229, 15253.78
810.9050, 15240.49
811.3871, 15243.88
811.8693, 15272.95
812.3514, 15299.25
812.8335, 15318.17
813.3156, 15324.41
813.7977, 15309.74
814.2798, 15254.14
814.7620, 15224.29
815.2441, 15228.43
815.7262, 15249.58
816.2083, 15271.68
816.6904, 15293.11
817.1725, 15303.87
817.6547, 15302.20
818.1368, 15288.40
818.6189, 15249.29
819.1010, 15203.08
819.5831, 15174.24
820.0652, 15174.91
820.5474, 15185.23
821.0295, 15204.93
821.5116, 15230.32
821.9937, 15261.23
822.4758, 15303.03
822.9579, 15325.76
823.4401, 15323.87
823.9222, 15306.90
824.4043, 15285.00
824.8864, 15259.14
825.3685, 15228.27
825.8506, 15183.79
826.3328, 15156.30
826.8149, 15183.29
827.2970, 15233.30
827.7791, 15265.95
828.2612, 15268.59
828.7433, 15258.92
829.2255, 15230.29
829.7076, 15197.09
830.1897, 15179.11
830.6718, 15176.46
831.1539, 15175.88
831.6360, 15173.74
832.1182, 15177.26
832.6003, 15204.07
833.0824, 15240.26
833.5645, 15262.64
834.0466, 15259.51
834.5287, 15249.78
835.0109, 15234.77
835.4930, 15218.99
835.9751, 15208.67
836.4572, 15206.81
836.9393, 15200.79
837.4214, 15185.97
837.9036, 15173.79
838.3857, 15190.29
838.8678, 15225.48
839.3499, 15235.00
839.8320, 15199.28
840.3141, 15164.24
840.7963, 15178.99
841.2784, 15211.39
841.7605, 15220.96
842.2426, 15156.97
842.7247, 15131.33
843.2068, 15171.65
843.6890, 15232.74
844.1711, 15259.08
844.6532, 15249.06
845.1353, 15238.29
845.6174, 15230.38
846.0995, 15227.29
846.5817, 15236.87
847.0638, 15251.51
847.5460, 15256.26
848.0281, 15241.83
848.5102, 15232.14
848.9923, 15245.26
849.4744, 15263.28
849.9565, 15266.76
850.4387, 15248.32
850.9208, 15233.24
851.4029, 15222.37
851.8850, 15215.29
852.3671, 15208.07
852.8492, 15203.71
853.3314, 15218.90
853.8135, 15261.13
854.2956, 15295.45
854.7777, 15282.16
855.2598, 15253.56
855.7419, 15244.82
856.2241, 15279.97
856.7062, 15294.32
857.1883, 15276.69
857.6704, 15246.79
858.1525, 15211.02
858.6346, 15168.11
859.1168, 15182.74
859.5989, 15265.91
860.0810, 15346.58
860.5631, 15335.64
861.0452, 15287.12
861.5273, 15282.89
862.0095, 15346.01
862.4916, 15385.81
862.9737, 15344.72
863.4558, 15285.88
863.9379, 15252.22
864.4200, 15248.64
864.9022, 15245.08
865.3843, 15241.64
865.8664, 15237.75
866.3485, 15227.46
866.8306, 15217.25
867.3127, 15225.78
867.7949, 15254.05
868.2770, 15284.87
868.7591, 15312.70
869.2412, 15335.44
869.7233, 15353.55
870.2054, 15368.20
870.6876, 15365.14
871.1697, 15337.54
871.6518, 15305.35
872.1339, 15273.69
872.6160, 15245.62
873.0981, 15249.26
873.5803, 15283.26
874.0624, 15316.96
874.5445, 15328.92
875.0266, 15331.71
875.5087, 15333.95
875.9908, 15336.53
876.4730, 15342.67
876.9551, 15357.46
877.4372, 15371.71
877.9193, 15387.63
878.4014, 15401.30
878.8835, 15377.58
879.3657, 15315.30
879.8478, 15269.28
880.3299, 15276.60
880.8120, 15312.36
881.2941, 15354.49
881.7762, 15397.00
882.2584, 15420.45
882.7405, 15399.66
883.2226, 15377.12
883.7047, 15369.34
884.1868, 15370.84
884.6689, 15361.77
885.1511, 15336.75
885.6332, 15330.41
886.1153, 15359.55
886.5974, 15404.06
887.0795, 15433.36
887.5616, 15448.24
888.0438, 15450.81
888.5259, 15434.34
889.0080, 15414.34
889.4901, 15392.79
889.9722, 15373.68
890.4543, 15366.23
890.9365, 15381.08
891.4186, 15376.50
891.9007, 15335.75
892.3828, 15293.95
892.8649, 15321.28
893.3470, 15396.29
893.8292, 15442.10
894.3113, 15432.06
894.7934, 15410.19
895.2755, 15401.04
895.7576, 15400.51
896.2397, 15404.33
896.7219, 15414.85
897.2040, 15426.03
897.6861, 15443.51
898.1682, 15452.53
898.6503, 15427.81
899.1324, 15376.56
899.6146, 15351.18
900.0967, 15357.91
900.5788, 15378.44
901.0609, 15412.26
901.5430, 15443.42
902.0251, 15454.25
902.5073, 15437.30
902.9894, 15425.54
903.4715, 15426.21
903.9536, 15427.67
904.4357, 15420.23
904.9178, 15405.07
905.4000, 15409.09
905.8821, 15432.42
906.3642, 15457.83
906.8463, 15481.66
907.3284, 15495.76
907.8105, 15485.11
908.2927, 15452.53
908.7748, 15426.80
909.2569, 15417.64
909.7390, 15415.97
910.2211, 15422.01
910.7032, 15433.15
911.1854, 15434.60
911.6675, 15425.97
912.1496, 15420.64
912.6317, 15428.85
913.1138, 15439.03
913.5959, 15435.21
914.0781, 15421.59
914.5602, 15408.24
915.0423, 15383.48
915.5244, 15379.28
916.0065, 15416.89
916.4886, 15471.82
916.9708, 15498.69
917.4529, 15495.16
917.9350, 15487.40
918.4171, 15478.92
918.8992, 15473.21
919.3813, 15477.01
919.8635, 15486.22
920.3456, 15494.46
920.8277, 15501.99
921.3098, 15503.85
921.7919, 15493.05
922.2740, 15479.65
922.7562, 15472.12
923.2383, 15471.15
923.7204, 15473.47
924.2025, 15479.90
924.6846, 15484.23
925.1667, 15478.68
925.6489, 15467.79
926.1310, 15456.25
926.6131, 15444.43
927.0952, 15441.69
927.5773, 15462.24
928.0594, 15483.49
928.5416, 15495.73
929.0237, 15498.92
929.5058, 15481.73
929.9879, 15438.89
930.4700, 15412.43
930.9521, 15444.16
931.4343, 15499.09
931.9164, 15515.37
932.3985, 15500.80
932.8806, 15486.09
933.3627, 15474.30
933.8448, 15476.71
934.3270, 15511.55
934.8091, 15560.75
935.2912, 15577.95
935.7733, 15558.19
936.2554, 15538.18
936.7375, 15524.58
937.2197, 15520.17
937.7018, 15538.57
938.1839, 15567.58
938.6660, 15581.73
939.1481, 15566.81
939.6302, 15548.35
940.1124, 15528.04
940.5945, 15512.03
941.0766, 15506.77
941.5587, 15513.53
942.0408, 15526.58
942.5229, 15547.46
943.0051, 15564.01
943.4872, 15556.54
943.9693, 15540.09
944.4514, 15537.85
944.9335, 15552.75
945.4156, 15576.59
945.8978, 15621.71
946.3799, 15659.46
946.8620, 15675.84
947.3441, 15671.30
947.8262, 15654.51
948.3083, 15623.66
948.7905, 15598.86
949.2726, 15592.45
949.7547, 15598.41
950.2368, 15613.85
950.7189, 15634.82
951.2010, 15648.42
951.6832, 15643.91
952.1653, 15637.81
952.6474, 15628.63
953.1295, 15623.59
953.6116, 15646.97
954.0938, 15700.87
954.5759, 15723.78
955.0580, 15694.28
955.5401, 15651.39
956.0222, 15641.44
956.5043, 15648.23
956.9865, 15646.53
957.4686, 15620.34
957.9507, 15608.10
958.4328, 15623.89
958.9149, 15646.46
959.3970, 15658.96
959.8792, 15661.16
960.3613, 15667.67
960.8434, 15679.04
961.3255, 15690.79
961.8076, 15707.13
962.2897, 15716.72
962.7719, 15698.63
963.2540, 15654.19
963.7361, 15635.00
964.2182, 15670.30
964.7003, 15704.57
965.1824, 15721.24
965.6646, 15722.97
966.1467, 15712.54
966.6288, 15692.40
967.1109, 15682.04
967.5930, 15696.63
968.0751, 15715.16
968.5573, 15721.02
969.0394, 15718.65
969.5215, 15715.67
970.0036, 15710.94
970.4857, 15710.57
970.9678, 15717.54
971.4500, 15724.50
971.9321, 15718.65
972.4142, 15704.28
972.8963, 15698.46
973.3784, 15703.62
973.8605, 15715.14
974.3427, 15747.64
974.8248, 15772.09
975.3069, 15755.04
975.7890, 15687.41
976.2711, 15660.40
976.7532, 15685.26
977.2354, 15715.93
977.7175, 15731.81
978.1996, 15733.84
978.6817, 15712.07
979.1638, 15675.76
979.6459, 15661.90
980.1281, 15710.98
980.6102, 15761.83
981.0923, 15795.03
981.5744, 15810.34
982.0565, 15802.55
982.5386, 15764.64
983.0208, 15740.10
983.5029, 15736.09
983.9850, 15749.09
984.4671, 15795.03
984.9492, 15847.66
985.4313, 15859.75
985.9135, 15809.81
986.3956, 15765.36
986.8777, 15739.15
987.3598, 15732.26
987.8419, 15754.32
988.3240, 15805.56
988.8062, 15815.69
989.2883, 15784.14
989.7704, 15763.73
990.2525, 15819.05
990.7346, 15881.27
991.2167, 15863.07
991.6989, 15785.12
992.1810, 15743.01
992.6631, 15785.44
993.1452, 15823.46
993.6273, 15844.58
994.1094, 15847.81
994.5916, 15813.40
995.0737, 15754.11
995.5558, 15740.43
996.0379, 15806.76
996.5200, 15868.60
997.0021, 15848.94
997.4843, 15802.36
997.9664, 15788.20
998.4485, 15822.33
998.9306, 15846.81
999.4127, 15859.92
999.8948, 15868.15
1000.377, 15872.96
1000.859, 15877.40
1001.341, 15891.81
1001.823, 15914.38
1002.305, 15932.19
1002.788, 15941.45
1003.270, 15941.80
1003.752, 15924.14
1004.234, 15899.52
1004.716, 15899.94
1005.198, 15928.02
1005.680, 15952.08
1006.162, 15963.29
1006.644, 15968.12
1007.127, 15975.29
1007.609, 15980.69
1008.091, 15977.16
1008.573, 15957.73
1009.055, 15942.85
1009.537, 15933.85
1010.019, 15931.20
1010.501, 15937.13
1010.984, 15950.66
1011.466, 15961.60
1011.948, 15970.07
1012.430, 15979.66
1012.912, 16000.47
1013.394, 16016.28
1013.876, 16008.00
1014.358, 15983.14
1014.841, 15977.66
1015.323, 15997.66
1015.805, 16025.55
1016.287, 16065.58
1016.769, 16095.77
1017.251, 16052.71
1017.733, 15976.37
1018.215, 15963.80
1018.697, 16069.14
1019.180, 16144.89
1019.662, 16098.50
1020.144, 16026.82
1020.626, 15998.46
1021.108, 16016.47
1021.590, 16027.13
1022.072, 16029.79
1022.554, 16040.19
1023.036, 16084.65
1023.519, 16130.57
1024.001, 16131.31
1024.483, 16101.17
1024.965, 16098.08
1025.447, 16163.37
1025.929, 16209.67
1026.411, 16221.76
1026.893, 16211.04
1027.375, 16194.94
1027.858, 16172.97
1028.340, 16137.87
1028.822, 16081.56
1029.304, 16046.73
1029.786, 16077.94
1030.268, 16128.70
1030.750, 16164.47
1031.232, 16184.40
1031.715, 16188.02
1032.197, 16173.05
1032.679, 16156.30
1033.161, 16146.24
1033.643, 16141.36
1034.125, 16137.13
1034.607, 16135.93
1035.089, 16144.44
1035.572, 16166.39
1036.054, 16199.52
1036.536, 16258.40
1037.018, 16310.79
1037.500, 16293.94
1037.982, 16220.34
1038.464, 16194.10
1038.946, 16232.43
1039.428, 16269.00
1039.911, 16244.00
1040.393, 16203.63
1040.875, 16184.30
1041.357, 16188.62
1041.839, 16194.27
1042.321, 16203.94
1042.803, 16202.12
1043.285, 16170.41
1043.767, 16136.74
1044.250, 16164.23
1044.732, 16228.37
1045.214, 16275.33
1045.696, 16272.25
1046.178, 16267.92
1046.660, 16265.34
1047.142, 16270.99
1047.624, 16302.78
1048.107, 16356.76
1048.589, 16357.13
1049.071, 16299.59
1049.553, 16247.63
1050.035, 16262.70
1050.517, 16289.84
1050.999, 16289.19
1051.481, 16260.28
1051.964, 16224.80
1052.446, 16174.72
1052.928, 16147.21
1053.410, 16157.38
1053.892, 16184.46
1054.374, 16201.12
1054.856, 16207.59
1055.338, 16202.20
1055.820, 16178.31
1056.302, 16160.18
1056.785, 16153.00
1057.267, 16155.07
1057.749, 16170.09
1058.231, 16196.25
1058.713, 16203.06
1059.195, 16192.43
1059.677, 16189.18
1060.159, 16227.34
1060.642, 16259.96
1061.124, 16245.53
1061.606, 16201.67
1062.088, 16178.77
1062.570, 16187.19
1063.052, 16182.68
1063.534, 16155.07
1064.016, 16128.53
1064.499, 16138.50
1064.981, 16165.95
1065.463, 16177.04
1065.945, 16165.83
1066.427, 16165.92
1066.909, 16200.37
1067.391, 16231.38
1067.873, 16245.59
1068.355, 16245.84
1068.838, 16241.44
1069.320, 16232.28
1069.802, 16216.00
1070.284, 16182.00
1070.766, 16157.45
1071.248, 16169.02
1071.730, 16193.52
1072.212, 16201.74
1072.694, 16186.40
1073.177, 16180.90
1073.659, 16185.76
1074.141, 16197.26
1074.623, 16223.62
1075.105, 16247.59
1075.587, 16239.81
1076.069, 16207.19
1076.551, 16190.06
1077.034, 16212.34
1077.516, 16225.76
1077.998, 16220.22
1078.480, 16205.57
1078.962, 16198.63
1079.444, 16196.44
1079.926, 16184.92
1080.408, 16157.52
1080.891, 16150.98
1081.373, 16222.73
1081.855, 16284.34
1082.337, 16275.44
1082.819, 16204.78
1083.301, 16176.64
1083.783, 16190.52
1084.265, 16201.11
1084.747, 16180.66
1085.229, 16158.55
1085.712, 16168.74
1086.194, 16192.97
1086.676, 16200.74
1087.158, 16172.83
1087.640, 16165.34
1088.122, 16181.37
1088.604, 16209.77
1089.086, 16249.27
1089.569, 16290.69
1090.051, 16323.67
1090.533, 16344.98
1091.015, 16339.55
1091.497, 16268.71
1091.979, 16212.53
1092.461, 16190.20
1092.943, 16190.83
1093.426, 16197.37
1093.908, 16209.18
1094.390, 16224.13
1094.872, 16242.44
1095.354, 16258.34
1095.836, 16263.27
1096.318, 16268.71
1096.800, 16287.10
1097.282, 16316.60
1097.765, 16322.53
1098.247, 16303.35
1098.729, 16287.98
1099.211, 16290.55
1099.693, 16300.49
1100.175, 16310.80
1100.657, 16319.58
1101.139, 16323.29
1101.622, 16315.92
1102.104, 16317.39
1102.586, 16333.42
1103.068, 16341.40
1103.550, 16309.90
1104.032, 16262.62
1104.514, 16249.84
1104.996, 16266.82
1105.479, 16284.35
1105.961, 16294.39
1106.443, 16299.11
1106.925, 16297.76
1107.407, 16293.48
1107.889, 16289.95
1108.371, 16287.69
1108.853, 16289.90
1109.335, 16297.16
1109.818, 16307.13
1110.300, 16321.40
1110.782, 16335.13
1111.264, 16347.14
1111.746, 16356.34
1112.228, 16351.03
1112.710, 16330.52
1113.192, 16321.48
1113.674, 16335.49
1114.157, 16358.15
1114.639, 16384.77
1115.121, 16406.74
1115.603, 16412.03
1116.085, 16394.10
1116.567, 16378.85
1117.049, 16366.50
1117.531, 16356.02
1118.014, 16347.75
1118.496, 16340.34
1118.978, 16325.43
1119.460, 16309.77
1119.942, 16310.68
1120.424, 16355.60
1120.906, 16385.52
1121.388, 16392.18
1121.870, 16388.50
1122.353, 16384.22
1122.835, 16381.65
1123.317, 16390.51
1123.799, 16410.43
1124.281, 16427.93
1124.763, 16439.17
1125.245, 16442.62
1125.727, 16438.70
1126.209, 16427.08
1126.692, 16397.49
1127.174, 16354.49
1127.656, 16346.16
1128.138, 16387.96
1128.620, 16429.83
1129.102, 16441.23
1129.584, 16433.85
1130.066, 16401.29
1130.549, 16349.56
1131.031, 16375.37
1131.513, 16486.61
1131.995, 16552.37
1132.477, 16497.92
1132.959, 16416.51
1133.441, 16400.51
1133.923, 16420.32
1134.406, 16437.86
1134.888, 16455.13
1135.370, 16439.54
1135.852, 16377.76
1136.334, 16336.68
1136.816, 16387.79
1137.298, 16472.50
1137.780, 16494.75
1138.262, 16470.65
1138.745, 16446.73
1139.227, 16435.72
1139.709, 16426.96
1140.191, 16420.58
1140.673, 16414.35
1141.155, 16401.27
1141.637, 16387.57
1142.119, 16392.99
1142.601, 16416.87
1143.084, 16437.01
1143.566, 16425.23
1144.048, 16435.63
1144.530, 16497.52
1145.012, 16574.84
1145.494, 16588.57
1145.976, 16553.33
1146.458, 16543.78
1146.941, 16578.42
1147.423, 16595.28
1147.905, 16526.05
1148.387, 16461.43
1148.869, 16459.74
1149.351, 16506.39
1149.833, 16523.79
1150.315, 16513.24
1150.797, 16489.93
1151.280, 16447.09
1151.762, 16422.08
1152.244, 16469.00
1152.726, 16529.71
1153.208, 16540.21
1153.690, 16491.86
1154.172, 16487.62
1154.654, 16529.89
1155.136, 16563.12
1155.619, 16547.26
1156.101, 16517.65
1156.583, 16507.96
1157.065, 16508.50
1157.547, 16500.34
1158.029, 16474.94
1158.511, 16462.89
1158.993, 16465.64
1159.476, 16477.53
1159.958, 16502.02
1160.440, 16527.28
1160.922, 16532.76
1161.404, 16524.70
1161.886, 16530.87
1162.368, 16570.74
1162.850, 16589.00
1163.333, 16573.41
1163.815, 16550.47
1164.297, 16557.07
1164.779, 16574.86
1165.261, 16563.20
1165.743, 16522.17
1166.225, 16513.99
1166.707, 16590.65
1167.189, 16637.52
1167.672, 16619.18
1168.154, 16571.05
1168.636, 16556.74
1169.118, 16562.79
1169.600, 16554.74
1170.082, 16522.20
1170.564, 16508.84
1171.046, 16551.29
1171.528, 16586.70
1172.011, 16586.04
1172.493, 16565.29
1172.975, 16580.82
1173.457, 16617.04
1173.939, 16617.32
1174.421, 16541.32
1174.903, 16489.23
1175.385, 16523.78
1175.868, 16573.47
1176.350, 16595.56
1176.832, 16596.40
1177.314, 16622.12
1177.796, 16665.41
1178.278, 16685.48
1178.760, 16646.91
1179.242, 16604.70
1179.724, 16575.91
1180.207, 16560.26
1180.689, 16562.91
1181.171, 16583.43
1181.653, 16584.40
1182.135, 16567.13
1182.617, 16553.68
1183.099, 16557.61
1183.581, 16568.99
1184.063, 16586.97
1184.546, 16607.07
1185.028, 16620.75
1185.510, 16627.60
1185.992, 16654.22
1186.474, 16703.06
1186.956, 16731.46
1187.438, 16679.04
1187.920, 16624.51
1188.403, 16634.38
1188.885, 16680.42
1189.367, 16681.13
1189.849, 16631.52
1190.331, 16628.85
1190.813, 16693.35
1191.295, 16749.24
1191.777, 16713.04
1192.260, 16657.22
1192.742, 16637.04
1193.224, 16650.60
1193.706, 16674.34
1194.188, 16711.32
1194.670, 16723.36
1195.152, 16694.51
1195.634, 16669.29
1196.116, 16704.33
1196.599, 16754.99
1197.081, 16779.39
1197.563, 16775.04
1198.045, 16754.97
1198.527, 16715.36
1199.009, 16697.89
1199.491, 16727.36
1199.973, 16760.70
1200.455, 16750.50
1200.938, 16718.93
1201.420, 16688.99
1201.902, 16662.23
1202.384, 16649.72
1202.866, 16652.60
1203.348, 16660.69
1203.830, 16667.53
1204.312, 16679.26
1204.795, 16710.59
1205.277, 16747.95
1205.759, 16771.83
1206.241, 16780.54
1206.723, 16773.19
1207.205, 16746.42
1207.687, 16725.87
1208.169, 16732.57
1208.651, 16749.23
1209.134, 16761.49
1209.616, 16768.12
1210.098, 16764.73
1210.580, 16744.70
1211.062, 16734.29
1211.544, 16734.10
1212.026, 16742.54
1212.508, 16768.46
1212.990, 16794.02
1213.473, 16793.04
1213.955, 16775.86
1214.437, 16772.64
1214.919, 16790.27
1215.401, 16808.57
1215.883, 16828.75
1216.365, 16834.03
1216.847, 16778.90
1217.330, 16724.52
1217.812, 16761.65
1218.294, 16862.99
1218.776, 16898.20
1219.258, 16837.97
1219.740, 16795.46
1220.222, 16786.92
1220.704, 16788.62
1221.187, 16767.54
1221.669, 16750.53
1222.151, 16773.78
1222.633, 16832.42
1223.115, 16879.55
1223.597, 16918.29
1224.079, 16917.05
1224.561, 16861.81
1225.043, 16802.71
1225.526, 16797.51
1226.008, 16815.30
1226.490, 16825.30
1226.972, 16825.11
1227.454, 16828.50
1227.936, 16837.11
1228.418, 16839.14
1228.900, 16828.59
1229.382, 16822.19
1229.865, 16851.44
1230.347, 16886.08
1230.829, 16885.31
1231.311, 16847.05
1231.793, 16851.67
1232.275, 16909.37
1232.757, 16925.91
1233.239, 16857.76
1233.722, 16781.15
1234.204, 16776.83
1234.686, 16808.16
1235.168, 16842.36
1235.650, 16876.78
1236.132, 16890.82
1236.614, 16882.69
1237.096, 16874.80
1237.578, 16870.09
1238.061, 16881.71
1238.543, 16956.77
1239.025, 17032.31
1239.507, 17022.86
1239.989, 16925.09
1240.471, 16883.53
1240.953, 16899.46
1241.435, 16923.07
1241.917, 16932.79
1242.400, 16940.73
1242.882, 16961.34
1243.364, 16981.71
1243.846, 16985.29
1244.328, 16970.93
1244.810, 16971.78
1245.292, 16987.55
1245.774, 17008.80
1246.257, 17043.14
1246.739, 17063.59
1247.221, 17041.87
1247.703, 17004.03
1248.185, 16976.93
1248.667, 16960.41
1249.149, 16948.76
1249.631, 16942.93
1250.114, 16954.27
1250.596, 17008.00
1251.078, 17056.52
1251.560, 17080.58
1252.042, 17083.96
1252.524, 17064.66
1253.006, 17024.59
1253.488, 16991.93
1253.970, 16968.92
1254.453, 16969.33
1254.935, 17023.73
1255.417, 17073.87
1255.899, 17103.13
1256.381, 17114.07
1256.863, 17098.53
1257.345, 17063.64
1257.827, 17056.71
1258.310, 17074.77
1258.792, 17094.58
1259.274, 17123.39
1259.756, 17123.09
1260.238, 17065.51
1260.720, 17007.33
1261.202, 17011.90
1261.684, 17062.96
1262.167, 17122.45
1262.649, 17181.58
1263.131, 17206.89
1263.613, 17149.60
1264.095, 17106.31
1264.577, 17090.95
1265.059, 17092.84
1265.541, 17107.38
1266.023, 17127.96
1266.505, 17143.89
1266.988, 17153.39
1267.470, 17151.57
1267.952, 17129.08
1268.434, 17107.03
1268.916, 17084.45
1269.398, 17071.53
1269.880, 17084.16
1270.362, 17110.15
1270.845, 17137.91
1271.327, 17163.83
1271.809, 17170.48
1272.291, 17142.38
1272.773, 17142.84
1273.255, 17184.28
1273.737, 17228.97
1274.219, 17235.10
1274.702, 17227.52
1275.184, 17232.24
1275.666, 17246.25
1276.148, 17249.97
1276.630, 17239.21
1277.112, 17241.11
1277.594, 17260.12
1278.076, 17281.25
1278.558, 17293.30
1279.041, 17300.53
1279.523, 17309.49
1280.005, 17315.11
1280.487, 17299.64
1280.969, 17262.55
1281.451, 17240.78
1281.933, 17239.21
1282.415, 17253.15
1282.897, 17301.56
1283.380, 17340.38
1283.862, 17336.27
1284.344, 17311.92
1284.826, 17313.61
1285.308, 17335.64
1285.790, 17333.02
1286.272, 17301.29
1286.754, 17282.57
1287.237, 17327.52
1287.719, 17350.92
1288.201, 17308.39
1288.683, 17252.37
1289.165, 17294.79
1289.647, 17392.66
1290.129, 17412.61
1290.611, 17345.73
1291.094, 17310.32
1291.576, 17384.36
1292.058, 17439.17
1292.540, 17450.01
1293.022, 17432.19
1293.504, 17382.86
1293.986, 17331.19
1294.468, 17333.22
1294.950, 17388.70
1295.432, 17428.54
1295.915, 17443.18
1296.397, 17448.68
1296.879, 17446.20
1297.361, 17443.10
1297.843, 17445.29
1298.325, 17453.03
1298.807, 17470.73
1299.289, 17495.75
1299.772, 17509.44
1300.254, 17511.39
1300.736, 17503.55
1301.218, 17484.37
1301.700, 17472.02
1302.182, 17486.29
1302.664, 17509.87
1303.146, 17537.04
1303.629, 17561.47
1304.111, 17568.51
1304.593, 17559.19
1305.075, 17541.45
1305.557, 17515.86
1306.039, 17506.54
1306.521, 17549.90
1307.003, 17586.28
1307.485, 17588.24
1307.968, 17575.14
1308.450, 17580.26
1308.932, 17600.10
1309.414, 17631.72
1309.896, 17673.01
1310.378, 17691.29
1310.860, 17644.90
1311.342, 17619.77
1311.824, 17637.14
1312.307, 17671.07
1312.789, 17691.26
1313.271, 17701.20
1313.753, 17698.02
1314.235, 17685.56
1314.717, 17702.93
1315.199, 17769.49
1315.681, 17799.56
1316.164, 17771.84
1316.646, 17740.24
1317.128, 17772.16
1317.610, 17816.20
##END=



