##NAMES=Schwartzembergite
##RRUFFID=R070429
##IDEAL CHEMISTRY=Pb^2+^_5_H_2_I^3+^O_6_Cl_3_
##LOCALITY=Venado mine, Copiapo, Chile
##OWNER=RRUFF
##SOURCE=Bob Jenkins
##DESCRIPTION=Bright yellow/orange tabular crystals associated with blue diaboleite and colorless cerussite
##STATUS=The identification of this mineral has been confirmed only by single crystal X-ray diffraction.
##URL=rruff.info/R070429
166.8303, 3742.451
167.3124, 3722.224
167.7945, 3713.090
168.2766, 3712.253
168.7587, 3715.027
169.2408, 3724.242
169.7230, 3730.490
170.2051, 3728.777
170.6872, 3721.225
171.1693, 3710.080
171.6514, 3692.950
172.1335, 3674.290
172.6157, 3666.668
173.0978, 3675.825
173.5799, 3684.726
174.0620, 3682.049
174.5441, 3674.952
175.0262, 3674.257
175.5084, 3687.114
175.9905, 3708.591
176.4726, 3723.983
176.9547, 3726.508
177.4368, 3735.944
177.9189, 3764.192
178.4010, 3801.740
178.8832, 3834.972
179.3653, 3855.528
179.8474, 3869.509
180.3295, 3895.608
180.8116, 3938.828
181.2937, 3986.262
181.7759, 4038.629
182.2580, 4090.747
182.7401, 4134.859
183.2222, 4165.809
183.7043, 4188.741
184.1864, 4218.218
184.6686, 4255.585
185.1507, 4297.604
185.6328, 4340.860
186.1149, 4387.908
186.5970, 4443.375
187.0791, 4510.646
187.5613, 4584.007
188.0434, 4648.780
188.5255, 4696.063
189.0076, 4749.449
189.4897, 4815.882
189.9718, 4888.664
190.4540, 4962.094
190.9361, 5033.243
191.4182, 5102.871
191.9003, 5172.384
192.3824, 5240.747
192.8645, 5311.561
193.3467, 5386.600
193.8288, 5463.601
194.3109, 5539.330
194.7930, 5612.402
195.2751, 5686.856
195.7572, 5772.939
196.2394, 5886.095
196.7215, 5982.228
197.2036, 6042.676
197.6857, 6093.901
198.1678, 6158.315
198.6499, 6243.667
199.1321, 6341.555
199.6142, 6437.406
200.0963, 6532.790
200.5784, 6622.685
201.0605, 6704.372
201.5426, 6783.204
202.0248, 6862.273
202.5069, 6942.880
202.9890, 7023.433
203.4711, 7101.947
203.9532, 7179.053
204.4353, 7251.916
204.9175, 7319.411
205.3996, 7384.271
205.8817, 7447.844
206.3638, 7510.649
206.8459, 7573.013
207.3280, 7635.201
207.8102, 7694.564
208.2923, 7759.739
208.7744, 7839.639
209.2565, 7917.966
209.7386, 7986.286
210.2207, 8042.779
210.7029, 8089.808
211.1850, 8127.620
211.6671, 8150.758
212.1492, 8184.302
212.6313, 8237.214
213.1134, 8291.887
213.5956, 8339.079
214.0777, 8379.120
214.5598, 8419.141
215.0419, 8469.323
215.5240, 8534.657
216.0061, 8575.070
216.4883, 8570.350
216.9704, 8560.043
217.4525, 8552.552
217.9346, 8551.473
218.4167, 8562.342
218.8988, 8595.048
219.3810, 8651.148
219.8631, 8671.918
220.3452, 8619.348
220.8273, 8566.422
221.3094, 8532.729
221.7915, 8513.790
222.2737, 8497.703
222.7558, 8477.250
223.2379, 8452.064
223.7200, 8420.267
224.2021, 8383.517
224.6842, 8336.825
225.1664, 8272.699
225.6485, 8199.210
226.1306, 8128.883
226.6127, 8069.962
227.0948, 8017.855
227.5770, 7953.349
228.0591, 7870.563
228.5412, 7781.269
229.0233, 7680.045
229.5054, 7576.889
229.9875, 7484.090
230.4697, 7407.443
230.9518, 7340.648
231.4339, 7268.021
231.9160, 7189.645
232.3981, 7104.652
232.8802, 7005.979
233.3624, 6905.789
233.8445, 6815.032
234.3266, 6737.408
234.8087, 6665.146
235.2908, 6585.268
235.7729, 6493.917
236.2551, 6403.313
236.7372, 6307.995
237.2193, 6217.284
237.7014, 6139.258
238.1835, 6074.592
238.6656, 6014.323
239.1478, 5948.133
239.6299, 5875.947
240.1120, 5797.246
240.5941, 5701.443
241.0762, 5607.826
241.5583, 5526.729
242.0405, 5457.436
242.5226, 5391.824
243.0047, 5321.391
243.4868, 5245.196
243.9689, 5174.346
244.4510, 5115.301
244.9332, 5055.031
245.4153, 4987.264
245.8974, 4913.947
246.3795, 4841.219
246.8616, 4772.750
247.3437, 4708.076
247.8259, 4647.660
248.3080, 4598.377
248.7901, 4543.503
249.2722, 4475.520
249.7543, 4398.752
250.2364, 4319.664
250.7186, 4239.212
251.2007, 4160.691
251.6828, 4093.469
252.1649, 4039.599
252.6470, 3993.224
253.1291, 3958.711
253.6113, 3927.322
254.0934, 3887.905
254.5755, 3834.810
255.0576, 3778.680
255.5397, 3738.687
256.0219, 3720.621
256.5040, 3697.056
256.9861, 3650.499
257.4682, 3601.066
257.9503, 3564.851
258.4324, 3545.632
258.9146, 3529.742
259.3967, 3500.633
259.8788, 3457.407
260.3609, 3420.652
260.8430, 3394.758
261.3251, 3376.473
261.8073, 3366.950
262.2894, 3365.082
262.7715, 3358.898
263.2536, 3335.827
263.7357, 3299.321
264.2178, 3270.245
264.7000, 3253.368
265.1821, 3240.391
265.6642, 3222.232
266.1463, 3201.718
266.6284, 3189.173
267.1105, 3196.800
267.5927, 3214.355
268.0748, 3217.897
268.5569, 3202.362
269.0390, 3187.565
269.5211, 3190.192
270.0032, 3202.702
270.4854, 3212.971
270.9675, 3217.079
271.4496, 3218.339
271.9317, 3219.943
272.4138, 3221.888
272.8959, 3223.956
273.3781, 3222.621
273.8602, 3223.433
274.3423, 3236.402
274.8244, 3267.048
275.3065, 3300.782
275.7886, 3327.170
276.2708, 3348.160
276.7529, 3373.557
277.2350, 3410.563
277.7171, 3448.225
278.1992, 3465.954
278.6813, 3459.565
279.1635, 3457.379
279.6456, 3471.683
280.1277, 3496.330
280.6098, 3520.135
281.0919, 3540.241
281.5740, 3562.217
282.0562, 3594.405
282.5383, 3637.607
283.0204, 3678.510
283.5025, 3713.410
283.9846, 3746.770
284.4667, 3782.148
284.9489, 3819.998
285.4310, 3860.269
285.9131, 3902.669
286.3952, 3947.322
286.8773, 3995.358
287.3594, 4050.951
287.8416, 4105.621
288.3237, 4153.077
288.8058, 4196.181
289.2879, 4243.625
289.7700, 4301.506
290.2521, 4365.319
290.7343, 4414.599
291.2164, 4438.110
291.6985, 4462.184
292.1806, 4490.792
292.6627, 4522.044
293.1448, 4554.617
293.6270, 4587.932
294.1091, 4619.831
294.5912, 4645.980
295.0733, 4661.648
295.5554, 4680.466
296.0375, 4705.861
296.5197, 4731.578
297.0018, 4751.651
297.4839, 4766.426
297.9660, 4781.976
298.4481, 4806.123
298.9302, 4841.865
299.4124, 4865.171
299.8945, 4864.565
300.3766, 4863.386
300.8587, 4869.469
301.3408, 4881.303
301.8229, 4895.592
302.3050, 4911.875
302.7871, 4927.054
303.2693, 4923.571
303.7514, 4882.018
304.2335, 4850.237
304.7156, 4843.113
305.1977, 4847.483
305.6798, 4852.005
306.1620, 4852.827
306.6441, 4845.693
307.1262, 4819.136
307.6083, 4764.954
308.0904, 4722.397
308.5725, 4711.489
309.0547, 4705.427
309.5368, 4689.384
310.0189, 4661.797
310.5010, 4629.702
310.9831, 4599.534
311.4652, 4570.705
311.9474, 4536.582
312.4295, 4493.208
312.9116, 4449.649
313.3937, 4413.249
313.8758, 4381.159
314.3579, 4346.293
314.8401, 4304.112
315.3222, 4257.767
315.8043, 4210.940
316.2864, 4162.615
316.7685, 4120.215
317.2506, 4091.520
317.7328, 4070.708
318.2149, 4049.426
318.6970, 4030.935
319.1791, 4004.642
319.6612, 3954.418
320.1433, 3887.057
320.6255, 3833.404
321.1076, 3807.295
321.5897, 3794.576
322.0718, 3771.332
322.5539, 3735.389
323.0360, 3705.043
323.5182, 3689.693
324.0003, 3680.907
324.4824, 3667.479
324.9645, 3647.482
325.4466, 3626.229
325.9287, 3608.593
326.4109, 3595.003
326.8930, 3582.012
327.3751, 3570.512
327.8572, 3558.713
328.3393, 3542.117
328.8214, 3523.844
329.3036, 3514.946
329.7857, 3523.727
330.2678, 3543.594
330.7499, 3544.304
331.2320, 3499.816
331.7141, 3468.375
332.1963, 3466.303
332.6784, 3475.415
333.1605, 3474.431
333.6426, 3457.454
334.1247, 3436.427
334.6068, 3429.605
335.0890, 3442.966
335.5711, 3454.799
336.0532, 3467.728
336.5353, 3477.061
337.0174, 3477.334
337.4995, 3471.148
337.9817, 3466.837
338.4638, 3471.937
338.9459, 3484.968
339.4280, 3491.913
339.9101, 3485.419
340.3922, 3483.808
340.8744, 3493.728
341.3565, 3510.502
341.8386, 3529.509
342.3207, 3549.927
342.8028, 3567.954
343.2849, 3575.219
343.7671, 3569.348
344.2492, 3569.546
344.7313, 3578.893
345.2134, 3597.976
345.6955, 3634.337
346.1776, 3687.211
346.6598, 3728.563
347.1419, 3730.153
347.6240, 3706.885
348.1061, 3701.950
348.5882, 3723.937
349.0703, 3750.617
349.5525, 3763.679
350.0346, 3767.339
350.5167, 3773.741
350.9988, 3782.587
351.4809, 3796.898
351.9630, 3824.004
352.4452, 3860.852
352.9273, 3891.732
353.4094, 3909.251
353.8915, 3916.246
354.3736, 3918.809
354.8557, 3914.906
355.3379, 3911.905
355.8200, 3908.675
356.3021, 3908.436
356.7842, 3916.768
357.2663, 3934.409
357.7484, 3954.895
358.2306, 3971.777
358.7127, 3985.684
359.1948, 3991.415
359.6769, 3978.653
360.1590, 3969.144
360.6411, 3976.362
361.1233, 3994.349
361.6054, 4007.722
362.0875, 4006.528
362.5696, 3997.322
363.0517, 4005.965
363.5338, 4056.170
364.0160, 4085.402
364.4981, 4071.072
364.9802, 4044.771
365.4623, 4030.497
365.9444, 4034.221
366.4265, 4050.176
366.9087, 4075.901
367.3908, 4112.643
367.8729, 4141.498
368.3550, 4160.096
368.8371, 4172.076
369.3192, 4176.710
369.8014, 4176.820
370.2835, 4178.903
370.7656, 4186.658
371.2477, 4197.585
371.7298, 4207.877
372.2119, 4217.561
372.6941, 4226.111
373.1762, 4232.166
373.6583, 4237.614
374.1404, 4245.958
374.6225, 4258.724
375.1046, 4269.230
375.5868, 4277.101
376.0689, 4279.691
376.5510, 4268.193
377.0331, 4239.190
377.5152, 4208.925
377.9973, 4195.845
378.4795, 4202.350
378.9616, 4198.782
379.4437, 4178.163
379.9258, 4153.382
380.4079, 4133.245
380.8900, 4115.496
381.3722, 4092.139
381.8543, 4058.210
382.3364, 4018.003
382.8185, 3983.930
383.3006, 3960.893
383.7827, 3938.441
384.2649, 3918.794
384.7470, 3898.105
385.2291, 3871.594
385.7112, 3839.499
386.1933, 3807.508
386.6754, 3782.585
387.1576, 3765.499
387.6397, 3742.577
388.1218, 3711.611
388.6039, 3676.532
389.0860, 3633.658
389.5681, 3588.887
390.0503, 3552.460
390.5324, 3529.743
391.0145, 3513.039
391.4966, 3490.629
391.9787, 3462.381
392.4608, 3429.860
392.9430, 3387.510
393.4251, 3346.710
393.9072, 3320.266
394.3893, 3307.993
394.8714, 3294.506
395.3535, 3269.595
395.8357, 3239.609
396.3178, 3216.350
396.7999, 3201.325
397.2820, 3184.232
397.7641, 3154.571
398.2462, 3116.907
398.7284, 3093.794
399.2105, 3104.667
399.6926, 3108.295
400.1747, 3080.521
400.6568, 3036.945
401.1389, 3003.992
401.6211, 2990.234
402.1032, 2985.477
402.5853, 2974.333
403.0674, 2953.083
403.5495, 2936.995
404.0316, 2926.539
404.5138, 2919.855
404.9959, 2919.988
405.4780, 2923.141
405.9601, 2920.804
406.4422, 2907.094
406.9243, 2885.096
407.4065, 2864.951
407.8886, 2843.601
408.3707, 2830.872
408.8528, 2839.132
409.3349, 2849.083
409.8170, 2844.466
410.2992, 2823.217
410.7813, 2796.961
411.2634, 2775.454
411.7455, 2757.466
412.2276, 2736.972
412.7097, 2712.678
413.1919, 2688.249
413.6740, 2667.465
414.1561, 2648.275
414.6382, 2626.822
415.1203, 2599.709
415.6024, 2573.255
416.0846, 2553.177
416.5667, 2537.635
417.0488, 2521.045
417.5309, 2501.522
418.0130, 2480.351
418.4951, 2458.748
418.9773, 2435.265
419.4594, 2417.155
419.9415, 2412.460
420.4236, 2406.960
420.9057, 2387.838
421.3878, 2358.679
421.8700, 2332.746
422.3521, 2318.591
422.8342, 2314.074
423.3163, 2310.315
423.7984, 2311.095
424.2805, 2306.368
424.7627, 2289.836
425.2448, 2271.445
425.7269, 2260.143
426.2090, 2256.667
426.6911, 2254.406
427.1732, 2247.839
427.6554, 2237.029
428.1375, 2221.890
428.6196, 2196.981
429.1017, 2178.386
429.5838, 2179.212
430.0659, 2190.066
430.5481, 2197.873
431.0302, 2200.078
431.5123, 2197.542
431.9944, 2187.320
432.4765, 2172.319
432.9586, 2164.886
433.4408, 2170.434
433.9229, 2176.473
434.4050, 2166.156
434.8871, 2137.268
435.3692, 2116.153
435.8513, 2110.350
436.3335, 2107.218
436.8156, 2097.706
437.2977, 2084.405
437.7798, 2075.516
438.2619, 2075.542
438.7440, 2080.535
439.2262, 2080.436
439.7083, 2072.318
440.1904, 2064.096
440.6725, 2055.839
441.1546, 2047.582
441.6367, 2038.825
442.1189, 2029.962
442.6010, 2022.225
443.0831, 2016.805
443.5652, 2013.182
444.0473, 2009.546
444.5294, 2006.207
445.0116, 2001.982
445.4937, 1996.293
445.9758, 1989.464
446.4579, 1981.275
446.9400, 1971.484
447.4221, 1962.315
447.9043, 1955.564
448.3864, 1950.308
448.8685, 1944.166
449.3506, 1936.632
449.8327, 1930.681
450.3148, 1929.238
450.7970, 1931.758
451.2791, 1932.223
451.7612, 1930.635
452.2433, 1927.188
452.7254, 1920.021
453.2076, 1911.720
453.6897, 1906.239
454.1718, 1904.598
454.6539, 1904.442
455.1360, 1903.264
455.6181, 1901.699
456.1003, 1895.538
456.5824, 1871.563
457.0645, 1856.788
457.5466, 1867.482
458.0287, 1890.986
458.5108, 1906.548
458.9930, 1904.843
459.4751, 1895.114
459.9572, 1889.491
460.4393, 1888.029
460.9214, 1888.832
461.4035, 1893.784
461.8857, 1897.815
462.3678, 1894.660
462.8499, 1885.941
463.3320, 1880.351
463.8141, 1880.032
464.2962, 1883.970
464.7784, 1892.450
465.2605, 1904.683
465.7426, 1918.647
466.2247, 1934.117
466.7068, 1948.514
467.1889, 1956.457
467.6711, 1954.581
468.1532, 1952.860
468.6353, 1947.039
469.1174, 1945.011
469.5995, 1953.401
470.0816, 1970.098
470.5638, 1988.784
471.0459, 2006.052
471.5280, 2021.278
472.0101, 2032.476
472.4922, 2037.974
472.9743, 2043.813
473.4565, 2052.060
473.9386, 2060.437
474.4207, 2065.419
474.9028, 2067.852
475.3849, 2075.344
475.8670, 2099.381
476.3492, 2128.409
476.8313, 2140.858
477.3134, 2136.090
477.7955, 2130.080
478.2776, 2131.353
478.7597, 2135.934
479.2419, 2133.407
479.7240, 2120.310
480.2061, 2109.998
480.6882, 2110.724
481.1703, 2111.480
481.6524, 2100.124
482.1346, 2077.594
482.6167, 2055.150
483.0988, 2041.615
483.5809, 2034.621
484.0630, 2020.474
484.5451, 1995.133
485.0273, 1968.888
485.5094, 1941.747
485.9915, 1915.439
486.4736, 1889.390
486.9557, 1864.522
487.4378, 1846.554
487.9200, 1845.777
488.4021, 1855.049
488.8842, 1852.245
489.3663, 1836.048
489.8484, 1813.726
490.3305, 1782.838
490.8127, 1751.430
491.2948, 1736.661
491.7769, 1745.102
492.2590, 1750.777
492.7411, 1742.693
493.2232, 1728.563
493.7054, 1715.952
494.1875, 1706.124
494.6696, 1698.917
495.1517, 1695.011
495.6338, 1693.106
496.1159, 1684.339
496.5981, 1660.022
497.0802, 1641.080
497.5623, 1629.615
498.0444, 1623.921
498.5265, 1624.837
499.0086, 1631.100
499.4908, 1637.062
499.9729, 1638.802
500.4550, 1636.499
500.9371, 1629.015
501.4192, 1614.064
501.9013, 1603.907
502.3835, 1607.757
502.8656, 1617.269
503.3477, 1619.137
503.8298, 1611.772
504.3119, 1602.488
504.7940, 1595.042
505.2762, 1586.531
505.7583, 1569.300
506.2404, 1545.350
506.7225, 1530.704
507.2046, 1537.279
507.6867, 1559.850
508.1689, 1575.648
508.6510, 1583.552
509.1331, 1585.691
509.6152, 1574.094
510.0973, 1563.287
510.5794, 1567.060
511.0616, 1583.251
511.5437, 1596.854
512.0258, 1594.977
512.5079, 1584.124
512.9901, 1583.898
513.4722, 1596.798
513.9543, 1604.996
514.4364, 1600.397
514.9185, 1589.564
515.4006, 1580.153
515.8828, 1571.922
516.3649, 1567.557
516.8470, 1567.001
517.3291, 1571.250
517.8112, 1586.163
518.2933, 1607.878
518.7755, 1621.452
519.2576, 1618.270
519.7397, 1605.077
520.2218, 1597.632
520.7039, 1596.631
521.1860, 1600.415
521.6682, 1614.029
522.1503, 1627.106
522.6324, 1633.981
523.1145, 1635.705
523.5966, 1635.258
524.0787, 1632.824
524.5609, 1632.112
525.0430, 1642.133
525.5251, 1662.778
526.0072, 1676.119
526.4893, 1675.628
526.9714, 1670.279
527.4536, 1669.647
527.9357, 1673.037
528.4178, 1674.280
528.8999, 1667.833
529.3820, 1663.648
529.8641, 1668.932
530.3463, 1680.479
530.8284, 1692.725
531.3105, 1703.692
531.7926, 1712.613
532.2747, 1718.541
532.7568, 1721.524
533.2390, 1721.209
533.7211, 1712.212
534.2032, 1706.138
534.6853, 1710.108
535.1674, 1717.651
535.6495, 1719.113
536.1317, 1711.197
536.6138, 1702.205
537.0959, 1698.165
537.5780, 1699.197
538.0601, 1708.983
538.5422, 1729.758
539.0244, 1744.697
539.5065, 1739.129
539.9886, 1717.890
540.4707, 1705.566
540.9528, 1708.797
541.4349, 1710.619
541.9171, 1707.046
542.3992, 1700.920
542.8813, 1694.741
543.3634, 1688.826
543.8455, 1682.112
544.3276, 1673.336
544.8098, 1663.469
545.2919, 1656.976
545.7740, 1654.834
546.2561, 1653.431
546.7382, 1653.253
547.2203, 1652.442
547.7024, 1647.792
548.1845, 1639.958
548.6666, 1636.264
549.1487, 1647.026
549.6309, 1658.525
550.1130, 1651.584
550.5951, 1630.687
551.0772, 1617.000
551.5593, 1619.500
552.0414, 1629.739
552.5236, 1634.137
553.0057, 1630.785
553.4878, 1627.958
553.9699, 1626.178
554.4520, 1624.274
554.9341, 1619.050
555.4163, 1614.232
555.8984, 1617.872
556.3805, 1633.277
556.8626, 1647.845
557.3447, 1642.236
557.8268, 1619.782
558.3090, 1608.906
558.7911, 1614.951
559.2732, 1623.933
559.7553, 1627.639
560.2374, 1627.099
560.7195, 1625.888
561.2017, 1621.194
561.6838, 1620.798
562.1659, 1632.095
562.6480, 1645.871
563.1301, 1651.534
563.6122, 1648.969
564.0944, 1645.506
564.5765, 1646.634
565.0586, 1650.759
565.5407, 1651.538
566.0228, 1647.978
566.5049, 1643.555
566.9871, 1633.788
567.4692, 1627.569
567.9513, 1633.505
568.4334, 1649.058
568.9155, 1661.907
569.3976, 1668.002
569.8798, 1668.165
570.3619, 1659.054
570.8440, 1644.251
571.3261, 1636.020
571.8082, 1638.239
572.2903, 1647.110
572.7725, 1659.667
573.2546, 1677.443
573.7367, 1684.500
574.2188, 1669.594
574.7009, 1658.040
575.1830, 1655.963
575.6652, 1660.602
576.1473, 1670.777
576.6294, 1685.368
577.1115, 1698.222
577.5936, 1703.447
578.0757, 1702.493
578.5579, 1698.923
579.0400, 1692.180
579.5221, 1688.644
580.0042, 1692.942
580.4863, 1700.648
580.9684, 1702.780
581.4506, 1698.091
581.9327, 1694.363
582.4148, 1689.691
582.8969, 1688.987
583.3790, 1699.366
583.8611, 1715.832
584.3433, 1727.273
584.8254, 1728.496
585.3075, 1725.225
585.7896, 1725.495
586.2717, 1729.203
586.7538, 1738.599
587.2360, 1758.295
587.7181, 1776.401
588.2002, 1785.354
588.6823, 1788.527
589.1644, 1790.553
589.6465, 1790.927
590.1287, 1793.198
590.6108, 1802.976
591.0929, 1813.507
591.5750, 1813.709
592.0571, 1804.618
592.5392, 1797.541
593.0214, 1799.926
593.5035, 1809.811
593.9856, 1821.833
594.4677, 1838.130
594.9498, 1851.335
595.4319, 1859.428
595.9141, 1865.414
596.3962, 1867.914
596.8783, 1869.501
597.3604, 1876.792
597.8425, 1895.059
598.3246, 1914.162
598.8068, 1922.188
599.2889, 1924.179
599.7710, 1935.677
600.2531, 1959.766
600.7352, 1981.018
601.2173, 1984.654
601.6995, 1973.919
602.1816, 1975.392
602.6637, 1999.662
603.1458, 2022.143
603.6279, 2042.786
604.1100, 2059.617
604.5922, 2067.698
605.0743, 2069.899
605.5564, 2077.513
606.0385, 2101.313
606.5206, 2128.259
607.0027, 2135.480
607.4849, 2125.847
607.9670, 2121.975
608.4491, 2129.539
608.9312, 2144.245
609.4133, 2164.182
609.8954, 2189.373
610.3776, 2204.793
610.8597, 2204.011
611.3418, 2202.568
611.8239, 2199.716
612.3060, 2200.625
612.7881, 2213.398
613.2703, 2236.640
613.7524, 2258.568
614.2345, 2270.188
614.7166, 2274.281
615.1987, 2276.425
615.6808, 2276.442
616.1630, 2278.535
616.6451, 2283.984
617.1272, 2291.677
617.6093, 2298.876
618.0914, 2305.600
618.5735, 2321.790
619.0557, 2361.139
619.5378, 2394.597
620.0199, 2407.142
620.5020, 2409.363
620.9841, 2412.867
621.4662, 2420.951
621.9484, 2433.429
622.4305, 2450.801
622.9126, 2472.160
623.3947, 2494.643
623.8768, 2519.033
624.3589, 2539.425
624.8411, 2551.008
625.3232, 2561.303
625.8053, 2579.104
626.2874, 2603.956
626.7695, 2631.419
627.2516, 2659.167
627.7338, 2691.145
628.2159, 2729.535
628.6980, 2773.133
629.1801, 2823.414
629.6622, 2878.743
630.1443, 2928.101
630.6265, 2957.048
631.1086, 2971.234
631.5907, 3004.152
632.0728, 3060.467
632.5549, 3117.440
633.0370, 3164.769
633.5192, 3213.724
634.0013, 3280.457
634.4834, 3363.624
634.9655, 3439.456
635.4476, 3491.182
635.9297, 3546.370
636.4119, 3621.913
636.8940, 3710.470
637.3761, 3800.072
637.8582, 3887.900
638.3403, 3978.440
638.8224, 4073.550
639.3046, 4175.484
639.7867, 4299.560
640.2688, 4454.895
640.7509, 4600.234
641.2330, 4711.732
641.7151, 4819.333
642.1973, 4954.112
642.6794, 5114.669
643.1615, 5283.546
643.6436, 5454.209
644.1257, 5635.518
644.6078, 5829.093
645.0900, 6037.940
645.5721, 6267.996
646.0542, 6518.883
646.5363, 6779.263
647.0184, 7035.160
647.5005, 7291.618
647.9827, 7575.339
648.4648, 7887.918
648.9469, 8213.909
649.4290, 8545.893
649.9111, 8893.435
650.3932, 9266.648
650.8754, 9664.241
651.3575, 10092.26
651.8396, 10569.87
652.3217, 11059.32
652.8038, 11536.01
653.2859, 12020.31
653.7681, 12543.93
654.2502, 13107.26
654.7323, 13675.88
655.2144, 14216.09
655.6965, 14747.97
656.1786, 15338.35
656.6608, 15998.51
657.1429, 16648.10
657.6250, 17261.91
658.1071, 17867.71
658.5892, 18489.94
659.0714, 19124.32
659.5535, 19741.08
660.0356, 20335.52
660.5177, 20917.35
660.9998, 21499.46
661.4819, 22064.08
661.9641, 22592.45
662.4462, 23085.14
662.9283, 23569.11
663.4104, 24069.61
663.8925, 24550.87
664.3746, 24936.57
664.8568, 25225.38
665.3389, 25461.08
665.8210, 25649.79
666.3031, 25790.70
666.7852, 25891.94
667.2673, 25942.71
667.7495, 25911.24
668.2316, 25798.31
668.7137, 25604.38
669.1958, 25306.32
669.6779, 24946.86
670.1600, 24561.87
670.6422, 24142.31
671.1243, 23649.34
671.6064, 23056.34
672.0885, 22418.32
672.5706, 21820.81
673.0527, 21249.47
673.5349, 20601.53
674.0170, 19853.45
674.4991, 19093.37
674.9812, 18372.60
675.4633, 17674.39
675.9454, 16962.58
676.4276, 16207.69
676.9097, 15496.54
677.3918, 14855.93
677.8739, 14233.32
678.3560, 13610.80
678.8381, 12989.52
679.3203, 12371.22
679.8024, 11757.62
680.2845, 11166.50
680.7666, 10627.13
681.2487, 10125.47
681.7308, 9627.405
682.2130, 9134.418
682.6951, 8667.184
683.1772, 8235.536
683.6593, 7830.380
684.1414, 7432.277
684.6235, 7037.065
685.1057, 6677.429
685.5878, 6357.342
686.0699, 6064.207
686.5520, 5807.545
687.0341, 5568.683
687.5162, 5325.317
687.9984, 5075.660
688.4805, 4844.661
688.9626, 4652.747
689.4447, 4481.564
689.9268, 4311.371
690.4089, 4144.465
690.8911, 3988.606
691.3732, 3845.843
691.8553, 3711.342
692.3374, 3580.764
692.8195, 3454.502
693.3016, 3338.614
693.7838, 3235.353
694.2659, 3137.244
694.7480, 3040.557
695.2301, 2950.670
695.7122, 2870.792
696.1943, 2800.321
696.6765, 2737.657
697.1586, 2686.719
697.6407, 2637.015
698.1228, 2583.117
698.6049, 2527.500
699.0870, 2471.866
699.5692, 2417.376
700.0513, 2366.580
700.5334, 2320.776
701.0155, 2279.623
701.4976, 2243.333
701.9797, 2212.056
702.4619, 2181.125
702.9440, 2150.384
703.4261, 2119.117
703.9082, 2084.665
704.3903, 2050.372
704.8724, 2024.184
705.3546, 2008.422
705.8367, 1993.353
706.3188, 1980.697
706.8009, 1965.242
707.2830, 1940.906
707.7651, 1912.575
708.2473, 1889.280
708.7294, 1873.458
709.2115, 1858.688
709.6936, 1836.945
710.1757, 1812.064
710.6578, 1795.301
711.1400, 1786.226
711.6221, 1773.469
712.1042, 1751.418
712.5863, 1731.360
713.0684, 1729.376
713.5505, 1746.905
714.0327, 1751.686
714.5148, 1733.290
714.9969, 1716.111
715.4790, 1703.590
715.9611, 1693.961
716.4432, 1687.319
716.9254, 1682.575
717.4075, 1675.677
717.8896, 1662.908
718.3717, 1650.448
718.8538, 1645.489
719.3359, 1643.287
719.8181, 1633.417
720.3002, 1616.243
720.7823, 1603.875
721.2644, 1605.260
721.7465, 1613.467
722.2286, 1611.188
722.7108, 1596.764
723.1929, 1582.868
723.6750, 1569.024
724.1571, 1558.608
724.6392, 1556.273
725.1213, 1557.656
725.6035, 1553.903
726.0856, 1544.150
726.5677, 1532.197
727.0498, 1512.992
727.5319, 1497.546
728.0140, 1496.059
728.4962, 1501.351
728.9783, 1501.464
729.4604, 1493.369
729.9425, 1483.292
730.4246, 1475.941
730.9067, 1471.009
731.3889, 1468.634
731.8710, 1468.482
732.3531, 1467.499
732.8352, 1464.865
733.3173, 1460.623
733.7994, 1454.571
734.2816, 1446.885
734.7637, 1439.453
735.2458, 1430.532
735.7279, 1424.800
736.2100, 1423.073
736.6921, 1424.231
737.1743, 1430.760
737.6564, 1439.491
738.1385, 1441.638
738.6206, 1431.910
739.1027, 1422.589
739.5848, 1422.343
740.0670, 1425.012
740.5491, 1423.516
741.0312, 1418.180
741.5133, 1412.032
741.9954, 1406.511
742.4775, 1402.373
742.9597, 1402.049
743.4418, 1404.989
743.9239, 1402.538
744.4060, 1393.356
744.8881, 1385.606
745.3702, 1382.505
745.8524, 1382.205
746.3345, 1383.141
746.8166, 1385.889
747.2987, 1384.008
747.7808, 1367.914
748.2629, 1359.808
748.7451, 1374.443
749.2272, 1392.125
749.7093, 1393.351
750.1914, 1380.077
750.6735, 1368.679
751.1556, 1368.599
751.6378, 1369.817
752.1199, 1361.307
752.6020, 1348.152
753.0841, 1340.215
753.5662, 1338.186
754.0483, 1336.990
754.5305, 1333.528
755.0126, 1330.208
755.4947, 1332.925
755.9768, 1342.818
756.4589, 1347.750
756.9410, 1346.292
757.4232, 1342.833
757.9053, 1338.268
758.3874, 1333.460
758.8695, 1328.865
759.3516, 1323.997
759.8337, 1323.777
760.3159, 1335.768
760.7980, 1343.898
761.2801, 1339.168
761.7622, 1329.497
762.2443, 1322.501
762.7264, 1319.325
763.2086, 1318.337
763.6907, 1319.908
764.1728, 1320.941
764.6549, 1317.290
765.1370, 1310.402
765.6191, 1303.242
766.1013, 1296.464
766.5834, 1290.943
767.0655, 1287.162
767.5476, 1285.269
768.0297, 1286.696
768.5118, 1292.931
768.9940, 1292.511
769.4761, 1280.573
769.9582, 1272.157
770.4403, 1276.219
770.9224, 1285.725
771.4045, 1291.560
771.8867, 1293.903
772.3688, 1291.253
772.8509, 1274.687
773.3330, 1263.564
773.8151, 1272.819
774.2972, 1286.319
774.7794, 1284.973
775.2615, 1269.605
775.7436, 1255.732
776.2257, 1252.336
776.7078, 1252.866
777.1899, 1249.940
777.6721, 1245.345
778.1542, 1244.193
778.6363, 1246.438
779.1184, 1245.681
779.6005, 1237.785
780.0826, 1228.916
780.5648, 1232.503
781.0469, 1250.657
781.5290, 1259.914
782.0111, 1258.957
782.4932, 1252.034
782.9753, 1235.317
783.4575, 1218.535
783.9396, 1216.670
784.4217, 1230.169
784.9038, 1236.871
785.3859, 1229.335
785.8680, 1223.337
786.3502, 1224.898
786.8323, 1228.305
787.3144, 1228.764
787.7965, 1226.428
788.2786, 1223.401
788.7607, 1219.897
789.2429, 1218.117
789.7250, 1222.173
790.2071, 1227.980
790.6892, 1227.326
791.1713, 1221.715
791.6534, 1220.546
792.1356, 1227.879
792.6177, 1237.335
793.0998, 1240.242
793.5819, 1237.229
794.0640, 1234.760
794.5461, 1233.185
795.0283, 1229.264
795.5104, 1220.266
795.9925, 1212.563
796.4746, 1213.303
796.9567, 1221.520
797.4388, 1226.767
797.9210, 1227.968
798.4031, 1227.619
798.8852, 1225.588
799.3673, 1222.265
799.8494, 1216.504
800.3315, 1210.007
800.8137, 1205.397
801.2958, 1203.085
801.7779, 1204.119
802.2600, 1213.337
802.7421, 1222.332
803.2242, 1221.012
803.7064, 1214.477
804.1885, 1213.968
804.6706, 1221.527
805.1527, 1229.016
805.6348, 1229.784
806.1169, 1225.682
806.5991, 1218.673
807.0812, 1209.650
807.5633, 1206.123
808.0454, 1209.580
808.5275, 1215.550
809.0096, 1221.820
809.4918, 1227.045
809.9739, 1227.110
810.4560, 1219.554
810.9381, 1216.112
811.4202, 1220.167
811.9023, 1222.775
812.3845, 1218.246
812.8666, 1212.030
813.3487, 1211.672
813.8308, 1217.169
814.3129, 1218.164
814.7950, 1205.422
815.2772, 1197.803
815.7593, 1209.935
816.2414, 1223.578
816.7235, 1219.170
817.2056, 1201.017
817.6877, 1186.691
818.1699, 1183.469
818.6520, 1186.021
819.1341, 1194.535
819.6162, 1203.219
820.0983, 1200.390
820.5804, 1189.150
821.0626, 1182.549
821.5447, 1185.113
822.0268, 1191.143
822.5089, 1194.895
822.9910, 1196.587
823.4731, 1197.844
823.9553, 1198.868
824.4374, 1193.396
824.9195, 1177.275
825.4016, 1166.662
825.8837, 1176.720
826.3658, 1199.352
826.8480, 1206.485
827.3301, 1188.347
827.8122, 1177.345
828.2943, 1180.764
828.7764, 1182.403
829.2585, 1173.889
829.7407, 1162.014
830.2228, 1153.557
830.7049, 1149.037
831.1870, 1150.622
831.6691, 1165.504
832.1512, 1178.436
832.6334, 1180.850
833.1155, 1179.594
833.5976, 1183.100
834.0797, 1189.664
834.5618, 1190.405
835.0439, 1180.280
835.5261, 1169.610
836.0082, 1170.259
836.4903, 1175.317
836.9724, 1172.634
837.4545, 1163.660
837.9366, 1156.266
838.4188, 1153.094
838.9009, 1151.090
839.3830, 1146.758
839.8651, 1141.316
840.3472, 1138.214
840.8293, 1137.378
841.3115, 1145.874
841.7936, 1168.356
842.2757, 1182.206
842.7578, 1168.466
843.2399, 1140.355
843.7220, 1132.359
844.2042, 1153.305
844.6863, 1164.699
845.1684, 1160.863
845.6505, 1155.942
846.1326, 1155.785
846.6147, 1155.894
847.0969, 1150.769
847.5790, 1140.955
848.0611, 1133.957
848.5432, 1130.172
849.0253, 1130.124
849.5074, 1138.011
849.9896, 1146.068
850.4717, 1146.128
850.9538, 1142.077
851.4359, 1144.714
851.9180, 1158.055
852.4001, 1167.183
852.8823, 1157.493
853.3644, 1142.819
853.8465, 1136.417
854.3286, 1136.823
854.8107, 1141.032
855.2928, 1147.693
855.7750, 1155.276
856.2571, 1163.899
856.7392, 1169.109
857.2213, 1158.662
857.7034, 1137.361
858.1855, 1127.545
858.6677, 1131.077
859.1498, 1136.804
859.6319, 1139.589
860.1140, 1142.149
860.5961, 1149.686
861.0782, 1161.634
861.5604, 1161.417
862.0425, 1144.099
862.5246, 1134.636
863.0067, 1141.990
863.4888, 1151.417
863.9709, 1150.412
864.4531, 1142.555
864.9352, 1141.193
865.4173, 1153.290
865.8994, 1157.279
866.3815, 1143.870
866.8636, 1133.805
867.3458, 1136.641
867.8279, 1145.071
868.3100, 1152.917
868.7921, 1159.132
869.2742, 1159.114
869.7563, 1145.294
870.2385, 1133.337
870.7206, 1130.151
871.2027, 1130.627
871.6848, 1129.189
872.1669, 1127.782
872.6490, 1133.439
873.1312, 1148.894
873.6133, 1161.903
874.0954, 1160.415
874.5775, 1154.574
875.0596, 1156.855
875.5417, 1163.398
876.0239, 1165.433
876.5060, 1161.628
876.9881, 1156.216
877.4702, 1151.958
877.9523, 1148.026
878.4344, 1141.040
878.9166, 1133.286
879.3987, 1136.016
879.8808, 1148.735
880.3629, 1156.226
880.8450, 1152.072
881.3271, 1144.556
881.8093, 1143.669
882.2914, 1148.093
882.7735, 1149.501
883.2556, 1147.620
883.7377, 1144.065
884.2198, 1137.798
884.7020, 1134.402
885.1841, 1138.425
885.6662, 1146.694
886.1483, 1152.889
886.6304, 1157.968
887.1125, 1156.045
887.5947, 1139.273
888.0768, 1128.274
888.5589, 1133.493
889.0410, 1142.170
889.5231, 1141.885
890.0052, 1135.223
890.4874, 1134.335
890.9695, 1145.866
891.4516, 1152.590
891.9337, 1148.480
892.4158, 1143.053
892.8979, 1141.732
893.3801, 1141.946
893.8622, 1138.736
894.3443, 1131.987
894.8264, 1128.858
895.3085, 1135.252
895.7906, 1142.286
896.2728, 1146.590
896.7549, 1148.143
897.2370, 1144.502
897.7191, 1138.462
898.2012, 1137.792
898.6833, 1145.328
899.1655, 1151.137
899.6476, 1143.972
900.1297, 1133.315
900.6118, 1130.131
901.0939, 1132.824
901.5760, 1139.766
902.0582, 1149.014
902.5403, 1153.742
903.0224, 1149.199
903.5045, 1141.137
903.9866, 1138.290
904.4688, 1138.752
904.9509, 1136.723
905.4330, 1132.121
905.9151, 1125.248
906.3972, 1116.290
906.8793, 1111.805
907.3615, 1119.097
907.8436, 1134.103
908.3257, 1144.257
908.8078, 1149.540
909.2899, 1150.890
909.7720, 1147.736
910.2542, 1146.161
910.7363, 1150.085
911.2184, 1153.873
911.7005, 1148.248
912.1826, 1133.424
912.6647, 1126.524
913.1469, 1129.281
913.6290, 1134.943
914.1111, 1145.012
914.5932, 1152.824
915.0753, 1153.816
915.5574, 1149.610
916.0396, 1142.968
916.5217, 1131.057
917.0038, 1127.553
917.4859, 1142.219
917.9680, 1151.455
918.4501, 1144.333
918.9323, 1134.521
919.4144, 1133.247
919.8965, 1138.362
920.3786, 1141.457
920.8607, 1141.682
921.3428, 1140.386
921.8250, 1137.368
922.3071, 1133.319
922.7892, 1126.665
923.2713, 1120.353
923.7534, 1118.302
924.2355, 1120.281
924.7177, 1122.219
925.1998, 1122.333
925.6819, 1123.150
926.1640, 1125.457
926.6461, 1129.089
927.1282, 1137.223
927.6104, 1145.227
928.0925, 1143.725
928.5746, 1131.589
929.0567, 1120.931
929.5388, 1117.276
930.0209, 1118.967
930.5031, 1128.570
930.9852, 1140.235
931.4673, 1148.280
931.9494, 1151.482
932.4315, 1147.289
932.9136, 1135.011
933.3958, 1124.916
933.8779, 1130.476
934.3600, 1139.465
934.8421, 1134.185
935.3242, 1120.870
935.8063, 1110.979
936.2885, 1106.809
936.7706, 1109.058
937.2527, 1118.534
937.7348, 1127.673
938.2169, 1124.650
938.6990, 1115.489
939.1812, 1109.392
939.6633, 1109.530
940.1454, 1136.909
940.6275, 1191.402
941.1096, 1223.594
941.5917, 1195.604
942.0739, 1141.983
942.5560, 1125.179
943.0381, 1138.493
943.5202, 1149.616
944.0023, 1156.934
944.4844, 1157.300
944.9666, 1149.582
945.4487, 1140.952
945.9308, 1138.082
946.4129, 1138.591
946.8950, 1134.743
947.3771, 1126.583
947.8593, 1124.760
948.3414, 1130.601
948.8235, 1134.979
949.3056, 1134.168
949.7877, 1131.658
950.2698, 1131.383
950.7520, 1132.748
951.2341, 1132.258
951.7162, 1129.375
952.1983, 1128.054
952.6804, 1128.634
953.1625, 1131.261
953.6447, 1136.961
954.1268, 1142.767
954.6089, 1144.712
955.0910, 1142.900
955.5731, 1139.170
956.0552, 1130.962
956.5374, 1129.284
957.0195, 1138.448
957.5016, 1148.353
957.9837, 1155.021
958.4658, 1157.528
958.9479, 1152.806
959.4301, 1139.755
959.9122, 1135.506
960.3943, 1146.377
960.8764, 1153.151
961.3585, 1148.629
961.8406, 1145.629
962.3228, 1155.921
962.8049, 1170.925
963.2870, 1172.440
963.7691, 1156.676
964.2512, 1147.723
964.7333, 1149.316
965.2155, 1152.299
965.6976, 1158.520
966.1797, 1162.395
966.6618, 1157.161
967.1439, 1147.679
967.6260, 1145.796
968.1082, 1154.480
968.5903, 1159.871
969.0724, 1159.555
969.5545, 1158.240
970.0366, 1156.985
970.5187, 1155.257
971.0009, 1151.548
971.4830, 1147.171
971.9651, 1145.611
972.4472, 1147.577
972.9293, 1150.958
973.4114, 1158.957
973.8936, 1163.895
974.3757, 1160.910
974.8578, 1155.529
975.3399, 1152.266
975.8220, 1150.818
976.3041, 1149.071
976.7863, 1145.851
977.2684, 1145.159
977.7505, 1151.977
978.2326, 1156.531
978.7147, 1151.131
979.1968, 1144.062
979.6790, 1144.993
980.1611, 1151.781
980.6432, 1154.551
981.1253, 1149.834
981.6074, 1145.297
982.0895, 1142.722
982.5717, 1141.450
983.0538, 1140.891
983.5359, 1141.617
984.0180, 1146.214
984.5001, 1152.835
984.9822, 1153.863
985.4644, 1144.022
985.9465, 1138.307
986.4286, 1147.398
986.9107, 1156.160
987.3928, 1155.833
987.8749, 1150.194
988.3571, 1140.786
988.8392, 1130.453
989.3213, 1127.943
989.8034, 1138.289
990.2855, 1149.477
990.7676, 1159.735
991.2498, 1165.781
991.7319, 1161.927
992.2140, 1155.004
992.6961, 1153.029
993.1782, 1156.244
993.6603, 1160.778
994.1425, 1165.967
994.6246, 1170.510
995.1067, 1176.414
995.5888, 1178.691
996.0709, 1170.845
996.5530, 1159.350
997.0352, 1150.725
997.5173, 1146.446
997.9994, 1148.116
998.4815, 1159.029
998.9636, 1167.542
999.4457, 1162.828
999.9279, 1159.719
1000.410, 1172.599
1000.892, 1190.627
1001.374, 1200.186
1001.856, 1200.695
1002.338, 1198.168
1002.821, 1193.861
1003.303, 1189.290
1003.785, 1182.250
1004.267, 1178.304
1004.749, 1183.576
1005.231, 1192.755
1005.713, 1200.647
1006.195, 1205.823
1006.677, 1206.465
1007.160, 1200.314
1007.642, 1195.125
1008.124, 1197.693
1008.606, 1198.791
1009.088, 1186.803
1009.570, 1173.713
1010.052, 1177.689
1010.534, 1194.906
1011.017, 1204.122
1011.499, 1196.333
1011.981, 1189.648
1012.463, 1195.361
1012.945, 1200.512
1013.427, 1194.413
1013.909, 1185.493
1014.391, 1184.613
1014.873, 1190.036
1015.356, 1191.358
1015.838, 1183.507
1016.320, 1181.217
1016.802, 1194.592
1017.284, 1209.757
1017.766, 1221.897
1018.248, 1229.893
1018.730, 1231.404
1019.213, 1228.197
1019.695, 1224.990
1020.177, 1222.510
1020.659, 1221.907
1021.141, 1221.824
1021.623, 1225.857
1022.105, 1242.824
1022.587, 1258.586
1023.069, 1258.657
1023.552, 1247.037
1024.034, 1234.545
1024.516, 1221.895
1024.998, 1216.871
1025.480, 1228.135
1025.962, 1238.707
1026.444, 1242.729
1026.926, 1243.161
1027.409, 1238.743
1027.891, 1233.767
1028.373, 1237.770
1028.855, 1253.249
1029.337, 1266.454
1029.819, 1279.114
1030.301, 1283.360
1030.783, 1265.733
1031.266, 1250.427
1031.748, 1260.708
1032.230, 1281.866
1032.712, 1284.553
1033.194, 1264.804
1033.676, 1254.212
1034.158, 1263.582
1034.640, 1271.149
1035.122, 1271.635
1035.604, 1271.397
1036.087, 1274.752
1036.569, 1279.131
1037.051, 1279.736
1037.533, 1276.316
1038.015, 1276.762
1038.497, 1285.282
1038.979, 1290.928
1039.461, 1291.275
1039.944, 1290.994
1040.426, 1291.409
1040.908, 1292.813
1041.390, 1295.692
1041.872, 1299.952
1042.354, 1304.791
1042.836, 1311.677
1043.318, 1315.645
1043.800, 1314.509
1044.283, 1314.384
1044.765, 1318.992
1045.247, 1323.229
1045.729, 1320.262
1046.211, 1312.917
1046.693, 1315.124
1047.175, 1331.525
1047.657, 1341.120
1048.140, 1340.782
1048.622, 1342.447
1049.104, 1349.702
1049.586, 1360.330
1050.068, 1373.773
1050.550, 1387.431
1051.032, 1394.147
1051.514, 1393.522
1051.996, 1389.101
1052.479, 1379.993
1052.961, 1373.311
1053.443, 1371.308
1053.925, 1367.607
1054.407, 1356.255
1054.889, 1346.128
1055.371, 1356.121
1055.853, 1383.759
1056.335, 1399.983
1056.818, 1404.916
1057.300, 1402.182
1057.782, 1392.278
1058.264, 1387.274
1058.746, 1394.014
1059.228, 1402.340
1059.710, 1397.319
1060.192, 1384.363
1060.675, 1381.960
1061.157, 1388.597
1061.639, 1396.829
1062.121, 1405.577
1062.603, 1415.323
1063.085, 1426.046
1063.567, 1432.543
1064.049, 1428.445
1064.531, 1419.632
1065.014, 1415.498
1065.496, 1415.606
1065.978, 1421.255
1066.460, 1430.134
1066.942, 1433.508
1067.424, 1430.107
1067.906, 1429.058
1068.388, 1437.263
1068.870, 1447.726
1069.353, 1452.441
1069.835, 1454.592
1070.317, 1459.395
1070.799, 1464.844
1071.281, 1466.062
1071.763, 1463.134
1072.245, 1459.830
1072.727, 1457.554
1073.210, 1457.223
1073.692, 1458.764
1074.174, 1463.293
1074.656, 1474.457
1075.138, 1487.194
1075.620, 1494.966
1076.102, 1498.890
1076.584, 1504.115
1077.067, 1512.098
1077.549, 1518.489
1078.031, 1522.343
1078.513, 1522.914
1078.995, 1514.187
1079.477, 1507.647
1079.959, 1513.919
1080.441, 1527.645
1080.923, 1540.844
1081.406, 1552.251
1081.888, 1559.122
1082.370, 1555.844
1082.852, 1555.914
1083.334, 1563.838
1083.816, 1572.531
1084.298, 1579.162
1084.780, 1584.687
1085.262, 1589.056
1085.745, 1593.039
1086.227, 1600.847
1086.709, 1615.907
1087.191, 1625.525
1087.673, 1628.140
1088.155, 1627.859
1088.637, 1622.516
1089.119, 1620.748
1089.602, 1630.275
1090.084, 1646.149
1090.566, 1658.430
1091.048, 1667.220
1091.530, 1667.521
1092.012, 1656.951
1092.494, 1653.756
1092.976, 1661.632
1093.458, 1672.179
1093.941, 1681.507
1094.423, 1689.819
1094.905, 1696.900
1095.387, 1703.817
1095.869, 1714.833
1096.351, 1729.451
1096.833, 1745.077
1097.315, 1760.833
1097.797, 1770.766
1098.280, 1773.297
1098.762, 1774.779
1099.244, 1779.952
1099.726, 1787.973
1100.208, 1797.378
1100.690, 1808.779
1101.172, 1825.642
1101.654, 1844.981
1102.137, 1859.437
1102.619, 1868.097
1103.101, 1873.739
1103.583, 1877.423
1104.065, 1881.352
1104.547, 1888.329
1105.029, 1895.272
1105.511, 1897.324
1105.994, 1899.231
1106.476, 1908.358
1106.958, 1921.734
1107.440, 1930.258
1107.922, 1932.608
1108.404, 1940.278
1108.886, 1965.284
1109.368, 1985.335
1109.850, 1991.423
1110.333, 1990.801
1110.815, 1980.543
1111.297, 1971.106
1111.779, 1977.046
1112.261, 1995.771
1112.743, 2010.143
1113.225, 2015.771
1113.707, 2024.187
1114.189, 2037.197
1114.672, 2050.891
1115.154, 2069.243
1115.636, 2080.600
1116.118, 2071.228
1116.600, 2056.016
1117.082, 2065.324
1117.564, 2099.354
1118.046, 2114.526
1118.529, 2105.787
1119.011, 2107.848
1119.493, 2126.519
1119.975, 2144.412
1120.457, 2154.247
1120.939, 2160.646
1121.421, 2168.455
1121.903, 2175.997
1122.385, 2177.603
1122.868, 2174.770
1123.350, 2175.299
1123.832, 2179.108
1124.314, 2184.140
1124.796, 2189.719
1125.278, 2195.177
1125.760, 2200.124
1126.242, 2204.737
1126.724, 2209.888
1127.207, 2214.154
1127.689, 2213.503
1128.171, 2211.862
1128.653, 2219.208
1129.135, 2230.467
1129.617, 2227.444
1130.099, 2207.625
1130.581, 2196.819
1131.064, 2214.064
1131.546, 2232.487
1132.028, 2242.234
1132.510, 2243.905
1132.992, 2229.626
1133.474, 2213.587
1133.956, 2214.374
1134.438, 2228.815
1134.921, 2239.351
1135.403, 2243.451
1135.885, 2245.117
1136.367, 2244.330
1136.849, 2241.366
1137.331, 2234.673
1137.813, 2227.980
1138.295, 2222.199
1138.777, 2219.130
1139.260, 2222.189
1139.742, 2230.523
1140.224, 2236.652
1140.706, 2240.944
1141.188, 2239.449
1141.670, 2231.367
1142.152, 2222.990
1142.634, 2216.140
1143.116, 2213.313
1143.599, 2216.975
1144.081, 2223.150
1144.563, 2225.836
1145.045, 2225.120
1145.527, 2221.606
1146.009, 2214.810
1146.491, 2198.670
1146.973, 2177.185
1147.456, 2169.339
1147.938, 2181.495
1148.420, 2196.739
1148.902, 2203.649
1149.384, 2206.750
1149.866, 2209.554
1150.348, 2210.851
1150.830, 2208.369
1151.313, 2204.191
1151.795, 2200.076
1152.277, 2197.264
1152.759, 2198.979
1153.241, 2206.981
1153.723, 2215.562
1154.205, 2231.945
1154.687, 2236.950
1155.169, 2210.313
1155.651, 2186.769
1156.134, 2192.821
1156.616, 2210.300
1157.098, 2212.339
1157.580, 2200.546
1158.062, 2194.313
1158.544, 2195.425
1159.026, 2192.395
1159.508, 2182.413
1159.991, 2183.711
1160.473, 2203.248
1160.955, 2222.782
1161.437, 2229.299
1161.919, 2227.425
1162.401, 2221.785
1162.883, 2215.488
1163.365, 2221.790
1163.848, 2235.982
1164.330, 2241.498
1164.812, 2239.173
1165.294, 2241.370
1165.776, 2251.487
1166.258, 2260.845
1166.740, 2263.166
1167.222, 2264.152
1167.704, 2267.317
1168.187, 2272.474
1168.669, 2277.532
1169.151, 2285.888
1169.633, 2305.989
1170.115, 2332.479
1170.597, 2348.987
1171.079, 2351.522
1171.561, 2353.763
1172.043, 2356.912
1172.526, 2361.649
1173.008, 2368.245
1173.490, 2376.371
1173.972, 2387.729
1174.454, 2397.802
1174.936, 2400.792
1175.418, 2399.543
1175.900, 2403.136
1176.383, 2411.400
1176.865, 2429.692
1177.347, 2458.486
1177.829, 2477.755
1178.311, 2483.948
1178.793, 2485.554
1179.275, 2486.691
1179.757, 2492.929
1180.240, 2512.525
1180.722, 2536.155
1181.204, 2547.218
1181.686, 2552.607
1182.168, 2565.110
1182.650, 2580.881
1183.132, 2589.265
1183.614, 2590.597
1184.096, 2593.689
1184.578, 2601.673
1185.061, 2612.058
1185.543, 2625.335
1186.025, 2638.527
1186.507, 2653.427
1186.989, 2664.626
1187.471, 2660.176
1187.953, 2655.222
1188.435, 2677.099
1188.918, 2719.066
1189.400, 2737.584
1189.882, 2723.854
1190.364, 2717.265
1190.846, 2717.450
1191.328, 2728.199
1191.810, 2752.192
1192.292, 2773.310
1192.775, 2781.895
1193.257, 2787.254
1193.739, 2802.919
1194.221, 2821.153
1194.703, 2816.695
1195.185, 2801.868
1195.667, 2813.652
1196.149, 2844.078
1196.631, 2866.852
1197.114, 2875.737
1197.596, 2872.360
1198.078, 2856.383
1198.560, 2839.406
1199.042, 2820.605
1199.524, 2813.406
1200.006, 2839.867
1200.488, 2866.018
1200.970, 2860.477
1201.453, 2840.371
1201.935, 2833.364
1202.417, 2838.405
1202.899, 2834.581
1203.381, 2813.874
1203.863, 2811.594
1204.345, 2835.621
1204.827, 2852.176
1205.310, 2853.515
1205.792, 2850.645
1206.274, 2848.520
1206.756, 2851.328
1207.238, 2866.865
1207.720, 2885.473
1208.202, 2879.506
1208.684, 2857.918
1209.167, 2844.041
1209.649, 2838.502
1210.131, 2837.390
1210.613, 2841.531
1211.095, 2862.791
1211.577, 2906.628
1212.059, 2932.240
1212.541, 2900.804
1213.023, 2863.269
1213.505, 2839.056
1213.988, 2826.484
1214.470, 2828.913
1214.952, 2839.020
1215.434, 2851.017
1215.916, 2862.880
1216.398, 2868.776
1216.880, 2867.861
1217.362, 2866.439
1217.845, 2865.675
1218.327, 2858.255
1218.809, 2841.797
1219.291, 2827.365
1219.773, 2819.143
1220.255, 2819.943
1220.737, 2833.990
1221.219, 2851.655
1221.702, 2854.616
1222.184, 2849.590
1222.666, 2847.698
1223.148, 2850.116
1223.630, 2862.751
1224.112, 2880.296
1224.594, 2888.023
1225.076, 2882.331
1225.558, 2869.994
1226.041, 2843.422
1226.523, 2831.428
1227.005, 2857.604
1227.487, 2882.289
1227.969, 2885.597
1228.451, 2883.546
1228.933, 2888.770
1229.415, 2896.019
1229.897, 2894.423
1230.380, 2885.929
1230.862, 2895.882
1231.344, 2925.740
1231.826, 2933.001
1232.308, 2916.456
1232.790, 2911.362
1233.272, 2925.292
1233.754, 2933.053
1234.237, 2920.020
1234.719, 2905.824
1235.201, 2913.900
1235.683, 2927.833
1236.165, 2927.501
1236.647, 2924.879
1237.129, 2934.461
1237.611, 2950.672
1238.094, 2967.073
1238.576, 2980.239
1239.058, 2979.532
1239.540, 2956.203
1240.022, 2949.892
1240.504, 2973.478
1240.986, 2992.227
1241.468, 3000.661
1241.950, 3007.714
1242.432, 3017.013
1242.915, 3026.423
##END=



