##NAMES=Schwartzembergite
##RRUFFID=R050159
##IDEAL CHEMISTRY=Pb^2+^_5_H_2_I^3+^O_6_Cl_3_
##LOCALITY=Ponderosa mine, Sierra Gorda, Antofagasta, Chile
##OWNER=RRUFF
##SOURCE=Jim McGlasson
##DESCRIPTION=Orange thin plates
##STATUS=The identification of this mineral has been confirmed by single-crystal X-ray diffraction.
##URL=rruff.info/R050159
119.1007, 1188.245
119.5828, 1288.450
120.0649, 1392.139
120.5471, 1505.770
121.0292, 1640.163
121.5113, 1799.076
121.9934, 1968.974
122.4755, 2140.415
122.9576, 2322.737
123.4398, 2525.580
123.9219, 2754.089
124.4040, 3004.317
124.8861, 3263.475
125.3682, 3528.318
125.8503, 3814.799
126.3325, 4126.317
126.8146, 4457.454
127.2967, 4803.275
127.7788, 5157.520
128.2609, 5527.174
128.7430, 5927.917
129.2252, 6368.527
129.7073, 6834.618
130.1894, 7327.100
130.6715, 7840.347
131.1536, 8364.757
131.6357, 8895.580
132.1179, 9432.521
132.6000, 9973.152
133.0821, 10508.66
133.5642, 11058.38
134.0463, 11643.16
134.5284, 12242.64
135.0106, 12824.21
135.4927, 13362.54
135.9748, 13859.12
136.4569, 14341.88
136.9390, 14796.27
137.4211, 15251.94
137.9033, 15727.11
138.3854, 16211.99
138.8675, 16685.90
139.3496, 17130.33
139.8317, 17545.43
140.3138, 17987.45
140.7960, 18506.35
141.2781, 18999.15
141.7602, 19412.16
142.2423, 19753.60
142.7244, 20063.97
143.2065, 20377.09
143.6887, 20690.16
144.1708, 20957.76
144.6529, 21189.27
145.1350, 21373.34
145.6171, 21502.70
146.0992, 21577.80
146.5814, 21602.90
147.0635, 21576.44
147.5456, 21493.51
148.0277, 21391.63
148.5098, 21269.78
148.9919, 21130.60
149.4741, 20989.12
149.9562, 20842.32
150.4383, 20648.59
150.9204, 20359.24
151.4025, 19979.37
151.8846, 19604.73
152.3668, 19253.44
152.8489, 18901.92
153.3310, 18527.25
153.8131, 18128.53
154.2952, 17711.70
154.7773, 17264.01
155.2595, 16795.76
155.7416, 16357.80
156.2237, 15976.10
156.7058, 15619.60
157.1879, 15245.69
157.6700, 14847.65
158.1522, 14468.29
158.6343, 14148.99
159.1164, 13876.17
159.5985, 13625.16
160.0806, 13394.50
160.5627, 13181.26
161.0449, 12985.70
161.5270, 12810.82
162.0091, 12645.84
162.4912, 12475.92
162.9733, 12310.76
163.4554, 12169.93
163.9376, 12075.03
164.4197, 12005.52
164.9018, 11922.29
165.3839, 11817.26
165.8660, 11722.02
166.3481, 11667.10
166.8303, 11634.07
167.3124, 11591.81
167.7945, 11519.56
168.2766, 11432.54
168.7587, 11365.47
169.2408, 11325.86
169.7230, 11288.98
170.2051, 11242.89
170.6872, 11190.49
171.1693, 11134.99
171.6514, 11072.77
172.1335, 11010.46
172.6157, 10966.40
173.0978, 10947.61
173.5799, 10933.71
174.0620, 10916.72
174.5441, 10897.77
175.0262, 10877.19
175.5084, 10849.70
175.9905, 10823.79
176.4726, 10825.42
176.9547, 10868.83
177.4368, 10914.77
177.9189, 10941.19
178.4010, 10961.89
178.8832, 10997.64
179.3653, 11064.12
179.8474, 11147.59
180.3295, 11205.02
180.8116, 11215.29
181.2937, 11236.94
181.7759, 11284.06
182.2580, 11352.25
182.7401, 11437.86
183.2222, 11541.40
183.7043, 11657.73
184.1864, 11772.12
184.6686, 11879.82
185.1507, 11993.12
185.6328, 12116.00
186.1149, 12244.28
186.5970, 12374.81
187.0791, 12506.83
187.5613, 12638.11
188.0434, 12762.80
188.5255, 12863.01
189.0076, 12988.25
189.4897, 13163.19
189.9718, 13357.16
190.4540, 13541.88
190.9361, 13703.69
191.4182, 13848.18
191.9003, 13984.91
192.3824, 14096.15
192.8645, 14234.38
193.3467, 14409.88
193.8288, 14611.01
194.3109, 14834.32
194.7930, 15079.01
195.2751, 15329.18
195.7572, 15546.64
196.2394, 15714.57
196.7215, 15882.59
197.2036, 16047.22
197.6857, 16220.20
198.1678, 16413.94
198.6499, 16632.72
199.1321, 16864.44
199.6142, 17087.46
200.0963, 17301.28
200.5784, 17506.89
201.0605, 17694.60
201.5426, 17882.24
202.0248, 18085.41
202.5069, 18308.25
202.9890, 18534.79
203.4711, 18741.77
203.9532, 18929.95
204.4353, 19093.10
204.9175, 19203.09
205.3996, 19311.67
205.8817, 19456.48
206.3638, 19643.78
206.8459, 19850.67
207.3280, 20051.40
207.8102, 20251.04
208.2923, 20425.66
208.7744, 20561.18
209.2565, 20686.25
209.7386, 20817.98
210.2207, 20957.04
210.7029, 21092.23
211.1850, 21206.95
211.6671, 21289.76
212.1492, 21392.38
212.6313, 21548.32
213.1134, 21693.80
213.5956, 21794.79
214.0777, 21852.73
214.5598, 21890.73
215.0419, 21929.35
215.5240, 21968.27
216.0061, 22009.33
216.4883, 22039.36
216.9704, 22083.75
217.4525, 22179.67
217.9346, 22303.66
218.4167, 22393.03
218.8988, 22388.53
219.3810, 22286.93
219.8631, 22208.37
220.3452, 22172.28
220.8273, 22141.74
221.3094, 22119.44
221.7915, 22095.06
222.2737, 22050.67
222.7558, 21972.29
223.2379, 21862.40
223.7200, 21754.65
224.2021, 21655.33
224.6842, 21550.56
225.1664, 21438.13
225.6485, 21318.15
226.1306, 21192.67
226.6127, 21064.34
227.0948, 20929.12
227.5770, 20768.00
228.0591, 20545.61
228.5412, 20344.00
229.0233, 20190.07
229.5054, 20058.72
229.9875, 19926.03
230.4697, 19781.94
230.9518, 19621.97
231.4339, 19429.73
231.9160, 19177.01
232.3981, 18941.18
232.8802, 18737.79
233.3624, 18550.42
233.8445, 18364.91
234.3266, 18176.95
234.8087, 17985.77
235.2908, 17789.72
235.7729, 17581.81
236.2551, 17384.79
236.7372, 17211.23
237.2193, 17038.83
237.7014, 16846.35
238.1835, 16632.41
238.6656, 16417.34
239.1478, 16229.26
239.6299, 16078.93
240.1120, 15914.32
240.5941, 15723.79
241.0762, 15526.83
241.5583, 15328.68
242.0405, 15130.98
242.5226, 14936.45
243.0047, 14748.41
243.4868, 14567.23
243.9689, 14384.73
244.4510, 14199.49
244.9332, 14012.27
245.4153, 13820.92
245.8974, 13627.17
246.3795, 13437.45
246.8616, 13259.96
247.3437, 13090.49
247.8259, 12899.33
248.3080, 12659.98
248.7901, 12433.46
249.2722, 12239.69
249.7543, 12070.59
250.2364, 11916.50
250.7186, 11776.78
251.2007, 11642.19
251.6828, 11481.25
252.1649, 11273.79
252.6470, 11080.16
253.1291, 10919.51
253.6113, 10781.16
254.0934, 10656.81
254.5755, 10545.20
255.0576, 10440.06
255.5397, 10331.29
256.0219, 10218.83
256.5040, 10103.98
256.9861, 9977.527
257.4682, 9854.641
257.9503, 9747.118
258.4324, 9657.896
258.9146, 9576.645
259.3967, 9492.531
259.8788, 9405.176
260.3609, 9320.052
260.8430, 9233.501
261.3251, 9153.518
261.8073, 9086.198
262.2894, 9031.378
262.7715, 8981.226
263.2536, 8928.142
263.7357, 8873.865
264.2178, 8830.564
264.7000, 8805.538
265.1821, 8782.519
265.6642, 8747.721
266.1463, 8704.476
266.6284, 8664.330
267.1105, 8627.477
267.5927, 8598.304
268.0748, 8591.942
268.5569, 8617.234
269.0390, 8637.557
269.5211, 8613.904
270.0032, 8568.979
270.4854, 8541.661
270.9675, 8547.059
271.4496, 8569.955
271.9317, 8599.060
272.4138, 8634.823
272.8959, 8661.511
273.3781, 8664.288
273.8602, 8656.123
274.3423, 8661.691
274.8244, 8684.827
275.3065, 8716.931
275.7886, 8755.407
276.2708, 8798.868
276.7529, 8840.781
277.2350, 8876.026
277.7171, 8912.880
278.1992, 8969.530
278.6813, 9052.080
279.1635, 9122.413
279.6456, 9150.886
280.1277, 9161.655
280.6098, 9198.235
281.0919, 9272.214
281.5740, 9360.641
282.0562, 9439.601
282.5383, 9508.422
283.0204, 9571.162
283.5025, 9616.409
283.9846, 9663.180
284.4667, 9735.854
284.9489, 9833.854
285.4310, 9927.288
285.9131, 9989.046
286.3952, 10019.48
286.8773, 10065.06
287.3594, 10133.96
287.8416, 10208.57
288.3237, 10283.92
288.8058, 10358.58
289.2879, 10426.73
289.7700, 10482.80
290.2521, 10533.87
290.7343, 10609.62
291.2164, 10751.80
291.6985, 10865.70
292.1806, 10914.52
292.6627, 10935.35
293.1448, 10974.71
293.6270, 11048.84
294.1091, 11141.76
294.5912, 11225.08
295.0733, 11294.59
295.5554, 11361.79
296.0375, 11422.85
296.5197, 11484.10
297.0018, 11548.55
297.4839, 11617.38
297.9660, 11691.71
298.4481, 11776.76
298.9302, 11878.55
299.4124, 11948.74
299.8945, 11952.20
300.3766, 11960.08
300.8587, 12002.24
301.3408, 12068.20
301.8229, 12132.78
302.3050, 12180.31
302.7871, 12212.22
303.2693, 12236.00
303.7514, 12255.56
304.2335, 12259.33
304.7156, 12237.20
305.1977, 12203.41
305.6798, 12173.43
306.1620, 12153.09
306.6441, 12135.85
307.1262, 12112.49
307.6083, 12084.28
308.0904, 12045.36
308.5725, 11984.85
309.0547, 11919.88
309.5368, 11862.80
310.0189, 11813.67
310.5010, 11761.27
310.9831, 11695.14
311.4652, 11616.13
311.9474, 11534.75
312.4295, 11451.80
312.9116, 11366.52
313.3937, 11273.97
313.8758, 11178.27
314.3579, 11091.60
314.8401, 11024.38
315.3222, 10967.29
315.8043, 10906.50
316.2864, 10843.13
316.7685, 10769.45
317.2506, 10672.38
317.7328, 10565.70
318.2149, 10473.21
318.6970, 10403.76
319.1791, 10339.13
319.6612, 10263.17
320.1433, 10180.01
320.6255, 10109.32
321.1076, 10063.96
321.5897, 10024.90
322.0718, 9954.410
322.5539, 9845.754
323.0360, 9754.930
323.5182, 9713.370
324.0003, 9691.488
324.4824, 9646.212
324.9645, 9570.274
325.4466, 9496.129
325.9287, 9458.093
326.4109, 9460.842
326.8930, 9444.012
327.3751, 9387.108
327.8572, 9330.116
328.3393, 9298.988
328.8214, 9287.238
329.3036, 9271.595
329.7857, 9237.303
330.2678, 9190.283
330.7499, 9158.539
331.2320, 9160.203
331.7141, 9154.567
332.1963, 9130.361
332.6784, 9100.017
333.1605, 9076.563
333.6426, 9064.095
334.1247, 9058.495
334.6068, 9054.043
335.0890, 9051.358
335.5711, 9048.201
336.0532, 9042.961
336.5353, 9038.718
337.0174, 9034.422
337.4995, 9032.108
337.9817, 9037.664
338.4638, 9058.693
338.9459, 9092.216
339.4280, 9109.244
339.9101, 9088.383
340.3922, 9083.138
340.8744, 9122.322
341.3565, 9179.477
341.8386, 9219.740
342.3207, 9228.495
342.8028, 9224.287
343.2849, 9233.546
343.7671, 9257.497
344.2492, 9286.619
344.7313, 9320.151
345.2134, 9357.484
345.6955, 9402.836
346.1776, 9455.729
346.6598, 9498.873
347.1419, 9513.014
347.6240, 9509.190
348.1061, 9518.052
348.5882, 9543.840
349.0703, 9578.485
349.5525, 9615.033
350.0346, 9655.401
350.5167, 9706.776
350.9988, 9793.216
351.4809, 9873.323
351.9630, 9899.562
352.4452, 9883.556
352.9273, 9889.273
353.4094, 9952.788
353.8915, 10049.66
354.3736, 10115.25
354.8557, 10140.45
355.3379, 10161.53
355.8200, 10182.12
356.3021, 10204.62
356.7842, 10232.95
357.2663, 10267.68
357.7484, 10303.49
358.2306, 10333.97
358.7127, 10357.40
359.1948, 10385.78
359.6769, 10423.14
360.1590, 10460.54
360.6411, 10494.77
361.1233, 10525.87
361.6054, 10552.91
362.0875, 10574.46
362.5696, 10595.09
363.0517, 10632.98
363.5338, 10704.64
364.0160, 10767.22
364.4981, 10818.52
364.9802, 10858.12
365.4623, 10881.03
365.9444, 10888.00
366.4265, 10892.79
366.9087, 10911.02
367.3908, 10943.56
367.8729, 10977.27
368.3550, 11012.97
368.8371, 11048.43
369.3192, 11081.71
369.8014, 11114.04
370.2835, 11148.75
370.7656, 11192.29
371.2477, 11235.18
371.7298, 11259.93
372.2119, 11265.29
372.6941, 11263.31
373.1762, 11250.14
373.6583, 11238.11
374.1404, 11248.31
374.6225, 11289.28
375.1046, 11323.96
375.5868, 11339.59
376.0689, 11334.17
376.5510, 11299.44
377.0331, 11231.83
377.5152, 11148.80
377.9973, 11064.28
378.4795, 10978.14
378.9616, 10902.01
379.4437, 10848.17
379.9258, 10793.73
380.4079, 10722.11
380.8900, 10638.56
381.3722, 10561.42
381.8543, 10501.59
382.3364, 10451.48
382.8185, 10386.71
383.3006, 10298.86
383.7827, 10206.42
384.2649, 10109.32
384.7470, 10008.46
385.2291, 9898.636
385.7112, 9782.436
386.1933, 9674.250
386.6754, 9593.929
387.1576, 9544.434
387.6397, 9471.526
388.1218, 9357.146
388.6039, 9238.049
389.0860, 9118.086
389.5681, 9003.489
390.0503, 8906.375
390.5324, 8833.938
391.0145, 8771.836
391.4966, 8694.394
391.9787, 8599.652
392.4608, 8510.750
392.9430, 8432.793
393.4251, 8365.006
393.9072, 8311.753
394.3893, 8272.348
394.8714, 8223.805
395.3535, 8150.901
395.8357, 8063.159
396.3178, 7973.376
396.7999, 7882.489
397.2820, 7795.449
397.7641, 7716.234
398.2462, 7644.293
398.7284, 7573.091
399.2105, 7491.245
399.6926, 7423.391
400.1747, 7396.866
400.6568, 7386.646
401.1389, 7344.053
401.6211, 7252.577
402.1032, 7148.775
402.5853, 7088.247
403.0674, 7094.293
403.5495, 7073.577
404.0316, 7008.937
404.5138, 6937.220
404.9959, 6871.767
405.4780, 6814.979
405.9601, 6769.479
406.4422, 6738.778
406.9243, 6716.245
407.4065, 6677.961
407.8886, 6616.178
408.3707, 6554.338
408.8528, 6485.689
409.3349, 6425.710
409.8170, 6392.240
410.2992, 6386.203
410.7813, 6382.879
411.2634, 6362.553
411.7455, 6327.068
412.2276, 6283.885
412.7097, 6228.738
413.1919, 6177.671
413.6740, 6146.015
414.1561, 6126.169
414.6382, 6104.875
415.1203, 6079.957
415.6024, 6052.409
416.0846, 6019.673
416.5667, 5984.460
417.0488, 5957.163
417.5309, 5943.026
418.0130, 5931.958
418.4951, 5907.884
418.9773, 5865.016
419.4594, 5828.888
419.9415, 5802.453
420.4236, 5781.545
420.9057, 5767.682
421.3878, 5757.342
421.8700, 5740.250
422.3521, 5708.465
422.8342, 5667.310
423.3163, 5640.712
423.7984, 5644.968
424.2805, 5638.208
424.7627, 5610.092
425.2448, 5574.360
425.7269, 5541.300
426.2090, 5512.704
426.6911, 5485.600
427.1732, 5457.263
427.6554, 5427.641
428.1375, 5397.344
428.6196, 5361.212
429.1017, 5334.653
429.5838, 5336.241
430.0659, 5349.247
430.5481, 5347.858
431.0302, 5321.688
431.5123, 5289.365
431.9944, 5263.254
432.4765, 5243.279
432.9586, 5230.467
433.4408, 5226.493
433.9229, 5224.949
434.4050, 5218.138
434.8871, 5205.457
435.3692, 5193.877
435.8513, 5185.551
436.3335, 5176.846
436.8156, 5165.579
437.2977, 5152.078
437.7798, 5137.765
438.2619, 5123.499
438.7440, 5107.980
439.2262, 5087.599
439.7083, 5057.295
440.1904, 5031.274
440.6725, 5011.856
441.1546, 4994.340
441.6367, 4973.546
442.1189, 4951.193
442.6010, 4934.758
443.0831, 4932.431
443.5652, 4939.518
444.0473, 4937.647
444.5294, 4924.876
445.0116, 4908.522
445.4937, 4886.764
445.9758, 4865.003
446.4579, 4851.201
446.9400, 4848.123
447.4221, 4839.078
447.9043, 4804.156
448.3864, 4757.886
448.8685, 4734.796
449.3506, 4740.896
449.8327, 4747.929
450.3148, 4731.954
450.7970, 4695.916
451.2791, 4672.036
451.7612, 4673.071
452.2433, 4670.473
452.7254, 4650.147
453.2076, 4622.306
453.6897, 4602.345
454.1718, 4594.375
454.6539, 4590.041
455.1360, 4578.562
455.6181, 4558.762
456.1003, 4538.580
456.5824, 4510.493
457.0645, 4490.218
457.5466, 4488.962
458.0287, 4497.265
458.5108, 4499.096
458.9930, 4486.736
459.4751, 4470.313
459.9572, 4465.124
460.4393, 4471.372
460.9214, 4475.653
461.4035, 4472.807
461.8857, 4470.981
462.3678, 4480.882
462.8499, 4499.592
463.3320, 4511.167
463.8141, 4502.702
464.2962, 4492.086
464.7784, 4498.221
465.2605, 4516.958
465.7426, 4530.304
466.2247, 4529.789
466.7068, 4522.125
467.1889, 4519.999
467.6711, 4524.068
468.1532, 4533.256
468.6353, 4549.318
469.1174, 4568.854
469.5995, 4591.305
470.0816, 4615.405
470.5638, 4638.526
471.0459, 4659.123
471.5280, 4677.679
472.0101, 4696.503
472.4922, 4716.888
472.9743, 4733.656
473.4565, 4740.164
473.9386, 4746.592
474.4207, 4762.199
474.9028, 4785.964
475.3849, 4805.371
475.8670, 4809.026
476.3492, 4805.423
476.8313, 4808.630
477.3134, 4819.008
477.7955, 4834.461
478.2776, 4858.703
478.7597, 4883.436
479.2419, 4886.958
479.7240, 4863.385
480.2061, 4837.633
480.6882, 4810.933
481.1703, 4786.400
481.6524, 4773.069
482.1346, 4767.056
482.6167, 4747.745
483.0988, 4696.367
483.5809, 4622.281
484.0630, 4579.231
484.5451, 4602.573
485.0273, 4598.189
485.5094, 4532.341
485.9915, 4451.429
486.4736, 4392.255
486.9557, 4358.267
487.4378, 4330.175
487.9200, 4294.845
488.4021, 4253.691
488.8842, 4211.034
489.3663, 4167.170
489.8484, 4120.105
490.3305, 4064.514
490.8127, 4007.660
491.2948, 3964.522
491.7769, 3938.802
492.2590, 3915.494
492.7411, 3888.910
493.2232, 3862.742
493.7054, 3844.443
494.1875, 3832.908
494.6696, 3815.014
495.1517, 3778.691
495.6338, 3728.882
496.1159, 3697.321
496.5981, 3705.029
497.0802, 3701.957
497.5623, 3674.720
498.0444, 3641.067
498.5265, 3616.517
499.0086, 3602.141
499.4908, 3587.693
499.9729, 3564.100
500.4550, 3533.663
500.9371, 3502.879
501.4192, 3468.850
501.9013, 3447.336
502.3835, 3452.955
502.8656, 3470.811
503.3477, 3477.084
503.8298, 3469.293
504.3119, 3458.588
504.7940, 3445.456
505.2762, 3433.701
505.7583, 3429.978
506.2404, 3433.428
506.7225, 3435.285
507.2046, 3429.321
507.6867, 3417.605
508.1689, 3409.350
508.6510, 3408.844
509.1331, 3405.477
509.6152, 3397.349
510.0973, 3387.350
510.5794, 3374.172
511.0616, 3360.277
511.5437, 3354.111
512.0258, 3365.143
512.5079, 3386.069
512.9901, 3395.307
513.4722, 3390.307
513.9543, 3389.011
514.4364, 3400.270
514.9185, 3416.020
515.4006, 3425.690
515.8828, 3428.944
516.3649, 3431.229
516.8470, 3432.589
517.3291, 3434.892
517.8112, 3442.106
518.2933, 3452.407
518.7755, 3457.911
519.2576, 3453.858
519.7397, 3445.020
520.2218, 3442.795
520.7039, 3450.152
521.1860, 3458.723
521.6682, 3469.023
522.1503, 3479.860
522.6324, 3490.461
523.1145, 3501.110
523.5966, 3512.600
524.0787, 3525.739
524.5609, 3539.212
525.0430, 3549.668
525.5251, 3557.152
526.0072, 3569.281
526.4893, 3590.309
526.9714, 3612.575
527.4536, 3627.536
527.9357, 3636.050
528.4178, 3643.615
528.8999, 3650.137
529.3820, 3656.763
529.8641, 3664.088
530.3463, 3672.037
530.8284, 3680.676
531.3105, 3690.017
531.7926, 3699.058
532.2747, 3706.528
532.7568, 3712.483
533.2390, 3716.635
533.7211, 3716.778
534.2032, 3717.649
534.6853, 3722.770
535.1674, 3728.659
535.6495, 3730.057
536.1317, 3725.123
536.6138, 3718.858
537.0959, 3717.062
537.5780, 3717.729
538.0601, 3713.341
538.5422, 3702.353
539.0244, 3691.697
539.5065, 3686.404
539.9886, 3685.566
540.4707, 3684.635
540.9528, 3689.510
541.4349, 3686.333
541.9171, 3664.141
542.3992, 3637.948
542.8813, 3621.061
543.3634, 3615.150
543.8455, 3616.803
544.3276, 3625.630
544.8098, 3637.522
545.2919, 3631.810
545.7740, 3599.293
546.2561, 3574.529
546.7382, 3575.724
547.2203, 3580.938
547.7024, 3571.846
548.1845, 3549.067
548.6666, 3528.042
549.1487, 3515.977
549.6309, 3508.791
550.1130, 3502.905
550.5951, 3498.143
551.0772, 3494.128
551.5593, 3490.505
552.0414, 3488.664
552.5236, 3492.151
553.0057, 3506.798
553.4878, 3506.484
553.9699, 3467.886
554.4520, 3441.396
554.9341, 3459.240
555.4163, 3498.814
555.8984, 3523.174
556.3805, 3518.621
556.8626, 3503.114
557.3447, 3499.218
557.8268, 3504.775
558.3090, 3499.018
558.7911, 3474.267
559.2732, 3456.931
559.7553, 3469.641
560.2374, 3502.818
560.7195, 3524.468
561.2017, 3532.680
561.6838, 3532.425
562.1659, 3515.323
562.6480, 3496.545
563.1301, 3496.407
563.6122, 3513.280
564.0944, 3526.230
564.5765, 3518.775
565.0586, 3497.781
565.5407, 3491.065
566.0228, 3504.644
566.5049, 3517.287
566.9871, 3524.115
567.4692, 3529.987
567.9513, 3539.945
568.4334, 3552.298
568.9155, 3558.741
569.3976, 3545.229
569.8798, 3533.796
570.3619, 3557.510
570.8440, 3603.459
571.3261, 3625.346
571.8082, 3607.790
572.2903, 3574.329
572.7725, 3551.232
573.2546, 3538.272
573.7367, 3537.702
574.2188, 3563.682
574.7009, 3584.507
575.1830, 3588.395
575.6652, 3585.056
576.1473, 3585.772
576.6294, 3592.920
577.1115, 3600.696
577.5936, 3602.206
578.0757, 3600.154
578.5579, 3604.984
579.0400, 3617.808
579.5221, 3628.363
580.0042, 3629.753
580.4863, 3628.091
580.9684, 3637.281
581.4506, 3661.770
581.9327, 3676.995
582.4148, 3669.338
582.8969, 3660.588
583.3790, 3664.108
583.8611, 3678.198
584.3433, 3699.951
584.8254, 3728.105
585.3075, 3752.651
585.7896, 3751.698
586.2717, 3721.309
586.7538, 3714.109
587.2360, 3747.045
587.7181, 3779.507
588.2002, 3786.194
588.6823, 3777.827
589.1644, 3769.427
589.6465, 3759.258
590.1287, 3759.021
590.6108, 3782.572
591.0929, 3814.790
591.5750, 3837.521
592.0571, 3849.139
592.5392, 3853.840
593.0214, 3853.260
593.5035, 3850.853
593.9856, 3858.327
594.4677, 3881.808
594.9498, 3900.506
595.4319, 3906.176
595.9141, 3912.577
596.3962, 3926.372
596.8783, 3946.372
597.3604, 3969.685
597.8425, 3998.854
598.3246, 4023.738
598.8068, 4028.285
599.2889, 4022.035
599.7710, 4032.639
600.2531, 4065.527
600.7352, 4099.427
601.2173, 4114.993
601.6995, 4115.601
602.1816, 4128.933
602.6637, 4166.474
603.1458, 4201.498
603.6279, 4230.065
604.1100, 4256.965
604.5922, 4288.754
605.0743, 4323.018
605.5564, 4348.592
606.0385, 4355.103
606.5206, 4355.105
607.0027, 4363.482
607.4849, 4381.129
607.9670, 4418.757
608.4491, 4483.924
608.9312, 4551.562
609.4133, 4597.520
609.8954, 4621.653
610.3776, 4637.945
610.8597, 4636.670
611.3418, 4640.560
611.8239, 4657.035
612.3060, 4679.842
612.7881, 4701.680
613.2703, 4722.401
613.7524, 4747.817
614.2345, 4783.419
614.7166, 4825.912
615.1987, 4871.529
615.6808, 4921.123
616.1630, 4950.268
616.6451, 4939.154
617.1272, 4928.010
617.6093, 4970.585
618.0914, 5068.336
618.5735, 5137.794
619.0557, 5153.304
619.5378, 5165.953
620.0199, 5190.149
620.5020, 5225.180
620.9841, 5272.251
621.4662, 5329.701
621.9484, 5388.398
622.4305, 5438.000
622.9126, 5483.241
623.3947, 5545.369
623.8768, 5628.746
624.3589, 5701.871
624.8411, 5745.375
625.3232, 5785.974
625.8053, 5861.040
626.2874, 5968.323
626.7695, 6062.686
627.2516, 6122.741
627.7338, 6184.582
628.2159, 6267.729
628.6980, 6363.032
629.1801, 6452.928
629.6622, 6534.894
630.1443, 6625.684
630.6265, 6746.845
631.1086, 6890.009
631.5907, 7002.743
632.0728, 7071.694
632.5549, 7164.389
633.0370, 7307.765
633.5192, 7478.518
634.0013, 7653.522
634.4834, 7832.255
634.9655, 8014.857
635.4476, 8198.129
635.9297, 8386.755
636.4119, 8579.328
636.8940, 8780.295
637.3761, 8991.981
637.8582, 9217.063
638.3403, 9467.973
638.8224, 9759.896
639.3046, 10087.36
639.7867, 10406.32
640.2688, 10709.06
640.7509, 11033.72
641.2330, 11390.50
641.7151, 11772.98
642.1973, 12176.12
642.6794, 12599.97
643.1615, 13041.04
643.6436, 13486.86
644.1257, 13962.50
644.6078, 14476.73
645.0900, 15032.17
645.5721, 15625.24
646.0542, 16257.18
646.5363, 16940.46
647.0184, 17686.05
647.5005, 18487.16
647.9827, 19315.57
648.4648, 20162.41
648.9469, 21051.35
649.4290, 21988.97
649.9111, 22969.02
650.3932, 23998.63
650.8754, 25072.16
651.3575, 26184.07
651.8396, 27323.33
652.3217, 28517.10
652.8038, 29790.70
653.2859, 31127.77
653.7681, 32503.37
654.2502, 33912.70
654.7323, 35359.68
655.2144, 36843.29
655.6965, 38371.65
656.1786, 39968.20
656.6608, 41650.85
657.1429, 43289.57
657.6250, 44822.38
658.1071, 46340.73
658.5892, 47917.74
659.0714, 49545.50
659.5535, 51166.76
660.0356, 52842.31
660.5177, 54436.09
660.9998, 55881.90
661.4819, 57234.88
661.9641, 58569.05
662.4462, 59878.46
662.9283, 61123.86
663.4104, 62286.38
663.8925, 63347.42
664.3746, 64273.54
664.8568, 65064.45
665.3389, 65734.24
665.8210, 66304.10
666.3031, 66713.59
666.7852, 66907.51
667.2673, 66897.09
667.7495, 66770.20
668.2316, 66570.50
668.7137, 66188.10
669.1958, 65547.89
669.6779, 64762.70
670.1600, 63918.78
670.6422, 63002.50
671.1243, 61950.52
671.6064, 60722.09
672.0885, 59374.40
672.5706, 57981.41
673.0527, 56533.27
673.5349, 54970.56
674.0170, 53267.97
674.4991, 51526.15
674.9812, 49801.41
675.4633, 48076.99
675.9454, 46330.38
676.4276, 44532.14
676.9097, 42755.96
677.3918, 41018.36
677.8739, 39285.03
678.3560, 37524.50
678.8381, 35774.64
679.3203, 34102.54
679.8024, 32532.53
680.2845, 31019.80
680.7666, 29540.05
681.2487, 28097.62
681.7308, 26703.24
682.2130, 25363.14
682.6951, 24084.76
683.1772, 22870.05
683.6593, 21722.23
684.1414, 20636.19
684.6235, 19615.20
685.1057, 18656.27
685.5878, 17774.24
686.0699, 16925.00
686.5520, 16080.22
687.0341, 15273.42
687.5162, 14545.64
687.9984, 13896.50
688.4805, 13289.90
688.9626, 12711.37
689.4447, 12159.41
689.9268, 11631.77
690.4089, 11129.29
690.8911, 10651.29
691.3732, 10198.00
691.8553, 9781.494
692.3374, 9419.405
692.8195, 9106.030
693.3016, 8796.281
693.7838, 8481.688
694.2659, 8189.062
694.7480, 7931.723
695.2301, 7689.850
695.7122, 7446.267
696.1943, 7204.771
696.6765, 6982.758
697.1586, 6789.639
697.6407, 6609.141
698.1228, 6436.818
698.6049, 6270.871
699.0870, 6109.107
699.5692, 5951.386
700.0513, 5797.319
700.5334, 5644.952
701.0155, 5501.016
701.4976, 5384.072
701.9797, 5295.482
702.4619, 5199.091
702.9440, 5087.552
703.4261, 4978.896
703.9082, 4884.490
704.3903, 4800.147
704.8724, 4714.395
705.3546, 4625.609
705.8367, 4539.952
706.3188, 4451.161
706.8009, 4372.293
707.2830, 4317.417
707.7651, 4275.583
708.2473, 4227.726
708.7294, 4168.195
709.2115, 4110.241
709.6936, 4069.654
710.1757, 4039.310
710.6578, 4000.903
711.1400, 3954.579
711.6221, 3906.404
712.1042, 3857.606
712.5863, 3811.768
713.0684, 3774.085
713.5505, 3745.058
714.0327, 3713.403
714.5148, 3675.231
714.9969, 3640.007
715.4790, 3608.989
715.9611, 3581.538
716.4432, 3560.366
716.9254, 3543.139
717.4075, 3519.993
717.8896, 3482.959
718.3717, 3444.415
718.8538, 3410.474
719.3359, 3383.116
719.8181, 3370.547
720.3002, 3370.645
720.7823, 3365.646
721.2644, 3343.304
721.7465, 3309.692
722.2286, 3278.003
722.7108, 3247.667
723.1929, 3224.338
723.6750, 3213.487
724.1571, 3199.639
724.6392, 3171.691
725.1213, 3135.946
725.6035, 3104.838
726.0856, 3078.538
726.5677, 3057.083
727.0498, 3041.664
727.5319, 3029.789
728.0140, 3026.353
728.4962, 3022.958
728.9783, 3002.680
729.4604, 2962.959
729.9425, 2925.649
730.4246, 2912.555
730.9067, 2915.249
731.3889, 2918.088
731.8710, 2920.311
732.3531, 2912.165
732.8352, 2889.040
733.3173, 2866.877
733.7994, 2864.263
734.2816, 2878.716
734.7637, 2876.479
735.2458, 2842.804
735.7279, 2817.026
736.2100, 2809.846
736.6921, 2805.628
737.1743, 2794.559
737.6564, 2778.563
738.1385, 2763.943
738.6206, 2751.652
739.1027, 2742.593
739.5848, 2736.908
740.0670, 2734.941
740.5491, 2743.046
741.0312, 2755.633
741.5133, 2753.346
741.9954, 2727.005
742.4775, 2693.610
742.9597, 2678.197
743.4418, 2679.384
743.9239, 2676.931
744.4060, 2669.826
744.8881, 2663.495
745.3702, 2660.198
745.8524, 2658.393
746.3345, 2656.797
746.8166, 2655.879
747.2987, 2650.158
747.7808, 2631.558
748.2629, 2618.809
748.7451, 2622.583
749.2272, 2629.326
749.7093, 2628.078
750.1914, 2618.136
750.6735, 2602.246
751.1556, 2577.556
751.6378, 2555.345
752.1199, 2549.523
752.6020, 2552.322
753.0841, 2546.826
753.5662, 2533.049
754.0483, 2526.825
754.5305, 2538.295
755.0126, 2556.466
755.4947, 2558.126
755.9768, 2540.752
756.4589, 2531.382
756.9410, 2534.395
757.4232, 2535.533
757.9053, 2527.965
758.3874, 2515.594
758.8695, 2503.175
759.3516, 2490.354
759.8337, 2481.133
760.3159, 2474.782
760.7980, 2473.347
761.2801, 2481.926
761.7622, 2492.964
762.2443, 2500.109
762.7264, 2501.818
763.2086, 2496.957
763.6907, 2481.105
764.1728, 2465.190
764.6549, 2463.847
765.1370, 2471.900
765.6191, 2476.705
766.1013, 2476.609
766.5834, 2475.440
767.0655, 2475.496
767.5476, 2476.194
768.0297, 2477.373
768.5118, 2480.381
768.9940, 2474.824
769.4761, 2456.381
769.9582, 2438.336
770.4403, 2426.678
770.9224, 2418.377
771.4045, 2407.390
771.8867, 2392.822
772.3688, 2387.027
772.8509, 2404.880
773.3330, 2415.670
773.8151, 2401.599
774.2972, 2378.470
774.7794, 2360.284
775.2615, 2350.006
775.7436, 2348.624
776.2257, 2361.358
776.7078, 2373.216
777.1899, 2364.603
777.6721, 2342.952
778.1542, 2324.687
778.6363, 2311.707
779.1184, 2299.318
779.6005, 2284.785
780.0826, 2270.720
780.5648, 2262.990
781.0469, 2262.624
781.5290, 2257.894
782.0111, 2246.607
782.4932, 2236.904
782.9753, 2233.463
783.4575, 2231.590
783.9396, 2223.455
784.4217, 2208.741
784.9038, 2201.925
785.3859, 2215.952
785.8680, 2221.985
786.3502, 2205.493
786.8323, 2183.237
787.3144, 2170.075
787.7965, 2164.557
788.2786, 2156.040
788.7607, 2138.408
789.2429, 2121.943
789.7250, 2116.269
790.2071, 2116.776
790.6892, 2117.464
791.1713, 2117.289
791.6534, 2114.378
792.1356, 2107.898
792.6177, 2101.666
793.0998, 2100.332
793.5819, 2103.855
794.0640, 2114.343
794.5461, 2134.403
795.0283, 2143.826
795.5104, 2132.579
795.9925, 2118.257
796.4746, 2120.599
796.9567, 2136.928
797.4388, 2138.367
797.9210, 2108.985
798.4031, 2087.453
798.8852, 2078.305
799.3673, 2074.580
799.8494, 2074.218
800.3315, 2075.846
800.8137, 2077.905
801.2958, 2080.294
801.7779, 2081.257
802.2600, 2079.604
802.7421, 2076.403
803.2242, 2069.830
803.7064, 2063.303
804.1885, 2066.496
804.6706, 2079.647
805.1527, 2086.912
805.6348, 2072.674
806.1169, 2046.837
806.5991, 2028.101
807.0812, 2016.627
807.5633, 2016.618
808.0454, 2029.530
808.5275, 2041.751
809.0096, 2044.138
809.4918, 2040.053
809.9739, 2037.637
810.4560, 2036.827
810.9381, 2038.170
811.4202, 2044.298
811.9023, 2048.348
812.3845, 2049.539
812.8666, 2045.997
813.3487, 2031.896
813.8308, 2007.425
814.3129, 1993.241
814.7950, 2001.313
815.2772, 2008.774
815.7593, 2006.050
816.2414, 2000.739
816.7235, 1999.997
817.2056, 2003.160
817.6877, 2005.924
818.1699, 2006.656
818.6520, 2005.788
819.1341, 2003.671
819.6162, 2000.193
820.0983, 1995.679
820.5804, 1989.681
821.0626, 1978.421
821.5447, 1960.998
822.0268, 1948.409
822.5089, 1955.654
822.9910, 1976.184
823.4731, 1980.945
823.9553, 1969.238
824.4374, 1955.474
824.9195, 1940.926
825.4016, 1931.977
825.8837, 1935.390
826.3658, 1946.620
826.8480, 1950.090
827.3301, 1941.524
827.8122, 1935.207
828.2943, 1939.649
828.7764, 1935.723
829.2585, 1902.505
829.7407, 1865.662
830.2228, 1860.301
830.7049, 1888.101
831.1870, 1908.275
831.6691, 1907.798
832.1512, 1901.854
832.6334, 1891.937
833.1155, 1883.490
833.5976, 1883.599
834.0797, 1890.177
834.5618, 1896.051
835.0439, 1898.877
835.5261, 1895.464
836.0082, 1875.750
836.4903, 1851.667
836.9724, 1843.672
837.4545, 1849.682
837.9366, 1860.842
838.4188, 1873.331
838.9009, 1878.005
839.3830, 1862.800
839.8651, 1834.084
840.3472, 1813.150
840.8293, 1799.932
841.3115, 1800.754
841.7936, 1820.001
842.2757, 1837.159
842.7578, 1837.748
843.2399, 1827.508
843.7220, 1820.817
844.2042, 1818.741
844.6863, 1816.652
845.1684, 1814.359
845.6505, 1812.343
846.1326, 1810.539
846.6147, 1809.240
847.0969, 1809.021
847.5790, 1809.766
848.0611, 1810.058
848.5432, 1811.711
849.0253, 1810.168
849.5074, 1798.279
849.9896, 1788.020
850.4717, 1792.500
850.9538, 1805.111
851.4359, 1810.394
851.9180, 1803.386
852.4001, 1793.070
852.8823, 1783.292
853.3644, 1774.818
853.8465, 1765.527
854.3286, 1758.971
854.8107, 1766.551
855.2928, 1787.286
855.7750, 1801.887
856.2571, 1795.242
856.7392, 1777.284
857.2213, 1762.385
857.7034, 1751.246
858.1855, 1749.185
858.6677, 1756.267
859.1498, 1760.580
859.6319, 1756.295
860.1140, 1748.764
860.5961, 1745.070
861.0782, 1745.236
861.5604, 1750.457
862.0425, 1763.276
862.5246, 1770.691
863.0067, 1767.427
863.4888, 1762.958
863.9709, 1765.124
864.4531, 1771.895
864.9352, 1776.129
865.4173, 1779.595
865.8994, 1776.747
866.3815, 1755.445
866.8636, 1742.547
867.3458, 1756.129
867.8279, 1777.419
868.3100, 1786.283
868.7921, 1781.559
869.2742, 1771.085
869.7563, 1746.104
870.2385, 1729.710
870.7206, 1739.302
871.2027, 1754.191
871.6848, 1756.175
872.1669, 1747.933
872.6490, 1739.030
873.1312, 1732.526
873.6133, 1728.140
874.0954, 1726.228
874.5775, 1725.822
875.0596, 1726.711
875.5417, 1727.982
876.0239, 1726.848
876.5060, 1723.576
876.9881, 1723.164
877.4702, 1729.774
877.9523, 1737.760
878.4344, 1738.178
878.9166, 1732.169
879.3987, 1721.133
879.8808, 1706.284
880.3629, 1700.023
880.8450, 1707.808
881.3271, 1719.653
881.8093, 1724.051
882.2914, 1721.854
882.7735, 1717.683
883.2556, 1710.985
883.7377, 1706.990
884.2198, 1707.556
884.7020, 1707.279
885.1841, 1701.296
885.6662, 1693.967
886.1483, 1696.400
886.6304, 1713.949
887.1125, 1716.081
887.5947, 1686.305
888.0768, 1667.981
888.5589, 1685.699
889.0410, 1707.641
889.5231, 1701.768
890.0052, 1675.480
890.4874, 1663.072
890.9695, 1675.730
891.4516, 1686.203
891.9337, 1688.645
892.4158, 1690.425
892.8979, 1698.387
893.3801, 1706.517
893.8622, 1704.219
894.3443, 1691.223
894.8264, 1682.370
895.3085, 1689.314
895.7906, 1694.947
896.2728, 1689.780
896.7549, 1679.001
897.2370, 1664.151
897.7191, 1649.112
898.2012, 1640.807
898.6833, 1641.699
899.1655, 1649.861
899.6476, 1671.359
900.1297, 1693.235
900.6118, 1698.711
901.0939, 1692.300
901.5760, 1682.039
902.0582, 1670.648
902.5403, 1660.965
903.0224, 1654.771
903.5045, 1651.283
903.9866, 1650.729
904.4688, 1651.783
904.9509, 1649.385
905.4330, 1644.037
905.9151, 1641.640
906.3972, 1644.080
906.8793, 1646.642
907.3615, 1644.449
907.8436, 1639.474
908.3257, 1637.565
908.8078, 1638.711
909.2899, 1645.222
909.7720, 1658.612
910.2542, 1667.639
910.7363, 1666.652
911.2184, 1659.210
911.7005, 1650.304
912.1826, 1639.888
912.6647, 1624.182
913.1469, 1598.199
913.6290, 1583.209
914.1111, 1586.587
914.5932, 1594.561
915.0753, 1598.131
915.5574, 1600.120
916.0396, 1608.567
916.5217, 1629.138
917.0038, 1634.532
917.4859, 1606.924
917.9680, 1589.401
918.4501, 1604.641
918.9323, 1622.619
919.4144, 1615.786
919.8965, 1591.512
920.3786, 1578.698
920.8607, 1586.870
921.3428, 1589.983
921.8250, 1575.231
922.3071, 1565.161
922.7892, 1580.927
923.2713, 1600.030
923.7534, 1588.523
924.2355, 1550.209
924.7177, 1531.012
925.1998, 1559.203
925.6819, 1584.564
926.1640, 1582.969
926.6461, 1574.005
927.1282, 1571.587
927.6104, 1573.796
928.0925, 1575.722
928.5746, 1576.070
929.0567, 1574.647
929.5388, 1568.558
930.0209, 1563.893
930.5031, 1569.950
930.9852, 1576.824
931.4673, 1567.216
931.9494, 1547.494
932.4315, 1540.166
932.9136, 1553.111
933.3958, 1567.705
933.8779, 1566.719
934.3600, 1559.333
934.8421, 1556.828
935.3242, 1557.193
935.8063, 1555.382
936.2885, 1551.597
936.7706, 1551.600
937.2527, 1558.791
937.7348, 1565.128
938.2169, 1558.716
938.6990, 1544.984
939.1812, 1535.741
939.6633, 1530.593
940.1454, 1526.740
940.6275, 1523.618
941.1096, 1522.927
941.5917, 1526.048
942.0739, 1531.269
942.5560, 1536.464
943.0381, 1541.139
943.5202, 1541.161
944.0023, 1536.982
944.4844, 1537.842
944.9666, 1546.737
945.4487, 1555.752
945.9308, 1558.353
946.4129, 1554.415
946.8950, 1540.395
947.3771, 1516.376
947.8593, 1503.607
948.3414, 1504.251
948.8235, 1506.343
949.3056, 1504.942
949.7877, 1505.317
950.2698, 1514.387
950.7520, 1529.612
951.2341, 1536.601
951.7162, 1533.705
952.1983, 1534.156
952.6804, 1541.229
953.1625, 1543.126
953.6447, 1532.041
954.1268, 1518.100
954.6089, 1515.803
955.0910, 1524.394
955.5731, 1525.237
956.0552, 1511.483
956.5374, 1512.947
957.0195, 1543.577
957.5016, 1568.179
957.9837, 1565.876
958.4658, 1548.404
958.9479, 1533.718
959.4301, 1521.720
959.9122, 1513.303
960.3943, 1509.501
960.8764, 1507.214
961.3585, 1505.969
961.8406, 1506.152
962.3228, 1507.635
962.8049, 1510.937
963.2870, 1518.493
963.7691, 1532.788
964.2512, 1537.996
964.7333, 1528.689
965.2155, 1518.177
965.6976, 1502.107
966.1797, 1491.863
966.6618, 1500.014
967.1439, 1518.126
967.6260, 1527.134
968.1082, 1525.300
968.5903, 1519.558
969.0724, 1503.568
969.5545, 1492.628
970.0366, 1498.546
970.5187, 1503.644
971.0009, 1489.712
971.4830, 1464.878
971.9651, 1451.479
972.4472, 1453.350
972.9293, 1460.231
973.4114, 1479.798
973.8936, 1492.603
974.3757, 1486.566
974.8578, 1475.252
975.3399, 1470.867
975.8220, 1471.491
976.3041, 1468.676
976.7863, 1459.446
977.2684, 1452.304
977.7505, 1449.556
978.2326, 1448.798
978.7147, 1449.510
979.1968, 1451.328
979.6790, 1457.632
980.1611, 1464.834
980.6432, 1459.793
981.1253, 1433.788
981.6074, 1414.118
982.0895, 1410.284
982.5717, 1413.108
983.0538, 1422.027
983.5359, 1432.104
984.0180, 1439.646
984.5001, 1443.692
984.9822, 1442.584
985.4644, 1434.539
985.9465, 1425.340
986.4286, 1413.227
986.9107, 1404.830
987.3928, 1405.246
987.8749, 1410.670
988.3571, 1419.493
988.8392, 1429.200
989.3213, 1431.797
989.8034, 1421.411
990.2855, 1414.072
990.7676, 1417.750
991.2498, 1425.080
991.7319, 1437.411
992.2140, 1446.629
992.6961, 1438.479
993.1782, 1417.225
993.6603, 1406.174
994.1425, 1416.589
994.6246, 1427.500
995.1067, 1433.241
995.5888, 1432.411
996.0709, 1417.857
996.5530, 1400.154
997.0352, 1392.788
997.5173, 1395.475
997.9994, 1399.164
998.4815, 1401.606
998.9636, 1402.157
999.4457, 1397.847
999.9279, 1394.403
1000.410, 1398.270
1000.892, 1403.820
1001.374, 1402.096
1001.856, 1394.510
1002.338, 1391.561
1002.821, 1398.861
1003.303, 1404.827
1003.785, 1402.878
1004.267, 1398.994
1004.749, 1394.034
1005.231, 1391.691
1005.713, 1398.801
1006.195, 1412.960
1006.677, 1423.213
1007.160, 1425.493
1007.642, 1424.759
1008.124, 1420.218
1008.606, 1416.783
1009.088, 1421.866
1009.570, 1427.024
1010.052, 1418.186
1010.534, 1399.304
1011.017, 1390.021
1011.499, 1399.220
1011.981, 1407.481
1012.463, 1402.337
1012.945, 1398.452
1013.427, 1408.664
1013.909, 1422.141
1014.391, 1425.725
1014.873, 1420.886
1015.356, 1416.970
1015.838, 1416.157
1016.320, 1417.993
1016.802, 1425.345
1017.284, 1431.715
1017.766, 1432.991
1018.248, 1431.969
1018.730, 1429.840
1019.213, 1428.246
1019.695, 1431.919
1020.177, 1443.976
1020.659, 1450.849
1021.141, 1442.530
1021.623, 1435.023
1022.105, 1437.759
1022.587, 1442.928
1023.069, 1442.575
1023.552, 1438.608
1024.034, 1438.358
1024.516, 1444.602
1024.998, 1445.013
1025.480, 1429.102
1025.962, 1416.393
1026.444, 1412.432
1026.926, 1416.144
1027.409, 1436.530
1027.891, 1460.841
1028.373, 1458.310
1028.855, 1420.021
1029.337, 1398.768
1029.819, 1418.192
1030.301, 1436.213
1030.783, 1443.841
1031.266, 1444.249
1031.748, 1434.858
1032.230, 1421.898
1032.712, 1416.532
1033.194, 1420.136
1033.676, 1422.851
1034.158, 1423.817
1034.640, 1423.651
1035.122, 1418.028
1035.604, 1416.103
1036.087, 1426.948
1036.569, 1442.496
1037.051, 1451.756
1037.533, 1454.557
1038.015, 1451.025
1038.497, 1432.470
1038.979, 1421.818
1039.461, 1426.442
1039.944, 1431.210
1040.426, 1428.232
1040.908, 1423.241
1041.390, 1424.875
1041.872, 1431.865
1042.354, 1429.088
1042.836, 1405.715
1043.318, 1397.220
1043.800, 1413.570
1044.283, 1428.655
1044.765, 1433.921
1045.247, 1432.423
1045.729, 1424.919
1046.211, 1413.907
1046.693, 1412.196
1047.175, 1425.912
1047.657, 1426.435
1048.140, 1407.022
1048.622, 1394.536
1049.104, 1399.496
1049.586, 1407.344
1050.068, 1405.626
1050.550, 1397.954
1051.032, 1393.272
1051.514, 1391.172
1051.996, 1398.190
1052.479, 1416.932
1052.961, 1426.885
1053.443, 1421.602
1053.925, 1416.472
1054.407, 1422.697
1054.889, 1432.481
1055.371, 1431.822
1055.853, 1421.180
1056.335, 1403.275
1056.818, 1378.060
1057.300, 1364.246
1057.782, 1365.132
1058.264, 1365.048
1058.746, 1355.265
1059.228, 1347.182
1059.710, 1358.990
1060.192, 1382.013
1060.675, 1384.764
1061.157, 1371.173
1061.639, 1364.006
1062.121, 1364.449
1062.603, 1357.194
1063.085, 1336.781
1063.567, 1318.538
1064.049, 1317.386
1064.531, 1327.536
1065.014, 1344.138
1065.496, 1361.702
1065.978, 1363.703
1066.460, 1353.797
1066.942, 1349.704
1067.424, 1354.927
1067.906, 1355.688
1068.388, 1340.435
1068.870, 1325.198
1069.353, 1334.835
1069.835, 1350.595
1070.317, 1344.422
1070.799, 1324.519
1071.281, 1307.346
1071.763, 1296.437
1072.245, 1290.226
1072.727, 1288.422
1073.210, 1287.997
1073.692, 1287.260
1074.174, 1286.402
1074.656, 1283.241
1075.138, 1281.751
1075.620, 1290.072
1076.102, 1303.721
1076.584, 1310.325
1077.067, 1306.558
1077.549, 1298.425
1078.031, 1282.525
1078.513, 1270.773
1078.995, 1271.643
1079.477, 1275.693
1079.959, 1274.476
1080.441, 1271.876
1080.923, 1276.287
1081.406, 1288.111
1081.888, 1296.530
1082.370, 1295.891
1082.852, 1297.489
1083.334, 1309.309
1083.816, 1316.151
1084.298, 1303.942
1084.780, 1288.731
1085.262, 1291.620
1085.745, 1307.530
1086.227, 1310.507
1086.709, 1292.046
1087.191, 1283.754
1087.673, 1292.171
1088.155, 1297.161
1088.637, 1290.706
1089.119, 1285.093
1089.602, 1290.895
1090.084, 1301.751
1090.566, 1303.496
1091.048, 1295.754
1091.530, 1289.211
1092.012, 1283.490
1092.494, 1283.076
1092.976, 1290.117
1093.458, 1291.818
1093.941, 1280.547
1094.423, 1267.474
1094.905, 1267.977
1095.387, 1276.921
1095.869, 1272.722
1096.351, 1258.156
1096.833, 1256.836
1097.315, 1269.156
1097.797, 1279.418
1098.280, 1282.519
1098.762, 1283.278
1099.244, 1286.101
1099.726, 1286.041
1100.208, 1269.040
1100.690, 1247.110
1101.172, 1248.937
1101.654, 1265.810
1102.137, 1273.209
1102.619, 1268.739
1103.101, 1265.249
1103.583, 1268.885
1104.065, 1271.739
1104.547, 1264.083
1105.029, 1256.110
1105.511, 1258.588
1105.994, 1265.148
1106.476, 1268.437
1106.958, 1268.969
1107.440, 1264.384
1107.922, 1256.115
1108.404, 1270.226
1108.886, 1355.003
1109.368, 1406.913
1109.850, 1360.632
1110.333, 1299.858
1110.815, 1264.645
1111.297, 1251.599
1111.779, 1263.488
1112.261, 1292.522
1112.743, 1302.281
1113.225, 1278.544
1113.707, 1262.989
1114.189, 1263.960
1114.672, 1261.840
1115.154, 1249.680
1115.636, 1236.635
1116.118, 1227.160
1116.600, 1222.532
1117.082, 1226.005
1117.564, 1237.638
1118.046, 1247.274
1118.529, 1254.955
1119.011, 1260.436
1119.493, 1263.720
1119.975, 1264.276
1120.457, 1261.614
1120.939, 1257.797
1121.421, 1254.704
1121.903, 1252.645
1122.385, 1252.239
1122.868, 1253.625
1123.350, 1259.178
1123.832, 1267.573
1124.314, 1269.882
1124.796, 1265.339
1125.278, 1265.496
1125.760, 1277.302
1126.242, 1289.532
1126.724, 1287.058
1127.207, 1279.552
1127.689, 1283.049
1128.171, 1289.203
1128.653, 1282.248
1129.135, 1266.144
1129.617, 1254.035
1130.099, 1249.577
1130.581, 1250.460
1131.064, 1257.705
1131.546, 1266.112
1132.028, 1274.974
1132.510, 1281.906
1132.992, 1285.064
1133.474, 1285.560
1133.956, 1285.297
1134.438, 1283.703
1134.921, 1277.290
1135.403, 1262.611
1135.885, 1253.600
1136.367, 1252.375
1136.849, 1255.828
1137.331, 1267.326
1137.813, 1277.748
1138.295, 1281.860
1138.777, 1282.032
1139.260, 1281.560
1139.742, 1280.420
1140.224, 1277.728
1140.706, 1272.739
1141.188, 1273.084
1141.670, 1280.039
1142.152, 1282.674
1142.634, 1277.204
1143.116, 1272.104
1143.599, 1274.425
1144.081, 1278.533
1144.563, 1271.186
1145.045, 1258.778
1145.527, 1264.268
1146.009, 1281.094
1146.491, 1288.922
1146.973, 1286.190
1147.456, 1278.710
1147.938, 1269.369
1148.420, 1265.238
1148.902, 1274.175
1149.384, 1285.926
1149.866, 1294.386
1150.348, 1298.358
1150.830, 1293.656
1151.313, 1285.440
1151.795, 1281.120
1152.277, 1280.832
1152.759, 1280.181
1153.241, 1277.726
1153.723, 1276.449
1154.205, 1277.388
1154.687, 1279.083
1155.169, 1281.584
1155.651, 1284.163
1156.134, 1285.792
1156.616, 1287.667
1157.098, 1291.256
1157.580, 1296.626
1158.062, 1306.469
1158.544, 1325.583
1159.026, 1323.768
1159.508, 1294.422
1159.991, 1275.223
1160.473, 1277.969
1160.955, 1289.523
1161.437, 1301.660
1161.919, 1310.175
1162.401, 1304.810
1162.883, 1291.318
1163.365, 1292.415
1163.848, 1301.591
1164.330, 1293.528
1164.812, 1271.832
1165.294, 1263.441
1165.776, 1275.732
1166.258, 1290.597
1166.740, 1297.499
1167.222, 1299.096
1167.704, 1291.767
1168.187, 1286.143
1168.669, 1297.203
1169.151, 1311.674
1169.633, 1308.762
1170.115, 1294.706
1170.597, 1294.246
1171.079, 1314.507
1171.561, 1324.535
1172.043, 1307.589
1172.526, 1297.972
1173.008, 1305.263
1173.490, 1314.517
1173.972, 1320.744
1174.454, 1323.975
1174.936, 1321.905
1175.418, 1318.702
1175.900, 1332.928
1176.383, 1367.549
1176.865, 1373.920
1177.347, 1351.362
1177.829, 1330.859
1178.311, 1318.258
1178.793, 1309.427
1179.275, 1302.293
1179.757, 1301.537
1180.240, 1315.473
1180.722, 1332.478
1181.204, 1330.424
1181.686, 1320.368
1182.168, 1323.304
1182.650, 1332.757
1183.132, 1329.881
1183.614, 1316.155
1184.096, 1311.686
1184.578, 1325.266
1185.061, 1336.951
1185.543, 1332.029
1186.025, 1330.935
1186.507, 1350.370
1186.989, 1368.013
1187.471, 1369.050
1187.953, 1358.157
1188.435, 1336.648
1188.918, 1309.005
1189.400, 1304.089
1189.882, 1331.758
1190.364, 1345.962
1190.846, 1342.552
1191.328, 1345.705
1191.810, 1362.359
1192.292, 1373.337
1192.775, 1366.964
1193.257, 1355.953
1193.739, 1356.659
1194.221, 1363.803
1194.703, 1362.061
1195.185, 1357.132
1195.667, 1368.303
1196.149, 1389.226
1196.631, 1397.656
1197.114, 1391.906
1197.596, 1388.621
1198.078, 1395.766
1198.560, 1399.299
1199.042, 1385.106
1199.524, 1371.686
1200.006, 1367.638
1200.488, 1370.479
1200.970, 1382.242
1201.453, 1397.039
1201.935, 1409.379
1202.417, 1417.547
1202.899, 1412.795
1203.381, 1385.845
1203.863, 1377.300
1204.345, 1394.974
1204.827, 1405.048
1205.310, 1399.182
1205.792, 1391.819
1206.274, 1390.013
1206.756, 1395.097
1207.238, 1411.507
1207.720, 1430.407
1208.202, 1425.069
1208.684, 1405.584
1209.167, 1402.985
1209.649, 1412.178
1210.131, 1412.707
1210.613, 1403.689
1211.095, 1398.639
1211.577, 1402.909
1212.059, 1411.290
1212.541, 1427.152
1213.023, 1437.346
1213.505, 1430.198
1213.988, 1420.194
1214.470, 1419.066
1214.952, 1419.671
1215.434, 1408.622
1215.916, 1391.467
1216.398, 1390.670
1216.880, 1410.477
1217.362, 1419.861
1217.845, 1416.020
1218.327, 1414.188
1218.809, 1417.118
1219.291, 1415.944
1219.773, 1406.318
1220.255, 1400.728
1220.737, 1411.377
1221.219, 1429.462
1221.702, 1441.084
1222.184, 1447.784
1222.666, 1454.812
1223.148, 1458.423
##END=



