##NAMES=Schwartzembergite
##RRUFFID=R050159
##IDEAL CHEMISTRY=Pb^2+^_5_H_2_I^3+^O_6_Cl_3_
##LOCALITY=Ponderosa mine, Sierra Gorda, Antofagasta, Chile
##OWNER=RRUFF
##SOURCE=Jim McGlasson
##DESCRIPTION=Orange thin plates
##STATUS=The identification of this mineral has been confirmed by single-crystal X-ray diffraction.
##URL=rruff.info/R050159
126.7812, 5008.556
127.2633, 5342.320
127.7454, 5691.809
128.2276, 6047.059
128.7097, 6394.717
129.1918, 6749.132
129.6739, 7138.870
130.1560, 7567.052
130.6381, 8025.073
131.1203, 8512.283
131.6024, 9022.455
132.0845, 9539.933
132.5666, 10039.29
133.0487, 10529.78
133.5308, 11049.62
134.0130, 11612.66
134.4951, 12199.06
134.9772, 12777.12
135.4593, 13345.96
135.9414, 13915.59
136.4235, 14484.79
136.9057, 15050.51
137.3878, 15637.72
137.8699, 16276.06
138.3520, 16944.27
138.8341, 17531.19
139.3162, 18042.68
139.7984, 18462.33
140.2805, 18779.55
140.7626, 18986.66
141.2447, 19099.17
141.7268, 19118.73
142.2089, 19044.13
142.6911, 18880.94
143.1732, 18616.62
143.6553, 18274.86
144.1374, 17894.41
144.6195, 17462.42
145.1016, 17017.30
145.5838, 16574.31
146.0659, 16124.50
146.5480, 15687.48
147.0301, 15260.72
147.5122, 14846.89
147.9943, 14437.71
148.4765, 14021.81
148.9586, 13626.42
149.4407, 13257.96
149.9228, 12915.58
150.4049, 12605.72
150.8870, 12340.11
151.3692, 12119.20
151.8513, 11898.46
152.3334, 11657.69
152.8155, 11430.30
153.2976, 11236.02
153.7797, 11107.57
154.2619, 10983.01
154.7440, 10846.35
155.2261, 10693.16
155.7082, 10557.69
156.1903, 10457.46
156.6724, 10372.20
157.1546, 10280.75
157.6367, 10180.55
158.1188, 10071.75
158.6009, 9950.079
159.0830, 9803.631
159.5652, 9673.930
160.0473, 9582.487
160.5294, 9513.950
161.0115, 9440.021
161.4936, 9363.089
161.9757, 9270.350
162.4579, 9151.138
162.9400, 8983.977
163.4221, 8823.463
163.9042, 8697.790
164.3863, 8598.468
164.8684, 8496.615
165.3506, 8369.220
165.8327, 8239.899
166.3148, 8128.876
166.7969, 8057.489
167.2790, 7989.957
167.7611, 7904.596
168.2433, 7803.063
168.7254, 7703.307
169.2075, 7608.573
169.6896, 7523.261
170.1717, 7453.119
170.6538, 7411.729
171.1360, 7378.854
171.6181, 7337.359
172.1002, 7286.416
172.5823, 7239.456
173.0644, 7208.646
173.5465, 7188.246
174.0287, 7167.314
174.5108, 7131.010
174.9929, 7096.325
175.4750, 7085.568
175.9571, 7103.539
176.4392, 7126.013
176.9214, 7121.420
177.4035, 7101.026
177.8856, 7096.179
178.3677, 7145.311
178.8498, 7215.599
179.3319, 7249.885
179.8141, 7230.143
180.2962, 7202.430
180.7783, 7231.389
181.2604, 7306.829
181.7425, 7377.684
182.2246, 7399.970
182.7068, 7392.747
183.1889, 7402.919
183.6710, 7444.085
184.1531, 7498.740
184.6352, 7533.615
185.1173, 7550.401
185.5995, 7574.456
186.0816, 7635.212
186.5637, 7722.094
187.0458, 7796.577
187.5279, 7843.130
188.0100, 7875.054
188.4922, 7920.354
188.9743, 7979.816
189.4564, 8047.063
189.9385, 8119.571
190.4206, 8196.390
190.9027, 8269.539
191.3849, 8333.966
191.8670, 8393.398
192.3491, 8464.261
192.8312, 8548.782
193.3133, 8637.072
193.7955, 8721.493
194.2776, 8801.914
194.7597, 8871.393
195.2418, 8916.294
195.7239, 8942.371
196.2060, 9003.703
196.6882, 9107.846
197.1703, 9227.495
197.6524, 9321.488
198.1345, 9386.918
198.6166, 9453.057
199.0987, 9534.215
199.5809, 9630.411
200.0630, 9720.019
200.5451, 9801.895
201.0272, 9878.101
201.5093, 9952.104
201.9914, 10022.98
202.4736, 10095.82
202.9557, 10175.72
203.4378, 10263.66
203.9199, 10346.95
204.4020, 10425.33
204.8841, 10498.38
205.3663, 10563.54
205.8484, 10619.15
206.3305, 10673.24
206.8126, 10730.80
207.2947, 10792.11
207.7768, 10856.30
208.2590, 10926.84
208.7411, 10998.97
209.2232, 11054.88
209.7053, 11091.53
210.1874, 11119.63
210.6695, 11143.83
211.1517, 11146.36
211.6338, 11210.18
212.1159, 11260.88
212.5980, 11298.94
213.0801, 11298.97
213.5622, 11338.58
214.0444, 11356.51
214.5265, 11369.56
215.0086, 11402.85
215.4907, 11387.01
215.9728, 11411.60
216.4549, 11414.23
216.9371, 11420.85
217.4192, 11405.67
217.9013, 11391.79
218.3834, 11375.13
218.8655, 11378.97
219.3476, 11376.42
219.8298, 11361.30
220.3119, 11333.63
220.7940, 11307.41
221.2761, 11285.08
221.7582, 11261.37
222.2403, 11230.34
222.7225, 11193.04
223.2046, 11146.73
223.6867, 11085.73
224.1688, 11006.27
224.6509, 10952.74
225.1330, 10941.15
225.6152, 10939.83
226.0973, 10906.29
226.5794, 10827.96
227.0615, 10744.00
227.5436, 10662.81
228.0257, 10581.88
228.5079, 10516.69
228.9900, 10477.51
229.4721, 10445.63
229.9542, 10393.06
230.4363, 10312.95
230.9185, 10224.67
231.4006, 10128.82
231.8827, 10019.08
232.3648, 9932.739
232.8469, 9880.660
233.3290, 9844.856
233.8112, 9793.606
234.2933, 9719.839
234.7754, 9642.340
235.2575, 9566.533
235.7396, 9491.663
236.2217, 9421.607
236.7039, 9358.250
237.1860, 9298.283
237.6681, 9235.164
238.1502, 9170.516
238.6323, 9100.196
239.1144, 9018.869
239.5966, 8917.571
240.0787, 8831.324
240.5608, 8765.021
241.0429, 8711.977
241.5250, 8658.781
242.0071, 8610.955
242.4893, 8554.289
242.9714, 8481.458
243.4535, 8378.926
243.9356, 8289.612
244.4177, 8218.384
244.8998, 8159.155
245.3820, 8095.417
245.8641, 8022.168
246.3462, 7951.503
246.8283, 7890.775
247.3104, 7847.907
247.7925, 7796.188
248.2747, 7731.257
248.7568, 7658.152
249.2389, 7590.670
249.7210, 7528.369
250.2031, 7472.360
250.6852, 7425.224
251.1674, 7396.407
251.6495, 7354.093
252.1316, 7292.650
252.6137, 7218.226
253.0958, 7149.679
253.5779, 7084.125
254.0601, 7028.747
254.5422, 6988.897
255.0243, 6969.811
255.5064, 6953.864
255.9885, 6944.683
256.4706, 6937.531
256.9528, 6914.408
257.4349, 6866.773
257.9170, 6817.163
258.3991, 6776.315
258.8812, 6745.013
259.3633, 6722.330
259.8455, 6713.113
260.3276, 6711.391
260.8097, 6694.035
261.2918, 6650.502
261.7739, 6610.365
262.2560, 6592.453
262.7382, 6606.583
263.2203, 6613.050
263.7024, 6607.631
264.1845, 6593.398
264.6666, 6579.972
265.1487, 6566.429
265.6309, 6555.848
266.1130, 6550.250
266.5951, 6550.101
267.0772, 6552.913
267.5593, 6557.580
268.0414, 6565.400
268.5236, 6582.412
269.0057, 6613.058
269.4878, 6642.529
269.9699, 6659.338
270.4520, 6658.268
270.9341, 6669.820
271.4163, 6702.398
271.8984, 6746.307
272.3805, 6768.367
272.8626, 6761.288
273.3447, 6754.493
273.8268, 6768.032
274.3090, 6805.180
274.7911, 6839.295
275.2732, 6866.735
275.7553, 6890.083
276.2374, 6916.532
276.7195, 6947.383
277.2017, 6977.255
277.6838, 7000.986
278.1659, 7017.606
278.6480, 7040.819
279.1301, 7073.653
279.6122, 7111.890
280.0944, 7146.794
280.5765, 7177.759
281.0586, 7207.795
281.5407, 7236.686
282.0229, 7264.368
282.5050, 7301.196
282.9871, 7352.413
283.4692, 7407.722
283.9513, 7442.001
284.4334, 7453.240
284.9156, 7466.966
285.3977, 7502.897
285.8798, 7558.875
286.3619, 7605.426
286.8440, 7638.991
287.3261, 7663.884
287.8083, 7685.078
288.2904, 7702.481
288.7725, 7726.121
289.2546, 7767.344
289.7367, 7821.953
290.2188, 7867.474
290.7010, 7901.029
291.1831, 7927.261
291.6652, 7952.789
292.1473, 7977.699
292.6294, 8000.017
293.1115, 8013.902
293.5937, 8023.741
294.0758, 8047.045
294.5579, 8088.193
295.0400, 8134.210
295.5221, 8166.812
296.0042, 8187.970
296.4864, 8207.505
296.9685, 8232.569
297.4506, 8259.982
297.9327, 8280.523
298.4148, 8292.424
298.8969, 8303.227
299.3791, 8324.947
299.8612, 8354.002
300.3433, 8377.396
300.8254, 8385.322
301.3075, 8384.028
301.7896, 8382.148
302.2718, 8379.717
302.7539, 8379.796
303.2360, 8390.832
303.7181, 8407.221
304.2002, 8415.490
304.6823, 8403.968
305.1645, 8383.140
305.6466, 8365.958
306.1287, 8353.267
306.6108, 8339.337
307.0929, 8316.956
307.5750, 8290.198
308.0572, 8265.572
308.5393, 8248.913
309.0214, 8234.135
309.5035, 8215.249
309.9856, 8192.028
310.4677, 8168.907
310.9499, 8151.618
311.4320, 8135.482
311.9141, 8113.736
312.3962, 8080.492
312.8783, 8043.097
313.3604, 8001.712
313.8426, 7957.142
314.3247, 7922.329
314.8068, 7915.258
315.2889, 7917.852
315.7710, 7911.077
316.2531, 7882.734
316.7353, 7849.058
317.2174, 7814.434
317.6995, 7779.459
318.1816, 7749.063
318.6637, 7723.793
319.1458, 7704.600
319.6280, 7692.253
320.1101, 7701.404
320.5922, 7702.711
321.0743, 7678.261
321.5564, 7634.363
322.0385, 7606.327
322.5207, 7622.092
323.0028, 7644.710
323.4849, 7651.097
323.9670, 7620.574
324.4491, 7594.168
324.9312, 7578.395
325.4134, 7571.515
325.8955, 7566.989
326.3776, 7561.999
326.8597, 7560.718
327.3418, 7565.671
327.8239, 7589.787
328.3061, 7601.915
328.7882, 7590.363
329.2703, 7566.033
329.7524, 7557.085
330.2345, 7576.744
330.7166, 7598.873
331.1988, 7614.624
331.6809, 7622.599
332.1630, 7626.467
332.6451, 7622.924
333.1272, 7616.460
333.6093, 7614.709
334.0915, 7614.592
334.5736, 7624.031
335.0557, 7647.859
335.5378, 7689.917
336.0199, 7728.815
336.5020, 7768.757
336.9842, 7801.841
337.4663, 7812.687
337.9484, 7788.175
338.4305, 7777.913
338.9126, 7802.045
339.3947, 7860.803
339.8769, 7898.514
340.3590, 7908.362
340.8411, 7911.672
341.3232, 7936.681
341.8053, 7987.590
342.2874, 8025.009
342.7696, 8032.342
343.2517, 8017.691
343.7338, 8023.456
344.2159, 8051.420
344.6980, 8090.311
345.1801, 8134.760
345.6623, 8183.689
346.1444, 8226.509
346.6265, 8259.002
347.1086, 8285.216
347.5907, 8316.318
348.0728, 8351.752
348.5550, 8384.759
349.0371, 8402.256
349.5192, 8411.648
350.0013, 8440.437
350.4834, 8499.400
350.9655, 8567.203
351.4477, 8608.717
351.9298, 8629.410
352.4119, 8653.495
352.8940, 8699.236
353.3762, 8757.265
353.8583, 8812.050
354.3404, 8861.491
354.8225, 8908.367
355.3046, 8951.399
355.7867, 8993.598
356.2689, 9042.181
356.7510, 9106.517
357.2331, 9175.558
357.7152, 9239.556
358.1973, 9297.592
358.6794, 9352.543
359.1616, 9408.930
359.6437, 9462.781
360.1258, 9508.538
360.6079, 9524.515
361.0900, 9547.922
361.5721, 9606.040
362.0543, 9698.904
362.5364, 9785.502
363.0185, 9839.526
363.5006, 9884.387
363.9827, 9940.420
364.4648, 10030.42
364.9470, 10114.53
365.4291, 10180.66
365.9112, 10230.07
366.3933, 10277.08
366.8754, 10311.55
367.3575, 10353.14
367.8397, 10412.80
368.3218, 10530.36
368.8039, 10618.54
369.2860, 10657.65
369.7681, 10661.98
370.2502, 10675.32
370.7324, 10702.59
371.2145, 10734.14
371.6966, 10767.58
372.1787, 10807.55
372.6608, 10837.82
373.1429, 10858.98
373.6251, 10870.06
374.1072, 10868.80
374.5893, 10851.18
375.0714, 10829.19
375.5535, 10807.13
376.0356, 10785.56
376.5178, 10756.63
376.9999, 10718.89
377.4820, 10676.66
377.9641, 10636.42
378.4462, 10599.04
378.9283, 10555.88
379.4105, 10502.24
379.8926, 10441.56
380.3747, 10393.12
380.8568, 10359.02
381.3389, 10321.64
381.8210, 10264.49
382.3032, 10189.61
382.7853, 10107.54
383.2674, 10017.57
383.7495, 9925.942
384.2316, 9850.092
384.7137, 9787.708
385.1959, 9726.246
385.6780, 9654.182
386.1601, 9577.205
386.6422, 9513.229
387.1243, 9468.343
387.6064, 9418.902
388.0886, 9327.071
388.5707, 9208.196
389.0528, 9104.387
389.5349, 9044.209
390.0170, 9004.766
390.4991, 8969.907
390.9813, 8939.790
391.4634, 8897.076
391.9455, 8817.240
392.4276, 8721.996
392.9097, 8638.934
393.3918, 8587.266
393.8740, 8541.854
394.3561, 8488.486
394.8382, 8428.762
395.3203, 8376.691
395.8024, 8343.021
396.2845, 8315.959
396.7667, 8287.883
397.2488, 8264.596
397.7309, 8231.188
398.2130, 8178.231
398.6951, 8112.204
399.1772, 8053.308
399.6594, 8015.750
400.1415, 7975.867
400.6236, 7922.741
401.1057, 7843.225
401.5878, 7782.241
402.0699, 7748.805
402.5521, 7729.509
403.0342, 7704.208
403.5163, 7666.483
403.9984, 7634.382
404.4805, 7614.739
404.9626, 7608.038
405.4448, 7593.577
405.9269, 7570.370
406.4090, 7541.210
406.8911, 7507.017
407.3732, 7466.453
407.8553, 7428.123
408.3375, 7391.245
408.8196, 7359.017
409.3017, 7346.313
409.7838, 7354.886
410.2659, 7363.244
410.7480, 7354.174
411.2302, 7331.141
411.7123, 7312.352
412.1944, 7301.283
412.6765, 7291.018
413.1586, 7269.982
413.6407, 7240.452
414.1229, 7213.014
414.6050, 7194.342
415.0871, 7180.090
415.5692, 7161.956
416.0513, 7138.924
416.5334, 7122.386
417.0156, 7135.259
417.4977, 7157.314
417.9798, 7158.069
418.4619, 7097.986
418.9440, 7037.861
419.4261, 7022.098
419.9083, 7043.750
420.3904, 7059.850
420.8725, 7043.538
421.3546, 7019.326
421.8367, 7005.521
422.3188, 7014.235
422.8010, 7018.079
423.2831, 7002.525
423.7652, 6977.816
424.2473, 6965.513
424.7295, 6985.191
425.2116, 7002.384
425.6937, 7006.191
426.1758, 6994.464
426.6579, 6976.590
427.1400, 6943.445
427.6222, 6910.113
428.1043, 6892.432
428.5864, 6898.833
429.0685, 6903.756
429.5506, 6900.933
430.0327, 6892.252
430.5149, 6894.737
430.9970, 6915.359
431.4791, 6930.330
431.9612, 6916.866
432.4433, 6872.309
432.9254, 6844.760
433.4076, 6840.934
433.8897, 6852.656
434.3718, 6868.661
434.8539, 6888.733
435.3360, 6905.374
435.8181, 6915.814
436.3003, 6919.872
436.7824, 6913.788
437.2645, 6896.543
437.7466, 6880.077
438.2287, 6882.318
438.7108, 6894.022
439.1930, 6893.832
439.6751, 6862.575
440.1572, 6828.157
440.6393, 6819.513
441.1214, 6832.737
441.6035, 6848.539
442.0857, 6860.407
442.5678, 6867.427
443.0499, 6868.381
443.5320, 6861.284
444.0141, 6852.448
444.4962, 6841.489
444.9784, 6830.854
445.4605, 6824.635
445.9426, 6835.358
446.4247, 6839.938
446.9068, 6825.777
447.3889, 6788.361
447.8711, 6764.368
448.3532, 6759.173
448.8353, 6765.933
449.3174, 6781.615
449.7995, 6824.302
450.2816, 6844.575
450.7638, 6828.781
451.2459, 6787.251
451.7280, 6760.602
452.2101, 6751.977
452.6922, 6750.750
453.1743, 6753.262
453.6565, 6760.042
454.1386, 6764.125
454.6207, 6764.129
455.1028, 6764.389
455.5849, 6775.928
456.0670, 6797.466
456.5492, 6806.164
457.0313, 6786.484
457.5134, 6751.821
457.9955, 6734.655
458.4776, 6734.443
458.9597, 6740.450
459.4419, 6749.946
459.9240, 6758.597
460.4061, 6757.862
460.8882, 6742.965
461.3703, 6725.465
461.8524, 6710.728
462.3346, 6700.858
462.8167, 6701.151
463.2988, 6725.508
463.7809, 6752.121
464.2630, 6766.905
464.7451, 6767.936
465.2273, 6766.607
465.7094, 6765.465
466.1915, 6764.346
466.6736, 6763.090
467.1557, 6765.572
467.6378, 6763.498
468.1200, 6748.789
468.6021, 6726.431
469.0842, 6719.933
469.5663, 6741.788
470.0484, 6764.924
470.5305, 6779.273
471.0127, 6785.119
471.4948, 6778.633
471.9769, 6752.976
472.4590, 6723.450
472.9411, 6714.706
473.4232, 6731.099
473.9054, 6739.436
474.3875, 6725.592
474.8696, 6697.549
475.3517, 6688.714
475.8338, 6699.669
476.3159, 6717.103
476.7981, 6736.452
477.2802, 6754.465
477.7623, 6760.346
478.2444, 6751.176
478.7265, 6733.744
479.2086, 6715.212
479.6908, 6694.682
480.1729, 6670.041
480.6550, 6632.225
481.1371, 6595.249
481.6192, 6573.773
482.1013, 6567.546
482.5835, 6560.579
483.0656, 6546.610
483.5477, 6527.541
484.0298, 6504.491
484.5119, 6468.686
484.9940, 6441.030
485.4762, 6434.878
485.9583, 6440.369
486.4404, 6432.116
486.9225, 6390.661
487.4046, 6351.938
487.8867, 6326.905
488.3689, 6318.488
488.8510, 6306.221
489.3331, 6290.637
489.8152, 6270.496
490.2973, 6241.096
490.7794, 6197.390
491.2616, 6168.398
491.7437, 6163.501
492.2258, 6172.429
492.7079, 6164.497
493.1900, 6138.809
493.6722, 6115.459
494.1543, 6113.594
494.6364, 6124.218
495.1185, 6111.158
495.6006, 6070.114
496.0828, 6030.670
496.5649, 6029.459
497.0470, 6051.816
497.5291, 6067.588
498.0112, 6063.637
498.4933, 6052.188
498.9755, 6041.998
499.4576, 6032.635
499.9397, 6023.043
500.4218, 6003.865
500.9039, 5990.497
501.3860, 5997.533
501.8682, 6038.131
502.3503, 6061.716
502.8324, 6037.822
503.3145, 5997.931
503.7966, 5979.734
504.2787, 6003.950
504.7609, 6027.366
505.2430, 6046.434
505.7251, 6060.580
506.2072, 6064.403
506.6893, 6051.006
507.1714, 6039.552
507.6536, 6043.831
508.1357, 6067.343
508.6178, 6076.491
509.0999, 6067.961
509.5820, 6050.521
510.0641, 6030.695
510.5463, 6009.622
511.0284, 6002.596
511.5105, 6018.908
511.9926, 6048.758
512.4747, 6077.291
512.9568, 6103.947
513.4390, 6124.034
513.9211, 6131.583
514.4032, 6131.858
514.8853, 6131.190
515.3674, 6130.723
515.8495, 6128.474
516.3317, 6119.138
516.8138, 6108.358
517.2959, 6103.944
517.7780, 6111.378
518.2601, 6122.583
518.7422, 6134.101
519.2244, 6146.377
519.7065, 6164.276
520.1886, 6196.316
520.6707, 6227.036
521.1528, 6249.486
521.6349, 6261.093
522.1171, 6270.533
522.5992, 6275.791
523.0813, 6280.906
523.5634, 6291.734
524.0455, 6308.931
524.5276, 6328.616
525.0098, 6351.019
525.4919, 6374.641
525.9740, 6396.123
526.4561, 6415.653
526.9382, 6430.452
527.4203, 6436.896
527.9025, 6437.741
528.3846, 6439.344
528.8667, 6442.422
529.3488, 6445.614
529.8309, 6447.353
530.3130, 6448.366
530.7952, 6449.856
531.2773, 6452.968
531.7594, 6456.045
532.2415, 6459.619
532.7236, 6462.868
533.2057, 6462.104
533.6879, 6443.080
534.1700, 6430.226
534.6521, 6440.007
535.1342, 6489.921
535.6163, 6515.612
536.0984, 6499.121
536.5806, 6469.437
537.0627, 6457.389
537.5448, 6470.009
538.0269, 6484.024
538.5090, 6499.002
538.9911, 6511.547
539.4733, 6506.707
539.9554, 6482.012
540.4375, 6457.610
540.9196, 6443.666
541.4017, 6439.069
541.8839, 6440.495
542.3660, 6448.281
542.8481, 6458.185
543.3302, 6471.478
543.8123, 6483.422
544.2944, 6482.623
544.7766, 6455.068
545.2587, 6431.489
545.7408, 6442.860
546.2229, 6477.572
546.7050, 6507.136
547.1871, 6519.862
547.6693, 6524.798
548.1514, 6523.801
548.6335, 6516.284
549.1156, 6511.738
549.5977, 6514.305
550.0798, 6518.481
550.5620, 6520.332
551.0441, 6517.239
551.5262, 6517.277
552.0083, 6522.490
552.4904, 6529.747
552.9725, 6530.834
553.4547, 6523.174
553.9368, 6523.415
554.4189, 6541.229
554.9010, 6570.822
555.3831, 6590.876
555.8652, 6601.394
556.3474, 6602.237
556.8295, 6583.896
557.3116, 6557.269
557.7937, 6546.114
558.2758, 6555.615
558.7579, 6572.028
559.2401, 6586.175
559.7222, 6598.936
560.2043, 6611.569
560.6864, 6629.678
561.1685, 6642.827
561.6506, 6643.280
562.1328, 6633.479
562.6149, 6626.631
563.0970, 6624.625
563.5791, 6626.726
564.0612, 6633.795
564.5433, 6648.685
565.0255, 6656.549
565.5076, 6651.067
565.9897, 6645.969
566.4718, 6659.156
566.9539, 6695.361
567.4360, 6716.640
567.9182, 6709.925
568.4003, 6693.735
568.8824, 6716.166
569.3645, 6773.190
569.8466, 6817.813
570.3287, 6812.571
570.8109, 6783.329
571.2930, 6772.315
571.7751, 6779.562
572.2572, 6792.770
572.7393, 6807.243
573.2214, 6821.478
573.7036, 6833.963
574.1857, 6844.050
574.6678, 6853.091
575.1499, 6859.105
575.6320, 6864.896
576.1141, 6874.681
576.5963, 6893.309
577.0784, 6911.306
577.5605, 6928.891
578.0426, 6944.920
578.5247, 6952.495
579.0068, 6948.646
579.4890, 6942.279
579.9711, 6936.371
580.4532, 6930.681
580.9353, 6930.607
581.4174, 6936.134
581.8995, 6947.366
582.3817, 6968.971
582.8638, 6997.273
583.3459, 7018.324
583.8280, 7027.281
584.3101, 7030.590
584.7922, 7032.040
585.2744, 7033.271
585.7565, 7038.519
586.2386, 7050.020
586.7207, 7065.949
587.2028, 7088.457
587.6849, 7116.983
588.1671, 7139.295
588.6492, 7146.342
589.1313, 7150.188
589.6134, 7157.685
590.0955, 7168.552
590.5776, 7184.702
591.0598, 7210.967
591.5419, 7238.175
592.0240, 7253.108
592.5061, 7253.292
592.9882, 7253.403
593.4703, 7255.965
593.9525, 7260.908
594.4346, 7265.172
594.9167, 7269.490
595.3988, 7284.137
595.8809, 7324.309
596.3630, 7375.112
596.8452, 7411.678
597.3273, 7432.671
597.8094, 7450.806
598.2915, 7474.312
598.7736, 7499.076
599.2557, 7521.448
599.7379, 7540.993
600.2200, 7556.855
600.7021, 7564.294
601.1843, 7568.985
601.6664, 7579.884
602.1485, 7595.812
602.6306, 7620.814
603.1127, 7661.068
603.5948, 7711.526
604.0770, 7744.246
604.5591, 7754.708
605.0412, 7761.516
605.5233, 7771.122
606.0054, 7784.205
606.4875, 7807.594
606.9697, 7841.477
607.4518, 7881.922
607.9339, 7936.169
608.4160, 7992.655
608.8981, 8020.860
609.3802, 8003.321
609.8624, 7988.360
610.3445, 8016.301
610.8266, 8070.821
611.3087, 8125.162
611.7908, 8177.172
612.2729, 8219.877
612.7551, 8241.587
613.2372, 8246.903
613.7193, 8269.796
614.2014, 8323.397
614.6835, 8379.179
615.1656, 8424.148
615.6478, 8456.057
616.1299, 8499.685
616.6120, 8560.443
617.0941, 8618.396
617.5762, 8649.336
618.0583, 8657.671
618.5405, 8677.208
619.0226, 8712.341
619.5047, 8762.021
619.9868, 8838.680
620.4689, 8929.256
620.9510, 9004.608
621.4332, 9033.421
621.9153, 9059.093
622.3974, 9110.343
622.8795, 9182.959
623.3616, 9259.804
623.8438, 9337.590
624.3259, 9416.607
624.8080, 9495.019
625.2901, 9572.062
625.7722, 9656.615
626.2543, 9751.642
626.7365, 9850.495
627.2186, 9947.021
627.7007, 10039.54
628.1828, 10143.42
628.6649, 10262.90
629.1470, 10383.87
629.6292, 10476.79
630.1113, 10549.09
630.5934, 10639.78
631.0755, 10768.70
631.5576, 10914.03
632.0397, 11040.51
632.5219, 11158.51
633.0040, 11299.70
633.4861, 11489.20
633.9682, 11697.07
634.4503, 11910.51
634.9324, 12128.71
635.4146, 12342.83
635.8967, 12535.54
636.3788, 12733.70
636.8609, 12950.79
637.3430, 13183.31
637.8251, 13446.73
638.3073, 13742.64
638.7894, 14062.56
639.2715, 14397.14
639.7536, 14745.09
640.2357, 15106.13
640.7178, 15481.72
641.2000, 15873.70
641.6821, 16292.07
642.1642, 16737.11
642.6463, 17199.74
643.1284, 17676.32
643.6105, 18174.91
644.0927, 18693.03
644.5748, 19233.46
645.0569, 19827.98
645.5390, 20510.03
646.0211, 21231.08
646.5032, 21971.42
646.9854, 22719.34
647.4675, 23519.80
647.9496, 24387.56
648.4317, 25287.52
648.9138, 26197.55
649.3959, 27102.70
649.8781, 28062.72
650.3602, 29079.44
650.8423, 30141.86
651.3244, 31254.49
651.8065, 32410.47
652.2886, 33598.01
652.7708, 34819.72
653.2529, 36062.93
653.7350, 37310.69
654.2171, 38573.41
654.6992, 39846.59
655.1813, 41147.71
655.6635, 42444.29
656.1456, 43702.37
656.6277, 44921.27
657.1098, 46192.69
657.5919, 47597.30
658.0740, 48992.27
658.5562, 50303.43
659.0383, 51530.77
659.5204, 52688.89
660.0025, 53780.49
660.4846, 54813.23
660.9667, 55798.71
661.4489, 56741.09
661.9310, 57605.07
662.4131, 58388.65
662.8952, 59084.93
663.3773, 59690.18
663.8594, 60195.71
664.3416, 60576.37
664.8237, 60785.96
665.3058, 60901.70
665.7879, 61000.09
666.2700, 61045.43
666.7521, 60915.54
667.2343, 60511.11
667.7164, 59994.16
668.1985, 59420.46
668.6806, 58794.73
669.1627, 58062.45
669.6448, 57225.06
670.1270, 56277.69
670.6091, 55197.41
671.0912, 53984.27
671.5733, 52744.00
672.0554, 51487.12
672.5375, 50187.08
673.0197, 48797.79
673.5018, 47354.45
673.9839, 45922.64
674.4660, 44538.45
674.9481, 43141.98
675.4302, 41656.09
675.9124, 40137.75
676.3945, 38646.63
676.8766, 37184.10
677.3587, 35768.68
677.8408, 34400.77
678.3229, 33067.89
678.8051, 31752.81
679.2872, 30447.62
679.7693, 29186.81
680.2514, 27993.31
680.7335, 26857.08
681.2156, 25790.99
681.6978, 24786.79
682.1799, 23825.00
682.6620, 22886.68
683.1441, 21984.66
683.6262, 21128.71
684.1083, 20326.99
684.5905, 19559.45
685.0726, 18818.07
685.5547, 18110.62
686.0368, 17453.88
686.5189, 16860.25
687.0010, 16295.64
687.4832, 15754.84
687.9653, 15239.56
688.4474, 14760.31
688.9295, 14324.75
689.4116, 13905.12
689.8937, 13496.80
690.3759, 13109.48
690.8580, 12765.68
691.3401, 12463.37
691.8222, 12180.20
692.3043, 11905.46
692.7864, 11643.86
693.2686, 11402.66
693.7507, 11178.57
694.2328, 10965.75
694.7149, 10746.02
695.1970, 10544.11
695.6791, 10384.29
696.1613, 10266.56
696.6434, 10132.41
697.1255, 9947.681
697.6076, 9771.798
698.0897, 9630.637
698.5718, 9531.119
699.0540, 9432.704
699.5361, 9335.203
700.0182, 9239.372
700.5003, 9145.835
700.9824, 9054.560
701.4645, 8963.690
701.9467, 8872.722
702.4288, 8788.275
702.9109, 8722.728
703.3930, 8666.613
703.8751, 8605.348
704.3572, 8527.460
704.8394, 8454.285
705.3215, 8393.669
705.8036, 8343.185
706.2857, 8298.465
706.7678, 8263.138
707.2499, 8225.509
707.7321, 8179.209
708.2142, 8130.404
708.6963, 8106.124
709.1784, 8109.617
709.6605, 8104.242
710.1426, 8067.591
710.6248, 8013.335
711.1069, 7973.021
711.5890, 7945.489
712.0711, 7924.146
712.5532, 7906.866
713.0353, 7892.728
713.5175, 7885.879
713.9996, 7887.347
714.4817, 7874.267
714.9638, 7819.909
715.4459, 7765.197
715.9280, 7732.801
716.4102, 7725.327
716.8923, 7736.271
717.3744, 7778.057
717.8565, 7815.006
718.3386, 7804.545
718.8207, 7751.597
719.3029, 7707.337
719.7850, 7679.096
720.2671, 7661.648
720.7492, 7651.747
721.2313, 7648.255
721.7134, 7650.816
722.1956, 7676.915
722.6777, 7683.303
723.1598, 7627.075
723.6419, 7540.694
724.1240, 7488.035
724.6061, 7507.751
725.0883, 7520.797
725.5704, 7514.778
726.0525, 7493.373
726.5346, 7466.896
727.0167, 7434.692
727.4988, 7403.399
727.9810, 7377.528
728.4631, 7353.942
728.9452, 7321.863
729.4273, 7283.324
729.9094, 7251.384
730.3915, 7241.145
730.8737, 7235.760
731.3558, 7221.034
731.8379, 7196.101
732.3200, 7171.907
732.8021, 7149.564
733.2842, 7130.560
733.7664, 7114.652
734.2485, 7100.732
734.7306, 7095.743
735.2127, 7101.538
735.6948, 7111.894
736.1769, 7129.974
736.6591, 7151.375
737.1412, 7138.354
737.6233, 7083.354
738.1054, 7023.806
738.5875, 6996.940
739.0696, 6988.730
739.5518, 6980.163
740.0339, 6968.979
740.5161, 6951.387
740.9982, 6917.530
741.4803, 6879.271
741.9624, 6853.688
742.4445, 6846.503
742.9266, 6842.044
743.4088, 6839.559
743.8909, 6838.308
744.3730, 6837.524
744.8551, 6837.221
745.3372, 6834.913
745.8193, 6830.369
746.3015, 6822.701
746.7836, 6806.104
747.2657, 6784.744
747.7478, 6770.500
748.2299, 6781.557
748.7120, 6789.820
749.1942, 6776.046
749.6763, 6744.525
750.1584, 6720.004
750.6405, 6710.632
751.1226, 6701.677
751.6047, 6684.799
752.0869, 6662.579
752.5690, 6667.403
753.0511, 6703.281
753.5332, 6734.183
754.0153, 6730.354
754.4974, 6706.613
754.9796, 6699.486
755.4617, 6708.809
755.9438, 6717.738
756.4259, 6717.877
756.9080, 6711.118
757.3901, 6695.430
757.8723, 6667.220
758.3544, 6650.709
758.8365, 6662.941
759.3186, 6676.238
759.8007, 6673.389
760.2828, 6649.771
760.7650, 6629.249
761.2471, 6610.182
761.7292, 6599.170
762.2113, 6610.816
762.6934, 6636.489
763.1755, 6646.846
763.6577, 6635.051
764.1398, 6619.208
764.6219, 6612.925
765.1040, 6611.007
765.5861, 6607.329
766.0682, 6599.872
766.5504, 6591.464
767.0325, 6581.092
767.5146, 6570.872
767.9967, 6562.676
768.4788, 6555.867
768.9609, 6554.206
769.4431, 6559.569
769.9252, 6567.856
770.4073, 6574.413
770.8894, 6578.409
771.3715, 6575.813
771.8536, 6562.201
772.3358, 6546.423
772.8179, 6536.910
773.3000, 6530.696
773.7821, 6521.918
774.2642, 6504.136
774.7463, 6488.851
775.2285, 6477.279
775.7106, 6470.343
776.1927, 6473.005
776.6748, 6489.313
777.1569, 6500.316
777.6390, 6500.061
778.1212, 6490.651
778.6033, 6471.636
779.0854, 6446.045
779.5675, 6430.181
780.0496, 6444.357
780.5317, 6462.948
781.0139, 6462.171
781.4960, 6445.661
781.9781, 6432.779
782.4602, 6439.225
782.9423, 6439.474
783.4244, 6416.287
783.9066, 6374.163
784.3887, 6371.812
784.8708, 6420.525
785.3529, 6465.673
785.8350, 6475.826
786.3171, 6459.331
786.7993, 6442.194
787.2814, 6424.773
787.7635, 6410.360
788.2456, 6401.942
788.7277, 6396.729
789.2098, 6389.593
789.6920, 6379.949
790.1741, 6383.034
790.6562, 6423.670
791.1383, 6457.693
791.6204, 6461.875
792.1025, 6432.747
792.5847, 6417.323
793.0668, 6417.804
793.5489, 6422.916
794.0310, 6425.971
794.5131, 6426.516
794.9952, 6421.125
795.4774, 6409.485
795.9595, 6401.300
796.4416, 6407.924
796.9237, 6418.131
797.4058, 6420.161
797.8879, 6407.216
798.3701, 6407.186
798.8522, 6433.404
799.3343, 6461.816
799.8164, 6476.083
800.2985, 6475.036
800.7806, 6466.370
801.2628, 6448.122
801.7449, 6432.441
802.2270, 6434.334
802.7091, 6447.183
803.1912, 6458.606
803.6733, 6466.661
804.1555, 6473.080
804.6376, 6481.372
805.1197, 6487.110
805.6018, 6486.130
806.0839, 6475.069
806.5660, 6461.040
807.0482, 6438.174
807.5303, 6419.669
808.0124, 6423.439
808.4945, 6449.497
808.9766, 6464.641
809.4587, 6465.083
809.9409, 6455.366
810.4230, 6430.290
810.9051, 6401.574
811.3872, 6388.926
811.8693, 6401.309
812.3514, 6418.071
812.8336, 6437.860
813.3157, 6453.988
813.7978, 6458.604
814.2799, 6447.232
814.7620, 6432.807
815.2441, 6411.133
815.7263, 6395.055
816.2084, 6408.775
816.6905, 6446.450
817.1726, 6470.376
817.6547, 6471.552
818.1368, 6463.340
818.6190, 6455.487
819.1011, 6447.277
819.5832, 6438.117
820.0653, 6433.130
820.5474, 6418.685
821.0295, 6376.371
821.5117, 6332.768
821.9938, 6319.706
822.4759, 6346.482
822.9580, 6361.617
823.4401, 6356.481
823.9222, 6344.791
824.4044, 6351.406
824.8865, 6367.266
825.3686, 6364.807
825.8507, 6327.504
826.3328, 6294.138
826.8149, 6289.541
827.2971, 6304.891
827.7792, 6329.037
828.2613, 6394.623
828.7434, 6416.827
829.2255, 6371.315
829.7076, 6304.354
830.1898, 6283.703
830.6719, 6309.407
831.1540, 6321.568
831.6361, 6305.462
832.1182, 6285.442
832.6003, 6301.454
833.0825, 6331.249
833.5646, 6335.631
834.0467, 6283.189
834.5288, 6238.761
835.0109, 6228.234
835.4930, 6236.851
835.9752, 6244.736
836.4573, 6254.250
836.9394, 6255.042
837.4215, 6243.365
837.9036, 6228.246
838.3857, 6224.829
838.8679, 6229.550
839.3500, 6225.431
839.8321, 6202.668
840.3142, 6188.613
840.7963, 6225.099
841.2784, 6275.449
841.7606, 6293.243
842.2427, 6222.210
842.7248, 6184.841
843.2069, 6206.021
843.6890, 6247.003
844.1711, 6259.393
844.6533, 6241.494
845.1354, 6232.612
845.6175, 6240.458
846.0996, 6248.587
846.5817, 6228.138
847.0638, 6196.546
847.5460, 6189.086
848.0281, 6230.623
848.5102, 6254.307
848.9923, 6209.271
849.4744, 6146.034
849.9565, 6119.031
850.4387, 6145.478
850.9208, 6166.313
851.4029, 6178.711
851.8850, 6186.639
852.3671, 6194.097
852.8492, 6201.041
853.3314, 6209.032
853.8135, 6219.769
854.2956, 6223.118
854.7777, 6193.947
855.2598, 6162.558
855.7419, 6163.789
856.2241, 6232.252
856.7062, 6267.557
857.1883, 6248.514
857.6704, 6213.968
858.1525, 6199.419
858.6346, 6205.724
859.1168, 6190.478
859.5989, 6147.709
860.0810, 6112.250
860.5631, 6126.315
861.0452, 6165.512
861.5273, 6200.472
862.0095, 6227.943
862.4916, 6240.051
862.9737, 6213.568
863.4558, 6186.272
863.9379, 6187.025
864.4200, 6226.050
864.9022, 6239.822
865.3843, 6224.211
865.8664, 6199.293
866.3485, 6175.149
866.8306, 6155.682
867.3127, 6153.059
867.7949, 6167.774
868.2770, 6183.051
868.7591, 6196.831
869.2412, 6200.942
869.7233, 6183.337
870.2054, 6136.367
870.6876, 6115.725
871.1697, 6130.146
871.6518, 6154.095
872.1339, 6178.411
872.6160, 6201.056
873.0981, 6202.158
873.5803, 6182.870
874.0624, 6168.148
874.5445, 6188.020
875.0266, 6210.418
875.5087, 6200.065
875.9908, 6158.804
876.4730, 6132.048
876.9551, 6133.281
877.4372, 6148.822
877.9193, 6182.825
878.4014, 6228.892
878.8835, 6241.455
879.3657, 6219.661
879.8478, 6201.054
880.3299, 6213.448
880.8120, 6235.459
881.2941, 6238.693
881.7763, 6225.845
882.2584, 6206.465
882.7405, 6169.011
883.2227, 6142.530
883.7048, 6141.128
884.1869, 6157.745
884.6690, 6175.857
885.1511, 6197.883
885.6332, 6207.311
886.1154, 6192.990
886.5975, 6172.047
887.0796, 6181.171
887.5617, 6209.502
888.0438, 6227.354
888.5259, 6212.100
889.0081, 6194.752
889.4902, 6193.220
889.9723, 6197.558
890.4544, 6187.272
890.9365, 6151.200
891.4186, 6129.333
891.9008, 6129.462
892.3829, 6141.251
892.8650, 6150.436
893.3471, 6157.482
893.8292, 6164.854
894.3113, 6174.193
894.7935, 6180.600
895.2756, 6173.080
895.7577, 6164.167
896.2398, 6169.040
896.7219, 6210.670
897.2040, 6227.771
897.6862, 6209.818
898.1683, 6184.392
898.6504, 6183.361
899.1325, 6202.330
899.6146, 6210.102
900.0967, 6203.059
900.5789, 6191.438
901.0610, 6177.741
901.5431, 6167.207
902.0252, 6167.817
902.5073, 6185.107
902.9894, 6189.159
903.4716, 6167.208
903.9537, 6144.954
904.4358, 6135.935
904.9179, 6139.943
905.4000, 6151.548
905.8821, 6170.763
906.3643, 6191.103
906.8464, 6220.588
907.3285, 6240.574
907.8106, 6220.636
908.2927, 6165.440
908.7748, 6125.377
909.2570, 6126.024
909.7391, 6132.746
910.2212, 6136.605
910.7033, 6137.682
911.1854, 6132.182
911.6675, 6119.601
912.1497, 6121.611
912.6318, 6162.469
913.1139, 6207.545
913.5960, 6207.121
914.0781, 6175.494
914.5602, 6147.182
915.0424, 6130.853
915.5245, 6124.749
916.0066, 6131.862
916.4887, 6146.674
916.9708, 6162.593
917.4529, 6180.980
917.9351, 6183.523
918.4172, 6162.558
918.8993, 6135.797
919.3814, 6127.381
919.8635, 6129.376
920.3456, 6127.717
920.8278, 6113.644
921.3099, 6106.734
921.7920, 6121.035
922.2741, 6139.360
922.7562, 6146.628
923.2383, 6140.628
923.7205, 6134.654
924.2026, 6128.706
924.6847, 6125.351
925.1668, 6130.581
925.6489, 6138.646
926.1310, 6139.376
926.6132, 6131.453
927.0953, 6123.726
927.5774, 6112.336
928.0595, 6109.783
928.5416, 6128.285
929.0237, 6167.640
929.5059, 6175.163
929.9880, 6146.257
930.4701, 6118.521
930.9522, 6114.937
931.4343, 6126.239
931.9164, 6142.000
932.3986, 6159.616
932.8807, 6169.651
933.3628, 6163.616
933.8449, 6153.594
934.3270, 6139.484
934.8091, 6125.543
935.2913, 6125.658
935.7734, 6143.745
936.2555, 6148.612
936.7376, 6127.938
937.2197, 6100.087
937.7018, 6094.114
938.1840, 6100.948
938.6661, 6101.145
939.1482, 6079.489
939.6303, 6067.203
940.1124, 6083.066
940.5945, 6107.537
941.0767, 6120.697
941.5588, 6119.977
942.0409, 6121.097
942.5230, 6124.111
943.0051, 6133.166
943.4872, 6163.854
943.9694, 6198.654
944.4515, 6206.405
944.9336, 6182.327
945.4157, 6158.764
945.8978, 6147.609
946.3799, 6141.960
946.8621, 6139.711
947.3442, 6140.602
947.8263, 6134.794
948.3084, 6121.156
948.7905, 6112.690
949.2726, 6116.543
949.7548, 6130.174
950.2369, 6152.840
950.7190, 6182.541
951.2011, 6212.731
951.6832, 6262.157
952.1653, 6284.389
952.6475, 6252.460
953.1296, 6194.768
953.6117, 6176.203
954.0938, 6198.334
954.5759, 6211.728
955.0580, 6204.268
955.5402, 6186.835
956.0223, 6162.195
956.5044, 6139.610
956.9865, 6135.146
957.4686, 6167.588
957.9507, 6184.459
958.4329, 6164.988
958.9150, 6141.092
959.3971, 6140.626
959.8792, 6164.280
960.3613, 6174.209
960.8434, 6169.208
961.3256, 6158.312
961.8077, 6142.024
962.2898, 6128.091
962.7719, 6123.280
963.2540, 6128.080
963.7361, 6142.387
964.2183, 6183.759
964.7004, 6208.611
965.1825, 6196.900
965.6646, 6160.497
966.1467, 6139.534
966.6288, 6133.386
967.1110, 6136.096
967.5931, 6149.574
968.0752, 6165.180
968.5573, 6177.501
969.0394, 6186.588
969.5215, 6192.501
970.0037, 6193.651
970.4858, 6195.439
970.9679, 6201.647
971.4500, 6202.609
971.9321, 6178.060
972.4142, 6136.689
972.8964, 6115.664
973.3785, 6121.125
973.8606, 6131.338
974.3427, 6132.387
974.8248, 6131.250
975.3069, 6135.536
975.7891, 6147.298
976.2712, 6144.280
976.7533, 6119.874
977.2354, 6101.591
977.7175, 6110.433
978.1996, 6133.303
978.6818, 6132.938
979.1639, 6115.386
979.6460, 6104.801
980.1281, 6118.229
980.6102, 6135.357
981.0923, 6151.077
981.5745, 6163.655
982.0566, 6170.656
982.5387, 6172.663
983.0208, 6162.143
983.5029, 6132.524
983.9850, 6106.789
984.4672, 6123.460
984.9493, 6160.357
985.4314, 6181.517
985.9135, 6176.815
986.3956, 6166.920
986.8777, 6148.872
987.3599, 6135.895
987.8420, 6136.823
988.3241, 6151.718
988.8062, 6168.132
989.2883, 6186.171
989.7704, 6195.498
990.2526, 6178.895
990.7347, 6157.848
991.2168, 6157.004
991.6989, 6171.902
992.1810, 6181.191
992.6631, 6172.404
993.1453, 6170.398
993.6274, 6182.797
994.1095, 6201.143
994.5916, 6207.705
995.0737, 6204.502
995.5558, 6201.277
996.0380, 6199.432
996.5201, 6201.747
997.0022, 6222.917
997.4843, 6242.126
997.9664, 6231.957
998.4485, 6174.111
998.9307, 6149.677
999.4128, 6165.268
999.8949, 6194.092
1000.377, 6222.770
1000.859, 6247.728
1001.341, 6261.481
1001.823, 6263.969
1002.305, 6256.980
1002.788, 6226.749
1003.270, 6203.053
1003.752, 6203.105
1004.234, 6217.678
1004.716, 6221.896
1005.198, 6214.419
1005.680, 6211.462
1006.162, 6218.006
1006.645, 6228.490
1007.127, 6236.520
1007.609, 6243.828
1008.091, 6253.427
1008.573, 6269.063
1009.055, 6278.705
1009.537, 6277.461
1010.019, 6274.945
1010.501, 6279.801
1010.984, 6290.666
1011.466, 6289.491
1011.948, 6277.244
1012.430, 6271.844
1012.912, 6293.001
1013.394, 6318.116
1013.876, 6333.257
1014.358, 6338.552
1014.841, 6338.227
1015.323, 6329.368
1015.805, 6324.137
1016.287, 6326.520
1016.769, 6330.997
1017.251, 6325.157
1017.733, 6314.926
1018.215, 6314.268
1018.697, 6330.069
1019.180, 6344.947
1019.662, 6349.288
1020.144, 6352.297
1020.626, 6361.765
1021.108, 6378.458
1021.590, 6386.625
1022.072, 6386.055
1022.554, 6381.979
1023.037, 6372.807
1023.519, 6365.841
1024.001, 6373.271
1024.483, 6390.421
1024.965, 6398.772
1025.447, 6380.317
1025.929, 6376.741
1026.411, 6400.250
1026.893, 6433.854
1027.376, 6450.283
1027.858, 6451.237
1028.340, 6438.538
1028.822, 6408.294
1029.304, 6387.416
1029.786, 6403.985
1030.268, 6428.577
1030.750, 6436.168
1031.233, 6424.682
1031.715, 6418.096
1032.197, 6415.818
1032.679, 6423.043
1033.161, 6456.509
1033.643, 6492.042
1034.125, 6485.157
1034.607, 6449.619
1035.089, 6424.854
1035.572, 6430.818
1036.054, 6440.826
1036.536, 6454.928
1037.018, 6465.783
1037.500, 6457.769
1037.982, 6434.471
1038.464, 6424.282
1038.946, 6431.290
1039.428, 6445.373
1039.911, 6469.637
1040.393, 6489.439
1040.875, 6490.770
1041.357, 6472.739
1041.839, 6453.470
1042.321, 6431.243
1042.803, 6415.118
1043.285, 6409.908
1043.768, 6412.521
1044.250, 6421.951
1044.732, 6434.504
1045.214, 6442.110
1045.696, 6439.479
1046.178, 6434.598
1046.660, 6426.787
1047.142, 6419.509
1047.625, 6415.888
1048.107, 6415.848
1048.589, 6419.801
1049.071, 6427.778
1049.553, 6432.905
1050.035, 6432.928
1050.517, 6425.655
1050.999, 6403.735
1051.481, 6370.230
1051.964, 6351.084
1052.446, 6349.699
1052.928, 6353.548
1053.410, 6362.915
1053.892, 6368.494
1054.374, 6342.166
1054.856, 6303.832
1055.338, 6294.938
1055.820, 6340.429
1056.303, 6374.443
1056.785, 6369.187
1057.267, 6358.013
1057.749, 6364.605
1058.231, 6386.549
1058.713, 6382.933
1059.195, 6355.869
1059.677, 6332.858
1060.160, 6332.811
1060.642, 6340.771
1061.124, 6355.756
1061.606, 6369.507
1062.088, 6358.995
1062.570, 6310.648
1063.052, 6285.786
1063.534, 6297.315
1064.016, 6316.973
1064.499, 6308.051
1064.981, 6285.800
1065.463, 6274.743
1065.945, 6278.501
1066.427, 6285.673
1066.909, 6299.129
1067.391, 6307.426
1067.873, 6302.608
1068.355, 6290.922
1068.838, 6300.836
1069.320, 6327.279
1069.802, 6343.440
1070.284, 6337.991
1070.766, 6320.868
1071.248, 6285.988
1071.730, 6249.560
1072.212, 6229.938
1072.695, 6229.045
1073.177, 6240.935
1073.659, 6267.544
1074.141, 6276.996
1074.623, 6295.123
1075.105, 6304.290
1075.587, 6304.977
1076.069, 6271.790
1076.552, 6282.340
1077.034, 6275.365
1077.516, 6267.671
1077.998, 6284.382
1078.480, 6256.122
1078.962, 6272.446
1079.444, 6270.973
1079.926, 6277.645
1080.408, 6266.679
1080.891, 6261.156
1081.373, 6273.282
1081.855, 6275.638
1082.337, 6262.641
1082.819, 6250.935
1083.301, 6253.569
1083.783, 6261.518
1084.265, 6267.246
1084.747, 6264.352
1085.230, 6261.993
1085.712, 6274.810
1086.194, 6291.672
1086.676, 6293.193
1087.158, 6261.962
1087.640, 6254.036
1088.122, 6277.165
1088.604, 6300.071
1089.087, 6290.968
1089.569, 6264.751
1090.051, 6245.208
1090.533, 6233.608
1091.015, 6229.939
1091.497, 6243.622
1091.979, 6253.722
1092.461, 6257.103
1092.943, 6252.848
1093.426, 6230.867
1093.908, 6197.616
1094.390, 6188.973
1094.872, 6214.655
1095.354, 6244.008
1095.836, 6263.256
1096.318, 6273.716
1096.800, 6276.624
1097.283, 6272.315
1097.765, 6254.753
1098.247, 6222.300
1098.729, 6207.783
1099.211, 6241.296
1099.693, 6275.123
1100.175, 6241.471
1100.657, 6179.583
1101.140, 6153.292
1101.622, 6202.139
1102.104, 6224.596
1102.586, 6212.736
1103.068, 6196.917
1103.550, 6205.889
1104.032, 6226.672
1104.514, 6231.689
1104.996, 6223.482
1105.479, 6217.762
1105.961, 6233.262
1106.443, 6233.225
1106.925, 6200.802
1107.407, 6160.276
1107.889, 6152.306
1108.371, 6171.767
1108.853, 6197.159
1109.335, 6226.945
1109.818, 6244.181
1110.300, 6226.987
1110.782, 6204.481
1111.264, 6192.421
1111.746, 6190.579
1112.228, 6200.932
1112.710, 6223.982
1113.192, 6241.867
1113.675, 6245.753
1114.157, 6248.514
1114.639, 6268.616
1115.121, 6291.748
1115.603, 6299.350
1116.085, 6284.210
1116.567, 6272.524
1117.049, 6264.767
1117.531, 6258.545
1118.014, 6249.263
1118.496, 6242.458
1118.978, 6252.377
1119.460, 6272.168
1119.942, 6284.356
1120.424, 6281.940
1120.906, 6271.555
1121.388, 6249.543
1121.870, 6227.676
1122.353, 6221.820
1122.835, 6226.319
1123.317, 6220.894
1123.799, 6205.564
1124.281, 6198.530
1124.763, 6218.931
1125.245, 6236.995
1125.727, 6231.442
1126.210, 6222.970
1126.692, 6279.757
1127.174, 6389.220
1127.656, 6424.818
1128.138, 6349.836
1128.620, 6264.823
1129.102, 6231.025
1129.584, 6224.516
1130.067, 6236.217
1130.549, 6262.284
1131.031, 6257.084
1131.513, 6217.246
1131.995, 6200.542
1132.477, 6245.714
1132.959, 6295.304
1133.441, 6282.428
1133.923, 6239.474
1134.406, 6211.116
1134.888, 6205.363
1135.370, 6208.625
1135.852, 6224.141
1136.334, 6235.667
1136.816, 6227.472
1137.298, 6211.185
1137.780, 6202.910
1138.262, 6202.348
1138.745, 6208.504
1139.227, 6236.476
1139.709, 6245.090
1140.191, 6221.282
1140.673, 6197.739
1141.155, 6220.510
1141.637, 6269.728
1142.119, 6293.380
1142.602, 6290.438
1143.084, 6288.031
1143.566, 6306.866
1144.048, 6315.247
1144.530, 6300.555
1145.012, 6274.861
1145.494, 6260.922
1145.976, 6256.882
1146.458, 6252.782
1146.941, 6246.066
1147.423, 6245.841
1147.905, 6269.688
1148.387, 6289.059
1148.869, 6286.114
1149.351, 6265.245
1149.833, 6246.496
1150.315, 6230.500
1150.797, 6227.859
1151.280, 6245.902
1151.762, 6268.363
1152.244, 6289.409
1152.726, 6304.206
1153.208, 6306.243
1153.690, 6294.002
1154.172, 6289.686
1154.654, 6293.751
1155.137, 6295.303
1155.619, 6287.518
1156.101, 6275.218
1156.583, 6256.645
1157.065, 6238.730
1157.547, 6235.953
1158.029, 6255.342
1158.511, 6269.817
1158.994, 6278.962
1159.476, 6282.298
1159.958, 6273.195
1160.440, 6262.370
1160.922, 6264.556
1161.404, 6277.371
1161.886, 6290.771
1162.368, 6311.120
1162.850, 6312.563
1163.333, 6286.703
1163.815, 6256.008
1164.297, 6247.325
1164.779, 6251.350
1165.261, 6250.741
1165.743, 6244.833
1166.225, 6250.102
1166.707, 6283.133
1167.189, 6305.969
1167.672, 6307.505
1168.154, 6297.830
1168.636, 6294.771
1169.118, 6294.813
1169.600, 6288.974
1170.082, 6274.546
1170.564, 6262.659
1171.046, 6259.944
1171.529, 6255.658
1172.011, 6240.760
1172.493, 6225.154
1172.975, 6248.589
1173.457, 6296.759
1173.939, 6321.007
1174.421, 6295.623
1174.903, 6272.814
1175.385, 6279.606
1175.868, 6288.962
1176.350, 6282.531
1176.832, 6264.644
1177.314, 6264.523
1177.796, 6279.588
1178.278, 6296.275
1178.760, 6314.299
1179.242, 6324.418
1179.724, 6315.792
1180.207, 6302.407
1180.689, 6293.372
1181.171, 6288.830
1181.653, 6314.445
1182.135, 6366.716
1182.617, 6395.546
1183.099, 6341.364
1183.581, 6287.329
1184.064, 6285.461
1184.546, 6306.619
1185.028, 6303.746
1185.510, 6275.341
1185.992, 6280.825
1186.474, 6325.000
1186.956, 6359.497
1187.438, 6335.920
1187.921, 6303.775
1188.403, 6293.907
1188.885, 6301.773
1189.367, 6317.645
1189.849, 6342.926
1190.331, 6349.002
1190.813, 6329.318
1191.295, 6312.124
1191.777, 6331.168
1192.260, 6354.564
1192.742, 6351.332
1193.224, 6327.428
1193.706, 6326.440
1194.188, 6351.698
1194.670, 6365.900
1195.152, 6359.249
1195.634, 6344.237
1196.116, 6326.628
1196.599, 6311.231
1197.081, 6303.139
1197.563, 6302.515
1198.045, 6306.930
1198.527, 6317.645
1199.009, 6320.898
1199.491, 6308.811
1199.973, 6294.628
1200.456, 6285.911
1200.938, 6286.851
1201.420, 6310.677
1201.902, 6364.094
1202.384, 6371.083
1202.866, 6323.884
1203.348, 6290.522
1203.830, 6311.057
1204.313, 6351.110
1204.795, 6386.018
1205.277, 6409.315
1205.759, 6408.609
1206.241, 6373.854
1206.723, 6353.937
1207.205, 6350.666
1207.687, 6348.978
1208.169, 6333.938
1208.651, 6320.353
1209.134, 6328.544
1209.616, 6349.473
1210.098, 6365.879
1210.580, 6378.670
1211.062, 6377.824
1211.544, 6360.506
1212.026, 6345.365
1212.508, 6353.036
1212.991, 6365.739
1213.473, 6362.307
1213.955, 6348.056
1214.437, 6339.384
1214.919, 6341.585
1215.401, 6334.870
1215.883, 6316.107
1216.365, 6297.857
1216.848, 6284.149
1217.330, 6281.972
1217.812, 6311.320
1218.294, 6360.695
1218.776, 6379.501
1219.258, 6357.067
1219.740, 6331.539
1220.222, 6304.667
1220.704, 6292.133
1221.187, 6325.088
1221.669, 6369.601
1222.151, 6389.991
1222.633, 6386.095
1223.115, 6378.487
1223.597, 6366.758
1224.079, 6357.550
1224.561, 6352.198
1225.043, 6349.122
1225.526, 6351.552
1226.008, 6351.856
1226.490, 6336.440
1226.972, 6306.471
1227.454, 6295.718
1227.936, 6305.004
1228.418, 6333.863
1228.900, 6388.995
1229.383, 6437.856
1229.865, 6440.098
1230.347, 6419.648
1230.829, 6396.833
1231.311, 6374.045
1231.793, 6368.023
1232.275, 6382.454
1232.757, 6382.036
1233.240, 6348.645
1233.722, 6318.131
1234.204, 6340.306
1234.686, 6378.285
1235.168, 6391.595
1235.650, 6377.688
1236.132, 6364.892
1236.614, 6353.123
1237.096, 6344.734
1237.579, 6340.393
1238.061, 6340.336
1238.543, 6352.983
1239.025, 6364.526
1239.507, 6352.806
1239.989, 6316.305
1240.471, 6317.084
1240.953, 6355.948
1241.436, 6392.255
1241.918, 6408.598
1242.400, 6413.422
1242.882, 6406.880
1243.364, 6396.357
1243.846, 6389.816
1244.328, 6387.488
1244.810, 6386.264
1245.292, 6385.987
1245.775, 6382.300
1246.257, 6369.772
1246.739, 6358.044
1247.221, 6348.309
1247.703, 6346.926
1248.185, 6363.945
1248.667, 6400.588
1249.149, 6406.064
1249.631, 6384.006
1250.114, 6370.545
1250.596, 6400.074
1251.078, 6424.940
1251.560, 6416.944
1252.042, 6395.881
1252.524, 6376.849
1253.006, 6360.630
1253.488, 6364.876
1253.971, 6386.842
1254.453, 6405.618
1254.935, 6412.805
##END=



